Time (s),Gyroscope X (deg/s),Gyroscope Y (deg/s),Gyroscope Z (deg/s),Accelerometer X (g),Accelerometer Y (g),Accelerometer Z (g),Magnetometer X (uT),Magnetometer Y (uT),Magnetometer Z (uT)
140.385030747,20.62428,21.67147,-8.31446000000002,1.008241,0.1088047,0.0767888,-46.56911,-28.28657,-2.188864
140.397421837,18.95196,15.72977,-6.84175,1.01096,0.1192221,0.1157259,-46.56911,-28.28657,-2.188864
140.407334805,16.16475,15.14725,-5.246314,1.014388,0.1324381,0.1316274,-46.56911,-28.28657,-2.188864
140.417247295,12.0149,15.72977,-4.448596,0.9986798,0.1458689,0.1414654,-46.56911,-28.28657,-2.188864
140.42716074,5.94496599999999,14.21522,-4.019056,0.9716894,0.1508473,0.1379069,-46.56911,-28.28657,-2.188864
140.437073231,-0.806281,11.01136,-4.141782,0.9532743,0.1399689,0.1413658,-45.80605,-29.41029,-2.189295
140.446985722,-8.053034,9.67157,-4.509959,0.9636374,0.1406347,0.1513577,-45.80605,-29.41029,-2.189295
140.456898689,-13.81327,9.96283000000002,-5.307677,0.9771391,0.1490004,0.1426458,-45.80605,-29.41029,-2.189295
140.466811657,-18.89219,10.02108,-6.47357199999998,0.9735216,0.1459294,0.1200913,-45.80605,-29.41029,-2.189295
140.476724625,-21.86522,8.91429399999998,-7.148564,0.9752097,0.139473,0.0864216,-45.80605,-29.41029,-2.189295
140.486637116,-23.66142,6.81722400000001,-7.57810399999998,0.9830368,0.1259144,0.07089382,-46.56424,-29.04125,-3.535692
140.49655056,-23.10398,5.593933,-7.82355600000003,0.9939638,0.1017472,0.05910798,-46.56424,-29.04125,-3.535692
140.506463051,-20.93615,5.88519199999999,-7.88491900000001,0.9920729,0.08517119,0.04605076,-46.56424,-29.04125,-3.535692
140.516375542,-17.96312,6.05994799999998,-7.88491900000001,0.9748814,0.07320896,0.02452293,-46.56424,-29.04125,-3.535692
140.526288033,-15.42366,4.778405,-7.63946799999999,0.9637471,0.05605313,0.01538861,-46.56424,-29.04125,-3.535692
140.536201477,-13.37971,3.555114,-7.02583799999998,0.9628335,0.04778167,0.01198085,-46.18166,-29.79198,-3.920799
140.546113968,-11.76932,3.555114,-6.596298,0.9763021,0.04271992,0.03198921,-46.18166,-29.79198,-3.920799
140.556026935,-9.911175,5.186169,-6.53493500000002,0.9872757,0.04394285,0.05446331,-46.18166,-29.79198,-3.920799
140.565939426,-8.300786,6.81722400000001,-6.10539499999999,0.984406,0.06003707,0.07956529,-46.18166,-29.79198,-3.920799
140.575852871,-7.18590000000003,8.62303400000002,-6.22812100000001,0.9922073,0.07134307,0.09061211,-46.18166,-29.79198,-3.920799
140.585765362,-5.88520100000001,9.96283000000002,-6.289484,1.003866,0.09047472,0.1055166,-45.44282,-29.42281,-5.274983
140.595677853,-5.637449,10.07933,-5.92130599999998,0.9920477,0.1102845,0.1206428,-45.44282,-29.42281,-5.274983
140.60559082,-5.76132499999998,9.84632599999999,-5.307677,0.9788586,0.107199,0.1183435,-45.44282,-29.42281,-5.274983
140.615503788,-6.87620999999998,8.50653100000001,-4.325871,0.9715564,0.1090751,0.1237052,-45.44282,-29.42281,-5.274983
140.625416756,-7.86721900000001,6.93372799999998,-3.89633,0.968169,0.1114897,0.1299947,-45.44282,-29.42281,-5.274983
140.635329246,-9.22985600000001,6.351208,-3.89633,0.9673246,0.1056932,0.136206,-45.43958,-29.79924,-5.723541
140.645241737,-9.663423,7.39974399999998,-3.773605,0.9734273,0.08637686,0.136501,-45.43958,-29.79924,-5.723541
140.655155182,-9.911175,9.08905000000002,-3.221339,0.9735943,0.07280521,0.1368892,-45.43958,-29.79924,-5.723541
140.665067673,-9.41567000000003,11.36088,-2.853161,0.979628,0.06174568,0.1401208,-45.43958,-29.79924,-5.723541
140.67498064,-8.67241400000003,14.27347,-2.669072,0.9807171,0.05449867,0.1424633,-45.43958,-29.79924,-5.723541
140.687371731,-7.61946700000001,18.64237,-2.669072,0.9770573,0.04043441,0.1505661,-45.81037,-30.17543,-6.105908
140.697284222,-6.25683000000001,23.36078,-3.221339,0.9801173,0.03273199,0.1538476,-45.81037,-30.17543,-6.105908
140.707197189,-5.018068,28.13744,-2.607709,0.9885848,0.02218508,0.15658,-45.81037,-30.17543,-6.105908
140.717110157,-4.02706,33.72963,-1.748629,0.970426,0.03119184,0.1606492,-45.81037,-30.17543,-6.105908
140.727023125,-2.478608,40.1956,-1.809992,0.9729571,0.04004784,0.1794109,-45.81037,-30.17543,-6.105908
140.736935615,-1.549538,46.37031,-0.03046724,1.000049,0.02000015,0.1751855,-45.81519,-30.18092,-7.455046
140.74684906,-1.054033,54.35083,2.424049,0.9768769,0.0459547,0.1870966,-45.81519,-30.18092,-7.455046
140.756761551,-1.054033,58.7779800000002,-1.012274,0.9612476,0.03796292,0.1795053,-45.81519,-30.18092,-7.455046
140.766674042,-2.478608,60.7585400000003,-1.257725,0.9572497,0.05055208,0.1858682,-45.81519,-30.18092,-7.455046
140.776586533,-4.33675,65.4769400000002,0.03089567,0.9559197,0.07425911,0.1793163,-45.81519,-30.18092,-7.455046
140.786499977,-9.16791799999997,66.2342200000001,-2.607709,0.9589159,0.05335264,0.1609032,-45.82624,-29.81339,-9.190804
140.796412468,-13.81327,65.4769400000002,-4.694048,0.9706624,0.05935921,0.1689973,-45.82624,-29.81339,-9.190804
140.806325436,-19.20188,61.92358,-5.73721700000003,1.002752,0.02528268,0.1588704,-45.82624,-29.81339,-9.190804
140.816237926,-23.22786,57.20517,-3.589516,1.009426,-0.00422858,0.1552509,-45.82624,-29.81339,-9.190804
140.826151371,-27.6874,50.91396,-1.380451,1.028199,-0.06267148,0.1532475,-45.82624,-29.81339,-9.190804
140.836063862,-30.97011,44.681,2.608138,1.021703,-0.07867312,0.168566,-45.46579,-29.44895,-11.69945
140.845976353,-33.13794,37.283,7.27171900000003,1.044304,-0.08662762,0.1697445,-45.46579,-29.44895,-11.69945
140.855889797,-32.27081,33.72963,10.09441,1.002224,-0.06741761,0.1419323,-45.46579,-29.44895,-11.69945
140.865802288,-26.51057,31.39955,10.89213,0.9780249,-0.06565202,0.07302507,-45.46579,-29.44895,-11.69945
140.875715256,-13.87521,30.64228,11.75121,0.9577698,-0.07406437,-0.00462928,-45.46579,-29.44895,-11.69945
140.885627747,0.5563561,31.2248,12.05803,0.9297194,-0.06499903,-0.05904751,-45.1007,-29.83947,-15.61916
140.895541191,13.87304,33.38012,12.05803,0.9007789,-0.03151001,-0.07632261,-45.1007,-29.83947,-15.61916
140.905453682,23.03987,34.2539,12.24211,0.8839428,-0.0001208612,-0.06011257,-45.1007,-29.83947,-15.61916
140.915366173,26.69421,35.47719,12.36484,0.8946002,0.008502929,-0.01213786,-45.1007,-29.83947,-15.61916
140.925278664,28.92398,38.7393,12.18075,0.9225498,0.01158035,0.04668362,-45.1007,-29.83947,-15.61916
140.935192108,34.06484,43.86547,10.52395,0.9600243,0.03220883,0.1012125,-45.11015,-29.4701,-16.90521
140.945104599,41.86904,50.33144,7.63989600000002,0.9739104,0.05540872,0.1473338,-45.11015,-29.4701,-16.90521
140.955017567,51.34556,56.50615,3.28313,0.9777712,0.0781186,0.2165922,-45.11015,-29.4701,-16.90521
140.967408657,62.61829,63.0886199999997,-0.2759189,0.9505748,0.2049322,0.240256,-45.11015,-29.4701,-16.90521
140.977321148,66.14875,59.3604999999998,-4.878137,0.9209439,0.3002616,0.2757365,-45.86997,-28.7228,-17.35333
140.987234116,65.5293700000002,53.24404,-7.33265300000001,0.9137664,0.3697593,0.3247619,-45.86997,-28.7228,-17.35333
140.997147083,61.3175799999997,44.91401,-2.853161,0.9712454,0.3530554,0.3313214,-45.86997,-28.7228,-17.35333
141.007060051,53.01789,33.20536,-1.56454,0.9740632,0.4020518,0.3297011,-45.86997,-28.7228,-17.35333
141.016972542,41.43547,18.75887,-4.019056,1.033605,0.4012772,0.3176215,-45.86997,-28.7228,-17.35333
141.026885033,29.91499,8.50653100000001,-3.159976,1.050801,0.3703152,0.289407,-44.73587,-29.85016,-18.25514
141.036798477,19.13777,0.9920276,-1.687266,1.041134,0.3317142,0.255148,-44.73587,-29.85016,-18.25514
141.046710968,12.07683,-6.05646000000001,-1.503177,0.9997891,0.2739941,0.2565863,-44.73587,-29.85016,-18.25514
141.056623936,7.43147999999999,-11.76515,-1.56454,0.9703894,0.2231109,0.2387534,-44.73587,-29.85016,-18.25514
141.066536903,4.953958,-18.58063,-2.914524,0.9965174,0.1691605,0.2439142,-44.73587,-29.85016,-18.25514
141.076449871,4.458453,-23.29904,-3.589516,1.031116,0.1192986,0.2691906,-44.73239,-30.22632,-18.63945
141.086362362,5.263648,-26.73591,-3.89633,1.048348,0.09348165,0.2981489,-44.73239,-30.22632,-18.63945
141.096274853,8.23667399999998,-29.532,-4.080419,1.085885,0.04853727,0.3296729,-44.73239,-30.22632,-18.63945
141.106188297,13.43947,-30.63879,-4.387233,1.128232,0.009466039,0.3602313,-44.73239,-30.22632,-18.63945
141.116100788,20.56235,-28.36696,-3.589516,1.165035,0.02755493,0.3941027,-44.73239,-30.22632,-18.63945
141.126013279,33.44546,-23.35729,-7.76219299999999,1.274209,0.04363369,0.5209222,-45.10044,-30.21929,-16.9029
141.135926724,50.23067,-12.69718,-9.90989499999997,1.251289,0.1187393,0.5672496,-45.10044,-30.21929,-16.9029
141.145839214,61.2556499999997,-10.60011,-5.553129,1.093178,0.2195789,0.4781535,-45.10044,-30.21929,-16.9029
141.155752182,57.16774,-16.25055,2.730864,0.9776656,0.3182946,0.3444749,-45.10044,-30.21929,-16.9029
141.165664673,38.15276,-21.84274,12.85574,0.9458024,0.3480897,0.2763054,-45.10044,-30.21929,-16.9029
141.175578117,18.51839,-12.28942,12.85574,0.9457067,0.3234101,0.2857451,-44.71514,-30.5868,-15.16909
141.185490608,3.653259,3.380358,8.31488799999999,0.9879718,0.2303985,0.2928972,-44.71514,-30.5868,-15.16909
141.195403099,-3.469617,14.56473,6.044461,0.9255491,0.1714119,0.2877998,-44.71514,-30.5868,-15.16909
141.205316067,-8.548538,13.86571,6.71945300000003,0.8646299,0.158556,0.292599,-44.71514,-30.5868,-15.16909
141.215229034,-14.86622,10.07933,11.4444,0.8682006,0.163066,0.3122825,-44.71514,-30.5868,-15.16909
141.225142002,-19.32576,11.30262,17.76477,0.8995374,0.1183629,0.3116949,-45.45881,-30.96145,-15.16404
141.235054493,-23.16592,11.71039,22.24427,0.9190822,0.05031684,0.3259457,-45.45881,-30.96145,-15.16404
141.244967938,-22.79429,11.47738,24.20788,0.9127625,-0.01388568,0.3020487,-45.45881,-30.96145,-15.16404
141.257358551,-21.43165,11.18612,27.95102,0.9118667,-0.01654248,0.2593051,-45.45881,-30.96145,-15.16404
141.267271042,-19.8832,7.16673599999998,28.07374,0.834231,-0.1201291,0.2919838,-45.45881,-30.96145,-15.16404
141.277184486,-17.15793,2.623082,27.39875,0.9774734,0.05138267,0.2039327,-45.83628,-30.96515,-16.06152
141.287096977,-20.37871,-4.075893,29.73054,0.8780791,-0.02381993,0.2461247,-45.83628,-30.96515,-16.06152
141.297009468,38.15276,-32.5611,13.71482,1.323867,0.7480136,0.9428933,-45.83628,-30.96515,-16.06152
141.306922436,-4.150936,-2.21183,25.74195,0.9408652,-0.06561112,0.2639918,-45.83628,-30.96515,-16.06152
141.316835404,-1.859228,-1.804067,27.27603,0.9298819,-0.04074598,0.2234456,-45.83628,-30.96515,-16.06152
141.326747894,3.343568,-1.105043,26.35558,0.901991,-0.09597916,0.2046094,-45.85728,-29.46859,-16.51585
141.336660862,8.54636400000002,0.1765001,28.44192,0.9223812,-0.06896877,0.2218865,-45.85728,-29.46859,-16.51585
141.34657383,10.52838,3.846374,31.57143,0.8990608,-0.04211598,0.2203604,-45.85728,-29.46859,-16.51585
141.356486797,10.40451,9.03079800000001,32.6146,0.900602,-0.02937594,0.2425183,-45.85728,-29.46859,-16.51585
141.366399288,4.582329,13.10844,36.72591,0.889492,0.03249652,0.2329499,-45.85728,-29.46859,-16.51585
141.376311779,-1.859228,19.69091,36.54182,0.9418386,0.08657639,0.2510721,-47.0043,-27.59571,-16.51578
141.386225224,-7.557528,28.3122,35.74411,0.9197103,0.01648845,0.2522503,-47.0043,-27.59571,-16.51578
141.396137714,-10.71637,27.78793,41.51222,0.8653516,-0.003986655,0.2679817,-47.0043,-27.59571,-16.51578
141.406050682,-10.09699,22.95302,47.03488,0.831346,0.02009034,0.3179128,-47.0043,-27.59571,-16.51578
141.41596365,-7.681405,17.94335,49.9803,0.8503623,-0.01359657,0.3208737,-47.0043,-27.59571,-16.51578
141.425876618,-9.911175,8.73953799999999,55.99387,0.8344511,-0.04099888,0.310755,-47.77357,-26.47904,-18.24995
141.435789108,-9.29179500000003,-2.852602,58.87792,0.754145,-0.03987303,0.253406,-47.77357,-26.47904,-18.24995
141.445701599,-6.318768,-14.85251,49.61213,0.7509766,0.03361794,0.2212741,-47.77357,-26.47904,-18.24995
141.455615044,-3.283803,-28.19221,36.4191,0.7507073,0.1332207,0.1686426,-47.77357,-26.47904,-18.24995
141.465527535,-2.850237,-38.79406,25.18969,0.7402642,0.2464026,0.1411639,-47.77357,-26.47904,-18.24995
141.475440502,-8.548538,-48.9299,19.78975,0.7281762,0.2636329,0.1269857,-48.55764,-23.85876,-18.70385
141.485352993,-12.14094,-53.64831,16.66024,0.7167815,0.2314679,0.1225554,-48.55764,-23.85876,-18.70385
141.495266438,-16.7863,-54.8716,19.23748,0.7256967,0.1596994,0.1925781,-48.55764,-23.85876,-18.70385
141.505178928,-22.4846,-55.80363,23.22607,0.7785609,0.03552958,0.2431191,-48.55764,-23.85876,-18.70385
141.515091419,-22.85623,-53.59006,30.89644,0.8110109,-0.1132241,0.2768795,-48.55764,-23.85876,-18.70385
141.525004864,-14.1849,-49.39592,38.19862,0.7355996,-0.2512806,0.2953834,-50.07595,-21.60242,-16.51867
141.537395477,-0.4346527,-46.07556,41.51222,0.7171828,-0.3770247,0.3072001,-50.07595,-21.60242,-16.51867
141.547307968,12.69621,-46.42507,41.3895,0.759384,-0.354229,0.3007196,-50.07595,-21.60242,-16.51867
141.557221413,25.08382,-45.95905,36.84864,0.782475,-0.2712144,0.2655274,-50.07595,-21.60242,-16.51867
141.567133903,32.51639,-44.79401,29.17828,0.8237588,-0.1749892,0.303239,-50.07595,-21.60242,-16.51867
141.577046394,34.68422,-37.92028,19.11476,0.8725957,-0.0678266,0.3750448,-51.57648,-20.84629,-14.77859
141.586959839,35.42748,-25.92038,8.80579200000003,0.9138144,0.04787693,0.4292122,-51.57648,-20.84629,-14.77859
141.59687233,30.53437,-18.87189,2.485412,0.946233,0.07347518,0.4257218,-51.57648,-20.84629,-14.77859
141.606785297,26.01289,-25.62912,3.160404,0.9506253,0.05424437,0.2594183,-51.57648,-20.84629,-14.77859
141.616697788,13.37753,-52.07551,2.608138,0.9756535,0.1038547,0.1356365,-51.57648,-20.84629,-14.77859
141.626611233,-2.168918,-83.8228300000001,4.14221,1.168273,0.130881,0.1157892,-53.08995,-18.96454,-12.59225
141.636523724,-6.814272,-101.7644,7.45580799999998,1.567942,0.1235551,0.2666551,-53.08995,-18.96454,-12.59225
141.646436214,30.16274,-67.8035400000002,-1.932717,1.719047,0.1679216,0.6055052,-53.08995,-18.96454,-12.59225
141.656349659,78.0408599999999,-6.988491,-15.37119,1.565842,0.3785958,0.7418096,-53.08995,-18.96454,-12.59225
141.66626215,98.60429,30.52577,-28.25741,1.35891,0.5200773,0.660158,-53.08995,-18.96454,-12.59225
141.676175117,74.3865100000002,27.67143,-29.85284,1.23718,0.5897655,0.5537125,-53.45528,-18.5743,-8.736784
141.686087608,11.58133,2.623082,-23.40973,1.095348,0.3121404,0.4643454,-53.45528,-18.5743,-8.736784
141.696001053,-46.51656,-23.76506,-8.00764499999998,1.013633,-0.1705893,0.2275679,-53.45528,-18.5743,-8.736784
141.705913544,-75.3797,-45.7843,6.71945300000003,0.9062927,-0.3586632,-0.16018,-53.45528,-18.5743,-8.736784
141.715826034,-71.9731100000002,-60.05603,20.15793,0.87957,-0.5859893,-0.4572248,-53.45528,-18.5743,-8.736784
141.725738525,-49.86122,-65.24046,26.04877,0.8281578,-0.4049927,-0.5856664,-53.81498,-19.69811,-8.731376
141.73565197,-26.75833,-64.3666799999998,24.88287,0.8275045,-0.1473014,-0.5383285,-53.81498,-19.69811,-8.731376
141.745564461,-2.045042,-51.8425,17.02842,0.8801481,-0.05672104,-0.4008867,-53.81498,-19.69811,-8.731376
141.755477428,17.40351,-36.58049,10.64668,0.9768873,-0.04455875,-0.2514108,-53.81498,-19.69811,-8.731376
141.765390396,25.33158,-29.88151,6.044461,0.9825952,-0.1279565,-0.07868212,-53.81498,-19.69811,-8.731376
141.775303364,26.81809,-31.27956,2.424049,0.9562021,-0.2216741,0.05106051,-54.18304,-19.69108,-6.994824
141.785215855,26.13677,-37.62902,-0.950910899999997,0.9471032,-0.285824,0.1376259,-54.18304,-19.69108,-6.994824
141.795128345,27.49941,-41.99792,-3.957693,0.9838551,-0.2741037,0.1589712,-54.18304,-19.69108,-6.994824
141.80504179,34.43647,-41.2989,-6.47357199999998,1.016303,-0.2377584,0.1709172,-54.18304,-19.69108,-6.994824
141.814954281,44.16074,-37.86203,-8.06900800000002,1.045997,-0.2011168,0.1531209,-54.18304,-19.69108,-6.994824
141.827345848,54.19471,-30.69704,-8.19173300000002,1.090668,-0.1358386,0.1987577,-54.92859,-19.30766,-4.807768
141.837258339,58.9639400000003,-20.79421,-7.02583799999998,1.130715,-0.0948735,0.2418745,-54.92859,-19.30766,-4.807768
141.84717083,61.0079000000001,-8.44479099999997,-4.387233,1.123515,-0.03099301,0.3297554,-54.92859,-19.30766,-4.807768
141.857083797,59.3975100000002,5.94344499999998,-2.055443,1.104405,0.01484929,0.4272295,-54.92859,-19.30766,-4.807768
141.866996765,54.75215,23.36078,-0.2759189,1.061977,0.03901316,0.5142114,-55.30474,-18.54961,-2.623813
141.876909733,49.98292,43.51596,1.38088,1.089144,0.04340374,0.6412312,-55.30474,-18.54961,-2.623813
141.886822224,41.8071,69.7293399999998,2.546775,1.089615,0.03779515,0.6805626,-55.30474,-18.54961,-2.623813
141.896734714,29.66724,86.6224099999999,4.449025,0.9850869,0.09750005,0.5710105,-55.30474,-18.54961,-2.623813
141.906648159,16.59831,91.1660599999999,7.27171900000003,0.8747343,0.2415439,0.5643478,-55.30474,-18.54961,-2.623813
141.91656065,4.024887,93.3796400000001,13.16256,0.8084593,0.2408276,0.5856028,-55.30449,-18.92943,-3.907551
141.926473141,-12.69839,77.5351000000003,19.72839,0.7011529,0.1125495,0.5093954,-55.30449,-18.92943,-3.907551
141.936386585,-37.41167,66.9914999999999,18.13295,0.7113836,-0.08197574,0.2780091,-55.30449,-18.92943,-3.907551
141.946299076,-57.6034700000001,59.0109799999998,20.0352,0.7379991,-0.2125418,-0.1879001,-55.30449,-18.92943,-3.907551
141.956212044,-55.49758,53.12754,24.82151,0.8331699,-0.4650807,-0.3105022,-55.30449,-18.92943,-3.907551
141.966125011,-22.67041,51.03046,25.80332,0.7926468,-0.565797,-0.3746595,-55.69758,-18.9509,-9.173664
141.976037979,4.334577,53.76831,17.76477,0.7845175,-0.6423647,-0.1604637,-55.69758,-18.9509,-9.173664
141.98595047,28.55235,60.6420399999999,12.18075,0.8757501,-0.5817866,0.1761673,-55.69758,-18.9509,-9.173664
141.995862961,43.54137,56.97216,11.62849,0.9529691,-0.4018402,0.09694565,-55.69758,-18.9509,-9.173664
142.005776405,43.78912,39.43832,8.62170300000002,0.97061,-0.006282339,0.03939793,-55.69758,-18.9509,-9.173664
142.015688896,35.98492,36.00146,7.63989600000002,0.9536043,0.1898791,0.04134219,-55.72916,-17.46637,-12.58325
142.025601864,16.908,33.49662,7.21035599999999,0.9354069,0.1330209,0.05985787,-55.72916,-17.46637,-12.58325
142.035514355,-1.425662,30.93354,7.88534800000001,0.9662965,0.09905621,-0.01940003,-55.72916,-17.46637,-12.58325
142.045427799,-11.33575,26.15688,10.64668,0.9819925,0.07268797,-0.09318507,-55.72916,-17.46637,-12.58325
142.05534029,-18.27281,14.79774,13.28528,0.9401102,-0.01652275,-0.08570952,-55.72916,-17.46637,-12.58325
142.065252781,-20.6884,4.60365,11.50576,0.9731538,-0.1615618,-0.08506073,-56.49358,-16.7243,-14.31627
142.075166225,-16.53855,0.759019800000003,10.2785,1.081939,-0.1961775,-0.1031029,-56.49358,-16.7243,-14.31627
142.085078716,-8.36272300000002,1.108532,8.56033999999998,1.152416,-0.2020902,-0.1037941,-56.49358,-16.7243,-14.31627
142.094991207,-0.992095199999997,0.351256,8.19216299999999,1.164104,-0.2061098,-0.06551634,-56.49358,-16.7243,-14.31627
142.107382774,3.715197,-3.143862,8.98988099999998,1.1055,-0.1994902,-0.05052551,-56.49358,-16.7243,-14.31627
142.117295265,4.830081,-7.62926299999999,9.48078300000003,1.054185,-0.1928024,-0.03992306,-56.12716,-16.35308,-15.15455
142.127208233,5.139772,-12.40592,8.56033999999998,1.059911,-0.1854857,-0.04520901,-56.12716,-16.35308,-15.15455
142.137121201,7.369542,-16.0758,7.946711,1.076631,-0.1935207,-0.04541717,-56.12716,-16.35308,-15.15455
142.147033691,10.15675,-20.96896,7.82398500000003,1.085516,-0.2287283,-0.03084899,-56.12716,-16.35308,-15.15455
142.156946659,14.18273,-24.05632,7.63989600000002,1.103015,-0.259045,-0.02881201,-56.12716,-16.35308,-15.15455
142.16685915,19.57134,-27.78444,7.21035599999999,1.100424,-0.2769525,-0.01642323,-56.88399,-15.60238,-14.76749
142.176772594,23.72119,-31.22131,6.90354199999998,1.099134,-0.2959032,-0.02133913,-56.88399,-15.60238,-14.76749
142.186685085,27.37553,-34.83293,7.21035599999999,1.094805,-0.2837259,-9.100325e-05,-56.88399,-15.60238,-14.76749
142.196597576,30.16274,-37.97853,7.82398500000003,1.087575,-0.2920559,0.0004005209,-56.88399,-15.60238,-14.76749
142.206511021,31.95895,-40.89113,7.701259,1.116997,-0.2111656,0.007869683,-56.88399,-15.60238,-14.76749
142.216423512,33.56934,-42.23093,5.18538,1.069186,-0.1558607,0.03556915,-57.25043,-15.59352,-12.58123
142.226336479,34.25066,-44.328,3.896759,1.014988,-0.1211388,0.0363017,-57.25043,-15.59352,-12.58123
142.23624897,37.65725,-45.95905,5.430832,0.9247918,-0.2016479,-0.03206312,-57.25043,-15.59352,-12.58123
142.246162415,36.54237,-53.59006,3.099041,1.089736,0.06121116,0.05267046,-57.25043,-15.59352,-12.58123
142.256074905,32.02089,-51.14348,-2.853161,1.016901,0.1020123,0.05505634,-57.25043,-15.59352,-12.58123
142.265987396,25.95096,-55.74538,-5.000863,0.9966917,0.1202134,0.06064624,-57.99622,-15.21035,-10.45842
142.275900841,18.08482,-59.9395300000002,-7.33265300000001,1.006959,0.1276587,0.06924373,-57.99622,-15.21035,-10.45842
142.285813332,11.82908,-60.2307900000003,-10.70761,1.006562,0.117944,0.0667819,-57.99622,-15.21035,-10.45842
142.295726299,5.325586,-61.4540800000002,-12.5485,0.9905067,0.05998352,0.05454029,-57.99622,-15.21035,-10.45842
142.30563879,-0.4346527,-64.0171700000001,-14.38939,1.004232,-0.04420881,0.03115179,-57.99622,-15.21035,-10.45842
142.315552235,-2.478608,-65.0074500000001,-14.2053,1.024347,-0.1673285,-0.01114807,-57.97896,-15.57083,-6.988055
142.325464726,0.680232200000002,-65.7647200000003,-14.75756,1.020992,-0.2139172,-0.01142741,-57.97896,-15.57083,-6.988055
142.335377216,6.68822300000002,-65.5899700000003,-15.06438,1.039653,-0.2248621,-0.01647449,-57.97896,-15.57083,-6.988055
142.345290661,12.57234,-65.1239499999999,-16.47573,1.017094,-0.2188366,-0.01574557,-57.97896,-15.57083,-6.988055
142.355203152,17.40351,-63.8424099999998,-17.88707,1.001439,-0.2126955,-0.009317814,-57.97896,-15.57083,-6.988055
142.365115643,20.56235,-63.8424099999998,-18.68479,0.9893124,-0.1930463,-0.02443982,-58.70861,-15.92954,-3.064086
142.37502861,23.59731,-63.7258999999997,-19.29842,0.977824,-0.158679,-0.007779242,-58.70861,-15.92954,-3.064086
142.387419701,25.2077,-62.3278599999998,-18.93024,0.962119,-0.1259829,-0.02278124,-58.70861,-15.92954,-3.064086
142.397332192,23.47343,-63.2598900000002,-18.86888,0.9573388,-0.08965006,-0.01721324,-58.70861,-15.92954,-3.064086
142.407245636,18.58033,-63.4346400000002,-19.78932,0.9457411,-0.09729093,-0.06037113,-58.70861,-15.92954,-3.064086
142.417158127,15.91699,-65.0074500000001,-19.05297,0.9328621,-0.1150975,-0.09734283,-58.3074,-17.03918,0.4066391
142.427071095,13.06784,-69.6675999999999,-18.19389,0.9165205,-0.1717438,-0.1359817,-58.3074,-17.03918,0.4066391
142.436983585,11.14776,-74.9102800000001,-17.5189,0.9361714,-0.2026703,-0.1632584,-58.3074,-17.03918,0.4066391
142.44689703,10.90001,-77.2403600000002,-20.83249,0.9753657,-0.1931203,-0.1923667,-58.3074,-17.03918,0.4066391
142.456809521,14.92598,-80.0364500000003,-23.28701,1.018335,-0.1899335,-0.2421992,-58.3074,-17.03918,0.4066391
142.466722012,15.85505,-80.7937300000001,-18.99161,0.9698702,-0.2217806,-0.1896259,-59.02736,-18.14708,4.332915
142.476635456,20.37653,-78.6384000000001,-16.53709,0.9873731,-0.180397,-0.1986351,-59.02736,-18.14708,4.332915
142.486547947,22.97793,-83.9975899999998,-17.88707,0.9799785,-0.1729547,-0.1481005,-59.02736,-18.14708,4.332915
142.496460915,24.83607,-85.6869000000001,-16.53709,0.9622303,-0.1447098,-0.08148633,-59.02736,-18.14708,4.332915
142.506373406,24.52638,-84.4053500000002,-15.55528,0.9495956,-0.1533605,-0.03629224,-59.02736,-18.14708,4.332915
142.51628685,29.1098,-88.3082400000002,-13.53031,0.9900861,-0.2287502,-0.0861451,-57.505,-18.87837,8.696074
142.526199341,29.91499,-85.9199000000002,-14.45075,1.001537,-0.1465513,0.03001475,-57.505,-18.87837,8.696074
142.536111832,31.95895,-82.2500299999999,-14.45075,1.008221,-0.1306914,0.0804752,-57.505,-18.87837,8.696074
142.546025276,37.47144,-73.8034999999997,-14.02121,1.012939,-0.01926051,0.1464754,-57.505,-18.87837,8.696074
142.555937767,40.01089,-63.6093999999999,-18.25525,0.9754828,-0.0464605,0.1336764,-57.505,-18.87837,8.696074
142.565850258,45.15175,-59.53176,-26.53924,0.9934413,-0.06994843,0.2361077,-56.72818,-19.60632,13.8983
142.575763225,52.02688,-40.36686,-19.78932,1.013454,-0.01337843,0.2511844,-56.72818,-19.60632,13.8983
142.585676193,54.56634,-23.64855,-16.59845,1.006931,0.01669915,0.2701713,-56.72818,-19.60632,13.8983
142.595589161,53.57533,-12.05641,-16.47573,1.048037,0.07649509,0.2956378,-56.72818,-19.60632,13.8983
142.605501652,50.91199,-1.105043,-15.73937,1.047399,0.1278704,0.2935852,-56.72818,-19.60632,13.8983
142.615415096,44.4085,6.05994799999998,-11.93487,1.038043,0.1533252,0.2693532,-55.21873,-19.59208,17.35973
142.625327587,32.64027,8.098766,-6.78038700000001,1.017837,0.1664017,0.2216114,-55.21873,-19.59208,17.35973
142.635240078,18.58033,9.55506599999997,-3.89633,1.017234,0.2087663,0.1647604,-55.21873,-19.59208,17.35973
142.645153046,2.166745,11.01136,-4.325871,1.014461,0.237585,0.1188828,-55.21873,-19.59208,17.35973
142.655066013,-13.25583,15.67152,-7.08720199999999,0.9774089,0.2552164,0.05500175,-55.21873,-19.59208,17.35973
142.664978981,-26.82026,22.25399,-11.50533,0.9789154,0.2301289,-0.01816336,-55.22683,-18.84106,17.80713
142.677370071,-35.30577,30.29277,-15.18711,1.030672,0.1480613,-0.0739268,-55.22683,-18.84106,17.80713
142.687282562,-37.22585,37.10825,-17.76435,1.047227,0.03068098,-0.1228777,-55.22683,-18.84106,17.80713
142.69719553,-38.46461,40.1956,-18.43934,1.042075,-0.06219117,-0.1618614,-55.22683,-18.84106,17.80713
142.707108021,-36.29678,45.26352,-19.05297,1.0764,-0.1409667,-0.1017236,-55.59759,-19.59735,16.07678
142.717021465,-29.91717,52.37026,-17.21208,1.113427,-0.1795869,-0.06487097,-55.59759,-19.59735,16.07678
142.726933956,-20.37871,67.28276,-14.32802,1.104679,-0.2286893,-0.06943861,-55.59759,-19.59735,16.07678
142.736846447,-9.35373199999999,80.85547,-12.36441,1.01937,-0.2310891,-0.04657837,-55.59759,-19.59735,16.07678
142.746759891,-2.912175,83.4768100000001,-7.08720199999999,0.9374839,-0.1680892,-0.04252041,-55.59759,-19.59735,16.07678
142.756672382,-1.983104,81.7874999999999,-8.00764499999998,0.9004023,-0.09681474,-0.04650422,-55.97617,-20.36251,12.16211
142.766584873,-6.50458200000001,79.4574199999998,-6.78038700000001,0.8497553,0.04362204,0.04276872,-55.97617,-20.36251,12.16211
142.776497841,-13.56552,81.1467300000001,-10.15535,0.8846495,0.04682789,0.01605867,-55.97617,-20.36251,12.16211
142.786410809,-23.10398,80.6224600000001,-7.33265300000001,0.8762216,0.08129782,0.04517574,-55.97617,-20.36251,12.16211
142.796323776,-29.05003,79.9234299999999,-8.74399900000002,0.8604339,0.04200413,-0.01447965,-55.97617,-20.36251,12.16211
142.806236267,-34.31477,75.4962799999997,-9.90989499999997,0.9536611,-0.03104948,-0.02111026,-56.73061,-21.12954,7.799679
142.816149712,-33.69538,71.4768999999997,-2.239532,0.9901102,-0.08070193,-0.05346857,-56.73061,-21.12954,7.799679
142.826062202,-27.06802,69.2633299999998,0.705887599999999,1.008892,-0.08841798,-0.09066586,-56.73061,-21.12954,7.799679
142.835974693,-22.29879,63.8458899999999,-1.319088,1.016749,-0.1185461,-0.1226297,-56.73061,-21.12954,7.799679
142.845887661,-19.63545,61.5158200000001,-0.3986447,1.018612,-0.0739403,-0.1271513,-56.73061,-21.12954,7.799679
142.855800629,-17.40568,59.7682600000002,6.53536400000002,1.031882,-0.130582,-0.329798,-57.86553,-21.52357,3.052569
142.865713596,-9.663423,57.7876899999999,1.564968,1.070382,-0.01601863,-0.208391,-57.86553,-21.52357,3.052569
142.875626087,-7.557528,55.28286,0.828613499999998,1.064948,0.02753927,-0.2104513,-57.86553,-21.52357,3.052569
142.885539532,-6.56652,54.52558,1.442243,1.104008,0.05653201,-0.2298257,-57.86553,-21.52357,3.052569
142.895452023,-5.389697,53.5353,2.362686,1.125463,0.0709168,-0.2188847,-57.86553,-21.52357,3.052569
142.905364513,-3.469617,51.43823,0.889976299999999,1.166601,0.1004849,-0.2257904,-59.01202,-20.79042,-0.8628216
142.915277004,-3.283803,47.41884,0.5217989,1.185659,0.09681533,-0.2312728,-59.01202,-20.79042,-0.8628216
142.925190449,-3.345741,43.74897,1.38088,1.235597,0.08625393,-0.2375669,-59.01202,-20.79042,-0.8628216
142.93510294,-2.850237,42.87519,3.160404,1.27079,0.07351767,-0.2538224,-59.01202,-20.79042,-0.8628216
142.945015907,-1.363724,41.59365,4.080848,1.288472,0.0659745,-0.2549965,-59.01202,-20.79042,-0.8628216
142.957406998,1.237675,39.67133,5.92173499999998,1.315514,0.05175451,-0.257262,-59.01473,-21.55373,-4.329724
142.967319489,2.786126,37.57426,6.35127500000001,1.320717,0.07221828,-0.2504516,-59.01473,-21.55373,-4.329724
142.977232933,4.086825,34.07914,6.41263799999999,1.313427,0.08044256,-0.2364048,-59.01473,-21.55373,-4.329724
142.987145424,5.635276,31.2248,6.53536400000002,1.295443,0.09051572,-0.2140841,-59.01473,-21.55373,-4.329724
142.997058392,8.91799300000002,28.66171,7.39444499999999,1.295912,0.06978428,-0.1926194,-59.01473,-21.55373,-4.329724
143.006970882,12.82009,25.34135,6.90354199999998,1.295181,0.05819316,-0.1821264,-59.77267,-21.56451,-6.959861
143.016884327,17.21769,22.25399,6.596727,1.27574,0.02606251,-0.1605535,-59.77267,-21.56451,-6.959861
143.026796818,20.56235,19.63266,5.246743,1.275862,0.000520384,-0.130955,-59.77267,-21.56451,-6.959861
143.036709309,24.34057,18.87538,4.264936,1.274751,-0.006629594,-0.1045837,-59.77267,-21.56451,-6.959861
143.046622753,28.42848,19.98217,4.203574,1.263352,-0.02489015,-0.04554043,-59.77267,-21.56451,-6.959861
143.056535244,32.64027,23.01127,2.976315,1.229793,0.05282088,-0.03222825,-59.41595,-20.44409,-7.800449
143.066448212,34.74616,22.72001,-0.03046724,1.218915,0.04848114,-0.001426425,-59.41595,-20.44409,-7.800449
143.076360703,36.97593,23.18603,-0.828185100000001,1.191962,0.07543059,0.02445075,-59.41595,-20.44409,-7.800449
143.086274147,38.09082,22.83651,-1.748629,1.168216,0.1449885,0.03137582,-59.41595,-20.44409,-7.800449
143.096186638,35.17973,19.80741,-3.957693,1.152683,0.1958232,0.05442557,-59.41595,-20.44409,-7.800449
143.106099129,29.6053,17.82685,-4.9395,1.111626,0.2414102,0.06183119,-58.66418,-20.82046,-8.252901
143.116012573,21.42948,15.20551,-4.9395,1.081845,0.2517918,0.07850116,-58.66418,-20.82046,-8.252901
143.125925064,14.12079,12.81718,-4.387233,1.082275,0.2334793,0.09902199,-58.66418,-20.82046,-8.252901
143.135838032,8.85605400000001,11.24437,-3.405427,1.10219,0.2187879,0.1165058,-58.66418,-20.82046,-8.252901
143.145750523,5.573338,11.06962,-2.239532,1.121976,0.2050049,0.122473,-58.66418,-20.82046,-8.252901
143.155663967,3.839073,10.77836,-0.889547900000002,1.100596,0.1955368,0.1245283,-58.29314,-20.82409,-9.154271
143.165576458,1.980931,9.38030999999998,-1.135,1.041456,0.2272434,0.1166436,-58.29314,-20.82409,-9.154271
143.175488949,-2.540546,6.99197999999999,-2.975887,1.005458,0.2756581,0.09617213,-58.29314,-20.82409,-9.154271
143.185402393,-9.60148500000001,6.46771199999997,-8.31446000000002,0.9240494,0.3420729,0.1031294,-58.29314,-20.82409,-9.154271
143.195314884,-19.8832,8.79779099999998,-15.8621,0.9026222,0.3816005,0.1103131,-58.29314,-20.82409,-9.154271
143.205227375,-30.35073,10.6036,-21.13931,0.8641225,0.3767933,0.1173593,-57.53307,-21.95121,-9.989882
143.215140343,-39.70338,12.35116,-25.55744,0.8407938,0.3634022,0.1155652,-57.53307,-21.95121,-9.989882
143.22505331,-47.69339,13.6327,-29.60739,0.8357611,0.3142465,0.09175655,-57.53307,-21.95121,-9.989882
143.234966278,-54.50657,12.58417,-33.10508,0.8349205,0.2982081,0.08637574,-57.53307,-21.95121,-9.989882
143.247357369,-63.2398300000003,9.205554,-36.41867,0.8291795,0.2645419,0.05931568,-57.53307,-21.95121,-9.989882
143.257269859,-71.2917900000001,7.05023200000001,-38.13683,0.8217993,0.2580848,0.04733696,-57.16203,-21.95484,-10.89125
143.267182827,-79.4056700000002,5.94344499999998,-38.50501,0.8145012,0.2282557,0.01599545,-57.16203,-21.95484,-10.89125
143.277095795,-86.71436,5.535681,-37.21639,0.807521,0.196153,0.01296519,-57.16203,-21.95484,-10.89125
143.287008762,-91.4216499999998,5.302673,-35.19141,0.8119172,0.1559663,0.01313697,-57.16203,-21.95484,-10.89125
143.296921253,-93.7133599999998,5.535681,-32.49145,0.8144672,0.1070317,0.0137477,-57.16203,-21.95484,-10.89125
143.306833744,-92.7223499999998,5.652184,-29.4233,0.8184944,0.05226709,0.008544029,-56.03229,-23.08717,-13.0137
143.316747189,-91.60747,5.069665,-26.96878,0.7982655,0.01216985,-0.008341555,-56.03229,-23.08717,-13.0137
143.326659679,-90.3687099999997,3.205602,-24.69836,0.7877635,-0.02978333,-0.03253184,-56.03229,-23.08717,-13.0137
143.336572647,-88.5105700000001,1.691051,-22.18248,0.7709467,-0.05374563,-0.03157563,-56.03229,-23.08717,-13.0137
143.346485615,-85.59947,0.642515800000001,-19.35978,0.7547506,-0.090804,-0.0331132,-56.03229,-23.08717,-13.0137
143.356398583,-81.9451299999999,0.2347521,-17.58026,0.7508541,-0.1354749,-0.03625571,-55.64782,-24.59597,-15.58082
143.366311073,-77.1139600000002,-1.338051,-13.16213,0.742661,-0.1569804,-0.04976765,-55.64782,-24.59597,-15.58082
143.376223564,-72.2208599999999,-2.270082,-9.23490300000001,0.7223856,-0.1771017,-0.04779355,-55.64782,-24.59597,-15.58082
143.386137009,-67.5755000000001,-3.551625,-7.45537899999998,0.7109753,-0.1665963,-0.0514593,-55.64782,-24.59597,-15.58082
143.3960495,-64.23085,-7.10499500000003,-5.491766,0.7363223,-0.168758,-0.06179144,-55.64782,-24.59597,-15.58082
143.40596199,-60.1429299999998,-12.46418,-1.871354,0.7538484,-0.1715042,-0.0725353,-54.90066,-24.97757,-17.31816
143.415875435,-56.48859,-17.59035,0.6445247,0.7322556,-0.184737,-0.04793569,-54.90066,-24.97757,-17.31816
143.425787926,-53.32975,-22.94953,4.326299,0.756937,-0.2308903,-0.03166589,-54.90066,-24.97757,-17.31816
143.435700894,-48.00307,-26.38639,10.03305,0.7281418,-0.2507271,0.04577374,-54.90066,-24.97757,-17.31816
143.445613384,-43.60547,-26.44465,11.56712,0.7222487,-0.2622729,0.07744177,-54.90066,-24.97757,-17.31816
143.455526829,-39.51756,-29.70676,13.71482,0.7313476,-0.2410321,0.1312769,-54.53099,-24.98277,-18.605
143.46543932,-36.85423,-34.0174,15.92389,0.7704766,-0.2166335,0.1608473,-54.53099,-24.98277,-18.605
143.475351811,-33.076,-39.8426,18.19431,0.7546384,-0.1881486,0.1755883,-54.53099,-24.98277,-18.605
143.485265255,-30.04104,-45.72604,12.85574,0.8125035,-0.122709,0.220624,-54.53099,-24.98277,-18.605
143.495177746,-28.92616,-47.88137,7.148993,0.8623348,-0.1638007,0.3111195,-54.53099,-24.98277,-18.605
143.505090714,-26.82026,-42.28918,6.35127500000001,0.9374651,-0.2275582,0.4578886,-55.66211,-23.85201,-16.86802
143.515003681,-17.83924,-30.52228,5.124017,1.064876,-0.2655627,0.5832189,-55.66211,-23.85201,-16.86802
143.527394295,-0.001086392,-7.97877500000003,1.564968,1.133835,-0.2149265,0.7389699,-55.66211,-23.85201,-16.86802
143.537307263,9.47543500000001,9.43856100000003,-3.89633,1.186589,-0.1525813,0.8541353,-55.66211,-23.85201,-16.86802
143.54722023,7.369542,20.7977,-4.755411,1.184097,-0.1467739,0.9516692,-56.79645,-22.72492,-16.03046
143.557133198,2.724188,27.26366,-1.073637,1.080953,-0.08854857,0.9275627,-56.79645,-22.72492,-16.03046
143.567045689,-5.82326300000003,25.69086,3.467218,0.9379576,-0.04509323,0.8624326,-56.79645,-22.72492,-16.03046
143.576959133,-12.8842,16.89481,5.92173499999998,0.8392268,-0.0302298,0.6934687,-56.79645,-22.72492,-16.03046
143.586871624,-16.72436,7.28324000000001,5.246743,0.8014348,0.02359295,0.5045142,-56.79645,-22.72492,-16.03046
143.596784115,-27.25383,-4.774917,0.0922585699999997,0.8564628,0.1014542,0.2399569,-56.42678,-22.73011,-17.3173
143.606696606,-35.36771,-21.60973,-5.062225,0.9902326,0.1834863,0.02943706,-56.42678,-22.73011,-17.3173
143.61661005,-43.17191,-38.32804,-2.607709,1.067182,0.2228311,0.0453129,-56.42678,-22.73011,-17.3173
143.626522541,-21.43165,-56.50266,2.730864,1.129596,0.105227,-0.1572341,-56.42678,-22.73011,-17.3173
143.636435509,-0.744343000000003,-73.1627200000002,6.596727,1.205077,0.1404111,-0.0986383,-56.42678,-22.73011,-17.3173
143.646348476,23.10181,-68.3860599999998,5.492195,1.383427,0.2608714,-0.01785831,-56.80291,-22.35215,-16.48133
143.656261444,36.54237,-42.40568,4.019485,1.644045,0.3346282,0.1151473,-56.80291,-22.35215,-16.48133
143.666173935,48.43447,-8.73605099999999,9.29669499999999,1.763676,0.2665524,0.2571547,-56.80291,-22.35215,-16.48133
143.676087379,61.5653400000002,39.49657,6.53536400000002,1.712294,0.1793426,0.5801954,-56.80291,-22.35215,-16.48133
143.68599987,73.82907,94.5446799999999,-2.178169,1.303569,0.1288821,0.5274607,-56.80291,-22.35215,-16.48133
143.695912361,74.1387599999999,93.9039100000001,-2.914524,0.8548769,0.02480611,0.3292505,-57.92917,-21.59599,-14.74319
143.705825329,47.69122,44.04023,8.31488799999999,0.560778,-0.1572926,0.0469837,-57.92917,-21.59599,-14.74319
143.715738296,9.97093999999998,-29.93976,23.71698,0.4565609,-0.2864552,-0.3010277,-57.92917,-21.59599,-14.74319
143.725651264,-23.04204,-92.3858699999998,32.6146,0.4263626,-0.1736206,-0.3480125,-57.92917,-21.59599,-14.74319
143.735563755,-42.30478,-113.6478,24.76015,0.6867433,-0.007809777,-0.3209866,-57.92917,-21.59599,-14.74319
143.745477199,-49.98509,-94.7159499999998,17.64205,1.012931,0.09238955,-0.2954865,-57.17879,-21.97393,-15.58111
143.75538969,-45.40168,-56.50266,16.35343,1.183773,0.1631688,-0.1467856,-57.17879,-21.97393,-15.58111
143.765302181,-35.55353,-18.40588,17.58069,1.192988,0.1281419,-0.004497217,-57.17879,-21.97393,-15.58111
143.775214672,-25.27181,6.00169699999999,17.58069,1.120541,0.06965009,0.1100608,-57.17879,-21.97393,-15.58111
143.785128117,-15.85723,16.95306,16.72161,1.04845,0.02426653,0.2271036,-57.17879,-21.97393,-15.58111
143.795040607,-10.71637,18.40936,15.2489,1.001425,-0.01123025,0.3204527,-58.67287,-21.59056,-13.39016
143.804953575,-8.85822799999998,14.44823,12.79438,0.9806681,-0.03452036,0.3670649,-58.67287,-21.59056,-13.39016
143.817344665,-7.80528100000003,9.03079800000001,9.29669499999999,0.961258,-0.04614704,0.4156629,-58.67287,-21.59056,-13.39016
143.827257156,-4.460626,6.70071999999997,7.76262199999999,0.9328693,-0.0389607,0.3737194,-58.67287,-21.59056,-13.39016
143.837170601,-0.8682191,5.593933,7.026268,0.9070606,-0.02825872,0.3490611,-58.67287,-21.59056,-13.39016
143.847083092,1.795117,10.54535,8.25352600000003,0.904112,-0.04464905,0.2807968,-58.70033,-19.72124,-14.29536
143.856996059,1.485427,11.82689,11.68985,0.8625293,-0.06518941,0.1595645,-58.70033,-19.72124,-14.29536
143.86690855,-3.407679,6.52596399999999,15.31026,0.8230749,-0.07049343,0.07298535,-58.70033,-19.72124,-14.29536
143.876821995,-3.531555,4.778405,18.74658,0.8548651,-0.1225261,0.06034075,-58.70033,-19.72124,-14.29536
143.886734486,2.600312,11.76864,21.50791,0.9355597,-0.1858889,0.0827001,-58.70033,-19.72124,-14.29536
143.896646976,14.43048,29.30248,22.42836,1.035972,-0.2677001,0.146528,-58.70816,-19.35005,-15.13169
143.906560421,23.84506,45.67128,23.71698,1.04975,-0.3160154,0.1460787,-58.70816,-19.35005,-15.13169
143.916472912,26.63227,56.73916,25.12832,0.997943,-0.2359252,0.194627,-58.70816,-19.35005,-15.13169
143.926385879,26.75615,58.4867200000001,27.6442,0.9110277,-0.125742,0.2403394,-58.70816,-19.35005,-15.13169
143.936298847,24.95995,57.7876899999999,26.6624,0.8484144,-0.004348647,0.3324771,-58.70816,-19.35005,-15.13169
143.946211815,15.85505,58.3119599999998,24.08516,0.8109883,0.0462588,0.2707398,-59.46636,-18.981,-16.47809
143.956124306,2.228683,56.6809,21.32382,0.7949781,0.1043927,0.1128229,-59.46636,-18.981,-16.47809
143.966036797,-3.345741,60.1760200000001,19.78975,0.8121871,0.1002575,0.02188634,-59.46636,-18.981,-16.47809
143.975950241,-5.76132499999998,57.26342,20.89428,0.8180615,0.003021763,-0.04363713,-59.46636,-18.981,-16.47809
143.985862732,-10.59249,54.11782,21.01701,0.8633168,-0.1418705,-0.04406062,-59.46636,-18.981,-16.47809
143.995775223,-12.57451,52.71977,23.71698,0.8636808,-0.1358364,-0.09684119,-58.73994,-18.24587,-19.9535
144.005688667,-8.79629,53.88481,22.61244,0.9030262,-0.06108112,0.01276903,-58.73994,-18.24587,-19.9535
144.015601158,-13.87521,52.42851,14.32845,0.8943005,-0.03798564,-0.0004408387,-58.73994,-18.24587,-19.9535
144.025514126,-26.69639,43.80722,8.80579200000003,0.8895012,0.01832828,-0.06868391,-58.73994,-18.24587,-19.9535
144.035426617,-38.2788,41.36064,6.35127500000001,0.9537004,0.1301597,-0.1621635,-58.73994,-18.24587,-19.9535
144.045340061,-47.07401,39.84609,7.578534,0.9717095,0.1961882,-0.1882988,-58.02484,-16.76337,-23.88093
144.055252552,-61.4436299999998,32.09858,6.41263799999999,0.9622175,0.07378489,-0.2082328,-58.02484,-16.76337,-23.88093
144.065165043,-66.9561200000003,25.63261,1.258154,0.9624841,-0.04899451,-0.2306604,-58.02484,-16.76337,-23.88093
144.075078487,-60.9481299999999,9.78807399999997,-3.03725,1.075068,-0.174822,-0.1758812,-58.02484,-16.76337,-23.88093
144.084990978,-48.99408,3.263854,-6.71902399999997,1.26983,-0.3071602,-0.07821095,-58.02484,-16.76337,-23.88093
144.097382545,-32.51856,5.244421,-6.16675799999997,1.399884,-0.2750529,-0.08976331,-57.67593,-15.65185,-26.90583
144.107295036,-22.29879,5.535681,-5.000863,1.315201,-0.256648,-0.07685357,-57.67593,-15.65185,-26.90583
144.117207527,-20.87421,-1.571059,-4.387233,1.227038,-0.2834335,-0.07477619,-57.67593,-15.65185,-26.90583
144.127120495,-17.90118,-5.299184,-3.282701,1.198327,-0.3368941,-0.123843,-57.67593,-15.65185,-26.90583
144.137033463,-13.56552,-9.78458600000001,-0.705459200000001,1.197972,-0.4192609,-0.1119043,-57.67593,-15.65185,-26.90583
144.14694643,-6.00907800000001,-13.97873,1.319517,1.215044,-0.5014982,-0.1169315,-57.68884,-14.90632,-27.80757
144.156858921,4.582329,-17.35734,3.28313,1.219153,-0.51842,-0.1175624,-57.68884,-14.90632,-27.80757
144.166772366,15.29761,-21.02721,4.264936,1.188765,-0.4659148,-0.1106895,-57.68884,-14.90632,-27.80757
144.176684856,23.53537,-25.22136,4.203574,1.149637,-0.3717851,-0.09673624,-57.68884,-14.90632,-27.80757
144.186597347,28.98592,-30.28927,4.019485,1.117844,-0.2839048,-0.09009486,-57.68884,-14.90632,-27.80757
144.196510792,32.33058,-34.36691,3.405856,1.090038,-0.2371511,-0.07656196,-57.68238,-15.27908,-27.3567
144.206423283,34.8081,-39.26008,2.485412,1.070573,-0.1883271,-0.05781066,-57.68238,-15.27908,-27.3567
144.21633625,35.61329,-43.57072,1.319517,1.074913,-0.1290401,-0.04209076,-57.68238,-15.27908,-27.3567
144.226248741,34.62228,-46.36682,-0.4600076,1.069418,-0.05526961,-0.01465963,-57.68238,-15.27908,-27.3567
144.236161709,31.46344,-48.6969,-2.178169,1.071767,-0.02455716,0.01193196,-57.68238,-15.27908,-27.3567
144.246074677,27.43747,-51.726,-3.773605,1.059501,-0.02424457,0.00820622,-58.42633,-14.89383,-24.71993
144.255987167,23.59731,-55.10461,-5.062225,1.041147,-0.01582706,-0.007413183,-58.42633,-14.89383,-24.71993
144.265900612,21.11979,-57.8424499999998,-6.41221000000002,1.013792,-0.03322915,-0.02504199,-58.42633,-14.89383,-24.71993
144.275813103,19.26165,-61.2210699999997,-7.63946799999999,0.9750884,-0.07057706,-0.02829397,-58.42633,-14.89383,-24.71993
144.285725594,19.69521,-64.25018,-8.86672600000002,0.9621648,-0.116939,-0.05537218,-58.42633,-14.89383,-24.71993
144.295639038,23.03987,-67.45403,-10.4008,0.9682945,-0.1562414,-0.07585734,-59.89802,-16.00545,-21.68919
144.305551529,28.3046,-69.0850799999998,-11.62806,0.9805433,-0.1682705,-0.08757456,-59.89802,-16.00545,-21.68919
144.315464497,34.8081,-70.1918699999999,-12.30305,0.9605866,-0.1489622,-0.05605108,-59.89802,-16.00545,-21.68919
144.325376988,41.12578,-71.0656500000001,-12.79395,0.9769235,-0.1720701,-0.06355847,-59.89802,-16.00545,-21.68919
144.335290432,45.46144,-72.2306899999998,-11.50533,0.9448765,-0.1369959,-0.04814354,-59.89802,-16.00545,-21.68919
144.345202923,50.1068,-72.1724400000002,-11.87351,0.960073,-0.1060542,-0.008224806,-60.63252,-15.98956,-17.76637
144.355115414,52.89401,-71.5899200000001,-12.0576,0.9793665,-0.1071622,0.01223619,-60.63252,-15.98956,-17.76637
144.365028858,54.9999,-71.0656500000001,-12.85531,0.9735031,-0.07406281,0.05140373,-60.63252,-15.98956,-17.76637
144.374941349,57.4774200000001,-69.43459,-13.65303,0.9869615,-0.07083722,0.08011025,-60.63252,-15.98956,-17.76637
144.387332916,59.5213799999999,-66.8132600000002,-14.02121,0.9555694,-0.04347547,0.1026701,-61.71568,-17.46502,-12.10239
144.397245407,60.07882,-67.2210200000001,-15.06438,0.9366818,-0.02386794,0.09577307,-61.71568,-17.46502,-12.10239
144.407157898,56.85805,-67.2210200000001,-15.55528,0.8999467,-0.02875021,0.08407632,-61.71568,-17.46502,-12.10239
144.417070866,53.94696,-66.3472399999999,-15.61665,0.8840881,-0.03198323,0.05971338,-61.71568,-17.46502,-12.10239
144.426983833,51.96494,-66.6967500000001,-17.15072,0.905462,-0.04300641,0.03303356,-61.71568,-17.46502,-12.10239
144.436896801,50.16874,-67.2792700000003,-18.25525,0.9101175,-0.06550604,-0.01613552,-61.31495,-18.1951,-7.412174
144.446809292,51.84106,-69.78411,-20.28023,0.9389495,-0.0832023,-0.03860734,-61.31495,-18.1951,-7.412174
144.456722736,46.57633,-71.4151599999998,-17.5189,0.9039802,-0.08620773,-0.06663329,-61.31495,-18.1951,-7.412174
144.466635227,47.19571,-73.9782500000003,-17.15072,0.9320406,-0.08064256,-0.08942316,-61.31495,-18.1951,-7.412174
144.476547718,52.89401,-82.4830399999998,-28.44149,0.9593252,-0.07303314,-0.09010497,-61.31495,-18.1951,-7.412174
144.486461163,49.11579,-85.3373800000001,-20.09614,0.9473116,-0.08308113,-0.1289536,-61.28156,-19.29745,-2.140653
144.496373654,50.6023,-90.2888000000002,-24.26882,0.9614533,-0.0448746,-0.08801641,-61.28156,-19.29745,-2.140653
144.506286144,48.37253,-87.2014500000001,-18.86888,0.9806784,-0.07675885,-0.2055652,-61.28156,-19.29745,-2.140653
144.516199112,46.08083,-85.2791299999999,-19.29842,0.9997284,0.04370945,-0.114189,-61.28156,-19.29745,-2.140653
144.52611208,47.13377,-83.8228300000001,-19.97341,1.041751,-0.006510348,-0.1758922,-61.28156,-19.29745,-2.140653
144.536025047,62.61829,-84.05584,-17.21208,1.05487,-0.008587779,-0.2341266,-61.24195,-20.77282,3.51749
144.545937538,40.19671,-83.8228300000001,-16.59845,0.937965,0.06432105,-0.1048376,-61.24195,-20.77282,3.51749
144.555850983,35.05585,-84.87137,-14.51211,0.9153287,0.04884243,-0.1369019,-61.24195,-20.77282,3.51749
144.565763473,28.61429,-89.7645300000003,-15.12574,0.9039828,0.03280044,-0.1176976,-61.24195,-20.77282,3.51749
144.575675964,23.22568,-92.3858699999998,-14.26666,0.9393596,0.01333058,-0.1239164,-61.24195,-20.77282,3.51749
144.585589409,19.63328,-93.2013999999998,-17.5189,1.002226,0.05181156,-0.147289,-60.8364,-21.49741,9.556847
144.5955019,16.59831,-90.3470499999999,-21.26203,1.054767,0.01966004,-0.1158185,-60.8364,-21.49741,9.556847
144.605414867,15.04986,-81.3179899999998,-18.74615,1.038864,0.03786747,-0.1193914,-60.8364,-21.49741,9.556847
144.615327358,13.12978,-73.1044700000001,-16.353,1.026124,0.04062089,-0.1187751,-60.8364,-21.49741,9.556847
144.625240803,11.14776,-66.8715099999998,-14.14394,1.018102,0.02993629,-0.1029268,-60.8364,-21.49741,9.556847
144.635153294,12.20071,-62.2113499999998,-13.89848,1.02088,0.01892088,-0.08333943,-59.68669,-22.2269,14.37166
144.645065784,14.43048,-58.01721,-11.68942,1.025412,-0.05167878,-0.05792312,-59.68669,-22.2269,14.37166
144.654979229,19.0139,-53.82307,-10.64625,1.037404,-0.06749554,-0.05141719,-59.68669,-22.2269,14.37166
144.667369842,25.76514,-47.12409,-8.98945100000001,1.063878,-0.07346993,-0.05170182,-59.68669,-22.2269,14.37166
144.677283287,31.09181,-40.77463,-9.05081500000002,1.056795,-0.0502645,-0.04764046,-59.68669,-22.2269,14.37166
144.687195778,33.56934,-34.71642,-11.01443,1.0502,-0.02900492,-0.04599736,-58.17725,-22.21266,17.83309
144.697108269,31.77314,-30.58053,-12.5485,1.036065,-0.0811058,-0.05485658,-58.17725,-22.21266,17.83309
144.70702076,29.35755,-26.32814,-9.90989499999997,1.071128,-0.07634874,-0.06331185,-58.17725,-22.21266,17.83309
144.716934204,25.70321,-23.99806,-9.41899200000002,1.090798,-0.0858017,-0.06355675,-58.17725,-22.21266,17.83309
144.726846695,20.06684,-20.26994,-8.13037100000001,1.066363,-0.05366655,-0.07223968,-58.17725,-22.21266,17.83309
144.736759663,13.62528,-15.55153,-8.49854900000003,1.061948,-0.02470908,-0.08737101,-57.04021,-22.57645,20.46243
144.74667263,6.93597599999999,-10.94963,-9.11217699999998,1.064697,-0.03110999,-0.1128875,-57.04021,-22.57645,20.46243
144.756585598,3.467444,-4.483657,-9.35762899999997,1.101717,-0.04340087,-0.1411609,-57.04021,-22.57645,20.46243
144.766498089,3.591321,3.263854,-9.54171799999998,1.109739,-0.04588721,-0.1724619,-57.04021,-22.57645,20.46243
144.776411533,7.49341799999997,10.77836,-9.11217699999998,1.091665,-0.03562127,-0.2063176,-57.04021,-22.57645,20.46243
144.786324024,13.68722,19.5744,-10.58489,1.066492,-0.03312923,-0.2262348,-57.03375,-22.94922,20.9133
144.796236515,21.24366,28.89472,-14.51211,1.016678,-0.002751488,-0.232294,-57.03375,-22.94922,20.9133
144.80614996,28.05685,37.57426,-20.52568,1.019768,-0.01043862,-0.2261317,-57.03375,-22.94922,20.9133
144.81606245,33.13577,45.90429,-24.69836,1.037598,-0.02668513,-0.2230437,-57.03375,-22.94922,20.9133
144.825975418,37.53337,52.079,-26.04834,1.046952,-0.02507206,-0.2149568,-57.03375,-22.94922,20.9133
144.835887909,41.3116,56.33139,-26.35516,1.036964,0.01762369,-0.1852903,-57.40799,-23.32933,19.56726
144.845801353,45.02788,60.9333,-26.66197,1.0298,0.01152741,-0.1281259,-57.40799,-23.32933,19.56726
144.855713844,49.79711,64.7196700000001,-24.69836,1.01054,-0.02343556,-0.09216882,-57.40799,-23.32933,19.56726
144.865626335,52.21269,63.4963800000002,-22.55066,0.9672034,-0.04754076,-0.05495644,-57.40799,-23.32933,19.56726
144.87553978,50.78812,59.5934999999999,-19.1757,0.9423256,-0.07147635,-0.02943744,-57.40799,-23.32933,19.56726
144.88545227,43.47943,56.50615,-17.02799,0.989607,-0.1304627,-0.01778356,-57.78684,-23.33459,18.28432
144.895364761,37.16175,58.19546,-16.04619,1.043512,-0.146552,0.02242418,-57.78684,-23.33459,18.28432
144.905278206,35.98492,64.7779200000003,-15.18711,1.107168,-0.1461964,0.031441,-57.78684,-23.33459,18.28432
144.915190697,36.23267,75.7875399999998,-21.20067,1.106159,-0.09451731,0.08893345,-57.78684,-23.33459,18.28432
144.925103664,39.76315,88.5447199999998,-22.42793,1.094217,-0.0867188,0.1255879,-57.78684,-23.33459,18.28432
144.935016155,42.86005,97.8650399999999,-24.02337,1.106287,-0.1081093,0.08548061,-58.91257,-23.71817,16.10699
144.9449296,45.89501,102.5835,-24.75972,1.023618,-0.02087842,0.08922708,-58.91257,-23.71817,16.10699
144.957320213,44.09881,105.6125,-28.68694,1.026788,-0.02072723,0.01717503,-58.91257,-23.71817,16.10699
144.967233181,36.1088,101.9427,-28.13468,1.033147,-0.0250369,0.01228593,-58.91257,-23.71817,16.10699
144.977146149,26.88003,107.5349,-18.5007,1.042827,-0.02082395,-0.04011277,-58.91257,-23.71817,16.10699
144.98705864,13.8111,96.5252500000002,-25.68016,1.05007,-0.03053573,-0.06041111,-59.66515,-24.86319,10.91053
144.996972084,3.839073,91.5155700000002,-23.4711,1.088284,-0.1485471,-0.0961221,-59.66515,-24.86319,10.91053
145.006884575,-2.540546,90.93305,-16.41436,1.097623,-0.1240238,-0.1579855,-59.66515,-24.86319,10.91053
145.016797066,-4.584502,89.12724,-16.04619,1.081491,-0.1534927,-0.1921239,-59.66515,-24.86319,10.91053
145.02671051,-5.451635,91.6903299999999,-8.62127400000002,1.08739,-0.1960901,-0.2865732,-59.66515,-24.86319,10.91053
145.036623001,-0.3727147,86.0398899999998,-7.08720199999999,1.045864,-0.2041575,-0.3400206,-60.42904,-25.26085,5.262051
145.046535969,5.449462,76.2535600000002,-5.184951,1.027978,-0.2530576,-0.3771532,-60.42904,-25.26085,5.262051
145.05644846,11.51939,69.9623499999997,2.976315,1.01631,-0.2336663,-0.4431779,-60.42904,-25.26085,5.262051
145.066361904,18.45645,65.8264600000002,5.553557,1.000087,-0.3014705,-0.4833327,-60.42904,-25.26085,5.262051
145.076274395,30.96794,62.2730900000003,9.41941999999998,0.976374,-0.3240813,-0.4856649,-60.42904,-25.26085,5.262051
145.086186886,41.93098,61.4575600000002,13.03983,0.9791228,-0.3458436,-0.4815138,-60.06369,-26.03119,0.05859566
145.09610033,57.72518,66.0594599999998,15.49435,0.9915516,-0.4226485,-0.4562119,-60.06369,-26.03119,0.05859566
145.106012821,72.71418,67.7487700000001,9.54214699999998,0.9485724,-0.3926781,-0.4637775,-60.06369,-26.03119,0.05859566
145.115925312,85.16373,70.4866200000003,7.82398500000003,0.9397771,-0.3262042,-0.4330033,-60.06369,-26.03119,0.05859566
145.125838757,95.0738200000003,75.3215299999997,10.33986,0.9214059,-0.2841373,-0.410946,-60.06369,-26.03119,0.05859566
145.135751247,105.7891,72.9332000000001,11.13758,0.8984929,-0.2790237,-0.3982159,-60.45544,-25.671,-3.474066
145.145664215,117.867,68.0400300000001,13.22392,0.8856769,-0.2931346,-0.3770645,-60.45544,-25.671,-3.474066
145.155576706,132.2366,65.3604399999999,16.90569,0.872988,-0.2596227,-0.3354303,-60.45544,-25.671,-3.474066
145.16549015,139.5453,62.4478499999999,16.78297,0.8839782,-0.1618144,-0.2935867,-60.45544,-25.671,-3.474066
145.175402641,142.7661,59.5352499999998,17.64205,0.8969086,-0.05033125,-0.2372652,-60.45544,-25.671,-3.474066
145.185315132,135.3336,55.34111,18.74658,0.9220136,0.02347871,-0.1822676,-60.47134,-24.92887,-5.210979
145.195228577,125.4235,51.32172,22.42836,0.9373271,0.05204228,-0.133723,-60.47134,-24.92887,-5.210979
145.205141068,116.938,50.04018,26.23286,0.958077,0.03314669,-0.08746541,-60.47134,-24.92887,-5.210979
145.215054035,113.1597,51.90424,30.9578,0.9646059,0.02941353,-0.07506655,-60.47134,-24.92887,-5.210979
145.224967003,113.0978,50.68095,33.96458,0.9691873,0.02127002,-0.06700049,-60.47134,-24.92887,-5.210979
145.237357616,114.3366,43.92373,35.74411,0.9865308,0.001116165,-0.06825546,-60.10839,-24.18148,-5.664946
145.247271061,113.0978,35.18593,35.56002,1.007677,0.0521653,-0.09211885,-60.10839,-24.18148,-5.664946
145.257183552,112.3545,24.52582,35.43729,1.037269,0.05973372,-0.1062667,-60.10839,-24.18148,-5.664946
145.26709652,111.921,17.94335,36.91,1.055307,0.09724513,-0.1153066,-60.10839,-24.18148,-5.664946
145.27700901,110.6822,15.78803,35.80547,1.093091,0.1190013,-0.1246341,-61.25194,-22.68475,-6.04919
145.286922455,108.7621,18.64237,32.98278,1.122635,0.1416671,-0.1257167,-61.25194,-22.68475,-6.04919
145.296834946,110.7441,25.16659,28.13511,1.152263,0.1673028,-0.1152564,-61.25194,-22.68475,-6.04919
145.306747437,109.7531,30.81703,24.57606,1.167382,0.2055214,-0.07432816,-61.25194,-22.68475,-6.04919
145.316660881,105.4175,33.38012,22.30563,1.159764,0.2250428,-0.03139358,-61.25194,-22.68475,-6.04919
145.326573372,96.5603300000002,32.21508,18.99203,1.176945,0.2328574,0.03188047,-62.01686,-21.18303,-5.214733
145.336485863,85.6592299999999,29.47724,16.78297,1.196643,0.2458578,0.06059441,-62.01686,-21.18303,-5.214733
145.346399307,72.2806199999998,26.9724,16.29206,1.232172,0.247443,0.09388746,-62.01686,-21.18303,-5.214733
145.356311798,60.6981999999999,23.65204,15.67844,1.251626,0.2181253,0.09687334,-62.01686,-21.18303,-5.214733
145.366224766,52.77013,20.62294,16.53752,1.261354,0.1838357,0.09943588,-62.01686,-21.18303,-5.214733
145.376137734,48.12478,17.8851,18.07159,1.257362,0.1483835,0.09779614,-62.77646,-20.43547,-5.598616
145.386050701,44.96594,14.33173,20.83292,1.258753,0.1051956,0.08741225,-62.77646,-20.43547,-5.598616
145.395963192,42.61229,11.06962,23.16471,1.252277,0.07505848,0.08823168,-62.77646,-20.43547,-5.598616
145.405875683,40.87803,9.38030999999998,24.76015,1.244946,0.04009445,0.09526892,-62.77646,-20.43547,-5.598616
145.415789127,40.32059,8.50653100000001,25.37378,1.207765,0.02279415,0.1209459,-62.77646,-20.43547,-5.598616
145.425701618,41.12578,8.215271,24.08516,1.172918,0.007417515,0.1379713,-62.41212,-19.68651,-5.667115
145.435614586,43.47943,7.28324000000001,23.16471,1.143178,0.003186579,0.1415793,-62.41212,-19.68651,-5.667115
145.445527554,46.08083,5.94344499999998,19.60566,1.120113,0.013587,0.1457031,-62.41212,-19.68651,-5.667115
145.455440521,48.8061,5.710437,16.41479,1.107238,-0.01372537,0.1456402,-62.41212,-19.68651,-5.667115
145.465353012,51.46944,4.836657,13.22392,1.113867,-0.02960127,0.1536358,-62.41212,-19.68651,-5.667115
145.475266457,52.89401,3.555114,11.13758,1.111055,-0.04225761,0.1506966,-62.42667,-18.56273,-5.670576
145.485178948,53.38951,1.341539,10.58532,1.10355,-0.06267785,0.1578323,-62.42667,-18.56273,-5.670576
145.495091438,52.70819,-0.639027300000002,10.03305,1.071545,-0.07416264,0.1705359,-62.42667,-18.56273,-5.670576
145.505004883,51.03587,-2.50309,9.48078300000003,1.038709,-0.05607603,0.1844045,-62.42667,-18.56273,-5.670576
145.517395496,47.0099,-6.11471200000003,9.72623500000002,1.028663,-0.04365402,0.1730564,-62.42667,-18.56273,-5.670576
145.527307987,38.15276,-14.85251,4.080848,1.244564,0.284029,0.2006117,-61.69595,-17.06246,-5.229372
145.537221432,27.37553,-7.92052300000001,3.099041,0.9232053,-0.06806093,0.2079603,-61.69595,-17.06246,-5.229372
145.547133922,26.13677,-5.76519999999999,15.86252,0.840445,-0.09842956,0.1605076,-61.69595,-17.06246,-5.229372
145.55704689,29.91499,-8.211782,15.86252,0.931741,-0.03492701,0.1255149,-61.69595,-17.06246,-5.229372
145.566959858,31.83507,-12.28942,9.60350899999999,0.9718044,0.08335052,0.1177697,-61.69595,-17.06246,-5.229372
145.576872826,32.64027,-11.53214,4.817203,0.8528647,-0.01306592,0.1364733,-62.43826,-17.05546,-3.490874
145.586785316,37.4095,-11.29914,8.31488799999999,0.8495749,-0.02913717,0.1306348,-62.43826,-17.05546,-3.490874
145.596698284,43.29361,-12.58068,7.27171900000003,0.8416206,0.002891942,0.1554098,-62.43826,-17.05546,-3.490874
145.606611252,48.24866,-12.58068,5.369469,0.8407969,0.02052088,0.1910666,-62.43826,-17.05546,-3.490874
145.616523743,49.98292,-12.28942,3.651307,0.8613928,0.02080905,0.1971201,-62.43826,-17.05546,-3.490874
145.626437187,49.42548,-11.24088,0.828613499999998,0.8641495,0.06368052,0.2300309,-62.45444,-15.55342,-2.596065
145.636349678,44.904,-9.14381400000001,-1.012274,0.8383985,0.1331886,0.2321726,-62.45444,-15.55342,-2.596065
145.646262169,35.98492,-6.11471200000003,-3.957693,0.836049,0.163691,0.2295166,-62.45444,-15.55342,-2.596065
145.656175136,24.89801,-2.736098,-5.614491,0.8252761,0.1993974,0.2221716,-62.45444,-15.55342,-2.596065
145.666088104,13.37753,0.46776,-6.65766099999999,0.8111841,0.1929241,0.2232191,-62.45444,-15.55342,-2.596065
145.676001072,3.715197,3.72987,-6.78038700000001,0.8074465,0.1805222,0.1780362,-61.69809,-15.92455,-1.763623
145.685913563,-3.469617,5.710437,-6.78038700000001,0.8020629,0.1570376,0.1500803,-61.69809,-15.92455,-1.763623
145.695827007,-7.309776,5.94344499999998,-6.65766099999999,0.8162575,0.1289301,0.1185515,-61.69809,-15.92455,-1.763623
145.705739498,-8.92016599999997,3.904626,-6.596298,0.8061265,0.09521431,0.09249206,-61.69809,-15.92455,-1.763623
145.715651989,-8.61047599999998,0.0599961999999999,-5.307677,0.8012242,0.05709768,0.04666843,-61.69809,-15.92455,-1.763623
145.725565433,-7.74334299999998,-4.541909,-4.509959,0.7774218,0.03541574,0.03666079,-61.68839,-16.67374,-1.761315
145.735477924,-6.44264400000003,-10.2506,-3.773605,0.7887593,0.01121385,0.01718838,-61.68839,-16.67374,-1.761315
145.745390892,-5.080007,-15.43503,-4.325871,0.7768115,0.01339525,-0.0009326073,-61.68839,-16.67374,-1.761315
145.75530386,-5.080007,-20.26994,-5.123589,0.8112489,-0.01094487,-0.009095778,-61.68839,-16.67374,-1.761315
145.765216827,-3.593493,-21.14372,-3.159976,0.8159875,-0.03803098,-0.007879575,-61.68839,-16.67374,-1.761315
145.775129318,-1.425662,-21.95925,-2.484983,0.8461267,-0.09578317,0.002500586,-60.93341,-17.04645,-1.314342
145.785041809,4.458453,-20.21169,-1.56454,0.8795543,-0.1655092,0.03341737,-60.93341,-17.04645,-1.314342
145.794955254,11.82908,-18.11462,1.994509,0.9251081,-0.2626896,0.07028116,-60.93341,-17.04645,-1.314342
145.807345867,23.96894,-13.51271,7.578534,0.9810225,-0.4099284,0.1528108,-60.93341,-17.04645,-1.314342
145.817259312,36.35655,-8.91080699999998,15.67844,1.062223,-0.5161942,0.2219352,-60.93341,-17.04645,-1.314342
145.827171802,51.65525,-3.842885,22.55108,1.138582,-0.5756846,0.1598526,-60.1803,-17.04116,-0.03334141
145.837084293,64.2906099999999,-2.50309,19.60566,1.038735,-0.3587058,0.2616143,-60.1803,-17.04116,-0.03334141
145.846997738,68.8740200000003,-5.998208,6.90354199999998,0.937799,-0.1235172,0.2309836,-60.1803,-17.04116,-0.03334141
145.856910229,57.6632400000003,-10.01759,-3.773605,0.8777056,0.05159559,0.2980075,-60.1803,-17.04116,-0.03334141
145.86682272,37.905,-11.93991,-6.90311299999998,0.8536836,0.1090633,0.3115768,-60.1803,-17.04116,-0.03334141
145.876736164,8.36055000000001,-18.23112,-1.99408,0.884884,0.05380577,0.3330074,-60.93045,-16.66296,0.8688221
145.886648655,2.600312,-17.41559,-1.073637,0.838085,0.05548213,0.3012808,-60.93045,-16.66296,0.8688221
145.896561623,-0.806281,-17.00783,2.608138,0.8262866,-0.004449532,0.2726613,-60.93045,-16.66296,0.8688221
145.90647459,-0.1249625,-18.46413,5.79900900000001,0.8305512,-0.06372914,0.2376556,-60.93045,-16.66296,0.8688221
145.916387558,5.077834,-19.86217,8.19216299999999,0.8405235,-0.1159408,0.2429774,-60.93045,-16.66296,0.8688221
145.926300049,8.29861200000002,-22.83302,10.58532,0.8520446,-0.1339541,0.2009771,-61.67575,-16.65936,1.772139
145.93621254,16.59831,-23.5903,9.66487199999998,0.8933322,-0.145523,0.2082007,-61.67575,-16.65936,1.772139
145.946125984,22.35855,-22.89128,8.31488799999999,0.9409448,-0.1358137,0.189579,-61.67575,-16.65936,1.772139
145.956038475,29.04786,-21.26022,7.45580799999998,0.9913098,-0.09689367,0.1874519,-61.67575,-16.65936,1.772139
145.965951443,34.8081,-17.29909,7.08763000000002,1.031162,-0.07261539,0.1920467,-61.67575,-16.65936,1.772139
145.97586441,38.89601,-11.5904,7.39444499999999,1.035081,-0.03476217,0.1893816,-61.68085,-15.90495,3.054724
145.985777378,41.06384,-7.62926299999999,6.96490399999999,0.9917353,-0.01010007,0.187546,-61.68085,-15.90495,3.054724
145.995689869,41.49741,-7.10499500000003,6.47400099999998,0.9363333,0.03327225,0.1763434,-61.68085,-15.90495,3.054724
146.005603313,37.47144,-10.77487,4.387662,0.9142894,0.09101557,0.1447614,-61.68085,-15.90495,3.054724
146.015515804,28.49042,-20.32819,1.81042,0.9719047,0.09486169,0.09335735,-61.68085,-15.90495,3.054724
146.025428295,17.96095,-30.87179,1.319517,1.056173,0.03917678,0.09172688,-61.29715,-16.27428,4.338823
146.03534174,11.39551,-37.33776,4.387662,1.104326,-0.07301453,0.1260658,-61.29715,-16.27428,4.338823
146.045254231,14.67823,-37.39602,10.89213,1.147445,-0.1987526,0.178127,-61.29715,-16.27428,4.338823
146.055166721,27.18972,-30.87179,16.29206,1.15668,-0.203295,0.2149835,-61.29715,-16.27428,4.338823
146.065080166,42.17873,-19.57092,17.08978,1.184651,-0.05973584,0.2497724,-61.29715,-16.27428,4.338823
146.074992657,51.59331,-6.46422299999998,14.45118,1.20009,0.09107491,0.3106541,-61.31172,-14.77041,5.683346
146.08738327,53.76114,9.08905000000002,10.33986,1.121222,0.1907408,0.3658252,-61.31172,-14.77041,5.683346
146.097296715,49.61129,19.34139,6.10582399999999,1.059274,0.1973587,0.3885295,-61.31172,-14.77041,5.683346
146.107209206,43.91299,26.50639,2.730864,1.009352,0.185977,0.3706693,-61.31172,-14.77041,5.683346
146.117122173,38.95795,30.17626,1.442243,0.9904686,0.1241323,0.3641899,-62.06695,-14.01788,6.520109
146.127035141,38.58632,33.43837,2.608138,0.9828508,0.03000372,0.3693952,-62.06695,-14.01788,6.520109
146.136948109,42.05485,35.36069,5.430832,1.009835,-0.1105702,0.404221,-62.06695,-14.01788,6.520109
146.1468606,51.34556,36.35097,9.84896099999999,1.068407,-0.2445058,0.4277552,-62.06695,-14.01788,6.520109
146.156774044,67.8830199999999,33.26361,15.43299,1.090627,-0.3536252,0.3687236,-62.06695,-14.01788,6.520109
146.166686535,84.5443500000001,22.07924,19.48294,1.02932,-0.3325456,0.2801216,-61.33758,-12.89926,5.227865
146.176599026,90.5523500000002,5.88519199999999,17.45796,0.9285099,-0.2021608,0.2343869,-61.33758,-12.89926,5.227865
146.18651247,82.0668300000001,-9.31857,14.083,0.8333452,-0.09205782,0.1908656,-61.33758,-12.89926,5.227865
146.196424961,62.1847200000001,-20.21169,12.36484,0.749324,-0.017965,0.09514432,-61.33758,-12.89926,5.227865
146.206337929,39.82508,-21.90099,11.56712,0.7132102,0.04940519,-0.009707674,-61.33758,-12.89926,5.227865
146.216250897,27.99491,-14.09523,10.21714,0.7765034,0.08395784,-0.04367391,-61.72314,-12.15193,4.77779
146.226163864,32.76414,6.46771199999997,5.062654,0.9070866,0.0834268,0.101083,-61.72314,-12.15193,4.77779
146.236076355,52.95595,36.70048,0.5217989,1.017862,0.02911064,0.2062918,-61.72314,-12.15193,4.77779
146.245988846,71.53736,60.9915500000002,3.958122,1.053428,-0.1090193,0.3178799,-61.72314,-12.15193,4.77779
146.25590229,80.5803099999999,69.32158,14.14436,1.005373,-0.209185,0.3781569,-61.72314,-12.15193,4.77779
146.265814781,74.7581399999998,59.8265099999998,30.09872,0.9287283,-0.2839808,0.3505183,-60.98433,-11.40268,4.771589
146.275727272,65.9009999999998,46.66157,43.5372,0.8462639,-0.2759071,0.3292474,-60.98433,-11.40268,4.771589
146.285640717,48.49641,38.8558,52.74163,0.8285552,-0.3266574,0.4025373,-60.98433,-11.40268,4.771589
146.295553207,38.46244,35.8267,57.5893,0.8221619,-0.3065343,0.1842585,-60.98433,-11.40268,4.771589
146.305466175,39.32958,38.97231,55.19615,0.8516234,-0.1802752,0.05806537,-60.98433,-11.40268,4.771589
146.315379143,46.39051,42.52568,48.99849,0.822727,-0.05238625,0.01260927,-61.3777,-10.66424,2.137198
146.325292111,48.3106,40.1956,40.83723,0.7644954,-0.03484132,0.07664557,-61.3777,-10.66424,2.137198
146.335204601,38.40051,31.3413,36.4191,0.7680016,-0.05134037,0.06545959,-61.3777,-10.66424,2.137198
146.345118046,27.56135,21.78798,31.93961,0.8875424,-0.06558253,0.02344572,-61.3777,-10.66424,2.137198
146.355030537,24.95995,18.05985,30.03736,1.007262,-0.05827712,-0.07124365,-61.3777,-10.66424,2.137198
146.367421627,22.73018,20.15692,30.34417,1.048725,-0.007085053,-0.116421,-61.43538,-6.928743,-0.4441261
146.377334595,15.17374,21.0307,30.22145,0.9721342,0.006439964,-0.03543609,-61.43538,-6.928743,-0.4441261
146.387247086,10.03288,18.64237,28.07374,0.9410663,-0.004078376,-0.02561568,-61.43538,-6.928743,-0.4441261
146.39716053,6.37853299999997,14.85599,24.14652,0.964828,-0.03436451,-0.03275941,-61.43538,-6.928743,-0.4441261
146.407073021,5.573338,11.12787,19.5443,1.046243,-0.0727317,-0.0539346,-61.43538,-6.928743,-0.4441261
146.416985512,4.148763,7.39974399999998,13.96028,1.0984,-0.1570296,-0.07322458,-61.08049,-5.810417,-1.79867
146.42689848,5.82109000000002,1.865807,11.62849,1.112351,-0.1542929,-0.1400774,-61.08049,-5.810417,-1.79867
146.436811447,6.44047100000002,-6.63897900000002,11.13758,1.153717,-0.1190006,-0.1656732,-61.08049,-5.810417,-1.79867
146.446724415,6.31659499999999,-13.10495,11.26031,1.095633,-0.1550376,-0.150011,-61.08049,-5.810417,-1.79867
146.456636906,6.006905,-18.93014,10.95349,1.097495,-0.2179798,-0.1374833,-61.08049,-5.810417,-1.79867
146.46655035,8.60830200000001,-22.0175,10.03305,1.150102,-0.2725362,-0.1258492,-61.10612,-3.939009,-2.189908
146.476462841,17.03188,-23.76506,11.19895,1.152478,-0.3486305,-0.1263781,-61.10612,-3.939009,-2.189908
146.486375332,21.86304,-29.47375,10.40123,1.217005,-0.2612494,-0.07357529,-61.10612,-3.939009,-2.189908
146.496288777,24.03088,-30.87179,9.72623500000002,1.251875,-0.1841579,-0.06378103,-61.10612,-3.939009,-2.189908
146.506201267,24.89801,-33.78439,10.21714,1.198812,-0.2022647,-0.06197045,-61.10612,-3.939009,-2.189908
146.516113758,25.14576,-37.16301,10.46259,1.178645,-0.1859925,-0.05447316,-61.11929,-2.813654,-1.807901
146.526027203,25.70321,-38.67756,9.91032400000003,1.151417,-0.1872308,-0.04078517,-61.11929,-2.813654,-1.807901
146.535939694,25.39351,-41.82316,8.56033999999998,1.101787,-0.1665133,-0.04018816,-61.11929,-2.813654,-1.807901
146.545852661,23.72119,-45.55129,6.71945300000003,1.06941,-0.16746,-0.05141883,-61.11929,-2.813654,-1.807901
146.555765629,22.91599,-48.46389,4.019485,1.044331,-0.193452,-0.04799894,-61.11929,-2.813654,-1.807901
146.565678596,31.64926,-48.6969,6.596727,0.8877353,-0.493261,-0.1724289,-61.10663,-3.179361,0.3775692
146.575591087,32.64027,-62.38611,7.51716999999999,1.230985,-0.1499646,-0.0580783,-61.10663,-3.179361,0.3775692
146.585503578,35.73717,-53.93957,-3.405427,1.079326,-0.1499538,-0.0653185,-61.10663,-3.179361,0.3775692
146.595417023,37.59531,-58.0754600000002,-4.019056,1.069799,-0.1053154,-0.03612351,-61.10663,-3.179361,0.3775692
146.605329513,37.34756,-60.1725299999998,-5.184951,1.016694,-0.05832648,-0.009870961,-61.10663,-3.179361,0.3775692
146.615242481,37.47144,-61.2210699999997,-8.31446000000002,0.9694043,-0.0210472,-6.225519e-05,-61.08937,-3.539838,3.847933
146.625155449,35.92299,-63.3763900000001,-10.03262,0.9575715,0.008750543,-0.02232175,-61.08937,-3.539838,3.847933
146.635068417,32.02089,-65.2987100000002,-11.62806,0.9657348,0.01706978,-0.0271434,-61.08937,-3.539838,3.847933
146.644980907,27.8091,-67.1627699999999,-13.16213,0.9853896,-0.01336686,-0.05345649,-61.08937,-3.539838,3.847933
146.657371998,24.21669,-69.25984,-15.00302,0.9785274,-0.03297353,-0.07801172,-61.08937,-3.539838,3.847933
146.667284965,23.907,-70.8326400000002,-16.10755,0.982555,-0.07456715,-0.06776258,-60.32822,-3.525399,7.377495
146.677197933,24.03088,-72.81321,-17.21208,0.9707227,-0.1159799,-0.07801237,-60.32822,-3.525399,7.377495
146.687110901,25.33158,-75.5510600000002,-18.5007,0.9978792,-0.1655015,-0.06274821,-60.32822,-3.525399,7.377495
146.697023392,27.31359,-75.4928000000003,-19.29842,1.007355,-0.1687033,-0.04845243,-60.32822,-3.525399,7.377495
146.706936836,31.58732,-74.0947599999998,-20.34159,1.039636,-0.1795139,-0.06034678,-60.32822,-3.525399,7.377495
146.716849327,38.64826,-74.0364999999999,-20.28023,1.043568,-0.1428689,-0.0154843,-59.94342,-3.133258,11.67879
146.726761818,38.46244,-72.0559399999998,-20.21886,1.008573,-0.1707568,0.02018526,-59.94342,-3.133258,11.67879
146.736675262,40.56834,-72.11419,-20.77113,0.9802108,-0.1774547,0.01224025,-59.94342,-3.133258,11.67879
146.746587753,40.63028,-73.5122400000002,-20.1575,0.9964249,-0.1923338,0.002388007,-59.94342,-3.133258,11.67879
146.756500244,41.43547,-73.2209800000001,-19.1757,1.021999,-0.1875479,0.02235001,-59.94342,-3.133258,11.67879
146.766413689,44.47044,-70.2501200000001,-18.31661,1.049854,-0.202081,0.05128524,-59.5406,-4.241066,15.59922
146.776326179,46.82408,-66.8132600000002,-16.47573,1.064975,-0.178744,0.02729296,-59.5406,-4.241066,15.59922
146.786239147,48.43447,-65.6482199999999,-17.58026,1.036344,-0.1302203,0.01011516,-59.5406,-4.241066,15.59922
146.796151638,51.84106,-68.2113000000001,-21.63021,1.054626,-0.02235582,-0.08344633,-59.5406,-4.241066,15.59922
146.806065083,48.92997,-70.5996299999998,-21.3234,0.9823897,-0.03514097,-0.03772858,-59.5406,-4.241066,15.59922
146.815977573,45.64726,-68.3860599999998,-22.18248,0.9380341,-0.08513322,-0.03477047,-58.78615,-3.474037,19.96166
146.825890064,42.48842,-67.62878,-19.6666,0.9467709,-0.05408538,-0.05241029,-58.78615,-3.474037,19.96166
146.835803509,41.18772,-71.2404099999998,-21.87566,1.004587,-0.07915456,-0.07039769,-58.78615,-3.474037,19.96166
146.845716,39.63927,-72.3471999999999,-22.79611,1.030709,-0.04848754,-0.1098079,-58.78615,-3.474037,19.96166
146.855628967,46.57633,-72.63846,-29.23921,1.088073,-0.0613487,-0.109944,-58.78615,-3.474037,19.96166
146.865541935,41.55935,-68.3278100000002,-22.79611,1.013915,-0.05536488,-0.08665085,-57.64128,-4.209021,23.42734
146.875454903,40.75415,-67.8035400000002,-21.26203,1.005134,-0.06400515,-0.1423255,-57.64128,-4.209021,23.42734
146.885367393,36.85205,-79.0461700000002,-32.43008,0.9983184,0.02152991,-0.08695465,-57.64128,-4.209021,23.42734
146.895280838,32.82608,-74.0364999999999,-23.40973,0.9450591,-0.0466746,-0.1152458,-57.64128,-4.209021,23.42734
146.905193329,34.68422,-74.7355300000001,-26.35516,0.9239715,-0.01867761,-0.08845557,-57.64128,-4.209021,23.42734
146.91510582,30.906,-71.29866,-18.0098,0.9287676,-0.1152505,-0.2106233,-55.37686,-4.567489,27.33574
146.925019264,30.03887,-69.78411,-17.21208,0.9197797,-0.02326258,-0.1210981,-55.37686,-4.567489,27.33574
146.934931755,28.67623,-68.2113000000001,-18.74615,0.9537203,-0.03322707,-0.1608514,-55.37686,-4.567489,27.33574
146.947323322,27.25166,-65.8812299999998,-16.78254,0.9352805,0.008804205,-0.1455159,-55.37686,-4.567489,27.33574
146.957235813,23.72119,-62.0948499999999,-15.06438,0.9281839,0.0261488,-0.1496561,-53.49156,-4.551391,31.24493
146.967148304,19.69521,-61.3958199999997,-15.98482,0.9295548,0.05903964,-0.1681759,-53.49156,-4.551391,31.24493
146.977061748,16.72219,-57.6676999999998,-13.40758,0.9520568,0.03616005,-0.1464491,-53.49156,-4.551391,31.24493
146.986974239,16.72219,-53.00754,-12.24169,0.9795507,0.02582958,-0.1477325,-53.49156,-4.551391,31.24493
146.99688673,20.43847,-50.03669,-16.10755,0.9892935,0.07348973,-0.1431837,-53.49156,-4.551391,31.24493
147.006799698,15.91699,-44.21149,-13.0394,0.9350773,0.01870292,-0.1060751,-51.24628,-3.791301,33.86497
147.016712666,16.22668,-37.86203,-10.58489,0.9103478,-0.008570169,-0.07001622,-51.24628,-3.791301,33.86497
147.026625633,15.73118,-35.00768,-7.76219299999999,0.9000598,-0.03089978,-0.05038336,-51.24628,-3.791301,33.86497
147.036538124,13.68722,-31.86208,-5.92130599999998,0.94419,-0.1046702,-0.07721148,-51.24628,-3.791301,33.86497
147.046451569,13.68722,-30.28927,-5.491766,0.9760019,-0.1237691,-0.09683926,-51.24628,-3.791301,33.86497
147.056364059,13.87304,-26.03688,-5.98266900000002,1.008878,-0.1050105,-0.1114231,-49.72227,-5.280934,35.98187
147.06627655,14.67823,-17.88161,-5.98266900000002,1.051425,-0.05277555,-0.1450796,-49.72227,-5.280934,35.98187
147.076189995,13.06784,-9.72633399999999,-4.571322,1.035499,-0.03092575,-0.1942431,-49.72227,-5.280934,35.98187
147.086102486,11.51939,-4.774917,-4.019056,1.037309,-0.002932824,-0.223363,-49.72227,-5.280934,35.98187
147.096015453,12.63428,1.283287,-4.448596,1.050554,0.001645228,-0.2138518,-49.72227,-5.280934,35.98187
147.105928421,12.88203,5.76868899999999,-5.062225,1.050509,-0.01642714,-0.2394202,-49.35935,-4.153459,36.87589
147.115841389,12.44846,7.574499,-6.84175,1.076875,-0.03318927,-0.2628233,-49.35935,-4.153459,36.87589
147.12575388,9.66124900000002,9.78807399999997,-8.25309699999997,1.099652,-0.03349566,-0.2832026,-49.35935,-4.153459,36.87589
147.135667324,5.5114,13.69096,-9.90989499999997,1.108526,-0.03627473,-0.2794619,-49.35935,-4.153459,36.87589
147.145579815,2.848064,19.10839,-11.99623,1.115929,-0.03712266,-0.2737742,-49.35935,-4.153459,36.87589
147.155492306,2.538374,24.70058,-14.2053,1.110712,-0.02588634,-0.2448415,-48.22986,-4.905958,36.03718
147.16540575,5.449462,31.57431,-17.88707,1.093546,0.01240868,-0.2050547,-48.22986,-4.905958,36.03718
147.175318241,12.38652,44.91401,-21.38476,1.077642,0.06037191,-0.173858,-48.22986,-4.905958,36.03718
147.185230732,21.11979,59.3604999999998,-23.83928,1.064994,0.108291,-0.159017,-48.22986,-4.905958,36.03718
147.195144177,27.43747,62.5643499999998,-21.26203,1.006901,0.1268744,-0.1756416,-48.22986,-4.905958,36.03718
147.205056667,25.02188,55.57412,-18.37798,0.9248649,0.1551712,-0.1314802,-49.35101,-5.284304,35.14475
147.214969635,17.21769,48.87514,-20.89386,0.8965801,0.1497375,-0.08275884,-49.35101,-5.284304,35.14475
147.227360725,-5.141944,39.08881,-20.58704,0.9244712,0.06840292,-0.03314202,-49.35101,-5.284304,35.14475
147.237273216,-19.44963,38.8558,-21.07795,0.9525177,-0.01017222,-0.01279791,-49.35101,-5.284304,35.14475
147.247186661,-25.89119,41.30239,-19.23706,0.9394451,-0.02807067,0.02657672,-49.35101,-5.284304,35.14475
147.257099152,-26.75833,50.85571,-26.23243,0.9618998,-0.08658473,0.00197133,-50.10708,-5.673077,31.68058
147.267012119,-24.34274,53.76831,-21.8143,0.9630104,-0.08699113,0.01444246,-50.10708,-5.673077,31.68058
147.27692461,-20.00708,64.7196700000001,-24.45291,0.9589818,-0.1110035,-0.02505323,-50.10708,-5.673077,31.68058
147.286838055,-14.6804,70.4283700000001,-24.94381,1.010798,-0.1513372,-0.07381696,-50.10708,-5.673077,31.68058
147.296750546,-11.70738,72.5836899999998,-20.21886,1.021605,-0.1480104,-0.1127876,-50.10708,-5.673077,31.68058
147.306663036,-6.07101500000003,71.12739,-15.80074,1.032177,-0.1662692,-0.1999156,-51.22794,-6.811333,28.15643
147.316576481,-0.8682191,71.7681599999998,-12.36441,0.9866345,-0.149074,-0.2339513,-51.22794,-6.811333,28.15643
147.326488972,7.18372799999999,76.1953000000003,-11.25988,0.9616824,-0.1311058,-0.2619301,-51.22794,-6.811333,28.15643
147.336401939,16.04087,77.5933499999999,-7.51674200000002,0.961858,-0.1680876,-0.2881067,-51.22794,-6.811333,28.15643
147.346314907,22.54436,77.0690799999999,-2.914524,0.9255525,-0.1854293,-0.2725214,-51.22794,-6.811333,28.15643
147.356227875,28.67623,82.0787599999999,-1.073637,0.8978182,-0.2244834,-0.25716,-52.34212,-8.322091,25.14738
147.366140366,36.6043,85.6321299999999,-0.5213705,0.8855125,-0.3185682,-0.2322246,-52.34212,-8.322091,25.14738
147.37605381,49.73517,93.8456500000002,5.369469,0.9125583,-0.3223027,-0.2694718,-52.34212,-8.322091,25.14738
147.385966301,60.07882,91.2243100000001,6.90354199999998,0.8801148,-0.3188939,-0.2821133,-52.34212,-8.322091,25.14738
147.395878792,67.8210800000003,82.2535099999999,-0.3986447,0.867755,-0.3286254,-0.2590162,-52.34212,-8.322091,25.14738
147.405792236,73.4574399999998,81.55449,1.196791,0.8539844,-0.2817695,-0.259537,-53.85291,-8.717983,19.95251
147.415704727,75.3775200000002,77.7681100000001,-0.582733500000001,0.85632,-0.2337513,-0.2616395,-53.85291,-8.717983,19.95251
147.425617218,75.0678300000003,71.7681599999998,-2.546346,0.9135388,-0.2047368,-0.2269239,-53.85291,-8.717983,19.95251
147.435530663,76.4924,69.9041000000001,2.914952,0.9863109,-0.193136,-0.2217577,-53.85291,-8.717983,19.95251
147.445443153,80.20869,73.1079599999998,6.65808999999999,1.042148,-0.1575148,-0.2186757,-53.85291,-8.717983,19.95251
147.455356121,87.8270599999999,75.3215299999997,9.11260599999998,1.08874,-0.1273518,-0.2174651,-55.00425,-7.610234,16.03596
147.465269089,95.7551300000001,72.5836899999998,7.21035599999999,1.099987,-0.1055075,-0.2395109,-55.00425,-7.610234,16.03596
147.475182057,105.4794,70.13711,11.99666,1.10765,-0.07257088,-0.2643306,-55.00425,-7.610234,16.03596
147.485094547,111.859,68.9720700000003,17.70341,1.130053,-0.01599854,-0.2545577,-55.00425,-7.610234,16.03596
147.495007038,113.1597,65.5352000000001,19.48294,1.175424,0.02451796,-0.2172551,-55.00425,-7.610234,16.03596
147.504920483,110.9919,68.09829,24.82151,1.191895,0.03562585,-0.1717183,-56.16207,-5.749635,13.01654
147.517311096,99.2236699999999,65.12743,23.96243,1.198575,0.02197604,-0.1084902,-56.16207,-5.749635,13.01654
147.527224541,89.1277700000002,65.12743,24.63742,1.182832,-0.00850485,-0.05813104,-56.16207,-5.749635,13.01654
147.537137032,79.5893100000001,63.9041400000001,24.76015,1.176635,0.001742083,-0.03063644,-56.16207,-5.749635,13.01654
147.547049522,76.4924,65.6516999999999,28.07374,1.159715,0.0750299,-0.06888454,-56.16207,-5.749635,13.01654
147.556962967,74.2626300000002,57.9042,22.67381,1.159989,0.001522877,-0.03288475,-56.56836,-4.265662,9.480413
147.566875458,78.2266699999999,57.7876899999999,23.53289,1.127085,0.02859476,-0.06265006,-56.56836,-4.265662,9.480413
147.576788425,82.56233,53.6518,19.72839,1.110297,0.02342317,-0.08461653,-56.56836,-4.265662,9.480413
147.586701393,87.45544,50.21494,17.51932,1.112295,0.02151847,-0.08272707,-56.56836,-4.265662,9.480413
147.596614361,93.0918000000002,49.45766,16.47615,1.13276,0.0368607,-0.07177048,-56.56836,-4.265662,9.480413
147.606526852,97.1177699999998,49.39941,15.06481,1.163508,0.05185076,-0.05995103,-56.6131,-1.655782,6.452839
147.616440296,99.2856100000002,49.57417,14.94208,1.203646,0.0748148,-0.02895896,-56.6131,-1.655782,6.452839
147.626352787,98.5423499999998,48.81689,15.18753,1.219322,0.07673769,0.02372628,-56.6131,-1.655782,6.452839
147.636265278,94.6402499999998,47.06933,15.37162,1.222611,0.1069546,0.04598445,-56.6131,-1.655782,6.452839
147.646178722,88.57033,44.15673,14.083,1.22055,0.1268756,0.05910049,-56.6131,-1.655782,6.452839
147.656091213,80.4564400000002,41.6519,12.85574,1.225042,0.1618516,0.0612126,-56.64814,0.2049067,3.427572
147.666003704,70.7321599999999,39.32182,12.05803,1.225863,0.180319,0.06757008,-56.64814,0.2049067,3.427572
147.675917149,60.6362699999999,37.1665,11.99666,1.229933,0.1789871,0.08144815,-56.64814,0.2049067,3.427572
147.685829639,54.07084,36.70048,11.07622,1.224117,0.1730865,0.07954201,-56.64814,0.2049067,3.427572
147.695742607,49.36354,35.30243,9.35805800000003,1.222187,0.1774661,0.08727156,-56.64814,0.2049067,3.427572
147.705655575,44.65625,33.72963,9.97168700000001,1.21218,0.1696685,0.1036375,-56.29625,1.319834,1.237847
147.715568542,40.44446,31.39955,10.83077,1.181636,0.1591741,0.1168144,-56.29625,1.319834,1.237847
147.725481033,37.47144,30.05976,9.66487199999998,1.150527,0.14961,0.1237606,-56.29625,1.319834,1.237847
147.735394478,34.49841,28.60346,8.06943700000002,1.119904,0.133709,0.1229776,-56.29625,1.319834,1.237847
147.745306969,31.95895,26.04037,6.47400099999998,1.099455,0.1227656,0.1187723,-56.29625,1.319834,1.237847
147.755219459,29.35755,22.66176,5.308106,1.075638,0.1118077,0.1198799,-56.32104,2.748724,-0.5011816
147.765132904,27.31359,19.22489,4.080848,1.052695,0.1066616,0.117657,-56.32104,2.748724,-0.5011816
147.775045395,25.26964,16.5453,2.117234,1.021752,0.1232774,0.1238158,-56.32104,2.748724,-0.5011816
147.787436962,21.36754,14.68124,-0.644096300000003,0.9803594,0.1547916,0.1296903,-56.32104,2.748724,-0.5011816
147.797349453,16.10281,13.22494,-2.055443,0.9584082,0.1840509,0.1214454,-55.94839,2.746924,-0.9528399
147.807261944,10.59032,12.00165,-3.712242,0.9329457,0.1929819,0.1284626,-55.94839,2.746924,-0.9528399
147.817175388,4.89202,11.24437,-5.000863,0.9377218,0.192984,0.1173748,-55.94839,2.746924,-0.9528399
147.827087879,-0.5585288,10.66185,-5.553129,0.9299721,0.1909731,0.1222346,-55.94839,2.746924,-0.9528399
147.837000847,-6.318768,10.4871,-5.79858000000001,0.9026331,0.196994,0.1335712,-55.94839,2.746924,-0.9528399
147.846913815,-13.07002,10.95311,-6.10539499999999,0.8557156,0.1891009,0.1267502,-55.58059,3.119719,-1.405653
147.856826782,-19.75933,9.67157,-6.71902399999997,0.8305525,0.1684315,0.1282856,-55.58059,3.119719,-1.405653
147.866739273,-26.63445,7.86575900000002,-6.16675799999997,0.8071377,0.1564591,0.1197796,-55.58059,3.119719,-1.405653
147.876651764,-32.95213,5.127917,-5.98266900000002,0.7865499,0.1203259,0.1202094,-55.58059,3.119719,-1.405653
147.886565208,-39.20787,2.215319,-4.755411,0.778961,0.0920572,0.1100079,-55.58059,3.119719,-1.405653
147.896477699,-44.16291,-0.4642715,-2.975887,0.7719803,0.04678356,0.09152488,-54.45942,3.117979,-1.861203
147.906390667,-46.26881,-3.260366,-0.889547900000002,0.7848358,0.007992402,0.05993728,-54.45942,3.117979,-1.861203
147.916303635,-45.71137,-6.63897900000002,1.196791,0.7874552,-0.03139833,0.03084115,-54.45942,3.117979,-1.861203
147.926216602,-43.79129,-10.48361,3.589944,0.7910916,-0.07612237,-0.0007007238,-54.45942,3.117979,-1.861203
147.936129093,-41.93315,-15.37677,5.308106,0.7719789,-0.0934569,-0.02512752,-54.45942,3.117979,-1.861203
147.946042061,-38.7743,-20.44469,4.387662,0.7544898,-0.1136183,-0.0375842,-54.44975,2.748874,-0.5109129
147.955955029,-35.80128,-24.52233,3.835396,0.7480586,-0.1391026,-0.07466669,-54.44975,2.748874,-0.5109129
147.965867519,-33.50957,-31.45431,3.71267,0.7286629,-0.1431653,-0.06347074,-54.44975,2.748874,-0.5109129
147.975780964,-32.82825,-37.80378,1.012702,0.7135737,-0.1603926,-0.07689039,-54.44975,2.748874,-0.5109129
147.985693455,-32.02306,-43.39597,-0.1531931,0.7182294,-0.1636194,-0.05582798,-54.44975,2.748874,-0.5109129
147.995605946,-31.7753,-47.53186,-0.766822200000002,0.711721,-0.170359,-0.03084446,-54.82885,3.123439,-0.5101204
148.00551939,-31.71337,-49.68718,-1.135,0.7151741,-0.1920032,-0.005572204,-54.82885,3.123439,-0.5101204
148.015431881,-28.12096,-49.10466,-1.503177,0.7259237,-0.2043071,0.02689717,-54.82885,3.123439,-0.5101204
148.025344849,-20.81227,-48.58039,-2.116806,0.7762398,-0.2390623,0.02908125,-54.82885,3.123439,-0.5101204
148.035257816,-12.26482,-48.63864,-1.073637,0.8386229,-0.2454534,0.04910854,-54.82885,3.123439,-0.5101204
148.045170784,-5.018068,-48.46389,-1.073637,0.9000397,-0.2474604,0.07541603,-54.07599,3.508552,2.054618
148.055083275,-0.06302445,-49.57067,-1.319088,0.9420312,-0.2452529,0.1196971,-54.07599,3.508552,2.054618
148.064996719,3.28163,-48.05612,-2.239532,0.9728956,-0.2187339,0.2040962,-54.07599,3.508552,2.054618
148.077387333,8.732179,-34.30866,-6.90311299999998,1.05071,-0.1772275,0.3544227,-54.07599,3.508552,2.054618
148.087300301,12.38652,-18.34762,-6.41221000000002,1.098065,-0.1725216,0.4001113,-54.07599,3.508552,2.054618
148.097213268,19.69521,-0.930287099999998,0.583161800000002,1.138821,-0.143622,0.5458951,-53.68747,3.144706,4.687857
148.107125759,30.78213,15.49677,5.246743,1.184726,-0.04453951,0.6560868,-53.68747,3.144706,4.687857
148.117039204,39.26764,29.71025,9.05124299999999,1.245552,-0.003430626,0.770556,-53.68747,3.144706,4.687857
148.126951695,42.48842,35.7102,13.89891,1.224019,-0.01224162,0.8062281,-53.68747,3.144706,4.687857
148.136864185,39.88702,30.58403,18.62386,1.078793,-0.01016928,0.713474,-53.68747,3.144706,4.687857
148.14677763,35.3036,18.29286,16.78297,0.9498787,0.08779814,0.654819,-53.31967,3.517501,4.235044
148.156690121,37.03787,42.93344,7.21035599999999,0.9778001,0.2286615,0.8245148,-53.31967,3.517501,4.235044
148.166603088,35.86105,54.35083,-0.705459200000001,0.518433,0.2239793,0.464772,-53.31967,3.517501,4.235044
148.176516056,6.997913,11.36088,1.871783,0.1688579,0.1586156,0.1069707,-53.31967,3.517501,4.235044
148.186429024,-24.83825,-41.47365,5.246743,0.1772616,0.1394768,-0.1448374,-53.31967,3.517501,4.235044
148.196341515,-45.95912,-71.9394299999998,0.583161800000002,0.4277892,0.05418191,-0.085302,-54.08408,4.259573,2.502023
148.206254482,-56.48859,-89.3567699999998,-5.062225,0.665742,-0.06389206,-0.1459082,-54.08408,4.259573,2.502023
148.21616745,-55.18789,-92.5023700000002,-7.51674200000002,0.8646588,-0.1741212,-0.1892957,-54.08408,4.259573,2.502023
148.226079941,-38.52655,-81.6092499999999,-8.86672600000002,0.8862046,-0.1465271,-0.2493309,-54.08408,4.259573,2.502023
148.235993385,-18.33475,-74.9102800000001,-14.32802,0.9530963,0.0439827,-0.4172159,-54.08408,4.259573,2.502023
148.245905876,-19.3877,-84.6966099999997,-17.15072,1.153972,0.1144983,-0.391715,-53.70227,4.648316,5.968134
148.255818367,-27.19189,-86.7354300000003,-3.159976,1.432474,-0.1625448,-0.07010885,-53.70227,4.648316,5.968134
148.265731812,-6.25683000000001,-58.01721,14.88072,1.579031,-0.416076,0.3345011,-53.70227,4.648316,5.968134
148.275644302,41.68322,-7.74576700000002,16.84433,1.538999,-0.2933702,0.5320735,-53.70227,4.648316,5.968134
148.28555727,81.8190799999999,27.84618,13.71482,1.519882,-0.0692694,0.5039734,-53.70227,4.648316,5.968134
148.295469761,104.0548,44.97226,8.13079899999997,1.464733,0.1625096,0.5473212,-53.29435,2.786088,8.605986
148.305383205,105.7891,41.36064,-0.582733500000001,1.316638,0.3167742,0.639028,-53.29435,2.786088,8.605986
148.315295696,85.4114800000002,24.17631,-6.47357199999998,1.118994,0.3808277,0.6571277,-53.29435,2.786088,8.605986
148.325208187,58.3445599999998,7.16673599999998,-10.21671,0.9585793,0.3553774,0.5292792,-53.29435,2.786088,8.605986
148.335121632,33.5074,-7.33800299999997,-10.83034,0.9208822,0.2663403,0.3729832,-53.29435,2.786088,8.605986
148.345034123,13.0059,-18.46413,-8.37582199999997,0.9521436,0.06282167,0.2268106,-52.56012,3.53011,7.314894
148.35494709,-2.10698,-27.14367,-2.423621,0.9431438,-0.1476272,0.05647615,-52.56012,3.53011,7.314894
148.367338181,-10.59249,-41.99792,5.369469,0.9585288,-0.3031774,-0.1511704,-52.56012,3.53011,7.314894
148.377250671,-7.43365200000003,-50.61921,10.09441,0.8840581,-0.375405,-0.2498755,-52.56012,3.53011,7.314894
148.387164116,3.901011,-51.37648,10.40123,0.9563888,-0.2706236,-0.2263186,-52.56012,3.53011,7.314894
148.397076607,12.88203,-38.3863,9.72623500000002,1.062622,-0.07558676,-0.1765454,-52.56199,3.908104,8.14892
148.406989575,19.44746,-19.33791,9.787598,1.110606,0.04845345,-0.1204645,-52.56199,3.908104,8.14892
148.416902542,20.8101,-4.600161,11.87394,1.0589,0.07421023,-0.07804096,-52.56199,3.908104,8.14892
148.42681551,19.88103,-0.4060195,14.5739,0.9634667,0.08004916,-0.03150444,-52.56199,3.908104,8.14892
148.436728001,19.44746,-3.435122,14.32845,0.9076332,0.08540527,0.01370232,-52.56199,3.908104,8.14892
148.446641445,19.38552,-9.90108999999998,12.61029,0.8907031,0.07041287,0.06177483,-51.43301,3.915253,9.877686
148.456553936,21.49142,-16.83307,10.2785,0.9032167,0.01414006,0.1193834,-51.43301,3.915253,9.877686
148.466466427,26.81809,-20.44469,8.00807399999998,0.9458053,-0.04480513,0.1502872,-51.43301,3.915253,9.877686
148.476379871,34.99392,-18.40588,7.946711,1.005337,-0.1085029,0.1589155,-51.43301,3.915253,9.877686
148.486292362,43.91299,-14.44474,8.25352600000003,1.04045,-0.1463984,0.1530566,-51.43301,3.915253,9.877686
148.496204853,49.36354,-11.18263,9.235332,1.055464,-0.1336005,0.1539633,-51.45079,5.415464,10.32278
148.506118298,49.23967,-6.40597199999999,11.38303,1.039181,-0.1609477,0.1553722,-51.45079,5.415464,10.32278
148.516030789,48.62029,-1.221547,15.80116,1.005378,-0.190912,0.1617272,-51.45079,5.415464,10.32278
148.525943756,48.18672,3.380358,20.34202,0.9870887,-0.2380617,0.1827092,-51.45079,5.415464,10.32278
148.535856724,51.03587,9.08905000000002,25.06696,0.9880171,-0.2873347,0.2155033,-51.45079,5.415464,10.32278
148.545769692,55.86704,15.43851,28.13511,0.9970924,-0.3126961,0.1648338,-50.71198,6.164716,10.31658
148.555682182,58.2826200000001,21.84623,29.11691,1.00609,-0.2795613,0.1750546,-50.71198,6.164716,10.31658
148.565595627,56.67223,29.12773,28.99419,1.012532,-0.2052994,0.1750096,-50.71198,6.164716,10.31658
148.575508118,53.51339,33.49662,28.68737,1.004991,-0.1303858,0.1472491,-50.71198,6.164716,10.31658
148.585420608,46.88602,41.30239,29.23964,0.9902727,0.03719208,0.1480215,-50.71198,6.164716,10.31658
148.595334053,36.66624,48.52563,27.76693,0.8806435,0.1628276,0.14267,-49.98447,7.661327,9.858362
148.605246544,18.51839,48.11787,25.4965,0.7814744,0.2135782,0.1636117,-49.98447,7.661327,9.858362
148.615159511,2.104807,45.26352,23.59425,0.7915511,0.2148222,0.09870543,-49.98447,7.661327,9.858362
148.625072479,-4.64644,42.17617,20.40338,0.8279098,0.1275529,-0.0817914,-49.98447,7.661327,9.858362
148.634985447,-2.045042,39.03056,21.692,0.8659336,0.03431191,-0.2023236,-49.98447,7.661327,9.858362
148.647376537,3.529382,47.4771,22.98062,0.9204174,-0.06171566,-0.1516101,-50.01951,9.522017,6.833094
148.657289028,5.82109000000002,59.0109799999998,18.13295,0.9401209,-0.06382549,-0.04473114,-50.01951,9.522017,6.833094
148.667201996,9.78512499999999,66.5837299999998,15.2489,0.8996401,-0.03989867,-0.1018164,-50.01951,9.522017,6.833094
148.677114963,10.40451,61.92358,10.21714,0.8031813,0.1097881,-0.08216121,-50.01951,9.522017,6.833094
148.687027931,0.2466658,48.81689,6.53536400000002,0.801689,0.1024394,-0.09324001,-50.04832,11.00968,4.194449
148.696940422,-12.07901,39.26357,9.48078300000003,0.8833833,0.0337432,0.02030463,-50.04832,11.00968,4.194449
148.706853867,-26.51057,37.05,9.17396900000002,0.9288024,-0.09886878,0.0502114,-50.04832,11.00968,4.194449
148.716766357,-34.43864,38.33154,6.41263799999999,1.009371,-0.1874238,-0.01690534,-50.04832,11.00968,4.194449
148.726678848,-26.82026,43.2247,9.05124299999999,1.057507,-0.204271,-0.01554212,-50.04832,11.00968,4.194449
148.736592293,-19.44963,42.23442,8.74442899999999,1.003536,-0.274292,0.07524045,-49.30925,11.3791,2.904511
148.746504784,-19.82126,36.11796,6.41263799999999,0.9791291,-0.2999424,0.04936673,-49.30925,11.3791,2.904511
148.756417274,-16.91018,37.34126,6.65808999999999,0.9617723,-0.226394,-0.03112951,-49.30925,11.3791,2.904511
148.766330719,-12.69839,36.52573,6.044461,0.8458647,-0.2210283,-0.02666071,-49.30925,11.3791,2.904511
148.77624321,-13.56552,31.16655,7.148993,0.8379499,-0.2840919,-0.01404337,-49.30925,11.3791,2.904511
148.786156177,-10.53056,29.30248,8.19216299999999,0.8929085,-0.2994022,-0.01321316,-48.95089,12.12127,1.165652
148.796069145,-6.814272,24.46757,8.80579200000003,0.9089603,-0.3314302,0.03636147,-48.95089,12.12127,1.165652
148.805982113,-3.283803,12.87543,8.86715399999999,1.008938,-0.3593299,0.02564782,-48.95089,12.12127,1.165652
148.815894604,2.414498,8.33177500000003,9.35805800000003,1.137195,-0.327404,0.07701161,-48.95089,12.12127,1.165652
148.825808048,9.16574500000002,8.44827800000003,9.66487199999998,1.185489,-0.3078322,0.08869932,-48.95089,12.12127,1.165652
148.835720539,15.48343,6.351208,9.41941999999998,1.189945,-0.2533625,0.110148,-48.58471,12.49223,0.2631264
148.84563303,18.02289,5.710437,8.62170300000002,1.168181,-0.1930347,0.1088305,-48.58471,12.49223,0.2631264
148.855546474,17.03188,5.535681,8.62170300000002,1.130713,-0.1407369,0.09271988,-48.58471,12.49223,0.2631264
148.865458965,15.17374,5.419177,8.62170300000002,1.118578,-0.08475529,0.07159794,-48.58471,12.49223,0.2631264
148.875371933,10.46644,2.85609,9.97168700000001,1.112399,-0.07230762,0.05589278,-48.58471,12.49223,0.2631264
148.885284901,5.697214,0.642515800000001,9.05124299999999,1.115526,-0.1058289,0.0354739,-49.33781,12.48694,-1.017873
148.895197868,2.35256,-5.18268,8.62170300000002,1.132014,-0.144468,0.02450052,-49.33781,12.48694,-1.017873
148.905110359,2.786126,-10.1341,7.51716999999999,1.16658,-0.1699653,-0.02016357,-49.33781,12.48694,-1.017873
148.915023804,4.706205,-12.81369,7.148993,1.173498,-0.1859396,-0.03185776,-49.33781,12.48694,-1.017873
148.924936295,8.79411600000002,-15.26027,6.596727,1.146229,-0.1891502,-0.0244246,-49.33781,12.48694,-1.017873
148.937327385,12.07683,-18.69714,5.676283,1.110646,-0.2085641,-0.0362288,-48.59739,13.23802,-0.5743618
148.947240353,15.23567,-21.60973,4.203574,1.111115,-0.1953973,-0.022701,-48.59739,13.23802,-0.5743618
148.957152843,16.28862,-24.05632,2.23996,1.105462,-0.1675541,0.03083433,-48.59739,13.23802,-0.5743618
148.967066288,16.59831,-26.26989,1.38088,1.106197,-0.1703472,0.05145574,-48.59739,13.23802,-0.5743618
148.976978779,17.40351,-27.78444,0.889976299999999,1.119759,-0.1812138,0.07382535,-48.59739,13.23802,-0.5743618
148.98689127,20.12878,-28.25046,2.117234,1.086531,-0.2523422,0.08806355,-48.6041,13.99061,0.2585106
148.996804714,21.67723,-31.51257,1.687694,1.174319,-0.1628248,0.1228996,-48.6041,13.99061,0.2585106
149.006717205,22.42049,-29.76501,-1.012274,1.14506,-0.1341311,0.1166391,-48.6041,13.99061,0.2585106
149.016629696,22.54436,-30.52228,-1.871354,1.126253,-0.110579,0.1222517,-48.6041,13.99061,0.2585106
149.02654314,21.92498,-31.92033,-3.528153,1.078237,-0.07977117,0.1012939,-48.6041,13.99061,0.2585106
149.036455631,20.25266,-34.19216,-4.694048,1.043535,-0.05264203,0.08691064,-48.21853,13.24328,0.7085857
149.046368599,17.77513,-36.23098,-5.307677,1.038244,-0.03144831,0.07269602,-48.21853,13.24328,0.7085857
149.056281567,15.35955,-38.79406,-6.84175,1.025475,-0.03407602,0.06415375,-48.21853,13.24328,0.7085857
149.066194534,12.69621,-41.5319,-8.25309699999997,1.021022,-0.05074357,0.03959582,-48.21853,13.24328,0.7085857
149.076107025,10.03288,-44.09499,-8.86672600000002,1.030696,-0.09530558,0.02480473,-48.21853,13.24328,0.7085857
149.08602047,8.17473599999999,-47.53186,-8.74399900000002,1.025199,-0.1307964,0.0193374,-47.83968,13.24854,1.991531
149.095932961,6.37853299999997,-50.56096,-8.74399900000002,1.014138,-0.1769337,0.03113628,-47.83968,13.24854,1.991531
149.105845451,6.56434699999999,-53.53181,-8.92808800000003,1.013302,-0.2215019,0.04045026,-47.83968,13.24854,1.991531
149.115758896,9.22768300000001,-55.27937,-9.90989499999997,0.9984363,-0.2376374,0.05008341,-47.83968,13.24854,1.991531
149.125671387,13.8111,-56.3279,-11.62806,0.9870949,-0.2300229,0.04975887,-47.83968,13.24854,1.991531
149.135584354,18.45645,-56.67741,-13.40758,0.9862099,-0.2116986,0.03260344,-48.19482,12.51004,4.629816
149.145497322,22.17274,-57.25993,-14.45075,0.9878269,-0.1874601,0.02794838,-48.19482,12.51004,4.629816
149.15541029,24.7122,-58.6579799999998,-14.6962,0.9852553,-0.1875567,0.0154874,-48.19482,12.51004,4.629816
149.165322781,27.56135,-59.9977799999998,-14.81893,0.9780809,-0.157082,0.01911788,-48.19482,12.51004,4.629816
149.175236225,30.34856,-59.9977799999998,-16.72118,0.9921991,-0.1408389,0.0320598,-48.19482,12.51004,4.629816
149.185148716,32.76414,-60.2307900000003,-17.02799,1.009486,-0.1380954,0.05208485,-48.1854,12.52076,7.263845
149.195061207,34.68422,-60.4055400000003,-17.70299,1.019734,-0.1389527,0.04910341,-48.1854,12.52076,7.263845
149.204974651,37.16175,-58.5997300000002,-18.62343,1.025064,-0.1233012,0.06260282,-48.1854,12.52076,7.263845
149.217365265,39.26764,-56.2114,-20.09614,1.03983,-0.09233505,0.1082876,-48.1854,12.52076,7.263845
149.227278709,39.88702,-53.1823,-21.01658,1.035419,-0.07532259,0.1271679,-48.1854,12.52076,7.263845
149.2371912,39.2057,-51.959,-20.83249,1.030078,-0.07683358,0.1291279,-47.80494,12.52785,8.996504
149.247103691,36.66624,-52.30852,-20.89386,1.019754,-0.0804056,0.1195964,-47.80494,12.52785,8.996504
149.257017136,34.8081,-51.90075,-19.78932,0.9839106,-0.07019874,0.1171149,-47.80494,12.52785,8.996504
149.266929627,32.08282,-52.48327,-19.54387,0.9683931,-0.09374212,0.1022167,-47.80494,12.52785,8.996504
149.276842117,30.28662,-54.23083,-19.54387,0.9373695,-0.08887605,0.08669077,-47.80494,12.52785,8.996504
149.286755562,29.29561,-53.4153,-21.50749,0.9207628,-0.09444072,0.08200569,-48.16192,11.78725,11.12083
149.296668053,28.86205,-52.83278,-21.3234,0.9374292,-0.116162,0.0605799,-48.16192,11.78725,11.12083
149.30658102,28.18073,-53.70656,-20.77113,0.9184482,-0.1305012,0.05249722,-48.16192,11.78725,11.12083
149.316493988,29.29561,-52.36677,-21.93703,0.9341964,-0.1158665,0.03180227,-48.16192,11.78725,11.12083
149.326406956,28.92398,-55.45412,-25.86425,0.9181365,-0.1523662,0.04419175,-48.16192,11.78725,11.12083
149.336319447,29.17174,-52.77453,-19.29842,0.8788339,-0.1622211,0.01471976,-48.15549,11.79457,12.91968
149.346232891,32.82608,-56.96867,-18.56207,0.894447,-0.1539983,-0.02666346,-48.15549,11.79457,12.91968
149.356145382,32.94996,-55.74538,-21.13931,0.8859429,-0.1027431,-0.03296556,-48.15549,11.79457,12.91968
149.366057873,37.96694,-59.0657400000003,-23.71655,0.9025274,-0.1432831,-0.03675012,-48.15549,11.79457,12.91968
149.375971317,43.97493,-58.3084700000001,-21.8143,0.9042503,-0.09118474,0.001513522,-48.15549,11.79457,12.91968
149.385883808,39.26764,-60.5802999999999,-20.58704,0.8721393,-0.1007737,0.006068033,-46.27016,11.43059,15.48089
149.395796776,38.40051,-59.5900100000002,-20.40295,0.8754893,-0.08345599,-0.02841897,-46.27016,11.43059,15.48089
149.405709744,41.8071,-60.87156,-23.28701,0.9036256,-0.05785123,-0.02034591,-46.27016,11.43059,15.48089
149.415622711,43.97493,-57.9589599999998,-20.34159,0.8983718,-0.03443904,0.01923162,-46.27016,11.43059,15.48089
149.425535202,45.58532,-56.03664,-18.93024,0.9123363,-0.006568595,0.03081195,-46.27016,11.43059,15.48089
149.435448647,49.92098,-51.60949,-19.72796,0.9258797,0.02718464,0.05587979,-46.2591,11.06305,17.21665
149.445361137,41.62128,-48.46389,-19.91205,0.8880723,0.1354119,0.1673869,-46.2591,11.06305,17.21665
149.455273628,40.19671,-42.7552,-20.64841,0.9175571,0.1539046,0.2032492,-46.2591,11.06305,17.21665
149.465187073,30.906,-35.70671,-18.74615,0.8972664,0.1374383,0.2556644,-46.2591,11.06305,17.21665
149.475099564,26.81809,-27.08542,-14.26666,0.8943213,0.1044732,0.2636348,-46.2591,11.06305,17.21665
149.485012055,24.52638,-17.35734,-9.66444299999998,0.8598303,0.02830635,0.24424,-45.12206,10.69926,19.84599
149.497403622,15.91699,-14.38649,-4.694048,0.8364028,-0.006111728,0.2082155,-45.12206,10.69926,19.84599
149.507316113,6.006905,-13.68747,-6.044032,0.9173092,-0.04523123,0.1366234,-45.12206,10.69926,19.84599
149.517229557,-1.4876,-9.72633399999999,-8.13037100000001,1.035736,-0.078581,0.05896078,-45.12206,10.69926,19.84599
149.527142048,-6.814272,-3.842885,-7.02583799999998,1.115405,-0.1046767,-0.02261645,-45.49471,10.70106,20.29765
149.537054539,-8.79629,4.661901,-6.10539499999999,1.126173,-0.1091754,-0.07460308,-45.49471,10.70106,20.29765
149.546967983,-6.93814800000003,12.93368,-6.90311299999998,1.12803,-0.06993794,-0.08588266,-45.49471,10.70106,20.29765
149.556880474,-1.79729,18.40936,-12.79395,1.133783,0.00859445,-0.1958491,-45.49471,10.70106,20.29765
149.566793442,4.024887,23.65204,-20.64841,1.232571,0.04471444,-0.1998832,-45.49471,10.70106,20.29765
149.576706409,7.55535600000002,28.13744,-24.02337,1.261866,0.08042124,-0.2099995,-44.74941,10.69746,19.39433
149.586619377,7.49341799999997,29.53549,-26.60061,1.26641,0.08201434,-0.1941857,-44.74941,10.69746,19.39433
149.596531868,4.458453,31.05004,-25.06653,1.287589,0.07113798,-0.1920532,-44.74941,10.69746,19.39433
149.606445312,1.547365,36.17621,-25.6188,1.219446,0.09239395,-0.1365434,-44.74941,10.69746,19.39433
149.616357803,0.927984400000002,42.05966,-29.48466,1.11339,0.0769534,-0.05403855,-44.74941,10.69746,19.39433
149.626270294,-3.903184,42.87519,-29.54603,1.120883,0.002750352,0.01742155,-45.11211,9.570249,18.56456
149.636183739,-10.03505,46.71982,-30.34374,1.098189,-0.02006651,0.06645556,-45.11211,9.570249,18.56456
149.646096229,-16.7863,50.97221,-30.22102,1.104488,-0.05049992,0.07291676,-45.11211,9.570249,18.56456
149.656009197,-21.9891,53.47705,-26.04834,1.070261,-0.06312381,0.05826431,-45.11211,9.570249,18.56456
149.665922165,-24.65243,56.33139,-25.92562,1.042504,-0.09634501,-0.01708515,-45.11211,9.570249,18.56456
149.675835133,-23.66142,55.63237,-22.9802,1.018178,-0.1104945,-0.06929169,-45.10861,8.813999,16.83226
149.685747623,-21.86522,52.13725,-16.353,1.020145,-0.1490007,-0.1132608,-45.10861,8.813999,16.83226
149.695661068,-18.02506,50.56445,-10.15535,0.9947263,-0.180047,-0.1487643,-45.10861,8.813999,16.83226
149.705573559,-12.3887,49.74892,-3.773605,0.983602,-0.2186611,-0.1820496,-45.10861,8.813999,16.83226
149.71548605,-5.018068,48.52563,-0.1531931,0.9459334,-0.2242686,-0.2379171,-45.10861,8.813999,16.83226
149.725399494,6.19271900000002,49.10815,2.23996,0.9917588,-0.2262033,-0.2537188,-45.85846,8.052199,13.75472
149.735311985,21.55335,52.66152,4.14221,1.005898,-0.2319008,-0.264451,-45.85846,8.052199,13.75472
149.745224476,38.33857,56.6809,5.369469,1.01606,-0.2420711,-0.2867,-45.85846,8.052199,13.75472
149.75513792,55.74316,62.6225999999999,5.430832,1.002079,-0.2184914,-0.287374,-45.85846,8.052199,13.75472
149.765050411,70.9179800000001,68.27304,4.878565,0.9552357,-0.1929353,-0.2954133,-45.85846,8.052199,13.75472
149.774963379,81.5093800000002,72.0011700000003,6.10582399999999,0.8981339,-0.1606738,-0.2946703,-46.24515,8.418138,11.63544
149.787354469,89.3755199999999,77.3020899999998,5.308106,0.8715001,-0.1342948,-0.2860856,-46.24515,8.418138,11.63544
149.797267914,82.8720199999999,80.2729499999999,4.694477,0.7949984,-0.1004839,-0.2203314,-46.24515,8.418138,11.63544
149.807180405,94.2686200000002,84.40884,1.196791,0.7803276,-0.1160301,-0.1910097,-46.24515,8.418138,11.63544
149.817092895,95.2596399999999,82.89429,2.178597,0.7548869,-0.1002586,-0.1738638,-46.24515,8.418138,11.63544
149.82700634,93.7731200000003,78.8749000000003,5.369469,0.7259034,-0.06873431,-0.1023223,-46.26401,8.776786,7.715364
149.836918831,90.8620299999998,77.3603500000003,5.492195,0.7094818,-0.0468856,-0.05689003,-46.26401,8.776786,7.715364
149.846831799,86.46443,73.9234800000001,6.96490399999999,0.7133957,-0.09268028,-0.01497739,-46.26401,8.776786,7.715364
149.856744766,84.5443500000001,71.5351499999999,7.88534800000001,0.7654205,-0.08900298,0.008093726,-46.26401,8.776786,7.715364
149.866657734,84.1727199999999,68.3312900000002,7.82398500000003,0.835007,-0.1129313,-0.005193351,-46.26401,8.776786,7.715364
149.876570225,86.6502500000002,65.7681999999997,8.19216299999999,0.9111367,-0.1115655,-0.01837243,-46.67329,10.25736,3.344061
149.886483669,88.75614,63.43813,10.21714,0.9872575,-0.09459452,-0.01416177,-46.67329,10.25736,3.344061
149.89639616,87.76513,60.7585400000003,14.45118,1.069197,0.03485031,-0.02606115,-46.67329,10.25736,3.344061
149.906308651,80.9519400000001,55.51587,16.78297,1.138681,0.08476686,-0.010526,-46.67329,10.25736,3.344061
149.916222095,71.35155,53.82656,20.40338,1.182047,0.08109097,0.01785795,-46.67329,10.25736,3.344061
149.926134586,59.7691300000001,52.89453,22.30563,1.203272,0.06389701,0.01706696,-46.69215,10.61601,-0.5760155
149.936047554,48.68222,48.05962,19.91248,1.236154,0.02169208,0.02704517,-46.69215,10.61601,-0.5760155
149.945960522,41.18772,45.72953,20.52611,1.227841,-0.02206642,0.02346941,-46.69215,10.61601,-0.5760155
149.955873489,38.09082,43.74897,19.5443,1.24411,-0.04569731,0.008756781,-46.69215,10.61601,-0.5760155
149.96578598,40.87803,42.23442,17.94886,1.255561,-0.08057229,-0.01222826,-46.69215,10.61601,-0.5760155
149.975699425,49.11579,42.17617,17.70341,1.26879,-0.1155147,-0.05051589,-46.33216,10.97991,-3.213145
149.985611916,60.2646400000003,41.71015,16.2307,1.277273,-0.1348338,-0.05648495,-46.33216,10.97991,-3.213145
149.995524406,70.7941099999998,42.11792,15.98525,1.271344,-0.1532278,-0.03638601,-46.33216,10.97991,-3.213145
150.005437851,79.9609399999997,43.1082,16.72161,1.268002,-0.151765,-0.02674219,-46.33216,10.97991,-3.213145
150.015350342,87.3315699999997,43.86547,17.51932,1.260785,-0.1400886,-0.001629429,-46.33216,10.97991,-3.213145
150.025262833,93.2776199999998,43.98198,19.11476,1.242851,-0.1226722,0.03418416,-46.36397,12.46418,-6.68697
150.035176277,97.1177699999998,42.52568,21.13973,1.228999,-0.09512237,0.05082119,-46.36397,12.46418,-6.68697
150.045088768,98.60429,39.49657,23.53289,1.20681,-0.06378728,0.06948116,-46.36397,12.46418,-6.68697
150.055001736,99.7191800000001,36.23447,25.37378,1.168101,-0.03748365,0.09258182,-46.36397,12.46418,-6.68697
150.064914703,99.2236699999999,32.6811,25.68059,1.159104,-0.00452513,0.1120909,-46.36397,12.46418,-6.68697
150.077305317,95.5073900000002,28.60346,26.35558,1.143447,0.04770795,0.1245877,-46.37017,12.45712,-8.421576
150.087218761,90.6762199999998,25.63261,26.41694,1.122131,0.07168392,0.1244644,-46.37017,12.45712,-8.421576
150.097131252,85.7831099999999,22.89477,26.84649,1.125639,0.07030772,0.131145,-46.37017,12.45712,-8.421576
150.10704422,81.7571400000002,21.38021,26.96921,1.119622,0.08820531,0.1375619,-46.37017,12.45712,-8.421576
150.116957188,77.1737200000001,20.44818,26.72376,1.103827,0.0986637,0.1353769,-46.37017,12.45712,-8.421576
150.126870155,72.2186800000001,19.51615,26.47831,1.104993,0.0841397,0.1367098,-45.64215,13.19408,-11.44727
150.136782646,67.44945,18.99188,26.41694,1.102318,0.06326226,0.1375558,-45.64215,13.19408,-11.44727
150.146696091,63.0518500000002,18.0016,26.96921,1.083428,0.03677527,0.1241096,-45.64215,13.19408,-11.44727
150.156608582,59.4594499999999,16.02103,27.27603,1.065721,-0.0003242463,0.1182643,-45.64215,13.19408,-11.44727
150.166521072,56.05285,13.5162,28.50328,1.059201,-0.0407286,0.1026903,-45.64215,13.19408,-11.44727
150.176434517,54.19471,10.02108,29.17828,0.9928302,-0.1007588,0.09282091,-45.65159,13.56345,-12.73332
150.186347008,52.08882,5.302673,27.76693,0.9562154,-0.1285053,0.06608583,-45.65159,13.56345,-12.73332
150.196259975,50.85006,1.807555,25.68059,0.9860874,-0.1327467,0.01776548,-45.65159,13.56345,-12.73332
150.206172943,53.26564,2.797838,26.35558,0.9848496,-0.09850831,-0.01512589,-45.65159,13.56345,-12.73332
150.216085911,55.74316,4.02113,21.87609,1.020412,-0.07886596,-0.05277627,-45.65159,13.56345,-12.73332
150.225998402,64.04285,5.652184,20.28065,0.9954934,-0.04966092,-0.06435521,-45.29648,14.68204,-14.02362
150.235911846,72.1567399999998,2.623082,22.36699,0.9419765,0.01077224,-0.06249734,-45.29648,14.68204,-14.02362
150.245824337,70.9799199999998,-5.93995599999998,22.61244,0.8900204,0.1522395,-0.05195138,-45.29648,14.68204,-14.02362
150.255736828,74.01488,-10.36711,19.85111,0.888739,0.02696939,0.01012665,-45.29648,14.68204,-14.02362
150.265650272,81.3235699999997,-3.202114,15.43299,0.8314561,0.1359616,0.03539043,-45.29648,14.68204,-14.02362
150.275562763,76.3685300000003,-3.435122,11.81257,0.8405032,0.1508338,0.07669944,-45.31562,15.80059,-15.31197
150.285476208,70.3605300000002,-5.124428,11.38303,0.8509589,0.1544747,0.09919444,-45.31562,15.80059,-15.31197
150.295388699,63.3615400000001,-9.37682200000001,13.22392,0.8258976,0.1504436,0.1301295,-45.31562,15.80059,-15.31197
150.305301189,57.4154900000001,-13.1632,14.38982,0.8254932,0.1577986,0.1469878,-45.31562,15.80059,-15.31197
150.315214634,52.15075,-14.56125,13.89891,0.8117738,0.1693196,0.1577549,-45.31562,15.80059,-15.31197
150.325127125,46.76214,-17.12433,13.71482,0.8239715,0.1611663,0.1455838,-44.93973,15.42237,-16.21219
150.335040093,41.74516,-18.34762,13.53074,0.8030924,0.1502474,0.1471446,-44.93973,15.42237,-16.21219
150.34495306,35.73717,-19.68742,14.26709,0.7824937,0.1514212,0.1425414,-44.93973,15.42237,-16.21219
150.357343674,28.86205,-23.12428,18.25568,0.7803852,0.1232729,0.1423733,-44.93973,15.42237,-16.21219
150.367257118,22.97793,-24.69709,19.29885,0.7582252,0.0992616,0.1467398,-45.31399,15.42234,-16.21025
150.377169609,20.50041,-23.41554,19.85111,0.7346407,0.09232727,0.175241,-45.31399,15.42234,-16.21025
150.387082577,14.55436,-20.5612,17.70341,0.7055479,0.07647757,0.1806862,-45.31399,15.42234,-16.21025
150.396995545,6.19271900000002,-21.49323,19.0534,0.7263126,0.03612625,0.2032729,-45.31399,15.42234,-16.21025
150.406908512,-1.177909,-19.16315,22.36699,0.7371309,-0.01833261,0.2407426,-45.31399,15.42234,-16.21025
150.416821003,-6.56652,-16.25055,26.6624,0.7589342,-0.04644496,0.2835679,-44.94621,16.17522,-15.31507
150.426734448,-11.89319,-14.85251,30.52826,0.7667914,-0.1311987,0.2829306,-44.94621,16.17522,-15.31507
150.436646938,-16.41467,-16.65832,33.96458,0.7693228,-0.2335533,0.2668602,-44.94621,16.17522,-15.31507
150.446559429,-17.77731,-22.07575,41.75767,0.7927129,-0.3927957,0.2631823,-44.94621,16.17522,-15.31507
150.456472874,-8.23884800000001,-28.89123,50.40984,0.7765855,-0.5141998,0.2649234,-44.94621,16.17522,-15.31507
150.466385365,9.04186800000002,-38.32804,54.09162,0.6833428,-0.5182276,0.1798106,-45.32394,16.55135,-14.92881
150.476298332,22.6063,-56.3279,47.15761,0.6721365,-0.4044584,0.1739499,-45.32394,16.55135,-14.92881
150.4862113,29.48143,-67.92004,33.65777,0.7383074,-0.2706342,0.203039,-45.32394,16.55135,-14.92881
150.496124268,28.36654,-64.5414400000001,24.57606,0.9077192,-0.2098586,0.2959881,-45.32394,16.55135,-14.92881
150.506036759,31.09181,-45.08527,18.99203,1.056299,-0.1975297,0.4464262,-45.32394,16.55135,-14.92881
150.515950203,36.1088,-20.32819,16.10798,1.111442,-0.1846907,0.5458747,-44.58862,18.05685,-13.20272
150.525862694,45.08982,0.351256,14.32845,1.113827,-0.2041948,0.6124647,-44.58862,18.05685,-13.20272
150.535775185,58.5303699999998,16.02103,12.48757,1.070758,-0.2152377,0.6435195,-44.58862,18.05685,-13.20272
150.545688629,70.8560399999998,23.30253,11.32167,0.9891197,-0.2172265,0.643301,-44.58862,18.05685,-13.20272
150.55560112,83.3675300000001,22.19574,10.33986,0.8722891,-0.168687,0.5606771,-44.58862,18.05685,-13.20272
150.565513611,84.97792,10.83661,7.45580799999998,0.8364658,-0.07604803,0.4660741,-44.97395,18.80445,-13.58855
150.575427055,76.6782200000002,-10.07585,4.14221,0.8894151,-0.01241282,0.2681831,-44.97395,18.80445,-13.58855
150.585339546,62.68022,-33.72614,4.203574,0.940219,-0.01376111,0.166391,-44.97395,18.80445,-13.58855
150.595252514,50.66424,-49.45417,6.22854899999998,1.026884,-0.04968848,0.1355803,-44.97395,18.80445,-13.58855
150.605165481,54.87603,-53.93957,6.044461,1.141665,-0.08343659,0.08339716,-44.97395,18.80445,-13.58855
150.615078449,70.1127900000003,-52.83278,-2.239532,1.395968,0.1216946,0.04063813,-45.36113,19.54995,-14.48833
150.62499094,90.05684,-25.1631,-14.26666,1.736945,0.4714003,0.2746118,-45.36113,19.54995,-14.48833
150.63738203,106.6562,28.4287,-20.1575,1.678801,0.6414253,0.4779487,-45.36113,19.54995,-14.48833
150.647295475,106.904,57.4381800000002,-22.9802,1.326583,0.8408152,0.5060622,-45.36113,19.54995,-14.48833
150.657207966,76.9259699999999,59.8265099999998,-20.46432,1.137873,0.6116638,0.5274078,-45.36113,19.54995,-14.48833
150.667120933,18.89002,40.3121,-11.3826,1.091113,0.08218472,0.3543368,-45.72382,18.42273,-15.31811
150.677033901,-33.75732,3.496862,8.06943700000002,0.956122,-0.5170599,-0.06422395,-45.72382,18.42273,-15.31811
150.686946869,-57.5415299999998,-49.45417,30.4669,0.772087,-0.7604434,-0.4617144,-45.72382,18.42273,-15.31811
150.69685936,-38.03105,-89.1237599999999,30.09872,0.6842551,-0.60052,-0.7330467,-45.72382,18.42273,-15.31811
150.706772804,-7.43365200000003,-93.3179000000002,17.51932,0.8915864,-0.2189194,-0.5720491,-45.72382,18.42273,-15.31811
150.716685295,14.36854,-69.3763399999998,3.896759,0.9022388,0.04528533,-0.511328,-45.69633,16.17333,-15.76089
150.726597786,24.65026,-43.39597,-2.178169,0.92291,0.1375596,-0.4379204,-45.69633,16.17333,-15.76089
150.73651123,26.57034,-27.31843,-0.1531931,0.9054496,0.1425395,-0.3705036,-45.69633,16.17333,-15.76089
150.746423721,24.03088,-21.14372,2.485412,0.8721609,-0.02347628,-0.2349368,-45.69633,16.17333,-15.76089
150.756336689,21.24366,-22.0175,3.221767,0.8805495,-0.2559802,-0.1184444,-45.69633,16.17333,-15.76089
150.766249657,25.76514,-27.20192,4.264936,0.9218497,-0.4470285,-0.03415079,-46.0808,17.68214,-13.19378
150.776162624,40.5064,-32.21159,6.84217800000002,0.9926797,-0.5103098,0.0276733,-46.0808,17.68214,-13.19378
150.786075115,61.7511500000002,-34.07565,7.45580799999998,1.030187,-0.4286974,0.0614812,-46.0808,17.68214,-13.19378
150.795988083,80.5183799999999,-33.43488,5.492195,1.051511,-0.2858574,0.06703718,-46.0808,17.68214,-13.19378
150.805901051,91.1717199999998,-30.11452,3.344493,1.06579,-0.1590557,0.08215462,-46.0808,17.68214,-13.19378
150.815813541,93.4014900000001,-23.06603,1.81042,1.098303,-0.0148807,0.1313104,-46.45644,17.68054,-13.5773
150.825726986,89.87103,-13.74572,1.196791,1.109681,0.09263711,0.1746556,-46.45644,17.68054,-13.5773
150.835639477,83.3055899999998,-4.774917,1.012702,1.069051,0.1801491,0.2250706,-46.45644,17.68054,-13.5773
150.845551968,74.2626300000002,3.613366,0.828613499999998,1.03404,0.2163949,0.286616,-46.45644,17.68054,-13.5773
150.855465412,63.0518500000002,13.45795,1.626331,1.006469,0.1925477,0.3356882,-46.45644,17.68054,-13.5773
150.865377903,46.51439,22.31225,4.326299,0.954636,0.1570234,0.3416928,-46.44674,16.93135,-13.57499
150.875290871,32.76414,26.68114,6.28991200000003,0.9271361,0.09637956,0.3069718,-46.44674,16.93135,-13.57499
150.885203838,25.70321,25.92387,7.88534800000001,0.9290267,0.06222375,0.2606315,-46.44674,16.93135,-13.57499
150.895116806,24.27863,26.8559,8.74442899999999,0.9576252,0.02343924,0.2860372,-46.44674,16.93135,-13.57499
150.905029297,22.17274,30.00151,13.71482,0.9721921,-0.1049535,0.2687217,-46.44674,16.93135,-13.57499
150.914942741,16.59831,32.73935,20.40338,0.9907818,-0.2173903,0.2332294,-47.19661,16.54963,-15.30455
150.927333832,5.5114,44.09848,26.41694,1.014167,-0.325185,0.1463467,-47.19661,16.54963,-15.30455
150.937246323,2.66225,50.27319,28.07374,0.9534205,-0.3084522,0.05963112,-47.19661,16.54963,-15.30455
150.94715929,7.98892199999997,57.6711900000001,28.07374,0.8911412,-0.2410314,0.1211562,-47.19661,16.54963,-15.30455
150.957072258,14.61629,71.3021499999997,22.79653,0.7984934,-0.1879247,0.1132438,-47.19661,16.54963,-15.30455
150.966985226,18.2087,74.3894999999999,18.43977,0.7651476,-0.1762049,0.02240022,-46.46075,16.9154,-17.49391
150.976897717,24.34057,75.9040499999999,16.96706,0.7689382,-0.1164672,0.03284645,-46.46075,16.9154,-17.49391
150.986811161,32.82608,73.3992199999999,12.61029,0.7355022,-0.09698075,0.03760692,-46.46075,16.9154,-17.49391
150.996723652,33.19771,67.28276,12.67165,0.7635115,-0.0582713,0.0486494,-46.46075,16.9154,-17.49391
151.006636143,24.95995,62.1565899999999,12.36484,0.7481948,-0.07171457,0.01749121,-46.46075,16.9154,-17.49391
151.016549587,13.8111,59.8265099999998,11.62849,0.7858405,-0.09099707,0.04198282,-45.36169,17.64873,-21.42098
151.026462078,9.16574500000002,57.7294400000003,17.76477,0.8934296,-0.1464569,0.1212849,-45.36169,17.64873,-21.42098
151.036375046,3.405506,46.31205,15.61707,0.9638724,-0.2231104,0.129726,-45.36169,17.64873,-21.42098
151.046288013,3.715197,40.89462,12.67165,1.041187,-0.217483,0.09399688,-45.36169,17.64873,-21.42098
151.056200504,7.30760400000002,39.43832,10.40123,0.9775398,-0.1419932,0.03170752,-45.36169,17.64873,-21.42098
151.066113472,8.36055000000001,38.91405,3.467218,0.959933,-0.1139231,0.06422796,-43.49982,17.63817,-24.06474
151.07602644,6.254657,35.01117,3.099041,0.97396,-0.0833417,0.03741311,-43.49982,17.63817,-24.06474
151.085939407,3.095816,26.9724,6.47400099999998,0.9864559,-0.07305156,0.02824309,-43.49982,17.63817,-24.06474
151.095851898,-0.4346527,20.73944,7.026268,1.004309,-0.001490002,0.04103883,-43.49982,17.63817,-24.06474
151.105765343,-2.726361,19.74916,6.84217800000002,1.066865,-0.001210245,0.03806138,-43.49982,17.63817,-24.06474
151.115677834,-6.75233400000001,18.70062,8.86715399999999,1.100839,-0.12651,0.009543411,-42.75751,17.63117,-25.80324
151.125590324,-7.681405,15.61327,8.56033999999998,1.106059,-0.2050529,-0.002551917,-42.75751,17.63117,-25.80324
151.135503769,-2.41667,9.61331700000002,7.946711,1.166194,-0.2121085,-0.01179791,-42.75751,17.63117,-25.80324
151.14541626,4.148763,7.34149200000003,8.06943700000002,1.181402,-0.1750674,-0.01121164,-42.75751,17.63117,-25.80324
151.155329227,5.75915199999997,3.962878,6.596727,1.175949,-0.1576129,0.001919356,-42.75751,17.63117,-25.80324
151.165242195,7.12178899999997,0.9920276,6.044461,1.177211,-0.1342864,0.009265459,-42.39131,18.00213,-26.70577
151.175155163,7.617294,-3.027358,6.78081600000001,1.156184,-0.1340627,0.00946141,-42.39131,18.00213,-26.70577
151.185068131,6.750161,-7.68751500000001,6.53536400000002,1.146974,-0.1395031,0.01095082,-42.39131,18.00213,-26.70577
151.194981098,6.31659499999999,-10.30885,6.044461,1.143682,-0.1277705,0.03746812,-42.39131,18.00213,-26.70577
151.207372189,6.750161,-13.39621,5.79900900000001,1.133159,-0.1448566,0.04033256,-41.65063,18.37339,-27.54599
151.217284679,6.93597599999999,-15.43503,5.18538,1.132352,-0.1413656,0.0610101,-41.65063,18.37339,-27.54599
151.227197647,6.997913,-17.6486,4.878565,1.118261,-0.145887,0.0644714,-41.65063,18.37339,-27.54599
151.237110615,5.82109000000002,-22.77477,4.326299,1.107911,-0.1692244,0.07689575,-41.65063,18.37339,-27.54599
151.247023583,5.077834,-25.62912,3.835396,1.090032,-0.1951941,0.06728493,-41.65063,18.37339,-27.54599
151.256936073,7.43147999999999,-29.24074,3.958122,1.071417,-0.2327574,0.06768699,-42.02676,18.75135,-26.71002
151.266849518,8.05085899999999,-33.14362,3.099041,1.114156,-0.1760319,0.05806647,-42.02676,18.75135,-26.71002
151.276762009,8.979931,-35.53195,2.23996,1.077366,-0.1982556,0.06834199,-42.02676,18.75135,-26.71002
151.2866745,10.96195,-38.5028,2.853589,1.000638,-0.2801637,0.07186703,-42.02676,18.75135,-26.71002
151.296587944,14.86405,-42.40568,3.467218,1.06524,-0.2076262,0.06695123,-42.02676,18.75135,-26.71002
151.306500435,16.96994,-40.59987,1.074065,1.061127,-0.15656,0.1071826,-43.14632,18.75492,-25.80476
151.316413403,17.27963,-42.69694,0.889976299999999,1.050205,-0.08727297,0.1245507,-43.14632,18.75492,-25.80476
151.32632637,15.48343,-43.80373,-0.09183015,1.019464,-0.05275203,0.1236245,-43.14632,18.75492,-25.80476
151.336238861,13.0059,-46.48332,-0.2759189,0.9942533,-0.0536943,0.09600224,-43.14632,18.75492,-25.80476
151.346151829,9.90900100000002,-48.23088,-0.766822200000002,0.9599203,-0.05417798,0.08527289,-43.14632,18.75492,-25.80476
151.356064797,6.81209899999999,-49.45417,-1.625903,0.9340311,-0.08643599,0.09778154,-43.13366,18.38921,-23.61929
151.365977764,10.34257,-47.82312,0.3377102,0.8439858,-0.3244098,0.05045357,-43.13366,18.38921,-23.61929
151.375890732,11.95296,-58.2502199999999,3.774033,1.110305,-0.15581,0.03999079,-43.13366,18.38921,-23.61929
151.3858037,12.13877,-54.8716,-2.055443,1.096927,-0.07533936,0.0694601,-43.13366,18.38921,-23.61929
151.395716667,13.31559,-54.81335,-5.430403,1.057385,-0.1006805,0.04612923,-43.13366,18.38921,-23.61929
151.405629635,13.25366,-56.73566,-5.307677,1.0445,-0.08799782,0.09194791,-44.63255,18.76709,-22.77747
151.415542126,14.49242,-56.15314,-6.596298,0.9793155,-0.07864776,0.08829162,-44.63255,18.76709,-22.77747
151.425454617,14.67823,-56.50266,-7.08720199999999,0.9602401,-0.1103487,0.09834017,-44.63255,18.76709,-22.77747
151.435368061,12.69621,-56.73566,-5.79858000000001,0.9778539,-0.1469473,0.1041755,-44.63255,18.76709,-22.77747
151.445280552,12.38652,-57.72595,-4.448596,1.002643,-0.1693907,0.1109991,-44.63255,18.76709,-22.77747
151.45519352,12.07683,-60.1725299999998,-3.834968,1.022714,-0.2003468,0.07699618,-45.36355,18.02673,-20.58696
151.465106487,11.7052,-62.38611,-1.503177,0.9561918,-0.1604644,0.07403582,-45.36355,18.02673,-20.58696
151.475019455,11.82908,-61.4540800000002,-5.859943,0.9298506,-0.152718,0.04168028,-45.36355,18.02673,-20.58696
151.484931946,12.13877,-62.3278599999998,-6.35084600000001,0.9339948,-0.1308451,0.04226783,-45.36355,18.02673,-20.58696
151.497323036,12.44846,-63.08513,-9.17354000000002,0.8978672,-0.0807859,0.05878066,-45.36355,18.02673,-20.58696
151.507236004,12.88203,-64.5414400000001,-8.55991099999998,0.9234476,-0.103314,0.04735036,-46.47045,17.66459,-17.49622
