Time (s),Gyroscope X (deg/s),Gyroscope Y (deg/s),Gyroscope Z (deg/s),Accelerometer X (g),Accelerometer Y (g),Accelerometer Z (g),Magnetometer X (uT),Magnetometer Y (uT),Magnetometer Z (uT)
25.305541515,-13.25583,6.40946000000002,-0.705459200000001,1.008716,-0.06218544,-0.2676679,-31.87479,-32.29149,10.53241
25.315454006,-9.60148500000001,8.73953799999999,-0.644096300000003,1.011218,-0.05627133,-0.2551675,-31.87479,-32.29149,10.53241
25.32536602,-5.513573,11.41913,-0.582733500000001,1.04065,-0.04073316,-0.2279671,-32.61683,-33.0444,9.639191
25.337756157,-0.4346527,16.37054,-0.5213705,1.050532,-0.03128854,-0.2068687,-32.61683,-33.0444,9.639191
25.347668648,4.334577,19.86566,-0.03046724,1.044493,-0.01193912,-0.200922,-32.61683,-33.0444,9.639191
25.357580662,8.05085899999999,22.07924,0.767250500000003,1.041929,0.01626061,-0.1795834,-32.61683,-33.0444,9.639191
25.367493153,9.04186800000002,23.41903,1.749057,1.027208,0.03263528,-0.1654136,-32.61683,-33.0444,9.639191
25.377405167,8.36055000000001,25.5161,2.301323,1.004221,0.0513689,-0.1439493,-32.2601,-31.92398,8.798601
25.387317181,6.81209899999999,28.25395,2.485412,0.9847318,0.05018443,-0.1384952,-32.2601,-31.92398,8.798601
25.397230148,4.953958,29.47724,1.687694,0.9612829,0.05892154,-0.1737518,-32.2601,-31.92398,8.798601
25.407141686,2.724188,31.10829,0.2149844,0.9672297,0.08196312,-0.1390819,-32.2601,-31.92398,8.798601
25.4170537,1.113798,36.00146,-1.073637,0.9316762,0.09353616,-0.1593228,-32.2601,-31.92398,8.798601
25.426966667,-2.602484,33.55487,-1.56454,0.8911977,0.08746853,-0.2036436,-32.98922,-33.42242,8.80711
25.436878204,-7.929157,28.54521,-2.300895,0.8927798,0.05925411,-0.2254533,-32.98922,-33.42242,8.80711
25.446790218,-11.89319,23.65204,-1.871354,0.9263307,0.02519325,-0.2360738,-32.98922,-33.42242,8.80711
25.456703186,-15.4856,20.73944,-0.214556,0.9626749,-0.006704444,-0.2102138,-32.98922,-33.42242,8.80711
25.4666152,-15.9811,20.15692,-0.644096300000003,1.002559,-0.023137,-0.2025294,-32.98922,-33.42242,8.80711
25.476526737,-14.80428,21.78798,-0.644096300000003,1.02855,-0.01106547,-0.1810822,-32.25015,-33.053,7.51717
25.486439705,-13.19389,24.58407,-0.3986447,1.030157,0.003172257,-0.1507523,-32.25015,-33.053,7.51717
25.496351719,-10.77831,27.84618,-0.1531931,1.007629,0.00872572,-0.147626,-32.25015,-33.053,7.51717
25.506263733,-8.053034,30.87529,0.2149844,0.9644159,0.03345662,-0.1364981,-32.25015,-33.053,7.51717
25.516176224,-6.56652,32.04033,0.5217989,0.9393373,0.04624141,-0.1352207,-32.25015,-33.053,7.51717
25.526088238,-6.38070599999998,31.63256,0.828613499999998,0.9185219,0.05608294,-0.1508078,-32.6387,-32.30907,6.231916
25.536000252,-6.13295399999998,31.98207,1.38088,0.9244097,0.05519132,-0.1499079,-32.6387,-32.30907,6.231916
25.545912743,-6.75233400000001,29.18598,0.2763473,0.9272583,0.04250084,-0.1730664,-32.6387,-32.30907,6.231916
25.555824757,-7.062024,26.44814,-0.950910899999997,0.9442185,0.0209324,-0.1656844,-32.6387,-32.30907,6.231916
25.565736771,-7.18590000000003,22.3705,-2.423621,0.9647144,-0.01175397,-0.1603298,-32.6387,-32.30907,6.231916
25.575649261,-5.389697,20.33168,-3.03725,0.9914251,-0.02931243,-0.1510907,-32.25796,-33.06189,5.332853
25.585561275,-1.79729,19.39965,-3.773605,1.024416,-0.02195285,-0.1201365,-32.25796,-33.06189,5.332853
25.595473289,2.414498,19.74916,-3.957693,1.041582,-0.009028687,-0.1000425,-32.25796,-33.06189,5.332853
25.60538578,5.88302899999997,21.0307,-3.528153,1.03277,0.0215874,-0.06518561,-32.25796,-33.06189,5.332853
25.617775917,7.49341799999997,23.06952,-3.03725,0.9963813,0.05419822,-0.04686597,-32.25796,-33.06189,5.332853
25.627687931,6.502409,23.53554,-2.791798,0.9735521,0.08252166,-0.04646615,-32.2658,-32.69069,4.496519
25.637600422,4.520391,23.59379,-3.03725,0.9824433,0.07536162,-0.04611592,-32.2658,-32.69069,4.496519
25.647512436,2.538374,25.10834,-3.159976,0.98556,0.0769569,-0.02644762,-32.2658,-32.69069,4.496519
25.65742445,1.113798,28.13744,-2.791798,0.9870841,0.05895625,-0.0419467,-32.2658,-32.69069,4.496519
25.667336941,-0.8682191,26.91415,-2.730435,0.9618987,0.05510012,-0.07054897,-32.2658,-32.69069,4.496519
25.677248955,-2.10698,25.80736,-2.546346,0.9615191,0.03563864,-0.08267907,-33.01891,-32.69598,3.215519
25.687160969,-2.850237,24.35106,-2.300895,0.9526649,0.01989111,-0.1062298,-33.01891,-32.69598,3.215519
25.69707346,-3.965122,21.72972,-2.300895,0.9555682,0.01747301,-0.1120347,-33.01891,-32.69598,3.215519
25.706985474,-4.150936,19.5744,-1.99408,0.9668241,0.008350659,-0.1218027,-33.01891,-32.69598,3.215519
25.716897488,-3.469617,16.89481,-1.932717,0.9767936,0.01052339,-0.1007535,-33.01891,-32.69598,3.215519
25.726809978,-1.115971,16.37054,-1.932717,0.9867099,0.009741498,-0.0883663,-32.27685,-32.32315,2.76076
25.736721992,1.237675,16.72006,-2.116806,1.00921,0.0192956,-0.07650678,-32.27685,-32.32315,2.76076
25.746634483,3.529382,17.71034,-2.791798,1.016471,0.03203207,-0.06880655,-32.27685,-32.32315,2.76076
25.756546497,4.520391,19.28314,-3.650879,1.022377,0.04773551,-0.04666928,-32.27685,-32.32315,2.76076
25.766458511,4.272639,21.84623,-4.632685,1.028971,0.04062155,-0.03189275,-32.27685,-32.32315,2.76076
25.776371479,3.219692,21.90448,-4.141782,1.052078,0.03414534,-0.027348,-32.64141,-33.07237,2.765014
25.786283016,2.042869,19.69091,-3.221339,1.062457,0.02847828,-0.02316033,-32.64141,-33.07237,2.765014
25.79619503,2.104807,17.59384,-2.300895,1.067613,0.01940947,-0.007903358,-32.64141,-33.07237,2.765014
25.806107998,3.715197,17.36083,-1.687266,1.060207,0.01172378,0.02380437,-32.64141,-33.07237,2.765014
25.816020012,6.93597599999999,18.35111,-1.380451,1.042458,0.008260968,0.0532351,-32.64141,-33.07237,2.765014
25.825931549,9.97093999999998,19.86566,-1.380451,1.015558,0.017189,0.06314652,-32.6347,-33.82496,1.932142
25.835844517,12.94397,21.67147,-1.503177,1.0157,0.02799457,0.0896259,-32.6347,-33.82496,1.932142
25.845756531,15.17374,25.92387,-1.441814,1.016195,0.04361339,0.1084515,-32.6347,-33.82496,1.932142
25.855668545,14.86405,30.81703,-1.380451,1.023675,0.06938674,0.105193,-32.6347,-33.82496,1.932142
25.865581036,12.69621,33.96264,-0.889547900000002,1.026631,0.09113791,0.08514389,-32.6347,-33.82496,1.932142
25.87549305,7.865046,37.45776,0.03089567,1.042448,0.09800312,0.06199574,-33.02187,-33.07946,1.032355
25.885405064,2.724188,40.89462,0.460436,1.040208,0.1192944,0.05927736,-33.02187,-33.07946,1.032355
25.897795677,-0.9301572,43.92373,-0.1531931,1.03908,0.1157894,0.04053827,-33.02187,-33.07946,1.032355
25.907707691,-3.159927,44.15673,-0.3986447,1.028902,0.1125324,-0.002123383,-33.02187,-33.07946,1.032355
25.917619228,-6.13295399999998,42.46743,-0.2759189,1.011711,0.1239854,0.003873797,-33.03295,-32.33184,0.6445799
25.927532196,-9.911175,40.37035,-1.012274,1.007538,0.1228246,-0.0229842,-33.03295,-32.33184,0.6445799
25.93744421,-14.55653,35.76845,0.3377102,1.017806,0.1083192,-0.03998134,-33.03295,-32.33184,0.6445799
25.947355747,-16.60048,32.97235,0.767250500000003,1.027723,0.09680559,-0.04014975,-33.03295,-32.33184,0.6445799
25.957268715,-16.72436,31.98207,0.3377102,1.029241,0.09002142,-0.04308994,-33.03295,-32.33184,0.6445799
25.967180729,-17.52956,30.64228,0.0922585699999997,1.014004,0.08637591,-0.05497727,-33.02621,-33.46452,-1.536276
25.977092743,-17.90118,29.12773,-0.644096300000003,1.013753,0.08210354,-0.0367574,-33.02621,-33.46452,-1.536276
25.987005234,-16.91018,30.35102,-1.503177,1.042117,0.06466011,-0.00928674,-33.02621,-33.46452,-1.536276
25.996917248,-13.56552,35.12768,-2.914524,1.076449,0.04734306,0.02821288,-33.02621,-33.46452,-1.536276
26.006829739,-8.23884800000001,41.01113,-3.282701,1.097779,0.008500596,0.05992745,-33.02621,-33.46452,-1.536276
26.016741753,-1.79729,45.84604,-4.264508,1.08962,0.01384219,0.08116545,-32.29038,-32.71866,-2.377656
26.026653767,4.706205,48.11787,-5.246314,1.098085,-0.002799093,0.1241905,-32.29038,-32.71866,-2.377656
26.036566257,10.90001,50.21494,-6.16675799999997,1.092702,0.01615569,0.1459737,-32.29038,-32.71866,-2.377656
26.046478271,15.73118,53.06928,-6.84175,1.076885,0.04904193,0.1679462,-32.29038,-32.71866,-2.377656
26.056390286,18.33258,57.03042,-8.49854900000003,1.071188,0.07076024,0.1623817,-32.29038,-32.71866,-2.377656
26.066302776,19.07583,58.9527300000002,-8.31446000000002,1.041191,0.09176147,0.1704815,-32.68054,-31.97656,-4.112622
26.07621479,18.64227,58.6614700000001,-7.57810399999998,0.9944357,0.12029,0.1744651,-32.68054,-31.97656,-4.112622
26.086126804,16.78412,58.1372000000001,-7.82355600000003,0.9672282,0.1368626,0.1633033,-32.68054,-31.97656,-4.112622
26.096039295,13.12978,58.07895,-6.84175,0.9553578,0.1395721,0.1533479,-32.68054,-31.97656,-4.112622
26.105951309,9.47543500000001,56.15664,-5.553129,0.9356315,0.1214393,0.1634928,-32.68054,-31.97656,-4.112622
26.115863323,7.49341799999997,53.01103,-4.264508,0.9321706,0.1030883,0.18597,-32.30118,-32.73095,-5.397153
26.125775814,5.88302899999997,50.21494,-4.019056,0.9233663,0.0815131,0.1604593,-32.30118,-32.73095,-5.397153
26.135687828,2.476436,44.44799,-1.625903,0.8849834,0.05579101,0.1544009,-32.30118,-32.73095,-5.397153
26.145599842,-2.726361,38.44804,0.0922585699999997,0.8717842,0.05562705,0.1545218,-32.30118,-32.73095,-5.397153
26.15551281,-7.557528,37.1665,-0.3372818,0.8753117,0.04352935,0.1505674,-32.30118,-32.73095,-5.397153
26.165424347,-10.77831,36.40922,-1.073637,0.8733536,0.04496709,0.1520355,-31.92666,-33.11074,-6.682838
26.177814484,-12.57451,33.08886,-1.99408,0.8497055,0.006540622,0.1851291,-31.92666,-33.11074,-6.682838
26.187726975,-12.32676,29.36073,-2.730435,0.8569726,-0.01022746,0.2065573,-31.92666,-33.11074,-6.682838
26.197638989,-11.02606,28.19569,-3.221339,0.8797354,-0.01029278,0.2327551,-31.92666,-33.11074,-6.682838
26.207551956,-10.2828,29.01122,-3.03725,0.8683463,0.01534565,0.2488765,-31.92666,-33.11074,-6.682838
26.217463493,-8.48660000000001,32.33158,-2.853161,0.8849955,0.01435155,0.297692,-31.93772,-32.74321,-8.418597
26.227375507,-4.832254,35.12768,-2.607709,0.901669,0.01556073,0.3037879,-31.93772,-32.74321,-8.418597
26.237288475,-0.001086392,37.74902,-1.135,0.9035401,0.01139926,0.3383143,-31.93772,-32.74321,-8.418597
26.247200489,3.839073,38.8558,0.6445247,0.8987564,0.02895414,0.3692056,-31.93772,-32.74321,-8.418597
26.257112026,6.68822300000002,38.33154,1.442243,0.8714757,0.04329799,0.3959621,-31.93772,-32.74321,-8.418597
26.267024994,7.67923199999999,38.6228,1.319517,0.843702,0.07324342,0.4405931,-31.19704,-32.37195,-9.258823
26.276937008,4.644268,36.81699,-0.766822200000002,0.8441814,0.09714703,0.4676367,-31.19704,-32.37195,-9.258823
26.286849022,-0.3727147,34.07914,-1.932717,0.8204888,0.1138105,0.4655661,-31.19704,-32.37195,-9.258823
26.296761513,-6.25683000000001,30.11801,-1.932717,0.7980869,0.1228442,0.4850398,-31.19704,-32.37195,-9.258823
26.306673527,-11.89319,26.33163,-1.380451,0.799944,0.1364758,0.4913554,-31.19704,-32.37195,-9.258823
26.316585541,-16.84824,26.04037,-1.871354,0.8046272,0.1549663,0.4928758,-31.20648,-32.00258,-10.54487
26.326498032,-21.06002,26.56464,-3.282701,0.8384532,0.1627515,0.5103807,-31.20648,-32.00258,-10.54487
26.336410046,-22.67041,28.37045,-4.878137,0.857864,0.137802,0.5143564,-31.20648,-32.00258,-10.54487
26.34632206,-22.91817,29.65199,-5.553129,0.8640776,0.1141531,0.5203835,-31.20648,-32.00258,-10.54487
26.356234551,-21.55553,31.80732,-6.16675799999997,0.88226,0.1056465,0.5191983,-31.20648,-32.00258,-10.54487
26.366146565,-19.8832,33.90439,-5.859943,0.8630618,0.0921699,0.4909567,-30.82413,-32.75357,-10.99422
26.376058579,-19.57351,32.27333,-4.571322,0.814444,0.07535654,0.4509611,-30.82413,-32.75357,-10.99422
26.385971069,-19.75933,29.7685,-4.325871,0.7882409,0.07732107,0.4252879,-30.82413,-32.75357,-10.99422
26.395883083,-20.25483,27.78793,-4.141782,0.7749333,0.1061208,0.4011148,-30.82413,-32.75357,-10.99422
26.405795097,-22.23685,27.43842,-4.816774,0.7691312,0.1238818,0.38064,-30.82413,-32.75357,-10.99422
26.415707588,-26.51057,28.19569,-5.73721700000003,0.7588224,0.1356789,0.3428814,-30.10236,-31.2635,-13.05856
26.425619602,-33.19988,28.77821,-5.98266900000002,0.7671521,0.1648121,0.3309945,-30.10236,-31.2635,-13.05856
26.435532093,-40.75632,29.36073,-6.53493500000002,0.7966171,0.1962169,0.3323717,-30.10236,-31.2635,-13.05856
26.445444107,-47.75532,28.83647,-8.19173300000002,0.8540746,0.165116,0.367645,-30.10236,-31.2635,-13.05856
26.455356121,-51.65742,27.49667,-6.84175,0.8820047,0.1313584,0.4291022,-30.10236,-31.2635,-13.05856
26.467746735,-53.39169,25.92387,-4.080419,0.8964331,0.09996684,0.511827,-30.11017,-31.27239,-15.24287
26.477658749,-54.19688,26.15688,-1.56454,0.8936418,0.0639155,0.5788348,-30.11017,-31.27239,-15.24287
26.487570763,-54.69238,26.27338,1.442243,0.8783641,0.03050134,0.6234082,-30.11017,-31.27239,-15.24287
26.497483254,-52.15292,26.44814,3.344493,0.8638971,-6.070035e-05,0.6550288,-30.11017,-31.27239,-15.24287
26.507395268,-45.95912,26.38988,4.387662,0.8401344,-0.02001907,0.6032586,-30.11017,-31.27239,-15.24287
26.517307282,-34.93415,27.38017,4.817203,0.7945274,-0.03163811,0.5291783,-30.11477,-31.27762,-16.52777
26.527219772,-21.92716,28.60346,4.326299,0.7614382,-0.04222395,0.4372235,-30.11477,-31.27762,-16.52777
26.537131786,-10.09699,28.54521,4.817203,0.7407727,-0.07206497,0.3421445,-30.11477,-31.27762,-16.52777
26.5470438,-0.5585288,26.7394,6.10582399999999,0.7484006,-0.08914194,0.3030674,-30.11477,-31.27762,-16.52777
26.556956291,6.19271900000002,25.16659,6.84217800000002,0.7755787,-0.08500252,0.2879587,-30.11477,-31.27762,-16.52777
26.566868305,11.08582,24.87533,6.53536400000002,0.8070633,-0.08792589,0.3030131,-30.50493,-30.53551,-18.26273
26.576781273,13.68722,26.91415,5.92173499999998,0.8267816,-0.07540265,0.3331642,-30.50493,-30.53551,-18.26273
26.586693287,14.18273,30.05976,5.73764600000002,0.8399104,-0.03673878,0.3712328,-30.50493,-30.53551,-18.26273
26.596604824,14.98792,33.78788,6.84217800000002,0.8417905,0.05396922,0.3747007,-30.50493,-30.53551,-18.26273
26.606517792,12.82009,33.03061,2.055871,0.8961564,0.1420048,0.3911097,-30.50493,-30.53551,-18.26273
26.616429806,7.49341799999997,37.69077,-4.571322,1.082708,0.2981213,0.5027815,-30.89187,-29.78975,-19.09827
26.62634182,8.60830200000001,55.80713,-13.53031,1.306471,0.3133014,0.8354836,-30.89187,-29.78975,-19.09827
26.636254311,16.59831,96.7000000000002,-11.50533,1.365754,0.1995056,1.094903,-30.89187,-29.78975,-19.09827
26.646166325,20.62428,122.2726,10.89213,1.171405,0.1652469,1.033091,-30.89187,-29.78975,-19.09827
26.656078339,23.10181,104.7388,25.9874,0.8950863,0.2390621,0.9722775,-30.89187,-29.78975,-19.09827
26.665990829,20.8101,57.3216799999998,18.07159,0.8110846,0.1365972,0.8624155,-30.13825,-30.54411,-20.38475
26.675902843,17.58932,14.85599,12.36484,0.7715832,0.1402887,0.7341231,-30.13825,-30.54411,-20.38475
26.685814857,8.979931,-8.85255399999999,3.589944,0.744301,0.1233945,0.5335566,-30.13825,-30.54411,-20.38475
26.695727348,-0.3107767,-20.91071,-3.098613,0.654284,0.1597772,0.2859096,-30.13825,-30.54411,-20.38475
26.705639362,-12.14094,-26.15339,-7.82355600000003,0.6086693,0.156438,0.1254562,-30.13825,-30.54411,-20.38475
26.715551376,-24.83825,-29.70676,-4.571322,0.6468384,0.08815073,0.0483031,-30.52841,-29.80201,-22.11972
26.725463867,-29.9791,-32.73586,2.792227,0.6879373,0.03649233,0.08551135,-30.52841,-29.80201,-22.11972
26.735375881,-25.20987,-36.17272,8.31488799999999,0.686675,0.08609712,0.2111748,-30.52841,-29.80201,-22.11972
26.747766495,-29.91717,-39.66784,2.178597,0.8647375,0.08715283,0.2671541,-30.52841,-29.80201,-22.11972
26.757678509,-39.95113,-33.31838,1.626331,1.037871,0.08691159,0.3654242,-30.15441,-29.42216,-20.83792
26.767590523,-32.20887,-36.63874,1.319517,1.003549,0.2220437,0.5145306,-30.15441,-29.42216,-20.83792
26.777503014,-30.41267,-57.9589599999998,-3.221339,1.04542,0.406601,0.4745595,-30.15441,-29.42216,-20.83792
26.787415028,-69.0000800000001,-77.2986099999998,-7.33265300000001,1.128591,0.687366,0.1880459,-30.15441,-29.42216,-20.83792
26.797327042,-116.6924,-79.9199499999999,-6.90311299999998,1.187694,0.627099,0.1112328,-30.15441,-29.42216,-20.83792
26.807239532,-148.2188,-87.4927100000001,-7.394016,1.130111,0.3593849,0.04756128,-31.28826,-28.67462,-21.21986
26.817151546,-162.6504,-98.44408,-6.84175,1.052645,-0.001178193,-0.1087353,-31.28826,-28.67462,-21.21986
26.82706356,-162.7743,-106.7741,-4.448596,1.103502,-0.2114925,-0.1163687,-31.28826,-28.67462,-21.21986
26.836976051,-148.8382,-109.2207,-4.387233,1.236263,-0.4184645,-0.1439435,-31.28826,-28.67462,-21.21986
26.846888065,-128.3987,-107.9391,-7.82355600000003,1.392434,-0.6066288,-0.06021293,-31.28826,-28.67462,-21.21986
26.856800079,-109.1359,-102.6382,-5.73721700000003,1.560439,-0.7426562,-0.0487483,-33.54755,-27.61345,-21.21145
26.86671257,-83.0600100000003,-95.9392399999997,-1.319088,1.656967,-0.7754821,0.02744577,-33.54755,-27.61345,-21.21145
26.876624584,-59.3996800000003,-90.1722900000001,4.510388,1.678908,-0.7586445,0.1363509,-33.54755,-27.61345,-21.21145
26.886537552,-38.03105,-86.38592,7.148993,1.559868,-0.729517,0.1491697,-33.54755,-27.61345,-21.21145
26.896449566,-17.40568,-86.4441700000002,8.13079899999997,1.368921,-0.6454637,0.08091232,-33.54755,-27.61345,-21.21145
26.906361103,-4.956131,-88.0169800000001,8.43761400000001,1.235801,-0.5091621,0.03839678,-35.07256,-24.98461,-19.54139
26.916274071,6.62628499999997,-87.8422199999998,7.21035599999999,1.131921,-0.3281533,0.03864273,-35.07256,-24.98461,-19.54139
26.926186085,14.43048,-86.2694200000002,2.424049,1.080754,-0.2043329,0.01017102,-35.07256,-24.98461,-19.54139
26.936097622,12.5104,-88.1334799999999,0.767250500000003,1.114224,-0.1608835,-0.01289665,-35.07256,-24.98461,-19.54139
26.94601059,9.35155899999998,-89.9975400000001,1.564968,1.082716,-0.1079771,-0.01945516,-35.07256,-24.98461,-19.54139
26.955922604,11.95296,-88.0752300000003,0.828613499999998,1.057242,-0.06880806,0.02185481,-37.32346,-23.85054,-16.96339
26.965834618,12.88203,-87.1431999999999,0.2149844,1.069346,-0.0970011,0.07245182,-37.32346,-23.85054,-16.96339
26.975747108,12.44846,-85.04612,-0.2759189,1.058635,-0.09637571,0.1253725,-37.32346,-23.85054,-16.96339
26.985659122,13.62528,-80.8519799999997,-2.362258,1.019804,-0.1093999,0.1381289,-37.32346,-23.85054,-16.96339
26.995571613,15.97893,-77.4151199999999,-1.625903,0.9445567,-0.1122666,0.1402462,-37.32346,-23.85054,-16.96339
27.005483627,13.68722,-75.7840599999998,-1.687266,0.828361,-0.05461615,0.1301811,-37.9988,-23.83831,-13.94032
27.015395641,7.80310800000002,-72.1724400000002,-1.871354,0.7527417,-0.03158332,0.07869662,-37.9988,-23.83831,-13.94032
27.027786255,-0.806281,-71.7646700000001,0.03089567,0.6236932,0.04948927,0.03481515,-37.9988,-23.83831,-13.94032
27.037698269,-7.929157,-74.5025200000002,-1.196362,0.5928474,0.008106379,-0.01751251,-37.9988,-23.83831,-13.94032
27.047610283,-14.43265,-80.1529500000001,-0.1531931,0.5369228,0.0009716636,-0.04345155,-37.9988,-23.83831,-13.94032
27.057522774,-18.087,-82.54129,-1.503177,0.5736538,-0.1068313,-0.1640688,-38.7319,-24.20094,-10.98002
27.067434788,-19.44963,-82.54129,1.38088,0.5766495,-0.01798168,-0.05402854,-38.7319,-24.20094,-10.98002
27.077346802,-16.84824,-77.35686,0.460436,0.6263424,-0.03354898,-0.09012353,-38.7319,-24.20094,-10.98002
27.087259293,-9.72536099999999,-72.2306899999998,1.319517,0.6848851,0.02516564,-0.03457543,-38.7319,-24.20094,-10.98002
27.097171307,-2.478608,-62.6191199999999,0.767250500000003,0.7234377,0.1287766,0.03153996,-38.7319,-24.20094,-10.98002
27.107083321,-3.036051,-57.72595,-0.2759189,0.710837,0.1623344,0.08181651,-38.7308,-23.43946,-7.962831
27.116995811,-8.67241400000003,-58.19196,-1.012274,0.7434663,0.08293349,0.1189183,-38.7308,-23.43946,-7.962831
27.126907825,-11.45963,-56.50266,0.951339199999998,0.8387539,-0.03539824,0.1647844,-38.7308,-23.43946,-7.962831
27.136820316,-9.911175,-50.56096,4.14221,0.9268352,-0.1547396,0.1266827,-38.7308,-23.43946,-7.962831
27.14673233,-2.168918,-46.71633,-0.3986447,0.87951,-0.1594302,0.08387489,-38.7308,-23.43946,-7.962831
27.156644344,4.830081,-50.3862,1.687694,0.9843014,-0.1002482,0.02472072,-40.22025,-23.43095,-5.834974
27.166556835,6.62628499999997,-45.26003,3.405856,1.053517,0.1117194,0.1560958,-40.22025,-23.43095,-5.834974
27.176468849,0.1847278,-38.5028,-0.03046724,1.064824,0.06701355,0.1095982,-40.22025,-23.43095,-5.834974
27.186380863,-6.69039600000003,-36.75524,0.767250500000003,1.03385,-0.02613457,0.07949427,-40.22025,-23.43095,-5.834974
27.196293831,-10.71637,-36.40573,2.055871,1.015612,-0.0939936,0.03359582,-40.22025,-23.43095,-5.834974
27.206205368,-10.96412,-37.10476,1.687694,1.05576,-0.06371679,-0.0213118,-40.96555,-23.42735,-4.931656
27.216117382,-9.10597999999999,-34.42516,0.3377102,1.124405,-0.02862273,-0.05724456,-40.96555,-23.42735,-4.931656
27.22603035,-8.300786,-32.32809,0.0922585699999997,1.119427,-0.01775901,-0.1008205,-40.96555,-23.42735,-4.931656
27.235942364,-8.36272300000002,-36.11447,-0.214556,1.096125,-0.03503862,-0.1045614,-40.96555,-23.42735,-4.931656
27.245853901,-7.929157,-38.73581,-1.380451,1.133622,-0.04561778,-0.08433188,-40.96555,-23.42735,-4.931656
27.255766869,-8.98210400000001,-36.63874,-2.669072,1.155298,-0.07453243,-0.1024908,-41.70164,-23.79338,-2.806537
27.265678883,-11.33575,-35.3572,-3.405427,1.12618,-0.09771263,-0.1081379,-41.70164,-23.79338,-2.806537
27.275591374,-10.96412,-35.18244,-4.141782,1.101426,-0.09110019,-0.0824165,-41.70164,-23.79338,-2.806537
27.285503388,-11.21187,-36.17272,-4.694048,1.084187,-0.07186751,-0.07204562,-41.70164,-23.79338,-2.806537
27.295415402,-15.29979,-36.63874,-4.387233,1.069856,-0.07358717,-0.08873007,-41.70164,-23.79338,-2.806537
27.307806015,-19.13994,-37.86203,-3.712242,1.073867,-0.09348644,-0.1023442,-41.70514,-23.03713,-1.07424
27.317718029,-19.20188,-35.76496,-1.932717,1.063861,-0.1095765,-0.09563661,-41.70514,-23.03713,-1.07424
27.327630043,-19.44963,-32.5611,-0.03046724,1.040522,-0.1044359,-0.07666035,-41.70514,-23.03713,-1.07424
27.337542534,-20.87421,-29.29899,0.767250500000003,1.027502,-0.1030435,-0.05732433,-41.70514,-23.03713,-1.07424
27.347454548,-23.28979,-27.02717,0.767250500000003,1.004366,-0.08048506,-0.04591644,-41.70514,-23.03713,-1.07424
27.357367039,-25.27181,-23.93981,0.889976299999999,0.9818299,-0.05200875,-0.01670882,-41.69868,-23.4099,-0.623373
27.367279053,-26.44864,-19.1049,1.871783,0.981258,-0.08888299,-0.02031029,-41.69868,-23.4099,-0.623373
27.377191067,-28.43065,-17.06608,2.485412,0.9538426,-0.0899795,-0.07240131,-41.69868,-23.4099,-0.623373
27.387103558,-29.35972,-16.89132,3.221767,0.9790984,-0.1092618,-0.1116561,-41.69868,-23.4099,-0.623373
27.397015572,-26.32476,-16.42531,3.835396,0.9648377,-0.1065546,-0.1163078,-41.69868,-23.4099,-0.623373
27.406927586,-25.27181,-16.65832,5.492195,0.8647419,-0.1311511,-0.130911,-40.94531,-23.78443,-0.626112
27.416840077,-25.70538,-19.74567,6.044461,0.7268302,-0.1653253,-0.1250617,-40.94531,-23.78443,-0.626112
27.426752091,-20.99809,-25.33786,1.38088,0.6736456,-0.2154422,-0.1249037,-40.94531,-23.78443,-0.626112
27.436664105,-10.71637,-23.82331,-0.09183015,0.6994971,-0.1658911,-0.168507,-40.94531,-23.78443,-0.626112
27.446576595,-4.274812,-20.6777,2.178597,0.6252651,-0.1209302,-0.2020924,-40.94531,-23.78443,-0.626112
27.456488609,1.857055,-21.08547,-1.319088,0.6336607,0.00944359,-0.2320316,-42.43774,-23.77932,0.6665649
27.4664011,6.750161,-21.66799,-6.71902399999997,0.693032,0.09272251,-0.2099386,-42.43774,-23.77932,0.6665649
27.476313114,9.16574500000002,-18.40588,-11.93487,0.7441956,0.07620883,-0.1514623,-42.43774,-23.77932,0.6665649
27.486225128,3.28163,-13.68747,-10.58489,0.7701126,-0.006383599,-0.1527324,-42.43774,-23.77932,0.6665649
27.496138096,7.05985200000002,-8.211782,-7.33265300000001,0.8739261,-0.1015821,-0.1543267,-42.43774,-23.77932,0.6665649
27.506049633,20.06684,-0.5225234,-1.871354,0.8350038,-0.1070883,-0.09398367,-42.06374,-23.39947,1.948359
27.515961647,23.4115,-1.279799,1.012702,0.7151716,-0.1283592,-0.07429097,-42.06374,-23.39947,1.948359
27.525874615,13.0059,-10.2506,1.749057,0.7151064,-0.186442,-0.1486217,-42.06374,-23.39947,1.948359
27.535786629,4.89202,-16.83307,0.889976299999999,0.8644088,-0.2027835,-0.1995676,-42.06374,-23.39947,1.948359
27.545698166,9.04186800000002,-10.36711,-0.5213705,1.081565,-0.2129661,-0.2544612,-42.06374,-23.39947,1.948359
27.555611133,19.88103,0.46776,0.03089567,1.128949,-0.1616731,-0.2944108,-42.8155,-23.0231,2.400808
27.565523147,33.5074,10.42885,0.2763473,1.013695,-0.06987387,-0.1726938,-42.8155,-23.0231,2.400808
27.575435161,41.8071,15.26376,-1.319088,0.8439014,0.04817651,-0.09351173,-42.8155,-23.0231,2.400808
27.587825775,30.22468,6.17645200000001,-2.239532,0.6675201,0.17212,-0.07761038,-42.8155,-23.0231,2.400808
27.597737312,6.62628499999997,-10.77487,-1.135,0.5769295,0.1489669,-0.1172601,-42.8012,-23.76707,3.688009
27.60765028,-15.91917,-27.9592,-2.484983,0.6443223,-0.05582849,-0.2224817,-42.8012,-23.76707,3.688009
27.617562294,-27.81127,-37.45427,-2.607709,0.894016,-0.3393492,-0.3332749,-42.8012,-23.76707,3.688009
27.627474308,-25.33375,-43.62897,1.074065,1.082173,-0.6001892,-0.410217,-42.8012,-23.76707,3.688009
27.637386799,-9.84923700000002,-41.2989,5.062654,1.188284,-0.7205598,-0.5032303,-42.8012,-23.76707,3.688009
27.647298813,20.19072,-38.96882,6.96490399999999,1.08266,-0.6697005,-0.5393669,-43.54674,-23.76373,4.527082
27.657210827,45.52338,-40.83288,5.369469,1.023524,-0.5333624,-0.4721301,-43.54674,-23.76373,4.527082
27.667123318,63.5473500000001,-45.37653,5.369469,1.055221,-0.3444855,-0.4025023,-43.54674,-23.76373,4.527082
27.677035332,75.6252699999999,-49.27942,3.160404,1.11,-0.1457513,-0.2638795,-43.54674,-23.76373,4.527082
27.686947822,78.72218,-48.05612,-0.214556,1.232854,0.03779317,-0.1327097,-43.54674,-23.76373,4.527082
27.696859837,73.2096900000002,-45.14352,-4.448596,1.263294,0.1197008,-0.02489014,-43.54079,-23.37684,7.545425
27.706771851,61.8750300000002,-46.71633,-5.553129,1.214896,0.1888556,0.0571649,-43.54079,-23.37684,7.545425
27.716684341,45.64726,-51.37648,-3.528153,1.162257,0.2794931,0.08466425,-43.54079,-23.37684,7.545425
27.726596355,22.29661,-53.47356,-0.889547900000002,1.105414,0.2616451,0.05194012,-43.54079,-23.37684,7.545425
27.736508369,-3.283803,-56.50266,0.5217989,1.130716,0.1484885,-0.04507937,-43.54079,-23.37684,7.545425
27.74642086,-22.9801,-58.9492399999999,0.951339199999998,1.24899,-0.08223544,-0.1302975,-43.9091,-22.98999,10.56571
27.756332874,-25.14794,-59.53176,1.933146,1.336934,-0.2148191,-0.1972956,-43.9091,-22.98999,10.56571
27.766244888,-20.50258,-54.46384,1.012702,1.366268,-0.1844577,-0.2098487,-43.9091,-22.98999,10.56571
27.776157379,-14.9901,-48.58039,0.5217989,1.312076,-0.02291249,-0.1554539,-43.9091,-22.98999,10.56571
27.786069393,-9.29179500000003,-47.59011,-8.06900800000002,1.353597,0.1446555,-0.01115429,-43.9091,-22.98999,10.56571
27.795982361,-17.77731,-40.30861,-3.46679,1.299902,0.1891557,0.09767435,-44.26932,-23.35416,13.1386
27.805894375,-25.5815,-37.45427,-12.24169,1.337086,0.1540411,0.2493067,-44.26932,-23.35416,13.1386
27.815805912,-34.93415,-24.87184,-7.27128999999997,1.330967,0.02020471,0.3541065,-44.26932,-23.35416,13.1386
27.82571888,-38.89818,-8.561295,-9.66444299999998,1.335446,-0.08407252,0.4301957,-44.26932,-23.35416,13.1386
27.835630894,-36.23484,11.65214,-12.18032,1.332106,-0.1679658,0.4354296,-44.26932,-23.35416,13.1386
27.845542908,-34.06701,29.47724,-14.63484,1.373196,-0.140365,0.5168604,-44.26311,-23.3471,14.87321
27.855455399,-31.52756,49.86543,-15.67801,1.401902,-0.04178968,0.5705491,-44.26311,-23.3471,14.87321
27.865367413,-28.74034,73.6322299999998,-19.91205,1.381782,0.0622857,0.3995319,-44.26311,-23.3471,14.87321
27.877758026,-25.33375,97.63203,-18.31661,1.350263,0.1785572,-0.01041745,-44.26311,-23.3471,14.87321
27.88767004,-35.30577,96.4087400000001,-18.93024,1.383987,0.2016326,-0.2232857,-44.26311,-23.3471,14.87321
27.897582054,-52.95812,93.0301299999999,-14.08257,1.322655,0.2702561,-0.306289,-45.01597,-23.73221,12.30847
27.907494545,-67.82326,96.0009800000002,-15.00302,1.355756,0.1593669,-0.5459725,-45.01597,-23.73221,12.30847
27.917406559,-72.8402399999998,94.8941900000001,-17.70299,1.4546,-0.0310563,-0.6667543,-45.01597,-23.73221,12.30847
27.927318573,-70.3627199999997,89.1854900000001,-15.98482,1.54852,-0.2259492,-0.7961633,-45.01597,-23.73221,12.30847
27.937231064,-60.8242499999999,86.5641599999997,-11.68942,1.60209,-0.3543996,-0.8248834,-45.01597,-23.73221,12.30847
27.947143078,-35.80128,92.8553700000002,-9.72580600000002,1.598543,-0.4686354,-0.7799966,-46.89755,-24.5043,6.731222
27.957055569,-3.159927,99.67085,-9.05081500000002,1.577894,-0.430406,-0.6508686,-46.89755,-24.5043,6.731222
27.966967583,9.90900100000002,99.7291000000002,-8.80536299999997,1.51465,-0.272019,-0.529189,-46.89755,-24.5043,6.731222
27.976879597,23.10181,102.6417,-9.41899200000002,1.451903,-0.08825626,-0.3770949,-46.89755,-24.5043,6.731222
27.986792088,33.63128,112.428,-16.72118,1.399177,0.04159948,-0.3598969,-46.89755,-24.5043,6.731222
27.996704102,38.77214,121.9231,-24.63699,1.368811,0.1526442,-0.3776025,-48.02924,-25.27476,1.535555
28.006616116,34.43647,122.6804,-30.15965,1.441775,0.2550588,-0.4380949,-48.02924,-25.27476,1.535555
28.016528606,25.45545,120.059,-28.25741,1.554351,0.3033473,-0.4661834,-48.02924,-25.27476,1.535555
28.02644062,19.0139,120.059,-22.61202,1.497172,0.2324112,-0.4507621,-48.02924,-25.27476,1.535555
28.036352634,12.20071,116.0979,-15.24847,1.36215,0.1431376,-0.4184177,-48.02924,-25.27476,1.535555
28.046265125,8.11279800000001,110.9717,-9.97125800000001,1.23228,0.0616187,-0.3990335,-48.42188,-25.2957,-3.602069
28.056177139,4.334577,102.6417,-5.859943,1.143373,0.03055217,-0.3792119,-48.42188,-25.2957,-3.602069
28.066090107,2.414498,92.5641100000001,-4.9395,1.07511,0.01028227,-0.3839974,-48.42188,-25.2957,-3.602069
28.076001644,2.104807,84.9913600000001,-3.773605,1.072152,0.001691944,-0.444047,-48.42188,-25.2957,-3.602069
28.085913658,0.1847278,80.9719699999998,-3.282701,1.039299,-0.01974191,-0.4779772,-48.42188,-25.2957,-3.602069
28.095826626,0.3086039,76.8360799999997,-1.503177,0.945179,-0.02372077,-0.457927,-48.44832,-24.94568,-9.642218
28.10573864,2.290622,77.1273399999998,-0.03046724,0.8355249,-0.0871008,-0.4486923,-48.44832,-24.94568,-9.642218
28.115650177,6.19271900000002,74.5060000000003,-0.09183015,0.7397023,-0.1429192,-0.4169676,-48.44832,-24.94568,-9.642218
28.125563145,14.67823,71.1856400000002,-0.1531931,0.6675882,-0.1873483,-0.39643,-48.44832,-24.94568,-9.642218
28.135475159,22.54436,67.45751,-0.03046724,0.6161344,-0.1897528,-0.3623591,-48.44832,-24.94568,-9.642218
28.14538765,28.61429,68.1565400000002,0.767250500000003,0.5745979,-0.1627036,-0.3757194,-48.08438,-25.3375,-13.88316
28.157777786,34.25066,61.1663000000001,-1.503177,0.5328351,-0.1499097,-0.3325138,-48.08438,-25.3375,-13.88316
28.167689323,38.15276,57.4964299999998,-1.196362,0.4850573,-0.1209289,-0.3323591,-48.08438,-25.3375,-13.88316
28.177602291,40.07283,50.91396,-1.56454,0.4474814,-0.1096545,-0.3117698,-48.08438,-25.3375,-13.88316
28.187514305,40.75415,44.91401,-0.2759189,0.4144928,-0.086281,-0.3065074,-48.08438,-25.3375,-13.88316
28.197426319,40.87803,38.79755,0.583161800000002,0.3853114,-0.0777866,-0.2812127,-47.35314,-24.59688,-16.00943
28.20733881,41.93098,33.96264,-0.2759189,0.3828158,-0.06320948,-0.2690886,-47.35314,-24.59688,-16.00943
28.217250824,42.73617,29.94325,-1.196362,0.3674392,-0.02790339,-0.2490247,-47.35314,-24.59688,-16.00943
28.227163315,41.74516,27.61317,0.3377102,0.3445942,0.02772897,-0.2181928,-47.35314,-24.59688,-16.00943
28.237075329,43.41749,24.93358,-3.712242,0.3853095,0.04293984,-0.1877379,-47.35314,-24.59688,-16.00943
28.246987343,45.46144,23.41903,-6.16675799999997,0.4194404,0.07356222,-0.1614408,-46.61892,-23.85286,-17.30052
28.256899834,46.51439,22.13749,-8.13037100000001,0.4352427,0.1021319,-0.1129007,-46.61892,-23.85286,-17.30052
28.266811848,43.16973,22.07924,-10.03262,0.4707658,0.1232259,-0.05739031,-46.61892,-23.85286,-17.30052
28.276723862,36.41849,23.18603,-9.23490300000001,0.5404733,0.1135069,-0.04225451,-46.61892,-23.85286,-17.30052
28.286636353,33.69321,24.23456,-8.49854900000003,0.6078076,0.1345262,0.0158421,-46.61892,-23.85286,-17.30052
28.296548367,30.10081,26.15688,-6.90311299999998,0.6744922,0.1310653,0.02960707,-46.24302,-24.23108,-18.20074
28.306460857,25.76514,24.99184,-2.116806,0.7617869,0.1408226,0.01830128,-46.24302,-24.23108,-18.20074
28.316372871,26.13677,27.72968,-0.3372818,0.8199932,0.1276636,0.0522467,-46.24302,-24.23108,-18.20074
28.326284885,28.42848,30.11801,2.608138,0.8820562,0.1435449,0.0671436,-46.24302,-24.23108,-18.20074
28.336197853,30.22468,36.23447,4.14221,0.8786415,0.142779,0.1147057,-46.24302,-24.23108,-18.20074
28.34610939,32.08282,40.77812,5.614921,0.8887184,0.1425685,0.1434207,-46.60088,-25.73289,-19.02936
28.356021404,30.47243,43.57421,5.86037199999999,0.8818429,0.1234516,0.21346,-46.60088,-25.73289,-19.02936
28.365934372,23.78312,43.34121,7.88534800000001,0.9133738,0.07445921,0.2267666,-46.60088,-25.73289,-19.02936
28.375846386,12.44846,41.94316,13.34665,0.9336281,0.06189552,0.2797931,-46.60088,-25.73289,-19.02936
28.385757923,-1.673414,37.69077,17.58069,0.9469059,0.01454371,0.2793549,-46.60088,-25.73289,-19.02936
28.395670891,-16.47661,32.21508,23.8397,0.9801779,0.04180115,0.31332,-45.85049,-26.11082,-19.86728
28.405582905,-29.17391,26.50639,23.53289,0.9865988,-0.02345159,0.2432029,-45.85049,-26.11082,-19.86728
28.415495396,-34.74833,26.44814,24.20788,0.9847608,-0.1738894,0.2215709,-45.85049,-26.11082,-19.86728
28.42540741,-32.76632,30.40927,27.76693,0.969065,-0.330191,0.224516,-45.85049,-26.11082,-19.86728
28.43779707,-24.59049,28.60346,34.94639,0.8862021,-0.4764535,0.1743715,-46.23903,-25.74698,-22.50051
28.447710037,-17.65343,22.31225,35.86683,0.9284077,-0.4714561,0.1951414,-46.23903,-25.74698,-22.50051
28.457622051,-11.21187,14.38998,30.40553,1.035966,-0.4315794,0.2400274,-46.23903,-25.74698,-22.50051
28.467534542,1.733179,14.04047,23.10335,1.186275,-0.3356981,0.3233038,-46.23903,-25.74698,-22.50051
28.477446556,20.19072,22.89477,13.65346,1.361367,-0.2627426,0.5075116,-46.23903,-25.74698,-22.50051
28.48735857,50.1068,49.74892,5.553557,1.486741,-0.1744813,0.6773963,-47.00993,-24.25206,-23.33642
28.497271061,91.35754,82.1952599999998,3.774033,1.403034,-0.05387463,0.7620413,-47.00993,-24.25206,-23.33642
28.507183075,128.8301,103.632,4.449025,1.149214,0.04534349,0.6839029,-47.00993,-24.25206,-23.33642
28.517095089,142.5184,97.63203,7.76262199999999,0.8365197,0.06982492,0.5467517,-47.00993,-24.25206,-23.33642
28.52700758,136.5104,74.9720200000001,11.4444,0.6067374,0.06646574,0.4513822,-47.00993,-24.25206,-23.33642
28.536919594,109.7531,47.30234,13.5921,0.509981,0.0943035,0.4423792,-46.64672,-23.88449,-25.07412
28.546832085,88.63226,29.36073,12.61029,0.4750255,0.1078906,0.4351104,-46.64672,-23.88449,-25.07412
28.556744099,74.01488,20.21518,8.49897699999999,0.5168955,0.1141768,0.4246818,-46.64672,-23.88449,-25.07412
28.566656113,62.9279700000002,17.53559,5.553557,0.5749172,0.1389617,0.3897389,-46.64672,-23.88449,-25.07412
28.576568603,50.23067,18.64237,5.062654,0.6541899,0.1977771,0.3212152,-46.64672,-23.88449,-25.07412
28.586480617,38.33857,17.94335,3.099041,0.7901226,0.2836132,0.2782759,-46.24959,-25.759,-25.45576
28.596392631,24.52638,15.78803,3.405856,0.9311462,0.3901032,0.2791216,-46.24959,-25.759,-25.45576
28.606305122,9.35155899999998,18.99188,7.148993,1.007997,0.4384255,0.3435542,-46.24959,-25.759,-25.45576
28.616217136,-6.814272,27.08891,15.7398,0.9918026,0.3596739,0.43633,-46.24959,-25.759,-25.45576
28.626130104,-17.71537,30.58403,23.41016,1.021783,0.322575,0.5030277,-46.24959,-25.759,-25.45576
28.636042118,-22.9801,29.59374,27.82829,0.9433093,0.1992975,0.5739956,-46.23504,-26.88279,-25.4523
28.645953655,-21.55553,29.41899,33.22823,0.8100128,0.08701058,0.652266,-46.23504,-26.88279,-25.4523
28.655866623,-13.56552,29.59374,37.83044,0.7060906,-0.03538211,0.6744989,-46.23504,-26.88279,-25.4523
28.665778637,1.175737,24.17631,41.3895,0.6583828,-0.202445,0.6426169,-46.23504,-26.88279,-25.4523
28.675690651,21.86304,11.53563,42.24857,0.63599,-0.3441297,0.5818603,-46.23504,-26.88279,-25.4523
28.685603142,46.70021,-5.124428,40.59178,0.6916996,-0.5173377,0.5187309,-46.62681,-26.14252,-27.63698
28.695515156,73.3335599999998,-17.06608,36.97137,0.7703897,-0.631482,0.4769095,-46.62681,-26.14252,-27.63698
28.705427647,99.7191800000001,-15.49328,30.83507,0.9034851,-0.5485681,0.3446676,-46.62681,-26.14252,-27.63698
28.717817783,102.6922,-10.54186,15.61707,1.256467,-0.1878699,0.3318022,-46.62681,-26.14252,-27.63698
28.727729797,80.4564400000002,20.68119,8.31488799999999,1.687396,0.03885561,0.9439299,-46.62681,-26.14252,-27.63698
28.737642288,80.0228699999997,90.4087899999998,7.21035599999999,1.926726,0.1590593,1.296394,-48.15133,-23.89324,-27.18641
28.747554302,101.2676,161.5344,5.246743,1.849888,0.3768463,1.592412,-48.15133,-23.89324,-27.18641
28.757466793,143.6952,215.1845,-4.325871,1.594271,0.7790406,1.789039,-48.15133,-23.89324,-27.18641
28.767378807,162.4005,169.1072,-37.21639,0.9121927,1.116276,1.235808,-48.15133,-23.89324,-27.18641
28.777290821,105.9749,37.22475,-31.87782,0.2861935,1.412407,0.3812063,-48.15133,-23.89324,-27.18641
28.787203312,24.7122,-42.28918,-18.62343,0.2119209,1.291715,-0.08850559,-47.75579,-26.14967,-29.36575
28.797115326,-60.3287500000001,-44.561,-11.13715,0.2385491,0.8912039,-0.3449436,-47.75579,-26.14967,-29.36575
28.80702734,-121.7094,-32.85236,-0.828185100000001,0.2193384,0.4162924,-0.5332709,-47.75579,-26.14967,-29.36575
28.816939831,-156.5805,-17.35734,13.65346,0.4906573,0.06265082,-0.2865331,-47.75579,-26.14967,-29.36575
28.826851845,-174.2948,18.58412,28.68737,0.8530892,-0.1644082,0.02886787,-47.75579,-26.14967,-29.36575
28.836764336,-149.2718,16.72006,43.84401,0.6647776,-0.5355254,0.1611409,-45.10962,-28.78025,-31.49137
28.84667635,-98.6064699999998,-42.28918,29.60782,1.008935,-1.345062,0.2058625,-45.10962,-28.78025,-31.49137
28.856588364,-71.8492300000003,-67.2792700000003,9.84896099999999,1.273047,-1.141744,0.1639609,-45.10962,-28.78025,-31.49137
28.866501331,-52.7723,-50.3862,4.387662,1.538419,-0.8165994,-0.1369062,-45.10962,-28.78025,-31.49137
28.876412868,-7.74334299999998,-28.59997,7.946711,1.402816,-0.4071855,0.04137282,-45.10962,-28.78025,-31.49137
28.886324882,-4.460626,-42.69694,19.85111,1.114629,-0.1060389,0.090699,-45.15947,-25.41595,-33.23636
28.89623785,-26.32476,-58.3084700000001,33.84186,0.99584,-0.02752931,-0.004671346,-45.15947,-25.41595,-33.23636
28.906149864,-36.85423,-75.14329,45.43945,0.9599743,-0.1438972,0.08083343,-45.15947,-25.41595,-33.23636
28.916062355,-35.36771,-92.2111100000001,51.08484,1.004601,-0.320336,-0.01774669,-45.15947,-25.41595,-33.23636
28.925974369,-27.25383,-102.4635,48.63032,1.165295,-0.4037782,-0.1331061,-45.15947,-25.41595,-33.23636
28.935886383,-11.02606,-95.8809900000001,42.80084,1.322027,-0.3099829,-0.09359739,-47.05687,-23.16513,-32.39837
28.945798874,11.45745,-92.5023700000002,29.91463,1.344916,-0.128297,-0.08059473,-47.05687,-23.16513,-32.39837
28.955710888,18.14676,-96.114,22.8579,1.333191,0.098852,-0.09961984,-47.05687,-23.16513,-32.39837
28.965622902,10.83807,-97.8615599999999,23.28744,1.316129,0.2710904,-0.03589401,-47.05687,-23.16513,-32.39837
28.975535393,0.927984400000002,-96.9295199999998,19.66702,1.283221,0.3588872,-0.0426873,-47.05687,-23.16513,-32.39837
28.985447407,-14.06102,-99.66737,13.65346,1.303012,0.3421802,-0.03962053,-49.69522,-20.52566,-28.08843
28.995359898,-29.91717,-101.1819,7.946711,1.348363,0.2885481,-0.01927027,-49.69522,-20.52566,-28.08843
29.007750034,-41.74733,-103.745,0.828613499999998,1.343918,0.1248248,-0.07217699,-49.69522,-20.52566,-28.08843
29.017662048,-49.61346,-101.6479,-6.16675799999997,1.42201,-0.1174007,0.05897108,-49.69522,-20.52566,-28.08843
29.027574539,-46.70238,-104.9683,-10.83034,1.549632,-0.2509137,-0.002158124,-49.69522,-20.52566,-28.08843
29.037486553,-28.61647,-98.5023300000002,-13.65303,1.607991,-0.284721,0.070061,-53.0627,-19.38462,-23.76999
29.047399044,-11.95513,-95.6479800000002,-18.99161,1.543818,-0.2782676,0.06637605,-53.0627,-19.38462,-23.76999
29.057311058,-4.522564,-94.8906999999998,-20.64841,1.446159,-0.2960084,0.05899834,-53.0627,-19.38462,-23.76999
29.067223072,0.927984400000002,-92.5606199999998,-21.8143,1.286658,-0.2402559,0.06756707,-53.0627,-19.38462,-23.76999
29.077135563,3.901011,-89.7062800000001,-22.55066,1.174082,-0.2097776,0.04480334,-53.0627,-19.38462,-23.76999
29.087047577,5.325586,-86.5606800000003,-23.28701,1.130507,-0.1742548,0.0809747,-54.92184,-18.99083,-19.00731
29.096959591,3.405506,-85.4538900000002,-25.31199,1.095897,-0.1656141,0.05398332,-54.92184,-18.99083,-19.00731
29.106872082,3.839073,-85.6286400000002,-23.77791,1.095652,-0.1803669,0.1081452,-54.92184,-18.99083,-19.00731
29.116784096,4.334577,-82.0752700000002,-21.56885,1.037806,-0.2136013,0.1026968,-54.92184,-18.99083,-19.00731
29.126697063,3.219692,-82.1335199999998,-18.31661,0.9919853,-0.2355667,0.09097032,-54.92184,-18.99083,-19.00731
29.136608601,3.839073,-81.4927500000001,-15.8621,0.9084055,-0.218548,0.1144241,-55.64687,-19.7244,-15.14643
29.146520615,4.458453,-78.0558900000002,-14.94165,0.8342757,-0.2066957,0.1473592,-55.64687,-19.7244,-15.14643
29.156433582,1.733179,-74.0364999999999,-14.51211,0.7322215,-0.1715662,0.1547792,-55.64687,-19.7244,-15.14643
29.166345596,-2.850237,-73.7452399999998,-15.55528,0.6039748,-0.1556818,0.1603924,-55.64687,-19.7244,-15.14643
29.176257134,-14.43265,-74.44427,-11.50533,0.5409925,-0.1586224,0.1187014,-55.64687,-19.7244,-15.14643
29.186170101,-18.76832,-70.8326400000002,-10.09398,0.523721,-0.1403823,0.1247445,-55.60746,-21.58012,-10.90052
29.196082115,-20.25483,-64.8327000000001,-8.68263700000001,0.5101165,-0.1173424,0.1125397,-55.60746,-21.58012,-10.90052
29.205994606,-18.70638,-58.3084700000001,-6.65766099999999,0.5016613,-0.1267892,0.08758678,-55.60746,-21.58012,-10.90052
29.21590662,-7.43365200000003,-52.65803,-6.84175,0.5263699,-0.06074201,0.1425363,-55.60746,-21.58012,-10.90052
29.225818634,-9.29179500000003,-48.6969,-8.98945100000001,0.4918993,-0.03764311,0.09835427,-55.60746,-21.58012,-10.90052
29.235731125,8.05085899999999,-42.63869,-3.46679,0.5300856,-0.1827553,-0.1147154,-56.72429,-21.19333,-7.876334
29.245643139,-8.300786,-32.85236,3.160404,0.4188846,0.04110441,0.03233199,-56.72429,-21.19333,-7.876334
29.25555563,-12.45063,-32.32809,3.099041,0.4102158,0.00910746,-0.03982474,-56.72429,-21.19333,-7.876334
29.265467644,-20.44064,-41.70666,3.896759,0.4052996,-0.04412957,-0.00940381,-56.72429,-21.19333,-7.876334
29.275379658,-23.10398,-50.96872,3.467218,0.4192634,-0.0940689,-0.1366274,-56.72429,-21.19333,-7.876334
29.287770271,-22.42266,-59.2987500000001,2.792227,0.4838353,-0.08325884,-0.2643945,-55.95689,-21.932,-5.308134
29.297682285,-16.29079,-61.6870799999998,-0.03046724,0.6038575,-0.06140114,-0.2648787,-55.95689,-21.932,-5.308134
29.307594776,-7.24783800000001,-61.5123299999998,-1.257725,0.6609985,-0.06218324,-0.2726148,-55.95689,-21.932,-5.308134
29.31750679,-1.79729,-60.6967999999998,-2.546346,0.6805195,0.01194025,-0.2372499,-55.95689,-21.932,-5.308134
29.327418804,0.1227897,-60.2307900000003,-5.614491,0.7700437,-0.01959021,-0.174907,-57.08017,-21.17244,-2.734818
29.337331295,4.024887,-57.6676999999998,-5.675855,0.8961763,-0.002410741,-0.1572329,-57.08017,-21.17244,-2.734818
29.347243309,5.077834,-58.3667199999997,-4.9395,0.9732468,0.01114315,-0.159776,-57.08017,-21.17244,-2.734818
29.357155323,1.918993,-61.2793199999999,-3.773605,1.084071,-0.06778622,-0.1262752,-57.08017,-21.17244,-2.734818
29.367067814,0.1227897,-62.7938699999999,-0.214556,1.137456,-0.1734055,-0.1461987,-57.08017,-21.17244,-2.734818
29.376979828,-1.611476,-67.0462599999998,4.019485,1.047195,-0.1927328,-0.1968697,-57.06266,-21.91274,-0.548192
29.386892796,-6.13295399999998,-70.8326400000002,6.84217800000002,0.932227,-0.09811538,-0.1870134,-57.06266,-21.91274,-0.548192
29.39680481,-5.88520100000001,-65.5899700000003,8.43761400000001,0.9405111,-0.04875761,-0.1320232,-57.06266,-21.91274,-0.548192
29.406716347,2.166745,-54.52209,5.430832,1.031331,0.04572573,-0.08181703,-57.06266,-21.91274,-0.548192
29.416629315,11.64327,-44.85226,1.871783,1.067701,0.08481261,-0.01803194,-57.06266,-21.91274,-0.548192
29.426541329,12.57234,-37.10476,3.28313,0.9492513,0.03254484,0.00480258,-57.42637,-21.52066,3.756989
29.436453819,6.19271900000002,-32.91061,4.510388,0.8508975,0.01006118,0.01948698,-57.42637,-21.52066,3.756989
29.446365833,-3.903184,-32.26984,4.019485,0.8302689,-0.07341036,-0.03945763,-57.42637,-21.52066,3.756989
29.456277847,-15.05203,-35.00768,3.589944,0.8880147,-0.1936384,-0.1757171,-57.42637,-21.52066,3.756989
29.466190338,-18.70638,-39.37658,3.160404,1.094008,-0.2846462,-0.2694585,-57.42637,-21.52066,3.756989
29.476102352,-11.33575,-40.77463,4.449025,1.315259,-0.3805293,-0.3115164,-58.54455,-21.51552,5.047722
29.486014366,3.467444,-40.77463,10.15578,1.467675,-0.4959957,-0.3180167,-58.54455,-21.51552,5.047722
29.495926857,20.25266,-37.27951,15.67844,1.44418,-0.4726485,-0.3406915,-58.54455,-21.51552,5.047722
29.505838871,34.68422,-32.32809,12.48757,1.397239,-0.1861942,-0.3388292,-58.54455,-21.51552,5.047722
29.515751362,45.64726,-18.40588,13.71482,1.272697,0.11059,-0.2151805,-58.54455,-21.51552,5.047722
29.525663376,52.27463,-14.50299,8.06943700000002,0.9806077,0.4521806,-0.1175329,-57.77715,-22.2542,7.615921
29.53557539,40.13477,-18.9884,1.81042,0.8755476,0.4138345,-0.06015811,-57.77715,-22.2542,7.615921
29.545487881,20.68622,-30.52228,-2.178169,0.8500989,0.2942491,-0.05927895,-57.77715,-22.2542,7.615921
29.555399895,4.582329,-33.08537,-4.755411,0.9949015,0.143681,0.00896205,-57.77715,-22.2542,7.615921
29.567790508,-1.301785,-21.49323,-4.878137,1.099457,-0.1052601,0.09036434,-57.77715,-22.2542,7.615921
29.577702522,-3.593493,-13.1632,-0.705459200000001,0.9937714,-0.248074,0.01212453,-58.52755,-21.49618,9.801825
29.587614536,-14.30878,-11.64865,3.835396,0.8778713,-0.362465,-0.170506,-58.52755,-21.49618,9.801825
29.597527027,-21.80328,-20.96896,6.22854899999998,0.8775609,-0.3955667,-0.3824734,-58.52755,-21.49618,9.801825
29.607439041,-16.72436,-29.6485,3.589944,1.000035,-0.3436967,-0.5854071,-58.52755,-21.49618,9.801825
29.617352009,-1.79729,-32.73586,5.73764600000002,1.108038,-0.2377612,-0.7057397,-58.52755,-21.49618,9.801825
29.627263546,12.69621,-34.77468,5.73764600000002,1.002774,-0.1830608,-0.7500169,-58.53587,-20.74542,10.18498
29.63717556,20.68622,-37.68727,3.28313,0.9529272,-0.1665978,-0.7278391,-58.53587,-20.74542,10.18498
29.647088528,29.79111,-41.47365,-2.055443,0.9923362,-0.0649802,-0.5805982,-58.53587,-20.74542,10.18498
29.657000542,34.12678,-39.20182,-6.71902399999997,1.031932,0.09746167,-0.3916601,-58.53587,-20.74542,10.18498
29.666912079,30.59631,-35.99797,-9.90989499999997,0.9879872,0.2388944,-0.2198553,-58.53587,-20.74542,10.18498
29.676825046,16.53637,-41.18239,-11.99623,0.9176105,0.2526731,-0.104835,-58.52806,-20.73653,12.3693
29.68673706,-0.6204669,-52.13376,-16.78254,0.9817936,0.09161771,0.004895165,-58.52806,-20.73653,12.3693
29.696649551,-16.29079,-57.5511900000003,-9.72580600000002,1.048158,-0.2470875,0.0716479,-58.52806,-20.73653,12.3693
29.706561565,-19.20188,-58.01721,-5.553129,1.182902,-0.3910944,0.1203391,-58.52806,-20.73653,12.3693
29.716473579,-13.6894,-50.79396,-2.975887,1.259881,-0.3463686,0.1453736,-58.52806,-20.73653,12.3693
29.72638607,-0.9301572,-38.91056,-4.080419,1.288489,-0.1734584,0.2288482,-58.50917,-21.47526,14.94139
29.736298084,16.59831,-18.87189,-11.68942,1.322088,0.01419137,0.2441923,-58.50917,-21.47526,14.94139
29.746210575,28.49042,4.312389,-11.87351,1.146995,0.08904024,0.2328658,-58.50917,-21.47526,14.94139
29.756122589,39.26764,21.20546,-19.11433,1.120789,0.1897704,0.1795214,-58.50917,-21.47526,14.94139
29.766034603,41.49741,35.8267,-27.15287,1.116186,0.2518008,0.1847787,-58.50917,-21.47526,14.94139
29.775947094,30.53437,36.64223,-24.26882,1.105124,0.198097,0.1398686,-58.49812,-21.8428,16.67715
29.785859108,7.05985200000002,29.47724,-22.36657,1.131414,0.1620313,0.1341034,-58.49812,-21.8428,16.67715
29.795771122,-12.45063,29.06947,-26.96878,1.19083,0.09607432,0.08125742,-58.49812,-21.8428,16.67715
29.805683613,-27.87321,33.14711,-32.18463,1.265763,-0.009018717,0.01744373,-58.49812,-21.8428,16.67715
29.815595627,-36.11097,38.27328,-29.48466,1.323822,-0.0732347,-0.07042965,-58.49812,-21.8428,16.67715
29.825508594,-34.12895,48.87514,-32.18463,1.383593,-0.140719,-0.138174,-58.49276,-22.97704,14.11083
29.835420608,-28.43065,58.37021,-31.32555,1.398116,-0.136212,-0.05184982,-58.49276,-22.97704,14.11083
29.847810268,-18.087,76.0787999999999,-35.13005,1.37026,-0.1397107,0.08859069,-58.49276,-22.97704,14.11083
29.857722759,-7.557528,89.94277,-38.81182,1.461368,-0.1714105,0.1144258,-58.49276,-22.97704,14.11083
29.867634773,3.28163,103.7485,-33.16644,1.495713,-0.2731114,0.05437116,-58.49276,-22.97704,14.11083
29.877547741,13.93497,108.9329,-23.962,1.432037,-0.260555,0.01086915,-58.86164,-24.4914,10.19847
29.887459755,16.28862,110.331,-21.38476,1.298386,-0.1357401,-0.001468045,-58.86164,-24.4914,10.19847
29.897371292,4.148763,110.3892,-20.77113,1.283933,-0.08826369,-0.06776009,-58.86164,-24.4914,10.19847
29.90728426,-10.65443,107.7096,-16.96663,1.350921,-0.1386534,-0.2223659,-58.86164,-24.4914,10.19847
29.917196274,-19.26382,103.7485,-12.85531,1.403754,-0.2309098,-0.3756793,-58.86164,-24.4914,10.19847
29.927108765,-18.45863,101.8262,-10.03262,1.451914,-0.3114085,-0.4942997,-59.59434,-27.51437,3.787129
29.937020779,-8.053034,105.1465,-8.00764499999998,1.557046,-0.3361908,-0.570822,-59.59434,-27.51437,3.787129
29.946932793,4.89202,111.4377,-7.57810399999998,1.634169,-0.295541,-0.5842287,-59.59434,-27.51437,3.787129
29.956845283,21.18173,118.661,-1.319088,1.647058,-0.1501901,-0.6352367,-59.59434,-27.51437,3.787129
29.966757298,30.78213,121.8649,-3.344064,1.564816,-0.07688314,-0.6061385,-59.59434,-27.51437,3.787129
29.976669788,43.04586,124.3114,-1.687266,1.527054,-0.09179867,-0.5866823,-59.98348,-28.29156,-3.082791
29.986581802,61.5653400000002,127.5735,4.571751,1.573494,-0.1448727,-0.5548146,-59.98348,-28.29156,-3.082791
29.996493816,74.5103799999999,129.6706,7.148993,1.672541,-0.2508,-0.5569165,-59.98348,-28.29156,-3.082791
30.006406307,80.27062,135.9618,3.651307,1.713213,-0.2492702,-0.5467189,-59.98348,-28.29156,-3.082791
30.016318321,103.1258,148.952,8.80579200000003,1.613089,-0.1182801,-0.477218,-59.98348,-28.29156,-3.082791
30.026230335,108.3286,130.2531,-5.36904,1.48315,0.08599191,-0.4160762,-59.63406,-27.93968,-8.675175
30.036142826,106.3465,120.2921,-9.97125800000001,1.4199,0.1173068,-0.3960763,-59.63406,-27.93968,-8.675175
30.04605484,101.6393,116.7969,-6.16675799999997,1.366795,0.1250316,-0.3681646,-59.63406,-27.93968,-8.675175
30.055967808,99.8430499999997,123.3212,9.97168700000001,1.316086,0.08568453,-0.4476641,-59.63406,-27.93968,-8.675175
30.065879345,95.6932000000001,110.5057,7.21035599999999,1.210235,0.05985793,-0.4050834,-59.63406,-27.93968,-8.675175
30.075791359,90.3045900000002,93.2048799999999,5.98309800000002,1.145238,-0.0370273,-0.4195325,-57.79197,-27.59265,-15.49599
30.085704327,86.46443,76.6030699999999,9.11260599999998,1.058142,-0.04888067,-0.4389726,-57.79197,-27.59265,-15.49599
30.095616341,81.26163,62.8556099999998,12.4262,1.01414,-0.08137611,-0.4286989,-57.79197,-27.59265,-15.49599
30.105528832,74.3865100000002,49.51591,17.3966,0.9706361,-0.1187389,-0.4232637,-57.79197,-27.59265,-15.49599
30.115440846,72.52837,37.45776,21.56927,0.934195,-0.1871223,-0.4329854,-57.79197,-27.59265,-15.49599
30.12535286,71.47543,27.08891,25.61923,0.8994103,-0.2227058,-0.3858453,-55.91394,-28.72518,-17.68658
30.137743473,78.3505499999998,18.52587,29.05555,0.8445138,-0.2693057,-0.3577989,-55.91394,-28.72518,-17.68658
30.147655487,82.8100899999999,9.14730199999998,32.06233,0.7787236,-0.2597741,-0.3249563,-55.91394,-28.72518,-17.68658
30.157567978,85.5353600000002,1.807555,31.26461,0.663836,-0.2165737,-0.3197647,-55.91394,-28.72518,-17.68658
30.167479992,86.5263700000002,-7.33800299999997,28.62601,0.6106699,-0.2079048,-0.2966478,-54.78956,-28.72326,-17.2427
30.177392006,86.4025,-13.51271,24.51469,0.5020004,-0.1432335,-0.279847,-54.78956,-28.72326,-17.2427
30.187304497,86.4025,-14.96901,16.72161,0.463238,-0.1062262,-0.2494721,-54.78956,-28.72326,-17.2427
30.197216511,87.3315699999997,-10.77487,8.43761400000001,0.4136118,-0.02673057,-0.2273566,-54.78956,-28.72326,-17.2427
30.207129002,89.93296,-3.260366,-0.3372818,0.3718253,0.02775398,-0.1853136,-54.78956,-28.72326,-17.2427
30.217041016,94.5783199999998,5.535681,-9.05081500000002,0.3565283,0.07041858,-0.148876,-54.41395,-28.34157,-15.5112
30.22695303,103.6213,18.81713,-15.49392,0.3310635,0.11008,-0.1061223,-54.41395,-28.34157,-15.5112
30.236865521,111.6732,29.59374,-21.01658,0.2935103,0.1591668,-0.08672187,-54.41395,-28.34157,-15.5112
30.246777535,116.0708,35.76845,-25.86425,0.2542038,0.2202812,-0.08114963,-54.41395,-28.34157,-15.5112
30.256690025,115.5753,38.56454,-29.30058,0.2570077,0.2012348,-0.0208025,-54.41395,-28.34157,-15.5112
30.266602039,112.6023,41.36064,-29.05512,0.2671015,0.2285897,-0.005828707,-54.4045,-28.71094,-14.22515
30.276514053,106.5324,41.88491,-28.62558,0.291529,0.2193774,0.02893556,-54.4045,-28.71094,-14.22515
30.286427021,97.61328,42.29267,-26.1097,0.3080181,0.2302468,0.02837532,-54.4045,-28.71094,-14.22515
30.296338558,84.3585400000002,41.7684,-22.36657,0.3379834,0.2453266,0.05940893,-54.4045,-28.71094,-14.22515
30.306250572,70.8560399999998,38.50629,-20.70977,0.3017306,0.3182475,0.09047997,-54.4045,-28.71094,-14.22515
30.31616354,53.07983,33.03061,-17.5189,0.3384089,0.2638363,0.07489337,-52.87459,-30.89073,-12.94131
30.326075554,35.98492,26.8559,-13.28485,0.3554452,0.2408441,0.08802707,-52.87459,-30.89073,-12.94131
30.335988045,22.42049,20.04042,-7.76219299999999,0.3946973,0.1987257,0.09938743,-52.87459,-30.89073,-12.94131
30.370680332,-9.16791799999997,-5.532192,16.72161,0.7194862,0.04921228,0.1251575,-52.11314,-32.01628,-13.39146
30.375636578,-11.02606,-7.74576700000002,18.68522,0.7757448,0.03383347,0.1096498,-52.11314,-32.01628,-13.39146
30.385549069,-13.00808,-10.19235,24.63742,0.8761209,-0.01629793,0.1117486,-52.11314,-32.01628,-13.39146
30.395461083,-14.1849,-10.30885,28.93283,0.9488455,-0.01350235,0.1019717,-52.11314,-32.01628,-13.39146
30.407851696,-13.00808,-7.454507,34.02594,0.9878104,-0.06674133,0.1199828,-52.11314,-32.01628,-13.39146
30.41776371,-8.176909,-0.639027300000002,35.9282,1.040053,-0.128068,0.1358967,-52.47098,-33.5181,-14.22008
30.427675724,1.113798,4.195886,36.91,1.107079,-0.2208591,0.1260158,-52.47098,-33.5181,-14.22008
30.437588215,15.35955,11.71039,34.51685,1.195281,-0.2830644,0.1665594,-52.47098,-33.5181,-14.22008
30.447500229,30.65825,27.78793,25.9874,1.280204,-0.3457257,0.2205748,-52.47098,-33.5181,-14.22008
30.45741272,45.83307,47.53535,17.70341,1.353691,-0.3652118,0.3066739,-52.47098,-33.5181,-14.22008
30.467324734,56.11479,66.8167400000002,12.67165,1.367349,-0.3338292,0.4354391,-53.61477,-32.02163,-14.66856
30.477236748,57.6013,81.1467300000001,6.10582399999999,1.284913,-0.2554969,0.499144,-53.61477,-32.02163,-14.66856
30.487149239,58.5303699999998,87.6709400000002,1.994509,1.118454,-0.1696449,0.5319855,-53.61477,-32.02163,-14.66856
30.497061253,60.8220799999999,82.0205099999997,-1.687266,0.9859667,-0.08983834,0.5327821,-53.61477,-32.02163,-14.66856
30.506973267,68.3165800000001,69.32158,-4.141782,0.9160577,-0.04510209,0.5390084,-53.61477,-32.02163,-14.66856
30.516885758,71.5993000000002,57.55468,-5.859943,0.9280498,-0.03871941,0.6191264,-54.00492,-31.27953,-16.40353
30.526797772,76.1827199999997,49.98193,-6.47357199999998,1.012941,-0.1160315,0.6528779,-54.00492,-31.27953,-16.40353
30.536710739,85.5353600000002,46.54506,-4.141782,1.084087,-0.08478027,0.6178566,-54.00492,-31.27953,-16.40353
30.546622753,93.4634299999998,45.03051,-0.3372818,1.149764,-0.009252983,0.6259152,-54.00492,-31.27953,-16.40353
30.55653429,92.7821100000002,40.71987,3.344493,1.158715,0.1535962,0.592826,-54.00492,-31.27953,-16.40353
30.566447258,84.1727199999999,36.11796,7.21035599999999,1.132704,0.3102773,0.5763445,-53.2513,-32.03389,-17.69001
30.576359272,70.6082900000002,32.38984,11.01486,1.091815,0.4593488,0.5306603,-53.2513,-32.03389,-17.69001
30.586271763,56.17673,30.17626,15.2489,1.061333,0.538386,0.5117822,-53.2513,-32.03389,-17.69001
30.596183777,41.43547,32.50634,18.01023,0.9889777,0.6162617,0.5566646,-53.2513,-32.03389,-17.69001
30.606095791,29.23367,42.40918,16.53752,1.020814,0.6169357,0.6101524,-53.2513,-32.03389,-17.69001
30.616008282,18.14676,56.33139,12.11939,1.224827,0.5807828,0.7213421,-52.47369,-34.2814,-17.68698
30.625920296,15.6073,95.0689499999998,8.00807399999998,1.58175,0.5794334,1.192909,-52.47369,-34.2814,-17.68698
30.635832786,55.92897,164.214,-1.073637,1.609247,0.3803414,1.161558,-52.47369,-34.2814,-17.68698
30.6457448,78.5983000000001,167.8257,6.22854899999998,1.103657,0.3217772,0.7135349,-52.47369,-34.2814,-17.68698
30.655656814,32.94996,73.98174,25.31241,0.5659748,0.3312128,0.5533959,-52.47369,-34.2814,-17.68698
30.665569305,-6.814272,0.46776,23.71698,0.5701728,0.3177258,0.279577,-52.49095,-33.92092,-21.15734
30.675481319,-86.7763000000003,-39.20182,26.17149,0.6114691,0.201975,-0.2631945,-52.49095,-33.92092,-21.15734
30.685394287,-107.5875,-13.51271,25.06696,0.6781986,0.2402228,-0.4344932,-52.49095,-33.92092,-21.15734
30.697783947,-79.5914800000002,6.93372799999998,23.96243,0.4973615,0.1892441,-0.1998035,-52.49095,-33.92092,-21.15734
30.707695961,-47.94114,-3.143862,17.3966,0.5358846,-0.01954212,0.1172744,-52.49095,-33.92092,-21.15734
30.717608452,-40.50857,-13.74572,12.91711,0.7573602,-0.2352909,0.1473999,-50.62399,-34.30583,-23.7357
30.727520466,-49.48959,-15.90104,12.91711,0.8675743,-0.2669721,0.2244354,-50.62399,-34.30583,-23.7357
30.737433433,-42.92416,-9.90108999999998,11.75121,0.930307,-0.1083208,0.2810906,-50.62399,-34.30583,-23.7357
30.747344971,-16.7863,-20.96896,6.65808999999999,0.9580327,0.1736205,0.1679547,-50.62399,-34.30583,-23.7357
30.757256985,-22.85623,-38.56105,4.264936,0.9306503,0.2956899,0.02497369,-50.62399,-34.30583,-23.7357
30.767169952,-50.35672,-44.67751,6.044461,0.9110508,0.2698182,0.03842703,-51.77561,-32.43817,-25.02053
30.777081966,-67.5135700000001,-51.20173,5.001291,0.9666167,0.2311698,0.1188024,-51.77561,-32.43817,-25.02053
30.786994457,-80.64443,-59.4735099999998,5.614921,1.076976,-0.0143251,0.1027019,-51.77561,-32.43817,-25.02053
30.796906471,-88.0770000000003,-70.8908899999998,9.17396900000002,1.07315,-0.2504098,0.02529944,-51.77561,-32.43817,-25.02053
30.806818485,-82.3786999999998,-69.78411,11.56712,1.112714,-0.4477184,0.02842066,-51.77561,-32.43817,-25.02053
30.816730976,-60.3906899999998,-62.2695999999999,12.54893,1.109835,-0.5084543,0.01027681,-51.7837,-31.68715,-24.57312
30.82664299,-36.91616,-49.97844,11.07622,1.115027,-0.5082356,0.04000006,-51.7837,-31.68715,-24.57312
30.836555481,-15.91917,-39.20182,8.86715399999999,1.081823,-0.3783934,0.1011919,-51.7837,-31.68715,-24.57312
30.846467495,-2.726361,-35.53195,5.98309800000002,1.016017,-0.2323017,0.1018135,-51.7837,-31.68715,-24.57312
30.856379509,1.423489,-36.34748,3.589944,0.9954933,-0.123293,0.1353803,-51.7837,-31.68715,-24.57312
30.866292,2.290622,-40.01735,1.074065,1.03383,-0.01467702,0.1386302,-53.67545,-29.87336,-23.73379
30.876204014,-3.097989,-43.04646,0.3990731,1.056896,0.05296343,0.1307049,-53.67545,-29.87336,-23.73379
30.886116505,-14.49459,-47.82312,-0.3986447,1.054237,0.06062606,0.1187766,-53.67545,-29.87336,-23.73379
30.896028519,-24.15693,-53.70656,-1.441814,1.102833,0.02157017,0.04364239,-53.67545,-29.87336,-23.73379
30.905940533,-29.60748,-54.11433,-3.282701,1.142017,-0.02594968,0.04200312,-53.67545,-29.87336,-23.73379
30.915853024,-30.10298,-55.45412,-4.755411,1.168683,-0.07450274,0.05823859,-53.67248,-29.48987,-21.55062
30.925765038,-29.17391,-57.4346899999999,-6.84175,1.214829,-0.104563,0.04080601,-53.67248,-29.48987,-21.55062
30.935678005,-25.89119,-58.0754600000002,-7.394016,1.272582,-0.1242995,0.02285472,-53.67248,-29.48987,-21.55062
30.945590019,-23.90917,-63.0268799999998,-7.20992699999999,1.301312,-0.1793614,-0.005626978,-53.67248,-29.48987,-21.55062
30.955501556,-23.22786,-69.95886,-7.148564,1.309696,-0.2484886,-0.07962925,-53.67248,-29.48987,-21.55062
30.965414524,-18.14894,-76.9491000000001,-6.90311299999998,1.339071,-0.29298,-0.1282131,-55.53433,-29.85939,-20.25485
30.977804184,-6.62845799999998,-82.6577899999998,-7.148564,1.351113,-0.343893,-0.1579533,-55.53433,-29.85939,-20.25485
30.987717152,4.953958,-88.9490099999999,-5.36904,1.399516,-0.3559627,-0.07733466,-55.53433,-29.85939,-20.25485
30.997629166,17.83707,-94.3081800000002,-4.019056,1.443978,-0.3993168,-0.0362609,-55.53433,-29.85939,-20.25485
31.007541656,29.91499,-94.8324500000002,-2.239532,1.453693,-0.4070234,0.04378432,-55.89804,-29.46731,-15.94967
31.017453671,45.58532,-93.1431399999999,0.828613499999998,1.392333,-0.3403571,0.05103798,-55.89804,-29.46731,-15.94967
31.027365685,60.8840200000001,-88.89075,-3.589516,1.322498,-0.2533919,0.06618779,-55.89804,-29.46731,-15.94967
31.037278175,74.0768200000002,-84.7548599999999,-2.669072,1.260797,-0.1739716,0.1028192,-55.89804,-29.46731,-15.94967
31.047190189,81.1377599999998,-80.9102299999999,-3.773605,1.19003,-0.09382355,0.1145711,-55.89804,-29.46731,-15.94967
31.05710268,83.1817200000001,-80.50247,-4.9395,1.159963,-0.02432678,0.1249153,-55.87019,-30.19584,-10.87203
31.067014694,83.6152799999998,-79.5704299999999,-5.000863,1.113459,0.02090901,0.07763096,-55.87019,-30.19584,-10.87203
31.076926708,79.4654300000001,-80.9102299999999,-4.387233,1.032146,0.02981251,0.02658519,-55.87019,-30.19584,-10.87203
31.086839199,80.0228699999997,-81.7840100000001,-4.325871,0.9728754,0.04730465,-0.01068263,-55.87019,-30.19584,-10.87203
31.096751213,84.2346600000002,-81.4927500000001,-6.35084600000001,0.9091719,0.1356961,-0.01574668,-55.87019,-30.19584,-10.87203
31.106663704,80.3325699999999,-77.9393800000001,-8.19173300000002,0.8251792,0.1988415,0.02146264,-56.57878,-31.22746,-3.540982
31.116575718,70.23666,-77.9976299999997,-11.32124,0.7399648,0.1530759,0.002739504,-56.57878,-31.22746,-3.540982
31.126487732,65.9629400000001,-86.1529100000001,-12.36441,0.670521,0.1673136,-0.07670984,-56.57878,-31.22746,-3.540982
31.1364007,50.97393,-92.2111100000001,-19.54387,0.5723358,0.05736997,-0.004990669,-56.57878,-31.22746,-3.540982
31.146312237,41.68322,-79.86169,-9.72580600000002,0.5224443,0.008204059,-0.0163806,-56.57878,-31.22746,-3.540982
31.156225205,38.83407,-74.9102800000001,-8.92808800000003,0.4796756,-0.04390692,-0.05186394,-56.19747,-30.07906,2.492605
31.166137219,38.33857,-74.15301,-10.03262,0.4794838,-0.05961648,-0.08893901,-56.19747,-30.07906,2.492605
31.176049233,40.5064,-73.2792299999997,-12.30305,0.5085667,-0.07523088,-0.08451041,-56.19747,-30.07906,2.492605
31.185961723,46.45245,-70.8908899999998,-9.60308100000002,0.5453225,0.02746264,-0.003979768,-56.19747,-30.07906,2.492605
31.195873737,44.59431,-64.7744400000002,-10.09398,0.5855683,0.06022965,-0.0463876,-56.19747,-30.07906,2.492605
31.205786228,40.93997,-60.5220499999998,-9.84853300000002,0.609014,0.05051531,-0.01257792,-55.42572,-30.43268,7.629436
31.215698242,32.94996,-57.25993,-5.123589,0.6271532,0.02077103,0.004822027,-55.42572,-30.43268,7.629436
31.225610256,24.77413,-56.03664,-1.809992,0.6377998,-0.06304548,-0.008799093,-55.42572,-30.43268,7.629436
31.235522747,16.47443,-57.6676999999998,4.264936,0.6079788,-0.1080459,-0.01314452,-55.42572,-30.43268,7.629436
31.245434761,15.04986,-54.17258,5.062654,0.640197,-0.09547428,-0.003755563,-55.42572,-30.43268,7.629436
31.257825375,14.43048,-49.45417,6.22854899999998,0.6428998,0.0624735,-0.03201796,-54.6543,-31.23013,11.09725
31.267737389,6.750161,-50.44445,6.78081600000001,0.6092424,0.1191575,-0.05293619,-54.6543,-31.23013,11.09725
31.277649403,-7.062024,-53.53181,8.25352600000003,0.5942707,0.0873483,-0.1672873,-54.6543,-31.23013,11.09725
31.287561894,-19.13994,-61.57058,8.98988099999998,0.7409533,0.04430416,-0.218867,-54.6543,-31.23013,11.09725
31.297473908,-19.32576,-60.87156,2.485412,0.9584453,0.1003806,-0.3064532,-54.6543,-31.23013,11.09725
31.307386398,-18.14894,-58.71623,3.221767,1.120076,0.006454776,-0.2951293,-54.64938,-30.78107,14.05116
31.317298412,-14.74234,-55.39587,6.596727,1.192258,-0.0215067,-0.2508483,-54.64938,-30.78107,14.05116
31.327210426,-10.77831,-51.78425,8.74442899999999,1.103469,-0.03982848,-0.2045342,-54.64938,-30.78107,14.05116
31.337122917,-10.53056,-51.02697,10.95349,0.9507729,-0.01010458,-0.1827573,-54.64938,-30.78107,14.05116
31.347034931,-13.25583,-49.57067,13.5921,0.8332312,0.1014884,-0.1655618,-54.64938,-30.78107,14.05116
31.356947899,-13.87521,-44.26974,10.21714,0.9071894,0.2568552,-0.1147941,-54.26247,-31.14675,16.23469
31.366859913,-9.60148500000001,-32.96886,2.792227,1.007819,0.2949004,-0.03240392,-54.26247,-31.14675,16.23469
31.376772404,-12.69839,-26.26989,-0.09183015,0.939818,0.1757512,-0.03208864,-54.26247,-31.14675,16.23469
31.386684418,-19.63545,-26.91066,1.012702,0.9417138,0.05721651,-0.08139183,-54.26247,-31.14675,16.23469
31.396596432,-28.43065,-27.72619,1.749057,1.000342,-0.1220645,-0.2007672,-54.26247,-31.14675,16.23469
31.406508923,-33.01406,-29.99801,3.589944,1.128837,-0.261962,-0.2797128,-53.882,-31.13966,17.96734
31.416420937,-26.01507,-23.99806,7.51716999999999,1.230145,-0.3325928,-0.3060885,-53.882,-31.13966,17.96734
31.426333428,-13.00808,-16.1923,18.19431,1.099466,-0.3767326,-0.3695152,-53.882,-31.13966,17.96734
31.436245442,-9.04404300000003,-23.12428,23.71698,0.9049727,-0.4125297,-0.4471811,-53.882,-31.13966,17.96734
31.446157456,-2.850237,-33.66789,24.39197,0.9914827,-0.4358551,-0.4783865,-53.882,-31.13966,17.96734
31.456069946,11.89102,-43.22121,23.90107,1.143616,-0.2800269,-0.4331403,-53.86932,-31.88546,18.80483
31.46598196,22.29661,-31.45431,24.88287,1.280416,-0.1566662,-0.3476353,-53.86932,-31.88546,18.80483
31.475894451,29.72918,-18.34762,24.45333,1.19373,0.09142787,-0.2611532,-53.86932,-31.88546,18.80483
31.485806465,29.72918,-10.42536,21.13973,1.036274,0.3452918,-0.1072361,-53.86932,-31.88546,18.80483
31.495718479,26.88003,-5.415688,12.73302,0.994517,0.4619912,0.0581417,-53.86932,-31.88546,18.80483
31.50563097,25.39351,-0.2895156,5.553557,1.031909,0.3808917,0.2238705,-54.24868,-31.13107,20.08937
31.515542984,22.42049,8.73953799999999,4.080848,0.9878543,0.3454416,0.2254823,-54.24868,-31.13107,20.08937
31.525455952,10.96195,9.32205800000003,0.0922585699999997,0.9984453,0.3040265,0.1607672,-54.24868,-31.13107,20.08937
31.535367966,-6.25683000000001,17.47733,-5.000863,1.114241,0.2559241,0.1430504,-54.24868,-31.13107,20.08937
31.547758579,-21.74134,19.51615,-1.871354,1.036091,0.1059679,0.02369494,-54.24868,-31.13107,20.08937
31.557670116,-36.4826,9.61331700000002,3.099041,0.877951,0.01949266,-0.09689868,-55.38198,-30.06614,20.99136
31.56758213,-54.8782,-1.978823,2.301323,0.8063459,-0.1115098,-0.2233908,-55.38198,-30.06614,20.99136
31.577495098,-72.2208599999999,-14.15348,0.889976299999999,0.8811685,-0.2920395,-0.5292256,-55.38198,-30.06614,20.99136
31.587407112,-68.7523299999998,-18.34762,1.442243,1.082924,-0.465696,-0.6561292,-55.38198,-30.06614,20.99136
31.597319603,-44.72036,-18.34762,2.792227,1.145119,-0.4636529,-0.6922225,-55.38198,-30.06614,20.99136
31.607231617,-20.93615,-18.63888,0.705887599999999,1.039293,-0.4531293,-0.6522809,-55.39303,-29.6986,19.2556
31.617143631,-3.221865,-23.00778,-1.135,1.02774,-0.4675675,-0.6037742,-55.39303,-29.6986,19.2556
31.627056122,13.99691,-18.28937,-2.300895,1.05931,-0.4021536,-0.5003964,-55.39303,-29.6986,19.2556
31.636968136,23.34956,-16.65832,-3.89633,1.021639,-0.3045868,-0.3880013,-55.39303,-29.6986,19.2556
31.646880627,24.77413,-20.21169,-5.430403,0.9725953,-0.1689389,-0.2910926,-55.39303,-29.6986,19.2556
31.656792641,21.73917,-25.27961,-5.491766,0.9650753,-0.02279454,-0.2333907,-55.74224,-31.50735,19.71283
31.666704655,16.10281,-32.61935,-4.203145,0.9550362,0.01767509,-0.2589569,-55.74224,-31.50735,19.71283
31.676617145,10.90001,-40.01735,-4.9395,1.013286,-0.06081823,-0.2019193,-55.74224,-31.50735,19.71283
31.686529159,9.84706299999998,-43.92023,-6.47357199999998,1.122733,-0.1638612,-0.1402371,-55.74224,-31.50735,19.71283
31.69644165,9.47543500000001,-42.52219,-5.307677,1.16192,-0.2594149,-0.05480762,-55.74224,-31.50735,19.71283
31.706353664,10.46644,-39.55134,-5.614491,1.20352,-0.185952,-0.01292917,-55.36339,-31.50209,20.99578
31.716265678,11.2097,-32.4446,-6.35084600000001,1.282427,-0.07073265,0.0442475,-55.36339,-31.50209,20.99578
31.726178646,13.25366,-23.29904,-8.43718500000001,1.339127,0.02947091,0.06407717,-55.36339,-31.50209,20.99578
31.736090183,14.55436,-16.25055,-10.76898,1.38665,0.03255271,0.07662247,-55.36339,-31.50209,20.99578
31.746003151,12.13877,-5.415688,-12.60986,1.47595,-0.0232362,0.136405,-55.36339,-31.50209,20.99578
31.755915165,9.22768300000001,11.12787,-15.49392,1.590421,-0.00714149,0.1599417,-55.35581,-31.49346,23.11585
31.765827179,10.40451,37.39951,-22.9802,1.653128,0.1083216,0.1159564,-55.35581,-31.49346,23.11585
31.77573967,16.35056,55.86538,-29.17785,1.643734,0.2830073,0.07207216,-55.35581,-31.49346,23.11585
31.785651684,18.02289,63.61288,-31.50964,1.672186,0.3992509,0.07402393,-55.35581,-31.49346,23.11585
31.795564175,11.51939,72.3506799999999,-37.15503,1.670139,0.4586823,0.03938724,-55.35581,-31.49346,23.11585
31.805476189,-3.779308,81.8457500000001,-37.27775,1.700446,0.3656565,0.07257845,-54.60704,-31.87323,21.82822
31.815388203,-20.6884,95.0689499999998,-37.76866,1.698357,0.195336,0.05081628,-54.60704,-31.87323,21.82822
31.827778816,-33.19988,102.7582,-34.94596,1.717561,-0.0550784,-0.1339699,-54.60704,-31.87323,21.82822
31.83769083,-36.04903,105.8456,-27.2756,1.613489,-0.188538,-0.2822654,-54.60704,-31.87323,21.82822
31.847603321,-31.2798,106.9523,-21.44612,1.521961,-0.3202232,-0.4926055,-54.60441,-33.39069,17.14298
31.857515335,-16.7863,104.6223,-15.55528,1.479426,-0.4073436,-0.6416416,-54.60441,-33.39069,17.14298
31.867427826,8.979931,104.331,-10.95306,1.38244,-0.4515721,-0.7097019,-54.60441,-33.39069,17.14298
31.87733984,42.73617,104.6223,-8.68263700000001,1.233596,-0.440367,-0.715453,-54.60441,-33.39069,17.14298
31.887251854,77.2976000000001,102.4669,-15.24847,1.126228,-0.3606412,-0.6971235,-54.60441,-33.39069,17.14298
31.897164345,99.6572300000001,97.5155300000002,-21.63021,1.06873,-0.2456592,-0.6382067,-54.23075,-34.91179,11.55637
31.907076359,107.0279,96.4669899999997,-25.92562,1.038684,-0.1846833,-0.5880663,-54.23075,-34.91179,11.55637
31.916989326,104.86,93.1466300000002,-25.98698,1.010204,-0.1560719,-0.5184695,-54.23075,-34.91179,11.55637
31.926900864,101.887,91.8650900000001,-26.29379,1.034253,-0.1815704,-0.4444373,-54.23075,-34.91179,11.55637
31.936812878,101.2057,94.1369100000003,-25.00517,1.036005,-0.206033,-0.3975609,-54.23075,-34.91179,11.55637
31.946725845,97.6752200000002,96.7582499999998,-24.75972,1.048757,-0.2387757,-0.3844526,-54.24155,-34.92408,8.536869
31.956637382,93.0918000000002,98.4475600000001,-23.04156,1.090727,-0.2387791,-0.3925233,-54.24155,-34.92408,8.536869
31.96655035,89.8090800000001,97.3407699999999,-21.07795,1.081065,-0.1690935,-0.3948506,-54.24155,-34.92408,8.536869
31.976462364,87.45544,95.5349599999999,-19.42115,1.03233,-0.0828011,-0.3731782,-54.24155,-34.92408,8.536869
31.986374855,83.1197700000002,87.4961900000002,-21.38476,0.9691843,-0.02046105,-0.3544131,-54.24155,-34.92408,8.536869
31.996286869,77.48341,80.9719699999998,-16.8439,0.9062716,0.00615113,-0.3070786,-53.12819,-34.9347,5.897001
32.006198883,72.4044999999998,82.54477,-7.148564,0.8922715,0.02167694,-0.271314,-53.12819,-34.9347,5.897001
32.016111374,72.0948000000001,83.4768100000001,-3.344064,0.8043118,-0.06182777,-0.2681759,-53.12819,-34.9347,5.897001
32.026023388,73.64326,69.49633,-1.625903,0.7688459,-0.1094642,-0.2062248,-53.12819,-34.9347,5.897001
32.035935879,72.0948000000001,61.92358,1.38088,0.7804316,-0.1401179,-0.1614013,-53.12819,-34.9347,5.897001
32.045847893,73.2716299999998,60.1177699999999,5.614921,0.7673404,-0.1899729,-0.1135966,-52.39882,-33.81609,4.604755
32.055759907,78.3505499999998,60.4672800000002,8.43761400000001,0.7414564,-0.2405164,-0.07432093,-52.39882,-33.81609,4.604755
32.065672398,84.97792,66.8749899999999,11.01486,0.7040716,-0.2974265,-0.01961629,-52.39882,-33.81609,4.604755
32.075584412,94.8880099999997,72.7001900000002,14.02164,0.6614795,-0.2733567,-0.04403026,-52.39882,-33.81609,4.604755
32.085497379,105.7891,71.5934099999998,8.62170300000002,0.598844,-0.3178199,-0.05287021,-52.39882,-33.81609,4.604755
32.095408916,117.929,72.64194,6.044461,0.5536616,-0.2575194,-0.09670535,-52.41796,-32.69753,3.3164
32.10779953,129.9449,72.9914499999997,0.2149844,0.5473979,-0.1543932,-0.109885,-52.41796,-32.69753,3.3164
32.117711544,136.2626,75.14677,-6.16675799999997,0.5425544,-0.03663867,-0.1104962,-52.41796,-32.69753,3.3164
32.127623558,136.882,79.3991700000002,-10.15535,0.5326844,0.05537796,-0.1069109,-52.41796,-32.69753,3.3164
32.137536526,132.6702,84.3505899999998,-12.5485,0.5250481,0.09512906,-0.08976995,-52.41796,-32.69753,3.3164
32.147448063,126.1667,89.24375,-12.24169,0.5127137,0.116382,-0.0755897,-52.05179,-31.94648,3.761859
32.157361031,117.5573,93.4961399999999,-10.95306,0.4858639,0.1355799,-0.0488048,-52.05179,-31.94648,3.761859
32.167273045,106.6562,95.30195,-8.00764499999998,0.4895741,0.1147967,-0.0451363,-52.05179,-31.94648,3.761859
32.177185059,95.3215699999999,95.0106899999999,-3.405427,0.5227982,0.06715554,-0.05584427,-52.05179,-31.94648,3.761859
32.187097549,85.4114800000002,92.5641100000001,0.951339199999998,0.5846156,0.004381263,-0.06163576,-52.05179,-31.94648,3.761859
32.197009563,77.0498499999998,91.5155700000002,9.17396900000002,0.6539845,-0.1147648,-0.01697586,-51.694,-31.26832,1.637724
32.206922054,69.6792199999998,87.4961900000002,13.71482,0.7026489,-0.03501798,-0.08939853,-51.694,-31.26832,1.637724
32.216834068,63.6092899999998,81.3214800000001,15.18753,0.7588363,-0.08579528,-0.1056215,-51.694,-31.26832,1.637724
32.226746559,57.9729300000002,74.85551,17.51932,0.7805472,-0.1176187,-0.1238002,-51.694,-31.26832,1.637724
32.236658573,54.93797,70.6031200000001,21.692,0.7825192,-0.1292931,-0.1359001,-51.694,-31.26832,1.637724
32.246570587,53.2037,67.28276,24.26924,0.8007835,-0.1136152,-0.1484487,-52.45357,-30.90084,-0.09414291
32.256483078,52.70819,64.7779200000003,26.11013,0.8267546,-0.1039932,-0.1318192,-52.45357,-30.90084,-0.09414291
32.266395092,51.03587,61.22456,27.95102,0.8737509,-0.05142935,-0.1126974,-52.45357,-30.90084,-0.09414291
32.27630806,47.81509,58.6614700000001,30.83507,0.8974202,-0.05005618,-0.09178017,-52.45357,-30.90084,-0.09414291
32.286219597,42.3026,52.95278,31.75552,0.9301624,0.004242655,-0.07779665,-52.45357,-30.90084,-0.09414291
32.296131611,36.72818,48.05962,33.71913,0.9464355,0.007930872,-0.06015672,-52.48239,-29.41318,-2.732787
32.306044579,31.27763,44.27324,35.9282,0.98191,-0.01075197,-0.008272014,-52.48239,-29.41318,-2.732787
32.315956593,30.03887,42.81694,38.75089,0.9996432,-0.07972311,0.01895368,-52.48239,-29.41318,-2.732787
32.325869083,32.14476,44.62275,42.24857,0.9940555,-0.1603695,0.09481325,-52.48239,-29.41318,-2.732787
32.335781097,36.97593,45.67128,43.5372,1.01619,-0.1036886,0.1261964,-52.48239,-29.41318,-2.732787
32.345693588,40.63028,46.48681,42.12585,1.048028,-0.09911074,0.1845118,-53.25788,-27.92349,-4.853583
32.355605602,42.48842,45.43827,41.81903,1.086934,-0.1140833,0.2892069,-53.25788,-27.92349,-4.853583
32.365517616,43.66524,46.48681,42.06449,1.116551,-0.1340498,0.3881927,-53.25788,-27.92349,-4.853583
32.375430107,44.904,45.26352,42.92357,1.137839,-0.1072991,0.5403842,-53.25788,-27.92349,-4.853583
32.385342121,44.78012,41.47714,42.00312,1.142129,-0.1424147,0.583805,-53.25788,-27.92349,-4.853583
32.397732735,45.39951,34.54516,41.69631,1.138386,-0.02677483,0.6403083,-54.787,-25.67943,-5.687902
32.407644749,48.37253,27.49667,40.16224,1.123124,0.03370835,0.6533365,-54.787,-25.67943,-5.687902
32.41755724,45.39951,21.20546,38.93498,1.07653,0.08915016,0.7045534,-54.787,-25.67943,-5.687902
32.427469254,44.96594,19.05013,38.93498,1.03115,0.1171611,0.6989177,-54.787,-25.67943,-5.687902
32.437381268,44.28462,18.46762,40.46905,0.9860367,0.1033602,0.6704335,-54.787,-25.67943,-5.687902
32.447293758,47.75315,19.98217,41.75767,0.9587816,0.04284367,0.6597189,-55.56944,-23.43741,-7.04007
32.457205773,57.4154900000001,24.87533,42.18721,0.913929,-0.008134446,0.6607544,-55.56944,-23.43741,-7.04007
32.467118263,68.8740200000003,30.46752,41.14404,0.8787937,-0.02951459,0.6426908,-55.56944,-23.43741,-7.04007
32.477030277,76.6782200000002,33.96264,40.16224,0.8516254,-0.02901913,0.6165367,-55.56944,-23.43741,-7.04007
32.486942291,78.78411,36.11796,40.89859,0.8283978,-0.03138639,0.5898468,-55.56944,-23.43741,-7.04007
32.496855259,74.5103799999999,38.04028,43.04629,0.8242948,-0.06568132,0.5310771,-55.96608,-21.94246,-7.877919
32.506766796,72.52837,40.3121,45.6849,0.8212548,-0.08235868,0.5012243,-55.96608,-21.94246,-7.877919
32.516679764,71.7231800000002,42.11792,44.82582,0.8093592,-0.07380871,0.4956294,-55.96608,-21.94246,-7.877919
32.526591778,74.8200800000001,47.01108,40.40769,0.8162553,0.004840074,0.5926014,-55.96608,-21.94246,-7.877919
32.536504269,74.3865100000002,50.09843,30.89644,0.7260894,0.1050567,0.5004719,-55.96608,-21.94246,-7.877919
32.546416283,55.61929,24.11806,28.62601,0.5100525,0.1918663,0.1823026,-56.74667,-19.69835,-8.71613
32.556328297,32.2067,-19.97868,29.48509,0.3851331,0.3391854,0.09416956,-56.74667,-19.69835,-8.71613
32.566240787,20.8101,-43.16296,26.60103,0.5060926,0.342267,0.2107102,-56.74667,-19.69835,-8.71613
32.576152801,15.66924,-49.51242,31.01916,0.6540927,0.286986,0.32085,-56.74667,-19.69835,-8.71613
32.586065292,13.50141,-46.0173,35.19184,0.6529474,0.02324998,0.2341156,-56.74667,-19.69835,-8.71613
32.595977306,21.73917,-35.00768,35.43729,0.7664471,0.05616115,0.2304043,-57.14033,-18.19999,-8.7188
32.60588932,30.34856,-7.74576700000002,33.78049,1.045606,0.0509018,0.6959418,-57.14033,-18.19999,-8.7188
32.615801811,36.79012,18.29286,37.09409,1.393415,-0.06312878,1.338739,-57.14033,-18.19999,-8.7188
32.625713825,50.54036,19.28314,45.194,1.664693,-0.3075673,1.232808,-57.14033,-18.19999,-8.7188
32.635626793,76.6782200000002,-16.77482,29.91463,1.488211,0.2310826,0.4376047,-57.14033,-18.19999,-8.7188
32.64553833,66.5203800000002,-52.30852,12.48757,1.066913,0.7214054,-0.1122161,-57.53261,-16.70007,-8.336
32.655451298,14.12079,-53.88132,12.05803,0.5915531,0.8880726,-0.1143921,-57.53261,-16.70007,-8.336
32.667840958,-64.7882900000002,-47.41535,17.51932,0.4991021,0.147968,0.06447265,-57.53261,-16.70007,-8.336
32.677752972,-44.59648,-32.85236,18.43977,0.7753159,-0.005644754,0.164609,-57.53261,-16.70007,-8.336
32.687665939,-8.36272300000002,-53.00754,15.43299,0.9783072,-0.2693811,0.1480104,-57.53261,-16.70007,-8.336
32.697577476,-6.75233400000001,-63.7841600000002,14.02164,1.240204,-0.2700988,0.1278177,-57.91845,-15.19284,-6.154353
32.707490444,1.175737,-50.79396,9.66487199999998,1.201673,-0.07957805,0.1222409,-57.91845,-15.19284,-6.154353
32.717402458,10.09482,-52.30852,4.694477,1.033487,0.07562792,0.1632429,-57.91845,-15.19284,-6.154353
32.727314949,-6.87620999999998,-50.09494,6.22854899999998,1.018929,0.1569566,0.1740027,-57.91845,-15.19284,-6.154353
32.737226963,-18.21087,-42.17268,6.28991200000003,0.9219698,0.1810348,0.1885042,-57.93996,-12.93664,-4.041203
32.747138977,-27.12995,-42.52219,5.001291,0.8552565,0.02962454,0.228926,-57.93996,-12.93664,-4.041203
32.757051468,-33.69538,-45.37653,1.503605,0.8865954,-0.1272639,0.1925394,-57.93996,-12.93664,-4.041203
32.766963482,-32.70438,-44.561,-1.012274,0.9634554,-0.1874693,0.1784633,-57.93996,-12.93664,-4.041203
32.776875973,-28.61647,-43.45422,0.1536215,1.007156,-0.2058536,0.1745755,-57.93996,-12.93664,-4.041203
32.786787987,-25.95313,-43.62897,2.424049,1.027532,-0.1949484,0.1715788,-58.30801,-12.92961,-2.304652
32.796700478,-24.65243,-45.49304,4.264936,1.026227,-0.1978091,0.1840559,-58.30801,-12.92961,-2.304652
32.806612492,-24.2808,-47.53186,6.35127500000001,1.034131,-0.2203479,0.2131223,-58.30801,-12.92961,-2.304652
32.816524506,-24.03305,-49.04641,7.701259,1.078357,-0.2555318,0.2408082,-58.30801,-12.92961,-2.304652
32.826437473,-19.63545,-47.70661,9.72623500000002,1.130713,-0.2829016,0.2598282,-58.30801,-12.92961,-2.304652
32.83634901,-14.86622,-46.65808,12.73302,1.168628,-0.3639948,0.2382905,-57.92595,-12.92069,-0.1222811
32.846261978,-10.40668,-43.92023,15.31026,1.16317,-0.4384806,0.2863407,-57.92595,-12.92069,-0.1222811
32.856173992,-4.708378,-42.81345,17.02842,1.12325,-0.4474331,0.2453566,-57.92595,-12.92069,-0.1222811
32.866086006,3.157754,-45.14352,16.2307,1.070029,-0.3739324,0.1483862,-57.92595,-12.92069,-0.1222811
32.875998497,7.49341799999997,-49.92019,15.06481,1.070618,-0.3309562,0.1131354,-57.92595,-12.92069,-0.1222811
32.885910511,7.12178899999997,-52.19201,12.73302,1.104174,-0.3289257,0.04993784,-57.9262,-12.54086,1.161458
32.895823002,11.76714,-56.38615,8.13079899999997,1.155132,-0.331657,-0.03842058,-57.9262,-12.54086,1.161458
32.905735016,17.58932,-61.4540800000002,4.817203,1.263592,-0.3571737,-0.07752613,-57.9262,-12.54086,1.161458
32.915647507,26.69421,-65.8812299999998,5.98309800000002,1.405516,-0.3116784,-0.06028958,-57.9262,-12.54086,1.161458
32.925559521,40.19671,-68.3860599999998,8.56033999999998,1.508628,-0.228714,-0.01699607,-57.9262,-12.54086,1.161458
32.935471535,52.15075,-67.45403,8.56033999999998,1.597556,-0.08740135,-0.001031856,-57.18628,-11.03013,4.172447
32.945384026,61.2556499999997,-64.5996900000003,5.308106,1.629872,0.07862249,0.05451337,-57.18628,-11.03013,4.172447
32.957774162,64.9099899999998,-62.91038,-1.503177,1.530607,0.2941837,0.06839126,-57.18628,-11.03013,4.172447
32.967686653,60.32658,-61.1045600000002,-6.289484,1.446896,0.3928371,0.1269615,-57.18628,-11.03013,4.172447
32.977598667,51.903,-58.54148,-11.01443,1.366255,0.4337974,0.178877,-57.18628,-11.03013,4.172447
32.987511158,43.1078,-55.92014,-15.12574,1.318788,0.3800218,0.2077672,-57.17574,-10.63802,8.475683
32.997423172,30.16274,-55.51237,-19.23706,1.247433,0.3445111,0.1697778,-57.17574,-10.63802,8.475683
33.007335186,16.35056,-56.79392,-21.07795,1.157339,0.2301573,0.1194326,-57.17574,-10.63802,8.475683
33.017247677,7.617294,-56.09489,-21.63021,1.03489,0.113405,0.05832698,-57.17574,-10.63802,8.475683
33.027159691,2.228683,-59.0657400000003,-21.26203,0.9327102,-0.01615208,0.00367082,-57.17574,-10.63802,8.475683
33.037072659,-0.3107767,-62.6191199999999,-20.40295,0.843289,-0.1372334,-0.03664213,-56.04564,-10.24948,11.87366
33.046984673,-4.584502,-69.2015899999999,-19.48251,0.7243215,-0.2807418,-0.1234066,-56.04564,-10.24948,11.87366
33.056897163,-3.593493,-76.48309,-17.39617,0.6621173,-0.3947367,-0.1716066,-56.04564,-10.24948,11.87366
33.066809177,5.325586,-82.2500299999999,-13.16213,0.6126006,-0.4405412,-0.1901799,-56.04564,-10.24948,11.87366
33.076721191,17.27963,-86.0364099999997,-11.87351,0.6213629,-0.4943493,-0.2093456,-56.04564,-10.24948,11.87366
33.086633682,30.47243,-91.2790800000002,-8.86672600000002,0.5905663,-0.4381545,-0.2379761,-55.64603,-11.36095,14.89467
33.096545696,44.28462,-93.4344,-9.66444299999998,0.6144786,-0.3259407,-0.2542552,-55.64603,-11.36095,14.89467
33.106458187,55.06184,-92.3276200000002,-12.11896,0.6268393,-0.146949,-0.1744311,-55.64603,-11.36095,14.89467
33.116370201,58.4065000000001,-91.3373299999999,-10.15535,0.580352,-0.03048508,-0.1367333,-55.64603,-11.36095,14.89467
33.126282692,61.6272799999999,-97.3955400000001,-18.19389,0.5978005,0.2064626,-0.1127487,-55.64603,-11.36095,14.89467
33.136194706,55.61929,-98.0363099999999,-16.04619,0.5893138,0.1518907,-0.05061318,-53.01407,-10.9668,19.63399
33.14610672,52.15075,-94.7742,-17.39617,0.5808699,0.235869,0.08254805,-53.01407,-10.9668,19.63399
33.156019211,37.22368,-86.8519399999998,-14.51211,0.5880343,0.2797749,0.1173457,-53.01407,-10.9668,19.63399
33.165931225,29.29561,-82.6577899999998,-13.77576,0.6440997,0.2842956,0.1062938,-53.01407,-10.9668,19.63399
33.175844193,18.7042,-80.9102299999999,-9.48035400000003,0.6892169,0.2034733,0.1197429,-53.01407,-10.9668,19.63399
33.185756207,16.22668,-78.0558900000002,-8.25309699999997,0.7202228,0.1554317,0.1306599,-51.12925,-10.57114,24.76268
33.195667744,17.34157,-73.6869900000002,-1.56454,0.6968457,0.01933677,0.02817585,-51.12925,-10.57114,24.76268
33.205580711,4.086825,-70.0171100000002,2.485412,0.6261463,0.04538228,0.0784595,-51.12925,-10.57114,24.76268
33.215492725,-4.274812,-67.3957700000001,6.53536400000002,0.6853524,-0.04067555,0.07685848,-51.12925,-10.57114,24.76268
33.225405216,-8.176909,-62.8521200000001,10.46259,0.7572235,-0.138546,0.1043513,-51.12925,-10.57114,24.76268
33.237795353,-10.46862,-60.4637899999999,14.26709,0.7915727,-0.1890251,0.1046576,-49.99593,-10.17894,29.06007
33.247707844,-12.94614,-59.7065199999997,14.75799,0.8494962,-0.1474576,0.1274465,-49.99593,-10.17894,29.06007
33.257619858,-15.54754,-58.1337099999998,10.33986,0.8981317,0.0276357,0.1161592,-49.99593,-10.17894,29.06007
33.267532349,-21.55553,-45.84255,10.03305,0.9366118,0.2404596,0.1124196,-49.99593,-10.17894,29.06007
33.277444363,-28.74034,-35.41545,3.344493,0.9487382,0.3641984,0.009417593,-49.99593,-10.17894,29.06007
33.287356377,-34.19089,-35.24069,-7.394016,0.9744096,0.3026932,-0.03876523,-47.36645,-10.54783,30.39674
33.297268868,-37.96911,-31.57082,-3.46679,0.9549712,0.2022712,-0.09687346,-47.36645,-10.54783,30.39674
33.307180882,-41.68539,-37.0465,-5.000863,0.8906745,0.08281484,-0.164777,-47.36645,-10.54783,30.39674
33.317093372,-46.88819,-43.16296,-5.553129,0.8223467,0.01153125,-0.283219,-47.36645,-10.54783,30.39674
33.327005386,-49.24184,-46.83283,-3.528153,0.9078897,-0.03375183,-0.3390498,-47.36645,-10.54783,30.39674
33.336918354,-43.17191,-49.97844,-4.264508,1.070264,-0.1721691,-0.3073824,-46.98597,-10.92083,30.78142
33.346829891,-30.10298,-46.0173,-0.705459200000001,1.164014,-0.320303,-0.2079229,-46.98597,-10.92083,30.78142
33.356741905,-20.19289,-44.561,9.787598,1.019314,-0.4737885,-0.1932025,-46.98597,-10.92083,30.78142
33.366654873,-13.50358,-44.50275,17.8875,0.9459361,-0.5803209,-0.1778685,-46.98597,-10.92083,30.78142
33.37656641,-1.673414,-38.15329,22.67381,0.9321641,-0.5707873,-0.269868,-46.98597,-10.92083,30.78142
33.386479378,13.99691,-33.78439,23.90107,0.9826164,-0.5428019,-0.3239259,-46.2167,-12.03749,32.51559
33.396391392,25.14576,-28.59997,25.18969,1.027873,-0.3372539,-0.4382131,-46.2167,-12.03749,32.51559
33.406303883,34.25066,-23.82331,22.8579,1.080069,-0.07864005,-0.4336118,-46.2167,-12.03749,32.51559
33.416215897,38.09082,-20.61945,18.56249,1.088943,0.1873352,-0.4011918,-46.2167,-12.03749,32.51559
33.426127911,34.37453,-25.10485,11.9353,1.105041,0.3040943,-0.3635907,-46.2167,-12.03749,32.51559
33.436040402,29.1098,-31.62907,6.47400099999998,1.098625,0.3193538,-0.30389,-45.46682,-11.65578,34.24515
33.445952416,18.2087,-34.48342,9.60350899999999,1.084356,0.264265,-0.234022,-45.46682,-11.65578,34.24515
33.455864906,10.15675,-39.08532,8.62170300000002,1.064594,0.2205086,-0.2096426,-45.46682,-11.65578,34.24515
33.46577692,2.66225,-44.09499,8.00807399999998,1.054179,0.1727556,-0.1368804,-45.46682,-11.65578,34.24515
33.475689411,-4.398688,-46.54157,7.33308200000001,1.079454,0.07594004,-0.07437826,-45.46682,-11.65578,34.24515
33.485601425,-4.274812,-46.94934,3.651307,1.164607,0.02705683,0.01813943,-44.73632,-10.15577,34.62211
33.495513439,-5.88520100000001,-37.51252,9.05124299999999,1.152005,-0.1283881,0.08540286,-44.73632,-10.15577,34.62211
33.505426407,1.795117,-22.36701,12.79438,1.0508,-0.1598859,0.1451885,-44.73632,-10.15577,34.62211
33.517816067,6.44047100000002,-16.60007,15.12617,0.8910791,-0.1315646,0.1002789,-44.73632,-10.15577,34.62211
33.527728558,3.901011,-14.26999,12.18075,0.9341116,-0.02666005,-0.06267398,-44.73632,-10.15577,34.62211
33.537640572,-5.018068,-12.28942,6.16718700000003,1.136187,0.04372609,-0.1586651,-43.99914,-9.028264,35.51418
33.547553539,-11.95513,-9.90108999999998,3.099041,1.299626,0.09094562,-0.2347667,-43.99914,-9.028264,35.51418
33.557465553,-20.06902,-10.07585,1.564968,1.348479,0.05641338,-0.2796231,-43.99914,-9.028264,35.51418
33.56737709,-20.81227,-5.76519999999999,-3.528153,1.322626,-0.01143579,-0.3052844,-43.99914,-9.028264,35.51418
33.577290058,-21.30778,-1.804067,-8.19173300000002,1.288485,-0.003766291,-0.2400962,-43.62649,-9.030064,35.06253
33.587202072,-25.89119,2.914342,-14.45075,1.318404,-0.002360139,-0.1342486,-43.62649,-9.030064,35.06253
33.597114563,-26.07701,15.72977,-18.99161,1.454342,-0.07819757,-0.03229682,-43.62649,-9.030064,35.06253
33.607026577,-20.6884,30.58403,-20.64841,1.392585,0.04509614,0.05024244,-43.62649,-9.030064,35.06253
33.616939068,-21.61747,38.33154,-23.16428,1.262964,0.2358755,0.1266565,-43.62649,-9.030064,35.06253
33.626851082,-27.43964,46.54506,-22.48929,1.146498,0.3797266,0.1911126,-43.25359,-9.411689,33.32713
33.636763096,-40.19888,52.95278,-25.06653,1.096282,0.4711103,0.1696183,-43.25359,-9.411689,33.32713
33.646675587,-49.30377,55.04985,-30.83465,1.130068,0.3552119,-0.009124795,-43.25359,-9.411689,33.32713
33.656587601,-51.7813,53.12754,-30.83465,1.170172,0.09524805,-0.1221441,-43.25359,-9.411689,33.32713
33.666500091,-53.32975,55.39936,-29.17785,1.258808,-0.1194058,-0.1224732,-43.25359,-9.411689,33.32713
33.676412105,-47.75532,61.1080499999999,-31.26419,1.220981,-0.3065413,-0.2155605,-44.01428,-9.425605,29.92605
33.686325073,-33.01406,73.2827099999998,-31.0801,1.162723,-0.4792453,-0.2814738,-44.01428,-9.425605,29.92605
33.696237087,-10.53056,71.5934099999998,-28.38013,1.154868,-0.4798476,-0.2852464,-44.01428,-9.425605,29.92605
33.706148624,1.609303,69.9623499999997,-26.29379,1.163432,-0.4408453,-0.3580498,-44.01428,-9.425605,29.92605
33.716061592,8.91799300000002,72.0594199999999,-22.91883,1.182154,-0.4642021,-0.4193586,-44.01428,-9.425605,29.92605
33.725973606,22.48243,78.52539,-19.29842,1.240556,-0.4382438,-0.4158846,-43.98603,-12.81448,25.63205
33.735886097,38.89601,85.8068799999999,-18.5007,1.300904,-0.3515387,-0.3899365,-43.98603,-12.81448,25.63205
33.745798111,50.04486,91.1078099999997,-18.93024,1.30026,-0.2335853,-0.3622559,-43.98603,-12.81448,25.63205
33.755710602,54.56634,96.5834999999998,-17.45753,1.297108,-0.1549595,-0.3391355,-43.98603,-12.81448,25.63205
33.765622616,56.11479,99.6125900000001,-14.38939,1.315784,-0.1029788,-0.3644103,-43.98603,-12.81448,25.63205
33.77553463,58.902,100.7776,-12.18032,1.398236,-0.1232538,-0.3585857,-43.62579,-12.8304,21.71118
33.785447121,62.9899099999999,99.0883299999998,-10.52352,1.459801,-0.1610421,-0.4074226,-43.62579,-12.8304,21.71118
33.795359135,67.8210800000003,100.6611,-12.48714,1.501708,-0.1537608,-0.4130434,-43.62579,-12.8304,21.71118
33.807749748,78.8460500000003,106.6028,-16.353,1.603013,-0.07733341,-0.4105902,-43.62579,-12.8304,21.71118
33.817661762,90.18072,118.2532,-20.34159,1.634062,0.1253528,-0.3879199,-43.62579,-12.8304,21.71118
33.827574253,93.83506,127.2823,-27.58241,1.607334,0.2282597,-0.3941896,-44.40723,-11.72758,16.57204
33.837486267,82.9958999999999,129.7289,-34.20961,1.556448,0.33345,-0.3694904,-44.40723,-11.72758,16.57204
33.847399235,67.1397600000001,117.2047,-32.98235,1.50425,0.2838377,-0.3678977,-44.40723,-11.72758,16.57204
33.857310772,51.96494,104.3893,-24.51427,1.481155,0.2103288,-0.3696143,-44.40723,-11.72758,16.57204
33.867222786,41.62128,99.9621100000001,-14.2053,1.451685,0.08966153,-0.3807092,-44.40723,-11.72758,16.57204
33.877135754,35.86105,104.797,1.196791,1.414668,0.004641247,-0.4183855,-43.68705,-10.61943,12.71001
33.887047291,38.83407,91.8650900000001,3.344493,1.282918,-0.08027767,-0.3956456,-43.68705,-10.61943,12.71001
33.896960258,40.69221,72.17593,4.694477,1.238457,-0.1922668,-0.3801352,-43.68705,-10.61943,12.71001
33.906872272,46.45245,62.73911,10.7694,1.22369,-0.2666395,-0.3814544,-43.68705,-10.61943,12.71001
33.916784763,55.43347,57.7294400000003,14.88072,1.178557,-0.332637,-0.3776354,-43.68705,-10.61943,12.71001
33.926696777,65.7771199999999,53.47705,15.98525,1.102823,-0.384041,-0.3844799,-42.9528,-10.25549,10.07093
33.936608791,74.0768200000002,48.23437,16.72161,1.030796,-0.3781899,-0.3919375,-42.9528,-10.25549,10.07093
33.946521282,78.4744200000001,44.21498,17.27387,0.9289383,-0.3227185,-0.3891854,-42.9528,-10.25549,10.07093
33.956433296,79.0937999999999,42.70044,21.2011,0.8465303,-0.2577906,-0.3860701,-42.9528,-10.25549,10.07093
33.966345787,80.3944999999999,40.07909,16.84433,0.7397716,-0.2055528,-0.3405602,-42.9528,-10.25549,10.07093
33.976257801,81.0758200000001,39.08881,14.94208,0.6673279,-0.172353,-0.308939,-42.59769,-9.136902,8.780632
33.986170292,81.9429599999999,39.38007,11.87394,0.5870244,-0.1373188,-0.2786732,-42.59769,-9.136902,8.780632
33.996082306,83.6152799999998,39.43832,9.60350899999999,0.5115963,-0.1056454,-0.2537567,-42.59769,-9.136902,8.780632
34.005995274,87.2076899999998,40.77812,7.27171900000003,0.4539797,-0.09071615,-0.2281562,-42.59769,-9.136902,8.780632
34.015907288,93.0298599999999,43.86547,4.449025,0.4093233,-0.06013754,-0.207853,-42.59769,-9.136902,8.780632
34.025818825,98.1087900000001,46.66157,1.012702,0.3662516,-0.03777201,-0.1856986,-42.99619,-7.263955,8.77681
34.035731792,101.6393,48.70039,-1.687266,0.3488308,-0.0203368,-0.1474888,-42.99619,-7.263955,8.77681
34.045643806,103.8071,50.44794,-3.221339,0.3594548,-0.01758403,-0.1096362,-42.99619,-7.263955,8.77681
34.055556297,105.6652,51.67124,-3.46679,0.369931,-0.003688666,-0.0731485,-42.99619,-7.263955,8.77681
34.065468311,106.7182,52.60327,-3.957693,0.3593784,0.01140505,-0.03549801,-42.99619,-7.263955,8.77681
34.075380802,106.2846,55.51587,-5.79858000000001,0.3619534,0.0471132,0.01897394,-42.2749,-5.394317,7.931967
34.087770939,102.9399,58.3119599999998,-7.02583799999998,0.3521402,0.09868044,0.07606691,-42.2749,-5.394317,7.931967
34.09768343,95.4454499999999,59.6517500000001,-8.25309699999997,0.3480008,0.1190008,0.07768104,-42.2749,-5.394317,7.931967
34.107595444,86.34055,58.0206999999998,-8.37582199999997,0.3683509,0.1464781,0.09160049,-42.2749,-5.394317,7.931967
34.117507458,75.8730200000001,55.69062,-6.596298,0.3945126,0.1537603,0.1240578,-42.2749,-5.394317,7.931967
34.127419949,62.68022,50.68095,-3.098613,0.4183152,0.1486131,0.1026764,-42.2795,-5.399546,6.647074
34.137331963,51.03587,44.27324,1.871783,0.4575802,0.1228385,0.08677652,-42.2795,-5.399546,6.647074
34.147244453,40.69221,35.30243,6.41263799999999,0.5289143,0.1134604,0.07020911,-42.2795,-5.399546,6.647074
34.157156467,32.45445,27.38017,12.67165,0.6149064,0.07719151,0.06869205,-42.2795,-5.399546,6.647074
34.167069435,26.63227,20.97245,19.23748,0.6552239,0.07951241,0.04528705,-42.2795,-5.399546,6.647074
34.176980972,21.42948,14.04047,23.96243,0.7482173,0.04511326,0.01346773,-41.92252,-4.658953,4.522747
34.186892986,19.88103,9.84632599999999,27.76693,0.8098646,0.02639242,-0.004992968,-41.92252,-4.658953,4.522747
34.196805954,18.82808,6.00169699999999,31.38734,0.8961884,0.02443366,-0.02933211,-41.92252,-4.658953,4.522747
34.206717968,17.58932,4.953161,33.35095,0.9646508,0.008221802,-0.04783913,-41.92252,-4.658953,4.522747
34.216630459,19.94297,6.75897199999999,35.49866,1.012884,-0.01833148,-0.04846209,-41.92252,-4.658953,4.522747
34.226542473,22.79212,9.61331700000002,38.99634,1.041218,-0.04115604,-0.03015002,-41.54849,-4.659184,4.456556
34.236454964,27.99491,14.50648,37.52363,1.060244,-0.1062969,-0.01539488,-41.54849,-4.659184,4.456556
34.246366978,31.33957,16.60355,39.11907,1.051111,-0.1633955,0.02848374,-41.54849,-4.659184,4.456556
34.256278992,35.61329,17.24433,33.90322,1.066949,-0.232599,0.109023,-41.54849,-4.659184,4.456556
34.266191483,40.81609,19.86566,28.31919,1.113987,-0.2965812,0.1864275,-41.54849,-4.659184,4.456556
34.276103497,43.04586,23.12777,23.28744,1.139758,-0.2909573,0.2740956,-40.81751,-3.538736,3.614022
34.286015987,42.24067,29.71025,18.3784,1.138354,-0.2633771,0.3602406,-40.81751,-3.538736,3.614022
34.295928001,40.32059,39.96259,13.40801,1.125727,-0.1722724,0.475242,-40.81751,-3.538736,3.614022
34.305840492,36.6043,46.42856,10.89213,1.112347,-0.1176563,0.4742891,-40.81751,-3.538736,3.614022
34.315752506,36.72818,46.66157,9.787598,1.06882,-0.04260534,0.4660687,-40.81751,-3.538736,3.614022
34.325665474,41.68322,41.47714,9.60350899999999,0.9890487,-0.007790865,0.4526336,-40.45594,-2.792914,2.774589
34.335577488,47.62928,33.20536,10.09441,0.919586,-0.01940779,0.4363931,-40.45594,-2.792914,2.774589
34.345489025,58.2206799999999,26.9724,11.75121,0.8697742,-0.04048786,0.4179871,-40.45594,-2.792914,2.774589
34.355401993,71.22767,23.06952,12.67165,0.8714001,-0.01575697,0.4147757,-40.45594,-2.792914,2.774589
34.367791653,82.1906999999998,19.05013,14.5739,0.8838605,0.02865221,0.3467739,-40.45594,-2.792914,2.774589
34.37770462,83.3675300000001,13.16669,14.5739,0.9069861,0.0880308,0.3349516,-40.84472,-2.049243,1.42509
34.387616634,81.3235699999997,8.27352199999998,13.96028,0.9671452,0.1285445,0.3361057,-40.84472,-2.049243,1.42509
34.397529125,80.08481,7.92401099999998,14.32845,1.015926,0.1598287,0.3613113,-40.84472,-2.049243,1.42509
34.407441139,77.9169799999999,12.11815,14.63527,1.043116,0.2059253,0.3964185,-40.84472,-2.049243,1.42509
34.41735363,74.9439499999997,21.14721,14.81936,1.058833,0.2729872,0.4817079,-40.84472,-2.049243,1.42509
34.427265644,64.2906099999999,31.92382,16.10798,1.053269,0.3323352,0.5330516,-40.85094,-1.676217,1.038468
34.437177658,51.65525,40.83637,17.94886,0.9974445,0.3698915,0.6168854,-40.85094,-1.676217,1.038468
34.447090149,29.91499,45.61303,20.52611,0.9213529,0.4280576,0.7034448,-40.85094,-1.676217,1.038468
34.457002163,4.582329,44.62275,24.45333,0.8310825,0.4126366,0.7517125,-40.85094,-1.676217,1.038468
34.466914654,-14.6804,40.48686,27.6442,0.796998,0.3205837,0.7533352,-40.85094,-1.676217,1.038468
34.476826668,-22.23685,36.93349,30.52826,0.9010336,0.1923301,0.734713,-40.86225,-0.9288561,0.5864477
34.486739636,-22.60847,32.27333,33.71913,1.148375,0.02370068,0.7197784,-40.86225,-0.9288561,0.5864477
34.496651173,-4.088998,39.08881,32.18506,1.502412,-0.08035682,0.9328424,-40.86225,-0.9288561,0.5864477
34.50656414,51.96494,83.9428200000002,25.80332,1.862512,-0.2315474,1.205076,-40.86225,-0.9288561,0.5864477
34.516476154,116.5663,145.5734,19.91248,1.897693,-0.2854871,1.377728,-40.86225,-0.9288561,0.5864477
34.526388168,147.7831,155.884,19.97384,1.418977,0.003823915,1.19202,-40.13127,0.1915913,-0.2560863
34.536300659,125.3615,81.3214800000001,-0.214556,0.8352524,0.3435516,0.6959956,-40.13127,0.1915913,-0.2560863
34.546212673,64.8480500000001,0.0599961999999999,-17.39617,0.5809702,0.5737043,0.2494921,-40.13127,0.1915913,-0.2560863
34.556125164,5.015896,-21.55148,-22.3052,0.6849858,0.4834359,-0.2984913,-40.13127,0.1915913,-0.2560863
34.566037178,-28.12096,-7.57101099999998,-12.24169,0.43552,0.5289996,-0.7299437,-39.41214,1.615313,-3.283899
34.575949669,-45.15392,1.749303,-9.54171799999998,0.06989205,0.2598759,-0.6985854,-39.41214,1.615313,-3.283899
34.585861683,-68.5045699999999,14.21522,6.65808999999999,0.05579759,0.0753877,-0.5249065,-39.41214,1.615313,-3.283899
34.595773697,-94.3327400000002,4.370642,23.59425,0.2953188,-0.1940212,-0.1332661,-39.41214,1.615313,-3.283899
34.605686188,-74.3267500000003,-3.493374,28.62601,0.6959873,-0.275434,0.314315,-39.41214,1.615313,-3.283899
34.615598202,-15.91917,-25.92038,26.04877,1.256188,-0.3660375,0.3819947,-39.40755,1.620541,-1.999007
34.625511169,10.28063,-45.14352,35.19184,1.307696,-0.2138663,0.3378774,-39.40755,1.620541,-1.999007
34.635422707,-3.965122,-58.71623,28.93283,1.399293,0.06389531,0.1064842,-39.40755,1.620541,-1.999007
34.645335674,-30.97011,-49.68718,16.96706,1.325834,0.2794761,0.06202437,-39.40755,1.620541,-1.999007
34.657725334,-67.82326,-35.41545,20.89428,0.9059224,0.2474508,0.1319563,-39.40755,1.620541,-1.999007
34.667638302,-81.2638099999998,-58.19196,25.31241,0.7322752,0.05867051,0.04827688,-38.34926,2.378444,0.1132441
34.677550316,-75.6893800000002,-73.1044700000001,25.74195,0.8597026,-0.2644345,-0.01555406,-38.34926,2.378444,0.1132441
34.687462807,-58.2847900000002,-74.61902,26.84649,1.002678,-0.366437,-0.02091698,-38.34926,2.378444,0.1132441
34.697374821,-32.89019,-73.8034999999997,25.4965,1.112352,-0.4564481,-0.06478485,-38.34926,2.378444,0.1132441
34.707286835,-3.531555,-67.6870300000002,20.89428,1.292493,-0.3275164,-0.03774271,-38.34926,2.378444,0.1132441
34.717199325,12.26265,-63.3763900000001,16.53752,1.330588,-0.1044007,-0.01932293,-39.09482,2.761869,2.300299
34.72711134,11.82908,-59.2987500000001,12.91711,1.32823,0.09535675,0.07998194,-39.09482,2.761869,2.300299
34.73702383,-5.265821,-62.4443600000002,11.38303,1.23437,0.08711424,0.02509671,-39.09482,2.761869,2.300299
34.746935844,-28.74034,-71.7646700000001,13.83755,1.197011,-0.09612408,-0.0655681,-39.09482,2.761869,2.300299
34.756848335,-43.60547,-79.5121799999997,19.60566,1.175845,-0.3452147,-0.08479765,-39.09482,2.761869,2.300299
34.766760349,-35.61546,-80.9684800000001,19.0534,1.191676,-0.5863689,-0.1585744,-37.96956,3.525006,5.697119
34.776672363,-17.40568,-81.5510000000003,18.25568,1.214727,-0.6397036,-0.214361,-37.96956,3.525006,5.697119
34.786584854,3.653259,-81.6092499999999,17.45796,1.29976,-0.5186618,-0.07749599,-37.96956,3.525006,5.697119
34.796496868,18.33258,-78.4053999999999,15.43299,1.405553,-0.3460361,0.04607631,-37.96956,3.525006,5.697119
34.806409836,27.06584,-78.3471500000003,12.67165,1.442958,-0.1983839,0.09953145,-37.96956,3.525006,5.697119
34.816321373,30.906,-75.6093099999998,5.614921,1.441268,-0.03511228,0.1736189,-36.84569,4.286574,8.708469
34.826234341,31.46344,-69.6675999999999,-2.055443,1.404208,0.04592942,0.1831443,-36.84569,4.286574,8.708469
34.836146355,29.23367,-69.8423600000002,-7.33265300000001,1.361294,0.09812476,0.1603612,-36.84569,4.286574,8.708469
34.846058845,18.39451,-72.81321,-11.3826,1.277384,0.09497137,0.1279853,-36.84569,4.286574,8.708469
34.855970859,6.997913,-74.6772799999999,-13.7144,1.191414,0.002231576,0.0282896,-36.84569,4.286574,8.708469
34.865882874,0.680232200000002,-78.5801499999999,-14.2053,1.138728,-0.1539676,-0.04716843,-37.59933,5.421019,11.34293
34.875795364,2.414498,-80.4442100000001,-11.3826,1.113676,-0.2748187,-0.1044005,-37.59933,5.421019,11.34293
34.885707378,10.28063,-81.7257599999999,-10.76898,1.070526,-0.385168,-0.1498715,-37.59933,5.421019,11.34293
34.895619869,23.84506,-83.5898200000002,-10.15535,1.071569,-0.4146298,-0.1303909,-37.59933,5.421019,11.34293
34.905531883,41.62128,-82.71604,-8.25309699999997,1.065573,-0.3418477,-0.1053625,-37.59933,5.421019,11.34293
34.915444374,56.11479,-79.5121799999997,-8.68263700000001,0.999827,-0.1847451,-0.03840635,-36.83193,4.682346,13.91113
34.925356388,62.3705300000001,-74.15301,-10.76898,0.9299189,-0.03147611,0.04728894,-36.83193,4.682346,13.91113
34.937747002,56.48642,-70.7161399999998,-14.26666,0.8329879,0.1311445,0.1313758,-36.83193,4.682346,13.91113
34.947659016,45.39951,-70.1918699999999,-16.8439,0.7867763,0.1860491,0.1715419,-36.83193,4.682346,13.91113
34.957571983,32.82608,-66.8715099999998,-18.43934,0.7267898,0.1629379,0.1599388,-36.83193,4.682346,13.91113
34.967483521,21.49142,-65.1822099999998,-16.353,0.6624051,0.1309924,0.1382341,-35.70966,5.442084,16.47277
34.977395535,11.45745,-64.4831800000002,-14.51211,0.6219003,0.0844321,0.1392589,-35.70966,5.442084,16.47277
34.987308502,6.13078099999997,-64.1919200000001,-12.85531,0.6123725,0.007615567,0.1215495,-35.70966,5.442084,16.47277
34.997220516,7.617294,-62.0948499999999,-11.68942,0.635603,-0.03903573,0.1387898,-35.70966,5.442084,16.47277
35.007133007,6.254657,-52.83278,-11.62806,0.584342,-0.04768141,0.1843411,-35.70966,5.442084,16.47277
35.017045021,7.43147999999999,-47.88137,-10.4008,0.5986584,-0.04596939,0.1995852,-35.33591,6.201762,19.0383
35.026957512,2.538374,-42.9882,-5.79858000000001,0.5611845,-0.02878825,0.2370184,-35.33591,6.201762,19.0383
35.036869526,-0.1869005,-39.31833,-2.914524,0.5087667,0.007569409,0.1748446,-35.33591,6.201762,19.0383
35.046782017,-1.983104,-39.02707,3.037678,0.3968309,-0.01552566,0.1041824,-35.33591,6.201762,19.0383
35.056694031,-6.25683000000001,-45.7843,6.65808999999999,0.3234383,-0.004770841,0.01706385,-35.33591,6.201762,19.0383
35.066606045,-10.59249,-54.11433,7.08763000000002,0.3674295,0.001377615,-0.02507579,-34.57448,5.456291,19.93614
35.076518536,-13.13195,-59.53176,5.92173499999998,0.4703648,0.0257134,-0.0676394,-34.57448,5.456291,19.93614
35.08643055,-10.90218,-59.1822499999998,3.344493,0.6502149,0.009393387,-0.0007487908,-34.57448,5.456291,19.93614
35.096343517,-1.301785,-53.64831,2.792227,0.7618574,-0.1110701,-0.0313933,-34.57448,5.456291,19.93614
35.106255054,12.26265,-47.93962,2.669501,0.761171,-0.1784873,-0.03423689,-34.57448,5.456291,19.93614
35.116168022,23.34956,-46.36682,1.564968,0.7679443,-0.1852683,-0.04922961,-33.44252,5.466839,22.50009
35.126080036,37.905,-44.328,0.3990731,0.8813292,-0.2629004,-0.1458667,-33.44252,5.466839,22.50009
35.135992527,33.94097,-39.55134,-3.282701,0.7876161,0.07817554,-0.06350169,-33.44252,5.466839,22.50009
35.145904541,19.94297,-44.38625,-5.062225,0.7665427,0.03080965,-0.1711778,-33.44252,5.466839,22.50009
35.155816555,11.64327,-50.3862,-7.394016,0.7502164,-0.01802388,-0.1992013,-33.44252,5.466839,22.50009
35.165729046,8.48442599999998,-55.22112,-5.98266900000002,0.775122,-0.1511294,-0.2152033,-31.94735,5.844954,23.32633
35.17564106,10.96195,-56.09489,-3.528153,0.8154392,-0.2195316,-0.2261152,-31.94735,5.844954,23.32633
35.185553551,15.23567,-53.88132,-0.644096300000003,0.8562543,-0.2106103,-0.1933023,-31.94735,5.844954,23.32633
35.195465565,19.57134,-51.25998,-1.56454,0.8439927,-0.1159182,-0.2290501,-31.94735,5.844954,23.32633
35.205378056,19.63328,-50.21144,0.1536215,0.8685647,-0.06360058,-0.2034804,-31.94735,5.844954,23.32633
35.217768192,21.80111,-46.71633,-0.950910899999997,1.028793,-0.02313433,-0.1715617,-31.19587,6.228498,25.5056
35.227680683,29.04786,-38.3863,-3.405427,1.239547,-0.0641342,-0.07631185,-31.19587,6.228498,25.5056
35.237592697,36.54237,-25.0466,-0.705459200000001,1.367451,-0.11092,-0.0561993,-31.19587,6.228498,25.5056
35.247505665,42.79811,-21.26022,3.160404,1.439373,-0.1780319,0.01231139,-31.19587,6.228498,25.5056
35.257417202,52.70819,-12.87194,5.79900900000001,1.466385,-0.2025115,-0.004907042,-31.19587,6.228498,25.5056
35.267329216,52.02688,-9.31857,8.25352600000003,1.322837,-0.1905544,-0.06544024,-29.31674,5.85745,26.3322
35.277242184,43.16973,-17.41559,8.25352600000003,1.300438,-0.1759137,-0.08674267,-29.31674,5.85745,26.3322
35.287154198,40.87803,-17.99811,5.676283,1.432615,-0.1036953,-0.0351467,-29.31674,5.85745,26.3322
35.297066689,48.43447,-5.357436,4.019485,1.453588,0.01043888,0.04560612,-29.31674,5.85745,26.3322
35.306978703,50.97393,5.76868899999999,3.958122,1.230593,0.1605455,0.07651763,-29.31674,5.85745,26.3322
35.316891193,44.16074,5.94344499999998,4.203574,0.9596649,0.2417604,0.1208579,-28.57493,6.6101,27.16118
35.326803207,27.56135,-3.784633,4.75584,0.755944,0.1734448,0.05890594,-28.57493,6.6101,27.16118
35.336715698,-2.912175,-16.94958,5.308106,0.6585047,-0.00710853,-0.1176138,-28.57493,6.6101,27.16118
35.346627712,-32.02306,-26.15339,3.835396,0.7412421,-0.2035902,-0.4332313,-28.57493,6.6101,27.16118
35.356539726,-41.93315,-31.39606,4.14221,0.9436991,-0.3642164,-0.6671299,-28.57493,6.6101,27.16118
35.366452217,-29.66941,-31.68732,6.28991200000003,1.073125,-0.4733941,-0.7146692,-28.59895,8.483338,27.21965
35.376364231,-5.265821,-32.6776,3.835396,1.071456,-0.5132607,-0.638094,-28.59895,8.483338,27.21965
35.386276722,17.52738,-34.83293,1.687694,0.994356,-0.3970825,-0.5818689,-28.59895,8.483338,27.21965
35.396188736,30.96794,-41.35715,-2.055443,0.9445394,-0.2015971,-0.537852,-28.59895,8.483338,27.21965
35.406101704,38.52438,-45.95905,-11.3826,0.9891826,0.01707719,-0.3629908,-28.59895,8.483338,27.21965
35.416013718,30.72019,-45.55129,-5.98266900000002,0.9393912,-0.004480032,-0.3799596,-27.4845,9.234187,27.59698
35.425926209,17.46544,-54.58034,-3.89633,0.9706699,-0.03286753,-0.3194579,-27.4845,9.234187,27.59698
35.435838223,6.06884200000002,-60.05603,-4.632685,1.088941,-0.1304226,-0.2491779,-27.4845,9.234187,27.59698
35.445750237,2.600312,-59.0074900000001,-5.307677,1.133128,-0.1809883,-0.1956655,-27.4845,9.234187,27.59698
35.455662727,5.139772,-56.15314,-6.16675799999997,1.137673,-0.2032878,-0.1123086,-27.4845,9.234187,27.59698
35.465574741,12.75815,-52.19201,-7.63946799999999,1.180968,-0.1287123,-0.04691067,-26.72653,8.864881,28.87913
35.475487232,23.10181,-43.27946,-9.41899200000002,1.216123,0.006815238,0.01128609,-26.72653,8.864881,28.87913
35.485399246,26.44646,-36.93,-9.11217699999998,1.216749,0.118352,0.1075748,-26.72653,8.864881,28.87913
35.49778986,18.2087,-32.61935,-9.23490300000001,1.23958,0.1134438,0.1347,-26.72653,8.864881,28.87913
35.507701874,8.42248799999999,-28.48347,-9.72580600000002,1.261907,0.1424202,0.1524524,-25.22169,8.87389,31.05566
35.517614365,-3.841246,-21.20197,-12.60986,1.291784,0.1359908,0.1497325,-25.22169,8.87389,31.05566
35.527526379,-12.20288,-13.0467,-25.06653,1.282326,0.1223767,0.1650943,-25.22169,8.87389,31.05566
35.53743887,-22.60847,-5.240932,-18.43934,1.326928,0.03958372,0.1737334,-25.22169,8.87389,31.05566
35.547350883,-24.83825,9.90457699999998,-21.69157,1.374933,-0.04073767,0.1833179,-25.22169,8.87389,31.05566
35.557263851,-17.15793,21.26371,-23.22565,1.354361,-0.0912576,0.120751,-24.84582,8.875751,31.50343
35.567175865,-12.76033,32.6811,-25.74153,1.213497,-0.05866667,0.01231461,-24.84582,8.875751,31.50343
35.577087402,-12.07901,46.37031,-28.31877,1.185676,0.009542705,0.04951833,-24.84582,8.875751,31.50343
35.58700037,-15.91917,51.67124,-27.64378,1.318644,0.06995993,-0.02621356,-24.84582,8.875751,31.50343
35.596912384,-19.07801,59.3604999999998,-26.23243,1.334597,0.1183511,-0.08269739,-24.84582,8.875751,31.50343
35.606824875,-19.69739,68.8555600000002,-26.84606,1.356822,0.05752676,-0.08474862,-25.59595,8.87386,31.05761
35.616736889,-17.46762,77.7098599999999,-31.81645,1.404168,0.005642536,-0.1061789,-25.59595,8.87386,31.05761
35.62664938,-12.94614,82.8360300000001,-35.25278,1.434935,-0.04984924,-0.2225513,-25.59595,8.87386,31.05761
35.636561394,-5.76132499999998,95.7679699999998,-36.48003,1.514898,-0.1096904,-0.2673839,-25.59595,8.87386,31.05761
35.646473885,4.768144,94.2534199999998,-25.80289,1.439283,-0.01689904,-0.2367767,-25.59595,8.87386,31.05761
35.656385899,-1.735352,85.6321299999999,-21.44612,1.318367,-0.01410452,-0.342235,-27.8283,7.368239,29.3393
35.666297913,-14.92816,85.5156300000001,-23.71655,1.341634,-0.1261028,-0.3979343,-27.8283,7.368239,29.3393
35.676210403,-17.52956,85.3408699999998,-24.20745,1.392738,-0.2102125,-0.4719514,-27.8283,7.368239,29.3393
35.686122417,-8.11497100000001,87.1466799999999,-24.39154,1.447917,-0.3046725,-0.494698,-27.8283,7.368239,29.3393
35.696035385,7.49341799999997,90.93305,-22.91883,1.500921,-0.3870752,-0.5245467,-27.8283,7.368239,29.3393
35.705947399,23.65925,95.0689499999998,-20.03478,1.56324,-0.3776506,-0.5399452,-31.19934,6.604661,25.88991
35.71585989,34.62228,96.5834999999998,-19.1757,1.527014,-0.2357045,-0.5684344,-31.19934,6.604661,25.88991
35.725771904,40.87803,98.5640599999999,-19.48251,1.44869,-0.06576879,-0.5209628,-31.19934,6.604661,25.88991
35.735684395,49.05385,104.3893,-20.58704,1.378467,0.027097,-0.4889646,-31.19934,6.604661,25.88991
35.745596409,58.1587400000002,107.2436,-17.02799,1.368466,0.01344878,-0.4788797,-31.19934,6.604661,25.88991
35.7555089,64.04285,109.2824,-11.01443,1.447913,-0.08396453,-0.4749817,-34.57984,6.590535,22.50246
35.765420914,70.3605300000002,106.4863,-5.36904,1.552549,-0.07509843,-0.5128624,-34.57984,6.590535,22.50246
35.775332928,76.30659,104.098,-13.16213,1.551473,0.007516664,-0.4734093,-34.57984,6.590535,22.50246
35.787723541,78.1647300000001,105.7873,-17.94844,1.406992,0.1470414,-0.4279294,-34.57984,6.590535,22.50246
35.797635555,71.7851100000002,116.2144,-15.30983,1.296753,0.08799553,-0.4229818,-34.57984,6.590535,22.50246
35.807548046,76.43047,104.4475,-3.773605,1.112706,0.1221762,-0.4013655,-36.86802,8.442417,17.3688
35.81746006,73.1477499999999,83.5933099999999,-5.614491,1.079812,-0.01048115,-0.3788975,-36.86802,8.442417,17.3688
35.827372551,69.4314700000002,70.9526299999997,-3.159976,1.067943,-0.07898208,-0.3768432,-36.86802,8.442417,17.3688
35.837284565,64.5383600000001,64.3701599999998,1.258154,1.013076,-0.1053267,-0.3697891,-36.86802,8.442417,17.3688
35.847197533,58.84007,58.1372000000001,4.817203,0.9362254,-0.1082829,-0.381102,-36.86802,8.442417,17.3688
35.85710907,52.58432,50.44794,8.74442899999999,0.8357911,-0.09793353,-0.3877868,-39.45214,9.172056,12.62569
35.867022037,46.32858,41.59365,12.73302,0.7696773,-0.1017411,-0.4020856,-39.45214,9.172056,12.62569
35.876934051,42.61229,33.32187,14.94208,0.7070774,-0.1127754,-0.415985,-39.45214,9.172056,12.62569
35.886846542,41.62128,24.81708,15.92389,0.6545767,-0.1362038,-0.4132547,-39.45214,9.172056,12.62569
35.896758556,42.42648,18.23461,16.35343,0.5912136,-0.1466509,-0.4055359,-39.45214,9.172056,12.62569
35.90667057,42.17873,12.99193,17.76477,0.5396651,-0.1588608,-0.3921763,-40.60511,10.65806,9.607418
35.916583061,50.23067,9.205554,15.92389,0.4403318,-0.1596546,-0.3999057,-40.60511,10.65806,9.607418
35.926495075,64.2286700000002,7.86575900000002,10.95349,0.3807456,-0.1269565,-0.402498,-40.60511,10.65806,9.607418
35.936407566,76.9259699999999,6.17645200000001,8.13079899999997,0.3469009,-0.08231685,-0.4081296,-40.60511,10.65806,9.607418
35.94631958,91.4814100000002,5.76868899999999,3.099041,0.3524238,-0.03656899,-0.3881894,-40.60511,10.65806,9.607418
35.956232071,106.0988,6.23470400000003,-1.748629,0.3792604,-0.003090729,-0.3546035,-41.74703,11.77653,8.324902
35.966144085,121.1497,11.30262,-8.49854900000003,0.4065237,0.04085354,-0.2671741,-41.74703,11.77653,8.324902
35.976057053,133.9709,18.52587,-13.0394,0.4457514,0.07628353,-0.1674279,-41.74703,11.77653,8.324902
35.985969067,144.2526,28.66171,-16.59845,0.4747458,0.09892022,-0.07919617,-41.74703,11.77653,8.324902
35.995881557,154.3485,40.3121,-19.85069,0.4978949,0.1073486,-0.005409739,-41.74703,11.77653,8.324902
36.005793571,156.6402,53.12754,-22.61202,0.4697052,0.1509845,0.06236381,-41.39676,13.26971,7.033447
36.015705585,151.6233,63.0886199999997,-24.02337,0.4368491,0.177602,0.1319878,-41.39676,13.26971,7.033447
36.025618076,144.5623,72.2924299999998,-22.91883,0.4319231,0.1911893,0.2396793,-41.39676,13.26971,7.033447
36.03553009,128.0868,79.1661599999998,-20.89386,0.433363,0.2933844,0.3090095,-41.39676,13.26971,7.033447
36.045442581,102.3825,79.7486799999999,-17.88707,0.512999,0.272167,0.4204886,-41.39676,13.26971,7.033447
36.055354595,81.1997,79.1079100000001,-12.97804,0.57679,0.2443001,0.4096297,-41.78157,12.87757,2.732157
36.067745209,52.15075,70.0205999999999,-5.430403,0.5862023,0.2356994,0.411406,-41.78157,12.87757,2.732157
36.077657223,28.24266,55.74887,2.23996,0.6136308,0.2155788,0.3922921,-41.78157,12.87757,2.732157
36.087569714,9.16574500000002,38.27328,12.30348,0.6543283,0.2051662,0.3433504,-41.78157,12.87757,2.732157
36.097481728,-4.894192,26.33163,18.62386,0.7005411,0.205136,0.3198752,-41.78157,12.87757,2.732157
36.107394218,-13.25583,21.20546,23.3488,0.7767141,0.1487239,0.2909457,-42.16499,12.487,-1.183665
36.117306232,-17.52956,24.87533,29.36236,0.8634248,0.062585,0.3010938,-42.16499,12.487,-1.183665
36.1272192,-14.92816,39.03056,35.56002,0.9931004,-0.0718199,0.3436538,-42.16499,12.487,-1.183665
36.137131214,-13.00808,54.81684,44.27355,1.00575,-0.1775475,0.2136699,-42.16499,12.487,-1.183665
36.147042751,-4.274812,63.2051200000001,47.09624,0.9414807,-0.1487144,0.131389,-42.16499,12.487,-1.183665
36.156955719,-0.4346527,71.4768999999997,39.48724,0.8865403,-0.1807117,0.07694589,-42.54384,12.48174,-2.466613
36.166867733,4.396515,86.7971599999999,33.22823,0.8976316,-0.2338046,0.1902871,-42.54384,12.48174,-2.466613
36.176780224,3.962949,107.9426,22.30563,0.9037598,-0.2757773,0.3095102,-42.54384,12.48174,-2.466613
36.186692238,-7.43365200000003,112.6028,17.45796,0.8922514,-0.3475136,0.2476785,-42.54384,12.48174,-2.466613
36.196604729,-11.70738,106.2533,13.40801,0.9284276,-0.3117115,0.1457889,-42.54384,12.48174,-2.466613
36.206516743,-6.25683000000001,94.31167,5.308106,0.9419768,-0.2369885,0.1240741,-42.21433,15.09165,-5.496133
36.216429234,9.53737299999999,79.2826600000001,-1.871354,0.9072939,-0.2191087,0.1960576,-42.21433,15.09165,-5.496133
36.226341248,30.16274,67.98178,-2.607709,0.9015999,-0.1788436,0.3077752,-42.21433,15.09165,-5.496133
36.236253738,49.61129,57.6711900000001,-0.3372818,0.9588071,-0.1388639,0.3065521,-42.21433,15.09165,-5.496133
36.246165752,67.0778199999998,48.58388,4.326299,1.022897,-0.08073942,0.2348031,-42.21433,15.09165,-5.496133
36.256077766,75.8730200000001,38.91405,10.03305,0.9785247,0.003876492,0.2031264,-41.47475,14.70143,-9.353549
36.265990734,79.3415500000002,29.06947,13.83755,0.8856707,0.04980719,0.2143744,-41.47475,14.70143,-9.353549
36.275902271,83.7391599999997,23.59379,16.16934,0.8599848,0.06374817,0.2531175,-41.47475,14.70143,-9.353549
36.285815239,94.82607,23.24428,15.55571,0.9032497,0.06758524,0.3281278,-41.47475,14.70143,-9.353549
36.295727253,85.9069899999998,23.59379,20.83292,0.9507158,0.07430921,0.4823446,-41.47475,14.70143,-9.353549
36.305639744,84.6062899999998,26.79765,26.23286,1.008009,0.02922485,0.5328912,-41.10807,14.69283,-11.47557
36.315551758,85.8450500000001,29.41899,29.7919,1.029227,0.02691001,0.5965407,-41.10807,14.69283,-11.47557
36.325464249,88.0128800000002,32.97235,31.51007,1.026477,0.04452995,0.6350962,-41.10807,14.69283,-11.47557
36.335376263,90.3045900000002,36.11796,31.93961,0.9869753,0.09798609,0.6603057,-41.10807,14.69283,-11.47557
36.347766876,80.7661300000001,36.11796,32.24642,0.9355059,0.2218973,0.6500834,-40.36229,14.30966,-13.59838
36.35767889,65.0957999999997,33.14711,32.1237,0.933166,0.3160588,0.6752204,-40.36229,14.30966,-13.59838
36.367591381,40.63028,29.53549,32.73732,0.9454844,0.4011303,0.6886375,-40.36229,14.30966,-13.59838
36.377503395,17.21769,27.20541,33.65777,0.9519119,0.4653889,0.7230973,-40.36229,14.30966,-13.59838
36.387415886,-1.301785,26.33163,33.28959,0.9168385,0.4711098,0.6951305,-40.36229,14.30966,-13.59838
36.3973279,-3.841246,25.63261,32.73732,0.8155037,0.3536822,0.5464364,-39.6165,13.9265,-15.72119
36.407239914,-0.4346527,30.23451,32.6146,0.8198134,0.3432332,0.8589098,-39.6165,13.9265,-15.72119
36.417152882,-0.4965908,40.95287,29.48509,0.7623971,0.2950826,0.6872234,-39.6165,13.9265,-15.72119
36.427064419,-10.09699,29.7685,25.25105,0.7769507,0.2415477,0.613268,-39.6165,13.9265,-15.72119
36.436977387,-9.911175,11.71039,25.06696,1.064617,0.04379285,0.681794,-39.6165,13.9265,-15.72119
36.446889401,14.92598,5.82694100000001,33.22823,1.386836,-0.2762731,0.8293721,-38.20259,15.04334,-17.46672
36.456801891,57.84906,19.86566,43.65992,1.65263,-0.4500761,1.08168,-38.20259,15.04334,-17.46672
36.466713905,114.7701,54.75859,41.26677,1.779948,-0.3054593,1.268728,-38.20259,15.04334,-17.46672
36.476626396,147.907,75.9623000000001,23.59425,1.614563,0.2160034,1.153692,-38.20259,15.04334,-17.46672
36.48653841,128.2726,53.94306,-8.68263700000001,1.207713,0.6698276,0.7302563,-38.20259,15.04334,-17.46672
36.496450901,77.48341,23.18603,-22.73474,0.9848894,0.9472787,0.2597691,-37.46998,15.78554,-19.20752
36.506362915,8.79411600000002,-0.930287099999998,-14.14394,0.7316362,0.9301705,-0.2805816,-37.46998,15.78554,-19.20752
36.516275883,-39.20787,-16.13405,-6.84175,0.2903115,0.6764296,-0.8414161,-37.46998,15.78554,-19.20752
36.52618742,-91.1739000000001,-29.6485,0.3990731,-0.0112116,0.2876643,-0.7547891,-37.46998,15.78554,-19.20752
36.536099434,-133.2918,-33.31838,8.74442899999999,0.1631804,0.1646811,-0.4868921,-37.46998,15.78554,-19.20752
36.546012402,-117.1259,-14.85251,23.3488,0.5867209,0.07984497,-0.00641445,-37.08439,14.65812,-20.10543
36.555924415,-58.5325399999999,-27.55143,23.8397,0.8117746,-0.3040376,0.223264,-37.08439,14.65812,-20.10543
36.565836906,-48.62246,-67.45403,16.66024,1.082447,-0.460969,0.3512786,-37.08439,14.65812,-20.10543
36.57574892,-65.40767,-70.5996299999998,8.31488799999999,1.512731,-0.2795365,-0.01017023,-37.08439,14.65812,-20.10543
36.585661411,-64.4786000000002,-52.71628,0.951339199999998,1.430151,0.09574984,-0.08949357,-37.08439,14.65812,-20.10543
