Time (s),Gyroscope X (deg/s),Gyroscope Y (deg/s),Gyroscope Z (deg/s),Accelerometer X (g),Accelerometer Y (g),Accelerometer Z (g),Magnetometer X (uT),Magnetometer Y (uT),Magnetometer Z (uT)
63.202188015,2.724188,0.1182482,0.0922585699999997,0.9776431,-0.08196592,-0.1738814,-39.4712,-13.93507,10.96386
63.212099075,2.910002,-0.05650773,-0.03046724,0.9776641,-0.08536965,-0.1758249,-39.09832,-13.93661,10.57645
63.222010136,2.97194,-0.3477675,-0.03046724,0.980794,-0.0910845,-0.1634078,-39.09832,-13.93661,10.57645
63.231921673,2.97194,-0.639027300000002,-0.2759189,0.9832174,-0.08765039,-0.1614867,-39.09832,-13.93661,10.57645
63.241832733,2.724188,-0.813783199999999,-0.214556,0.9843358,-0.09488211,-0.1562635,-39.09832,-13.93661,10.57645
63.25174427,2.538374,-0.8720351,-0.4600076,0.9820304,-0.1011817,-0.1500421,-39.09832,-13.93661,10.57645
63.261655331,2.228683,-0.755531299999998,-0.3986447,0.9810536,-0.1016811,-0.1505165,-39.84684,-13.93667,10.58034
63.271565914,2.166745,-0.8720351,-0.2759189,0.981579,-0.1055585,-0.1515075,-39.84684,-13.93667,10.58034
63.281477451,1.795117,-0.755531299999998,-0.3372818,0.9810286,-0.1041331,-0.1558144,-39.84684,-13.93667,10.58034
63.291388512,1.733179,-0.8720351,-0.2759189,0.9799819,-0.09588851,-0.1528688,-39.84684,-13.93667,10.58034
63.301300049,1.609303,-0.813783199999999,-0.2759189,0.9795536,-0.1022045,-0.1543474,-39.84684,-13.93667,10.58034
63.311211109,1.609303,-0.6972793,-0.3986447,0.9814637,-0.1041551,-0.1611003,-39.10179,-13.56045,10.96076
63.321122646,1.671241,-0.580775400000001,-0.582733500000001,0.9791079,-0.1017003,-0.1495384,-39.10179,-13.56045,10.96076
63.33103323,1.547365,-0.5225234,-0.766822200000002,0.9799111,-0.09738875,-0.161521,-39.10179,-13.56045,10.96076
63.34094429,1.547365,-0.4642715,-0.4600076,0.9783786,-0.09353882,-0.1634018,-39.10179,-13.56045,10.96076
63.350855827,1.671241,-0.4642715,-0.4600076,0.9782718,-0.08871637,-0.1681703,-39.10179,-13.56045,10.96076
63.360766888,1.733179,-0.4060195,-0.4600076,0.9797496,-0.09210698,-0.1710875,-39.10664,-13.18585,10.95961
63.370678425,1.423489,-0.580775400000001,-0.5213705,0.9772665,-0.08971848,-0.1720089,-39.10664,-13.18585,10.95961
63.380589485,1.299613,-0.6972793,-0.3372818,0.9801747,-0.09213403,-0.1773337,-39.10664,-13.18585,10.95961
63.390501022,0.804108299999999,-0.5225234,-0.2759189,0.9752172,-0.08930384,-0.1806301,-39.10664,-13.18585,10.95961
63.400411606,0.494418,-0.639027300000002,-0.3986447,0.9766882,-0.08635648,-0.1767828,-39.10664,-13.18585,10.95961
63.410322666,0.1227897,-0.813783199999999,-0.3372818,0.9765943,-0.08591754,-0.1854218,-38.73723,-12.81123,10.95651
63.420234203,-0.2488386,-0.930287099999998,-0.5213705,0.9731309,-0.08207916,-0.1848841,-38.73723,-12.81123,10.95651
63.432623386,-0.6204669,-0.813783199999999,-0.3986447,0.9770821,-0.08542413,-0.1849429,-38.73723,-12.81123,10.95651
63.442534924,-0.8682191,-0.930287099999998,-0.4600076,0.9786401,-0.08974868,-0.1811448,-38.73723,-12.81123,10.95651
63.452445507,-1.054033,-0.988539100000001,-0.5213705,0.9790533,-0.08587955,-0.1840038,-38.73723,-12.81123,10.95651
63.462356567,-0.8682191,-0.6972793,-0.4600076,0.9796129,-0.08973908,-0.1816339,-39.10503,-13.18402,11.40932
63.472268105,-0.5585288,-0.4642715,-0.3986447,0.9736967,-0.08935008,-0.1858981,-39.10503,-13.18402,11.40932
63.482179165,-0.5585288,-0.2895156,-0.3372818,0.9752697,-0.09659357,-0.1840402,-39.10503,-13.18402,11.40932
63.492090702,0.0608516599999998,-0.4642715,-0.1531931,0.9800941,-0.09363937,-0.1869461,-39.10503,-13.18402,11.40932
63.502001763,0.494418,-0.2312636,-0.1531931,0.9801062,-0.0921697,-0.1840555,-39.10503,-13.18402,11.40932
63.5119133,0.804108299999999,-0.3477675,-0.09183015,0.9766423,-0.08540472,-0.1801371,-39.47605,-13.56048,10.96271
63.521823883,1.237675,-0.5225234,0.03089567,0.9732195,-0.09032574,-0.1859001,-39.47605,-13.56048,10.96271
63.531734944,1.175737,-0.755531299999998,-0.03046724,0.9763178,-0.09215458,-0.1720164,-39.47605,-13.56048,10.96271
63.541646481,1.423489,-0.755531299999998,0.03089567,0.9761326,-0.08737291,-0.1844669,-39.47605,-13.56048,10.96271
63.551557541,1.485427,-0.930287099999998,-0.09183015,0.9801916,-0.09602766,-0.1802407,-39.47605,-13.56048,10.96271
63.561469078,1.547365,-0.930287099999998,-0.214556,0.9826289,-0.09209857,-0.1763958,-38.73238,-13.18582,10.95766
63.571380138,1.547365,-0.639027300000002,-0.2759189,0.9868568,-0.08384068,-0.1835823,-38.73238,-13.18582,10.95766
63.581291675,1.361551,-0.4642715,-0.3986447,0.9839967,-0.08627813,-0.1792506,-38.73238,-13.18582,10.95766
63.591202259,1.423489,-0.4642715,-0.705459200000001,0.9780006,-0.07715014,-0.181055,-38.73238,-13.18582,10.95766
63.601113319,1.299613,-0.2312636,-0.4600076,0.9809597,-0.08051489,-0.1825453,-38.73238,-13.18582,10.95766
63.611024856,1.05186,-0.580775400000001,-0.582733500000001,0.9760386,-0.0762023,-0.1805504,-38.73723,-12.81123,10.95651
63.620935917,0.804108299999999,-0.4642715,-0.3372818,0.9736757,-0.0805805,-0.1776768,-38.73723,-12.81123,10.95651
63.630847454,0.680232200000002,-0.2895156,-0.3986447,0.9771796,-0.08781244,-0.1782375,-38.73723,-12.81123,10.95651
63.640758514,0.680232200000002,-0.5225234,-0.214556,0.9776579,-0.08195827,-0.172441,-38.73723,-12.81123,10.95651
63.650670051,0.618294100000002,-0.2895156,-0.03046724,0.9785938,-0.08587033,-0.1811186,-38.73723,-12.81123,10.95651
63.660580635,0.742170199999999,-0.4060195,-0.1531931,0.9737582,-0.09078154,-0.1815867,-39.09533,-13.93321,11.41163
63.670491695,0.927984400000002,-0.5225234,-0.09183015,0.9806124,-0.09361801,-0.1840698,-39.09533,-13.93321,11.41163
63.680403233,0.989922399999999,-0.3477675,-0.03046724,0.9785693,-0.08588307,-0.1835192,-39.09533,-13.93321,11.41163
63.690314293,0.927984400000002,-0.1730116,-0.03046724,0.9810221,-0.08243368,-0.1787173,-39.09533,-13.93321,11.41163
63.70022583,1.113798,-0.1147597,-0.1531931,0.98588,-0.08434016,-0.1840567,-39.09533,-13.93321,11.41163
63.712614536,0.989922399999999,0.0599961999999999,-0.1531931,0.9833257,-0.08052529,-0.1902497,-39.10018,-13.55862,11.41047
63.722525597,0.494418,-0.1730116,-0.03046724,0.9839388,-0.0814302,-0.1792178,-39.10018,-13.55862,11.41047
63.732437134,0.3086039,0.001744238,-0.03046724,0.9779624,-0.07765786,-0.1853794,-39.10018,-13.55862,11.41047
63.742348194,-0.1249625,-0.05650773,-0.09183015,0.9823965,-0.07221952,-0.1757811,-39.10018,-13.55862,11.41047
63.752259731,-0.6204669,-0.1147597,-0.1531931,0.9770371,-0.07422804,-0.176225,-39.10018,-13.55862,11.41047
63.762170792,-0.8682191,-0.1147597,0.03089567,0.9754879,-0.07185032,-0.1814766,-39.10365,-13.18246,11.79479
63.772081375,-0.992095199999997,0.001744238,0.0922585699999997,0.9809566,-0.07612628,-0.1777144,-39.10365,-13.18246,11.79479
63.781992912,-1.177909,-0.2895156,-0.03046724,0.9770924,-0.0829798,-0.1810854,-39.10365,-13.18246,11.79479
63.791903973,-1.425662,-0.1730116,0.2149844,0.9751232,-0.08349907,-0.1829913,-39.10365,-13.18246,11.79479
63.80181551,-1.673414,-0.2312636,0.3377102,0.980075,-0.08584446,-0.1796916,-39.10988,-12.80943,11.40817
63.81172657,-1.79729,0.1182482,0.3377102,0.9790977,-0.0887832,-0.1830633,-39.10988,-12.80943,11.40817
63.821638107,-1.79729,0.001744238,0.3377102,0.9766927,-0.09415903,-0.1854776,-39.10988,-12.80943,11.40817
63.831549168,-1.735352,-0.05650773,0.2763473,0.9747845,-0.098549,-0.1859694,-39.10988,-12.80943,11.40817
63.841459751,-1.611476,-0.05650773,0.2763473,0.980132,-0.1009367,-0.1917967,-39.10988,-12.80943,11.40817
63.851371288,-1.4876,0.0599961999999999,0.1536215,0.9796993,-0.09945022,-0.1845804,-39.10179,-13.56045,10.96076
63.861282349,-1.425662,0.293004,0.2149844,0.9791543,-0.1009489,-0.1917877,-39.10179,-13.56045,10.96076
63.871193886,-1.301785,0.5260119,0.2763473,0.9752159,-0.0966216,-0.1893217,-39.10179,-13.56045,10.96076
63.881104946,-1.054033,0.46776,0.3377102,0.9782189,-0.09996342,-0.1864907,-39.10179,-13.56045,10.96076
63.891016483,-0.744343000000003,0.5842639,0.2149844,0.9737613,-0.09517015,-0.1864176,-39.10179,-13.56045,10.96076
63.900927544,-0.682404900000003,0.700767799999999,0.1536215,0.9785973,-0.09318554,-0.18933,-38.73562,-12.8094,11.40622
63.910838604,-0.4965908,0.700767799999999,0.1536215,0.976097,-0.08934265,-0.1902416,-38.73562,-12.8094,11.40622
63.920749664,-0.1869005,0.700767799999999,0.03089567,0.9751758,-0.0907888,-0.1864015,-38.73562,-12.8094,11.40622
63.930661201,-0.06302445,0.46776,0.2149844,0.9780283,-0.08689185,-0.189763,-38.73562,-12.8094,11.40622
63.940572262,-0.1869005,0.5260119,0.1536215,0.9755778,-0.08351083,-0.1863567,-38.73562,-12.8094,11.40622
63.950483799,0.1847278,0.5260119,0.2149844,0.9804437,-0.08443753,-0.189769,-38.72269,-13.93501,10.95997
63.960394859,0.3705419,0.642515800000001,0.3990731,0.9823774,-0.08052215,-0.18736,-38.72269,-13.93501,10.95997
63.970306396,0.5563561,0.409508,0.0922585699999997,0.9809392,-0.08003774,-0.1839824,-38.72269,-13.93501,10.95997
63.98021698,0.804108299999999,0.817271699999998,0.3990731,0.9765952,-0.08640488,-0.1859052,-38.72269,-13.93501,10.95997
63.992606163,1.113798,0.642515800000001,0.3990731,0.9796303,-0.09119346,-0.1816438,-38.72269,-13.93501,10.95997
64.002517223,1.237675,0.642515800000001,0.0922585699999997,0.9792945,-0.09990032,-0.1768971,-38.72108,-13.93318,11.40968
64.012428761,1.795117,0.46776,0.0922585699999997,0.9821566,-0.09843753,-0.1821956,-38.72108,-13.93318,11.40968
64.022339821,1.857055,0.1182482,-0.214556,0.9855617,-0.0945014,-0.1793199,-38.72108,-13.93318,11.40968
64.032250404,1.918993,0.1182482,-0.214556,0.9845763,-0.09305406,-0.1783408,-38.72108,-13.93318,11.40968
64.042161942,1.857055,-0.3477675,-0.5213705,0.9851707,-0.09445651,-0.1697128,-38.72108,-13.93318,11.40968
64.052073002,1.299613,-0.4060195,-0.582733500000001,0.9826422,-0.088677,-0.1710914,-38.72754,-13.56042,10.95882
64.061984539,0.927984400000002,-0.580775400000001,-0.705459200000001,0.9787869,-0.08967225,-0.1667409,-38.72754,-13.56042,10.95882
64.071895599,0.2466658,-0.639027300000002,-0.828185100000001,0.9778172,-0.08870461,-0.1648049,-38.72754,-13.56042,10.95882
64.081807137,0.0608516599999998,-0.3477675,-0.766822200000002,0.9719741,-0.09071665,-0.1647643,-38.72754,-13.56042,10.95882
64.091718197,-0.3727147,-0.05650773,-0.3986447,0.9710213,-0.09900849,-0.1720131,-38.72754,-13.56042,10.95882
64.101629257,-0.1249625,0.409508,-0.1531931,0.9739077,-0.09753297,-0.1749109,-39.10018,-13.55862,11.41047
64.111540318,0.1227897,0.5842639,-0.03046724,0.9729937,-0.09751199,-0.1686602,-39.10018,-13.55862,11.41047
64.121451855,0.618294100000002,0.875523700000001,0.0922585699999997,0.9787874,-0.09796467,-0.1763994,-39.10018,-13.55862,11.41047
64.131362915,1.175737,0.933775699999999,0.1536215,0.9763014,-0.0965534,-0.1787677,-39.10018,-13.55862,11.41047
64.141274452,1.485427,0.700767799999999,0.0922585699999997,0.9802201,-0.09552504,-0.1768765,-39.10018,-13.55862,11.41047
64.151185513,1.609303,0.642515800000001,-0.09183015,0.9826565,-0.09647445,-0.178826,-39.4712,-13.93507,10.96386
64.16109705,1.547365,0.293004,-0.09183015,0.9811267,-0.09408654,-0.1821571,-39.4712,-13.93507,10.96386
64.171007633,1.423489,0.409508,-0.3986447,0.9811441,-0.09017508,-0.1758891,-39.4712,-13.93507,10.96386
64.180918694,1.299613,0.5260119,-0.644096300000003,0.9873956,-0.08966229,-0.1855467,-39.4712,-13.93507,10.96386
64.190830231,1.05186,0.5842639,-0.582733500000001,0.9874009,-0.0872205,-0.1821693,-39.4712,-13.93507,10.96386
64.200741291,1.175737,0.409508,-0.4600076,0.9789544,-0.08007731,-0.1868452,-38.72108,-13.93318,11.40968
64.210652828,1.113798,0.351256,-0.3986447,0.9799575,-0.07517393,-0.1786591,-38.72108,-13.93318,11.40968
64.220563889,0.866046300000002,0.5842639,-0.3372818,0.9770371,-0.07422804,-0.176225,-38.72108,-13.93318,11.40968
64.230475426,0.804108299999999,0.351256,-0.03046724,0.9760706,-0.07228318,-0.172842,-38.72108,-13.93318,11.40968
64.240386009,0.3705419,0.1182482,-0.03046724,0.9760173,-0.0752378,-0.1815041,-38.72108,-13.93318,11.40968
64.25029707,-0.001086392,0.1765001,0.03089567,0.9736864,-0.0756969,-0.1709221,-39.10503,-13.18402,11.40932
64.262686729,-0.744343000000003,0.1182482,0.03089567,0.9756967,-0.08149777,-0.1724198,-39.10503,-13.18402,11.40932
64.27259779,-0.8682191,-0.05650773,0.1536215,0.98214,-0.09210464,-0.1763913,-39.10503,-13.18402,11.40932
64.282509327,-0.9301572,0.0599961999999999,-0.03046724,0.9768129,-0.09555991,-0.1754048,-39.10503,-13.18402,11.40932
64.29241991,-0.682404900000003,0.2347521,-0.09183015,0.9812491,-0.09938869,-0.1764316,-39.10503,-13.18402,11.40932
64.302330971,-0.1249625,0.2347521,-0.1531931,0.9822575,-0.09740935,-0.171146,-39.10018,-13.55862,11.41047
64.312242508,0.2466658,0.46776,-0.03046724,0.9842273,-0.09981666,-0.1726207,-39.10018,-13.55862,11.41047
64.322153568,0.804108299999999,0.5260119,0.2149844,0.9812161,-0.09745461,-0.1773787,-39.10018,-13.55862,11.41047
64.332065106,1.113798,0.700767799999999,-0.09183015,0.9762982,-0.09216478,-0.1739369,-39.10018,-13.55862,11.41047
64.341976166,0.989922399999999,0.5842639,-0.09183015,0.9815127,-0.08340229,-0.1796887,-39.10018,-13.55862,11.41047
64.351887703,0.989922399999999,0.351256,-0.1531931,0.978669,-0.08680679,-0.1748835,-39.47284,-13.55682,11.86213
64.361798287,0.494418,0.2347521,-0.03046724,0.9785648,-0.07808052,-0.1748244,-39.47284,-13.55682,11.86213
64.371709347,-0.001086392,0.1182482,0.03089567,0.9794935,-0.07272801,-0.1733568,-39.47284,-13.55682,11.86213
64.381620884,-0.744343000000003,0.0599961999999999,0.03089567,0.9814463,-0.0712417,-0.1719245,-39.47284,-13.55682,11.86213
64.391531944,-1.239847,0.1765001,0.0922585699999997,0.9786204,-0.07902718,-0.1705098,-39.47284,-13.55682,11.86213
64.401443482,-1.363724,-0.05650773,0.0922585699999997,0.9800197,-0.07709271,-0.1748312,-39.10664,-13.18585,10.95961
64.411354542,-1.735352,-0.1147597,0.0922585699999997,0.9786699,-0.08729413,-0.1753669,-39.10664,-13.18585,10.95961
64.421266079,-1.549538,0.001744238,0.1536215,0.978689,-0.0897232,-0.1763435,-39.10664,-13.18585,10.95961
64.431176663,-1.4876,0.1765001,0.2149844,0.9801164,-0.08972536,-0.180198,-39.10664,-13.18585,10.95961
64.441087723,-1.239847,0.293004,0.0922585699999997,0.9786574,-0.09120306,-0.1811547,-39.10664,-13.18585,10.95961
64.45099926,-0.992095199999997,0.0599961999999999,0.2763473,0.9762083,-0.09123597,-0.1816124,-39.11149,-12.81126,10.95845
64.46091032,-0.6204669,-0.05650773,0.03089567,0.9777336,-0.09118718,-0.1758643,-39.11149,-12.81126,10.95845
64.470821858,-0.6204669,-0.1147597,0.03089567,0.9757572,-0.09317356,-0.1801807,-39.11149,-12.81126,10.95845
64.480732918,-0.4346527,-0.05650773,-0.09183015,0.9752818,-0.08975806,-0.1748718,-39.11149,-12.81126,10.95845
64.490644455,-0.3107767,-0.3477675,-0.1531931,0.9791957,-0.08873224,-0.1734607,-39.11149,-12.81126,10.95845
64.500555515,-0.4346527,-0.4060195,0.1536215,0.9792122,-0.08969928,-0.1729871,-38.73238,-13.18582,10.95766
64.510466099,-0.5585288,-0.3477675,0.1536215,0.9797081,-0.09359194,-0.1768589,-38.73238,-13.18582,10.95766
64.520377636,-0.3727147,-0.2895156,0.2149844,0.9806979,-0.09211012,-0.1739772,-38.73238,-13.18582,10.95766
64.530288696,-0.4965908,-0.1730116,0.2149844,0.9797562,-0.08771328,-0.1652964,-38.73238,-13.18582,10.95766
64.540200234,-0.4346527,0.001744238,0.0922585699999997,0.9792229,-0.09018153,-0.1725103,-38.73238,-13.18582,10.95766
64.552589416,-0.682404900000003,0.001744238,0.0922585699999997,0.9771725,-0.08391371,-0.1743702,-38.72593,-13.55859,11.40853
64.5625,-0.4965908,0.001744238,0.03089567,0.9741864,-0.08446552,-0.1801081,-38.72593,-13.55859,11.40853
64.572411537,-0.4965908,0.001744238,-0.1531931,0.9776325,-0.08684952,-0.1806361,-38.72593,-13.55859,11.40853
64.582322597,-0.3107767,-0.1730116,-0.03046724,0.9767127,-0.09170958,-0.1806599,-38.72593,-13.55859,11.40853
64.592234135,-0.1249625,-0.2312636,-0.09183015,0.9806004,-0.08972184,-0.1806826,-38.72593,-13.55859,11.40853
64.602145195,-0.001086392,-0.2312636,-0.1531931,0.9811115,-0.0911676,-0.1802168,-39.09533,-13.93321,11.41163
64.612056732,0.1847278,-0.2895156,0.03089567,0.977697,-0.08730374,-0.1748778,-39.09533,-13.93321,11.41163
64.621967792,0.1227328,-0.4637797,-0.153174,0.9814575,-0.08001638,-0.1811061,-39.09533,-13.93321,11.41163
64.631878376,-0.3727702,-0.696131899999999,-0.2144409,0.9796775,-0.09019329,-0.1758757,-39.09533,-13.93321,11.41163
64.641789913,-0.372302,-0.637042100000002,0.0924309699999998,0.9801622,-0.08531126,-0.1705659,-39.09533,-13.93321,11.41163
64.651700973,-0.3717566,-0.461541,0.2151756,0.9748521,-0.09266014,-0.1724864,-39.08749,-14.30441,12.24796
64.661612511,-0.4951268,-0.2281364,0.2151173,0.9787042,-0.09264214,-0.1782838,-39.08749,-14.30441,12.24796
64.671523571,-0.3708233,0.005084823,0.1533878,0.9791997,-0.0936082,-0.1787749,-39.08749,-14.30441,12.24796
64.681435108,0.000998406300000002,-0.1694762,0.0918900999999999,0.9777358,-0.09508845,-0.1802118,-39.08749,-14.30441,12.24796
64.691346168,0.310454,-0.1692816,-0.03085477,0.9811226,-0.08921058,-0.1768428,-39.08749,-14.30441,12.24796
64.701257706,0.4339013,0.0637558799999999,-0.0920247400000002,0.9776618,-0.08683423,-0.1777553,-38.72455,-13.55702,11.794
64.711168289,0.4952359,-0.2274559,-0.03048844,0.9756406,-0.08299037,-0.1796316,-38.72455,-13.55702,11.794
64.721079349,0.5566103,-0.05256069,-0.03045014,0.9786164,-0.08488292,-0.1777511,-38.72455,-13.55702,11.794
64.730990887,0.2463765,-0.4017686,0.1535612,0.9762439,-0.08390038,-0.1695599,-38.72455,-13.55702,11.794
64.740901947,0.3078495,-0.634125399999997,0.09188981,0.9825274,-0.08483433,-0.1777869,-38.72455,-13.55702,11.794
64.750813484,0.0597689900000003,-0.866300200000001,0.2757282,0.9806062,-0.09020663,-0.1806859,-38.72269,-13.93501,10.95997
64.760724544,0.1214569,-0.806996699999999,0.0913895099999998,0.9787282,-0.08970281,-0.1725025,-38.72269,-13.93501,10.95997
64.770636082,0.1214016,-0.922596799999999,0.03002747,0.9839846,-0.0877478,-0.1821413,-38.72269,-13.93501,10.95997
64.780546665,-0.0645067000000002,-0.688503300000001,-0.0925818800000001,0.9806267,-0.09068378,-0.1792488,-38.72269,-13.93501,10.95997
64.790458202,0.1213885,-0.3965617,-0.15379,0.9826574,-0.09159595,-0.1730316,-38.72269,-13.93501,10.95997
64.800369263,0.0593952499999999,-0.1631838,-0.0921568100000003,0.9820772,-0.08725927,-0.1768386,-38.72754,-13.56042,10.95882
64.8102808,-0.002695186,-0.04645663,-0.0919447100000002,0.9811556,-0.09114467,-0.1758957,-38.72754,-13.56042,10.95882
64.822669983,0.0590720399999999,-0.1045259,-0.03034113,0.9776106,-0.08832428,-0.184487,-38.72754,-13.56042,10.95882
64.832580566,0.1827767,-0.3372927,0.1537664,0.9737951,-0.08685987,-0.1733983,-38.72754,-13.56042,10.95882
64.842491627,0.1206869,-0.2787635,0.276222,0.9766214,-0.08736683,-0.1844714,-38.73425,-12.80783,11.79169
64.852403164,-0.1891744,-0.2783036,0.2145507,0.9771057,-0.08492406,-0.1820588,-38.73425,-12.80783,11.79169
64.862314224,0.1205978,-0.685461600000002,0.1529183,0.9810296,-0.08389316,-0.1796875,-38.73425,-12.80783,11.79169
64.872225761,-0.1890105,-0.4518124,0.2140699,0.9775879,-0.08394586,-0.1815766,-38.73425,-12.80783,11.79169
64.882136822,-0.3125325,-0.4511351,0.275241,0.9820772,-0.08725927,-0.1768386,-38.73425,-12.80783,11.79169
64.892048359,-0.3120037,-0.334156,0.1522465,0.9752439,-0.09319238,-0.1825769,-39.10664,-13.18585,10.95961
64.901959419,-0.1257782,-0.217269,0.274704,0.9835211,-0.08822847,-0.1802195,-39.10664,-13.18585,10.95961
64.911870003,0.1220931,-0.3334817,0.2742819,0.9820693,-0.08823904,-0.1787657,-39.10664,-13.18585,10.95961
64.92178154,-0.1255596,-0.3912965,0.2740145,0.9800501,-0.08829645,-0.1849895,-39.10664,-13.18585,10.95961
64.9316926,-0.001603586,-0.2743926,0.02837286,0.9795849,-0.08780245,-0.1821009,-39.10664,-13.18585,10.95961
64.941604137,-0.1253804,-0.3321901,0.1508703,0.9786174,-0.09073611,-0.1845123,-38.72593,-13.55859,11.40853
64.951515198,-0.3110176,-0.2154336,-0.03333081,0.978555,-0.08881731,-0.1883402,-38.72593,-13.55859,11.40853
64.961426735,-0.3106659,-0.04048036,0.0893983400000002,0.9785581,-0.08247423,-0.1806155,-38.72593,-13.55859,11.40853
64.971337795,-0.4959536,-0.04046613,0.2732977,0.9751589,-0.08689517,-0.1834944,-38.72593,-13.55859,11.40853
64.981249332,-0.6810281,0.0760154299999998,0.3343751,0.9751598,-0.08738251,-0.1839779,-38.72593,-13.55859,11.40853
64.991159916,-0.4944753,0.01770458,0.2725344,0.9785604,-0.0863755,-0.1849629,-39.10365,-13.18246,11.79479
65.001071453,-0.4319745,0.1341314,0.4561266,0.9766575,-0.08832368,-0.1820773,-39.10365,-13.18246,11.79479
65.010982513,-0.4314319,0.01744067,0.5169166,0.9781187,-0.08538142,-0.1791903,-39.10365,-13.18246,11.79479
65.020894051,-0.3689715,-0.09915835,0.5775724,0.9791636,-0.09265135,-0.181169,-39.10365,-13.18246,11.79479
65.030805111,-0.2447097,0.01737866,0.9448509,0.9801031,-0.08778109,-0.1792246,-39.10365,-13.18246,11.79479
65.040716648,-0.1204873,-0.2737749,0.821111800000001,0.9791979,-0.08726768,-0.1715303,-38.35167,-13.55856,11.40658
65.050627708,-0.2441537,-0.0988214800000002,0.881327699999998,0.9883649,-0.08233749,-0.1778243,-38.35167,-13.55856,11.40658
65.060538292,-0.3058046,-0.1569859,0.880220700000003,0.9879223,-0.0862219,-0.1778461,-38.35167,-13.55856,11.40658
65.070449829,-0.4911373,-0.04055923,0.695084200000002,0.9859793,-0.08233728,-0.1720403,-38.35167,-13.55856,11.40658
65.080360889,-0.614415899999998,0.2503673,0.5100261,0.9796521,-0.08971869,-0.1777929,-38.35167,-13.55856,11.40658
65.090272427,-0.861338100000002,0.54102,0.631937799999999,0.9801632,-0.0857986,-0.1710493,-39.09533,-13.93321,11.41163
65.10266161,-0.983900999999998,0.540189,0.692231600000001,0.9762866,-0.0911952,-0.1739303,-39.09533,-13.93321,11.41163
65.11257267,-1.044642,0.655996100000001,0.7526865,0.9758828,-0.09749848,-0.1730083,-39.09533,-13.93321,11.41163
65.122483254,-0.671876700000001,0.5386316,0.8131233,0.9699456,-0.09370574,-0.1753289,-39.09533,-13.93321,11.41163
65.132394791,-0.3614593,0.479758,0.812198300000002,0.9675832,-0.1010106,-0.1758359,-39.09533,-13.93321,11.41163
65.142305851,0.3199242,0.4791188,0.749892399999999,0.9714995,-0.103886,-0.1787722,-38.72754,-13.56042,10.95882
65.152217388,1.248146,0.827900600000002,0.8103905,0.9817879,-0.1052103,-0.178396,-38.72754,-13.56042,10.95882
65.162128449,1.989562,0.768517400000002,0.686666000000001,0.9814637,-0.1095209,-0.1673781,-38.72754,-13.56042,10.95882
65.172039986,2.977702,0.592814400000002,0.931043099999999,0.9746865,-0.1139614,-0.1659045,-38.72754,-13.56042,10.95882
65.181951046,4.088302,0.766697699999998,1.113885,0.9781097,-0.111967,-0.1635221,-38.72754,-13.56042,10.95882
65.191862106,5.197546,1.056921,1.296479,0.9796427,-0.1187436,-0.1650219,-39.10317,-13.56202,10.57529
65.201773167,6.56018400000002,1.173425,1.419204,0.9782922,-0.1206525,-0.1558991,-39.10317,-13.56202,10.57529
65.211684704,7.48925399999998,1.406433,1.726019,0.9799566,-0.1322388,-0.1502298,-39.10317,-13.56202,10.57529
65.221595764,8.66607700000002,1.406433,2.032833,0.9819944,-0.1316838,-0.1416021,-39.10317,-13.56202,10.57529
65.231507301,10.27647,0.998669400000002,1.848745,0.9827976,-0.1220064,-0.147307,-39.10317,-13.56202,10.57529
65.241418362,11.51523,1.056921,0.682849499999999,0.9828537,-0.1205138,-0.1400952,-39.10664,-13.18585,10.95961
65.251329899,11.94879,1.930701,-0.1148682,0.9852499,-0.1156304,-0.1391245,-39.10664,-13.18585,10.95961
65.261240959,12.25848,2.454968,-0.1762311,0.9744313,-0.1157971,-0.1452676,-39.10664,-13.18585,10.95961
65.271151543,12.38236,2.105456,-0.3603199,0.9835887,-0.1030669,-0.1433468,-39.10664,-13.18585,10.95961
65.28106308,12.19655,2.280212,-0.728497300000001,0.9880545,-0.1015146,-0.1352151,-39.10664,-13.18585,10.95961
65.29097414,12.19655,3.09574,-0.973949000000003,0.9933339,-0.1014988,-0.144867,-38.73562,-12.8094,11.40622
65.300885677,12.4443,3.853015,-1.587578,0.9825135,-0.1006908,-0.1500433,-38.73562,-12.8094,11.40622
65.310796738,13.12562,4.086024,-2.139844,0.9790367,-0.09490815,-0.1485321,-38.73562,-12.8094,11.40622
65.320708275,13.43531,3.503504,-2.508022,0.9780161,-0.09299131,-0.1504305,-38.73562,-12.8094,11.40622
65.330619335,13.745,2.862732,-2.323933,0.9766921,-0.08050075,-0.1695414,-38.73562,-12.8094,11.40622
65.340530872,14.2405,1.581189,-2.201207,0.9678788,-0.07037336,-0.158829,-38.72455,-13.55702,11.794
65.350441456,14.05469,0.707409600000001,-2.26257,0.9599043,-0.06469632,-0.1668801,-38.72455,-13.55702,11.794
65.360352516,13.68306,0.1248899,-2.630748,0.9587283,-0.05017741,-0.1691733,-38.72455,-13.55702,11.794
65.370264053,12.69205,-0.574133599999999,-4.103457,0.965511,-0.03792926,-0.1609917,-38.72455,-13.55702,11.794
65.382653236,10.3384,-0.923645399999998,-6.37388399999999,0.9921842,-0.02502377,-0.1673945,-38.72455,-13.55702,11.794
65.392564774,7.86088299999998,-0.3993778,-7.72386799999998,0.9950534,-0.02209387,-0.1702824,-39.10018,-13.55862,11.41047
65.402475357,5.135609,0.2413938,-8.828401,0.9815993,-0.006292787,-0.1762948,-39.10018,-13.55862,11.41047
65.412386417,1.295449,0.998669400000002,-9.56475499999999,0.9831101,-0.01161748,-0.1782649,-39.10018,-13.55862,11.41047
65.422297955,-2.668586,2.047204,-8.828401,0.9993855,-0.02256223,-0.177528,-39.10018,-13.55862,11.41047
65.432209015,-6.446807,2.687976,-6.49661000000001,1.013047,-0.03704044,-0.1974373,-39.10018,-13.55862,11.41047
65.442120552,-10.47278,2.163708,-3.551191,1.028081,-0.04325642,-0.2168241,-39.10988,-12.80943,11.40817
65.452031613,-14.62263,1.872449,0.1305834,1.042571,-0.04072671,-0.231346,-39.10988,-12.80943,11.40817
65.46194315,-19.02023,1.639441,2.462374,1.047887,-0.02605752,-0.2202538,-39.10988,-12.80943,11.40817
65.47185421,-25.33791,0.0666379299999997,4.241899,1.036142,-0.03791728,-0.2351091,-39.10988,-12.80943,11.40817
65.481764794,-31.96528,0.5909056,5.653245,1.011459,-0.003711438,-0.2178474,-39.10988,-12.80943,11.40817
65.491676331,-38.71653,1.056921,6.38960000000002,0.9757718,-0.004154738,-0.2175203,-38.72108,-13.93318,11.40968
65.501587391,-45.71553,-0.2246219,7.248681,0.9390086,0.00899714,-0.2108506,-38.72108,-13.93318,11.40968
65.511498928,-50.85639,-1.913929,6.880504,0.9320635,-0.02894091,-0.2172812,-38.72108,-13.93318,11.40968
65.521409989,-51.10414,-1.156653,4.855527,0.9171952,-0.09117089,-0.2141971,-38.72108,-13.93318,11.40968
65.531321526,-45.3439,1.755945,1.848745,0.8986499,-0.1982058,-0.2406673,-38.72108,-13.93318,11.40968
65.541232586,-36.30095,3.794764,-0.1762311,0.8970355,-0.2714628,-0.2454618,-38.72754,-13.56042,10.95882
65.551144123,-28.00125,4.319031,-1.342126,0.9032233,-0.307072,-0.2083039,-38.72754,-13.56042,10.95882
65.561054706,-22.67458,4.668543,-0.8512232,0.9332006,-0.2905225,-0.1743796,-38.72754,-13.56042,10.95882
65.570965767,-17.90535,4.726795,-0.789860199999999,0.9453179,-0.260181,-0.1493213,-38.72754,-13.56042,10.95882
65.580877304,-11.27798,3.503504,-2.323933,0.9721506,-0.2379244,-0.1292546,-38.72754,-13.56042,10.95882
65.590788364,-1.182073,1.872449,-4.348908,0.9945372,-0.2333073,-0.1342324,-39.09993,-13.93844,10.12674
65.600699901,9.22351900000001,1.173425,-6.742062,1.010054,-0.2283008,-0.1410648,-39.09993,-13.93844,10.12674
65.610610962,18.20454,1.522937,-7.53978,1.006993,-0.233282,-0.1593157,-39.09993,-13.93844,10.12674
65.620522499,25.1416,2.51322,-7.846594,0.9983948,-0.2262177,-0.1788756,-39.09993,-13.93844,10.12674
65.630433559,29.5392,3.212244,-7.60114200000001,0.9877288,-0.2006997,-0.18773,-39.09993,-13.93844,10.12674
65.640344143,31.76897,2.746228,-7.60114200000001,0.9787511,-0.1577353,-0.2022456,-39.09832,-13.93661,10.57645
65.65025568,32.45029,3.328748,-8.58294900000001,0.9874544,-0.09499756,-0.1860629,-39.09832,-13.93661,10.57645
65.662644863,29.41532,5.600574,-7.846594,0.9909394,-0.04443881,-0.1684726,-39.09832,-13.93661,10.57645
65.6725564,26.07067,5.89183400000002,-6.06706999999998,0.9692696,-0.03503307,-0.172531,-39.09832,-13.93661,10.57645
65.682467461,23.46927,4.668543,-4.287546,0.9480352,-0.02857589,-0.1852559,-38.71921,-14.31118,10.57566
65.692378998,20.86787,3.153992,-2.937562,0.9513434,-0.02517805,-0.1924662,-38.71921,-14.31118,10.57566
65.702289581,17.83291,2.396716,-2.446659,0.9620181,-0.01337884,-0.1867244,-38.71921,-14.31118,10.57566
65.712200642,14.48825,2.280212,-2.508022,0.9748235,0.01194594,-0.1957971,-38.71921,-14.31118,10.57566
65.722112179,9.65708500000002,2.80448,-3.121651,0.9976512,0.03995881,-0.1780557,-38.71921,-14.31118,10.57566
65.732023239,3.339405,4.493787,-3.121651,1.01875,0.05147973,-0.1575273,-38.71299,-14.68421,10.96228
65.741934776,-2.8544,6.35784999999997,-2.998925,1.034152,0.0478941,-0.1380072,-38.71299,-14.68421,10.96228
65.751845837,-7.43781600000003,8.04715600000001,-2.508022,1.03741,0.02273404,-0.1358041,-38.71299,-14.68421,10.96228
65.761757374,-10.78247,9.445203,-2.139844,1.041405,-0.01448625,-0.1236049,-38.71299,-14.68421,10.96228
65.771668434,-13.01224,10.785,-0.667134400000002,1.045817,-0.06588432,-0.1350318,-38.71299,-14.68421,10.96228
65.781579018,-13.01224,11.65878,0.928301200000001,1.036883,-0.1092304,-0.1510831,-38.73052,-13.56382,10.12364
65.791490555,-10.53472,11.19276,1.480567,1.013922,-0.1236537,-0.1658518,-38.73052,-13.56382,10.12364
65.801401615,-6.75649699999998,9.50345500000002,0.621486600000001,0.9873396,-0.1279798,-0.1882022,-38.73052,-13.56382,10.12364
65.811313152,-1.863391,7.52288900000002,0.0692204999999997,0.9820074,-0.1260717,-0.181418,-38.73052,-13.56382,10.12364
65.821224213,1.852892,6.474354,0.5601237,0.9797678,-0.1201419,-0.1544689,-38.73052,-13.56382,10.12364
65.83113575,3.834909,5.367567,0.1919463,0.9973904,-0.1033257,-0.1329127,-39.09993,-13.93844,10.12674
65.84104681,4.516228,5.83358200000001,-1.158038,1.022249,-0.08988322,-0.1248904,-39.09993,-13.93844,10.12674
65.850958347,5.259485,7.63939299999999,-2.017118,1.024047,-0.06798975,-0.1146778,-39.09993,-13.93844,10.12674
65.860868931,5.569175,10.02772,-2.323933,1.020851,-0.04718773,-0.1159502,-39.09993,-13.93844,10.12674
65.870779991,6.002741,11.60053,-2.569385,1.011683,-0.02602475,-0.126768,-39.09993,-13.93844,10.12674
65.880691528,6.56018400000002,13.11508,-2.139844,1.003113,-0.01016549,-0.1333053,-39.46102,-15.06383,9.746675
65.890602589,6.31243099999999,14.10536,-1.83303,0.9980202,0.01308206,-0.125901,-39.46102,-15.06383,9.746675
65.900514126,4.640104,14.86264,-1.403489,1.006698,0.03166445,-0.1162543,-39.46102,-15.06383,9.746675
65.910425186,1.543201,15.09564,-0.728497300000001,1.013521,0.03759246,-0.1114763,-39.46102,-15.06383,9.746675
65.920336723,-1.925329,15.56166,0.1305834,1.030759,0.02957881,-0.1088082,-39.46102,-15.06383,9.746675
65.930247784,-4.402851,16.55194,0.989664000000002,1.039838,0.005443376,-0.1100132,-38.71572,-15.06743,8.843361
65.94263649,-3.349905,17.89174,1.726019,1.062694,-0.01554957,-0.09932083,-38.71572,-15.06743,8.843361
65.952548027,-0.872382600000001,19.52279,1.54193,1.070761,-0.03434914,-0.09760005,-38.71572,-15.06743,8.843361
65.962459087,1.605139,21.85287,1.54193,1.072488,-0.05907319,-0.1011418,-38.71572,-15.06743,8.843361
65.972370625,2.905838,22.72665,2.339648,1.045691,-0.1003362,-0.1400617,-38.71572,-15.06743,8.843361
65.982281685,5.011733,19.93056,3.996447,0.9864963,-0.1264585,-0.1732994,-39.10292,-13.94184,9.291555
65.992193222,6.49824599999998,15.44516,4.732802,0.9478872,-0.135713,-0.182127,-39.10292,-13.94184,9.291555
66.002103806,7.86088299999998,11.25101,4.671439,0.9402929,-0.1556917,-0.1831502,-39.10292,-13.94184,9.291555
66.012014866,8.97576700000001,8.57142399999998,4.610076,0.9682614,-0.1635845,-0.1829812,-39.10292,-13.94184,9.291555
66.021926403,10.89585,8.62967599999999,4.180536,0.9941381,-0.1713242,-0.1482206,-39.10292,-13.94184,9.291555
66.031837463,14.42632,11.48402,2.707825,1.009977,-0.1544431,-0.1098419,-39.48016,-13.94527,8.458323
66.041749001,19.4433,17.19271,1.051027,0.9906477,-0.09920716,-0.07040236,-39.48016,-13.94527,8.458323
66.051660061,21.48725,23.13441,-0.4830456,0.940049,0.02490886,-0.04317901,-39.48016,-13.94527,8.458323
66.061571598,18.32841,25.46449,-3.73528,0.8702868,0.1855619,-0.02993976,-39.48016,-13.94527,8.458323
66.071482658,8.78995200000002,24.1247,-7.66250600000002,0.7880447,0.3110552,-0.03506535,-39.48016,-13.94527,8.458323
66.081393242,-6.07517900000002,18.59076,-11.34428,0.7569839,0.364922,-0.04450256,-39.48177,-13.9471,8.008612
66.091304779,-22.11713,9.61995899999999,-13.00108,0.7546448,0.3395805,-0.06385607,-39.48177,-13.9471,8.008612
66.101215839,-35.68156,-0.923645399999998,-11.58973,0.7980747,0.2561862,-0.07489663,-39.48177,-13.9471,8.008612
66.111127377,-44.91034,-9.54493599999997,-6.00570699999999,0.8838052,0.1132089,-0.08384436,-39.48177,-13.9471,8.008612
66.121038437,-51.97127,-14.4381,1.664656,0.981591,-0.03725947,-0.07038607,-39.48177,-13.9471,8.008612
66.130949974,-56.43081,-14.72936,8.29185000000001,1.055553,-0.1769863,-0.07872316,-39.48476,-13.9505,7.173431
66.140861034,-56.30693,-14.14684,11.42136,1.048072,-0.2534915,-0.134862,-39.48476,-13.9505,7.173431
66.150772572,-55.00624,-14.37985,9.45774600000002,1.012061,-0.2767822,-0.1452476,-39.48476,-13.9505,7.173431
66.160683155,-55.87337,-14.72936,5.162342,0.9405733,-0.2479716,-0.1208668,-39.48476,-13.9505,7.173431
66.170594692,-57.42182,-14.14684,1.357842,0.921133,-0.1962082,-0.09633425,-39.48476,-13.9505,7.173431
66.180505753,-56.92632,-16.36042,-0.1762311,0.90937,-0.1905161,-0.09234627,-39.1008,-14.69966,7.173792
66.19041729,-49.36987,-21.54484,-0.05350532,0.9061288,-0.2197327,-0.1088363,-39.1008,-14.69966,7.173792
66.20032835,-34.07117,-24.63219,2.646462,0.936845,-0.2567057,-0.113208,-39.1008,-14.69966,7.173792
66.210239887,-16.72853,-25.50597,4.732802,0.9860684,-0.2715328,-0.09887707,-39.1008,-14.69966,7.173792
66.222628117,-1.677577,-20.20505,5.100979,1.072838,-0.2754503,-0.03440411,-39.1008,-14.69966,7.173792
66.232539654,5.197546,-12.10802,3.44418,1.120358,-0.2572481,-0.004472355,-39.47345,-14.69786,7.625452
66.242450714,10.89585,-7.21485700000003,-0.3603199,1.134363,-0.2013122,-0.003749073,-39.47345,-14.69786,7.625452
66.252362251,16.40833,-5.292542,-4.226182,1.138292,-0.1449172,0.01627678,-39.47345,-14.69786,7.625452
66.262273312,21.48725,-2.146937,-6.00570699999999,1.117001,-0.09483528,0.00144227,-39.47345,-14.69786,7.625452
66.272184849,25.01772,-0.108118,-6.18979499999998,1.064629,-0.04333183,-0.03854372,-39.47345,-14.69786,7.625452
66.282095909,26.99974,-0.1663699,-5.637529,1.003728,-0.01911413,-0.08391434,-39.84148,-15.07092,8.014019
66.292007446,26.31842,-1.622669,-3.919369,0.9625031,0.01077602,-0.1111831,-39.84148,-15.07092,8.014019
66.301918507,22.5402,-2.84596,-2.998925,0.9379772,0.01286833,-0.1162241,-39.84148,-15.07092,8.014019
66.31182909,19.07167,-4.418763,-2.201207,0.9280044,0.009718372,-0.1387203,-39.84148,-15.07092,8.014019
66.321740627,16.47027,-7.68087299999998,-2.201207,0.933265,-0.003934259,-0.1662289,-39.84148,-15.07092,8.014019
66.331651688,15.10763,-11.46725,-2.630748,0.9456221,-0.02956564,-0.1833195,-39.46722,-15.07089,8.012072
66.341563225,14.67407,-13.15656,-3.489828,0.9642386,-0.04833863,-0.2018627,-39.46722,-15.07089,8.012072
66.351474285,15.72701,-13.21481,-4.348908,0.9615335,-0.08191494,-0.218867,-39.46722,-15.07089,8.012072
66.361385822,18.1426,-12.9818,-4.839812,0.9649895,-0.1003914,-0.237268,-39.46722,-15.07089,8.012072
66.371296883,21.05369,-12.28278,-5.207989,0.9806505,-0.1016514,-0.2374212,-39.46722,-15.07089,8.012072
66.38120842,23.77896,-10.36046,-5.514804,1.008137,-0.08369322,-0.2063455,-39.47046,-14.69446,8.46063
66.391119003,24.21253,-7.15660500000001,-5.637529,1.027478,-0.04453694,-0.1817755,-39.47046,-14.69446,8.46063
66.401030541,23.0357,-4.710022,-5.514804,1.022246,-0.009654364,-0.1742923,-39.47046,-14.69446,8.46063
66.410941601,20.80593,-3.894495,-5.023901,1.010839,0.01499919,-0.1610583,-39.47046,-14.69446,8.46063
66.420853138,18.51423,-3.952747,-4.532997,1.000907,0.03528491,-0.1521885,-39.47046,-14.69446,8.46063
66.430764198,15.66508,-4.535267,-3.673917,0.9901806,0.03272734,-0.1521063,-39.09322,-14.69103,9.293863
66.440675736,12.4443,-4.826527,-2.201207,0.9844914,0.02689301,-0.1415291,-39.09322,-14.69103,9.293863
66.450586796,8.85189099999998,-5.700306,-0.667134400000002,0.97686,0.01372428,-0.1381851,-39.09322,-14.69103,9.293863
66.460498333,5.507237,-6.22457400000003,0.4987608,0.9707232,0.00156373,-0.131007,-39.09322,-14.69103,9.293863
66.470409393,2.53421,-6.69058900000001,1.726019,0.9807449,-0.0274559,-0.1413763,-39.09322,-14.69103,9.293863
66.480319977,-0.3768782,-6.51583300000002,2.5851,0.9901941,-0.04286662,-0.1439672,-38.71411,-15.0656,9.293072
66.490231514,-2.420834,-5.642054,3.321455,0.9901631,-0.06337061,-0.1709924,-38.71411,-15.0656,9.293072
66.502620697,-3.597657,-4.069251,4.05781,0.9924752,-0.08950221,-0.1668664,-38.71411,-15.0656,9.293072
66.512531757,-4.217037,-1.797425,5.100979,0.9824713,-0.1070542,-0.1616091,-38.71411,-15.0656,9.293072
66.522443295,-4.155099,1.173425,6.38960000000002,0.9789218,-0.1278903,-0.1506714,-38.71411,-15.0656,9.293072
66.532354355,-1.987267,3.387,7.73958400000001,0.9777976,-0.1409011,-0.1325017,-39.08538,-15.06223,10.1302
66.542265415,0.614130699999998,5.076307,9.089568,0.9868038,-0.1411722,-0.1129003,-39.08538,-15.06223,10.1302
66.552176475,2.720024,6.18309399999998,9.58047100000002,1.010284,-0.1325806,-0.1020166,-39.08538,-15.06223,10.1302
66.562088013,4.578166,6.70736200000001,8.782754,1.0251,-0.09744648,-0.09423701,-39.08538,-15.06223,10.1302
66.571999073,6.80793600000002,6.474354,6.08278600000001,1.035495,-0.07213423,-0.09992641,-39.08538,-15.06223,10.1302
66.58191061,8.78995200000002,6.76561400000002,3.321455,1.030325,-0.05770722,-0.110346,-39.09161,-14.6892,9.743576
66.59182167,10.02871,7.28988199999998,1.726019,1.016989,-0.04233233,-0.1053186,-39.09161,-14.6892,9.743576
66.601733208,9.28545699999999,8.16365999999998,0.928301200000001,1.005378,-0.02119971,-0.1161141,-39.09161,-14.6892,9.743576
66.611644268,5.197546,7.75589700000002,1.11239,0.9876596,0.0216859,-0.1247875,-39.09161,-14.6892,9.743576
66.621555805,-2.173082,5.134559,1.357842,0.9891788,0.05660509,-0.1264896,-39.09161,-14.6892,9.743576
66.631466389,-10.47278,1.814197,0.805575399999998,1.004106,0.08740663,-0.112978,-39.10292,-13.94184,9.291555
66.641377449,-18.27698,-0.748889500000002,-0.728497300000001,1.037713,0.09702907,-0.1146652,-39.10292,-13.94184,9.291555
66.651288986,-25.27598,-1.913929,-2.937562,1.071522,0.1057813,-0.09763386,-39.10292,-13.94184,9.291555
66.661200046,-29.48776,-0.2246219,-4.901175,1.096403,0.05778043,-0.06409251,-39.10292,-13.94184,9.291555
66.671111584,-29.30195,4.843299,-4.348908,1.091445,-0.02254736,-0.02184771,-39.10292,-13.94184,9.291555
66.681022644,-25.95729,11.30927,-3.551191,1.064735,-0.1074097,0.03977436,-39.10131,-13.94001,9.741268
66.690934181,-20.07318,17.89174,-2.139844,1.027629,-0.1751549,0.06127333,-39.10131,-13.94001,9.741268
66.700845241,-12.33092,21.73637,-0.4830456,0.9872922,-0.2440666,0.05254444,-39.10131,-13.94001,9.741268
66.710755825,-3.411843,23.30917,1.296479,0.9702424,-0.301321,-0.008179248,-39.10131,-13.94001,9.741268
66.720667362,6.002741,18.41601,1.480567,0.93157,-0.2959831,-0.1014169,-39.10131,-13.94001,9.741268
66.730578422,13.80693,7.52288900000002,-1.710304,0.8739474,-0.2476555,-0.1802683,-38.71225,-15.44359,8.459045
66.74048996,17.70903,-3.078968,-8.092046,0.8717688,-0.1780486,-0.2157963,-38.71225,-15.44359,8.459045
66.75040102,17.70903,-8.205141,-14.10561,0.9299682,-0.1043995,-0.2715423,-38.71225,-15.44359,8.459045
66.760312557,15.29345,-9.428432,-16.62149,0.9412792,-0.001067392,-0.2872838,-38.71225,-15.44359,8.459045
66.770223618,12.01073,-8.61290600000001,-17.48057,0.905962,0.02331154,-0.2695091,-38.71225,-15.44359,8.459045
66.782612324,12.01073,-8.671157,-17.72602,0.9114462,0.008560257,-0.2288446,-39.09135,-15.06903,8.459837
66.792523861,16.53221,-5.700306,-16.06923,0.9600399,-0.009024711,-0.1837962,-39.09135,-15.06903,8.459837
66.802434921,21.48725,-0.574133599999999,-13.61471,0.9700036,0.009730344,-0.1439102,-39.09135,-15.06903,8.459837
66.812346458,22.47826,0.4744017,-11.52837,0.9229017,0.05905399,-0.1493881,-39.09135,-15.06903,8.459837
66.822257519,19.4433,-1.913929,-10.54656,0.8984259,0.09458271,-0.158048,-38.71411,-15.0656,9.293072
66.832169056,13.06368,-5.117786,-8.951126,0.8974918,0.1128816,-0.1800048,-38.71411,-15.0656,9.293072
66.842080116,5.754989,-8.37989699999999,-7.35569099999999,0.9139009,0.119319,-0.1935581,-38.71411,-15.0656,9.293072
66.851991653,-2.606648,-11.58376,-5.637529,0.9300001,0.1190142,-0.1975503,-38.71411,-15.0656,9.293072
66.861902237,-11.21604,-13.97209,-3.673917,0.9620575,0.1049212,-0.1873771,-38.71411,-15.0656,9.293072
66.871813297,-20.44481,-14.72936,-1.83303,1.001866,0.07699022,-0.1528798,-39.07867,-15.81482,9.297325
66.881724834,-29.5497,-14.84587,0.2533092,1.022321,0.0476974,-0.1475022,-39.07867,-15.81482,9.297325
66.891635895,-36.5487,-15.31188,1.11239,1.02357,0.02785087,-0.1442849,-39.07867,-15.81482,9.297325
66.901547432,-40.51273,-16.24391,1.051027,1.016855,0.01368648,-0.1481584,-39.07867,-15.81482,9.297325
66.911458492,-41.19405,-15.48664,-0.3603199,1.013175,-0.005266476,-0.1477705,-39.07867,-15.81482,9.297325
66.921370029,-39.1501,-12.92355,-1.587578,1.022059,-0.04779189,-0.1418939,-38.7028,-15.81296,9.745092
66.93128109,-34.75249,-11.00124,-1.771667,1.036813,-0.1063394,-0.1544244,-38.7028,-15.81296,9.745092
66.941192627,-28.00125,-9.71969200000002,-1.955755,1.051072,-0.1551411,-0.1563218,-38.7028,-15.81296,9.745092
66.951103687,-19.26798,-7.79737700000001,-1.219401,1.056404,-0.1914348,-0.1556526,-38.7028,-15.81296,9.745092
66.961014271,-9.60564900000001,-5.001283,-0.4830456,1.050375,-0.2167102,-0.1533644,-38.7028,-15.81296,9.745092
66.970925808,-0.191064,-3.13722,0.805575399999998,1.022074,-0.2194736,-0.1507203,-38.33176,-15.81659,8.843721
66.980836868,7.79894499999999,-2.962464,2.216922,0.9841972,-0.215185,-0.1676271,-38.33176,-15.81659,8.843721
66.990748405,14.05469,-4.826527,3.505543,0.9633021,-0.2019703,-0.1870324,-38.33176,-15.81659,8.843721
67.000659466,18.26647,-6.51583300000002,4.241899,0.9498022,-0.1798517,-0.1901213,-38.33176,-15.81659,8.843721
67.010571003,20.49624,-7.098353,4.48735,0.9527807,-0.1410155,-0.1879694,-38.33176,-15.81659,8.843721
67.020482063,20.62012,-6.16632200000001,4.241899,0.9709412,-0.09807458,-0.1787283,-38.3237,-16.18752,9.744299
67.0303936,19.56717,-4.535267,3.996447,0.9841649,-0.05570718,-0.1747271,-38.3237,-16.18752,9.744299
67.040304661,17.70903,-3.020716,3.628269,0.991248,-0.02891681,-0.1678919,-38.3237,-16.18752,9.744299
67.052693367,14.11662,-2.263441,3.321455,0.9924033,-0.0007678678,-0.1653143,-38.3237,-16.18752,9.744299
67.062604904,11.01972,-2.146937,2.891914,0.9997607,0.004701805,-0.156703,-38.3237,-16.18752,9.744299
67.072515965,8.10863400000001,-1.913929,2.523737,1.003607,0.01349704,-0.1528387,-38.3237,-16.18752,9.744299
67.082427502,5.383361,-2.321693,2.216922,0.9958627,0.00563555,-0.15426,-38.3237,-16.18752,9.744299
67.092338562,2.53421,-3.020716,2.646462,0.986914,-0.006010396,-0.1345683,-38.3237,-16.18752,9.744299
67.102250099,-0.3768782,-3.195472,3.198729,0.9892292,-0.03116476,-0.1289954,-38.3237,-16.18752,9.744299
67.112160683,-1.863391,-3.42848,3.628269,0.9779817,-0.06617992,-0.1224025,-38.3237,-16.18752,9.744299
67.122071743,-1.429825,-3.777992,3.873721,0.9792396,-0.09333911,-0.1269164,-38.33202,-15.43676,10.12746
67.13198328,0.1186263,-4.477015,3.996447,0.9815922,-0.1228643,-0.1228135,-38.33202,-15.43676,10.12746
67.141894341,2.53421,-5.001283,3.812358,0.9881079,-0.1407507,-0.1282746,-38.33202,-15.43676,10.12746
67.151805878,5.321423,-4.768275,3.01464,0.9927129,-0.15376,-0.1236023,-38.33202,-15.43676,10.12746
67.161716938,8.41832399999999,-2.904212,2.278285,0.9994016,-0.1518046,-0.1366154,-38.33202,-15.43676,10.12746
67.171628475,12.19655,-1.331409,1.235116,0.9890572,-0.1573387,-0.1504812,-38.69982,-15.80956,10.58027
67.181539536,16.3464,0.649157599999998,0.1919463,0.9748067,-0.157553,-0.1575532,-38.69982,-15.80956,10.58027
67.191451073,19.75299,2.22196,-0.3603199,0.9766144,-0.1463861,-0.158936,-38.69982,-15.80956,10.58027
67.201361656,21.79694,4.144276,-1.096675,0.9759522,-0.1240433,-0.149658,-38.69982,-15.80956,10.58027
67.211272717,22.29245,4.901551,-1.096675,0.9718613,-0.09540504,-0.1335842,-38.69982,-15.80956,10.58027
67.221184254,21.11563,4.901551,-1.158038,0.9729846,-0.05507767,-0.1198815,-38.71436,-14.68577,10.57681
67.231095314,19.62911,4.027771,-1.096675,0.9825026,-0.03118863,-0.1174096,-38.71436,-14.68577,10.57681
67.241006851,18.32841,2.80448,-0.912586000000002,0.9828721,-0.01953734,-0.1154147,-38.71436,-14.68577,10.57681
67.250917912,16.53221,1.639441,-0.667134400000002,0.992144,-0.00772323,-0.1034178,-38.71436,-14.68577,10.57681
67.260829449,13.93081,0.940417399999999,-0.4830456,1.009788,-0.01040828,-0.1026386,-38.71436,-14.68577,10.57681
67.270740509,10.3384,1.173425,-0.2989569,1.022557,-0.01558566,-0.1032713,-38.33388,-15.05877,10.96148
67.280652046,6.18855500000002,1.173425,0.376035,1.034661,-0.01793425,-0.1178036,-38.33388,-15.05877,10.96148
67.290563107,2.472272,1.697693,0.621486600000001,1.035988,-0.02237853,-0.1365717,-38.33388,-15.05877,10.96148
67.30047369,-0.005249852,2.280212,0.744212399999997,1.025895,-0.02120102,-0.1657601,-38.33388,-15.05877,10.96148
67.310385227,-1.925329,2.80448,0.744212399999997,1.004789,-0.02882321,-0.1824213,-38.33388,-15.05877,10.96148
67.320296288,-4.217037,3.969519,0.928301200000001,0.9902573,-0.04064297,-0.1828458,-38.71138,-14.68238,11.41199
67.332685947,-7.12812599999998,5.367567,1.480567,0.9693151,-0.04378992,-0.1783516,-38.71138,-14.68238,11.41199
67.342597008,-9.048206,4.843299,1.603293,0.953699,-0.04299427,-0.1743606,-38.71138,-14.68238,11.41199
67.352508545,-10.59666,3.153992,1.664656,0.949887,-0.04347923,-0.1652056,-38.71138,-14.68238,11.41199
67.362419129,-11.27798,1.522937,1.664656,0.9527422,-0.04104431,-0.1700174,-38.71138,-14.68238,11.41199
67.372330189,-11.33991,-0.3411258,1.664656,0.9539033,-0.04483917,-0.156609,-38.72406,-13.93658,10.5745
67.382241726,-10.90635,-1.797425,1.173753,0.9455953,-0.04640443,-0.157983,-38.72406,-13.93658,10.5745
67.392152786,-9.97727699999998,-3.195472,0.744212399999997,0.9510899,-0.05408158,-0.1556842,-38.72406,-13.93658,10.5745
67.402064324,-8.36688700000001,-4.593519,0.3146721,0.9614202,-0.06221336,-0.159195,-38.72406,-13.93658,10.5745
67.411975384,-5.76548899999998,-5.467298,-0.1148682,0.9747207,-0.06638706,-0.1545443,-38.72406,-13.93658,10.5745
67.421886921,-3.597657,-5.642054,-0.605771499999998,0.9861399,-0.07640003,-0.1494348,-38.70467,-15.43497,10.57912
67.431797981,-1.801453,-4.884778,-0.8512232,1.003259,-0.08106088,-0.1544258,-38.70467,-15.43497,10.57912
67.441709519,-0.686568399999998,-3.661488,-0.912586000000002,1.014086,-0.09064608,-0.1589112,-38.70467,-15.43497,10.57912
67.451620579,0.0566882,-2.088685,-0.728497300000001,1.014911,-0.08242048,-0.1641458,-38.70467,-15.43497,10.57912
67.461531162,0.1805643,-0.1663699,-0.728497300000001,1.013778,-0.06983056,-0.1645316,-38.70467,-15.43497,10.57912
67.4714427,-0.624630299999998,1.464685,-0.789860199999999,1.008896,-0.06257097,-0.1553151,-39.08538,-15.06223,10.1302
67.48135376,-2.23502,2.454968,-0.5444086,1.005921,-0.05628727,-0.1518846,-39.08538,-15.06223,10.1302
67.491265297,-3.907347,3.387,-0.237594,1.018078,-0.04494955,-0.1451993,-39.08538,-15.06223,10.1302
67.501176357,-5.95130299999999,4.377284,-0.05350532,1.036659,-0.03886306,-0.1381282,-39.08538,-15.06223,10.1302
67.511087895,-7.37587799999998,6.12484200000003,0.0692204999999997,1.043936,-0.02416703,-0.1265738,-39.08538,-15.06223,10.1302
67.520998955,-9.048206,8.80443199999998,0.1919463,1.057267,-0.02344695,-0.1132478,-39.45181,-15.43346,10.96848
67.530910492,-9.97727699999998,11.48402,0.3146721,1.0573,-0.02830761,-0.1156813,-39.45181,-15.43346,10.96848
67.540821552,-10.16309,12.64906,1.051027,1.051707,-0.05457968,-0.1196459,-39.45181,-15.43346,10.96848
67.550732136,-10.10115,12.94032,2.339648,1.04284,-0.07886592,-0.1067614,-39.45181,-15.43346,10.96848
67.560643673,-7.809444,13.40634,3.873721,1.043938,-0.133177,-0.1109746,-39.45181,-15.43346,10.96848
67.570554733,-4.031223,13.40634,6.02142300000003,1.038776,-0.1570343,-0.1178081,-38.7125,-15.06377,9.742785
67.58046627,2.038706,13.52284,7.67822100000003,1.016658,-0.1617599,-0.1344405,-38.7125,-15.06377,9.742785
67.590377331,8.97576700000001,14.33837,7.43277,0.9761344,-0.1298022,-0.1386544,-38.7125,-15.06377,9.742785
67.600288868,14.92182,14.68788,5.346431,0.9369143,-0.0684033,-0.1719739,-38.7125,-15.06377,9.742785
67.610199928,18.51423,13.28983,2.216922,0.8924636,-0.006994737,-0.1908402,-38.7125,-15.06377,9.742785
67.622588634,17.08965,9.61995899999999,-1.342126,0.8627182,0.04925055,-0.2122777,-39.08837,-15.06563,9.295017
67.632500172,11.94879,5.600574,-2.998925,0.8428212,0.07273192,-0.2176991,-39.08837,-15.06563,9.295017
67.642411232,5.383361,0.940417399999999,-3.980731,0.8207613,0.07096351,-0.2251894,-39.08837,-15.06563,9.295017
67.652322769,-0.810444500000001,-3.311976,-4.16482,0.8268965,0.06337141,-0.208011,-39.08837,-15.06563,9.295017
67.662233829,-6.38486900000001,-6.51583300000002,-3.73528,0.8448982,0.04721408,-0.1881185,-39.09482,-14.69286,8.844152
67.672145367,-11.46379,-8.37989699999999,-2.569385,0.8909329,0.02270974,-0.1622988,-39.09482,-14.69286,8.844152
67.682056427,-14.87038,-8.90416500000001,-1.403489,0.941507,-0.008496482,-0.1308038,-39.09482,-14.69286,8.844152
67.691967964,-17.03821,-9.07892000000002,-0.4830456,0.9833213,-0.05344991,-0.1113234,-39.09482,-14.69286,8.844152
67.701879024,-17.22403,-8.26339300000001,0.621486600000001,1.020737,-0.09894532,-0.09228601,-39.09482,-14.69286,8.844152
67.711790562,-15.42782,-6.10807,1.848745,1.051953,-0.1310286,-0.08990749,-37.95914,-15.4383,9.740046
67.721701145,-13.01224,-3.836243,2.646462,1.059794,-0.1392137,-0.09771708,-37.95914,-15.4383,9.740046
67.731612205,-10.78247,-1.797425,3.137366,1.056084,-0.123309,-0.10718,-37.95914,-15.4383,9.740046
67.741523743,-9.79146300000003,-0.5158817,2.646462,1.041556,-0.1036672,-0.1179584,-37.95914,-15.4383,9.740046
67.751434803,-9.17208200000003,-0.690637499999998,1.848745,1.035994,-0.09895228,-0.1303597,-37.95914,-15.4383,9.740046
67.76134634,-8.05719799999999,-1.331409,1.11239,1.019433,-0.08718063,-0.1579772,-38.73004,-13.94338,8.904142
67.7712574,-7.00425000000001,-2.438197,-0.3603199,0.9987124,-0.07582613,-0.1625116,-38.73004,-13.94338,8.904142
67.781168938,-5.208046,-2.84596,-1.955755,0.9962894,-0.07682098,-0.1615355,-38.73004,-13.94338,8.904142
67.791079998,-3.102152,-2.438197,-3.244377,0.9873524,-0.07407503,-0.1715178,-38.73004,-13.94338,8.904142
67.800991535,-0.5626923,-3.020716,-4.103457,0.9833336,-0.06881383,-0.175767,-38.73004,-13.94338,8.904142
67.810902119,1.295449,-3.253724,-4.655723,0.9822139,-0.05816817,-0.1771262,-39.84173,-14.69109,9.297756
67.820813179,1.976768,-2.962464,-4.839812,0.9906255,-0.05167091,-0.1598751,-39.84173,-14.69109,9.297756
67.830724716,2.286458,-1.855677,-4.226182,0.99091,-0.0337224,-0.1587978,-39.84173,-14.69109,9.297756
67.840635776,2.410334,-1.040149,-3.367102,0.9836411,-0.03134112,-0.1495917,-39.84173,-14.69109,9.297756
67.850547314,2.100644,-0.2246219,-2.323933,0.978309,-0.02406723,-0.1365297,-39.84173,-14.69109,9.297756
67.860458374,1.171573,0.707409600000001,-1.342126,0.9906762,-0.03115674,-0.1309294,-38.70628,-15.4368,10.12941
67.870369911,0.1186263,1.581189,-0.8512232,0.9933141,-0.03785487,-0.1199547,-38.70628,-15.4368,10.12941
67.880280971,-1.058197,1.755945,-0.3603199,0.99677,-0.04559962,-0.1258002,-38.70628,-15.4368,10.12941
67.892669678,-2.111144,1.522937,-0.3603199,0.99747,-0.06450812,-0.1273731,-38.70628,-15.4368,10.12941
67.902581215,-2.606648,0.940417399999999,-0.4830456,0.9912363,-0.06940187,-0.121106,-38.70628,-15.4368,10.12941
67.912492275,-2.792462,0.3578977,-0.973949000000003,0.9902169,-0.07870406,-0.1360435,-39.09161,-14.6892,9.743576
67.922403812,-2.358896,0.0666379299999997,-1.158038,0.9906211,-0.08069321,-0.1466239,-39.09161,-14.6892,9.743576
67.932314873,-0.934320599999998,-0.3411258,-1.280763,0.9924216,-0.07635929,-0.156695,-39.09161,-14.6892,9.743576
67.94222641,0.4902546,-0.2828739,-1.771667,0.9867886,-0.06533956,-0.1685735,-39.09161,-14.6892,9.743576
67.95213747,1.667078,-0.3993778,-2.26257,0.9880638,-0.05176242,-0.1713758,-39.09161,-14.6892,9.743576
67.962049007,2.905838,-0.108118,-2.814836,0.9928054,-0.04641229,-0.1795467,-37.9559,-15.81473,9.291487
67.971960068,3.587157,0.2413938,-3.305739,0.9829965,-0.03728191,-0.1717126,-37.9559,-15.81473,9.291487
67.981870651,3.711033,0.5326537,-3.367102,0.9810393,-0.03096567,-0.16445,-37.9559,-15.81473,9.291487
67.991782188,3.153591,0.765661500000002,-3.060288,0.9721907,-0.02573461,-0.1628929,-37.9559,-15.81473,9.291487
68.001693249,2.286458,0.5326537,-2.385296,0.9712892,-0.02717056,-0.1571322,-37.9559,-15.81473,9.291487
68.011604786,0.861882899999998,-0.049866,-1.710304,0.9714801,-0.02707119,-0.1384071,-38.70926,-15.44019,9.294226
68.021515846,-0.5626923,-0.981897400000002,-1.464852,0.9759845,-0.03330356,-0.1356094,-38.70926,-15.44019,9.294226
68.031427383,-1.801453,-1.214905,-1.280763,0.9830592,-0.04675708,-0.1290422,-38.70926,-15.44019,9.294226
68.041338444,-2.358896,-1.156653,-1.403489,0.9872074,-0.06121916,-0.1229349,-38.70926,-15.44019,9.294226
68.051249981,-1.863391,-1.564417,-1.526215,0.9947666,-0.08296159,-0.1265108,-38.70926,-15.44019,9.294226
68.061161041,-0.872382600000001,-1.214905,-1.771667,0.9920663,-0.09507199,-0.1179236,-38.34309,-14.68914,9.739683
68.071072578,0.5521926,-0.807141499999999,-1.771667,0.9986112,-0.1022114,-0.1079484,-38.34309,-14.68914,9.739683
68.080983162,1.790954,-0.049866,-2.017118,1.000145,-0.107036,-0.1070344,-38.34309,-14.68914,9.739683
68.090894222,3.091653,0.649157599999998,-2.508022,1.012843,-0.1054212,-0.1066609,-38.34309,-14.68914,9.739683
68.100805759,4.020724,1.173425,-2.753473,1.017203,-0.1048996,-0.1100589,-38.34309,-14.68914,9.739683
68.11071682,4.825918,1.755945,-2.876199,1.018615,-0.1014955,-0.1114897,-38.33339,-15.43833,9.741991
68.120628357,5.631113,2.920984,-2.753473,1.026842,-0.09899632,-0.1168309,-38.33339,-15.43833,9.741991
68.130539417,6.622122,4.435535,-2.323933,1.030066,-0.08149617,-0.1157838,-38.33339,-15.43833,9.741991
68.140450954,7.30344099999999,6.29959800000001,-1.771667,1.022587,-0.0660535,-0.1117705,-38.33339,-15.43833,9.741991
68.150362015,7.73700700000001,7.69764500000001,-1.710304,1.015828,-0.03853748,-0.118727,-38.33339,-15.43833,9.741991
68.160273552,7.92282100000002,8.221912,-0.8512232,0.9993712,-0.02476041,-0.1338481,-39.08191,-15.43839,9.745884
68.170184612,8.17057199999999,7.40638499999999,-0.2989569,0.9785734,-0.01393401,-0.1465479,-39.08191,-15.43839,9.745884
68.182573319,8.29444800000002,4.901551,0.3146721,0.9591579,0.0002812198,-0.1635593,-39.08191,-15.43839,9.745884
68.192484856,8.78995200000002,3.212244,0.1305834,0.9498089,0.01184164,-0.1557133,-39.08191,-15.43839,9.745884
68.202395916,8.91382900000002,1.464685,-0.605771499999998,0.9422565,0.0165144,-0.1714576,-39.08191,-15.43839,9.745884
68.212307453,8.35638600000001,-0.3411258,-1.403489,0.9314182,0.02170333,-0.1732434,-38.70441,-15.81479,9.29538
68.222218514,7.36537800000001,-2.088685,-2.078481,0.9307232,0.02988268,-0.183746,-38.70441,-15.81479,9.29538
68.232130051,6.43630700000002,-3.836243,-3.305739,0.9219708,0.03077354,-0.1778972,-38.70441,-15.81479,9.29538
68.242041111,5.81692699999999,-5.001283,-4.103457,0.9255398,0.02016079,-0.1760803,-38.70441,-15.81479,9.29538
68.251952648,5.383361,-5.642054,-4.962538,0.9396144,0.001995321,-0.1600061,-38.70441,-15.81479,9.29538
68.261863232,4.887856,-5.700306,-4.655723,0.9503312,-0.02447197,-0.1473173,-38.70441,-15.81479,9.29538
68.271774292,4.640104,-5.350794,-3.858006,0.9620199,-0.05580817,-0.1409119,-38.70441,-15.81479,9.29538
68.281685829,5.569175,-5.059535,-2.630748,0.9716917,-0.0857372,-0.1387999,-38.70441,-15.81479,9.29538
68.29159689,6.869874,-4.884778,-1.526215,0.9835286,-0.09968358,-0.1452444,-38.70441,-15.81479,9.29538
68.301508427,8.232511,-4.069251,-0.667134400000002,0.9870437,-0.09959266,-0.1361533,-38.70441,-15.81479,9.29538
68.311419487,9.28545699999999,-2.962464,-0.237594,0.9907863,-0.08792433,-0.1389911,-38.69658,-16.18599,10.13171
68.321331024,10.02871,-2.263441,0.0692204999999997,0.9865682,-0.070084,-0.1479563,-38.69658,-16.18599,10.13171
68.331242085,9.96677599999998,-2.496449,0.1305834,0.986817,-0.04873939,-0.1463759,-38.69658,-16.18599,10.13171
68.341153622,9.59514699999998,-2.612952,-0.1762311,0.9884604,-0.02546288,-0.1495971,-38.69658,-16.18599,10.13171
68.351064682,8.60413800000001,-3.544984,-0.4830456,0.9916236,0.0007864723,-0.1441697,-38.69658,-16.18599,10.13171
68.360975266,6.93181199999999,-4.302259,-0.789860199999999,0.9977995,0.01052815,-0.150404,-38.33041,-15.43494,10.57717
68.370886803,4.45429,-4.768275,-1.035312,0.9958934,0.007602748,-0.1489654,-38.33041,-15.43494,10.57717
68.380797863,1.543201,-5.176038,-1.035312,1.001781,0.004271877,-0.1509627,-38.33041,-15.43494,10.57717
68.3907094,-0.5626923,-5.059535,-0.4216828,1.003954,-0.01266394,-0.1496551,-38.33041,-15.43494,10.57717
68.400620461,-1.863391,-4.593519,-0.237594,1.009993,-0.01591583,-0.1367684,-38.33041,-15.43494,10.57717
68.410531998,-2.916338,-3.71974,0.1919463,1.013537,-0.02898056,-0.1402493,-38.32556,-15.80953,10.57833
68.420443058,-4.093161,-2.729456,0.805575399999998,1.010631,-0.02510043,-0.1329942,-38.32556,-15.80953,10.57833
68.430354595,-5.579674,-2.263441,1.051027,1.012825,-0.0327564,-0.1186608,-38.32556,-15.80953,10.57833
68.440265656,-6.942311,-1.680921,0.989664000000002,1.013895,-0.04245285,-0.121136,-38.32556,-15.80953,10.57833
68.452654362,-7.49975400000001,-0.574133599999999,0.682849499999999,1.024228,-0.04180231,-0.1140249,-38.32556,-15.80953,10.57833
68.462565899,-7.809444,0.00838596299999999,0.1919463,1.02281,-0.03886846,-0.1058295,-38.33202,-15.43676,10.12746
68.472476959,-8.30495,0.8239135,-0.05350532,1.020146,-0.02828179,-0.1148574,-38.33202,-15.43676,10.12746
68.482388497,-8.800454,1.056921,-0.789860199999999,1.011215,-0.02114213,-0.1190486,-38.33202,-15.43676,10.12746
68.492299557,-8.36688700000001,1.464685,-1.771667,0.9993097,-0.02332896,-0.1381594,-38.33202,-15.43676,10.12746
68.502211094,-7.99525899999998,0.5326537,-3.551191,0.9926752,-0.01282145,-0.152913,-38.33202,-15.43676,10.12746
68.512122154,-8.36688700000001,-0.981897400000002,-5.146626,1.008622,-0.001986179,-0.1587502,-38.32717,-15.81136,10.12861
68.522033692,-8.98626800000001,-1.040149,-6.18979499999998,1.024598,0.01130362,-0.1588094,-38.32717,-15.81136,10.12861
68.531944752,-9.11014399999998,-0.108118,-6.557973,1.029209,0.02097613,-0.1746328,-38.32717,-15.81136,10.12861
68.541855335,-9.54371100000003,0.649157599999998,-6.987514,1.020499,0.03578682,-0.1960607,-38.32717,-15.81136,10.12861
68.551766872,-10.34891,1.173425,-7.23296500000002,1.024587,0.05080126,-0.2089628,-38.32717,-15.81136,10.12861
68.561677933,-11.71154,1.930701,-7.53978,1.025756,0.07164009,-0.2136363,-38.32556,-15.80953,10.57833
68.57158947,-13.56968,2.979236,-8.39886,1.025981,0.1056556,-0.1994872,-38.32556,-15.80953,10.57833
68.58150053,-15.48976,4.144276,-8.828401,1.042476,0.1243326,-0.1903923,-38.32556,-15.80953,10.57833
68.591412067,-17.40984,5.076307,-10.42384,1.062021,0.1431072,-0.1698012,-38.32556,-15.80953,10.57833
68.601323128,-19.39186,6.41610199999999,-12.20336,1.078753,0.1550786,-0.1453881,-38.31262,-16.93514,10.13207
68.611234665,-21.68357,8.68792699999998,-13.86016,1.06033,0.1700497,-0.1124672,-38.31262,-16.93514,10.13207
68.621145725,-23.91334,11.30927,-14.35106,1.037831,0.1602569,-0.07679271,-38.31262,-16.93514,10.13207
68.631057262,-26.51474,12.64906,-14.22834,1.012674,0.1552003,-0.05642709,-38.31262,-16.93514,10.13207
68.640968323,-28.49675,12.3578,-14.04425,0.9964992,0.172539,-0.03983661,-38.31262,-16.93514,10.13207
68.650878906,-29.79745,13.28983,-15.76241,1.003656,0.2071727,-0.01662447,-38.68826,-16.93674,9.748552
68.660790443,-28.68257,16.8432,-19.13737,1.035901,0.2265874,0.003373303,-38.68826,-16.93674,9.748552
68.670701504,-26.26698,22.02763,-24.53731,1.052389,0.2462366,0.01295489,-38.68826,-16.93674,9.748552
68.680613041,-22.42682,28.4936,-30.85769,1.073958,0.2406811,0.01175808,-38.68826,-16.93674,9.748552
68.690524101,-18.1531,35.60033,-38.15987,1.080638,0.2397048,-0.005595892,-38.68826,-16.93674,9.748552
68.700435638,-13.19806,43.46435,-47.05749,1.080982,0.2386598,-0.0209711,-38.3105,-17.69296,8.014311
68.710346699,-12.33092,52.14389,-57.9800900000001,1.080953,0.2803479,-0.02261374,-38.3105,-17.69296,8.014311
68.720258236,-16.8524,57.3283200000003,-68.0436100000001,1.085604,0.2978459,-0.02542113,-38.3105,-17.69296,8.014311
68.732646942,-28.43482,58.0855899999998,-77.7389500000002,1.111208,0.3072768,-0.04480143,-38.3105,-17.69296,8.014311
68.742558002,-37.16808,57.3865699999999,-84.0593299999997,1.13222,0.3285089,-0.02132655,-38.3105,-17.69296,8.014311
68.75246954,-46.52072,57.44482,-89.5206200000002,1.125075,0.358999,-0.01481528,-37.91797,-19.57271,6.347773
68.7623806,-54.82042,55.58076,-93.87739,1.129548,0.3512868,-0.01682866,-37.91797,-19.57271,6.347773
68.772292137,-59.3418999999998,55.34775,-98.0500700000002,1.145475,0.3355313,-0.007957919,-37.91797,-19.57271,6.347773
68.782203197,-62.8723700000002,55.34775,-100.75,1.159636,0.3235035,-0.02401423,-37.91797,-19.57271,6.347773
68.792114735,-63.2439999999998,57.7943299999997,-104.3091,1.165485,0.3250308,-0.02405814,-37.91797,-19.57271,6.347773
68.802025795,-61.8813600000001,63.6195300000001,-106.3341,1.160748,0.3221225,-0.01250992,-37.52679,-21.83411,2.947785
68.811937332,-59.71353,68.1049299999999,-108.6658,1.157178,0.3046901,0.0003712373,-37.52679,-21.83411,2.947785
68.821848392,-57.9173199999999,69.7359800000003,-111.4885,1.17695,0.3089489,0.02614529,-37.52679,-21.83411,2.947785
68.83175993,-53.89135,72.24082,-113.2067,1.19968,0.247651,0.02504656,-37.52679,-21.83411,2.947785
68.841670513,-55.13011,71.3087900000002,-118.2385,1.157727,0.2844969,0.1255529,-37.52679,-21.83411,2.947785
68.851581573,-50.91832,74.8039099999999,-117.5635,1.179847,0.2216671,0.1110052,-35.24471,-25.59347,-0.393075
68.861493111,-48.37886,76.2019499999998,-117.3794,1.169124,0.2291152,0.1706936,-35.24471,-25.59347,-0.393075
68.871404171,-46.45879,76.2602099999997,-117.2567,1.173651,0.2375286,0.1927951,-35.24471,-25.59347,-0.393075
68.881315708,-45.83941,74.6873999999998,-116.7658,1.163751,0.2480751,0.1934371,-35.24471,-25.59347,-0.393075
68.891226768,-43.36188,73.2893500000002,-116.4589,1.154871,0.2649973,0.2056359,-35.24471,-25.59347,-0.393075
68.901138306,-39.39785,73.6971199999998,-116.2135,1.130196,0.2733537,0.1934356,-33.03087,-28.91608,-3.799201
68.911049366,-34.07117,74.3961399999998,-114.7408,1.114586,0.3026843,0.1836921,-33.03087,-28.91608,-3.799201
68.920960903,-31.90335,74.2213899999998,-112.1635,1.0803,0.3395383,0.1736912,-33.03087,-28.91608,-3.799201
68.930871963,-33.9473,73.4641099999999,-109.5249,1.062061,0.3784987,0.1573139,-33.03087,-28.91608,-3.799201
68.940783501,-38.09715,71.7748000000002,-106.2113,1.031849,0.3910954,0.1346296,-33.03087,-28.91608,-3.799201
68.950694084,-41.19405,68.6291999999999,-102.7136,1.005006,0.3639551,0.1078082,-29.25682,-32.30099,-7.213243
68.960605621,-42.43281,64.4350600000001,-97.86598,0.969878,0.3518472,0.1013302,-29.25682,-32.30099,-7.213243
68.970516682,-42.247,61.3477000000003,-94.9205600000001,0.9537054,0.3313864,0.1215101,-29.25682,-32.30099,-7.213243
68.980428219,-40.51273,60.2409100000002,-92.0365100000002,0.947351,0.2993611,0.131919,-29.25682,-32.30099,-7.213243
68.990339279,-36.92033,61.17294,-86.82066,0.9778396,0.2454449,0.1331985,-29.25682,-32.30099,-7.213243
69.000250816,-31.40784,65.6000999999999,-81.4207200000001,0.9219298,0.2175905,0.1320895,-25.85058,-36.05871,-10.17447
69.012639999,-22.24101,68.68745,-75.9594199999999,0.8793414,0.1560656,0.1507996,-25.85058,-36.05871,-10.17447
69.02255106,-14.00325,69.5029800000001,-72.5231,0.8335376,0.1172843,0.1687308,-25.85058,-36.05871,-10.17447
69.032461643,-4.464789,70.2602500000002,-66.93907,0.795868,0.1236318,0.1744031,-25.85058,-36.05871,-10.17447
69.04237318,3.091653,66.88164,-61.8459500000002,0.7610682,0.1638809,0.1658701,-25.85058,-36.05871,-10.17447
69.052284241,9.84289899999998,62.3962400000002,-55.83239,0.7359429,0.1781048,0.1642766,-22.85069,-37.19219,-12.62788
69.062195778,14.67407,59.3088799999997,-49.88018,0.694876,0.2236867,0.170722,-22.85069,-37.19219,-12.62788
69.072106838,16.47027,55.58076,-44.66434,0.6655471,0.277222,0.1867149,-22.85069,-37.19219,-12.62788
69.082018375,14.42632,51.50312,-40.06212,0.6366831,0.3224581,0.1906443,-22.85069,-37.19219,-12.62788
69.091929436,11.08166,48.29926,-35.52127,0.629172,0.3500792,0.2057827,-22.85069,-37.19219,-12.62788
69.101840973,7.117626,45.32841,-31.34859,0.6302401,0.346236,0.2100687,-20.95815,-39.06841,-13.46702
69.111752033,4.206538,43.5226,-26.80773,0.6409726,0.4429345,0.2254985,-20.95815,-39.06841,-13.46702
69.12166357,-1.429825,40.66825,-23.00323,0.6036977,0.3153498,0.2081877,-20.95815,-39.06841,-13.46702
69.131574631,-5.269984,37.05664,-17.91011,0.5920148,0.3040105,0.2000576,-20.95815,-39.06841,-13.46702
69.141485214,-6.942311,33.61977,-12.6329,0.5803837,0.2858688,0.1890006,-20.95815,-39.06841,-13.46702
69.151396751,-6.38486900000001,29.83339,-7.17160199999998,0.5674528,0.264869,0.1909009,-18.38617,-40.19199,-13.47686
69.161307812,-4.340913,26.16352,-1.464852,0.5828601,0.2529935,0.2012428,-18.38617,-40.19199,-13.47686
69.171219349,-0.934320599999998,22.61015,4.364625,0.6011325,0.243558,0.2077332,-18.38617,-40.19199,-13.47686
69.181130409,3.091653,19.28979,9.76456000000003,0.6071995,0.2330036,0.2148091,-18.38617,-40.19199,-13.47686
69.191041946,6.80793600000002,16.20243,14.67359,0.6112877,0.2219249,0.2190189,-18.38617,-40.19199,-13.47686
69.200953007,10.46228,12.70731,19.33717,0.6121599,0.2287114,0.2166553,-17.64411,-39.81917,-13.93162
69.210864544,13.49724,9.15394299999998,22.95758,0.6042592,0.2368659,0.2187033,-17.64411,-39.81917,-13.93162
69.220775604,16.16058,5.076307,25.78028,0.6007027,0.2460217,0.2163964,-17.64411,-39.81917,-13.93162
69.230687141,18.82392,0.998669400000002,28.41888,0.5931436,0.2570324,0.2074167,-17.64411,-39.81917,-13.93162
69.240598202,20.86787,-3.486732,31.11885,0.5934312,0.2759582,0.2099409,-17.64411,-39.81917,-13.93162
69.250509739,22.47826,-7.68087299999998,33.81882,0.6011536,0.29015,0.2166862,-17.63926,-40.19376,-13.93046
69.260420322,23.71702,-11.5255,36.76424,0.6187042,0.3035141,0.2271764,-17.63926,-40.19376,-13.93046
69.27033186,24.83191,-15.13713,39.83239,0.6410321,0.3188322,0.2289926,-17.63926,-40.19376,-13.93046
69.28024292,26.00873,-18.28273,42.16418,0.6605349,0.3312433,0.2380179,-17.63926,-40.19376,-13.93046
69.292632103,28.2385,-21.42834,45.17096,0.6912063,0.3447306,0.2407051,-17.63926,-40.19376,-13.93046
69.30254364,30.46827,-23.4089,47.31866,0.7149283,0.3595414,0.2348225,-18.01538,-39.8158,-13.09449
69.312454701,32.26448,-25.27297,49.8959,0.7449262,0.3802435,0.2279608,-18.01538,-39.8158,-13.09449
69.322366238,33.68905,-26.26325,52.47314,0.7613102,0.4056923,0.2342208,-18.01538,-39.8158,-13.09449
69.332277298,34.12262,-26.03024,55.47993,0.7752992,0.4335755,0.2482018,-18.01538,-39.8158,-13.09449
69.342187882,33.93681,-25.85549,58.0571700000002,0.7850969,0.4385856,0.2558271,-18.01538,-39.8158,-13.09449
69.352099419,33.13161,-26.26325,61.37077,0.7988858,0.4266129,0.2512984,-19.50781,-39.81069,-11.80181
69.362010479,31.83091,-28.06906,63.7639199999998,0.7950453,0.4148936,0.2445336,-19.50781,-39.81069,-11.80181
69.371922016,29.91083,-30.34089,66.3411599999999,0.7856598,0.41424,0.2345327,-19.50781,-39.81069,-11.80181
69.381833077,28.54819,-32.72921,69.1638600000003,0.785114,0.4078628,0.221531,-19.50781,-39.81069,-11.80181
69.391744614,27.86687,-34.12726,71.9865499999998,0.789305,0.4175649,0.2124339,-19.50781,-39.81069,-11.80181
69.401655674,27.55718,-33.48649,74.3183399999999,0.8150736,0.4387889,0.2229005,-22.06759,-39.05334,-9.734993
69.411567211,27.06168,-31.62243,75.7910500000001,0.8568794,0.469432,0.2347219,-22.06759,-39.05334,-9.734993
69.421478272,27.06168,-31.27292,75.4842399999997,0.8994185,0.4816718,0.2488148,-22.06759,-39.05334,-9.734993
69.431389809,26.87586,-30.34089,75.6683200000003,0.9406633,0.4773976,0.2604088,-22.06759,-39.05334,-9.734993
69.441300869,26.31842,-27.8943,77.3251200000001,0.9288768,0.4511307,0.2723468,-22.06759,-39.05334,-9.734993
69.451212406,25.1416,-26.37975,79.1046400000002,0.9001768,0.4288956,0.2609403,-23.96823,-36.42609,-8.448446
69.46112299,23.59315,-26.26325,81.0682600000001,0.8801401,0.4169428,0.2480817,-23.96823,-36.42609,-8.448446
69.47103405,21.85888,-28.12731,81.9273399999999,0.8839335,0.4276619,0.2490783,-23.96823,-36.42609,-8.448446
69.480945587,19.19555,-31.68068,81.5591600000001,0.9057739,0.4288283,0.2344794,-23.96823,-36.42609,-8.448446
69.490856648,16.96577,-35.70007,80.2091800000003,0.9296793,0.4183687,0.2169029,-23.96823,-36.42609,-8.448446
69.500768185,14.67407,-37.97189,80.4546300000003,0.9084998,0.4029032,0.1838649,-26.60307,-34.92295,-7.21879
69.510679245,12.87786,-40.06896,80.8841699999999,0.9180492,0.3936378,0.1505839,-26.60307,-34.92295,-7.21879
69.520590782,12.56817,-42.86506,79.4114600000002,0.935026,0.3971955,0.1413276,-26.60307,-34.92295,-7.21879
69.530501843,14.92182,-43.03981,77.6319400000002,0.9521904,0.3998753,0.1493494,-26.60307,-34.92295,-7.21879
69.54041338,18.32841,-41.87477,75.7910500000001,0.9668893,0.3720302,0.167274,-26.60307,-34.92295,-7.21879
69.55032444,21.30144,-40.12722,76.4046799999999,0.9720074,0.3144098,0.1697237,-29.62003,-32.66856,-5.475538
69.560235977,23.59315,-38.2049,78.1842,0.9855768,0.275742,0.1602176,-29.62003,-32.66856,-5.475538
69.572624683,28.30044,-37.97189,80.2091800000003,1.014297,0.2338458,0.1462285,-29.62003,-32.66856,-5.475538
69.582535744,32.07866,-38.03014,81.4364399999999,1.060247,0.2231951,0.1322881,-29.62003,-32.66856,-5.475538
69.592447281,37.03371,-37.03986,83.4000500000002,1.059545,0.2191756,0.1068194,-31.88224,-30.78714,-3.349558
69.602358341,43.22751,-35.23405,83.3386800000001,1.043097,0.2412502,0.102317,-31.88224,-30.78714,-3.349558
69.612269878,47.9348,-32.03019,81.6818800000002,1.058651,0.3001742,0.1145697,-31.88224,-30.78714,-3.349558
69.622180939,48.18256,-30.34089,78.8591900000002,1.087617,0.3344945,0.1183717,-31.88224,-30.78714,-3.349558
69.632092476,46.75798,-28.70983,76.7114899999997,1.087408,0.3441419,0.1093149,-31.88224,-30.78714,-3.349558
69.642003536,43.47527,-27.02052,76.6501299999999,1.049364,0.3256647,0.09705955,-33.41049,-27.78187,-1.230931
69.651915073,38.08665,-28.59333,77.7546599999998,1.004605,0.2871698,0.07416943,-33.41049,-27.78187,-1.230931
69.661826134,32.01673,-32.61271,78.3682900000002,0.9885954,0.2572774,0.05155091,-33.41049,-27.78187,-1.230931
69.671736717,26.75199,-36.7486,78.6751,1.008119,0.2370163,0.02434652,-33.41049,-27.78187,-1.230931
69.681648254,24.64609,-38.14665,78.3682900000002,1.045563,0.2417706,0.009627161,-33.41049,-27.78187,-1.230931
69.691559315,23.65508,-37.38937,77.0183000000001,1.066192,0.2371981,0.01324718,-35.24172,-25.59007,0.4421053
69.701470852,24.3364,-34.36027,75.3001500000001,1.088981,0.2439759,0.05005375,-35.24172,-25.59007,0.4421053
69.711381912,25.88486,-31.15641,73.0297199999998,1.102581,0.2262994,0.06805623,-35.24172,-25.59007,0.4421053
69.721293449,26.99974,-28.36032,71.3115499999999,1.113253,0.2188333,0.09863792,-35.24172,-25.59007,0.4421053
69.73120451,26.25648,-28.12731,69.7774799999998,1.084434,0.1899553,0.1155176,-35.24172,-25.59007,0.4421053
69.741116047,26.19455,-28.59333,67.8752400000002,1.074876,0.1689725,0.1125853,-36.39731,-22.58661,2.109074
69.751027107,26.31842,-29.87487,65.1139000000002,1.05437,0.1206863,0.1066913,-36.39731,-22.58661,2.109074
69.760938644,24.58416,-31.56418,61.61622,1.079845,0.2232122,0.08841258,-36.39731,-22.58661,2.109074
69.770849705,20.00074,-31.97194,59.2844299999999,1.061653,0.2287872,0.08525686,-36.39731,-22.58661,2.109074
69.780761242,10.02871,-33.07873,54.74357,1.050852,0.2956987,0.111731,-36.39731,-22.58661,2.109074
69.790671825,-0.810444500000001,-33.836,50.69362,1.047398,0.283932,0.09487907,-37.91724,-20.3321,3.844541
69.800582886,-8.73851600000001,-32.03019,46.21413,1.0524,0.2467391,0.1099501,-37.91724,-20.3321,3.844541
69.810494423,-12.88836,-29.52536,44.61869,1.070674,0.2492511,0.08290896,-37.91724,-20.3321,3.844541
69.820405483,-15.48976,-28.41857,43.82097,1.090552,0.2384432,0.1013793,-37.91724,-20.3321,3.844541
69.83031702,-16.29496,-23.23415,42.22554,1.075956,0.2246384,0.09229931,-37.91724,-20.3321,3.844541
69.840228081,-11.09216,-20.49631,39.46421,1.025564,0.1888709,0.04787235,-37.93712,-18.45415,5.05942
69.852617741,-4.526727,-18.16623,36.15061,1.011203,0.1615301,0.04590239,-37.93712,-18.45415,5.05942
69.862528801,-0.3768782,-15.71964,33.38928,0.9919362,0.1297298,0.03722587,-37.93712,-18.45415,5.05942
69.872440338,2.348396,-15.19538,31.30294,0.9812654,0.1184205,0.03244762,-37.93712,-18.45415,5.05942
69.882350922,2.8439,-15.07887,28.84842,0.9794124,0.1106446,0.03337328,-37.93712,-18.45415,5.05942
69.892261982,1.790954,-13.68083,25.04392,0.9959887,0.1220472,0.04193879,-39.07767,-16.95403,5.510355
69.902173519,0.923820900000001,-10.59347,20.01216,1.011554,0.1565863,0.02665987,-39.07767,-16.95403,5.510355
69.912084579,0.3663784,-8.205141,12.89407,1.018972,0.2186641,0.01211993,-39.07767,-16.95403,5.510355
69.921996117,-0.3768782,-6.341078,4.241899,1.03118,0.2707559,0.02387786,-39.07767,-16.95403,5.510355
69.931907177,-1.429825,-4.768275,-5.453441,1.03515,0.3237575,0.04388073,-39.07767,-16.95403,5.510355
69.941818714,-2.54471,-2.787708,-15.08742,1.029388,0.3305685,0.0622254,-39.09222,-15.83025,5.506893
69.951729774,-4.155099,0.00838596299999999,-22.57369,1.032154,0.2866245,0.08975624,-39.09222,-15.83025,5.506893
69.961641312,-6.38486900000001,2.80448,-26.07138,1.044438,0.1955976,0.08423464,-39.09222,-15.83025,5.506893
69.971552372,-7.25200200000001,2.571472,-24.96685,1.046373,0.08781498,0.05132809,-39.09222,-15.83025,5.506893
69.981463909,-5.331922,-0.4576297,-21.83734,1.041394,0.00112638,-0.01114379,-39.09222,-15.83025,5.506893
69.991374969,-1.244011,-4.418763,-18.64647,1.045863,-0.04219739,-0.05516815,-39.46996,-15.45411,5.893152
70.001286507,2.596148,-6.341078,-17.17376,1.064272,-0.02498104,-0.0518626,-39.46996,-15.45411,5.893152
70.01119709,4.082662,-5.642054,-18.89192,1.081325,0.02958788,-0.04157344,-39.46996,-15.45411,5.893152
70.02110815,2.162582,-4.127503,-23.73959,1.037799,0.1487814,-0.04565858,-39.46996,-15.45411,5.893152
70.031019688,-3.907347,-3.020716,-30.12133,0.9846413,0.2159823,-0.04856053,-39.46996,-15.45411,5.893152
70.040930748,-10.59666,-4.593519,-35.52127,0.9458919,0.2532358,-0.06427937,-38.71151,-16.20298,5.955814
70.050842285,-16.10914,-7.68087299999998,-41.41211,0.932014,0.2549184,-0.08046519,-38.71151,-16.20298,5.955814
70.060753346,-17.90535,-9.71969200000002,-46.3825,0.942091,0.2386104,-0.07058371,-38.71151,-16.20298,5.955814
70.070664883,-15.42782,-9.71969200000002,-50.92336,0.9441583,0.2123514,-0.09046425,-38.71151,-16.20298,5.955814
70.080575943,-11.46379,-7.21485700000003,-52.8256,0.9668683,0.1642141,-0.07803071,-38.71151,-16.20298,5.955814
70.09048748,-9.11014399999998,-4.360511,-52.88697,0.957485,0.1757567,-0.0735456,-38.69558,-17.3252,6.344742
70.100398541,-8.552702,-1.972181,-52.3347,0.9502945,0.1674471,-0.06921303,-38.69558,-17.3252,6.344742
70.110310078,-11.40185,-2.612952,-52.88697,0.9700044,0.2026445,-0.06099814,-38.69558,-17.3252,6.344742
70.120221138,-16.41883,-2.263441,-55.6483,1.01674,0.2455649,-0.03089446,-38.69558,-17.3252,6.344742
70.132609844,-21.68357,1.639441,-60.1277899999999,1.076141,0.2998394,0.007810581,-38.69558,-17.3252,6.344742
70.142521381,-26.32892,6.12484200000003,-63.8095599999998,1.103986,0.3460287,0.0592377,-37.16785,-19.57082,6.793594
70.152432442,-32.70854,11.54227,-67.7981600000001,1.116787,0.3691604,0.09480514,-37.16785,-19.57082,6.793594
70.162343979,-38.09715,16.7267,-71.0503899999998,1.136404,0.3860213,0.1201844,-37.16785,-19.57082,6.793594
70.172255039,-44.16708,19.46454,-75.5912499999998,1.138568,0.400052,0.1092142,-37.16785,-19.57082,6.793594
70.182166576,-52.09515,19.58105,-81.7275299999999,1.136967,0.3955738,0.0909532,-37.16785,-19.57082,6.793594
70.192077637,-58.53671,18.24125,-88.1706399999998,1.132173,0.3706842,0.07114524,-36.7804,-21.07623,5.061657
70.201989174,-66.09315,18.64901,-92.1592299999998,1.116457,0.3592326,0.05104765,-36.7804,-21.07623,5.061657
70.211900234,-72.0392099999998,18.47426,-93.9387499999998,1.110312,0.3453563,0.007797794,-36.7804,-21.07623,5.061657
70.221811771,-76.5606799999999,19.05678,-95.4728199999998,1.124709,0.3532034,-0.009568771,-36.7804,-21.07623,5.061657
70.231722355,-78.9762699999999,19.93056,-95.9023699999998,1.147971,0.3577791,-0.02463832,-36.7804,-21.07623,5.061657
70.241633415,-78.5427,24.64897,-97.0682599999999,1.177755,0.3673988,-0.01764731,-34.87629,-24.07964,3.390797
70.251544952,-76.8703800000001,30.47416,-97.0682599999999,1.187692,0.3454124,0.01956666,-34.87629,-24.07964,3.390797
70.261456013,-75.9413099999997,35.83334,-97.1296199999997,1.171581,0.317667,0.03729666,-34.87629,-24.07964,3.390797
70.27136755,-72.7205299999999,38.57119,-96.4546399999998,1.152671,0.2977591,0.07719207,-34.87629,-24.07964,3.390797
70.28127861,-68.1990500000001,40.43525,-97.37508,1.153238,0.2948793,0.08148905,-34.87629,-24.07964,3.390797
70.291190147,-62.2529899999997,42.94008,-98.1727899999998,1.149128,0.3052193,0.1219293,-33.41825,-26.71372,0.4361601
70.301101208,-57.6076400000002,45.67793,-98.8477900000003,1.137352,0.3206609,0.1360656,-33.41825,-26.71372,0.4361601
70.311012745,-54.88236,47.13422,-98.60233,1.122217,0.3229221,0.1410222,-33.41825,-26.71372,0.4361601
70.320923805,-51.72352,48.29926,-97.6818899999998,1.095849,0.314317,0.1344866,-33.41825,-26.71372,0.4361601
70.330835342,-50.29894,48.41577,-95.9637300000001,1.063032,0.3211947,0.1372367,-33.41825,-26.71372,0.4361601
70.340746403,-49.30793,47.83325,-94.7364699999999,1.032701,0.3276359,0.143322,-31.50799,-30.78711,-3.351503
70.35065794,-48.56468,45.67793,-93.38649,1.019994,0.3201628,0.135227,-31.50799,-30.78711,-3.351503
70.360569,-45.3439,45.09541,-91.1160599999997,1.017739,0.3046216,0.1356245,-31.50799,-30.78711,-3.351503
70.370479584,-41.4418,45.03716,-88.4774599999999,1.009942,0.302098,0.1351996,-31.50799,-30.78711,-3.351503
70.380391121,-36.85839,45.91093,-85.4706699999999,0.9720062,0.2856287,0.1359209,-31.50799,-30.78711,-3.351503
70.390302181,-32.77048,46.72646,-83.0161600000002,0.9493827,0.2979616,0.1376528,-28.86181,-33.41769,-5.477123
70.400213719,-28.99226,47.94975,-79.7025599999999,0.930405,0.2924048,0.1401921,-28.86181,-33.41769,-5.477123
70.412602902,-25.39985,47.48374,-76.4503300000002,0.8942207,0.2939022,0.1419771,-28.86181,-33.41769,-5.477123
70.422514439,-24.22303,45.73618,-73.25945,0.8672014,0.3066704,0.1447129,-28.86181,-33.41769,-5.477123
70.432425499,-23.47977,44.62939,-68.9640500000003,0.8438787,0.3320586,0.1412565,-25.09287,-36.04819,-7.608582
70.442337036,-23.04621,43.05659,-64.7913700000001,0.846775,0.3335392,0.1393189,-25.09287,-36.04819,-7.608582
70.452248097,-23.29396,41.9498,-61.0482300000001,0.8272913,0.3294308,0.1418725,-25.09287,-36.04819,-7.608582
70.46215868,-21.80745,43.81386,-54.42104,0.8341882,0.366856,0.1430184,-25.09287,-36.04819,-7.608582
70.472070217,-22.48876,43.46435,-50.98472,0.7561142,0.3566911,0.1470338,-25.09287,-36.04819,-7.608582
70.481981278,-23.91334,39.61972,-48.34611,0.7405686,0.3404503,0.1379464,-23.58264,-37.55351,-9.346355
70.491892815,-25.70954,35.25082,-44.41889,0.7442409,0.3269644,0.1464654,-23.58264,-37.55351,-9.346355
70.501803875,-25.52373,32.74599,-40.12348,0.7375268,0.3201177,0.1512835,-23.58264,-37.55351,-9.346355
70.511715412,-24.78047,31.5227,-36.19626,0.724957,0.2758912,0.1611884,-23.58264,-37.55351,-9.346355
70.521626473,-22.73652,31.05668,-31.71677,0.7174696,0.25109,0.1649337,-23.58264,-37.55351,-9.346355
70.53153801,-19.70155,30.29941,-27.54409,0.6917416,0.2372041,0.1669997,-21.33337,-38.30932,-11.02609
70.54144907,-16.91434,28.08583,-24.0464,0.6912994,0.2357589,0.1698752,-21.33337,-38.30932,-11.02609
70.551360607,-13.63162,25.46449,-19.99645,0.6968015,0.2266223,0.1712039,-21.33337,-38.30932,-11.02609
70.561271667,-10.41084,23.65868,-15.63968,0.6922981,0.2270015,0.1616449,-21.33337,-38.30932,-11.02609
70.571183205,-7.31394,21.61986,-11.34428,0.6824309,0.2331747,0.1603368,-21.33337,-38.30932,-11.02609
70.581094265,-4.402851,18.94027,-6.80342499999999,0.6713437,0.2538439,0.1524143,-20.21011,-38.68879,-12.25142
70.591005802,-2.296958,16.02768,-2.446659,0.6525741,0.270586,0.1536598,-20.21011,-38.68879,-12.25142
70.600916386,-0.624630299999998,12.59081,2.216922,0.6388779,0.2801679,0.1644138,-20.21011,-38.68879,-12.25142
70.610827446,0.4902546,8.979187,6.63505200000001,0.6437514,0.2777817,0.1600314,-20.21011,-38.68879,-12.25142
70.620738983,1.481263,5.076307,10.74637,0.652517,0.2856782,0.1657648,-20.21011,-38.68879,-12.25142
70.630650043,2.781962,1.872449,14.61223,0.6694843,0.2970359,0.1647232,-19.51427,-39.43793,-12.25268
70.640561581,3.834909,-1.040149,18.23264,0.6640614,0.305726,0.1705932,-19.51427,-39.43793,-12.25268
70.650472641,4.516228,-4.244007,21.66896,0.6732572,0.3135981,0.1705606,-19.51427,-39.43793,-12.25268
70.660384178,4.949794,-7.331361,24.85983,0.6890254,0.3206865,0.1906286,-19.51427,-39.43793,-12.25268
70.670295238,5.569175,-10.12746,27.62116,0.7008792,0.318944,0.2001106,-19.51427,-39.43793,-12.25268
70.680206776,6.002741,-12.22453,30.3825,0.7141239,0.3210828,0.2067245,-20.19556,-39.81258,-12.24796
70.692595959,6.12661699999997,-14.67111,34.187,0.7192258,0.3144253,0.2195973,-20.19556,-39.81258,-12.24796
70.702506542,6.49824599999998,-17.05944,37.13242,0.7206541,0.3139357,0.2152594,-20.19556,-39.81258,-12.24796
70.712418079,6.93181199999999,-19.73903,39.83239,0.7254795,0.3164026,0.2118701,-20.19556,-39.81258,-12.24796
70.72232914,7.67506900000002,-21.9526,42.04145,0.7377443,0.3170647,0.2165626,-20.19556,-39.81258,-12.24796
70.732240677,8.78995200000002,-23.87492,44.4346,0.7494303,0.3240153,0.219862,-20.95217,-39.06161,-11.79666
70.742151737,10.3384,-25.50597,46.95048,0.7508817,0.3162208,0.2092331,-20.95217,-39.06161,-11.79666
70.752063274,12.25848,-27.25353,49.58909,0.7615874,0.3192555,0.2077139,-20.95217,-39.06161,-11.79666
70.761974335,14.61213,-29.52536,52.41178,0.7688473,0.3217476,0.2033419,-20.95217,-39.06161,-11.79666
70.771885872,16.71802,-31.33117,55.41856,0.7853386,0.3340816,0.204712,-20.95217,-39.06161,-11.79666
70.781796932,18.26647,-31.91369,58.8548900000003,0.8062173,0.3532929,0.2128096,-22.45614,-38.30941,-11.02025
70.791708469,19.25748,-32.49621,62.4139299999997,0.8333514,0.3681411,0.2059354,-22.45614,-38.30941,-11.02025
70.80161953,19.9388,-33.13698,64.9911800000001,0.8693853,0.38998,0.2167913,-22.45614,-38.30941,-11.02025
70.811531067,21.2395,-33.95251,66.2798000000001,0.9105051,0.3978359,0.2303879,-22.45614,-38.30941,-11.02025
70.821442127,22.47826,-33.25348,67.9979599999998,0.9458995,0.3954484,0.2458899,-22.45614,-38.30941,-11.02025
70.831353664,22.84989,-32.03019,70.5138400000001,0.9321369,0.3750002,0.2626865,-24.34224,-36.80595,-9.730239
70.841264725,22.66408,-32.03019,72.8456300000002,0.9178647,0.3418521,0.2625977,-24.34224,-36.80595,-9.730239
70.851175308,22.04469,-33.603,75.3615099999999,0.9220014,0.3122621,0.2498782,-24.34224,-36.80595,-9.730239
70.861086845,21.54919,-34.47678,78.5523799999998,0.93967,0.2959315,0.2371218,-24.34224,-36.80595,-9.730239
70.870998859,21.11563,-33.19523,80.9455300000003,0.9437132,0.3060445,0.2141042,-24.34224,-36.80595,-9.730239
70.880909443,20.49624,-31.56418,82.6637000000002,0.970164,0.3281024,0.1967209,-26.60445,-34.92452,-7.604258
70.890820503,20.18655,-30.22438,84.4432200000002,0.9749596,0.3542079,0.1704417,-26.60445,-34.92452,-7.604258
70.90073204,19.19555,-29.87487,84.8727599999999,0.9783798,0.3866841,0.1605431,-26.60445,-34.92452,-7.604258
70.910643101,17.64709,-30.9234,83.6455000000002,0.9702508,0.3783827,0.1687257,-26.60445,-34.92452,-7.604258
70.920554638,15.66508,-31.21466,83.76823,0.9619834,0.3419649,0.1781627,-26.60445,-34.92452,-7.604258
70.930465698,13.80693,-31.44767,84.6273000000001,0.9587453,0.2876322,0.1802315,-28.49215,-33.42289,-6.763962
70.940377235,12.75399,-33.54474,84.8113899999998,0.9683971,0.2391562,0.1586923,-28.49215,-33.42289,-6.763962
70.950288296,14.48825,-34.70978,85.4863900000003,1.005867,0.195392,0.1374074,-28.49215,-33.42289,-6.763962
70.960199833,18.26647,-33.7195,85.7318400000003,1.033704,0.1845038,0.1212322,-28.49215,-33.42289,-6.763962
70.972588539,23.59315,-32.90397,85.6091200000001,1.035231,0.1882077,0.08379039,-28.49215,-33.42289,-6.763962
70.982499599,27.68106,-33.54474,85.6091200000001,1.024583,0.1986132,0.05898996,-31.14478,-30.41954,-5.089209
70.992411137,31.45928,-35.0593,85.1795700000002,1.009366,0.1979045,0.05240376,-31.14478,-30.41954,-5.089209
71.002322197,34.92781,-35.64182,84.25913,1.026358,0.2063483,0.05038223,-31.14478,-30.41954,-5.089209
71.012233734,38.70604,-34.65153,82.2341499999997,1.032116,0.2224626,0.05859902,-31.14478,-30.41954,-5.089209
71.022144794,41.24549,-33.02048,80.7000800000003,1.056622,0.236945,0.08103631,-31.14478,-30.41954,-5.089209
71.032056332,42.05069,-30.74865,79.47282,1.088403,0.2588056,0.1063364,-33.02628,-28.91085,-2.514308
71.041967392,40.74999,-27.71955,78.24557,1.091597,0.2419049,0.1119562,-33.02628,-28.91085,-2.514308
71.051878929,40.31643,-25.91374,75.9137700000002,1.088951,0.2054326,0.09733292,-33.02628,-28.91085,-2.514308
71.061789989,39.38735,-27.48654,73.95016,1.057081,0.1786476,0.05759608,-33.02628,-28.91085,-2.514308
71.071701527,38.14859,-33.31174,71.1888299999997,1.023923,0.1216929,-9.567663e-05,-33.02628,-28.91085,-2.514308
71.081612587,39.07766,-40.24372,69.4093100000003,1.017836,0.1107737,-0.03420336,-35.24769,-25.59687,-1.228255
71.091524124,40.31643,-45.89416,67.62978,1.025977,0.1044472,-0.05832872,-35.24769,-25.59687,-1.228255
71.101434708,40.68805,-48.86501,66.5866099999999,1.026403,0.1068594,-0.06167769,-35.24769,-25.59687,-1.228255
71.111345768,43.78495,-47.46696,64.43891,1.059503,0.08695851,-0.05203306,-35.24769,-25.59687,-1.228255
71.121257305,48.80194,-43.91359,60.5730499999999,1.086738,0.0891766,-0.06379396,-35.24769,-25.59687,-1.228255
71.131168366,55.30543,-40.65148,58.91625,1.117862,0.1226509,-0.04129136,-36.39683,-22.96617,0.8895798
71.141079903,59.7649700000003,-36.98161,57.38218,1.124982,0.1777529,0.00222413,-36.39683,-22.96617,0.8895798
71.150990963,64.9058200000002,-32.03019,55.60265,1.123743,0.2085849,0.06054013,-36.39683,-22.96617,0.8895798
71.1609025,64.9058200000002,-29.00109,52.96405,1.12456,0.2355909,0.1240934,-36.39683,-22.96617,0.8895798
71.170813561,55.67706,-27.07878,50.44817,1.123676,0.2829451,0.1887582,-36.39683,-22.96617,0.8895798
71.180725098,42.67007,-29.17585,41.42782,1.10528,0.270125,0.1917239,-37.90915,-21.08312,3.397136
71.190636158,28.61013,-25.68073,44.98687,1.114666,0.3463803,0.1950261,-37.90915,-21.08312,3.397136
71.200547695,19.31942,-24.7487,42.34826,1.118369,0.2865691,0.1523394,-37.90915,-21.08312,3.397136
71.210458756,11.20554,-22.30212,40.50738,1.134091,0.2997264,0.1273134,-37.90915,-21.08312,3.397136
71.220370293,10.64809,-19.79728,37.62332,1.082034,0.2460279,-0.005086523,-37.90915,-21.08312,3.397136
71.230281353,16.90384,-18.10798,35.90516,1.049981,0.2601235,-0.01477951,-38.3079,-18.83035,4.677052
71.24019289,17.39934,-13.91383,32.10066,1.022935,0.2875119,0.002458617,-38.3079,-18.83035,4.677052
71.252581596,12.75399,-7.564369,27.00754,1.001645,0.2663833,-0.0003661923,-38.3079,-18.83035,4.677052
71.262492657,7.30344099999999,-6.39933000000002,24.61438,1.002332,0.2489317,-0.001449128,-38.3079,-18.83035,4.677052
71.272404194,1.295449,-5.467298,22.28259,1.00447,0.2402705,0.006155929,-38.3079,-18.83035,4.677052
71.282315254,-3.287966,-3.603236,19.9508,0.9876068,0.2177473,0.004241205,-39.07122,-17.32679,5.961222
71.292226791,-6.07517900000002,-2.554701,16.45312,0.9676301,0.207777,-0.0004420523,-39.07122,-17.32679,5.961222
71.302137852,-7.74750600000001,-2.088685,12.40316,0.9679472,0.1737957,-0.009314217,-39.07122,-17.32679,5.961222
71.312049389,-7.87138199999998,-2.263441,8.230488,0.9752229,0.1336174,-0.01445075,-39.07122,-17.32679,5.961222
71.321960449,-6.446807,-2.146937,4.425987,0.9878253,0.09982094,-0.01719325,-39.07122,-17.32679,5.961222
71.331871986,-4.155099,-1.797425,0.376035,0.9967259,0.08486089,-0.02505776,-38.71797,-15.83021,5.504948
71.341783047,-1.677577,-1.040149,-4.16482,0.9868271,0.0949201,-0.02489919,-38.71797,-15.83021,5.504948
71.351694584,-0.624630299999998,-0.108118,-8.951126,0.9812019,0.1122855,-0.02857275,-38.71797,-15.83021,5.504948
71.361605644,-0.129126,0.00838596299999999,-13.61471,0.9742711,0.1141065,-0.03473858,-38.71797,-15.83021,5.504948
71.371516228,0.3663784,-0.5158817,-17.11239,0.9894847,0.1089595,-0.03539372,-38.71797,-15.83021,5.504948
71.381427765,0.5521926,-1.389661,-19.2601,1.007667,0.09508695,-0.04285667,-39.09062,-15.82841,5.956606
71.391338825,0.861882899999998,-2.438197,-19.99645,1.020205,0.06954984,-0.04218244,-39.09062,-15.82841,5.956606
71.401250362,0.4902546,-2.787708,-19.99645,1.040382,0.06401442,-0.03616386,-39.09062,-15.82841,5.956606
71.411161423,0.0566882,-2.729456,-19.99645,1.051662,0.06856308,-0.02759502,-39.09062,-15.82841,5.956606
71.42107296,-0.810444500000001,-2.612952,-21.22371,1.043515,0.09610166,-0.02685606,-39.09062,-15.82841,5.956606
71.43098402,-2.049206,-3.544984,-23.73959,1.02775,0.1321812,-0.04375559,-39.46003,-16.20304,5.959705
71.440895558,-4.402851,-5.700306,-28.03499,1.008162,0.1682579,-0.05197695,-39.46003,-16.20304,5.959705
71.450806618,-6.75649699999998,-6.80709299999998,-32.14631,0.982913,0.1882713,-0.05881249,-39.46003,-16.20304,5.959705
71.460718155,-8.86239100000001,-8.26339300000001,-36.01217,0.9527133,0.2101428,-0.06943113,-39.46003,-16.20304,5.959705
71.470629215,-11.83542,-9.54493599999997,-40.36893,0.9472806,0.2188277,-0.06452144,-39.46003,-16.20304,5.959705
71.480540753,-15.48976,-9.311929,-43.43708,0.956651,0.2063028,-0.07141376,-38.32755,-16.95214,5.956175
71.490451813,-16.66659,-8.08863700000003,-45.27797,0.9410283,0.1919731,-0.08576948,-38.32755,-16.95214,5.956175
71.50036335,-16.41883,-7.331361,-46.99613,0.9385248,0.184107,-0.1006836,-38.32755,-16.95214,5.956175
71.51027441,-14.80844,-5.52555,-48.16203,0.9779736,0.1676964,-0.08771336,-38.32755,-16.95214,5.956175
71.522663117,-13.13612,-2.205189,-51.78244,1.027297,0.1995021,-0.05674735,-38.30193,-18.82355,6.347412
71.532574177,-13.7555,1.056921,-55.15739,1.052102,0.2314533,-0.03227582,-38.30193,-18.82355,6.347412
71.542485714,-16.3569,3.911268,-58.5323600000001,1.057843,0.2573144,-0.01439077,-38.30193,-18.82355,6.347412
71.552396774,-19.63961,6.76561400000002,-62.0914000000002,1.044094,0.2771127,0.003153978,-38.30193,-18.82355,6.347412
71.562308311,-25.83342,10.49374,-67.0004299999998,1.055663,0.3396125,0.06012203,-38.30193,-18.82355,6.347412
71.572219372,-34.4428,12.2413,-72.0935599999998,1.070642,0.3714168,0.07988186,-37.16599,-19.94881,5.959568
71.582130909,-43.91933,14.39662,-77.6775800000002,1.081779,0.3846713,0.08466876,-37.16599,-19.94881,5.959568
71.592041969,-52.03321,17.48397,-80.31618,1.089686,0.3755447,0.08213403,-37.16599,-19.94881,5.959568
71.601953506,-59.5277099999998,17.42572,-84.0593299999997,1.097181,0.3596223,0.0790777,-37.16599,-19.94881,5.959568
71.611864567,-65.84541,18.24125,-88.4774599999999,1.121139,0.341873,0.05809107,-37.16599,-19.94881,5.959568
71.621776104,-68.1990500000001,20.28007,-90.8706099999997,1.153682,0.3343652,0.02797028,-36.39458,-22.20338,4.227992
71.631687164,-69.5616800000001,20.04706,-92.4046799999998,1.165613,0.3377806,0.003394624,-36.39458,-22.20338,4.227992
71.641598701,-68.9423099999999,22.14413,-93.2023999999998,1.163013,0.3342548,-0.01581115,-36.39458,-22.20338,4.227992
71.651509285,-67.1460999999997,25.52275,-93.57057,1.1494,0.3646073,-0.02028463,-36.39458,-22.20338,4.227992
71.661420822,-66.6505999999999,28.95961,-95.4728199999998,1.126081,0.3987778,-0.01311911,-36.39458,-22.20338,4.227992
71.671331882,-67.9512900000001,31.93046,-97.37508,1.133479,0.4145122,0.01140537,-34.85801,-25.95941,1.726205
71.68124342,-74.0212200000002,32.51298,-98.1727899999998,1.133859,0.3995882,0.03098891,-34.85801,-25.95941,1.726205
71.69115448,-72.8444099999999,34.90131,-99.8295900000002,1.140218,0.3530878,0.02437827,-34.85801,-25.95941,1.726205
71.701066017,-69.8713800000003,38.22168,-99.7682299999999,1.148587,0.3461526,0.06938954,-34.85801,-25.95941,1.726205
71.710977077,-68.8184299999999,39.79448,-98.35688,1.136576,0.300993,0.08504499,-34.85801,-25.95941,1.726205
71.720888615,-65.1640899999999,40.14399,-96.8841699999997,1.127535,0.2810062,0.08595576,-32.64929,-28.5276,-0.3973351
71.730799675,-61.01423,39.67797,-95.2887300000002,1.087978,0.2712676,0.0795345,-32.64929,-28.5276,-0.3973351
71.740711212,-55.31593,40.90126,-93.7546600000002,1.070327,0.2754121,0.07972535,-32.64929,-28.5276,-0.3973351
71.750622272,-49.30793,41.65854,-93.07967,1.04277,0.2959538,0.08683927,-32.64929,-28.5276,-0.3973351
71.76053381,-45.09615,41.89155,-91.4842400000002,1.028129,0.2982236,0.09227154,-32.64929,-28.5276,-0.3973351
71.77044487,-40.32692,42.41582,-89.7047099999999,1.003636,0.2959426,0.08528049,-30.37551,-31.53621,-3.355035
71.780356407,-35.99125,43.05659,-86.3297499999997,0.9982954,0.3022367,0.09641544,-30.37551,-31.53621,-3.355035
71.790267467,-32.27497,43.46435,-83.5070600000002,0.9793704,0.2947561,0.1018224,-30.37551,-31.53621,-3.355035
71.802656174,-27.81544,43.69736,-78.6593899999999,0.9668931,0.3164225,0.1025623,-30.37551,-31.53621,-3.355035
71.834867954,-18.52473,45.73618,-66.2640799999998,0.9218361,0.373134,0.1144004,-27.72125,-34.91782,-5.928059
71.842301369,-17.84341,47.01772,-62.70503,0.8909526,0.3529554,0.130877,-27.72125,-34.91782,-5.928059
71.852212429,-18.09116,47.48374,-58.96189,0.8733112,0.3571051,0.1320281,-27.72125,-34.91782,-5.928059
71.862123966,-20.32093,47.65849,-54.54377,0.8579453,0.3443724,0.1445695,-27.72125,-34.91782,-5.928059
71.872035027,-24.03721,45.67793,-48.95974,0.8075122,0.3868715,0.1400373,-24.71723,-36.04659,-7.22506
71.881946564,-27.44381,43.58086,-44.11207,0.789353,0.3827074,0.1286537,-24.71723,-36.04659,-7.22506
71.978581429,-16.8524,26.10526,-9.81020699999998,0.7128224,0.2262768,0.1595296,-21.33337,-38.30932,-11.02609
71.981058598,-15.73752,25.34799,-8.76703699999999,0.7095019,0.21897,0.1609521,-21.33337,-38.30932,-11.02609
71.990970135,-10.59666,23.42567,-4.717086,0.7042605,0.214096,0.1686507,-21.33337,-38.30932,-11.02609
72.000881195,-6.01324099999998,20.74608,-1.096675,0.6855409,0.2250104,0.1679362,-21.33337,-38.30932,-11.02609
72.010792732,-2.54471,17.94999,2.462374,0.6746919,0.2306816,0.1656735,-21.33337,-38.30932,-11.02609
72.020703793,0.614130699999998,14.74613,5.96005999999999,0.6651626,0.2470262,0.1615491,-20.95378,-39.06345,-12.24637
72.117339134,3.958785,-13.27306,32.40747,0.7461093,0.325001,0.2309429,-20.58922,-38.31422,-12.25063
72.122294426,3.958785,-14.49635,34.00291,0.7437919,0.3172318,0.2342737,-20.58922,-38.31422,-12.25063
72.132205486,4.330414,-16.94294,36.76424,0.740442,0.2991781,0.2202598,-20.58922,-38.31422,-12.25063
72.142117024,5.569175,-19.62253,39.46421,0.7570019,0.2954501,0.2095183,-20.58922,-38.31422,-12.25063
72.152028084,7.73700700000001,-21.7196,41.67327,0.7824875,0.2899458,0.2087658,-20.58922,-38.31422,-12.25063
72.161939621,10.95778,-22.70988,43.57552,0.792783,0.2847228,0.2052747,-20.58922,-38.31422,-12.25063
72.226362705,35.36138,-26.78752,59.3457900000002,0.8823861,0.3232202,0.2143057,-23.59186,-37.18388,-10.56816
72.231318474,36.0427,-26.78752,60.7571400000001,0.8915797,0.3296277,0.2123427,-23.59186,-37.18388,-10.56816
72.241230011,36.41433,-25.79723,64.43891,0.8918855,0.3466117,0.2143736,-23.59186,-37.18388,-10.56816
72.251141071,35.98076,-25.68073,68.2434099999998,0.8747846,0.3493308,0.2188713,-23.59186,-37.18388,-10.56816
72.261051655,34.61812,-25.97199,71.6797300000003,0.8743448,0.3493502,0.2236771,-23.59186,-37.18388,-10.56816
72.270963192,32.82192,-27.31178,74.6251500000002,0.8866251,0.3495326,0.2293266,-25.47818,-35.68068,-9.342394
72.325475693,29.0437,-28.18556,76.6501299999999,0.953112,0.3101197,0.2294095,-28.1098,-34.17388,-7.213313
72.330430985,28.2385,-28.12731,77.0796700000001,0.9626654,0.2913486,0.2330374,-28.1098,-34.17388,-7.213313
72.340342045,26.87586,-27.54479,79.5955499999999,0.9699984,0.2753421,0.2141367,-28.1098,-34.17388,-7.213313
72.350253582,25.76098,-26.90402,82.6023300000001,0.9706909,0.2625229,0.1713109,-28.1098,-34.17388,-7.213313
72.360164642,25.07966,-26.67101,85.0568500000001,0.9650522,0.252564,0.1343245,-28.1098,-34.17388,-7.213313
72.372554302,23.34539,-27.8943,85.6091200000001,0.9686627,0.2534319,0.1059675,-31.12191,-32.29409,-5.468907
72.427065849,34.55619,-44.43786,85.0568500000001,1.005894,0.1054013,-0.01300175,-32.27911,-29.29245,-4.251652
72.432021141,35.60913,-44.37961,86.5295599999997,1.037081,0.1252504,-0.0001936713,-32.27911,-29.29245,-4.251652
72.441932678,42.73201,-41.29226,88.73862,1.088794,0.06998909,-0.02888925,-32.27911,-29.29245,-4.251652
72.451843739,53.1376,-34.47678,89.5976999999998,1.129694,0.05651566,-0.0139922,-32.27911,-29.29245,-4.251652
72.461755276,62.5521899999999,-28.53508,88.8613499999998,1.143804,0.05616875,-0.02132737,-34.16845,-27.41256,-2.513084
72.516266823,78.9657600000001,-28.65158,78.9205600000002,1.065877,0.1982583,-0.01533866,-35.63537,-24.09172,0.439436
72.521223068,78.47025,-28.88459,77.3864799999999,1.051633,0.2024376,-0.01661957,-35.63537,-24.09172,0.439436
72.531134129,75.62111,-31.85544,73.45926,1.034084,0.2100496,-0.002481962,-35.63537,-24.09172,0.439436
72.541045666,69.61311,-38.55441,66.8320599999999,1.075271,0.2681756,-0.01880101,-35.63537,-24.09172,0.439436
72.550956726,66.1445799999999,-37.73888,69.1638600000003,1.076468,0.3212247,0.01707303,-35.63537,-24.09172,0.439436
72.560868263,59.51722,-36.6321,64.9911800000001,1.086407,0.3350886,0.04876392,-37.52818,-21.83568,2.562317
72.622813225,-11.83542,-17.99147,45.53913,1.057319,0.3531397,0.04675239,-38.67109,-19.578,5.066772
72.630246639,-9.29595900000002,-17.93322,42.96189,1.006274,0.2953287,-0.03958914,-38.67109,-19.578,5.066772
72.642635822,-1.120135,-17.2342,39.46421,0.9582773,0.2281071,-0.07800575,-38.67109,-19.578,5.066772
72.652547359,3.711033,-15.7779,36.58015,0.9277382,0.1878594,-0.09911841,-38.67109,-19.578,5.066772
72.66245842,5.135609,-15.31188,33.38928,0.9200673,0.1515037,-0.07912302,-38.69212,-17.70136,5.960428
72.672369957,2.472272,-14.90412,29.95296,0.9572209,0.1527013,-0.03096267,-38.69212,-17.70136,5.960428
72.731836796,-1.553701,-7.97213299999999,-12.44881,1.01517,0.2169608,-0.02674907,-39.8426,-15.45231,6.344812
72.741748333,-1.305949,-6.04981799999998,-18.5851,1.031804,0.226442,-0.01483579,-39.8426,-15.45231,6.344812
72.751659393,-2.23502,-4.069251,-23.49414,1.047237,0.2140919,-0.002576676,-39.8426,-15.45231,6.344812
72.76157093,-2.792462,-3.370228,-27.11455,1.058696,0.1928803,-0.006665232,-39.47458,-15.07925,5.956244
72.771481991,-1.739515,-3.836243,-30.24406,1.078307,0.1755917,-0.02184668,-39.47458,-15.07925,5.956244
72.781393528,0.1805643,-5.700306,-33.43493,1.085817,0.1799169,-0.04733571,-39.47458,-15.07925,5.956244
72.843338966,-13.32193,-0.574133599999999,-61.6618700000002,0.9991528,0.2382748,-0.08551841,-39.47021,-15.07428,7.176891
72.850772381,-11.27798,2.454968,-63.1345700000002,1.007178,0.2131118,-0.09536343,-39.47021,-15.07428,7.176891
72.860683918,-9.60564900000001,5.89183400000002,-65.7731799999998,1.044537,0.2219728,-0.06588009,-39.0717,-16.94723,7.180716
72.870594978,-11.09216,8.45492,-68.3504199999998,1.057829,0.2436485,-0.03176738,-39.0717,-16.94723,7.180716
72.880506515,-14.87038,11.36752,-70.2526699999997,1.05911,0.2516237,0.007166715,-39.0717,-16.94723,7.180716
72.890417576,-21.00225,13.9306,-72.0322,1.065614,0.2615361,0.03310114,-39.0717,-16.94723,7.180716
72.962274075,-52.46678,19.8723,-92.1592299999998,1.100539,0.3510906,0.01512875,-36.02218,-21.82536,5.060072
72.972185135,-58.2889500000001,18.88202,-95.3501000000003,1.120799,0.3609599,-0.000357925,-36.02218,-21.82536,5.060072
72.982096672,-62.0052400000001,18.24125,-99.3386900000002,1.122992,0.3274494,-0.01644668,-36.02218,-21.82536,5.060072
72.992007732,-62.4388000000003,20.28007,-101.6091,1.136562,0.2941474,-0.01967498,-36.02218,-21.82536,5.060072
73.00191927,-63.3678700000001,23.36742,-100.0137,1.115268,0.2642365,-0.03312175,-36.02218,-21.82536,5.060072
73.01183033,-62.7484900000002,22.7849,-98.1727899999998,1.087305,0.2418887,-0.06806358,-35.6151,-24.82889,3.396996
73.066342354,-49.98925,29.07611,-90.62515,1.083976,0.2909233,0.04609139,-32.64331,-28.5208,1.273026
73.071298122,-48.50274,29.60038,-89.8888000000001,1.090078,0.2774601,0.05314764,-32.64331,-28.5208,1.273026
73.08120966,-44.16708,32.92075,-87.3729199999998,1.071401,0.2627916,0.0743496,-32.64331,-28.5208,1.273026
73.09112072,-39.39785,34.20229,-84.4888699999999,1.031451,0.2677309,0.09443845,-32.64331,-28.5208,1.273026
73.101032257,-35.55769,33.38676,-81.4207200000001,0.9933881,0.2648536,0.09861257,-32.64331,-28.5208,1.273026
73.110942841,-32.95629,32.04697,-77.6162199999998,0.9751542,0.2801627,0.1027245,-30.36793,-31.52758,-1.234962
73.165455341,-29.67358,30.94018,-58.0414499999998,0.9157732,0.32589,0.08773305,-28.47513,-33.78363,-3.357842
73.170410633,-29.79745,31.28969,-55.34148,0.9071814,0.3427137,0.08024205,-28.47513,-33.78363,-3.357842
73.18032217,-30.60265,31.11493,-50.55518,0.8853758,0.3647317,0.07770944,-28.47513,-33.78363,-3.357842
73.190233231,-33.9473,30.1829,-48.22339,0.8531339,0.3677576,0.08426984,-28.47513,-33.78363,-3.357842
73.202622414,-38.65459,28.66835,-44.05071,0.8585813,0.3644462,0.08707836,-28.47513,-33.78363,-3.357842
73.212533951,-41.31793,28.78485,-40.12348,0.8609557,0.3785865,0.09675375,-26.58579,-35.66352,-5.096409
73.267045498,-38.8404,24.82372,-19.32146,0.7946671,0.2461733,0.1531433,-25.08179,-36.79581,-7.220806
73.272001743,-37.16808,24.29945,-17.6033,0.7735666,0.2463588,0.1461374,-25.08179,-36.79581,-7.220806
73.281912327,-34.19505,22.20238,-15.33287,0.7561083,0.2281646,0.1389752,-25.08179,-36.79581,-7.220806
73.291823387,-29.79745,20.28007,-13.36926,0.7597387,0.2107545,0.1388257,-25.08179,-36.79581,-7.220806
73.301734924,-24.3469,19.52279,-12.01927,0.7490618,0.1921249,0.1248757,-25.08179,-36.79581,-7.220806
73.311645985,-18.21504,18.59076,-11.16019,0.7481664,0.1765459,0.1146969,-23.9569,-37.55354,-9.34441
73.371113777,14.30244,7.87240099999999,2.339648,0.7486145,0.2911561,0.1495475,-23.58402,-37.55508,-9.731823
73.371113777,14.30244,7.87240099999999,2.339648,0.7486145,0.2911561,0.1495475,-23.58402,-37.55508,-9.731823
73.381025314,15.66508,6.008338,5.223705,0.7607861,0.3078673,0.163951,-23.58402,-37.55508,-9.731823
73.390936375,16.28446,4.552039,8.230488,0.7635576,0.3292831,0.1731911,-23.58402,-37.55508,-9.731823
73.400847912,15.5412,2.979236,11.36,0.7669457,0.3424787,0.1852516,-23.58402,-37.55508,-9.731823
73.410758972,14.67407,1.522937,14.30542,0.7635036,0.3453526,0.1867431,-22.4661,-37.18039,-9.738816
73.470226765,14.61213,-8.205141,32.28475,0.798396,0.3080785,0.2077792,-23.19869,-38.30267,-9.345994
73.470226765,14.61213,-8.205141,32.28475,0.798396,0.3080785,0.2077792,-23.19869,-38.30267,-9.345994
73.482615471,15.60314,-11.23424,35.47562,0.7909313,0.2996262,0.1852245,-23.19869,-38.30267,-9.345994
73.492527008,15.85089,-13.62257,37.9915,0.7957229,0.3045144,0.1813714,-23.19869,-38.30267,-9.345994
73.502438069,16.53221,-15.83615,40.44601,0.8069401,0.2978109,0.1706596,-23.95853,-37.17529,-8.446138
73.512349606,17.70903,-17.2342,43.33007,0.8248821,0.2974719,0.1556065,-23.95853,-37.17529,-8.446138
73.571817398,30.09664,-15.02062,58.5480700000002,0.9285706,0.269765,0.1731891,-25.08802,-36.42278,-7.607428
73.571817398,30.09664,-15.02062,58.5480700000002,0.9285706,0.269765,0.1731891,-25.08802,-36.42278,-7.607428
73.581728458,33.31742,-14.26335,61.3093999999999,0.9305106,0.2649031,0.1659364,-25.08802,-36.42278,-7.607428
73.591639995,35.48526,-13.97209,64.5616399999999,0.9194955,0.2782928,0.1565243,-25.08802,-36.42278,-7.607428
73.601551056,36.10464,-13.62257,67.9979599999998,0.9257843,0.3219913,0.1533962,-26.60146,-34.92113,-6.769078
73.611462593,34.68006,-13.68083,70.4524799999997,0.9328033,0.3516751,0.1573703,-26.60146,-34.92113,-6.769078
73.653584957,24.89385,-16.30216,84.5659399999998,0.9494698,0.2777675,0.1701682,-28.48618,-33.4161,-5.093601
73.661018848,24.27447,-18.04972,85.7318400000003,0.9656474,0.2721376,0.1675803,-28.48618,-33.4161,-5.093601
73.670930386,24.70803,-18.86525,84.75003,0.9877325,0.2734315,0.1769878,-28.48618,-33.4161,-5.093601
73.680841446,25.57516,-17.17594,85.2409400000003,1.000153,0.2561256,0.1757973,-28.48618,-33.4161,-5.093601
73.690752983,25.6371,-14.72936,86.3454700000001,1.019369,0.2437578,0.1755372,-28.48618,-33.4161,-5.093601
73.700664043,24.08865,-13.38957,88.0636299999998,1.039996,0.2245498,0.1617741,-30.75921,-31.16687,-4.639135
73.710574627,23.0357,-12.57404,91.2545000000003,1.041201,0.1939487,0.1481146,-30.75921,-31.16687,-4.639135
73.720486164,22.47826,-13.21481,94.7521900000002,1.032635,0.1705464,0.1437165,-30.75921,-31.16687,-4.639135
73.730397224,23.15958,-14.26335,96.9612499999999,1.051615,0.1353771,0.1413861,-30.75921,-31.16687,-4.639135
73.740308762,24.3364,-14.26335,98.9248699999998,1.080617,0.1158181,0.133305,-30.75921,-31.16687,-4.639135
73.750219822,27.92881,-13.38957,100.3976,1.091423,0.07207572,0.08681846,-33.02926,-28.91425,-3.349488
73.762609482,36.41433,-13.04005,99.10896,1.057829,0.05196788,0.02985637,-33.02926,-28.91425,-3.349488
73.772520542,42.60813,-13.68083,98.0044199999999,1.049368,0.03520079,-0.004268318,-33.02926,-28.91425,-3.349488
73.782432079,47.12961,-16.06916,96.83852,1.050442,0.04379495,-0.03255033,-33.02926,-28.91425,-3.349488
73.79234314,50.22651,-19.73903,96.2248999999999,1.037126,0.02405838,-0.06664991,-33.02926,-28.91425,-3.349488
73.802254677,58.0307100000001,-19.44777,92.6044800000001,1.060234,0.01172898,-0.06886638,-35.2396,-26.34789,-1.675659
73.812165737,62.4902500000002,-19.09826,89.22952,1.089064,0.1057307,-0.05602266,-35.2396,-26.34789,-1.675659
73.822077274,64.47226,-19.73903,85.6091200000001,1.064407,0.07873444,-0.06029589,-35.2396,-26.34789,-1.675659
73.831988335,68.7459799999999,-24.39919,75.8524099999999,1.052183,0.134919,-0.04204269,-35.2396,-26.34789,-1.675659
73.841899872,70.4802499999998,-33.13698,65.8502599999999,1.142954,0.2344939,-0.03837752,-35.2396,-26.34789,-1.675659
73.851810932,70.0466799999999,-33.25348,59.2844299999999,1.161459,0.3112729,0.04406989,-36.78239,-22.21884,0.4395056
73.861722469,61.00373,-31.85544,56.64582,1.102689,0.3317128,0.10669,-36.78239,-22.21884,0.4395056
73.87163353,46.57217,-30.39914,59.2844299999999,1.020746,0.3361553,0.1319655,-36.78239,-22.21884,0.4395056
73.881545067,26.69005,-31.15641,61.9230299999998,1.000335,0.2947479,0.1434022,-36.78239,-22.21884,0.4395056
73.891456127,6.622122,-30.6904,62.8434800000002,1.026466,0.2732337,0.139176,-36.78239,-22.21884,0.4395056
73.901367664,-9.48177200000001,-29.40886,64.9911800000001,1.074948,0.2650985,0.1367527,-37.92183,-20.33732,2.559648
73.911278248,-17.10015,-25.33122,66.5252500000001,1.064417,0.24337,0.0858086,-37.92183,-20.33732,2.559648
73.921189308,-14.06519,-20.49631,66.5252500000001,1.033782,0.2679413,0.035839,-37.92183,-20.33732,2.559648
73.931100845,-9.79146300000003,-15.60314,65.6661699999997,1.015509,0.2803033,0.03272925,-37.92183,-20.33732,2.559648
73.941011906,2.100644,-13.04005,61.5548600000002,0.956708,0.2387671,-0.07551943,-37.92183,-20.33732,2.559648
73.950923443,14.42632,-14.26335,57.9344399999998,0.9449916,0.2222928,-0.04527086,-38.69783,-18.08798,3.00633
73.960834503,17.46128,-11.5255,52.53451,0.9536271,0.2115939,0.02132,-38.69783,-18.08798,3.00633
73.97074604,15.35539,-7.97213299999999,44.68005,0.9556938,0.1836317,0.04704314,-38.69783,-18.08798,3.00633
73.980657101,11.57716,-9.02066899999998,37.00969,0.9811922,0.1476507,0.0595319,-38.69783,-18.08798,3.00633
73.990568638,7.24150199999998,-11.58376,29.64614,1.030544,0.1084999,0.05785434,-38.69783,-18.08798,3.00633
74.000479698,4.082662,-13.21481,21.36215,1.072317,0.1113212,0.03395906,-39.84187,-16.2117,3.841579
74.010391235,8.91382900000002,-14.78761,8.84411600000001,1.077142,0.2293798,-0.02483867,-39.84187,-16.2117,3.841579
74.020302296,17.83291,-13.38957,-10.79201,1.049535,0.4247607,0.03913883,-39.84187,-16.2117,3.841579
74.030213833,19.00973,-5.23429,-32.63721,1.075742,0.5537695,0.1708391,-39.84187,-16.2117,3.841579
74.042603016,11.08166,7.87240099999999,-50.61654,1.117841,0.5138423,0.2239615,-39.84187,-16.2117,3.841579
74.052514076,3.153591,11.60053,-54.91195,1.094425,0.3962638,0.1393671,-40.98937,-13.95925,5.061142
74.062425613,-0.5626923,4.493787,-52.76424,1.045886,0.2465685,-0.000907348,-40.98937,-13.95925,5.061142
74.072336674,0.4902546,-7.62262100000002,-46.8734,1.012783,0.1167207,-0.09077568,-40.98937,-13.95925,5.061142
74.082248211,4.1446,-17.29245,-42.27119,1.025962,0.07517112,-0.09405532,-40.98937,-13.95925,5.061142
74.092159271,5.321423,-18.98175,-40.79848,1.033459,0.14827,-0.04034011,-40.98937,-13.95925,5.061142
74.102070808,2.348396,-14.55461,-44.2348,1.008615,0.2562902,-1.77403e-05,-39.48402,-14.70989,4.670198
74.111981869,-4.402851,-8.96241700000002,-51.29153,0.973511,0.3236979,-0.006446388,-39.48402,-14.70989,4.670198
74.121893406,-9.915339,-5.059535,-59.3914399999999,0.9585478,0.3092147,-0.05201953,-39.48402,-14.70989,4.670198
74.131803989,-11.1541,-2.496449,-66.0799900000001,0.973846,0.2899654,-0.06093209,-39.48402,-14.70989,4.670198
74.14171505,-9.29595900000002,-0.574133599999999,-72.27765,1.015003,0.2934504,-0.04880539,-39.48402,-14.70989,4.670198
74.151626587,-8.05719799999999,2.163708,-78.04576,1.066154,0.3020476,-0.009848196,-39.08413,-16.58126,5.059488
74.161537647,-10.03922,5.309315,-80.9911799999999,1.07859,0.2874374,0.04131639,-39.08413,-16.58126,5.059488
74.171449184,-15.24201,8.51317200000002,-81.9729799999999,1.089034,0.2688813,0.08431043,-39.08413,-16.58126,5.059488
74.181360245,-23.60365,9.91121900000001,-83.56842,1.084965,0.2828968,0.08540174,-39.08413,-16.58126,5.059488
74.191271782,-33.51373,11.42577,-85.3479499999998,1.082144,0.2882848,0.1027494,-39.08413,-16.58126,5.059488
74.201182842,-40.63661,14.62963,-86.2683899999999,1.091193,0.2877879,0.07865451,-37.93551,-18.45232,5.509132
74.211094379,-44.10514,15.85292,-88.9070000000001,1.09414,0.3066075,0.05426456,-37.93551,-18.45232,5.509132
74.22100544,-45.65359,15.3869,-93.3251300000003,1.112996,0.3252715,0.05517484,-37.93551,-18.45232,5.509132
74.230916977,-46.83041,16.43544,-97.9887099999998,1.128009,0.3439227,0.06284278,-37.93551,-18.45232,5.509132
74.240828037,-46.83041,20.16356,-101.1796,1.117356,0.3492084,0.07930189,-37.93551,-18.45232,5.509132
74.250739574,-48.13111,23.71693,-103.8182,1.126742,0.3523014,0.09219996,-36.39596,-22.20495,3.842525
74.260650635,-50.85639,24.06645,-106.4568,1.131557,0.3420795,0.07288101,-36.39596,-22.20495,3.842525
74.270562172,-53.82941,24.88197,-107.7454,1.141127,0.3640447,0.07822058,-36.39596,-22.20495,3.842525
74.280473232,-57.17407,25.52275,-108.6658,1.129218,0.3745389,0.07359904,-36.39596,-22.20495,3.842525
74.29038477,-61.01423,24.99848,-109.7704,1.128507,0.3546655,0.07635416,-36.39596,-22.20495,3.842525
74.30029583,-64.0491999999999,24.88197,-110.8136,1.140589,0.3537687,0.06135155,-35.24843,-24.83748,1.274978
74.310207367,-67.39385,24.59071,-110.0772,1.116209,0.3295956,0.03980886,-35.24843,-24.83748,1.274978
74.32259655,-68.6326100000003,25.23149,-108.8499,1.092196,0.3317067,0.03716405,-35.24843,-24.83748,1.274978
74.332508087,-69.0661800000002,24.64897,-108.6658,1.088919,0.3195444,0.03711334,-35.24843,-24.83748,1.274978
74.342419148,-67.8274199999999,25.814,-107.5613,1.091163,0.3119139,0.05624808,-32.64742,-28.90559,-1.231362
74.352330685,-64.7924600000003,27.73632,-105.1682,1.08713,0.3066845,0.08602035,-32.64742,-28.90559,-1.231362
74.362241268,-60.3948500000002,29.07611,-101.7318,1.063444,0.2962828,0.1005749,-32.64742,-28.90559,-1.231362
74.372152329,-55.99725,30.0664,-98.11143,1.03032,0.292517,0.1085386,-32.64742,-28.90559,-1.231362
74.382063866,-51.35189,29.36737,-94.9205600000001,1.004651,0.2815883,0.1197469,-32.64742,-28.90559,-1.231362
74.391974926,-47.1401,28.84311,-91.9751400000002,0.9910737,0.2741591,0.1222237,-29.2495,-31.91255,-3.809433
74.401886463,-42.86638,29.65863,-88.35473,0.9686319,0.2621964,0.1132286,-29.2495,-31.91255,-3.809433
74.411797524,-38.3449,30.47416,-85.2865800000002,0.9404505,0.2477877,0.1138734,-29.2495,-31.91255,-3.809433
74.421709061,-35.7435,30.59067,-80.5616399999997,0.9193287,0.2543035,0.1121915,-29.2495,-31.91255,-3.809433
74.431620121,-32.46078,30.47416,-76.4503300000002,0.90302,0.2647431,0.1076103,-29.2495,-31.91255,-3.809433
74.441531658,-29.24001,30.99843,-72.9526400000002,0.8955623,0.2738554,0.1062995,-27.72449,-34.54139,-5.4795
74.451442719,-25.77148,31.87221,-68.3504199999998,0.8850886,0.296059,0.1123061,-27.72449,-34.54139,-5.4795
74.461354256,-26.01923,31.69745,-62.8277599999999,0.85456,0.318983,0.1185031,-27.72449,-34.54139,-5.4795
74.471265316,-26.39086,30.70717,-57.9800900000001,0.8462804,0.3179204,0.1204932,-27.72449,-34.54139,-5.4795
74.481176853,-27.50574,30.24116,-52.21198,0.8095359,0.3315698,0.1295668,-27.72449,-34.54139,-5.4795
74.491087914,-29.30195,28.7266,-48.0393,0.7925099,0.3148158,0.118569,-25.09149,-36.04662,-7.223114
74.500999451,-30.47877,28.08583,-42.45527,0.7739201,0.3189685,0.1226099,-25.09149,-36.04662,-7.223114
74.510910511,-32.08916,25.63925,-38.58941,0.7540949,0.2959062,0.1173579,-25.09149,-36.04662,-7.223114
74.520822048,-32.70854,23.19267,-34.04856,0.7524582,0.2823893,0.132648,-25.09149,-36.04662,-7.223114
74.530733109,-31.90335,21.3286,-29.44634,0.7432998,0.2701465,0.1312107,-25.09149,-36.04662,-7.223114
74.540644646,-30.8504,19.23153,-25.15094,0.7367544,0.2541193,0.1417279,-23.56973,-38.29904,-8.444623
74.550555706,-27.81544,18.94027,-20.54872,0.7365884,0.2357446,0.1516904,-23.56973,-38.29904,-8.444623
74.560467243,-24.6566,17.30922,-16.92831,0.728556,0.2201764,0.1607839,-23.56973,-38.29904,-8.444623
74.570378303,-21.43582,16.31894,-13.00108,0.7290239,0.2182204,0.1564452,-23.56973,-38.29904,-8.444623
74.580289841,-18.58667,14.97914,-8.33749799999999,0.7208259,0.2128099,0.1612865,-23.56973,-38.29904,-8.444623
74.590200901,-15.98527,13.28983,-3.673917,0.7074872,0.2272076,0.1648669,-22.07543,-38.68214,-10.57133
74.602590084,-12.4548,10.95975,1.910108,0.7078286,0.2461613,0.1726725,-22.07543,-38.68214,-10.57133
74.612501144,-8.86239100000001,8.86268300000002,5.77597099999998,0.7132279,0.2530687,0.182752,-22.07543,-38.68214,-10.57133
74.622412205,-5.331922,6.94037000000001,9.27365700000001,0.7122706,0.2579453,0.1904758,-22.07543,-38.68214,-10.57133
74.632323742,-2.173082,5.309315,12.89407,0.7084945,0.2618693,0.2083028,-22.07543,-38.68214,-10.57133
74.642234802,-0.0671879099999998,2.920984,16.26903,0.7071165,0.2643362,0.2198557,-22.06734,-39.43316,-11.01873
74.652146339,1.481263,0.4161497,19.70535,0.7159107,0.2673696,0.2226755,-22.06734,-39.43316,-11.01873
74.6620574,2.781962,-2.088685,22.40532,0.7284191,0.2815686,0.2192934,-22.06734,-39.43316,-11.01873
74.671968937,3.896847,-4.768275,25.16665,0.7335703,0.2981031,0.2164749,-22.06734,-39.43316,-11.01873
74.681879997,4.392352,-6.86534499999999,27.00754,0.7436748,0.3142441,0.2193699,-22.06734,-39.43316,-11.01873
74.691791534,4.392352,-9.25367600000001,29.15524,0.7487295,0.3380453,0.2156405,-22.08673,-37.93478,-11.02335
74.701702595,4.082662,-11.409,30.99612,0.7574844,0.3464241,0.2208971,-22.08673,-37.93478,-11.02335
74.711614132,4.020724,-13.50607,32.77565,0.7623874,0.3440532,0.2193955,-22.08673,-37.93478,-11.02335
74.721525192,4.640104,-15.54489,34.61654,0.7718903,0.3340364,0.2283639,-22.08673,-37.93478,-11.02335
74.731436729,5.507237,-17.17594,36.39606,0.779762,0.3336717,0.23261,-22.08673,-37.93478,-11.02335
74.74134779,7.17956399999999,-18.86525,38.35968,0.7976256,0.3179304,0.2395424,-22.82879,-38.30761,-10.56859
74.751259327,8.85189099999998,-19.91379,40.07784,0.8097721,0.3136528,0.2269174,-22.82879,-38.30761,-10.56859
74.761170387,10.52422,-20.90407,42.2869,0.8215172,0.3123416,0.2263199,-22.82879,-38.30761,-10.56859
74.771081924,12.38236,-22.18561,44.18915,0.8233596,0.3152339,0.2186396,-22.82879,-38.30761,-10.56859
74.780992985,14.2405,-23.1759,46.21413,0.8277327,0.3084454,0.2079904,-22.82879,-38.30761,-10.56859
74.790904522,16.47027,-24.22443,48.36183,0.8403818,0.3046689,0.1972848,-23.21461,-37.18045,-9.734923
74.800815582,19.4433,-24.45744,51.12316,0.8466177,0.3110272,0.1929481,-23.21461,-37.18045,-9.734923
74.810727119,21.85888,-23.81667,53.63904,0.8571064,0.3334613,0.1930005,-23.21461,-37.18045,-9.734923
74.82063818,24.02671,-22.70988,56.15492,0.8809129,0.3502673,0.1976939,-23.21461,-37.18045,-9.734923
74.830549717,25.1416,-21.77785,58.4867099999998,0.9052835,0.3554112,0.1960623,-23.21461,-37.18045,-9.734923
74.840460777,25.57516,-21.42834,60.7571400000001,0.9215073,0.345903,0.1934482,-25.47657,-35.67885,-8.892681
74.850372314,25.6371,-22.24386,62.65939,0.9353812,0.3329989,0.1961148,-25.47657,-35.67885,-8.892681
74.860283375,25.6371,-23.05939,65.17526,0.9359623,0.3174432,0.1868828,-25.47657,-35.67885,-8.892681
74.872672558,25.1416,-25.68073,68.7343099999998,0.9329895,0.3095813,0.1738937,-25.47657,-35.67885,-8.892681
74.882584095,25.94679,-28.94284,69.71612,0.9404445,0.3226583,0.153265,-25.47657,-35.67885,-8.892681
74.892494678,27.37137,-30.74865,68.4275,0.9541954,0.3179829,0.1535869,-26.97733,-34.92299,-7.216844
74.902405739,29.41532,-28.88459,69.4093100000003,0.954264,0.3180186,0.1603087,-26.97733,-34.92299,-7.216844
74.912317276,30.28246,-25.79723,71.7410999999998,0.9285194,0.3104656,0.168179,-26.97733,-34.92299,-7.216844
74.922228336,30.15858,-24.8652,74.0115199999998,0.9329917,0.3003141,0.1632684,-26.97733,-34.92299,-7.216844
74.932139873,30.28246,-24.45744,76.1592299999999,0.9606977,0.3074066,0.1553769,-26.97733,-34.92299,-7.216844
74.942050934,31.02571,-23.70016,77.2637599999998,0.9826048,0.3149492,0.1547444,-28.86965,-33.0465,-6.313457
74.951962471,31.64509,-22.70988,76.95695,1.005015,0.3229929,0.1560312,-28.86965,-33.0465,-6.313457
74.961873531,31.52122,-21.07882,76.1592299999999,1.00685,0.3327105,0.1555988,-28.86965,-33.0465,-6.313457
74.971785069,29.97277,-19.33127,76.2205899999997,1.005124,0.319635,0.16273,-28.86965,-33.0465,-6.313457
74.981696129,27.49524,-17.81672,76.8955799999999,1.007184,0.3211774,0.1747252,-28.86965,-33.0465,-6.313457
74.991607666,25.26547,-17.00119,76.8342200000001,1.020682,0.3000334,0.1787809,-31.50959,-30.78894,-3.801217
75.001518726,23.22152,-16.88468,74.7478800000001,1.051252,0.2893259,0.190911,-31.50959,-30.78894,-3.801217
75.011430264,20.68206,-16.41867,74.0728800000002,1.062315,0.2603515,0.1867744,-31.50959,-30.78894,-3.801217
75.021341324,22.84989,-15.42838,71.6183699999999,1.027015,0.2147435,0.1719121,-31.50959,-30.78894,-3.801217
75.031252861,24.52222,-15.95265,71.5570100000001,1.011101,0.1834374,0.1569658,-31.50959,-30.78894,-3.801217
75.041163921,25.20354,-17.75846,72.5388100000001,1.014201,0.1881902,0.1310403,-33.39867,-29.28888,-3.346388
75.051075459,26.75199,-18.69049,73.15244,1.041078,0.2175389,0.1161023,-33.39867,-29.28888,-3.346388
75.060986519,27.24749,-18.10798,73.21381,1.051655,0.2292871,0.1122415,-33.39867,-29.28888,-3.346388
75.070898056,28.36238,-15.83615,71.4342799999997,1.053366,0.242355,0.1036699,-33.39867,-29.28888,-3.346388
75.080809116,29.0437,-13.97209,69.1024900000002,1.03202,0.2429004,0.07314081,-33.39867,-29.28888,-3.346388
75.090720654,28.98176,-13.33131,66.2798000000001,1.013502,0.2373344,0.07279483,-34.86049,-26.72246,-1.676452
75.100631714,27.61912,-13.91383,64.3775500000003,0.9905117,0.2311881,0.06480382,-34.86049,-26.72246,-1.676452
75.110543251,26.99974,-15.19538,63.39574,0.9780386,0.200422,0.05223009,-34.86049,-26.72246,-1.676452
75.120454311,27.18555,-16.65168,62.2912100000002,0.9929503,0.173415,0.04422973,-34.86049,-26.72246,-1.676452
75.130365849,28.734,-16.88468,62.2912100000002,1.026399,0.1553982,0.0423599,-34.86049,-26.72246,-1.676452
75.140276909,32.26448,-15.31188,61.2480400000001,1.048591,0.1406505,0.04349687,-36.0156,-24.09855,-1.228978
75.150188446,37.52921,-12.22453,59.4685099999998,1.06292,0.0748123,0.028521,-36.0156,-24.09855,-1.228978
75.162577629,45.82891,-7.73912499999999,56.58446,1.0747,0.08132404,0.04045939,-36.0156,-24.09855,-1.228978
75.172489166,50.0407,-5.81680999999998,53.02541,1.086993,0.09004514,0.00967368,-36.0156,-24.09855,-1.228978
