Time (s),Gyroscope X (deg/s),Gyroscope Y (deg/s),Gyroscope Z (deg/s),Accelerometer X (g),Accelerometer Y (g),Accelerometer Z (g),Magnetometer X (uT),Magnetometer Y (uT),Magnetometer Z (uT)
0,0.3705419,-0.3477675,-0.1531931,1.003284,-0.08760213,0.1739586,-42.28885,-24.13195,6.063618
0.09659338,0.3086039,-0.2895156,-0.09183015,1.003339,-0.09586654,0.1695816,-42.65963,-24.50814,5.681252
0.104023457,0.2466658,-0.5807754,-0.1531931,1.006743,-0.0968089,0.1666629,-42.65963,-24.50814,5.681252
0.113930702,0.3705419,-0.4642715,-0.09183015,1.008239,-0.09433615,0.1724275,-42.65963,-24.50814,5.681252
0.123837471,0.3705419,-0.2312636,-0.1531931,1.009653,-0.09239405,0.1695464,-42.65963,-24.50814,5.681252
0.133744717,0.43248,-0.2312636,-0.214556,1.00877,-0.09284513,0.1781944,-42.65963,-24.50814,5.681252
0.143651485,0.5563561,-0.2312636,-0.214556,1.014125,-0.09132649,0.1776748,-42.65963,-24.50814,5.681252
0.153558731,0.494418,-0.1147597,-0.09183015,1.008267,-0.09090693,0.1791723,-42.28538,-24.50811,5.679304
0.1634655,0.3086039,-0.1147597,0.03089567,1.007276,-0.08897481,0.1801546,-42.28538,-24.50811,5.679304
0.173372746,0.1847278,0.001744238,-0.1531931,1.006308,-0.0914211,0.1782266,-42.28538,-24.50811,5.679304
0.183279991,0.1227897,-0.05650773,-0.1531931,1.005732,-0.09196038,0.1691054,-42.28538,-24.50811,5.679304
0.19318676,0.06085166,-0.05650773,-0.1531931,1.005838,-0.09629549,0.1743573,-42.28538,-24.50811,5.679304
0.205570698,-0.06302445,-0.05650773,-0.214556,1.006759,-0.09484935,0.1705171,-42.65802,-24.50631,6.130964
0.21547699,-0.1249625,0.001744238,-0.03046724,1.006254,-0.09681498,0.1666674,-42.65802,-24.50631,6.130964
0.225384235,-0.001086392,0.0599962,0.03089567,1.004284,-0.09440766,0.1681421,-42.65802,-24.50631,6.130964
0.235291958,0.1847278,-0.1730116,-0.09183015,1.00725,-0.09581796,0.1695458,-42.65802,-24.50631,6.130964
0.24519825,0.2466658,0.001744238,-0.03046724,1.005316,-0.09436749,0.1734146,-43.02744,-24.88094,6.134064
0.255105496,0.2466658,0.001744238,-0.03046724,1.002971,-0.1006874,0.175795,-43.02744,-24.88094,6.134064
0.265012264,0.5563561,0.001744238,-0.09183015,1.008768,-0.09723629,0.1728834,-43.02744,-24.88094,6.134064
0.27491951,0.3086039,-0.2895156,-0.214556,1.006302,-0.09337557,0.1753327,-43.02744,-24.88094,6.134064
0.284826279,0.1847278,-0.1730116,-0.214556,1.010185,-0.09187771,0.1743465,-43.02744,-24.88094,6.134064
0.294733524,0.1227897,0.001744238,-0.214556,1.006809,-0.09287196,0.1777322,-43.03228,-24.50634,6.13291
0.30464077,0.1847278,-0.1147597,-0.09183015,1.006845,-0.09626806,0.1772291,-43.03228,-24.50634,6.13291
0.314547539,0.2466658,-0.1730116,-0.03046724,1.00484,-0.09339124,0.1758263,-43.03228,-24.50634,6.13291
0.324454784,0.3086039,0.0599962,-0.09183015,1.008671,-0.09240874,0.1690752,-43.03228,-24.50634,6.13291
0.334361553,0.494418,0.001744238,-0.09183015,1.002352,-0.09637111,0.1681469,-43.03228,-24.50634,6.13291
0.344268799,0.494418,-0.1730116,0.03089567,0.9973881,-0.09549539,0.1619566,-43.02396,-25.2571,5.74975
0.354175568,0.43248,-0.2895156,-0.03046724,1.001328,-0.09543152,0.1648016,-43.02396,-25.2571,5.74975
0.364082813,0.43248,-0.1730116,-0.09183015,1.001824,-0.09395832,0.1672076,-43.02396,-25.2571,5.74975
0.373990059,0.2466658,-0.1730116,-0.03046724,1.002407,-0.09683044,0.1729449,-43.02396,-25.2571,5.74975
0.383896351,-0.1249625,-0.1730116,-0.03046724,1.011187,-0.09136547,0.1772216,-43.02396,-25.2571,5.74975
0.393804073,0.06085166,0.0599962,-0.09183015,1.013304,-0.09662295,0.1867701,-43.02259,-25.25553,6.135218
0.403710365,0.3086039,-0.05650773,0.1536215,1.004985,-0.09770595,0.1849192,-43.02259,-25.25553,6.135218
0.413617611,0.5563561,-0.1730116,0.2763473,1.004529,-0.09720686,0.188768,-43.02259,-25.25553,6.135218
0.42352438,0.6802322,-0.4060195,0.1536215,1.005011,-0.09330206,0.1926309,-43.02259,-25.25553,6.135218
0.433431625,0.8660463,-0.6390273,0.1536215,1.007898,-0.09475313,0.1863524,-43.02259,-25.25553,6.135218
0.443338871,0.8041083,-0.8137832,0.03089567,1.005879,-0.0894447,0.1864065,-42.6594,-24.50788,5.745497
0.45324564,0.8041083,-0.8137832,0.03089567,1.004864,-0.08801265,0.1845048,-42.6594,-24.50788,5.745497
0.465629578,0.8041083,-0.5807754,0.1536215,1.013168,-0.08644994,0.1853987,-42.6594,-24.50788,5.745497
0.475536347,0.7421702,-0.5225234,0.09225857,1.009648,-0.08703075,0.175344,-42.6594,-24.50788,5.745497
0.485443592,0.494418,-0.2895156,0.1536215,1.013525,-0.087,0.1719473,-42.6594,-24.50788,5.745497
0.495350838,0.1847278,0.0599962,0.2763473,1.008032,-0.08029754,0.1686816,-43.40654,-24.50637,6.134857
0.505257607,-0.2488386,-0.1147597,0.2149844,1.00312,-0.08866344,0.1566674,-43.40654,-24.50637,6.134857
0.515164852,-0.4965908,-0.05650773,0.3377102,1.010015,-0.09245422,0.1570585,-43.40654,-24.50637,6.134857
0.525071621,-0.9301572,-0.05650773,0.3990731,1.006085,-0.09300033,0.1546904,-43.40654,-24.50637,6.134857
0.534978866,-1.239847,0.2347521,0.2149844,1.00709,-0.09151088,0.1590125,-43.40654,-24.50637,6.134857
0.544886112,-1.4876,0.409508,0.2763473,1.005226,-0.09587792,0.1628419,-42.6594,-24.50788,5.745497
0.554792881,-1.79729,0.46776,0.2763473,1.006219,-0.09927206,0.1604093,-42.6594,-24.50788,5.745497
0.564700127,-1.611476,0.5260119,0.2763473,1.00967,-0.09872693,0.1637421,-42.6594,-24.50788,5.745497
0.574606419,-1.054033,0.46776,0.2763473,1.006319,-0.1001958,0.1690451,-42.6594,-24.50788,5.745497
0.584513664,-0.6824049,0.46776,0.1536215,1.008288,-0.09967652,0.170951,-42.6594,-24.50788,5.745497
0.594420433,-0.5585288,0.351256,0.2763473,1.005897,-0.09919151,0.1767382,-42.67048,-23.76026,5.357721
0.604327679,-0.2488386,0.293004,0.2149844,1.007453,-0.09961477,0.1848837,-42.67048,-23.76026,5.357721
0.614234924,0.2466658,0.5260119,0.1536215,1.002499,-0.09385543,0.185448,-42.67048,-23.76026,5.357721
0.624141693,0.3086039,0.351256,0.03089567,1.005495,-0.09573779,0.1892491,-42.67048,-23.76026,5.357721
0.634048939,0.3086039,0.351256,0.09225857,1.008946,-0.09811924,0.1892013,-42.67048,-23.76026,5.357721
0.643955707,0.2466658,0.409508,-0.03046724,1.008921,-0.1005712,0.1839034,-42.65108,-25.25864,5.362337
0.653862953,-0.001086392,0.6425158,0.09225857,1.003983,-0.09773084,0.1825275,-42.65108,-25.25864,5.362337
0.663770199,-0.1249625,0.7007678,0.1536215,0.9980692,-0.09343804,0.183091,-42.65108,-25.25864,5.362337
0.673676968,-0.4965908,0.7007678,0.1536215,1.010689,-0.08942474,0.1786796,-42.65108,-25.25864,5.362337
0.683584213,-0.744343,0.7590198,0.2149844,1.006745,-0.09241775,0.1719739,-42.65108,-25.25864,5.362337
0.693490982,-0.9301572,0.5842639,0.03089567,1.008687,-0.09044918,0.1729294,-43.78218,-24.50797,5.751335
0.703398228,-0.8682191,0.7590198,-0.03046724,1.007698,-0.09241834,0.1695643,-43.78218,-24.50797,5.751335
0.713305473,-0.8682191,0.7590198,-0.214556,1.00821,-0.09435143,0.1695467,-43.78218,-24.50797,5.751335
0.723212242,-1.054033,1.05028,-0.09183015,1.011185,-0.09575664,0.1719106,-43.78218,-24.50797,5.751335
0.73559618,-0.6824049,1.166783,-0.1531931,1.006789,-0.09776065,0.1700173,-43.78218,-24.50797,5.751335
0.745502472,-0.9301572,0.9920276,-0.03046724,1.003345,-0.09683867,0.1690949,-41.9155,-24.13296,5.804695
0.755409718,-0.806281,1.108532,0.03089567,1.004235,-0.09150654,0.1667214,-41.9155,-24.13296,5.804695
0.76531744,-0.3727147,0.9920276,-0.09183015,1.004827,-0.09730015,0.1700385,-41.9155,-24.13296,5.804695
0.775223732,-0.1869005,1.108532,-0.03046724,0.9974335,-0.09352054,0.1686916,-41.9155,-24.13296,5.804695
0.785130978,0.1847278,0.9337757,-0.5213705,1.009267,-0.09234662,0.1796336,-41.9155,-24.13296,5.804695
0.795037746,-0.1249625,0.9920276,-0.1531931,1.009719,-0.09089635,0.1777184,-43.03205,-24.50608,6.197155
0.804944992,-0.06302445,0.9920276,-0.09183015,1.008862,-0.09230938,0.1878003,-43.03205,-24.50608,6.197155
0.814852238,-0.1869005,1.341539,-0.03046724,1.002907,-0.08950151,0.1825923,-43.03205,-24.50608,6.197155
0.824759006,-0.06302445,1.341539,-0.03046724,1.017168,-0.09269603,0.1867606,-43.03205,-24.50608,6.197155
0.834666252,-0.001086392,1.574547,-0.03046724,1.013747,-0.09322588,0.1863085,-43.03205,-24.50608,6.197155
0.844573021,-0.1869005,1.924059,-0.1531931,1.009344,-0.09133117,0.1882825,-43.03828,-24.13305,5.810534
0.854480267,-0.4965908,1.982311,-0.09183015,1.006908,-0.0957476,0.1839542,-43.03828,-24.13305,5.810534
0.864387512,-0.4346527,2.040563,0.03089567,1.006868,-0.09528064,0.1805966,-43.03828,-24.13305,5.810534
0.874294281,-0.4346527,2.040563,0.03089567,1.002453,-0.09534293,0.1791965,-43.03828,-24.13305,5.810534
0.884201527,-0.4965908,1.865807,-0.1531931,0.9966231,-0.09929924,0.1782637,-43.03828,-24.13305,5.810534
0.894108295,-0.4965908,1.749303,-0.214556,1.000024,-0.1012188,0.1738981,-42.65917,-24.50762,5.809742
0.904015541,-0.5585288,1.632799,-0.09183015,0.9994544,-0.09443782,0.1739485,-42.65917,-24.50762,5.809742
0.913922787,-0.5585288,1.691051,-0.2759189,1.00139,-0.09149712,0.1753907,-42.65917,-24.50762,5.809742
0.923829555,-0.4965908,1.691051,-0.09183015,1.002556,-0.1035819,0.1796208,-42.65917,-24.50762,5.809742
0.933736801,-0.3727147,1.574547,0.09225857,1.005448,-0.09966454,0.1801003,-42.65917,-24.50762,5.809742
0.943644047,-0.3107767,1.574547,-0.03046724,1.006421,-0.09672835,0.1829918,-43.03343,-24.50765,5.811687
0.953550816,-0.3107767,1.749303,0.09225857,1.000967,-0.0929321,0.1801866,-43.03343,-24.50765,5.811687
0.963458061,-0.4346527,1.516295,-0.2759189,1.000877,-0.08371083,0.1821695,-43.03343,-24.50765,5.811687
0.973364353,-0.4965908,1.516295,-0.1531931,1.004393,-0.09239969,0.1811188,-43.03343,-24.50765,5.811687
0.983271599,-0.6824049,1.458043,-0.1531931,1.003928,-0.09190568,0.1840073,-43.03343,-24.50765,5.811687
0.993179321,-0.9301572,1.341539,-0.1531931,1.006881,-0.09722491,0.1796232,-43.03343,-24.50765,5.811687
1.005562305,-1.054033,1.166783,-0.1531931,1.008834,-0.09866519,0.1776749,-43.03343,-24.50765,5.811687
1.015469551,-0.9920952,1.341539,-0.09183015,1.005388,-0.09628118,0.1782028,-43.03343,-24.50765,5.811687
1.025376797,-0.9920952,1.283287,-0.1531931,0.996986,-0.09204166,0.1744674,-43.03343,-24.50765,5.811687
1.035283566,-1.054033,0.9920276,-0.09183015,1.001447,-0.09585772,0.1758412,-43.03343,-24.50765,5.811687
1.045190811,-0.8682191,0.8172717,-0.1531931,0.9971178,-0.09977797,0.178256,-43.03134,-24.88538,5.041904
1.05509758,-0.744343,0.9337757,-0.09183015,0.9985706,-0.1002547,0.1763187,-43.03134,-24.88538,5.041904
1.065004826,-0.806281,0.8172717,-0.1531931,0.9951912,-0.09686037,0.1845353,-43.03134,-24.88538,5.041904
1.074912071,-0.6824049,0.9337757,-0.1531931,0.9976115,-0.0944035,0.1850094,-43.03134,-24.88538,5.041904
1.08481884,-0.5585288,0.7007678,-0.1531931,1.003996,-0.09674852,0.1849348,-43.03134,-24.88538,5.041904
1.094726086,-0.4346527,0.7590198,-0.03046724,1.002993,-0.09921265,0.1796459,-43.03481,-24.50922,5.426218
1.104632854,-0.001086392,0.8172717,-0.1531931,1.001614,-0.1016243,0.1854044,-43.03481,-24.50922,5.426218
1.1145401,0.2466658,0.5842639,-0.214556,1.005017,-0.0991527,0.1863498,-43.03481,-24.50922,5.426218
1.124447346,0.2466658,0.6425158,-0.1531931,1.000089,-0.09630721,0.1859341,-43.03481,-24.50922,5.426218
1.134354115,0.1847278,0.46776,-0.214556,1.003509,-0.09529003,0.1868696,-43.03481,-24.50922,5.426218
1.14426136,0.06085166,0.1765001,-0.09183015,1.002549,-0.09675655,0.1868687,-42.2766,-25.25835,5.424633
1.154168606,-0.1249625,0.2347521,-0.1531931,1.00212,-0.09770672,0.1916679,-42.2766,-25.25835,5.424633
1.164075375,-0.3107767,0.2347521,-0.2759189,0.9995074,-0.0885566,0.1859912,-42.2766,-25.25835,5.424633
1.17398262,-0.4965908,0.6425158,-0.3986447,1.001525,-0.09289035,0.1869039,-42.2766,-25.25835,5.424633
1.183888912,-0.4965908,0.8172717,-0.5213705,1.005477,-0.09379607,0.1897423,-42.2766,-25.25835,5.424633
1.193796635,-0.3107767,0.8172717,-0.3986447,1.010745,-0.09281064,0.180097,-43.40422,-24.88384,5.429319
1.20370388,-0.1869005,1.166783,-0.3986447,1.008349,-0.1006206,0.1757457,-43.40422,-24.88384,5.429319
1.213610172,0.06085166,1.225035,-0.3372818,1.003522,-0.09674695,0.1863796,-43.40422,-24.88384,5.429319
1.223517418,0.06085166,1.108532,-0.3372818,0.9961601,-0.09734067,0.1830826,-43.40422,-24.88384,5.429319
1.23342514,0.06085166,0.5260119,-0.2759189,0.9945871,-0.09546303,0.174947,-43.40422,-24.88384,5.429319
1.243331432,0.06085166,0.5260119,-0.1531931,0.9970274,-0.09592256,0.1739611,-42.6654,-24.13459,5.423119
1.253238678,-0.06302445,0.293004,-0.3986447,1.003344,-0.09098548,0.1758562,-42.6654,-24.13459,5.423119
1.265622616,-0.1869005,0.1182482,-0.3372818,1.002506,-0.09482756,0.1849613,-42.6654,-24.13459,5.423119
1.275529385,-0.1869005,0.1182482,-0.3986447,1.002414,-0.09292407,0.1782527,-42.6654,-24.13459,5.423119
1.28543663,-0.06302445,0.001744238,-0.2759189,0.9985625,-0.09050282,0.1869472,-42.6654,-24.13459,5.423119
1.295343399,-0.1249625,0.1182482,-0.1531931,1.002549,-0.09675655,0.1868687,-42.66193,-24.51076,5.038805
1.305250645,0.1847278,-0.05650773,-0.2759189,1.005417,-0.09090005,0.1873614,-42.66193,-24.51076,5.038805
1.31515789,0.3705419,-0.1147597,-0.09183015,1.0044,-0.09044523,0.1840127,-42.66193,-24.51076,5.038805
1.325064659,0.494418,-0.1147597,-0.09183015,1.002957,-0.09288996,0.1835296,-42.66193,-24.51076,5.038805
1.334971905,0.6182941,-0.2895156,-0.2759189,1.004963,-0.09088828,0.1907268,-42.66193,-24.51076,5.038805
1.34487915,0.6182941,-0.1730116,-0.1531931,1.005032,-0.09377921,0.194068,-42.65708,-24.88535,5.039959
1.354785919,0.43248,0.1182482,-0.3986447,1.005946,-0.09380019,0.1878173,-42.65708,-24.88535,5.039959
1.364693165,0.43248,0.293004,-0.09183015,1.004489,-0.09625255,0.1858938,-42.65708,-24.88535,5.039959
1.374599934,0.43248,0.1765001,-0.3372818,1.004921,-0.09481249,0.1820581,-42.65708,-24.88535,5.039959
1.384507179,0.2466658,0.351256,-0.09183015,1.00253,-0.09432749,0.1878454,-42.65708,-24.88535,5.039959
1.394414425,-0.001086392,0.5260119,-0.2759189,1.005943,-0.09477742,0.1863704,-42.67025,-23.76,5.421965
1.404321194,-0.1869005,0.6425158,-0.3372818,1.004461,-0.09431593,0.1854268,-42.67025,-23.76,5.421965
1.414228439,-0.5585288,0.8755237,-0.4600076,1.006867,-0.08942746,0.1873578,-42.67025,-23.76,5.421965
1.424135685,-0.4346527,1.05028,-0.3372818,1.004933,-0.09041623,0.1883294,-42.67025,-23.76,5.421965
1.434042454,-0.4965908,1.108532,-0.1531931,1.011339,-0.09665233,0.1858278,-42.67025,-23.76,5.421965
1.4439497,-0.2488386,1.399791,-0.09183015,0.9990447,-0.09489046,0.1811517,-42.29252,-24.13613,5.035706
1.453855991,-0.06302445,0.9337757,-0.214556,0.9974859,-0.09007858,0.177837,-42.29252,-24.13613,5.035706
1.463763237,-0.2488386,0.7007678,-0.3986447,0.9930716,-0.09014087,0.1764369,-42.29252,-24.13613,5.035706
1.47367096,-0.3727147,0.2347521,-0.3372818,0.9995083,-0.09440979,0.1792299,-42.29252,-24.13613,5.035706
1.483577252,-0.3107767,0.1765001,-0.3372818,0.9965301,-0.09398181,0.175419,-42.29252,-24.13613,5.035706
1.493484497,-0.001086392,-0.1730116,-0.214556,0.9912711,-0.09984065,0.1802303,-42.2863,-24.50916,5.422325
1.50339222,0.3086039,-0.2895156,-0.3372818,1.000635,-0.1006617,0.1863802,-42.2863,-24.50916,5.422325
1.513298512,0.5563561,-0.1147597,0.09225857,1.002116,-0.09770927,0.1911878,-42.2863,-24.50916,5.422325
1.523205757,0.494418,-0.05650773,0.09225857,1.003589,-0.09622394,0.1935849,-42.2863,-24.50916,5.422325
1.535589695,0.3705419,-0.1147597,-0.03046724,1.00553,-0.0932807,0.1955072,-42.2863,-24.50916,5.422325
1.545496464,0.3086039,0.0599962,-0.1531931,1.009408,-0.09129804,0.1945242,-42.66055,-24.50919,5.424273
1.555403709,0.1227897,0.001744238,-0.09183015,1.003399,-0.0836397,0.1898292,-42.66055,-24.50919,5.424273
1.565310955,-0.001086392,0.001744238,-0.214556,1.003418,-0.08850802,0.1859553,-42.66055,-24.50919,5.424273
1.575217724,-0.06302445,0.001744238,-0.2759189,1.001006,-0.09291171,0.1840276,-42.66055,-24.50919,5.424273
1.585124969,-0.1249625,0.46776,-0.09183015,1.003942,-0.09384995,0.1830339,-42.66055,-24.50919,5.424273
1.595032215,0.06085166,0.5260119,0.03089567,1.002048,-0.09579304,0.1868798,-43.02858,-24.88224,5.812841
1.604938984,0.3705419,0.6425158,0.03089567,0.9994366,-0.09542269,0.1710612,-43.02858,-24.88224,5.812841
1.614846229,0.3705419,0.293004,-0.03046724,1.00386,-0.0924287,0.1768021,-43.02858,-24.88224,5.812841
1.624753475,0.06085166,0.1765001,0.03089567,1.002413,-0.09243672,0.1787361,-43.02858,-24.88224,5.812841
1.634660244,-0.2488386,-0.05650773,-0.03046724,0.9935756,-0.08768791,0.1807701,-43.02858,-24.88224,5.812841
1.64456749,-0.806281,-0.2312636,0.03089567,0.9988934,-0.08716435,0.1754426,-43.03481,-24.50922,5.426218
1.654474258,-0.8682191,-0.1147597,0.2149844,1.006413,-0.09526888,0.1839619,-43.03481,-24.50922,5.426218
1.664381504,-0.4965908,-0.2895156,0.2149844,1.005951,-0.09672423,0.1849168,-43.03481,-24.50922,5.426218
1.67428875,-0.1869005,-0.3477675,0.1536215,1.007473,-0.09472608,0.1925986,-43.03481,-24.50922,5.426218
1.684195518,0.06085166,-0.1730116,0.5217989,1.011016,-0.1019376,0.1958789,-43.03481,-24.50922,5.426218
1.694102764,0.3705419,-0.1147597,-0.09183015,1.009993,-0.09855877,0.1954307,-42.2863,-24.50916,5.422325
1.70401001,0.6802322,-0.1147597,-0.1531931,0.9986057,-0.08999255,0.1917518,-42.2863,-24.50916,5.422325
1.713916778,0.6802322,-0.1147597,-0.214556,0.9996988,-0.09674967,0.1950578,-42.2863,-24.50916,5.422325
1.723824024,0.6802322,-0.1730116,-0.1531931,1.007087,-0.09711789,0.1997886,-42.2863,-24.50916,5.422325
1.73373127,0.3086039,0.001744238,-0.03046724,1.006038,-0.09863028,0.1911454,-42.2863,-24.50916,5.422325
1.743638039,0.1227897,0.1182482,-0.03046724,1.000117,-0.09824384,0.1864011,-42.28905,-24.51229,4.65139
1.753545284,-0.001086392,0.2347521,-0.214556,0.9995546,-0.09828813,0.1792037,-42.28905,-24.51229,4.65139
1.76345253,-0.2488386,0.1182482,-0.1531931,0.9980897,-0.09928103,0.1782503,-42.28905,-24.51229,4.65139
1.773358822,-0.1249625,0.001744238,-0.03046724,1.000439,-0.09539781,0.1734529,-42.28905,-24.51229,4.65139
1.783266544,-0.001086392,0.0599962,0.03089567,1.00146,-0.09243613,0.1811457,-42.28905,-24.51229,4.65139
1.79317379,-0.1869005,0.0599962,-0.09183015,1.004915,-0.0914011,0.185442,-42.66055,-24.50919,5.424273
1.805556774,-0.1869005,0.2347521,-0.03046724,1.004923,-0.09042133,0.1873691,-42.66055,-24.50919,5.424273
1.81546402,-0.1249625,0.0599962,-0.214556,1.01185,-0.09565885,0.1891908,-42.66055,-24.50919,5.424273
1.825371742,-0.06302445,0.0599962,-0.09183015,1.007327,-0.089924,0.1839891,-42.66055,-24.50919,5.424273
1.835278034,0.1847278,0.1765001,-0.03046724,1.005866,-0.09042701,0.1839993,-43.40907,-24.50925,5.428165
1.84518528,0.1227897,0.1182482,-0.1531931,1.002499,-0.09385543,0.185448,-43.40907,-24.50925,5.428165
1.855093002,0.43248,0.293004,-0.214556,1.000015,-0.09097958,0.18501,-43.40907,-24.50925,5.428165
1.864999294,0.494418,0.351256,-0.09183015,1.000064,-0.09339337,0.1869141,-43.40907,-24.50925,5.428165
1.87490654,0.494418,0.351256,-0.09183015,1.002595,-0.09770829,0.1902231,-43.40907,-24.50925,5.428165
1.884813786,0.3086039,0.2347521,-0.1531931,1.002588,-0.09673616,0.1907098,-43.04313,-23.75846,5.80938
1.894720554,0.3086039,0.351256,-0.214556,1.000123,-0.09336279,0.1926757,-43.04313,-23.75846,5.80938
1.9046278,0.06085166,0.2347521,-0.03046724,1.00455,-0.09524476,0.1931023,-43.04313,-23.75846,5.80938
1.914535046,-0.1249625,0.2347521,-0.09183015,0.9981146,-0.09146319,0.1898259,-43.04313,-23.75846,5.80938
1.924441814,-0.001086392,0.1182482,-0.1531931,1.003984,-0.09577893,0.1849413,-43.04313,-23.75846,5.80938
1.93434906,0.1847278,0.0599962,-0.03046724,1.004956,-0.09284275,0.1878328,-43.03619,-24.51079,5.040751
1.944255829,0.1227897,-0.1147597,0.03089567,1.006383,-0.09235757,0.1844618,-43.03619,-24.51079,5.040751
1.954163074,-0.06302445,-0.05650773,-0.09183015,1.005469,-0.09477585,0.1878152,-43.03619,-24.51079,5.040751
1.96407032,0.1847278,-0.1730116,-0.214556,0.9995706,-0.09632857,0.1830578,-43.03619,-24.51079,5.040751
1.973977089,0.1227897,-0.1730116,-0.2759189,0.9985706,-0.09488889,0.1825965,-43.03619,-24.51079,5.040751
1.983884335,0.2466658,-0.2312636,-0.2759189,0.9946823,-0.09395004,0.1859998,-43.03134,-24.88538,5.041904
1.99379158,0.3705419,-0.5225234,-0.1531931,0.9990861,-0.09340551,0.1869231,-43.03134,-24.88538,5.041904
2.003698349,0.3705419,-0.2895156,-0.1531931,1.001086,-0.09335829,0.1912263,-43.03134,-24.88538,5.041904
2.013605595,0.06085166,-0.2312636,-0.4600076,1.003951,-0.09091827,0.1873748,-43.03134,-24.88538,5.041904
2.02351284,-0.1869005,0.001744238,-0.1531931,1.00064,-0.09285409,0.1960354,-43.03134,-24.88538,5.041904
2.033419609,-0.1869005,0.001744238,-0.03046724,1.005965,-0.09622925,0.1868406,-43.03134,-24.88538,5.041904
2.043326855,-0.3107767,-0.05650773,0.03089567,1.008406,-0.09181027,0.1916491,-43.03481,-24.50922,5.426218
2.0532341,-0.3727147,0.1182482,-0.03046724,1.003452,-0.08849019,0.1893162,-43.03481,-24.50922,5.426218
2.065618038,-0.3107767,0.0599962,0.03089567,1.005952,-0.09184573,0.1907112,-43.03481,-24.50922,5.426218
2.075524807,-0.1869005,0.1765001,-0.09183015,1.001416,-0.08709321,0.1831023,-43.03481,-24.50922,5.426218
2.085432053,-0.001086392,-0.05650773,-0.09183015,1.003807,-0.09001747,0.1744179,-43.03619,-24.51079,5.040751
2.095339298,0.2466658,-0.1147597,0.03089567,1.002919,-0.08803184,0.1854829,-43.03619,-24.51079,5.040751
2.105246067,0.3705419,-0.3477675,-0.09183015,0.9985794,-0.09439645,0.1840402,-43.03619,-24.51079,5.040751
2.115153313,0.2466658,-0.2312636,-0.03046724,0.9980848,-0.09391773,0.184048,-43.03619,-24.51079,5.040751
2.125060558,0.1227897,-0.2895156,-0.09183015,0.998592,-0.09585338,0.1835502,-43.03619,-24.51079,5.040751
2.134967327,-0.001086392,-0.4060195,0.03089567,1.003052,-0.09674283,0.1883046,-43.02996,-24.88381,5.427372
2.144874573,-0.2488386,0.001744238,0.1536215,1.00256,-0.09236029,0.19314,-43.02996,-24.88381,5.427372
2.154781818,-0.2488386,-0.1730116,0.09225857,1.005551,-0.09424519,0.1964608,-43.02996,-24.88381,5.427372
2.164688587,-0.06302445,-0.05650773,0.09225857,1.004565,-0.09523711,0.1945427,-43.02996,-24.88381,5.427372
2.174595833,0.2466658,0.001744238,0.1536215,1.007432,-0.09621103,0.1868272,-43.02996,-24.88381,5.427372
2.184503079,0.3705419,0.1182482,-0.03046724,1.007883,-0.08939493,0.1911898,-43.02996,-24.88381,5.427372
2.19440937,0.2466658,0.0599962,0.09225857,1.005929,-0.08990655,0.1907244,-43.02996,-24.88381,5.427372
2.204317093,0.1847278,0.1182482,0.1536215,1.001486,-0.09047147,0.1859601,-43.02996,-24.88381,5.427372
2.214224339,0.1847278,-0.05650773,-0.03046724,0.9994895,-0.09490732,0.176826,-43.02996,-24.88381,5.427372
2.224130631,0.2466658,-0.1147597,0.03089567,0.9994794,-0.09198582,0.1792464,-43.02996,-24.88381,5.427372
2.234037876,0.43248,-0.5225234,0.09225857,0.994117,-0.09497157,0.1773554,-42.28767,-24.51073,5.036858
2.243945599,-0.06302445,-0.4060195,-0.03046724,1.002953,-0.09337986,0.182566,-42.28767,-24.51073,5.036858
2.253851891,-0.06302445,-0.4060195,-0.03046724,1.000563,-0.09630878,0.1844893,-42.28767,-24.51073,5.036858
2.263759136,-0.1249625,-0.5225234,0.09225857,1.006917,-0.09281591,0.188295,-42.28767,-24.51073,5.036858
2.273666859,-0.06302445,-0.4060195,0.09225857,1.008959,-0.09713692,0.1916085,-42.28767,-24.51073,5.036858
2.283573151,0.1847278,-0.3477675,-0.03046724,1.003578,-0.09525435,0.1935914,-43.40422,-24.88384,5.429319
2.293480396,0.5563561,-0.3477675,-0.03046724,1.003581,-0.09427712,0.1950384,-43.40422,-24.88384,5.429319
2.303387642,0.5563561,-0.2895156,-0.03046724,1.009404,-0.08934868,0.1964578,-43.40422,-24.88384,5.429319
2.313294411,0.5563561,-0.2312636,0.03089567,1.010831,-0.08935085,0.1926033,-43.40422,-24.88384,5.429319
2.323201656,0.43248,-0.1147597,-0.09183015,1.008453,-0.09324937,0.19452,-43.40422,-24.88384,5.429319
2.335585594,0.43248,0.1765001,0.09225857,1.00044,-0.09051929,0.1792472,-41.97441,-24.50913,5.420704
2.345492363,0.2466658,0.0599962,-0.03046724,1.002885,-0.08853702,0.1816386,-41.97441,-24.50913,5.420704
2.355399609,-0.001086392,-0.1730116,-0.03046724,1.005335,-0.08899146,0.1816129,-41.97441,-24.50913,5.420704
2.365306854,0.1227897,0.1182482,-0.03046724,1.00139,-0.09149712,0.1753907,-41.97441,-24.50913,5.420704
2.3752141,0.06085166,0.1182482,0.1536215,0.9959638,-0.08915015,0.1735359,-41.97441,-24.50913,5.420704
2.385120869,0.1227897,-0.2312636,0.03089567,0.9999161,-0.08761661,0.1792714,-42.6557,-24.88378,5.425426
2.395028114,0.1227897,-0.2895156,0.03089567,1.001871,-0.09003157,0.1763563,-42.6557,-24.88378,5.425426
2.40493536,-0.001086392,-0.4642715,0.1536215,1.004926,-0.09480994,0.1825383,-42.6557,-24.88378,5.425426
2.414842129,0.1847278,-0.5225234,0.1536215,1.006381,-0.09138288,0.1854286,-42.6557,-24.88378,5.425426
2.424749374,0.1847278,-0.4642715,-0.03046724,1.005888,-0.08895227,0.1878501,-42.6557,-24.88378,5.425426
2.43465662,-0.001086392,-0.2895156,-0.1531931,1.006926,-0.08988421,0.1926359,-43.04451,-23.76003,5.42391
2.444563389,0.1847278,-0.2895156,-0.214556,1.005952,-0.08891914,0.1940918,-43.04451,-23.76003,5.42391
2.454470635,0.3086039,-0.2312636,-0.03046724,1.004021,-0.09429653,0.1902326,-43.04451,-23.76003,5.42391
2.46437788,0.3705419,0.1765001,-0.03046724,1.004988,-0.09380214,0.1897468,-43.04451,-23.76003,5.42391
2.474284649,0.1227897,0.0599962,0.2149844,1.002489,-0.09093393,0.1878684,-43.04451,-23.76003,5.42391
2.484191895,-0.001086392,0.1182482,0.09225857,1.008879,-0.09376375,0.1877904,-42.66678,-24.13616,5.037651
2.49409914,0.1847278,0.2347521,0.09225857,1.002935,-0.09143813,0.1830593,-42.66678,-24.13616,5.037651
2.504005909,0.3705419,0.1765001,0.03089567,1.001947,-0.09389462,0.1792108,-42.66678,-24.13616,5.037651
2.513913155,0.43248,-0.05650773,0.03089567,1.001011,-0.09290916,0.1845078,-42.66678,-24.13616,5.037651
2.5238204,0.5563561,-0.3477675,-0.03046724,1.002399,-0.09244437,0.1772957,-42.66678,-24.13616,5.037651
2.533727169,0.1847278,-0.4642715,-0.1531931,1.000585,-0.09483403,0.1883402,-43.03619,-24.51079,5.040751
2.543634415,-0.06302445,-0.5807754,-0.2759189,0.996152,-0.09295461,0.1874334,-43.03619,-24.51079,5.040751
2.55354166,-0.1249625,-0.7555313,-0.09183015,1.006024,-0.09619867,0.1926022,-43.03619,-24.51079,5.040751
2.563448429,-0.2488386,-0.5807754,-0.03046724,1.003567,-0.09721136,0.1902174,-43.03619,-24.51079,5.040751
2.573355675,-0.001086392,-0.4642715,0.09225857,1.005461,-0.09575562,0.1858881,-43.03619,-24.51079,5.040751
2.58326292,0.06085166,-0.3477675,-0.03046724,1.004492,-0.09283608,0.190238,-43.03619,-24.51079,5.040751
2.593169689,0.3086039,-0.05650773,-0.03046724,1.002504,-0.08848704,0.192206,-43.03619,-24.51079,5.040751
2.605553627,0.494418,-0.05650773,0.03089567,1.001993,-0.08948053,0.188843,-43.03619,-24.51079,5.040751
2.615460873,0.6182941,-0.1730116,-0.03046724,1.004982,-0.09575661,0.1868529,-43.03619,-24.51079,5.040751
2.625368118,0.494418,-0.1147597,0.03089567,1.002363,-0.08368242,0.1840766,-43.03619,-24.51079,5.040751
2.635274887,0.3086039,-0.1730116,-0.1531931,1.001407,-0.08758565,0.1816586,-42.66055,-24.50919,5.424273
2.645182133,0.06085166,0.001744238,-0.1531931,1.005319,-0.090951,0.1777588,-42.66055,-24.50919,5.424273
2.655089378,-0.001086392,0.001744238,-0.03046724,0.9999272,-0.09102545,0.1763677,-42.66055,-24.50919,5.424273
2.664996147,-0.1249625,0.001744238,-0.1531931,1.001406,-0.09246416,0.1758642,-42.66055,-24.50919,5.424273
2.674903393,-0.1249625,0.0599962,0.03089567,1.004766,-0.08513702,0.1782828,-42.66055,-24.50919,5.424273
2.684810638,-0.1249625,0.1765001,0.03089567,1.002838,-0.08953718,0.1758705,-43.42014,-23.76163,5.04039
2.694717884,-0.1249625,-0.1147597,0.2763473,1.002934,-0.09095079,0.1835427,-43.42014,-23.76163,5.04039
2.704624653,-0.1249625,-0.1147597,0.03089567,1.003,-0.0923797,0.1883342,-43.42014,-23.76163,5.04039
2.714531898,-0.1249625,0.001744238,-0.03046724,1.006971,-0.09278788,0.1935765,-43.42014,-23.76163,5.04039
2.724439144,-0.1249625,0.001744238,0.03089567,1.004471,-0.09187159,0.1892843,-43.42014,-23.76163,5.04039
2.734345913,-0.1869005,0.0599962,-0.1531931,1.005521,-0.09377313,0.1940635,-43.03828,-24.13305,5.810534
2.744253159,-0.1869005,0.1765001,-0.09183015,1.006958,-0.09133095,0.1940664,-43.03828,-24.13305,5.810534
2.754160404,-0.1249625,0.2347521,0.03089567,1.002514,-0.09092119,0.190269,-43.03828,-24.13305,5.810534
2.764066696,0.1847278,0.351256,0.09225857,1.003071,-0.09380604,0.1936058,-43.03828,-24.13305,5.810534
2.773974419,0.06085166,0.1182482,0.2149844,1.000152,-0.09627409,0.1921758,-43.03828,-24.13305,5.810534
2.783881664,0.1847278,0.2347521,-0.03046724,1.003999,-0.09333204,0.1892789,-42.65432,-24.88221,5.810896
2.793787956,0.1847278,0.0599962,0.03089567,0.9990475,-0.09635248,0.1797014,-42.65432,-24.88221,5.810896
2.803695679,0.3705419,-0.05650773,0.03089567,0.9985207,-0.09442703,0.1782786,-42.65432,-24.88221,5.810896
2.813602924,0.2466658,-0.3477675,-0.03046724,1.004328,-0.09145813,0.1758439,-42.65432,-24.88221,5.810896
2.82351017,0.2466658,-0.2895156,0.03089567,1.000443,-0.08954207,0.1806942,-42.65432,-24.88221,5.810896
2.833416462,0.1847278,-0.1730116,-0.03046724,1.002379,-0.08708871,0.1816529,-43.04104,-24.13619,5.039597
2.843324184,0.3086039,-0.1730116,0.03089567,1.001447,-0.08805261,0.1850162,-43.04104,-24.13619,5.039597
2.85323143,0.1847278,-0.1730116,-0.03046724,1.002002,-0.0919147,0.186906,-43.04104,-24.13619,5.039597
2.863137722,0.06085166,-0.1147597,0.09225857,1.003496,-0.08797991,0.1941208,-43.04104,-24.13619,5.039597
2.87552166,-0.06302445,-0.1730116,0.03089567,1.002992,-0.09335948,0.1864071,-43.04104,-24.13619,5.039597
2.885429382,-0.1869005,-0.1147597,0.09225857,1.003977,-0.09188021,0.1888086,-43.03134,-24.88538,5.041904
2.895336628,-0.001086392,-0.2895156,0.03089567,1.000469,-0.08806476,0.1850252,-43.03134,-24.88538,5.041904
2.90524292,-0.1869005,0.001744238,0.03089567,1.009825,-0.09230488,0.1863509,-43.03134,-24.88538,5.041904
2.915150166,-0.06302445,0.1765001,0.1536215,1.003005,-0.09237715,0.1888143,-43.03134,-24.88538,5.041904
2.925057888,-0.06302445,0.1765001,0.2149844,1.005294,-0.08754981,0.1792221,-43.03134,-24.88538,5.041904
2.93496418,-0.06302445,-0.05650773,0.03089567,1.00442,-0.09092238,0.1854498,-42.6654,-24.13459,5.423119
2.944871426,-0.001086392,-0.1730116,0.1536215,1.002456,-0.08899987,0.1869212,-42.6654,-24.13459,5.423119
2.954779148,0.06085166,-0.1147597,0.09225857,1.002929,-0.09095334,0.1830626,-42.6654,-24.13459,5.423119
2.96468544,0.1227897,-0.2895156,0.09225857,1.001068,-0.099709,0.1820612,-42.6654,-24.13459,5.423119
2.974592686,0.1847278,-0.4060195,0.03089567,1.001029,-0.09192429,0.1873951,-42.6654,-24.13459,5.423119
2.984499931,0.2466658,-0.2895156,-0.03046724,1.000554,-0.09387463,0.1864262,-42.29115,-24.13456,5.421173
2.994407654,-0.001086392,-0.05650773,-0.03046724,1.003981,-0.09431691,0.1863916,-42.29115,-24.13456,5.421173
3.004313946,-0.001086392,-0.1147597,0.09225857,1.004997,-0.09330971,0.1911905,-42.29115,-24.13456,5.421173
3.014221191,-0.1249625,0.001744238,0.03089567,1.010361,-0.09666448,0.1858368,-42.29115,-24.13456,5.421173
3.024128914,-0.1869005,0.1765001,0.09225857,1.004477,-0.09528297,0.1859004,-42.29115,-24.13456,5.421173
3.034035206,-0.4346527,0.1182482,0.03089567,1.001532,-0.09142323,0.1893144,-43.03134,-24.88538,5.041904
3.043942451,-0.3727147,0.1182482,0.2149844,1.003444,-0.08946996,0.1873891,-43.03134,-24.88538,5.041904
3.053849697,-0.06302445,0.0599962,0.2149844,1.001014,-0.09193193,0.1859547,-43.03134,-24.88538,5.041904
3.06375742,-0.06302445,0.1182482,0.03089567,1.00098,-0.09194977,0.1825938,-43.03134,-24.88538,5.041904
3.073663712,-0.06302445,-0.1147597,-0.1531931,1.001973,-0.09485657,0.1806446,-43.03134,-24.88538,5.041904
3.083570957,-0.06302445,-0.1730116,0.03089567,0.9980523,-0.0895444,0.185998,-42.65432,-24.88221,5.810896
3.093478203,-0.06302445,-0.2312636,0.09225857,1.002538,-0.09871355,0.1834947,-42.65432,-24.88221,5.810896
3.103384972,0.06085166,-0.2312636,-0.03046724,1.003965,-0.09334987,0.185918,-42.65432,-24.88221,5.810896
3.113292217,-0.001086392,-0.05650773,0.09225857,1.002987,-0.09336202,0.185927,-42.65432,-24.88221,5.810896
3.123199463,0.06085166,-0.2312636,0.09225857,1.00248,-0.09142637,0.1864247,-42.65432,-24.88221,5.810896
3.135583401,0.3086039,-0.05650773,0.03089567,1.000167,-0.09626645,0.1936162,-42.6557,-24.88378,5.425426
3.14549017,0.3705419,-0.05650773,0.03089567,1.002495,-0.09141873,0.1878651,-42.6557,-24.88378,5.425426
3.155397415,0.2466658,-0.1730116,-0.03046724,1.000042,-0.09242887,0.1859604,-42.6557,-24.88378,5.425426
3.165304661,0.2466658,-0.2312636,-0.03046724,1.001044,-0.09728249,0.1825577,-42.6557,-24.88378,5.425426
3.17521143,0.1227897,-0.2312636,0.09225857,0.9999917,-0.09147967,0.1821259,-42.6557,-24.88378,5.425426
3.185118675,-0.001086392,-0.2895156,0.09225857,1.000053,-0.09535037,0.18354,-42.65708,-24.88535,5.039959
3.195025921,-0.001086392,-0.3477675,0.03089567,1.003008,-0.09383917,0.1873641,-42.65708,-24.88535,5.039959
3.204933167,-0.1869005,-0.2312636,0.09225857,1.000117,-0.09580459,0.1892983,-42.65708,-24.88535,5.039959
3.214839935,-0.2488386,-0.2895156,0.09225857,1.007881,-0.0908595,0.1892595,-42.65708,-24.88535,5.039959
3.224747181,-0.1249625,-0.2312636,-0.03046724,1.005942,-0.09429008,0.1868538,-42.65708,-24.88535,5.039959
3.234654427,-0.1249625,-0.2312636,-0.03046724,1.002896,-0.08658001,0.1850127,-42.65708,-24.88535,5.039959
3.244561195,0.2466658,0.001744238,-0.03046724,1.008911,-0.08984464,0.1954988,-42.65708,-24.88535,5.039959
3.254468441,0.1227897,0.2347521,0.03089567,1.003979,-0.09578148,0.1844612,-42.65708,-24.88535,5.039959
3.264375687,0.3086039,0.0599962,-0.03046724,1.00639,-0.09089045,0.1868723,-42.65708,-24.88535,5.039959
3.274282932,0.2466658,0.0599962,-0.03046724,1.008336,-0.09087125,0.1858941,-42.65708,-24.88535,5.039959
3.284189701,0.3705419,0.0599962,-0.03046724,1.002943,-0.09338495,0.1816058,-42.6557,-24.88378,5.425426
3.294096947,0.1227897,0.001744238,0.03089567,0.9985425,-0.09295227,0.1821295,-42.6557,-24.88378,5.425426
3.304004192,0.06085166,-0.05650773,0.1536215,1.000554,-0.09680122,0.1830456,-42.6557,-24.88378,5.425426
3.313910961,0.06085166,-0.1147597,0.09225857,0.9971156,-0.09587669,0.1826034,-42.6557,-24.88378,5.425426
3.323818207,0.06085166,-0.05650773,0.09225857,1.000017,-0.09195427,0.1840432,-42.6557,-24.88378,5.425426
3.333725453,0.1847278,-0.1147597,0.09225857,1.002982,-0.09043797,0.1888274,-42.6557,-24.88378,5.425426
3.343632698,-0.001086392,-0.05650773,0.2149844,1.002433,-0.08949994,0.1840372,-42.6557,-24.88378,5.425426
3.353539467,-0.1869005,-0.1730116,-0.09183015,1.004422,-0.08945782,0.1873802,-42.6557,-24.88378,5.425426
3.363446713,-0.1869005,-0.1730116,-0.03046724,1.006342,-0.08847668,0.1849682,-42.6557,-24.88378,5.425426
3.373353958,-0.06302445,-0.3477675,-0.1531931,1.001945,-0.09048069,0.1830748,-42.6557,-24.88378,5.425426
3.383260727,-0.001086392,-0.1147597,-0.09183015,1.000572,-0.09337711,0.1888301,-43.03481,-24.50922,5.426218
3.393167973,0.06085166,-0.05650773,-0.03046724,0.9980741,-0.09343549,0.1835711,-43.03481,-24.50922,5.426218
3.40555191,-0.001086392,-0.05650773,0.2763473,1.004961,-0.09235286,0.1887964,-43.03481,-24.50922,5.426218
3.415459156,-0.2488386,-0.05650773,0.09225857,1.002046,-0.09481835,0.1878466,-43.03481,-24.50922,5.426218
3.425366402,-0.001086392,-0.3477675,-0.214556,0.9995853,-0.09632093,0.1844982,-43.03481,-24.50922,5.426218
3.435273171,0.3086039,-0.4060195,0.03089567,1.005356,-0.09483445,0.1767722,-42.66193,-24.51076,5.038805
3.445180416,0.494418,-0.5225234,-0.214556,1.005388,-0.09384193,0.1811,-42.66193,-24.51076,5.038805
3.455087662,0.5563561,-0.4060195,-0.2759189,0.9991311,-0.09386992,0.1907608,-42.66193,-24.51076,5.038805
3.464994431,0.6802322,-0.5807754,-0.09183015,0.9991058,-0.09339532,0.1888436,-42.66193,-24.51076,5.038805
3.474901676,0.7421702,-0.4060195,-0.09183015,1.002497,-0.09239341,0.1868983,-42.66193,-24.51076,5.038805
3.484808922,0.494418,-0.5807754,-0.1531931,1.004402,-0.09190726,0.1825625,-43.03343,-24.50765,5.811687
3.494716168,0.3705419,-0.2895156,-0.1531931,1.00296,-0.09191273,0.1849765,-43.03343,-24.50765,5.811687
3.504622936,0.3086039,0.0599962,-0.214556,1.001052,-0.09386346,0.187382,-43.03343,-24.50765,5.811687
3.514530182,0.1227897,0.0599962,-0.214556,0.9996004,-0.09387404,0.1888358,-43.03343,-24.50765,5.811687
3.524437428,0.06085166,0.1182482,-0.03046724,1.00439,-0.09337693,0.1796718,-43.03343,-24.50765,5.811687
3.534344196,0.06085166,0.001744238,-0.1531931,1.005854,-0.09189668,0.1811086,-43.02996,-24.88381,5.427372
3.544251442,0.2466658,0.1182482,-0.03046724,1.005433,-0.09430633,0.1849377,-43.02996,-24.88381,5.427372
3.554158687,0.06085166,0.001744238,-0.09183015,0.9995243,-0.09245023,0.1830841,-43.02996,-24.88381,5.427372
3.564065933,-0.06302445,0.1182482,-0.214556,1.00388,-0.08997925,0.1816198,-43.02996,-24.88381,5.427372
3.573972702,0.1227897,-0.05650773,-0.03046724,1.010776,-0.09377003,0.1820109,-43.02996,-24.88381,5.427372
3.583879948,0.3086039,0.0599962,-0.214556,1.001943,-0.08901868,0.1845251,-43.03481,-24.50922,5.426218
3.593787193,0.3705419,-0.1147597,-0.1531931,1.005323,-0.08753452,0.1821029,-43.03481,-24.50922,5.426218
3.603693962,0.43248,-0.1147597,-0.03046724,1.00242,-0.08804301,0.1845272,-43.03481,-24.50922,5.426218
3.613601208,0.1847278,0.001744238,-0.1531931,1.005373,-0.09092297,0.1830402,-43.03481,-24.50922,5.426218
3.623508453,0.2466658,-0.05650773,-0.03046724,1.003003,-0.09140246,0.1897811,-43.03481,-24.50922,5.426218
3.633415699,0.1847278,0.2347521,-0.1531931,1.002941,-0.09192292,0.183056,-42.66055,-24.50919,5.424273
3.643322468,0.2466658,0.001744238,0.09225857,1.002073,-0.0957803,0.1892804,-42.66055,-24.50919,5.424273
3.653229713,0.3705419,-0.05650773,-0.1531931,1.000546,-0.0899759,0.1902935,-42.66055,-24.50919,5.424273
3.663136959,0.1227897,-0.1147597,-0.1531931,1.00209,-0.09967393,0.1863734,-42.66055,-24.50919,5.424273
3.675520897,-0.001086392,-0.05650773,-0.03046724,1.003995,-0.09382193,0.1883154,-42.66055,-24.50919,5.424273
3.685427666,0.1847278,0.001744238,-0.09183015,0.9990621,-0.09634484,0.1811418,-42.66055,-24.50919,5.424273
3.695334911,0.06085166,0.001744238,0.09225857,0.9971074,-0.09149063,0.1869541,-42.66055,-24.50919,5.424273
3.705242157,0.1847278,0.001744238,0.03089567,1.002969,-0.09385955,0.183523,-42.66055,-24.50919,5.424273
3.715149403,-0.001086392,-0.05650773,-0.09183015,1.003358,-0.08756391,0.1811606,-42.66055,-24.50919,5.424273
3.725056171,0.1227897,-0.05650773,-0.03046724,1.001933,-0.08902378,0.1835648,-42.66193,-24.51076,5.038805
3.734963417,0.1227897,-0.1147597,-0.09183015,1.003415,-0.0919245,0.1816112,-42.66193,-24.51076,5.038805
3.744870663,0.2466658,-0.2312636,-0.09183015,1.003914,-0.09240067,0.1820835,-42.66193,-24.51076,5.038805
3.754777908,0.43248,-0.2895156,-0.1531931,1.000073,-0.09290093,0.1883578,-42.66193,-24.51076,5.038805
3.764684677,0.3086039,-0.05650773,-0.1531931,1.00297,-0.09434689,0.1830396,-42.66193,-24.51076,5.038805
3.774591923,0.43248,0.001744238,-0.214556,1.004544,-0.09719922,0.1902084,-43.03481,-24.50922,5.426218
3.784499168,0.5563561,0.2347521,-0.09183015,1.002447,-0.09485814,0.1791998,-43.03481,-24.50922,5.426218
3.794406414,0.43248,-0.1730116,-0.1531931,1.00539,-0.09481661,0.1801331,-43.03481,-24.50922,5.426218
3.804313183,0.3705419,0.001744238,-0.2759189,1.00785,-0.09233935,0.1844483,-43.03481,-24.50922,5.426218
3.814220428,0.43248,-0.2895156,0.03089567,1.006356,-0.09090828,0.1835113,-43.03481,-24.50922,5.426218
3.824127674,0.43248,-0.5225234,-0.09183015,1.001453,-0.09097665,0.1821158,-42.65917,-24.50762,5.809742
3.834034443,0.3086039,-0.1730116,-0.09183015,1.003928,-0.08946644,0.1869045,-42.65917,-24.50762,5.809742
3.843941689,0.3705419,-0.2312636,-0.2759189,1.002933,-0.08802421,0.1869233,-42.65917,-24.50762,5.809742
3.853848934,0.1227897,-0.1147597,-0.214556,1.004386,-0.08850097,0.1849861,-42.65917,-24.50762,5.809742
3.86375618,0.1847278,-0.1147597,-0.09183015,1.007396,-0.08988833,0.1907109,-42.65917,-24.50762,5.809742
3.873662949,0.1847278,0.0599962,-0.03046724,1.005408,-0.09090514,0.1864011,-42.65917,-24.50762,5.809742
3.883570194,0.1227897,0.2347521,-0.09183015,1.00201,-0.0938615,0.1854525,-42.66402,-24.13302,5.808588
3.89347744,0.1847278,0.0599962,-0.09183015,1.000539,-0.09388227,0.1849858,-42.66402,-24.13302,5.808588
3.903385162,0.06085166,0.1765001,0.09225857,1.004925,-0.09139601,0.1864023,-42.66402,-24.13302,5.808588
3.913291454,-0.1249625,0.1182482,-0.03046724,1.00688,-0.09137172,0.1863844,-42.66402,-24.13302,5.808588
3.9231987,-0.06302445,0.0599962,0.03089567,1.005438,-0.09430379,0.1854179,-42.66402,-24.13302,5.808588
3.935582638,0.1847278,0.1182482,0.03089567,1.004296,-0.08757215,0.1773106,-42.65708,-24.88535,5.039959
3.945489883,0.3705419,0.001744238,-0.3372818,1.00142,-0.09196917,0.177788,-42.65708,-24.88535,5.039959
3.955396652,0.5563561,0.0599962,-0.09183015,1.002748,-0.08860836,0.168195,-42.65708,-24.88535,5.039959
3.965303898,0.6182941,0.0599962,-0.2759189,0.999851,-0.0842358,0.1768937,-42.65708,-24.88535,5.039959
3.975211143,0.494418,0.1765001,-0.214556,1.001549,-0.09531687,0.1864074,-42.34867,-24.50916,5.422651
3.985118866,0.43248,0.293004,-0.03046724,1.003029,-0.09724291,0.1854206,-42.34867,-24.50916,5.422651
3.995025158,-0.06302445,0.2347521,-0.03046724,1.002505,-0.09434022,0.1854447,-42.34867,-24.50916,5.422651
4.004932404,-0.1869005,0.1182482,-0.03046724,1.003053,-0.09430358,0.1912018,-42.34867,-24.50916,5.422651
4.014839649,-0.744343,0.1182482,0.03089567,1.001075,-0.09043679,0.1936467,-42.34867,-24.50916,5.422651
4.024747372,-0.6824049,-0.1147597,0.09225857,1.005033,-0.09426655,0.1935845,-43.4056,-24.88541,5.043852
4.034653664,-0.3107767,-0.05650773,0.03089567,1.003535,-0.09332538,0.191684,-43.4056,-24.88541,5.043852
4.044560909,-0.06302445,-0.1147597,-0.09183015,1.003089,-0.09526043,0.1935959,-43.4056,-24.88541,5.043852
4.054468632,0.3705419,0.001744238,-0.09183015,1.00838,-0.09084833,0.1902153,-43.4056,-24.88541,5.043852
4.064375877,0.5563561,0.0599962,-0.1531931,1.003416,-0.08753334,0.1869221,-43.4056,-24.88541,5.043852
4.074282169,0.5563561,0.1765001,0.03089567,1.001967,-0.08900595,0.1869257,-43.03134,-24.88538,5.041904
4.084189415,0.494418,0.1182482,-0.03046724,0.9994949,-0.09246552,0.1802033,-43.03134,-24.88538,5.041904
4.094097137,0.3086039,0.0599962,0.03089567,1.003292,-0.08662235,0.1758857,-43.03134,-24.88538,5.041904
4.104004383,0.1227897,-0.05650773,-0.09183015,1.001379,-0.08808828,0.1782945,-43.03134,-24.88538,5.041904
4.113910675,-0.001086392,-0.1147597,-0.214556,1.0004,-0.08761309,0.1787868,-43.03134,-24.88538,5.041904
4.123818398,-0.1249625,0.0599962,-0.09183015,1.007801,-0.08992557,0.1825442,-42.6557,-24.88378,5.425426
4.133725643,-0.06302445,0.1182482,0.03089567,1.004873,-0.09288606,0.1796706,-42.6557,-24.88378,5.425426
4.143632889,-0.001086392,0.1182482,0.09225857,1.001513,-0.09436002,0.1840133,-42.6557,-24.88378,5.425426
4.153539181,-0.1249625,0.0599962,-0.1531931,1.005857,-0.09091945,0.1825556,-42.6557,-24.88378,5.425426
4.163446903,-0.06302445,0.0599962,0.03089567,1.001534,-0.09532451,0.184967,-42.6557,-24.88378,5.425426
4.173354149,-0.06302445,0.0599962,-0.214556,1.000053,-0.09291112,0.1864372,-42.35837,-23.75997,5.420343
4.183261395,-0.001086392,-0.1147597,-0.03046724,0.9980741,-0.09343549,0.1835711,-42.35837,-23.75997,5.420343
4.193167687,-0.06302445,-0.1730116,-0.03046724,1.004472,-0.09528552,0.1854202,-42.35837,-23.75997,5.420343
4.205552101,0.1847278,0.001744238,0.09225857,1.00298,-0.09190255,0.1868971,-42.35837,-23.75997,5.420343
4.215459347,0.06085166,-0.05650773,0.2149844,1.002938,-0.0904609,0.1845063,-42.35837,-23.75997,5.420343
4.225366592,0.3086039,-0.05650773,0.09225857,1.010738,-0.08939926,0.1834809,-42.66055,-24.50919,5.424273
4.235272884,0.2466658,-0.05650773,-0.03046724,1.003962,-0.08896127,0.1907488,-42.66055,-24.50919,5.424273
4.245180607,0.3705419,-0.2895156,-0.09183015,1.004358,-0.08363775,0.1878997,-42.66055,-24.50919,5.424273
4.255087853,0.2466658,0.001744238,0.03089567,0.9984695,-0.08518539,0.1841026,-42.66055,-24.50919,5.424273
4.264995098,0.3086039,-0.2312636,-0.09183015,1.000022,-0.08902514,0.1879039,-42.66055,-24.50919,5.424273
4.274901867,0.2466658,-0.2895156,-0.1531931,0.9985496,-0.09148514,0.18454,-42.65917,-24.50762,5.809742
4.284809113,0.06085166,0.001744238,0.03089567,1.000994,-0.09145478,0.1845176,-42.65917,-24.50762,5.809742
4.294716358,-0.2488386,-0.2895156,0.1536215,1.002986,-0.08994808,0.189791,-42.65917,-24.50762,5.809742
4.304623604,-0.1869005,-0.1147597,0.2763473,1.007318,-0.09041644,0.1825454,-42.65917,-24.50762,5.809742
4.314530373,-0.1869005,-0.2895156,0.2149844,1.00436,-0.08753902,0.1835523,-42.65917,-24.50762,5.809742
4.324437618,-0.2488386,-0.1147597,0.1536215,1.007227,-0.08363444,0.1816311,-42.6654,-24.13459,5.423119
4.334344864,0.06085166,-0.2312636,0.09225857,1.009295,-0.09135664,0.1834812,-42.6654,-24.13459,5.423119
4.34425211,0.06085166,-0.1147597,-0.09183015,1.001869,-0.0890569,0.1773231,-42.6654,-24.13459,5.423119
4.354158878,0.1227897,0.001744238,-0.09183015,1.005349,-0.08849647,0.1835367,-42.6654,-24.13459,5.423119
4.364066124,-0.1249625,0.2347521,-0.09183015,1.00238,-0.08757605,0.1811695,-42.6654,-24.13459,5.423119
4.37397337,-0.1249625,0.293004,0.09225857,1.004883,-0.08995436,0.1840115,-42.66055,-24.50919,5.424273
4.383880615,-0.1869005,0.1182482,0.03089567,1.002437,-0.08949739,0.1845173,-42.66055,-24.50919,5.424273
4.393787384,-0.2488386,0.1182482,0.09225857,1.002393,-0.09195957,0.1772989,-42.66055,-24.50919,5.424273
4.40369463,-0.3107767,0.293004,0.1536215,1.003915,-0.08996141,0.1849807,-42.66055,-24.50919,5.424273
4.413601875,-0.3727147,0.1765001,0.2149844,1.002386,-0.08806085,0.1811663,-42.66055,-24.50919,5.424273
4.423509121,-0.06302445,0.1765001,0.03089567,1.004373,-0.08411745,0.1888567,-42.3452,-24.88533,5.038338
4.433416367,-0.1869005,0.0599962,0.03089567,1.00198,-0.09338946,0.1830551,-42.3452,-24.88533,5.038338
4.443323135,-0.001086392,-0.1147597,0.03089567,0.9996489,-0.09628781,0.1907399,-42.3452,-24.88533,5.038338
4.453230381,-0.001086392,0.1765001,0.09225857,0.9972161,-0.09192191,0.1970336,-42.3452,-24.88533,5.038338
4.465614319,-0.1249625,0.1182482,0.09225857,1.002492,-0.0899567,0.1893153,-42.3452,-24.88533,5.038338
4.475521565,-0.3727147,0.1765001,0.1536215,1.001519,-0.08703971,0.193185,-42.66055,-24.50919,5.424273
4.485428333,-0.5585288,0.2347521,0.03089567,1.004008,-0.09283961,0.1907226,-42.66055,-24.50919,5.424273
4.495335579,-0.3107767,0.2347521,0.1536215,1.006447,-0.09232445,0.1907035,-42.66055,-24.50919,5.424273
4.505242825,-0.2488386,0.2347521,0.09225857,1.008391,-0.09425717,0.1873115,-42.66055,-24.50919,5.424273
4.51515007,-0.001086392,0.1765001,0.09225857,1.005399,-0.09139758,0.1849574,-42.66055,-24.50919,5.424273
4.525057316,0.3086039,0.0599962,0.03089567,1.004406,-0.09141736,0.183526,-43.04104,-24.13619,5.039597
4.534964085,0.3705419,0.2347521,0.03089567,0.9980153,-0.09346607,0.1778096,-43.04104,-24.13619,5.039597
4.54487133,0.3705419,-0.05650773,-0.03046724,1.002446,-0.0943708,0.1796832,-43.04104,-24.13619,5.039597
4.554778576,0.1227897,0.1182482,-0.03046724,1.001979,-0.09534136,0.1806414,-43.04104,-24.13619,5.039597
4.564685821,0.1227897,-0.1730116,-0.09183015,1.002493,-0.09824914,0.1796569,-43.04104,-24.13619,5.039597
4.57459259,-0.001086392,-0.1147597,0.03089567,1.003519,-0.09821151,0.1844493,-42.6557,-24.88378,5.425426
4.584499836,-0.06302445,-0.2312636,0.09225857,1.003904,-0.09240577,0.1811233,-42.6557,-24.88378,5.425426
4.594407082,-0.06302445,-0.2895156,0.09225857,1.00197,-0.08802871,0.1883727,-42.6557,-24.88378,5.425426
4.604314327,-0.1869005,-0.05650773,0.09225857,1.00297,-0.08946839,0.188834,-42.6557,-24.88378,5.425426
4.614221096,-0.1249625,-0.1147597,-0.03046724,1.003518,-0.09235834,0.1912105,-42.6557,-24.88378,5.425426
4.624128342,0.06085166,0.001744238,-0.03046724,1.007347,-0.08503532,0.191704,-43.0332,-24.50739,5.875931
4.634035587,0.1847278,0.1182482,-0.1531931,1.012311,-0.09078955,0.1920999,-43.0332,-24.50739,5.875931
4.643942833,0.43248,0.0599962,-0.03046724,1.006891,-0.08941472,0.1897584,-43.0332,-24.50739,5.875931
4.653849602,0.3086039,0.2347521,-0.03046724,1.006425,-0.09379921,0.1868526,-43.0332,-24.50739,5.875931
4.663756847,0.1847278,0.2347521,-0.09183015,1.005886,-0.09578267,0.179642,-43.0332,-24.50739,5.875931
4.673664093,0.1227897,0.0599962,0.03089567,1.000459,-0.09294836,0.1782706,-42.67025,-23.76,5.421965
4.683571339,0.06065852,0.05986597,-0.03054458,1.00002,-0.0934163,0.1825929,-42.67025,-23.76,5.421965
4.693478107,0.2462798,0.05971758,0.03070251,0.9990461,-0.09293855,0.1835654,-42.67025,-23.76,5.421965
4.703385353,-0.001703965,-0.05682473,0.1533319,0.9994273,-0.08762269,0.1792759,-42.67025,-23.76,5.421965
4.713292599,-0.00166292,0.05973227,-0.03075666,1.001444,-0.08610325,0.1869499,-42.67025,-23.76,5.421965
4.723199844,-0.001602481,-0.1148425,-0.09202312,0.9999232,-0.08614949,0.1816819,-42.66193,-24.51076,5.038805
4.735583782,0.1221983,0.001786734,-0.03053503,1.006343,-0.09189061,0.1811042,-42.66193,-24.51076,5.038805
4.745490551,0.3078395,0.001766201,-0.09189811,1.002983,-0.0938519,0.1849634,-42.66193,-24.51076,5.038805
4.755397797,0.2455537,0.1764833,-0.03053539,1.003548,-0.09526964,0.1907106,-42.66193,-24.51076,5.038805
4.765305042,-0.002448508,-0.0566548,0.1535339,1.006444,-0.09086242,0.1921537,-42.66193,-24.51076,5.038805
4.775212765,-0.06438348,-0.1148173,0.09197812,1.000042,-0.09242887,0.1859604,-43.04104,-24.13619,5.039597
4.78512001,-0.1881009,-0.05649429,0.03042261,1.001518,-0.08899163,0.1907713,-43.04104,-24.13619,5.039597
4.795026302,-0.2498222,-0.05645992,-0.03095924,1.004387,-0.08606172,0.1878833,-43.04104,-24.13619,5.039597
4.804933548,-0.1257101,0.001844674,-0.1535884,1.003392,-0.08754607,0.1845215,-43.04104,-24.13619,5.039597
4.81484127,0.06006744,0.1182731,-0.03084308,1.003913,-0.09142599,0.1830503,-43.04104,-24.13619,5.039597
4.824748516,0.3075885,0.05985428,0.03061639,1.002897,-0.0895066,0.181632,-42.6557,-24.88378,5.425426
4.834654808,-0.002371331,0.2344618,0.03061648,0.999441,-0.0871277,0.1811997,-42.6557,-24.88378,5.425426
4.84456253,-0.002446149,-0.1151249,0.092018,1.004416,-0.09141227,0.1844863,-42.6557,-24.88378,5.425426
4.854469776,-0.06430331,0.05973893,0.1532653,1.002046,-0.09725761,0.1849494,-42.6557,-24.88378,5.425426
4.864377022,-0.3118191,0.05988341,-0.09237883,1.001961,-0.09096039,0.1840318,-42.6557,-24.88378,5.425426
4.874283314,-0.3113886,-0.1731082,0.09161393,1.006826,-0.08847316,0.1844835,-42.66055,-24.50919,5.424273
4.884191036,-0.3109975,-0.1728724,0.09147958,1.005904,-0.08991929,0.1883237,-42.66055,-24.50919,5.424273
4.894098282,-0.1249483,-0.1145497,-0.03145752,1.001006,-0.09242437,0.1845111,-42.66055,-24.50919,5.424273
4.904005527,0.06086716,0.1185654,0.09126926,1.002915,-0.08608248,0.1874166,-42.66055,-24.50919,5.424273
4.913912773,0.3084067,0.1185446,-0.03151338,0.9995363,-0.09098056,0.1859747,-42.66055,-24.50919,5.424273
4.923819542,0.4937363,0.002038117,-0.03157017,1.002016,-0.08898047,0.191727,-42.6654,-24.13459,5.423119
4.933726788,0.307263,-0.1144318,0.09117603,1.004487,-0.09527788,0.1868606,-42.6654,-24.13459,5.423119
4.943634033,0.2448418,-0.1142514,-0.03154868,1.002506,-0.09238832,0.1878585,-42.6654,-24.13459,5.423119
4.953541279,-0.003062274,-0.2306119,0.1525026,1.003996,-0.09430927,0.187832,-42.6654,-24.13459,5.423119
4.963448048,-0.2506356,-0.05565781,0.02975865,1.009318,-0.09329582,0.1834681,-42.6654,-24.13459,5.423119
4.973355293,-0.3122005,0.002590883,-0.09298526,1.00543,-0.09235698,0.1868714,-43.0332,-24.50739,5.875931
4.983262539,-0.2498897,0.002532727,-0.03165973,1.001968,-0.09193253,0.1835451,-43.0332,-24.50739,5.875931
4.993169785,-0.1257581,-0.05561265,0.02966585,1.003464,-0.09726486,0.1801347,-43.0332,-24.50739,5.875931
5.005553722,-0.1256579,0.00267172,-0.03168583,1.003918,-0.09191078,0.1830471,-43.0332,-24.50739,5.875931
5.015460491,0.1219603,0.1190442,-0.03166529,1.003527,-0.09723175,0.1863763,-43.0332,-24.50739,5.875931
5.025367737,0.3693453,0.118913,-0.03162551,1.001013,-0.09388384,0.1835409,-43.03619,-24.51079,5.040751
5.035274982,0.492738,0.06058485,-0.03150871,0.9996116,-0.09728287,0.1859321,-43.03619,-24.51079,5.040751
5.045182228,0.3063439,0.002311705,-0.03154622,1.004003,-0.09528141,0.1873453,-43.03619,-24.51079,5.040751
5.055089474,0.1820246,-0.2305893,0.02977923,1.004408,-0.09239205,0.1825592,-43.03619,-24.51079,5.040751
5.064996243,0.1198385,-0.1719745,-0.03162108,1.003869,-0.08657041,0.1845236,-43.03619,-24.51079,5.040751
5.074903488,-0.06598999,-0.3464046,-0.03158136,1.003827,-0.08512878,0.1821328,-42.34382,-24.88376,5.423805
5.084810734,-0.003930137,-0.4624551,0.02974411,1.006728,-0.08608486,0.1777782,-42.34382,-24.88376,5.423805
5.094717979,0.119912,-0.4037138,-0.03159834,1.003473,-0.09189393,0.1873727,-42.34382,-24.88376,5.423805
5.104624748,0.2435985,-0.2286337,0.09107079,1.00288,-0.08805223,0.1816419,-42.34382,-24.88376,5.423805
5.114531994,-0.004362365,-0.403011,-0.03169236,1.00286,-0.08562317,0.1826186,-42.34382,-24.88376,5.423805
5.12443924,-0.128233,-0.2277306,0.02971035,0.9990082,-0.09100702,0.1821382,-43.03619,-24.51079,5.040751
5.134346485,-0.3757852,-0.4601779,-0.2156244,0.9965567,-0.08713865,0.1860279,-43.03619,-24.51079,5.040751
5.144253731,-0.8086849,-0.692498,-0.2154499,0.9985835,-0.09390656,0.1850037,-43.03619,-24.51079,5.040751
5.1541605,-0.9933667,-0.7498618,-0.153932,1.004435,-0.09384133,0.1835096,-43.03619,-24.51079,5.040751
5.164067745,-0.8681845,-0.3413026,-0.03124415,1.002985,-0.0919,0.1873772,-43.03619,-24.51079,5.040751
5.173974991,-0.7432179,-0.3989247,0.03006163,1.001622,-0.09527865,0.1936094,-42.66055,-24.50919,5.424273
5.183882237,-0.6804436,-0.281938,0.1525762,1.008342,-0.08891681,0.188788,-42.66055,-24.50919,5.424273
5.193789005,-0.6178066,-0.2233868,0.2137282,1.000013,-0.08951757,0.1864602,-42.66055,-24.50919,5.424273
5.203696251,-0.3074181,-0.3396101,0.2748227,1.001887,-0.08514542,0.1835911,-42.66055,-24.50919,5.424273
5.213603497,-0.4928267,-0.4556692,0.1518288,1.005219,-0.076369,0.1850592,-42.66055,-24.50919,5.424273
5.223510742,-0.6160837,-0.5716556,-0.03237358,0.9981543,-0.06827624,0.1731745,-42.66379,-24.13276,5.872831
5.233418465,-1.172441,-0.5127222,-0.1550009,0.9962691,-0.06923954,0.1789474,-42.66379,-24.13276,5.872831
5.243324757,-1.418604,-0.6867426,-0.09350112,0.994311,-0.07316765,0.1741378,-42.66379,-24.13276,5.872831
5.253232002,-1.478838,-0.7441686,0.02926508,0.9984335,-0.08422854,0.1817085,-42.66379,-24.13276,5.872831
5.26561594,-1.724133,-0.5100292,0.3972809,1.002356,-0.08758879,0.1787689,-42.65409,-24.88195,5.875139
5.275523663,-1.783885,-0.5674759,0.4581448,1.000885,-0.08809691,0.1778188,-42.65409,-24.88195,5.875139
5.285430908,-1.781625,-0.85784,0.5188745,0.9979731,-0.08909784,0.1787994,-42.65409,-24.88195,5.875139
5.2953372,-2.089,-0.798474,0.6410256,0.9964886,-0.08473507,0.1822033,-42.65409,-24.88195,5.875139
5.305244923,-2.643644,-0.9138652,0.7629848,0.9964588,-0.08182377,0.1827031,-42.65409,-24.88195,5.875139
5.315152168,-2.949955,-1.029258,0.7621421,0.9970278,-0.09348331,0.1768582,-42.65409,-24.88195,5.875139
5.325059414,-3.008149,-0.9697132,1.00654,1.003524,-0.1035748,0.1786516,-42.65409,-24.88195,5.875139
5.33496666,-2.756774,-1.084944,1.066639,1.012892,-0.1068326,0.1823845,-42.65409,-24.88195,5.875139
5.344873428,-2.629552,-0.7924498,0.9426309,1.013932,-0.1058127,0.1895841,-42.65409,-24.88195,5.875139
5.354780674,-2.750164,-0.4420524,0.9414276,1.006997,-0.09911567,0.1887325,-42.65409,-24.88195,5.875139
5.36468792,-3.056205,-0.732574,1.246963,0.9977108,-0.09240063,0.1970258,-42.65409,-24.88195,5.875139
5.374595165,-2.990545,-1.02284,1.184054,0.9944046,-0.09677316,0.2032693,-43.03619,-24.51079,5.040751
5.384502411,-3.172545,-1.079844,1.059744,0.9949499,-0.1035669,0.2008182,-43.03619,-24.51079,5.040751
5.39440918,-3.354296,-1.194973,1.30371,0.9881094,-0.1056013,0.1989473,-43.03619,-24.51079,5.040751
5.404316425,-2.792894,-1.135257,1.363359,0.994824,-0.112413,0.178193,-43.03619,-24.51079,5.040751
5.414223671,-1.489212,-0.6097649,1.422951,0.9939608,-0.1294387,0.1694447,-43.03619,-24.51079,5.040751
5.424130917,0.3080645,-0.02677217,1.543813,0.9945931,-0.1435044,0.1669444,-42.66032,-24.50892,5.488518
5.434038162,2.412599,0.2060315,1.603256,0.9851679,-0.1466177,0.1502053,-42.66032,-24.50892,5.488518
5.443944931,4.081098,-0.4927934,1.662701,0.9933403,-0.1431718,0.1405495,-42.66032,-24.50892,5.488518
5.453852177,5.191846,-1.30771,1.293112,0.9952119,-0.1348984,0.1420278,-42.66032,-24.50892,5.488518
5.463759422,5.315722,-2.123238,1.170386,0.9949901,-0.1155016,0.1431194,-42.66032,-24.50892,5.488518
5.473666668,5.129908,-3.230025,0.7408454,0.9987991,-0.1052622,0.145073,-42.66517,-24.13433,5.487364
5.483573437,4.510527,-4.220308,0.4340309,1.010058,-0.0943832,0.1589659,-42.66517,-24.13433,5.487364
5.493480682,4.324713,-4.511568,0.2499422,1.017202,-0.09755669,0.1843271,-42.66517,-24.13433,5.487364
5.503387928,4.076961,-4.336812,0.2499422,1.023548,-0.0872385,0.1953808,-42.66517,-24.13433,5.487364
5.513295174,3.705333,-4.453316,0.3113051,1.024589,-0.07890079,0.2112719,-42.66517,-24.13433,5.487364
5.523202419,3.085952,-4.103804,-0.302324,1.033783,-0.06224895,0.2213811,-42.65894,-24.50736,5.873985
5.535586357,2.280757,-2.938765,-0.7932273,1.034803,-0.05587335,0.232938,-42.65894,-24.50736,5.873985
5.545493126,1.227811,-2.064986,-0.977316,1.032927,-0.06414931,0.2309796,-42.65894,-24.50736,5.873985
5.555400371,0.6084301,-1.132954,-0.4864127,1.028225,-0.07533225,0.2362303,-42.65894,-24.50736,5.873985
5.565307617,-0.07288842,-0.08441903,-0.2409611,1.019431,-0.08373144,0.2271326,-42.66379,-24.13276,5.872831
5.575214863,-0.1967645,0.6146045,-0.05687235,1.0047,-0.09126449,0.2123338,-42.66379,-24.13276,5.872831
5.585122585,-0.9400212,0.4981006,0.1885793,0.9971262,-0.09099309,0.1893581,-42.66379,-24.13276,5.872831
5.595028877,-1.559402,0.2650927,0.06585346,0.9970778,-0.1046769,0.1686205,-42.66379,-24.13276,5.872831
5.604936123,-1.62134,-0.3174269,0.004490556,0.9910918,-0.1116413,0.148943,-42.66379,-24.13276,5.872831
5.614843845,-1.249711,-0.6086866,-0.302324,0.9876203,-0.1141485,0.1412759,-43.03805,-24.13279,5.874777
5.624751091,-0.07288842,-0.7834426,-0.7318643,0.9974532,-0.1257054,0.1329453,-43.03805,-24.13279,5.874777
5.634658337,1.661377,-0.6086866,-0.8545902,0.9994832,-0.136862,0.1270903,-43.03805,-24.13279,5.874777
5.644564629,3.519518,-0.3174269,-0.7932273,1.001894,-0.1295317,0.1323985,-43.03805,-24.13279,5.874777
5.654472351,5.006032,0.2068408,-0.7318643,1.001344,-0.114448,0.1440279,-43.03805,-24.13279,5.874777
5.664379597,5.811226,0.4981006,-0.6705014,1.005357,-0.1114193,0.1574554,-43.03805,-24.13279,5.874777
5.674286842,5.873164,0.4981006,-0.7932273,0.9988712,-0.1018101,0.1561389,-43.03805,-24.13279,5.874777
5.684194088,5.68735,0.6146045,-0.7932273,1.002856,-0.0963574,0.1695828,-43.03805,-24.13279,5.874777
5.694100857,5.37766,0.4981006,-1.038679,1.006349,-0.095302,0.1777202,-43.03805,-24.13279,5.874777
5.704008102,4.572465,0.8476124,-1.038679,1.009881,-0.101544,0.1810071,-43.03805,-24.13279,5.874777
5.713915348,3.829209,1.022368,-0.915953,1.013507,-0.1057856,0.1958302,-43.41093,-24.13125,6.262192
5.723822594,3.519518,1.255376,-1.100042,1.009073,-0.1058581,0.1925097,-43.41093,-24.13125,6.262192
5.733729362,3.705333,1.197124,-0.915953,1.001217,-0.1010946,0.1950148,-43.41093,-24.13125,6.262192
5.743636608,4.138899,0.5563526,-1.038679,1.002586,-0.09283489,0.1950572,-43.41093,-24.13125,6.262192
5.753543854,4.448589,-0.02616707,-1.652308,1.008796,-0.08063613,0.195081,-43.41093,-24.13125,6.262192
5.763451099,4.572465,-0.08441903,-2.388663,1.014488,-0.05772703,0.2047842,-43.03183,-24.50582,6.261398
5.773358345,5.06797,0.2068408,-3.063655,1.010651,-0.06017664,0.2091248,-43.03183,-24.50582,6.261398
5.783265114,5.625412,0.8476124,-3.554558,0.9983919,-0.05351843,0.2136039,-43.03183,-24.50582,6.261398
5.793172359,5.749288,1.430132,-3.247744,1.000087,-0.06313747,0.2245678,-43.03183,-24.50582,6.261398
5.805556297,5.253784,2.595171,-2.695477,1.024394,-0.09241228,0.224148,-43.03183,-24.50582,6.261398
5.815463543,5.006032,3.002935,-1.836397,1.029398,-0.1205842,0.2023069,-43.02835,-24.88198,5.877085
5.825370789,4.820218,3.352447,-1.100042,1.014604,-0.1227845,0.1875441,-43.02835,-24.88198,5.877085
5.835278034,3.767271,2.769927,-1.161405,0.9937867,-0.1227,0.1603682,-43.02835,-24.88198,5.877085
5.84518528,2.8382,1.37188,-1.529582,0.986675,-0.118534,0.1393348,-43.02835,-24.88198,5.877085
5.855092049,2.466572,-0.200923,-2.204574,0.982762,-0.1200472,0.1374402,-43.02835,-24.88198,5.877085
5.864999294,2.714324,-1.482466,-3.002292,0.9850456,-0.1152224,0.1273679,-42.72132,-24.50736,5.87431
5.87490654,3.519518,-2.472749,-3.554558,0.993684,-0.1020262,0.1268958,-42.72132,-24.50736,5.87431
5.884813786,4.634403,-3.171773,-3.80001,1.00336,-0.0839088,0.1379707,-42.72132,-24.50736,5.87431
5.894721508,4.882155,-3.171773,-3.80001,1.013083,-0.05942541,0.1610914,-42.72132,-24.50736,5.87431
5.9046278,4.634403,-3.113521,-3.738647,1.017483,-0.03839472,0.1856789,-42.72132,-24.50736,5.87431
5.914535046,4.076961,-2.531002,-3.493195,1.011706,-0.03354323,0.2001694,-42.73102,-23.75817,5.872002
5.924442291,3.457581,-1.948482,-3.002292,1.009878,-0.02862277,0.2184651,-42.73102,-23.75817,5.872002
5.934350014,2.714324,-1.365962,-2.3273,1.017722,-0.02705085,0.2222443,-42.73102,-23.75817,5.872002
5.944257259,2.156881,-0.6086866,-1.836397,1.012398,-0.03489472,0.2184,-42.73102,-23.75817,5.872002
5.954163551,1.475563,0.09033685,-1.529582,1.012402,-0.03977067,0.2130858,-42.73102,-23.75817,5.872002
5.964071274,0.1748638,-0.02616707,-0.977316,1.012367,-0.05295944,0.1942721,-43.03667,-24.13122,6.260244
5.973978519,-0.8161451,-0.08441903,-0.5477756,1.003619,-0.06474964,0.1856316,-43.03667,-24.13122,6.260244
5.983885765,-1.497464,-0.6086866,-0.7318643,0.9987914,-0.07697351,0.1774321,-43.03667,-24.13122,6.260244
5.993793011,-1.807154,-0.8999465,-0.8545902,0.996308,-0.09312178,0.15478,-43.03667,-24.13122,6.260244
6.00369978,-1.497464,-1.831978,-1.100042,0.9990761,-0.09122007,0.1408425,-43.03667,-24.13122,6.260244
6.013607025,-1.063897,-2.356246,-1.28413,0.9980551,-0.09174248,0.1360469,-43.02698,-24.88041,6.262552
6.023514271,-0.2587026,-2.472749,-1.406856,0.9975324,-0.08396129,0.1418655,-43.02698,-24.88041,6.262552
6.033421516,0.6084301,-2.297994,-1.590945,1.00336,-0.07854296,0.1442485,-43.02698,-24.88041,6.262552
6.043328762,1.475563,-1.89023,-1.100042,1.006344,-0.07165063,0.1572311,-43.02698,-24.88041,6.262552
6.053235531,1.909129,-1.365962,-0.977316,1.005479,-0.06916493,0.1711802,-43.02698,-24.88041,6.262552
6.065619469,2.033005,-1.132954,-0.3636869,1.007758,-0.05068441,0.176564,-42.71371,-24.87882,6.646399
6.075526714,1.227811,-0.6086866,-0.05687235,1.005322,-0.04729574,0.1814107,-42.71371,-24.87882,6.646399
6.08543396,0.05098768,-0.6086866,0.2499422,1.015183,-0.04517907,0.1918971,-42.71371,-24.87882,6.646399
6.095341206,-1.125835,-0.2591749,0.1885793,1.017151,-0.04612436,0.1918726,-42.71371,-24.87882,6.646399
6.105248451,-1.992968,0.03208489,0.2499422,1.010871,-0.05006636,0.1947853,-42.71371,-24.87882,6.646399
6.115155697,-2.55041,0.2650927,0.372668,1.006944,-0.0520745,0.190967,-42.71647,-24.88196,5.875463
6.125062466,-2.674286,0.3815967,0.3113051,1.010974,-0.06074454,0.1923124,-42.71647,-24.88196,5.875463
6.134969711,-2.55041,0.6146045,0.4340309,1.012932,-0.06462152,0.1879471,-42.71647,-24.88196,5.875463
6.144876957,-1.807154,0.8476124,0.7408454,1.016904,-0.07966267,0.1762863,-42.71647,-24.88196,5.875463
6.154784203,-0.9400212,0.7893605,0.8022084,1.010545,-0.07730491,0.1787617,-42.71647,-24.88196,5.875463
6.164691448,-0.754207,0.9058644,0.986297,1.007526,-0.07348339,0.1749738,-42.34084,-24.88036,6.258984
6.174598217,-1.001959,0.7311085,1.04766,1.00936,-0.06620505,0.1716442,-42.34084,-24.88036,6.258984
6.184505463,-1.187773,0.9641163,1.04766,1.007848,-0.0652715,0.1683033,-42.34084,-24.88036,6.258984
6.194412708,-1.745216,0.7893605,1.293112,1.006869,-0.06479631,0.1687957,-42.34084,-24.88036,6.258984
6.204320431,-2.426534,1.08062,1.109023,1.006422,-0.06331743,0.1745715,-42.34084,-24.88036,6.258984
6.214227676,-2.983977,1.255376,1.415837,1.000544,-0.06534731,0.1712513,-42.65272,-24.88038,6.260607
6.224133968,-3.665296,1.255376,1.415837,1.004936,-0.06627243,0.1692839,-42.65272,-24.88038,6.260607
6.234041214,-3.417543,1.430132,1.4772,1.006595,-0.07786122,0.174473,-42.65272,-24.88038,6.260607
6.243948937,-2.922039,1.837896,1.599926,1.008127,-0.08366306,0.1739401,-42.65272,-24.88038,6.260607
6.253856182,-2.612349,2.012651,1.661289,1.00427,-0.08417095,0.178774,-42.65272,-24.88038,6.260607
6.263763428,-2.178782,2.303911,1.661289,1.007266,-0.09141915,0.1762972,-42.71162,-25.25655,5.876617
6.273670197,-1.62134,2.070904,1.722652,0.9974433,-0.08814961,0.1759296,-42.71162,-25.25655,5.876617
6.283577442,-1.683278,1.9544,1.722652,0.9999583,-0.086619,0.1845594,-42.71162,-25.25655,5.876617
6.293484688,-1.93103,1.604888,1.599926,1.002968,-0.08800637,0.1902842,-42.71162,-25.25655,5.876617
6.303391934,-2.612349,1.313628,1.661289,1.007626,-0.0773337,0.1802289,-42.71162,-25.25655,5.876617
6.313299179,-3.045915,1.255376,1.538563,1.005595,-0.08130004,0.1682173,-42.71994,-24.50579,6.259777
6.323206425,-3.045915,1.430132,1.231749,1.006126,-0.08029635,0.1735009,-42.71994,-24.50579,6.259777
6.335590363,-3.231729,1.37188,1.231749,1.004271,-0.08465829,0.1782905,-42.71994,-24.50579,6.259777
6.345497131,-3.169791,1.779644,1.4772,1.00526,-0.08805499,0.1753778,-42.71994,-24.50579,6.259777
6.355404377,-2.674286,1.896148,1.4772,0.9980643,-0.09344058,0.1826109,-42.71994,-24.50579,6.259777
6.365311623,-2.55041,1.896148,1.354475,1.002411,-0.08560886,0.1864641,-42.71162,-25.25655,5.876617
6.375218868,-2.736225,2.012651,1.231749,0.9991671,-0.08946092,0.1994327,-42.71162,-25.25655,5.876617
6.385126114,-3.107853,2.129155,1.354475,0.9985839,-0.08610146,0.1941787,-42.71162,-25.25655,5.876617
6.395032883,-3.417543,2.012651,1.538563,0.9991035,-0.09485989,0.1869132,-42.71162,-25.25655,5.876617
6.404940128,-3.54142,2.012651,1.4772,1.003551,-0.09965825,0.1858798,-42.71162,-25.25655,5.876617
6.414847374,-3.355605,2.303911,1.231749,1.005057,-0.1020589,0.1868102,-43.02973,-24.88355,5.491617
6.42475462,-3.479481,2.187407,1.109023,0.997156,-0.09927024,0.1825804,-43.02973,-24.88355,5.491617
6.434661865,-2.983977,1.779644,1.170386,0.9955319,-0.09351681,0.1739909,-43.02973,-24.88355,5.491617
6.444569588,-2.674286,1.37188,1.231749,0.9999825,-0.09977721,0.1715073,-43.02973,-24.88355,5.491617
6.45447588,-1.869092,1.022368,1.109023,1.002529,-0.1045718,0.1757732,-43.02973,-24.88355,5.491617
6.464383125,-1.187773,0.6728565,1.04766,1.007287,-0.08945705,0.1806315,-42.72755,-24.13433,5.487688
6.474290371,-0.6922689,0.4981006,1.04766,1.006815,-0.0909175,0.1806261,-42.72755,-24.13433,5.487688
6.484198094,-0.4445167,0.6146045,0.9249341,1.005412,-0.09041525,0.1873646,-42.72755,-24.13433,5.487688
6.494105339,-0.1967645,0.9058644,0.8635712,1.006325,-0.08458305,0.1878752,-42.72755,-24.13433,5.487688
6.504012585,-0.3825787,1.197124,0.986297,1.006843,-0.08456169,0.1907515,-42.72755,-24.13433,5.487688
6.513919354,-0.3206406,1.488384,1.04766,1.001888,-0.0831935,0.1860049,-43.0332,-24.50739,5.875931
6.523826599,-0.6922689,1.604888,0.986297,0.9979027,-0.08279298,0.1793222,-43.0332,-24.50739,5.875931
6.533733845,-1.125835,1.604888,0.8635712,0.9988916,-0.08082382,0.1826873,-43.0332,-24.50739,5.875931
6.54364109,-1.745216,1.37188,0.986297,0.9998635,-0.08569273,0.1764038,-43.0332,-24.50739,5.875931
6.553548336,-2.488472,1.197124,0.8635712,0.9969686,-0.09058728,0.1744773,-43.0332,-24.50739,5.875931
6.563455105,-2.798162,0.9058644,1.109023,0.9940204,-0.09307061,0.1701666,-42.34844,-24.5089,5.486897
6.57336235,-2.922039,0.8476124,0.986297,1.000096,-0.1055718,0.175789,-42.34844,-24.5089,5.486897
6.583269596,-2.674286,0.7893605,1.231749,0.996177,-0.1066001,0.1738978,-42.34844,-24.5089,5.486897
6.593176842,-2.612349,0.7311085,1.293112,0.9967607,-0.1075203,0.1820489,-42.34844,-24.5089,5.486897
6.605560779,-2.426534,0.8476124,1.231749,0.9966614,-0.09879152,0.1825882,-42.34844,-24.5089,5.486897
6.615468025,-2.178782,0.9641163,1.04766,0.9942483,-0.09978127,0.1845245,-43.03805,-24.13279,5.874777
6.625375271,-1.93103,0.7893605,1.04766,0.99468,-0.09541462,0.1840695,-43.03805,-24.13279,5.874777
6.63528204,-1.992968,0.3233447,0.8635712,0.9901468,-0.08675829,0.1812881,-43.03805,-24.13279,5.874777
6.645189285,-1.62134,-0.08441903,0.6794825,0.9926063,-0.08428102,0.1856033,-43.03805,-24.13279,5.874777
6.655096531,-1.497464,-0.2591749,0.4953938,0.9996725,-0.09042188,0.1999018,-43.03805,-24.13279,5.874777
6.665003776,-1.373587,-0.3756789,0.1272164,1.010056,-0.09023321,0.2113308,-42.713,-25.25812,5.49115
6.674911022,-2.054906,-0.2591749,0.2499422,1.008247,-0.09798615,0.2165776,-42.713,-25.25812,5.49115
6.684818745,-2.674286,-0.2591749,0.4953938,1.018516,-0.09932066,0.2150333,-42.713,-25.25812,5.49115
6.694725037,-3.045915,-0.3756789,0.5567567,1.013128,-0.09890521,0.2146057,-42.713,-25.25812,5.49115
6.704632282,-3.231729,-0.200923,0.6794825,1.010001,-0.09513974,0.200255,-42.713,-25.25812,5.49115
6.714539528,-3.603357,-0.2591749,0.8022084,1.009881,-0.09617812,0.1872849,-43.0332,-24.50739,5.875931
6.72444725,-3.355605,-0.200923,1.109023,0.9915792,-0.09212375,0.171636,-43.0332,-24.50739,5.875931
6.734354496,-2.860101,-0.2591749,0.9249341,0.9831928,-0.09372977,0.1625798,-43.0332,-24.50739,5.875931
6.744261742,-2.736225,-0.08441903,0.6794825,0.9880134,-0.0966313,0.1524326,-43.0332,-24.50739,5.875931
6.75416851,-2.736225,0.09033685,0.5567567,0.9882298,-0.1131041,0.1542415,-43.0332,-24.50739,5.875931
6.764075756,-2.426534,-0.08441903,0.5567567,0.9927272,-0.1261694,0.1483509,-42.7324,-23.75974,5.486534
6.773983002,-1.497464,-0.08441903,0.6181196,0.9948384,-0.1416738,0.1453472,-42.7324,-23.75974,5.486534
6.783890247,-0.4445167,-0.4339308,0.4953938,0.9933714,-0.1333996,0.155019,-42.7324,-23.75974,5.486534
6.793797493,-0.3206406,-0.5504347,0.06585346,0.9927716,-0.1129755,0.1681249,-42.7324,-23.75974,5.486534
6.803704739,-0.6922689,-1.01645,-0.3636869,0.9937466,-0.1061355,0.175844,-42.7324,-23.75974,5.486534
6.813611507,-0.6922689,-1.249458,-0.302324,1.003121,-0.09670716,0.1950264,-43.41507,-24.13596,5.105789
6.823518753,0.1129257,-1.132954,-0.4864127,1.014463,-0.09407728,0.2074232,-43.41507,-24.13596,5.105789
6.833425999,0.7323062,-1.132954,-0.4250498,1.018776,-0.07894564,0.2166071,-43.41507,-24.13596,5.105789
6.843333244,0.6084301,-0.8999465,-0.6705014,1.024492,-0.06578082,0.2171221,-43.41507,-24.13596,5.105789
6.85324049,0.3606779,-0.3174269,-0.6091385,1.023058,-0.06773311,0.2180827,-43.41507,-24.13596,5.105789
6.865624428,0.05098768,0.2068408,-0.302324,1.016747,-0.07364231,0.2157009,-43.03458,-24.50896,5.490463
6.875531673,-0.1348265,0.4981006,-0.1182353,1.011841,-0.08541959,0.2003027,-43.03458,-24.50896,5.490463
6.885438442,-0.8780831,0.6146045,0.1272164,1.00248,-0.09679221,0.1801469,-43.03458,-24.50896,5.490463
6.895345688,-1.559402,0.03208489,0.2499422,0.9940102,-0.09551496,0.1663092,-43.03458,-24.50896,5.490463
6.905252933,-1.992968,-0.3174269,0.1272164,0.9941149,-0.1125337,0.1565916,-43.03458,-24.50896,5.490463
6.915160179,-2.488472,-0.4339308,0.1272164,0.9985209,-0.1212563,0.1468896,-42.72408,-24.5105,5.103374
6.925067902,-1.992968,-0.7251906,0.1272164,1.004454,-0.1255389,0.1482467,-42.72408,-24.5105,5.103374
6.934975147,-1.063897,-0.7251906,-0.2409611,0.9994332,-0.1095709,0.1541614,-42.72408,-24.5105,5.103374
6.944881439,-0.1348265,-0.4921828,-0.5477756,0.9949232,-0.0950486,0.1605419,-42.72408,-24.5105,5.103374
6.954788685,0.422616,-0.4921828,-0.7318643,1.004846,-0.09387603,0.175823,-42.72408,-24.5105,5.103374
6.964696407,0.7942443,-0.2591749,-0.6705014,1.007465,-0.09570586,0.1906715,-43.03272,-24.88695,4.656437
6.974603653,1.661377,0.09033685,-0.4250498,1.012906,-0.09267934,0.2002445,-43.03272,-24.88695,4.656437
6.984510899,2.652386,0.6146045,-0.3636869,1.003573,-0.0952569,0.1931113,-43.03272,-24.88695,4.656437
6.994418144,3.085952,1.197124,-0.2409611,0.9982709,-0.09918676,0.1960151,-43.03272,-24.88695,4.656437
7.004324913,3.209828,1.197124,-0.1795982,0.9952995,-0.09973092,0.1917175,-43.03272,-24.88695,4.656437
7.014232159,3.519518,0.7893605,-0.4864127,0.99727,-0.1079914,0.1834816,-43.03596,-24.51052,5.104996
7.024139404,3.705333,0.5563526,-0.7318643,0.9996811,-0.1138321,0.173337,-43.03596,-24.51052,5.104996
7.03404665,3.643394,0.1485888,-0.6705014,1.006614,-0.1273595,0.1659804,-43.03596,-24.51052,5.104996
7.043953896,3.271766,-0.2591749,-0.915953,1.000236,-0.1259866,0.1655684,-43.03596,-24.51052,5.104996
7.053861141,3.271766,-0.9581984,-0.977316,0.9976028,-0.1163593,0.1584545,-43.03596,-24.51052,5.104996
7.063768387,2.652386,-1.540718,-1.222768,0.999145,-0.1094725,0.1738512,-43.03596,-24.51052,5.104996
7.073675156,1.909129,-1.657222,-1.652308,1.002904,-0.09096608,0.1806619,-43.03596,-24.51052,5.104996
7.083582401,1.289749,-1.89023,-1.713671,0.9950692,-0.08375313,0.1879848,-43.03596,-24.51052,5.104996
7.093489647,1.723315,-1.773726,-1.590945,0.9999307,-0.07687728,0.1932674,-43.03596,-24.51052,5.104996
7.103396893,2.156881,-1.482466,-1.529582,1.003478,-0.0782331,0.2037891,-43.03596,-24.51052,5.104996
7.113304138,2.590448,-0.7834426,-1.222768,1.015744,-0.0756191,0.2108954,-43.03596,-24.51052,5.104996
7.123211861,2.590448,-0.08441903,-1.222768,1.018209,-0.07070004,0.2185879,-43.03596,-24.51052,5.104996
7.135595799,2.280757,0.2650927,-1.28413,1.009778,-0.06696316,0.2114884,-43.03596,-24.51052,5.104996
7.14550209,1.847191,0.1485888,-1.468219,1.005826,-0.07093593,0.2028557,-43.03596,-24.51052,5.104996
7.155409336,1.165873,-0.08441903,-1.468219,0.997432,-0.07400908,0.191389,-42.72755,-24.13433,5.487688
7.165317059,0.7942443,-0.3756789,-1.406856,0.9924781,-0.07849409,0.1798812,-42.72755,-24.13433,5.487688
7.175224304,0.7942443,-0.3174269,-1.345493,0.9963796,-0.08674303,0.1692266,-42.72755,-24.13433,5.487688
7.18513155,1.289749,-0.3756789,-1.222768,0.9945555,-0.1023087,0.1638581,-42.72755,-24.13433,5.487688
7.195038796,2.342696,-0.6086866,-1.100042,1.004507,-0.1142918,0.1665671,-42.72755,-24.13433,5.487688
7.204946041,3.14789,-0.6669386,-1.100042,1.011324,-0.1073917,0.1718318,-42.71647,-24.88196,5.875463
7.21485281,3.085952,-0.9581984,-1.222768,1.01168,-0.09623536,0.1719028,-42.71647,-24.88196,5.875463
7.224760056,2.714324,-0.9581984,-1.222768,1.004253,-0.08515583,0.1758866,-42.71647,-24.88196,5.875463
7.234667301,2.156881,-0.8999465,-1.345493,1.011851,-0.07005302,0.1715955,-42.71647,-24.88196,5.875463
7.244574547,1.475563,-0.7834426,-1.713671,1.013168,-0.05499094,0.1745646,-42.71647,-24.88196,5.875463
7.254481793,0.7323062,-0.7251906,-1.775034,1.014301,-0.05684916,0.187506,-42.34359,-24.8835,5.488049
7.264389038,0.6703682,-0.4339308,-1.652308,1.013818,-0.06026663,0.1841266,-42.34359,-24.8835,5.488049
7.274295807,0.9800584,-0.142671,-1.406856,1.010517,-0.07000244,0.1845725,-42.34359,-24.8835,5.488049
7.284203053,2.094944,0.03208489,-1.406856,1.006523,-0.07009434,0.1764461,-42.34359,-24.8835,5.488049
7.294110298,2.342696,-0.4339308,-1.713671,1.00839,-0.06767666,0.170683,-42.34359,-24.8835,5.488049
7.304017544,2.590448,-0.9581984,-2.388663,1.013257,-0.0661641,0.170168,-42.34844,-24.5089,5.486897
7.31392479,2.280757,-1.30771,-2.818203,1.004906,-0.05506869,0.1794421,-42.34844,-24.5089,5.486897
7.323832512,2.466572,-0.8416945,-3.431832,0.9901302,-0.07505956,0.1933702,-42.34844,-24.5089,5.486897
7.333739758,2.962076,-0.6669386,-2.879566,0.9868365,-0.112348,0.2099577,-42.34844,-24.5089,5.486897
7.34364605,4.820218,-0.08441903,-1.775034,1.001169,-0.1615988,0.2147788,-42.34844,-24.5089,5.486897
7.353553295,6.802235,1.022368,-0.6091385,1.022366,-0.1714903,0.2197986,-42.71785,-24.88353,5.489996
7.363461018,7.855182,1.604888,0.1272164,1.026176,-0.1622256,0.2207855,-42.71785,-24.88353,5.489996
7.373368263,7.359678,1.779644,0.06585346,1.015788,-0.1309578,0.1980422,-42.71785,-24.88353,5.489996
7.383275509,5.625412,1.255376,-0.2409611,0.9988778,-0.08668465,0.1744856,-42.71785,-24.88353,5.489996
7.393182755,3.519518,-0.08441903,-0.7318643,0.9914742,-0.05681697,0.1550666,-42.71785,-24.88353,5.489996
7.405566692,1.165873,-1.540718,-1.713671,0.9979406,-0.03790402,0.1402479,-43.03458,-24.50896,5.490463
7.415473938,0.4845541,-2.297994,-1.89776,1.006225,-0.04220468,0.1324601,-43.03458,-24.50896,5.490463
7.425380707,1.413625,-2.531002,-1.713671,1.012194,-0.05232266,0.1304169,-43.03458,-24.50896,5.490463
7.435287953,3.14789,-2.006734,-1.468219,1.007001,-0.06497623,0.1337417,-43.03458,-24.50896,5.490463
7.445195198,5.37766,-1.30771,-0.915953,1.007653,-0.0712266,0.1423369,-43.03458,-24.50896,5.490463
7.455102444,6.740297,-0.6669386,-0.4864127,1.017132,-0.06808527,0.1643574,-42.71994,-24.50579,6.259777
7.465009689,7.29774,-0.142671,-0.302324,1.018602,-0.05099229,0.1846243,-42.71994,-24.50579,6.259777
7.474916935,6.554483,0.03208489,-0.3636869,1.011176,-0.03015576,0.2001969,-42.71994,-24.50579,6.259777
7.484824181,4.200837,0.03208489,-0.4250498,1.003825,-0.01757343,0.213313,-42.71994,-24.50579,6.259777
7.49473095,1.103935,-0.3756789,-0.4250498,1.003057,-0.02528112,0.2247925,-42.71994,-24.50579,6.259777
7.504638195,-1.992968,-0.6669386,-0.302324,0.9982698,-0.03504534,0.2233313,-43.02351,-25.25658,5.878239
7.514545441,-4.284676,-0.5504347,-0.302324,0.9989631,-0.05834755,0.2159673,-43.02351,-25.25658,5.878239
7.524453163,-5.337623,-0.3174269,-0.302324,1.001702,-0.08792012,0.209983,-43.02351,-25.25658,5.878239
7.534360409,-4.965994,0.09033685,0.004490556,1.002957,-0.111178,0.2098165,-43.02351,-25.25658,5.878239
7.544267654,-3.355605,0.7311085,0.3113051,1.009394,-0.1286179,0.1971566,-43.02351,-25.25658,5.878239
7.554173946,-1.62134,0.7893605,0.5567567,1.004868,-0.1238603,0.190508,-42.71162,-25.25655,5.876617
7.564081669,0.1129257,0.9641163,0.6181196,1.005056,-0.109864,0.1776352,-42.71162,-25.25655,5.876617
7.573988914,1.289749,0.9058644,0.6181196,1.000899,-0.0983336,0.167187,-42.71162,-25.25655,5.876617
7.58389616,1.909129,0.5563526,0.4953938,0.9931718,-0.07326388,0.1583025,-42.71162,-25.25655,5.876617
7.593803406,1.909129,0.09033685,0.2499422,0.9866211,-0.06027379,0.1546083,-42.71162,-25.25655,5.876617
7.603710651,1.227811,-0.3756789,-0.2409611,0.992857,-0.05391547,0.1502716,-42.34084,-24.88036,6.258984
7.613617897,0.422616,-0.7251906,-0.3636869,1.007092,-0.05322145,0.1563866,-42.34084,-24.88036,6.258984
7.623524666,-0.3206406,-0.9581984,0.004490556,1.01208,-0.0565237,0.1620804,-42.34084,-24.88036,6.258984
7.633431911,-0.6303309,-0.4339308,0.06585346,1.013715,-0.06275938,0.1711467,-42.34084,-24.88036,6.258984
7.643339157,-1.063897,0.09033685,-0.1182353,1.008875,-0.06279463,0.1759928,-42.34084,-24.88036,6.258984
7.653246403,-1.187773,0.6146045,-0.1795982,1.015236,-0.06856632,0.1696535,-42.71647,-24.88196,5.875463
7.663153648,-1.249711,0.9641163,0.2499422,1.012449,-0.07877067,0.1720121,-42.71647,-24.88196,5.875463
7.675537586,-0.8780831,1.430132,0.6181196,1.003807,-0.07928579,0.1869735,-42.71647,-24.88196,5.875463
7.685444832,-1.063897,1.488384,0.8022084,0.9954121,-0.07357915,0.1856486,-42.71647,-24.88196,5.875463
7.695352554,-1.311649,1.546636,0.8022084,0.9964008,-0.07161,0.1890137,-42.71647,-24.88196,5.875463
7.7052598,-2.054906,0.8476124,0.8635712,0.9987981,-0.07257979,0.1832232,-42.72479,-24.1312,6.258623
7.715166092,-2.674286,0.6728565,0.7408454,0.9979984,-0.07884074,0.1932722,-42.72479,-24.1312,6.258623
7.725073337,-3.355605,0.3815967,0.9249341,0.9970309,-0.07640854,0.1971386,-42.72479,-24.1312,6.258623
7.73498106,-3.231729,0.03208489,0.9249341,1.005509,-0.0874377,0.2003478,-42.72479,-24.1312,6.258623
7.744888306,-2.612349,-0.142671,1.04766,1.011896,-0.09124474,0.1988229,-42.72479,-24.1312,6.258623
7.754795551,-1.435526,-0.200923,0.9249341,1.008507,-0.09322134,0.1998014,-42.7151,-24.88039,6.260931
7.764702797,-0.2587026,-0.4339308,0.7408454,1.008547,-0.09661488,0.1997785,-42.7151,-24.88039,6.260931
7.774610043,0.2368018,-0.6086866,0.6794825,1.00546,-0.09282903,0.1892688,-42.7151,-24.88039,6.260931
7.784516811,0.9800584,-0.7251906,0.4340309,1.001968,-0.09193253,0.1835451,-42.7151,-24.88039,6.260931
7.794424057,1.289749,-0.6086866,0.1272164,0.9999601,-0.09295953,0.1773148,-42.7151,-24.88039,6.260931
7.804331303,1.103935,-0.3174269,0.06585346,0.9939892,-0.08674537,0.1745304,-43.02973,-24.88355,5.491617
7.814238548,0.6084301,0.1485888,0.1272164,0.9949793,-0.08819016,0.1740315,-43.02973,-24.88355,5.491617
7.824145794,0.1748638,0.2650927,0.2499422,0.9958569,-0.08432769,0.1687674,-43.02973,-24.88355,5.491617
7.83405304,-0.5064548,0.3233447,0.4340309,1.001756,-0.0861889,0.1696607,-43.02973,-24.88355,5.491617
7.843960285,-0.8780831,0.2650927,0.372668,0.9983805,-0.09010974,0.1696658,-43.02973,-24.88355,5.491617
7.853867054,-1.187773,0.3815967,0.4953938,1.00521,-0.09003237,0.1681627,-42.34359,-24.8835,5.488049
7.8637743,-1.497464,-0.200923,0.3113051,1.00079,-0.08717063,0.1696631,-42.34359,-24.8835,5.488049
7.873681545,-1.311649,-0.4339308,0.372668,0.9995701,-0.09876782,0.1801607,-42.34359,-24.8835,5.488049
7.883588791,-0.754207,-0.6086866,0.372668,1.00199,-0.0987502,0.1777376,-42.34359,-24.8835,5.488049
7.893496513,-0.2587026,-1.191206,0.3113051,1.007873,-0.09720512,0.1810546,-42.34359,-24.8835,5.488049
7.903403759,0.5464921,-1.191206,-0.05687235,1.009357,-0.09327544,0.1873091,-42.34706,-24.50733,5.872364
7.913311005,1.475563,-0.8999465,-0.1182353,1.009325,-0.08890212,0.1892592,-42.34706,-24.50733,5.872364
7.923217297,2.094944,-0.7834426,-0.4250498,1.007996,-0.09177557,0.1993356,-42.34706,-24.50733,5.872364
7.935602188,2.652386,-0.9581984,-0.4250498,1.006856,-0.08114012,0.1960559,-42.34706,-24.50733,5.872364
7.945508957,2.652386,-0.7834426,-0.3636869,1.007769,-0.08067375,0.1902887,-42.34706,-24.50733,5.872364
7.955416203,2.404634,-0.4921828,-0.2409611,1.011595,-0.07432796,0.1893353,-42.72132,-24.50736,5.87431
7.965323448,1.847191,-0.4339308,-0.1182353,1.006668,-0.07440907,0.185539,-42.72132,-24.50736,5.87431
7.975230694,1.103935,0.03208489,0.004490556,1.008972,-0.06762218,0.179801,-42.72132,-24.50736,5.87431
7.985137939,0.1129257,0.2068408,0.2499422,1.001738,-0.08132059,0.1735346,-42.72132,-24.50736,5.87431
7.995045185,-0.4445167,0.1485888,0.004490556,1.007086,-0.08126908,0.1706046,-42.72132,-24.50736,5.87431
8.004952431,-0.5064548,0.2068408,0.004490556,1.000263,-0.08768443,0.1653432,-42.71647,-24.88196,5.875463
8.014859676,-0.5683928,0.09033685,-0.1182353,0.9982638,-0.0852924,0.1639371,-42.71647,-24.88196,5.875463
8.024766445,-0.3206406,-0.3174269,-0.1795982,1.002813,-0.09198917,0.1705727,-42.71647,-24.88196,5.875463
8.034673691,-0.07288842,-0.200923,-0.4864127,0.9993306,-0.09108757,0.1658093,-42.71647,-24.88196,5.875463
8.044580936,0.1129257,-0.3756789,-0.4250498,1.000959,-0.09635112,0.1753623,-42.71647,-24.88196,5.875463
8.054488182,0.2368018,-0.4339308,-0.4864127,1.000507,-0.09536213,0.1801747,-42.72132,-24.50736,5.87431
8.064395905,0.422616,-0.4339308,-0.5477756,0.9986485,-0.09728738,0.1873814,-42.72132,-24.50736,5.87431
8.07430315,0.7942443,-0.4339308,-0.4864127,1.007454,-0.09522361,0.1901947,-42.72132,-24.50736,5.87431
8.084210396,1.165873,-0.3174269,-0.4864127,1.005899,-0.0894345,0.188327,-42.72132,-24.50736,5.87431
8.094117165,1.351687,-0.200923,-0.5477756,1.00638,-0.08796896,0.1892926,-42.72132,-24.50736,5.87431
8.10402441,1.475563,-0.142671,-0.5477756,1.007307,-0.08164177,0.191727,-42.34084,-24.88036,6.258984
8.113931656,1.599439,-0.2591749,-0.4864127,1.000902,-0.08125886,0.1874674,-42.34084,-24.88036,6.258984
8.123838902,1.475563,-0.08441903,-0.3636869,1.005259,-0.07927521,0.1855196,-42.34084,-24.88036,6.258984
8.133746147,1.289749,-0.2591749,-0.2409611,1.002132,-0.06965655,0.1779301,-42.34084,-24.88036,6.258984
8.143653393,1.103935,-0.5504347,-0.4864127,1.003139,-0.07548231,0.1740407,-42.34084,-24.88036,6.258984
8.153560638,0.9800584,-0.6086866,-0.302324,1.007096,-0.07882473,0.174462,-42.71994,-24.50579,6.259777
8.163467884,0.9800584,-0.4339308,-0.3636869,1.008071,-0.08027716,0.1725227,-42.71994,-24.50579,6.259777
8.173374653,0.9181204,-0.3756789,-0.2409611,1.005618,-0.07543411,0.1773792,-42.71994,-24.50579,6.259777
8.183281899,0.7942443,-0.4921828,-0.1795982,1.001666,-0.07696765,0.1716436,-42.71994,-24.50579,6.259777
8.193189144,0.7942443,-0.4921828,0.004490556,1.001198,-0.07793821,0.1726018,-42.71994,-24.50579,6.259777
8.205573082,0.7323062,-0.3756789,-0.1182353,0.9991534,-0.06922859,0.1741192,-43.40608,-24.50585,6.263346
8.215480328,0.7942443,-0.142671,0.004490556,1.000693,-0.0716114,0.1784106,-43.40608,-24.50585,6.263346
8.225387573,0.8561823,-0.3174269,-0.1182353,0.9998056,-0.07547896,0.1827144,-43.40608,-24.50585,6.263346
8.235295296,0.9800584,-0.3174269,-0.1795982,1.005178,-0.07785396,0.1792878,-43.40608,-24.50585,6.263346
8.245202541,0.9800584,-0.3756789,0.1272164,1.005238,-0.08123732,0.1811853,-43.40608,-24.50585,6.263346
8.255109787,1.165873,-0.3174269,0.06585346,1.006286,-0.08216419,0.1869314,-42.72617,-24.13277,5.873156
8.265016556,1.413625,-0.2591749,0.1272164,1.007248,-0.08167234,0.1859654,-42.72617,-24.13277,5.873156
8.274923801,1.475563,-0.200923,0.1272164,1.009649,-0.07922565,0.1845191,-42.72617,-24.13277,5.873156
8.284831047,1.351687,-0.142671,0.2499422,1.006066,-0.07154714,0.1778811,-42.72617,-24.13277,5.873156
8.294738293,1.041996,-0.200923,0.06585346,1.00499,-0.069171,0.1711847,-42.72617,-24.13277,5.873156
8.304645538,0.4845541,-0.02616707,0.3113051,1.007473,-0.06619366,0.1783839,-43.03667,-24.13122,6.260244
8.314552784,-0.01095037,-0.02616707,0.1272164,1.007913,-0.06865232,0.170681,-43.03667,-24.13122,6.260244
8.32446003,-0.3825787,-0.02616707,0.3113051,1.005498,-0.07110664,0.1706869,-43.03667,-24.13122,6.260244
8.334367275,-0.2587026,0.2650927,0.3113051,1.007012,-0.07594145,0.1696804,-43.03667,-24.13122,6.260244
8.344274521,-0.3206406,0.2650927,0.5567567,1.003151,-0.07889114,0.1711369,-43.03667,-24.13122,6.260244
8.35418129,-0.2587026,0.3233447,0.4953938,0.9992728,-0.08087381,0.1721199,-42.3443,-24.50419,6.643299
8.364088535,-0.2587026,0.2068408,0.372668,0.9973693,-0.07989538,0.1783861,-42.3443,-24.50419,6.643299
8.373995781,-0.4445167,0.1485888,0.372668,1.004302,-0.07976451,0.1869657,-42.3443,-24.50419,6.643299
8.383903027,-0.6922689,-0.08441903,0.372668,1.009536,-0.07635766,0.1768567,-42.3443,-24.50419,6.643299
8.393810749,-0.5683928,-0.08441903,0.372668,1.012615,-0.0781967,0.1888199,-42.3443,-24.50419,6.643299
8.403717995,-0.754207,0.09033685,0.2499422,1.013629,-0.082068,0.1878244,-42.71025,-25.25498,6.262085
8.41362524,-0.6922689,0.1485888,0.3113051,1.01404,-0.07966343,0.183035,-42.71025,-25.25498,6.262085
8.423532486,-0.4445167,0.1485888,0.2499422,1.006124,-0.07639507,0.1778483,-42.71025,-25.25498,6.262085
8.433439255,-0.3825787,0.4398486,0.372668,1.006673,-0.08269896,0.1763607,-42.71025,-25.25498,6.262085
8.4433465,-0.2587026,0.3233447,0.4953938,0.9997548,-0.07452976,0.1788799,-42.71025,-25.25498,6.262085
8.453253746,-0.2587026,0.1485888,0.3113051,0.9983364,-0.08476684,0.1716225,-42.71994,-24.50579,6.259777
8.463160992,-0.6303309,0.2068408,0.2499422,0.9982353,-0.08042918,0.1668507,-42.71994,-24.50579,6.259777
8.47554493,-1.311649,-0.02616707,0.1272164,0.9997714,-0.08622847,0.1667979,-42.71994,-24.50579,6.259777
8.485452175,-1.497464,-0.08441903,0.4953938,1.006682,-0.08513311,0.1744238,-42.71994,-24.50579,6.259777
8.495359421,-1.125835,0.2068408,0.4953938,1.005766,-0.0865767,0.1787441,-42.71994,-24.50579,6.259777
8.505266667,-1.125835,0.3815967,0.6181196,1.009208,-0.0894506,0.1772526,-42.72617,-24.13277,5.873156
8.515173912,-0.6303309,0.2068408,0.3113051,1.008214,-0.08849571,0.176788,-42.72617,-24.13277,5.873156
8.525081635,-0.3825787,0.3815967,0.2499422,1.006311,-0.08751728,0.1830542,-42.72617,-24.13277,5.873156
8.534987926,-0.07288842,0.3233447,0.5567567,1.004856,-0.08850509,0.1830611,-42.72617,-24.13277,5.873156
8.544895172,-0.07288842,-0.142671,0.4340309,1.000786,-0.07692883,0.1812552,-42.72617,-24.13277,5.873156
8.554802418,-0.2587026,-0.02616707,0.3113051,1.008607,-0.07878358,0.1787697,-42.34706,-24.50733,5.872364
8.56471014,-0.3825787,0.1485888,0.2499422,1.004255,-0.08661785,0.1744363,-42.34706,-24.50733,5.872364
8.574617386,-0.2587026,-0.142671,0.372668,0.999908,-0.0885964,0.1773443,-42.34706,-24.50733,5.872364
8.584524631,0.05098768,-0.02616707,0.1272164,1.004806,-0.08804323,0.1787432,-42.34706,-24.50733,5.872364
8.594431877,0.05098768,-0.08441903,0.1885793,1.007292,-0.08701525,0.1840088,-42.34706,-24.50733,5.872364
8.604339123,-0.07288842,-0.08441903,0.3113051,1.00188,-0.08417328,0.1840778,-42.72479,-24.1312,6.258623
8.614246368,-0.1348265,0.03208489,0.2499422,0.9969525,-0.08181515,0.1831787,-42.72479,-24.1312,6.258623
8.624153137,-0.1348265,-0.02616707,0.2499422,1.00038,-0.0817701,0.1836275,-42.72479,-24.1312,6.258623
8.634060383,-0.3206406,0.1485888,0.4340309,1.007178,-0.07829408,0.1831076,-42.72479,-24.1312,6.258623
8.643967628,-0.2587026,-0.142671,0.372668,1.006264,-0.08363894,0.1830805,-42.72479,-24.1312,6.258623
8.653874874,-0.1967645,0.09033685,0.2499422,1.007185,-0.07926621,0.1826209,-42.71371,-24.87882,6.646399
8.66378212,-0.1967645,-0.08441903,0.372668,1.005269,-0.08756255,0.1768215,-42.71371,-24.87882,6.646399
8.673689365,0.05098768,-0.02616707,0.1885793,1.003875,-0.09242105,0.1782425,-42.71371,-24.87882,6.646399
8.683597088,0.2987399,0.1485888,0.1885793,1.002781,-0.08761585,0.1725227,-42.71371,-24.87882,6.646399
8.693504333,0.8561823,-0.142671,0.004490556,1.007272,-0.08946469,0.1791911,-42.71371,-24.87882,6.646399
8.703411579,0.7323062,0.03208489,0.1885793,1.006745,-0.0870519,0.1782517,-43.03667,-24.13122,6.260244
8.713317871,0.4845541,-0.200923,0.1272164,1.004197,-0.07884333,0.1778498,-43.03667,-24.13122,6.260244
8.723225594,0.422616,-0.200923,-0.1182353,1.00371,-0.08275068,0.1735069,-43.03667,-24.13122,6.260244
8.733132839,0.2987399,-0.200923,-0.1182353,1.000352,-0.08568666,0.1763993,-43.03667,-24.13122,6.260244
8.745516777,0.05098768,-0.08441903,0.004490556,1.000908,-0.09003607,0.1778057,-42.71994,-24.50579,6.259777
8.755424023,-0.01095037,0.09033685,0.004490556,1.008669,-0.08606821,0.1763198,-42.71994,-24.50579,6.259777
8.765331268,-0.1348265,0.3815967,0.2499422,1.003893,-0.08899693,0.184027,-42.71994,-24.50579,6.259777
8.775238514,-0.01095037,0.3815967,0.1885793,1.003883,-0.08851469,0.1835502,-42.71994,-24.50579,6.259777
8.78514576,-0.1348265,-0.02616707,0.004490556,1.007287,-0.08945705,0.1806315,-42.71994,-24.50579,6.259777
8.795053005,-0.07288842,0.09033685,0.004490556,1.006766,-0.08801639,0.1792054,-42.34706,-24.50733,5.872364
8.804960251,0.05098768,0.2650927,-0.05687235,1.004292,-0.08806204,0.176347,-42.34706,-24.50733,5.872364
8.814867973,-0.01095037,0.09033685,-0.2409611,1.00625,-0.08413392,0.1811567,-42.34706,-24.50733,5.872364
8.824774265,0.1129257,-0.02616707,-0.2409611,1.002875,-0.08805478,0.1811618,-42.34706,-24.50733,5.872364
8.834681511,0.422616,0.1485888,-0.2409611,1.005801,-0.08704621,0.1816216,-42.34706,-24.50733,5.872364
8.844588757,0.422616,0.03208489,-0.3636869,1.002335,-0.08418505,0.1807124,-43.03805,-24.13279,5.874777
8.854496479,0.2368018,-0.02616707,-0.05687235,1.004335,-0.08706442,0.181635,-43.03805,-24.13279,5.874777
8.864403725,0.2368018,-0.02616707,-0.1182353,1.004293,-0.08318353,0.1821414,-43.03805,-24.13279,5.874777
8.87431097,-0.01095037,-0.02616707,0.004490556,1.004704,-0.07785238,0.1807327,-43.03805,-24.13279,5.874777
8.884218216,-0.01095037,0.1485888,-0.1182353,1.00622,-0.08073528,0.1821399,-43.03805,-24.13279,5.874777
8.894125462,0.1129257,0.2068408,-0.05687235,1.004266,-0.07880765,0.1845716,-42.72341,-24.12963,6.644091
8.904032707,-0.01095037,0.5563526,0.004490556,1.007598,-0.07783633,0.1768647,-42.72341,-24.12963,6.644091
8.913939476,0.1748638,0.2650927,0.004490556,1.00865,-0.08363915,0.1772965,-42.72341,-24.12963,6.644091
8.923846722,0.3606779,0.2650927,0.2499422,1.002813,-0.09198917,0.1705727,-42.72341,-24.12963,6.644091
8.933753967,0.5464921,0.4981006,-0.1182353,0.9988578,-0.0891341,0.1696679,-42.72341,-24.12963,6.644091
8.943661213,0.422616,0.03208489,-0.05687235,0.9998172,-0.08718023,0.1701522,-42.71647,-24.88196,5.875463
8.953568459,0.2368018,0.2650927,-0.05687235,0.9988154,-0.07940002,0.1769355,-42.71647,-24.88196,5.875463
8.963475704,-0.1348265,0.09033685,0.06585346,0.9997843,-0.07988031,0.1754829,-42.71647,-24.88196,5.875463
8.97338295,-0.3206406,-0.142671,-0.1795982,1.000316,-0.07936396,0.180283,-42.71647,-24.88196,5.875463
8.983290672,-0.3206406,-0.08441903,-0.1795982,1.003799,-0.08563141,0.1787686,-42.71647,-24.88196,5.875463
8.993197918,-0.1348265,-0.08441903,-0.05687235,1.002863,-0.08415859,0.1845489,-42.71647,-24.88196,5.875463
9.005581856,0.1129257,-0.142671,0.06585346,1.000416,-0.08272694,0.1860216,-42.71647,-24.88196,5.875463
9.015489101,0.2368018,-0.02616707,0.06585346,1.006241,-0.07877318,0.1864742,-42.71647,-24.88196,5.875463
9.025396347,0.2987399,-0.02616707,-0.05687235,1.003295,-0.08027928,0.1836105,-42.71647,-24.88196,5.875463
9.035303116,0.3606779,-0.08441903,0.004490556,1.007727,-0.08411061,0.1821035,-42.71647,-24.88196,5.875463
9.045210361,0.2987399,-0.08441903,0.1272164,1.002368,-0.08367987,0.1845567,-42.71994,-24.50579,6.259777
9.055117607,0.2987399,-0.08441903,-0.05687235,1.005715,-0.08270091,0.1782902,-42.71994,-24.50579,6.259777
9.065024853,0.1129257,-0.08441903,0.06585346,1.007176,-0.08512449,0.1748994,-42.71994,-24.50579,6.259777
9.074932098,-0.1348265,-0.02616707,0.06585346,1.007146,-0.07928659,0.1787799,-42.71994,-24.50579,6.259777
9.084839344,-0.01095037,-0.08441903,0.06585346,1.005658,-0.08126692,0.174459,-42.71994,-24.50579,6.259777
9.09474659,0.05098768,-0.08441903,0.004490556,1.001242,-0.08279378,0.1711286,-43.03183,-24.50582,6.261398
9.104653835,0.1748638,-0.02616707,-0.05687235,1.003311,-0.08612482,0.1782897,-43.03183,-24.50582,6.261398
9.114561558,0.1748638,0.09033685,-0.05687235,1.004695,-0.08371066,0.1730112,-43.03183,-24.50582,6.261398
9.124468803,-0.01095037,0.2068408,0.06585346,1.001764,-0.07984328,0.1778657,-43.03183,-24.50582,6.261398
9.134375095,-0.07288842,0.1485888,0.1272164,1.000792,-0.08277947,0.1749741,-43.03183,-24.50582,6.261398
9.144282818,-0.2587026,0.03208489,0.1272164,1.00086,-0.08518305,0.1787988,-43.10043,-24.1328,5.875101
9.154190064,-0.1348265,-0.142671,0.1272164,1.003374,-0.08560435,0.1850147,-43.10043,-24.1328,5.875101
9.164097309,0.05098768,-0.3174269,0.1272164,1.001953,-0.08950091,0.1850019,-43.10043,-24.1328,5.875101
9.174004555,0.2987399,-0.2591749,0.004490556,1.008729,-0.08408573,0.1844952,-43.10043,-24.1328,5.875101
9.1839118,0.422616,-0.08441903,-0.05687235,1.009183,-0.08361015,0.1816132,-43.10043,-24.1328,5.875101
9.193819046,0.422616,-0.08441903,0.1272164,1.010747,-0.08890682,0.1849246,-42.72132,-24.50736,5.87431
9.203726292,0.3606779,-0.02616707,0.004490556,1.006249,-0.08315924,0.1821235,-42.72132,-24.50736,5.87431
9.213633537,0.6703682,0.03208489,0.06585346,1.008163,-0.07925406,0.182612,-42.72132,-24.50736,5.87431
9.223540783,0.422616,0.09033685,0.004490556,1.006236,-0.08414157,0.1797163,-42.72132,-24.50736,5.87431
9.233447552,0.2368018,0.03208489,0.06585346,1.004149,-0.0769169,0.1754623,-42.72132,-24.50736,5.87431
9.243354797,-0.01095037,0.03208489,0.1272164,1.003665,-0.08228627,0.1696691,-43.08935,-24.88042,6.262877
9.253262043,-0.1967645,0.09033685,0.1272164,1.008131,-0.08609977,0.171523,-43.08935,-24.88042,6.262877
9.263169289,-0.1967645,-0.02616707,0.1272164,0.9983983,-0.08912489,0.1725532,-43.08935,-24.88042,6.262877
9.275553227,-0.1348265,-0.142671,-0.05687235,1.000841,-0.08811984,0.1734976,-43.08935,-24.88042,6.262877
9.285460949,0.05098768,-0.142671,0.004490556,0.9984642,-0.08762719,0.1807253,-43.08935,-24.88042,6.262877
9.295368195,-0.01095037,-0.142671,0.06585346,1.007747,-0.0899536,0.1772628,-42.72132,-24.50736,5.87431
9.30527544,0.2368018,0.03208489,-0.05687235,1.008788,-0.08698175,0.1868761,-42.72132,-24.50736,5.87431
9.315182686,0.6084301,-0.02616707,0.004490556,1.011555,-0.07922684,0.1796998,-42.72132,-24.50736,5.87431
9.325089932,0.6084301,-0.08441903,-0.2409611,1.001319,-0.07689982,0.1855719,-42.72132,-24.50736,5.87431
9.334997177,0.5464921,0.03208489,0.06585346,1.003332,-0.07879687,0.1889018,-42.72132,-24.50736,5.87431
9.344904423,0.4845541,0.03208489,0.004490556,1.007251,-0.07776852,0.190793,-43.09073,-24.88199,5.877409
9.354811668,0.4845541,-0.02616707,0.1272164,1.007696,-0.08607781,0.1768089,-43.09073,-24.88199,5.877409
9.364718437,0.4845541,0.09033685,-0.05687235,1.008677,-0.08264919,0.1811441,-43.09073,-24.88199,5.877409
9.374625683,0.422616,0.1485888,0.06585346,1.00909,-0.08365856,0.1724907,-43.09073,-24.88199,5.877409
9.384532929,0.2987399,-0.02616707,0.004490556,1.004282,-0.08757979,0.1758702,-43.09073,-24.88199,5.877409
9.394440174,0.6703682,-0.08441903,0.06585346,0.9998533,-0.08813708,0.1725463,-42.34568,-24.50576,6.257832
9.404347897,0.6703682,0.03208489,-0.05687235,1.002364,-0.08709636,0.1802126,-42.34568,-24.50576,6.257832
9.414255142,0.5464921,0.03208489,-0.2409611,1.007263,-0.08703054,0.181128,-42.34568,-24.50576,6.257832
9.424162388,0.5464921,-0.02616707,-0.302324,1.006251,-0.08169468,0.1840539,-42.34568,-24.50576,6.257832
9.434069634,0.6703682,-0.2591749,-0.4250498,1.003329,-0.08270069,0.1840742,-42.34568,-24.50576,6.257832
9.443976879,0.6703682,-0.08441903,-0.302324,1.004281,-0.08172661,0.1826314,-43.08588,-25.25658,5.878563
9.453884125,0.5464921,-0.200923,-0.2409611,1.002339,-0.0841825,0.1811925,-43.08588,-25.25658,5.878563
9.463790894,0.4845541,-0.200923,-0.2409611,1.008242,-0.08506648,0.1835328,-43.08588,-25.25658,5.878563
9.473698139,0.3606779,-0.08441903,-0.2409611,1.010244,-0.08892054,0.1834886,-43.08588,-25.25658,5.878563
9.483605385,0.4845541,-0.142671,-0.1182353,1.002832,-0.08905239,0.1758738,-43.08588,-25.25658,5.878563
9.493512631,0.7942443,0.03208489,-0.1182353,1.002805,-0.08760311,0.1749234,-42.34915,-24.1296,6.642145
9.503419876,1.103935,-0.2591749,-0.2409611,0.9930222,-0.09260561,0.1687385,-42.34915,-24.1296,6.642145
9.513327122,0.7942443,-0.4339308,-0.4864127,0.994502,-0.08916582,0.1740294,-42.34915,-24.1296,6.642145
9.523234367,0.8561823,-0.4921828,-0.5477756,0.9965474,-0.09007034,0.181687,-42.34915,-24.1296,6.642145
9.53314209,0.5464921,-0.5504347,-0.5477756,1.002416,-0.0885329,0.1835636,-42.34915,-24.1296,6.642145
9.545526028,0.6703682,-0.6086866,-0.6705014,1.000854,-0.08469826,0.178802,-42.35053,-24.13117,6.256678
9.555433273,1.227811,-0.7251906,-0.4864127,1.000919,-0.08515248,0.1845603,-42.35053,-24.13117,6.256678
9.565340519,1.537501,-0.4921828,-0.4250498,1.006746,-0.0821734,0.1840461,-42.35053,-24.13117,6.256678
9.575247764,1.723315,-0.5504347,-0.1795982,1.007674,-0.07926013,0.1826164,-42.35053,-24.13117,6.256678
9.58515501,1.723315,-0.3174269,-0.302324,1.007129,-0.07539296,0.1816869,-42.35053,-24.13117,6.256678
9.595062256,1.351687,-0.3174269,-0.1795982,1.005596,-0.06861643,0.1831867,-42.35053,-24.13117,6.256678
9.604969025,1.289749,-0.08441903,-0.2409611,1.010998,-0.07390274,0.1792603,-42.35053,-24.13117,6.256678
9.61487627,1.041996,-0.08441903,-0.1795982,1.009927,-0.0710367,0.1735274,-42.35053,-24.13117,6.256678
9.624783516,0.9800584,-0.08441903,-0.1182353,1.007403,-0.07062049,0.1663511,-42.35053,-24.13117,6.256678
9.634690761,0.9800584,-0.02616707,0.004490556,1.007358,-0.06722949,0.165894,-42.35053,-24.13117,6.256678
9.644598007,0.6084301,0.09033685,-0.05687235,1.006494,-0.07059697,0.1730819,-42.33599,-25.25495,6.260138
9.654505253,0.5464921,-0.02616707,0.004490556,1.004058,-0.07013489,0.174548,-42.33599,-25.25495,6.260138
9.664412975,0.2987399,0.09033685,0.004490556,1.00065,-0.07504826,0.1702254,-42.33599,-25.25495,6.260138
9.674320221,-0.1967645,-0.02616707,0.1885793,1.001262,-0.08083168,0.1754629,-42.33599,-25.25495,6.260138
9.684227467,-0.3825787,0.03208489,-0.1182353,1.002315,-0.08419524,0.1787919,-42.33599,-25.25495,6.260138
9.694134712,-0.5064548,0.2068408,0.06585346,1.00276,-0.0842121,0.1744662,-43.09282,-24.50426,6.64719
9.704041958,-0.6303309,0.2068408,0.004490556,1.003409,-0.08900046,0.1845116,-43.09282,-24.50426,6.64719
9.713949203,-0.4445167,0.2068408,0.1272164,1.003395,-0.0890081,0.1830712,-43.09282,-24.50426,6.64719
9.723855972,-0.5064548,0.4398486,0.004490556,1.003897,-0.08850704,0.1849906,-43.09282,-24.50426,6.64719
9.733763218,-0.5064548,0.3815967,0.1885793,1.002836,-0.08319665,0.1831151,-43.09282,-24.50426,6.64719
9.743670464,-0.5683928,0.1485888,0.1885793,1.003736,-0.08078603,0.1783213,-43.0942,-24.50582,6.261723
9.753577709,-0.2587026,0.3233447,0.004490556,1.007285,-0.08555578,0.1849789,-43.0942,-24.50582,6.261723
9.763484955,-0.01095037,0.09033685,0.004490556,1.006775,-0.08752395,0.1806491,-43.0942,-24.50582,6.261723
9.7733922,0.2368018,-0.142671,-0.1795982,1.002356,-0.08514954,0.1816661,-43.0942,-24.50582,6.261723
9.783299923,0.1748638,-0.142671,0.004490556,1.000812,-0.08033003,0.1797918,-43.0942,-24.50582,6.261723
9.793207169,0.2368018,-0.08441903,-0.3636869,1.003721,-0.08323292,0.1739837,-42.72826,-23.75504,6.642937
9.805591106,0.2987399,-0.142671,-0.1795982,0.9998061,-0.08377139,0.173056,-42.72826,-23.75504,6.642937
9.815498352,0.1129257,-0.08441903,-0.2409611,1.001242,-0.08279378,0.1711286,-42.72826,-23.75504,6.642937
9.825405598,0.1748638,0.2068408,0.004490556,0.9984281,-0.08667034,0.1783312,-42.72826,-23.75504,6.642937
9.835312843,0.1129257,0.1485888,-0.05687235,0.9999018,-0.08518501,0.1807282,-42.72826,-23.75504,6.642937
9.845220089,-0.01095037,0.1485888,-0.05687235,1.002806,-0.0827246,0.1807178,-42.71994,-24.50579,6.259777
9.855127335,0.05098768,0.03208489,-0.05687235,1.002814,-0.08174483,0.1826448,-42.71994,-24.50579,6.259777
9.86503458,0.05098768,0.03208489,0.06585346,1.007763,-0.08506746,0.1844976,-42.71994,-24.50579,6.259777
9.874941349,0.3606779,0.2068408,0.1272164,1.004921,-0.0840808,0.1946138,-42.71994,-24.50579,6.259777
9.884848595,0.4845541,-0.200923,0.1272164,1.005663,-0.08126437,0.1749392,-42.71994,-24.50579,6.259777
9.89475584,0.5464921,-0.2591749,-0.302324,1.012925,-0.07194182,0.1787754,-41.96658,-24.88033,6.257038
9.904663086,0.4845541,0.09033685,-0.302324,1.007172,-0.07488269,0.1864915,-41.96658,-24.88033,6.257038
9.914570332,0.5464921,0.03208489,-0.1182353,1.001193,-0.07745341,0.1726051,-41.96658,-24.88033,6.257038
9.924478054,0.9181204,-0.142671,0.06585346,1.002751,-0.08470454,0.1730226,-41.96658,-24.88033,6.257038
9.9343853,1.103935,-0.4339308,0.1272164,1.004783,-0.08659139,0.1782729,-41.96658,-24.88033,6.257038
9.944292545,0.7323062,-0.142671,0.1885793,1.000785,-0.07888074,0.1788414,-42.71994,-24.50579,6.259777
9.954199791,0.422616,-0.200923,0.06585346,1.000291,-0.07645011,0.181263,-42.71994,-24.50579,6.259777
9.964107037,0.05098768,-0.200923,0.004490556,1.004603,-0.07351473,0.1759609,-42.71994,-24.50579,6.259777
9.974014282,-0.2587026,0.03208489,0.06585346,1.009093,-0.07731549,0.1802155,-42.71994,-24.50579,6.259777
9.983921528,-0.2587026,0.2068408,-0.1182353,1.006721,-0.08511273,0.1782649,-42.71994,-24.50579,6.259777
9.993828773,-0.1348265,0.3233447,0.004490556,1.010136,-0.08605,0.1763064,-42.72617,-24.13277,5.873156
10.003735542,0.1748638,0.1485888,0.004490556,1.008165,-0.08608193,0.1748839,-42.72617,-24.13277,5.873156
10.013642788,0.05098768,0.09033685,-0.1182353,1.004326,-0.08755686,0.1801914,-42.72617,-24.13277,5.873156
10.023550034,0.3606779,0.09033685,-0.1182353,1.008722,-0.08555285,0.1820847,-42.72617,-24.13277,5.873156
10.033457279,0.3606779,0.03208489,-0.1795982,1.014241,-0.09029066,0.1901648,-42.72617,-24.13277,5.873156
10.043365002,0.3606779,-0.02616707,-0.302324,1.009652,-0.08117502,0.1825854,-42.71994,-24.50579,6.259777
10.053272247,0.3606779,-0.142671,-0.3636869,1.000847,-0.08079953,0.1826693,-42.71994,-24.50579,6.259777
10.063179493,0.7942443,-0.02616707,-0.1182353,1.001477,-0.08559808,0.1907942,-42.71994,-24.50579,6.259777
10.075563431,0.7323062,-0.08441903,-0.2409611,1.003872,-0.08803244,0.1830733,-42.71994,-24.50579,6.259777
10.085470676,0.7323062,-0.08441903,-0.1795982,1.007727,-0.08167136,0.1850007,-42.71994,-24.50579,6.259777
10.095377922,0.6084301,-0.02616707,-0.1795982,1.013478,-0.06946338,0.1879098,-42.34568,-24.50576,6.257832
10.105285168,0.1129257,0.2650927,-0.2409611,1.018775,-0.06553607,0.1845258,-42.34568,-24.50576,6.257832
10.115192413,-0.3206406,0.7893605,-0.4864127,1.016401,-0.06894471,0.187406,-42.34568,-24.50576,6.257832
10.125099659,-0.5683928,1.08062,-0.6705014,1.010172,-0.07627515,0.1912561,-42.34568,-24.50576,6.257832
10.135006905,-1.063897,1.197124,-0.915953,1.001896,-0.07928714,0.1913126,-42.34568,-24.50576,6.257832
10.144914627,-1.435526,1.197124,-1.100042,0.9970825,-0.08857678,0.1879341,-43.09073,-24.88199,5.877409
10.154821873,-1.559402,1.546636,-1.100042,0.9975496,-0.09004545,0.1840787,-43.09073,-24.88199,5.877409
10.164729118,-1.373587,1.546636,-1.038679,0.9974669,-0.09301537,0.1725359,-43.09073,-24.88199,5.877409
10.17463541,-0.9400212,1.197124,-1.100042,0.9935217,-0.09844762,0.162933,-43.09073,-24.88199,5.877409
10.184543133,-0.4445167,1.138872,-0.7932273,0.9925182,-0.09505858,0.1644053,-43.09073,-24.88199,5.877409
10.194450378,-0.1348265,0.9058644,-1.038679,0.9919728,-0.09363066,0.1605786,-42.72132,-24.50736,5.87431
10.204357624,-0.07288842,0.5563526,-0.8545902,0.9923984,-0.08585261,0.1635075,-42.72132,-24.50736,5.87431
10.21426487,-0.1348265,0.1485888,-0.6705014,0.9899412,-0.0868653,0.1611226,-42.72132,-24.50736,5.87431
10.224172115,-0.3206406,-0.2591749,-0.6705014,0.9864234,-0.08012835,0.1597596,-42.72132,-24.50736,5.87431
10.234079361,-0.1348265,-0.5504347,-0.6091385,0.9998212,-0.08669034,0.1711158,-42.72132,-24.50736,5.87431
10.243986607,0.3606779,-0.6086866,-0.4864127,1.005653,-0.08370871,0.1710817,-42.33945,-24.87879,6.644451
10.253893852,0.5464921,-0.5504347,-0.6091385,1.006563,-0.07592715,0.1735259,-42.33945,-24.87879,6.644451
10.263801575,0.5464921,-0.5504347,-0.5477756,1.007508,-0.06617583,0.1817448,-42.33945,-24.87879,6.644451
10.27370882,0.6084301,-0.5504347,-0.5477756,1.01341,-0.0641332,0.1874658,-42.33945,-24.87879,6.644451
10.283616066,1.289749,-0.5504347,-0.6705014,1.009968,-0.0641859,0.1855766,-42.33945,-24.87879,6.644451
10.293523312,1.165873,-0.3756789,-0.4250498,1.01248,-0.06607179,0.1898623,-42.72132,-24.50736,5.87431
10.303430557,1.227811,-0.3756789,-0.7318643,1.008112,-0.07049977,0.1879525,-42.72132,-24.50736,5.87431
10.313337803,0.9181204,-0.200923,-0.7932273,1.0081,-0.06904285,0.1884425,-42.72132,-24.50736,5.87431
10.323244572,0.8561823,0.03208489,-0.6091385,1.005685,-0.07198451,0.1879651,-42.72132,-24.50736,5.87431
10.333151817,0.2368018,0.4398486,-0.7318643,1.012652,-0.08256748,0.18735,-42.72132,-24.50736,5.87431
10.345536232,-2.116844,2.595171,-0.6091385,1.036466,-0.1123383,0.1859711,-43.09558,-24.50739,5.876255
10.355443001,-5.709251,5.624273,-0.3636869,1.061379,-0.1434978,0.1946561,-43.09558,-24.50739,5.876255
10.365350247,-10.29267,7.8961,0.986297,1.075165,-0.1825409,0.2057923,-43.09558,-24.50739,5.876255
10.375257492,-13.88507,6.731061,4.668071,1.058432,-0.1837806,0.1939348,-43.09558,-24.50739,5.876255
10.385164738,-13.07988,2.595171,7.245314,1.050323,-0.0947682,0.1749163,-42.71994,-24.50579,6.259777
10.395071983,-13.07988,2.536919,3.440813,0.9868056,-0.02456798,0.2143841,-42.71994,-24.50579,6.259777
10.404979706,-18.46849,-5.035836,-2.511389,0.8535368,-0.1358826,0.1058791,-42.71994,-24.50579,6.259777
10.414886952,-16.48647,-9.171726,-4.475002,0.9227003,-0.1775922,0.03053705,-42.71994,-24.50579,6.259777
10.424794197,-9.115844,-10.80278,-3.247744,0.9890864,-0.1419443,0.01335505,-42.71994,-24.50579,6.259777
10.434701443,1.165873,-11.85132,-6.990881,1.00603,-0.08279411,0.06592966,-42.34221,-24.88193,5.873516
10.444608688,5.68735,-9.521237,-0.4864127,1.015435,0.01371891,0.1423507,-42.34221,-24.88193,5.873516
10.454515934,3.333704,-7.598922,1.661289,1.044191,0.03769533,0.2089864,-42.34221,-24.88193,5.873516
10.46442318,-3.479481,-7.074654,1.109023,1.056886,0.06516213,0.239302,-42.34221,-24.88193,5.873516
10.474330425,-9.115844,-5.909615,0.6794825,1.048129,0.04239653,0.2646797,-42.34221,-24.88193,5.873516
10.484237671,-12.70825,-4.628072,-0.977316,1.048997,-0.008371687,0.2897818,-43.09695,-24.50896,5.490788
10.494145393,-13.88507,-2.414498,-1.222768,1.047259,-0.04438021,0.2689112,-43.09695,-24.50896,5.490788
10.504051685,-13.07988,-0.7251906,-1.28413,1.032923,-0.05146827,0.2454688,-43.09695,-24.50896,5.490788
10.513958931,-11.96499,0.03208489,-1.345493,1.031477,-0.07342701,0.2218082,-43.09695,-24.50896,5.490788
10.523866654,-10.85011,1.488384,-0.977316,1.020199,-0.102853,0.1842641,-43.09695,-24.50896,5.490788
10.533773899,-6.576384,0.6146045,-2.204574,1.013097,-0.09087677,0.1733659,-42.71162,-25.25655,5.876617
10.543681145,-5.08987,0.4398486,-2.511389,1.014722,-0.1132151,0.1626386,-42.71162,-25.25655,5.876617
10.55358839,-3.479481,0.2068408,-2.818203,0.9923064,-0.1339449,0.1459022,-42.71162,-25.25655,5.876617
10.563495636,-1.559402,-0.3174269,-2.081848,0.9809591,-0.1312115,0.1393032,-42.71162,-25.25655,5.876617
10.573402882,-1.62134,-0.4921828,-1.161405,0.9826996,-0.1127625,0.1398901,-42.71162,-25.25655,5.876617
10.583310127,-0.5064548,-1.30771,-0.915953,0.9723203,-0.09929036,0.1448775,-42.71162,-25.25655,5.876617
10.593217373,-0.5683928,-1.191206,-0.7932273,0.9839929,-0.08502956,0.155428,-42.713,-25.25812,5.49115
10.605601311,-1.807154,-1.424214,-0.5477756,0.958189,-0.05822752,0.1500833,-42.713,-25.25812,5.49115
10.615508556,-3.974986,-2.064986,-0.4864127,0.9635884,-0.06741765,0.1413293,-42.713,-25.25812,5.49115
10.625416279,-6.70026,-2.880513,-0.1182353,0.9586255,-0.07776093,0.1221,-42.713,-25.25812,5.49115
10.635323524,-7.319641,-4.103804,-0.1795982,0.9517387,-0.08664866,0.1076997,-42.34844,-24.5089,5.486897
10.64523077,-7.877083,-4.56982,0.3113051,0.9540583,-0.08741051,0.1422446,-42.34844,-24.5089,5.486897
10.655138016,-7.877083,-3.404781,0.4953938,0.9795338,-0.08145215,0.2015883,-42.34844,-24.5089,5.486897
10.665045261,-7.381578,-0.8416945,0.6794825,1.008888,-0.08180358,0.2502906,-42.34844,-24.5089,5.486897
10.674952507,-6.70026,1.779644,0.2499422,1.012843,-0.06856112,0.2700287,-42.34844,-24.5089,5.486897
10.684859753,-6.762198,3.585454,0.1885793,1.02623,-0.08488522,0.2688358,-41.97418,-24.50887,5.484949
10.694766998,-7.071888,5.624273,0.4953938,1.040558,-0.09780107,0.2681371,-41.97418,-24.50887,5.484949
10.704674244,-6.328632,6.731061,0.6181196,1.036395,-0.08871247,0.2543116,-41.97418,-24.50887,5.484949
10.714581966,-5.771189,8.070855,0.4953938,1.037926,-0.09451432,0.2537786,-41.97418,-24.50887,5.484949
10.724488258,-4.965994,9.002886,0.4340309,1.040821,-0.1135224,0.2276967,-41.97418,-24.50887,5.484949
10.734395504,-3.85111,9.760161,0.8022084,1.030578,-0.1238815,0.2181192,-42.70815,-25.63272,5.492304
10.74430275,-1.992968,9.934917,1.599926,1.027213,-0.1282846,0.2186012,-42.70815,-25.63272,5.492304
10.754210472,0.05098768,10.86695,1.968104,1.039182,-0.1367963,0.231398,-42.70815,-25.63272,5.492304
10.764117718,2.776262,11.97374,2.397644,1.048984,-0.1288571,0.2428841,-42.70815,-25.63272,5.492304
10.774024963,4.820218,13.66304,2.643095,1.050911,-0.1234822,0.2462632,-42.70815,-25.63272,5.492304
10.783932209,6.926111,15.35235,3.011273,1.042004,-0.1265742,0.2324004,-43.09349,-24.88512,5.106474
10.793839455,8.536501,16.69214,3.318088,1.027628,-0.1146585,0.227331,-43.09349,-24.88512,5.106474
10.8037467,9.52751,18.03194,3.256725,1.011269,-0.1032697,0.2189153,-43.09349,-24.88512,5.106474
10.813653946,9.961076,18.96397,3.256725,1.002771,-0.1029824,0.2012299,-43.09349,-24.88512,5.106474
10.823561192,9.899137,18.96397,2.888547,0.9909416,-0.1119589,0.181593,-43.09349,-24.88512,5.106474
10.833468914,10.58046,18.3232,2.888547,0.9874288,-0.1159511,0.1681545,-42.72061,-24.88666,4.719061
10.84337616,11.32371,18.14845,2.827184,0.986549,-0.1159123,0.1777661,-42.72061,-24.88666,4.719061
10.853283405,12.37666,17.56593,2.643095,0.9938868,-0.0997211,0.1970124,-42.72061,-24.88666,4.719061
10.863190651,12.99604,17.33292,2.152192,0.9905875,-0.09189483,0.218222,-42.72061,-24.88666,4.719061
10.875574589,13.11992,17.33292,1.906741,1.002327,-0.08491611,0.2268028,-42.72061,-24.88666,4.719061
10.885481834,12.00503,17.68243,1.784015,1.006068,-0.08007821,0.2157568,-42.72683,-24.51364,4.332439
10.89538908,10.58046,16.69214,1.109023,0.9958604,-0.07017952,0.1856671,-42.72683,-24.51364,4.332439
10.905296326,9.775262,15.87662,0.7408454,0.986966,-0.07472841,0.1713144,-42.72683,-24.51364,4.332439
10.915203571,9.775262,14.42032,0.6181196,0.9831085,-0.07182236,0.1800122,-42.72683,-24.51364,4.332439
10.925110817,9.341695,13.48829,0.8022084,0.9885279,-0.06783137,0.1886316,-42.72683,-24.51364,4.332439
10.935018539,9.279757,13.31353,0.5567567,0.9901276,-0.07896338,0.1885426,-42.72959,-24.51677,3.561503
10.944925785,9.52751,13.19703,0.004490556,0.9941672,-0.08226249,0.1971261,-42.72959,-24.51677,3.561503
10.954833031,10.20883,12.498,-0.2409611,0.984266,-0.06830201,0.2016321,-42.72959,-24.51677,3.561503
10.964739323,9.713324,12.03199,-0.3636869,0.9861507,-0.05368043,0.2117954,-42.72959,-24.51677,3.561503
10.974647045,8.84619,11.04171,-0.915953,0.9844899,-0.03331188,0.2167481,-42.72959,-24.51677,3.561503
10.984554291,6.926111,10.40093,-1.222768,0.9884654,-0.03371751,0.2224705,-42.35533,-24.51674,3.559557
10.994461536,5.253784,9.643658,-1.345493,0.9791405,-0.03531529,0.2172643,-42.35533,-24.51674,3.559557
11.004368782,3.581457,9.294147,-1.222768,0.9815772,-0.03382546,0.2182121,-42.35533,-24.51674,3.559557
11.014276028,2.280757,9.352398,-1.406856,0.9901096,-0.04238735,0.2295999,-42.35533,-24.51674,3.559557
11.024183273,1.041996,9.294147,-1.406856,0.9866827,-0.04779825,0.2228733,-42.35533,-24.51674,3.559557
11.034090519,-0.1967645,9.002886,-1.89776,0.9818115,-0.06004504,0.2103527,-42.3424,-25.64236,3.113306
11.043997765,-0.1967645,8.595122,-1.590945,0.975227,-0.07609255,0.2170289,-42.3424,-25.64236,3.113306
11.05390501,-0.01095037,8.595122,-1.529582,0.9860318,-0.07642081,0.2212482,-42.3424,-25.64236,3.113306
11.063812733,-0.4445167,8.478619,-1.652308,0.9936225,-0.09131753,0.2287613,-42.3424,-25.64236,3.113306
11.073719978,-0.1348265,7.954351,-1.529582,0.9852509,-0.09828176,0.2148677,-42.3424,-25.64236,3.113306
11.083627224,0.7323062,6.964068,-1.836397,0.9686145,-0.1009351,0.2106825,-42.73743,-24.14558,2.725169
11.09353447,2.094944,6.323297,-1.775034,0.9677805,-0.09648222,0.2299262,-42.73743,-24.14558,2.725169
11.103441715,2.8382,5.915533,-1.590945,0.9889155,-0.0834789,0.2557459,-42.73743,-24.14558,2.725169
11.113348961,3.395642,6.148541,-1.590945,0.9806516,-0.07965539,0.2649708,-42.73743,-24.14558,2.725169
11.123256207,3.085952,5.915533,-1.713671,0.9835771,-0.07279363,0.2721918,-42.73743,-24.14558,2.725169
11.133163452,2.900138,6.672809,-1.590945,1.000597,-0.07165227,0.2643595,-42.3597,-24.52171,2.338909
11.14554739,2.21882,6.672809,-2.020485,0.9870834,-0.06856536,0.2376162,-42.3597,-24.52171,2.338909
11.155455112,2.21882,5.915533,-2.143211,0.9616482,-0.07181536,0.2330282,-42.3597,-24.52171,2.338909
11.165362358,2.8382,5.158257,-1.652308,0.9643708,-0.08724996,0.2420231,-42.3597,-24.52171,2.338909
11.175269604,3.271766,5.041754,-1.468219,0.9893955,-0.08396526,0.2542977,-42.3597,-24.52171,2.338909
11.185176849,4.572465,5.391265,-1.529582,0.9860901,-0.08882513,0.2600578,-42.73258,-24.52017,2.726323
11.195084095,6.058979,5.274762,-1.775034,0.9706971,-0.1054744,0.265371,-42.73258,-24.52017,2.726323
11.204991341,6.678359,4.92525,-1.590945,0.9671022,-0.09146044,0.2650174,-42.73258,-24.52017,2.726323
11.214898586,7.111926,4.517486,-1.28413,0.9756141,-0.06272033,0.2704119,-42.73258,-24.52017,2.726323
11.224805832,6.864173,4.05147,-1.100042,0.9756826,-0.05731881,0.2834115,-42.73258,-24.52017,2.726323
11.234712601,5.439598,4.109723,-1.406856,1.002246,-0.07446637,0.2787302,-43.10959,-24.52334,1.957335
11.244619846,3.643394,4.750494,-1.222768,0.9780573,-0.0914711,0.2365867,-43.10959,-24.52334,1.957335
11.254527092,3.024014,3.585454,-0.7318643,0.966662,-0.08388465,0.2309807,-43.10959,-24.52334,1.957335
11.264434338,3.705333,2.769927,-0.3636869,0.9630365,-0.07183791,0.2253326,-43.10959,-24.52334,1.957335
11.274341583,4.076961,2.245659,-0.6091385,0.9725933,-0.07646091,0.2458603,-43.10959,-24.52334,1.957335
11.284249306,4.634403,2.012651,-0.6091385,0.9745327,-0.06766448,0.2545438,-42.35485,-24.89631,2.340063
11.294156551,4.262775,2.012651,-0.8545902,0.9760945,-0.07149912,0.2593054,-42.35485,-24.89631,2.340063
11.304063797,3.581457,2.012651,-0.8545902,0.9795042,-0.06999969,0.259764,-42.35485,-24.89631,2.340063
11.313971043,3.643394,2.245659,-1.100042,0.9813798,-0.0612364,0.2622058,-42.35485,-24.89631,2.340063
11.323878288,3.209828,3.177691,-1.345493,0.967393,-0.04009847,0.2581546,-42.35485,-24.89631,2.340063
11.333785534,2.404634,3.061187,-1.775034,0.9638627,-0.02653875,0.2635593,-42.37077,-23.77409,1.951134
11.34369278,1.351687,2.769927,-2.204574,0.9602015,-0.04792077,0.2629706,-42.37077,-23.77409,1.951134
11.353600025,0.8561823,2.478667,-2.3273,0.97516,-0.06563516,0.2703967,-42.37077,-23.77409,1.951134
11.363507271,0.5464921,2.070904,-2.204574,0.9874141,-0.06449082,0.2746125,-42.37077,-23.77409,1.951134
11.373414993,0.422616,2.420415,-2.143211,0.9944305,-0.03871081,0.273759,-42.37077,-23.77409,1.951134
11.383322239,-0.4445167,2.536919,-2.204574,0.9933414,-0.0314638,0.2714165,-41.98059,-24.89628,2.338117
11.393229485,-1.497464,2.769927,-2.204574,0.9946147,-0.02227784,0.2633033,-41.98059,-24.89628,2.338117
11.40313673,-2.612349,2.711675,-2.511389,0.9920293,-0.04359675,0.2723081,-41.98059,-24.89628,2.338117
11.415520668,-3.169791,3.294195,-2.143211,0.9892177,-0.05381384,0.2722661,-41.98059,-24.89628,2.338117
11.425427914,-3.727233,3.643707,-1.713671,0.9844274,-0.05675019,0.2785329,-41.98059,-24.89628,2.338117
11.435335159,-4.346614,3.643707,-1.406856,0.9839248,-0.06261709,0.2703358,-41.97712,-25.27244,1.953803
11.445242405,-4.284676,3.818463,-1.222768,0.9884456,-0.06445066,0.2798849,-41.97712,-25.27244,1.953803
11.455149651,-4.098862,3.934967,-1.222768,0.9826602,-0.07131063,0.2798927,-41.97712,-25.27244,1.953803
11.465056896,-3.169791,4.226226,-0.977316,0.9852319,-0.07657986,0.2860759,-41.97712,-25.27244,1.953803
11.474964619,-2.116844,4.866998,-0.8545902,0.978444,-0.08053813,0.2870726,-41.97712,-25.27244,1.953803
11.484871864,-1.745216,5.566021,-0.977316,0.9808844,-0.08099766,0.2860866,-42.36245,-24.52485,1.567973
11.49477911,-1.745216,5.041754,-0.4864127,0.9710185,-0.07823838,0.2809145,-42.36245,-24.52485,1.567973
11.504686356,-1.869092,5.21651,-0.1182353,0.9805108,-0.08240715,0.2956839,-42.36245,-24.52485,1.567973
11.514593601,-1.93103,5.333014,0.06585346,0.9744846,-0.08353877,0.2789265,-42.36245,-24.52485,1.567973
11.524500847,-1.807154,4.92525,0.1885793,0.9695874,-0.0816527,0.2804249,-42.36245,-24.52485,1.567973
11.534408092,-1.311649,4.459234,0.3113051,0.9779347,-0.08006705,0.28564,-41.98335,-24.89941,1.567181
11.544315338,-0.8780831,5.158257,0.6181196,0.9848797,-0.07358801,0.3029046,-41.98335,-24.89941,1.567181
11.554222584,-0.9400212,5.50777,0.7408454,0.9849411,-0.07501945,0.3072159,-41.98335,-24.89941,1.567181
11.564130306,-1.373587,6.032037,1.04766,0.9814649,-0.08289507,0.2927909,-41.98335,-24.89941,1.567181
11.574036598,-1.125835,6.381549,0.8635712,0.9732072,-0.0878488,0.2923541,-41.98335,-24.89941,1.567181
11.583943844,-0.6922689,6.323297,1.599926,0.9682095,-0.08455164,0.2857001,-42.73671,-24.52488,1.56992
11.593851566,-0.8161451,5.915533,1.722652,0.9725491,-0.08111364,0.2837622,-42.73671,-24.52488,1.56992
11.603758812,-0.5064548,5.857281,1.968104,0.9825143,-0.09260173,0.2883951,-42.73671,-24.52488,1.56992
11.613666057,0.05098768,5.682525,1.968104,0.9762157,-0.1048464,0.2797289,-42.73671,-24.52488,1.56992
11.623573303,1.289749,5.682525,2.336281,0.9736997,-0.1058896,0.2715825,-42.73671,-24.52488,1.56992
11.633480549,2.404634,5.624273,2.765821,0.9745834,-0.09470685,0.2754901,-42.36521,-24.52798,0.7970381
11.643387794,3.14789,5.857281,3.195362,0.9746155,-0.09078774,0.2831984,-42.36521,-24.52798,0.7970381
11.65329504,3.953085,5.857281,3.318088,0.969762,-0.08595213,0.2923986,-42.36521,-24.52798,0.7970381
11.663202286,4.634403,6.090289,3.256725,0.9836211,-0.08813218,0.3061805,-42.36521,-24.52798,0.7970381
11.673109531,4.634403,6.323297,3.502176,0.9869514,-0.08618616,0.2994404,-42.36521,-24.52798,0.7970381
11.685493469,4.510527,6.265045,3.747628,0.9725708,-0.06354133,0.3064465,-41.99096,-24.52796,0.7950916
11.695401192,3.457581,6.323297,3.870354,0.9776911,-0.05141332,0.2954363,-41.99096,-24.52796,0.7950916
11.705308437,2.900138,6.439801,3.931717,0.9723487,-0.05194962,0.2983631,-41.99096,-24.52796,0.7950916
11.715215683,1.785253,6.731061,4.115805,0.9743207,-0.05825821,0.2925409,-41.99096,-24.52796,0.7950916
