Time (s),Gyroscope X (deg/s),Gyroscope Y (deg/s),Gyroscope Z (deg/s),Accelerometer X (g),Accelerometer Y (g),Accelerometer Z (g),Magnetometer X (uT),Magnetometer Y (uT),Magnetometer Z (uT)
10.73806715,4.828408,9.73798600000003,-4.744893,1.053013,-0.1529555,-0.1146842,-23.37521,-19.47155,52.2693
10.748065948,5.013007,21.66781,-2.976741,1.06281,-0.1556864,-0.1156577,-23.37521,-19.47155,52.2693
10.758063793,4.766874,34.42857,-0.720822899999998,1.066255,-0.157584,-0.1180561,-23.37521,-19.47155,52.2693
10.768061638,5.566806,47.42674,1.96189,1.06587,-0.1628843,-0.1123112,-23.37521,-19.47155,52.2693
10.778060436,6.05907200000001,60.3655600000001,4.705575,1.055342,-0.1469861,-0.1046397,-21.85882,-20.22428,51.89748
10.788058281,4.889941,73.1263099999997,7.32731800000001,1.060891,-0.1307088,-0.09029628,-21.85882,-20.22428,51.89748
10.798057079,4.151542,86.8367099999997,9.52226500000001,1.061362,-0.07682046,-0.04388911,-21.85882,-20.22428,51.89748
10.808054924,2.120945,100.9032,10.13197,1.085325,-0.002632101,-0.007099621,-21.85882,-20.22428,51.89748
10.818053246,1.136414,116.6316,7.26634699999998,1.096105,0.09907783,0.0387987,-21.85882,-20.22428,51.89748
10.828051567,-4.46311,131.0542,4.827517,1.090985,0.08561062,0.01201083,-23.35074,-20.24915,50.27385
10.838049889,-12.64703,143.3402,5.98596099999998,1.105303,0.02284734,-0.02724121,-23.35074,-20.24915,50.27385
10.84804821,-19.66182,155.7448,7.44925899999998,1.11938,-0.0001953445,-0.02678123,-23.35074,-20.24915,50.27385
10.858046055,-24.83061,168.6836,9.09546899999999,1.161079,-0.01481634,-0.01536434,-23.35074,-20.24915,50.27385
10.868044376,-27.72267,181.8005,11.22945,1.199427,-0.05873462,-0.01206985,-23.35074,-20.24915,50.27385
10.878042698,-25.38441,193.9084,13.48536,1.235594,-0.1427274,-0.02886143,-26.34384,-19.91581,47.34706
10.888041019,-18.67729,204.4138,16.71681,1.275271,-0.2063686,-0.05954308,-26.34384,-19.91581,47.34706
10.898039341,-10.12417,214.4443,18.72885,1.348893,-0.2345871,-0.06301419,-26.34384,-19.91581,47.34706
10.908037662,-1.263382,225.2464,18.91176,1.427858,-0.2352155,-0.03683,-26.34384,-19.91581,47.34706
10.918035507,9.56646600000001,234.6241,17.38749,1.489551,-0.2246365,-0.02306157,-26.34384,-19.91581,47.34706
10.928034306,20.08865,242.696,15.61934,1.571645,-0.2364981,-0.009801494,-32.69133,-20.0083,42.01077
10.93803215,29.13403,249.759,14.27798,1.670687,-0.2683028,0.01779145,-32.69133,-20.0083,42.01077
10.948030949,42.79441,257.0593,14.0341,1.701091,-0.2526774,0.01342724,-32.69133,-20.0083,42.01077
10.958028793,48.57853,263.0539,13.97313,1.774776,-0.2050826,0.06353702,-32.69133,-20.0083,42.01077
10.968026638,49.31693,269.7014,12.38789,1.811073,-0.1916783,0.06921321,-32.69133,-20.0083,42.01077
10.978025436,51.71673,273.2625,11.5343,1.829723,-0.1992604,0.0500396,-37.93532,-18.59163,34.22369
10.988023281,53.87039,274.6276,12.20498,1.87086,-0.2093173,0.08347081,-37.93532,-18.59163,34.22369
10.998022079,54.11652,277.2985,10.19294,1.825292,-0.1441339,0.08305488,-37.93532,-18.59163,34.22369
11.008019924,49.50153,278.6042,7.57120099999999,1.86655,-0.1083738,0.1313099,-37.93532,-18.59163,34.22369
11.018017769,42.42521,280.5035,4.461692,1.835963,-0.1143147,0.1323219,-37.93532,-18.59163,34.22369
11.028016567,36.33342,280.088,3.730042,1.826334,-0.1458631,0.1572328,-45.78393,-17.5957,23.96817
11.038014412,29.01097,280.5035,3.303247,1.752379,-0.09876859,0.2061644,-45.78393,-17.5957,23.96817
11.048012733,17.75039,279.6132,3.48616,1.720045,-0.140265,0.2550462,-45.78393,-17.5957,23.96817
11.058011055,12.27393,278.2481,5.742078,1.642658,-0.1988431,0.1810169,-45.78393,-17.5957,23.96817
11.068009377,14.48913,275.1618,9.70517700000002,1.569658,-0.1764206,0.2400032,-45.78393,-17.5957,23.96817
11.078007698,14.98139,274.687,8.30284999999999,1.534382,-0.1393491,0.2783412,-49.07369,-16.19937,12.06743
11.08800602,13.01233,273.3219,7.63217200000002,1.521359,-0.1191696,0.3343521,-49.07369,-16.19937,12.06743
11.098003864,10.05873,271.0665,8.48576300000002,1.461053,-0.1250977,0.3478589,-49.07369,-16.19937,12.06743
11.108002663,11.41246,268.1582,11.47333,1.391508,-0.1586491,0.336503,-49.07369,-16.19937,12.06743
11.118000507,12.70466,266.5557,11.83915,1.33565,-0.167133,0.3796744,-49.07369,-16.19937,12.06743
11.127999306,16.58125,265.0125,12.87566,1.299766,-0.1510139,0.3601112,-50.16818,-15.16971,-0.1375494
11.13799715,24.02678,261.9262,13.97313,1.232618,-0.1562105,0.3621438,-50.16818,-15.16971,-0.1375494
11.147994995,29.9955,258.0089,15.13157,1.17437,-0.1166475,0.3507494,-50.16818,-15.16971,-0.1375494
11.157993794,29.2571,253.2608,14.09507,1.153991,-0.0678901,0.4125087,-50.16818,-15.16971,-0.1375494
11.167991638,28.21103,248.1564,15.37546,1.135438,-0.04012031,0.4072695,-50.16818,-15.16971,-0.1375494
11.177990437,28.94943,241.3309,19.09467,1.089196,-0.06871942,0.4087932,-49.75137,-14.88297,-11.55335
11.187988281,38.17942,235.8112,24.8869,0.9824969,0.2151859,0.3864131,-49.75137,-14.88297,-11.55335
11.197986126,4.520741,234.268,22.08224,0.8904949,0.3676101,0.461192,-49.75137,-14.88297,-11.55335
11.207984924,-36.89112,234.1493,16.04613,0.7341201,0.3641039,0.4160008,-49.75137,-14.88297,-11.55335
11.217982769,-63.16581,227.3238,13.97313,0.5934044,0.1743923,0.3272799,-49.75137,-14.88297,-11.55335
11.227981567,-69.7498700000002,216.6997,16.22905,0.5207546,-0.03208945,0.2767306,-45.27234,-14.93577,-21.7115
11.237979412,-73.3187899999998,205.6602,17.02167,0.4400677,-0.1214031,0.2496154,-45.27234,-14.93577,-21.7115
11.247977734,-60.0276200000001,188.0919,25.25272,0.4402786,-0.2382013,0.1773802,-45.27234,-14.93577,-21.7115
11.257976055,-52.0283,170.5829,28.05737,0.3219237,-0.2160549,0.1450376,-45.27234,-14.93577,-21.7115
11.267974377,-45.56731,152.065,29.15485,0.1943044,-0.167198,0.1308902,-40.40614,-13.06281,-29.42552
11.277972698,-38.12179,133.0129,27.9964,0.09522589,-0.1070165,0.1243474,-40.40614,-13.06281,-29.42552
11.28797102,-26.49201,113.664,24.64301,0.02968386,-0.06950279,0.06415139,-40.40614,-13.06281,-29.42552
11.297968865,-18.49269,96.03632,19.33856,0.0144666,-0.06343356,0.06991927,-40.40614,-13.06281,-29.42552
11.307967663,-12.46243,80.54536,14.27798,-0.004820874,-0.04898291,0.04458464,-40.40614,-13.06281,-29.42552
11.317965508,-2.55558,65.8259699999999,11.04653,-0.06764276,-0.05129686,0.0336875,-34.80038,-11.53025,-33.06844
11.327964306,2.305545,51.28465,8.36382100000002,-0.1103964,-0.05789828,0.04189953,-34.80038,-11.53025,-33.06844
11.337962151,7.35127000000003,37.15878,6.22984400000002,-0.1382043,-0.05747236,-0.01069547,-34.80038,-11.53025,-33.06844
11.347959995,8.88960099999997,24.69478,4.156838,-0.1351232,0.01136413,-0.03560452,-34.80038,-11.53025,-33.06844
11.357958794,4.090009,13.47719,0.7424754,-0.1184833,-0.04563162,-0.08682649,-34.80038,-11.53025,-33.06844
11.367956638,0.767214200000001,2.140883,-1.208589,-0.1161919,-0.09058248,-0.1184049,-31.82486,-10.00376,-35.11832
11.377955437,-3.047846,-9.373476,-2.001209,-0.1622503,-0.07758,-0.1379496,-31.82486,-10.00376,-35.11832
11.387953281,-5.263042,-21.36266,-3.098683,-0.1607237,-0.1345068,-0.2020668,-31.82486,-10.00376,-35.11832
11.397951126,-1.447982,-32.28349,-4.622952,-0.1631006,-0.1629919,-0.1766908,-31.82486,-10.00376,-35.11832
11.407949925,4.028476,-41.83922,-7.48857699999998,-0.1375932,-0.1451685,-0.1427609,-31.82486,-10.00376,-35.11832
11.417947769,6.36673800000001,-51.39495,-10.90294,-0.09648787,-0.1010628,-0.08493626,-30.70261,-9.991511,-34.65848
11.427946568,7.53587,-62.2564400000001,-13.03692,-0.04935349,-0.0665173,-0.02281244,-30.70261,-9.991511,-34.65848
11.437944412,6.36673800000001,-73.2959799999998,-14.19536,0.004025814,-0.05328688,0.0330845,-30.70261,-9.991511,-34.65848
11.447942734,5.99753899999999,-83.9794099999999,-15.65866,0.056626,-0.05016696,0.1009498,-30.70261,-9.991511,-34.65848
11.457941055,4.090009,-94.2473700000001,-16.39031,0.121231,-0.03756381,0.1702275,-30.70261,-9.991511,-34.65848
11.467939377,6.612871,-104.6934,-17.85361,0.2037695,-0.01968992,0.245694,-32.19093,-10.75367,-33.50454
11.477937698,10.12027,-115.4955,-19.98759,0.2334755,-0.01702671,0.3131207,-32.19093,-10.75367,-33.50454
11.48793602,11.2894,-128.0189,-22.97515,0.2657082,-0.01840193,0.4116516,-32.19093,-10.75367,-33.50454
11.497933865,7.78200200000001,-142.3228,-25.47495,0.354601,-0.02613452,0.5426284,-32.19093,-10.75367,-33.50454
11.507932663,3.843876,-156.4486,-26.75534,0.4465247,-0.06608991,0.6506366,-32.19093,-10.75367,-33.50454
11.517930508,12.2124,-166.2418,-27.2431,0.5466243,-0.1799277,0.6859061,-35.58586,-10.37084,-30.24208
11.527928829,22.30384,-173.0079,-27.6699,0.6460407,-0.1788248,0.7508188,-35.58586,-10.37084,-30.24208
11.537927151,26.3035,-179.5367,-27.79184,0.7215735,-0.125848,0.800924,-35.58586,-10.37084,-30.24208
11.547924996,23.28838,-188.3209,-26.75534,0.7511871,-0.09348814,0.8214428,-35.58586,-10.37084,-30.24208
11.557923794,19.16565,-198.7669,-24.7433,0.7484739,-0.1311479,0.8008785,-35.58586,-10.37084,-30.24208
11.567921639,14.67372,-209.0942,-22.18253,0.7908782,-0.18464,0.758225,-39.71911,-11.11073,-24.14108
11.577920437,10.551,-218.1158,-18.82914,0.8804829,-0.2325707,0.7963673,-39.71911,-11.11073,-24.14108
11.587918282,11.96626,-222.5672,-14.01245,0.9970346,-0.2120347,0.7707943,-39.71911,-11.11073,-24.14108
11.597916126,17.13505,-221.1427,-12.12236,1.050631,-0.237707,0.7702289,-39.71911,-11.11073,-24.14108
11.607914925,17.44272,-215.0294,-12.30527,1.062176,-0.2553447,0.7826563,-39.71911,-11.11073,-24.14108
11.617912769,23.47298,-209.3909,-13.2808,1.034321,-0.2004723,0.7324402,-44.97576,-12.22579,-16.43389
11.627911568,25.13437,-205.9485,-12.97595,1.024436,-0.1671596,0.730056,-44.97576,-12.22579,-16.43389
11.637909412,23.59604,-203.337,-12.48818,1.053286,-0.06980042,0.6864302,-44.97576,-12.22579,-16.43389
11.647907734,18.24265,-202.328,-12.97595,1.097073,-0.09237895,0.6734381,-44.97576,-12.22579,-16.43389
11.657906055,17.01199,-202.328,-12.67109,1.125912,-0.07229351,0.6288751,-44.97576,-12.22579,-16.43389
11.6679039,15.84286,-203.8712,-12.00041,1.184536,-0.08122258,0.5885748,-48.69039,-12.56135,-7.880659
11.677902698,14.55066,-206.9575,-9.98837900000002,1.266516,-0.08892445,0.5257404,-48.69039,-12.56135,-7.880659
11.687900543,8.33580199999998,-209.5097,-3.281595,1.24557,0.2245556,0.6290687,-48.69039,-12.56135,-7.880659
11.697898865,-2.678647,-209.4503,-5.110718,1.39198,0.08169546,0.5790783,-48.69039,-12.56135,-7.880659
11.707897186,-12.2163,-208.3226,-0.903735200000002,1.409989,0.03030458,0.5532171,-48.69039,-12.56135,-7.880659
11.717895508,-19.41569,-203.9899,1.535095,1.353307,0.0382904,0.5394351,-50.19463,-14.38829,2.309406
11.727893829,-32.33767,-198.2921,-1.025677,1.305503,0.01348124,0.48066,-50.19463,-14.38829,2.309406
11.737892151,-45.07505,-193.1284,-1.391501,1.336888,-0.07477775,0.4858923,-50.19463,-14.38829,2.309406
11.747889996,-43.41365,-187.5493,-1.818297,1.314475,-0.1282593,0.425166,-50.19463,-14.38829,2.309406
11.757888794,-35.96813,-181.9702,-2.123151,1.256408,-0.1768982,0.3865151,-50.19463,-14.38829,2.309406
11.767886639,-30.184,-174.4324,-2.671887,1.217278,-0.1703743,0.3344168,-50.96732,-15.07945,11.20894
11.777885437,-26.98427,-168.4378,-3.098683,1.222807,-0.128304,0.2999389,-50.96732,-15.07945,11.20894
11.787883282,-29.13794,-164.5799,-3.891303,1.252654,-0.08381384,0.2649394,-50.96732,-15.07945,11.20894
11.797881126,-35.78353,-162.3245,-5.29363,1.318115,-0.0928218,0.2542989,-50.96732,-15.07945,11.20894
11.807879925,-39.35246,-158.6447,-7.67149000000001,1.355869,-0.1059498,0.2250433,-49.48479,-15.7668,18.57716
11.817877769,-39.04479,-154.9648,-9.19575899999999,1.340438,-0.1408925,0.2102434,-49.48479,-15.7668,18.57716
11.827876568,-37.69106,-151.7598,-10.04935,1.323056,-0.1503031,0.17534,-49.48479,-15.7668,18.57716
11.837874412,-33.26067,-149.5044,-10.23226,1.30652,-0.1529201,0.137562,-49.48479,-15.7668,18.57716
11.847872257,-27.59961,-148.9109,-9.74449500000001,1.288227,-0.1921885,0.08113205,-49.48479,-15.7668,18.57716
11.857871056,-31.41467,-145.9433,-11.93944,1.240913,-0.05920423,0.1122877,-47.67873,-16.8387,25.17571
11.8678689,-36.76806,-144.9936,-14.86604,1.265733,-0.1355847,0.102214,-47.67873,-16.8387,25.17571
11.877867699,-37.38339,-143.3911,-16.45128,1.257234,-0.1761165,0.09888925,-47.67873,-16.8387,25.17571
11.887865543,-28.39954,-142.1447,-18.03652,1.247244,-0.1896624,0.0740242,-47.67873,-16.8387,25.17571
11.897863865,-19.29262,-140.7203,-18.7072,1.244609,-0.1797421,0.0486617,-47.67873,-16.8387,25.17571
11.907862186,-10.86257,-137.8714,-19.62176,1.227921,-0.1740222,0.01949619,-44.71964,-16.01082,30.48293
11.917860508,-4.586177,-135.2005,-19.98759,1.204407,-0.1421787,-0.007749859,-44.71964,-16.01082,30.48293
11.927858829,-0.894183000000003,-132.4109,-20.10953,1.197996,-0.1122033,-0.01061786,-44.71964,-16.01082,30.48293
11.937857151,-0.6480501,-129.562,-20.04856,1.176187,-0.09275883,-0.01584918,-44.71964,-16.01082,30.48293
11.947854996,-1.509515,-126.6537,-19.7437,1.164323,-0.1101898,-0.03640278,-44.71964,-16.01082,30.48293
11.957853794,-1.017249,-123.9829,-19.62176,1.162311,-0.1332311,-0.05410066,-41.31953,-18.2295,35.03514
11.967851639,1.936346,-121.1933,-19.01205,1.15123,-0.1404243,-0.07274394,-41.31953,-18.2295,35.03514
11.977850437,5.689873,-117.9883,-18.7072,1.151099,-0.1337246,-0.08375269,-41.31953,-18.2295,35.03514
11.987848282,8.88960099999997,-113.8336,-17.79264,1.152497,-0.1046326,-0.09381272,-41.31953,-18.2295,35.03514
11.99784708,9.56646600000001,-109.9757,-17.18293,1.14209,-0.06930742,-0.08758218,-41.31953,-18.2295,35.03514
12.007844925,8.028135,-106.2959,-16.39031,1.140723,-0.04844772,-0.08854233,-37.57584,-18.9245,39.51752
12.01784277,7.90506900000002,-102.438,-16.32934,1.114279,-0.04180828,-0.1023766,-37.57584,-18.9245,39.51752
12.027841568,8.397335,-98.6394400000003,-16.32934,1.096876,-0.04956843,-0.116223,-37.57584,-18.9245,39.51752
12.037839413,9.38186599999998,-93.8319000000002,-15.84157,1.079245,-0.04516261,-0.1276792,-37.57584,-18.9245,39.51752
12.047838211,8.397335,-88.4308300000002,-15.53672,1.067715,-0.02861494,-0.1530279,-37.57584,-18.9245,39.51752
12.057836056,6.18213799999999,-82.4955999999998,-15.10992,1.079812,-0.02472966,-0.1793717,-34.57658,-19.63492,42.83334
12.0678339,2.428612,-76.6790599999998,-14.07342,1.078898,-0.002604947,-0.2023475,-34.57658,-19.63492,42.83334
12.077832699,-4.770776,-71.0999499999999,-12.54915,1.066248,0.02247549,-0.1956318,-34.57658,-19.63492,42.83334
12.087830544,-14.18536,-66.23305,-10.84197,1.071543,0.02600802,-0.1927705,-34.57658,-19.63492,42.83334
12.097829342,-17.81582,-62.6125500000003,-8.76896300000003,1.070675,-0.03201163,-0.2118971,-34.57658,-19.63492,42.83334
12.107827187,-13.63156,-59.2294700000002,-6.87886999999998,1.059661,-0.06968717,-0.2692973,-32.32311,-20.35806,45.30509
12.117825508,-9.20116899999999,-54.00646,-4.135185,1.042688,-0.07458458,-0.2898452,-32.32311,-20.35806,45.30509
12.12782383,-12.7701,-48.66474,-1.452472,1.006506,-0.04159403,-0.2706476,-32.32311,-20.35806,45.30509
12.137822151,-19.66182,-43.97591,0.986358399999998,0.9822426,-0.02047703,-0.2471605,-32.32311,-20.35806,45.30509
12.147820473,-24.15374,-40.41476,2.75451,0.9532325,-0.05844136,-0.2442287,-32.32311,-20.35806,45.30509
12.157818794,-22.49235,-37.56585,3.791013,0.9294316,-0.1150361,-0.2704943,-29.69125,-21.08546,46.94112
12.167816639,-16.21596,-33.64859,3.973926,0.9099014,-0.139413,-0.2900756,-29.69125,-21.08546,46.94112
12.177814961,-10.9241,-29.13782,4.217809,0.8949617,-0.1221528,-0.283354,-29.69125,-21.08546,46.94112
12.187813282,-7.35517199999998,-24.62704,4.217809,0.8837374,-0.09506536,-0.2728127,-29.69125,-21.08546,46.94112
12.197811604,-4.64771,-20.65043,4.461692,0.8910038,-0.06668016,-0.2666112,-29.69125,-21.08546,46.94112
12.207809925,-3.109379,-16.85188,4.583633,0.8915654,-0.04486749,-0.2737964,-28.54709,-22.21101,47.79405
12.21780777,-3.232446,-12.99397,4.33975,0.8968046,-0.0384599,-0.2752429,-28.54709,-22.21101,47.79405
12.227806568,-4.893843,-8.95800999999999,3.973926,0.9006923,-0.03789715,-0.2752498,-28.54709,-22.21101,47.79405
12.237804413,-6.06297400000002,-5.040754,3.54713,0.9046515,-0.04126877,-0.2805202,-28.54709,-22.21101,47.79405
12.247803211,-6.001441,-1.538964,3.120335,0.8996215,-0.05887082,-0.2814641,-28.54709,-22.21101,47.79405
12.257801056,-4.46311,1.369302,2.815481,0.9130645,-0.07418168,-0.284355,-27.79144,-22.58247,48.18864
12.267798901,-2.370981,3.980806,2.69354,0.9263241,-0.07980803,-0.2905982,-27.79144,-22.58247,48.18864
12.277797699,0.0903486900000002,6.82971999999999,2.327715,0.9468998,-0.08576261,-0.2954183,-27.79144,-22.58247,48.18864
12.287795544,2.613211,9.14446299999999,2.144803,0.9737033,-0.08638478,-0.3150865,-27.79144,-22.58247,48.18864
12.297794342,4.336142,12.7056,1.96189,0.9960434,-0.08263393,-0.3251764,-27.79144,-22.58247,48.18864
12.307792187,5.689873,15.67322,1.839949,1.005092,-0.07193551,-0.3438595,-27.41501,-22.58292,47.80442
12.317790508,6.48980500000002,18.99695,1.778978,1.018775,-0.04852422,-0.3639895,-27.41501,-22.58292,47.80442
12.32778883,4.766874,22.38004,2.083832,1.026102,-0.02361397,-0.365923,-27.41501,-22.58292,47.80442
12.337786675,0.5210813,25.76312,2.510627,1.017216,-0.01747669,-0.3663877,-27.41501,-22.58292,47.80442
12.347785473,-4.278511,28.67139,3.730042,1.007298,-0.008501148,-0.3730728,-27.41501,-22.58292,47.80442
12.357783318,-8.46277000000003,31.2829,5.13237,0.9839174,-0.008954315,-0.3720748,-27.78778,-22.58955,47.35014
12.367782116,-11.53943,33.36023,6.53469799999998,0.9622247,-0.02155775,-0.3749051,-27.78778,-22.58955,47.35014
12.377779961,-13.3239,35.37821,7.99799599999998,0.9485388,-0.04508316,-0.367218,-27.78778,-22.58955,47.35014
12.387778282,-12.70856,37.39619,9.64420700000001,0.9305513,-0.04741301,-0.3705361,-27.78778,-22.58955,47.35014
12.397776604,-12.89316,39.35482,10.61974,0.9178101,-0.06952773,-0.3700296,-28.53976,-22.22517,46.11704
12.407774925,-10.67797,41.55086,11.5343,0.903482,-0.08557586,-0.3934507,-28.53976,-22.22517,46.11704
12.417773247,-8.03203799999998,42.32244,12.69274,0.9002649,-0.0693972,-0.3709562,-28.53976,-22.22517,46.11704
12.427771568,-6.43217400000002,43.21272,14.0341,0.9057617,-0.05087545,-0.3767135,-28.53976,-22.22517,46.11704
12.437769413,-7.66283799999999,43.68754,15.25352,0.9068355,-0.02980961,-0.3604492,-28.53976,-22.22517,46.11704
12.447768211,-9.508835,43.68754,16.35099,0.8907155,-0.027694,-0.359943,-30.41009,-22.24577,45.32914
12.457766056,-10.06263,43.80625,17.69235,0.8856842,-0.01891925,-0.3460578,-30.41009,-22.24577,45.32914
12.467764855,-11.78556,44.28107,18.97273,0.8791373,-0.007245632,-0.330735,-30.41009,-22.24577,45.32914
12.477762699,-14.55456,45.112,20.31409,0.8642207,0.009192217,-0.3077416,-30.41009,-22.24577,45.32914
12.487760544,-17.93889,45.70552,21.47253,0.8597608,0.01367497,-0.286199,-30.41009,-22.24577,45.32914
12.497759342,-20.76942,46.71451,22.44806,0.8437085,0.01250876,-0.2727706,-31.54468,-21.50385,44.09123
12.507757187,-23.23075,47.96091,22.93583,0.8298343,-0.000710323,-0.2536,-31.54468,-21.50385,44.09123
12.517755985,-25.63054,49.68213,23.54554,0.8406907,-0.007684067,-0.2426099,-31.54468,-21.50385,44.09123
12.52775383,-28.338,51.81882,23.54554,0.8726271,-0.02084275,-0.2096404,-31.54468,-21.50385,44.09123
12.537752628,-28.7072,54.54903,23.60651,0.9348539,-0.03830625,-0.1815084,-31.54468,-21.50385,44.09123
12.547750473,-26.55354,57.3979399999998,23.4236,0.9962513,-0.0635963,-0.1572015,-33.02676,-21.91289,42.01813
12.557748318,-22.73848,60.7810199999998,22.81389,1.040168,-0.1185417,-0.1496067,-33.02676,-21.91289,42.01813
12.567747116,-14.92376,65.1137399999999,21.5335,1.085895,-0.1662149,-0.1477599,-33.02676,-21.91289,42.01813
12.577744961,-4.64771,69.8025799999998,19.39953,1.134357,-0.2035152,-0.1334775,-33.02676,-21.91289,42.01813
12.587743759,6.612871,74.4914199999997,16.89973,1.178954,-0.216551,-0.1144088,-33.02676,-21.91289,42.01813
12.597741604,18.67338,78.7647899999997,13.48536,1.194286,-0.228287,-0.1024681,-35.27066,-21.57338,39.1614
12.607739926,29.68783,81.6137000000002,9.76614900000002,1.166692,-0.2381352,-0.1100747,-35.27066,-21.57338,39.1614
12.617738247,39.41008,83.9877900000001,6.59566799999998,1.133792,-0.2246534,-0.1057136,-35.27066,-21.57338,39.1614
12.627736568,44.94807,85.5309600000001,3.791013,1.092135,-0.2117999,-0.09798708,-35.27066,-21.57338,39.1614
12.63773489,47.28633,85.6496699999999,2.266744,1.082751,-0.2051997,-0.09988673,-35.27066,-21.57338,39.1614
12.647733211,44.39427,84.5219699999999,1.90092,1.108804,-0.1909426,-0.08509995,-37.15305,-20.84035,37.53094
12.657731056,37.93328,81.43565,2.632569,1.161338,-0.1860259,-0.08614996,-37.15305,-20.84035,37.53094
12.667729855,32.39529,76.4500400000002,4.034896,1.256903,-0.2146425,-0.07434478,-37.15305,-20.84035,37.53094
12.677727699,30.3647,68.6748900000001,6.22984400000002,1.319537,-0.1779015,-0.1242353,-37.15305,-20.84035,37.53094
12.687726498,26.8573,60.7216700000003,7.754113,1.380493,-0.07662836,-0.1281963,-37.15305,-20.84035,37.53094
12.697724342,8.82806800000001,52.94651,8.79061600000001,1.376408,0.01207884,-0.0904045,-39.43796,-18.59579,35.05107
12.707722187,-17.44662,42.5005,12.20498,1.301115,0.07706875,-0.1008186,-39.43796,-18.59579,35.05107
12.717720985,-44.09051,29.56168,16.04613,1.204176,0.04858369,-0.1365355,-39.43796,-18.59579,35.05107
12.72771883,-61.50442,16.14804,18.66788,1.078791,-0.07442553,-0.1913215,-39.43796,-18.59579,35.05107
12.737717628,-68.3961399999997,3.56534,21.28962,0.9178389,-0.1455593,-0.2355302,-39.43796,-18.59579,35.05107
12.747715473,-66.4886100000002,-8.66124800000001,22.75292,0.7715079,-0.190522,-0.2658924,-40.95318,-17.48014,33.35686
12.757714271,-54.2435,-20.47237,22.9968,0.6417931,-0.211669,-0.2785824,-40.95318,-17.48014,33.35686
12.767712116,-35.47586,-31.21515,22.93583,0.5249165,-0.1897293,-0.2836486,-40.95318,-17.48014,33.35686
12.777709961,-20.03102,-39.70254,22.32612,0.4215072,-0.1061853,-0.2767898,-40.95318,-17.48014,33.35686
12.787708759,-14.00076,-45.75648,20.67991,0.3660451,0.01921289,-0.2604538,-40.95318,-17.48014,33.35686
12.797706604,-16.03136,-49.55503,16.65584,0.3616168,0.1008391,-0.1992094,-41.69311,-17.86939,32.96632
12.807705402,-20.46175,-52.7007,11.5343,0.3950334,0.112405,-0.1758204,-41.69311,-17.86939,32.96632
12.817703247,-20.58482,-53.94711,6.10790299999999,0.4438397,0.0837716,-0.1179904,-41.69311,-17.86939,32.96632
12.827701569,-12.5855,-53.70969,-1.086647,0.4344572,0.06398189,-0.1361548,-41.69311,-17.86939,32.96632
12.83769989,-5.75530800000001,-55.0748,-6.81789900000001,0.4236213,-0.06201839,-0.2342116,-41.69311,-17.86939,32.96632
12.847697735,0.3364816,-54.83739,-10.72003,0.474657,-0.1336873,-0.2639538,-40.20736,-17.46743,34.20092
12.857696533,7.04360400000002,-52.22588,-14.3173,0.52975,-0.1092517,-0.2616633,-40.20736,-17.46743,34.20092
12.867694378,11.41246,-50.97948,-15.65866,0.5489146,-0.06546199,-0.2440006,-40.20736,-17.46743,34.20092
12.877692699,14.98139,-53.35358,-15.04895,0.5475396,-0.0456323,-0.3043039,-40.20736,-17.46743,34.20092
12.887691021,16.27359,-56.61796,-12.48818,0.6160583,-0.0370518,-0.3642476,-40.20736,-17.46743,34.20092
12.897689342,8.64346799999999,-56.67731,-10.96391,0.7239705,-0.04988403,-0.4065471,-37.96426,-17.44021,35.44312
12.907687664,-0.03271778,-56.3212,-11.14682,0.7748357,-0.08581942,-0.4075837,-37.96426,-17.44021,35.44312
12.917685986,-3.909311,-56.61796,-11.45168,0.7572027,-0.1320076,-0.3721264,-37.96426,-17.44021,35.44312
12.92768383,-4.46311,-57.8643600000002,-13.46371,0.7774508,-0.2230251,-0.3257164,-37.96426,-17.44021,35.44312
12.937682629,7.16667,-59.1107599999998,-13.89051,0.8664773,-0.2932864,-0.3368607,-36.08188,-18.17324,37.07358
12.947680473,24.39598,-60.4758600000001,-12.67109,0.9173558,-0.2518735,-0.3288243,-36.08188,-18.17324,37.07358
12.957679272,33.44136,-58.8733499999998,-12.854,0.8955103,-0.1263892,-0.3225971,-36.08188,-18.17324,37.07358
12.967677116,30.61083,-59.4075199999999,-14.92701,0.8666096,0.01163842,-0.3110964,-36.08188,-18.17324,37.07358
12.977675915,19.16565,-61.4255099999999,-18.82914,0.8724356,0.0375645,-0.3580137,-36.08188,-18.17324,37.07358
12.987673759,8.64346799999999,-64.2150700000003,-21.57282,0.8778541,0.03261819,-0.4322011,-33.48174,-17.37867,38.766
12.997671604,3.290077,-64.2744199999998,-24.31651,0.859608,-0.007497395,-0.4221089,-33.48174,-17.37867,38.766
13.007670403,4.213075,-62.0190300000001,-27.54796,0.8428372,-0.04714958,-0.3646403,-33.48174,-17.37867,38.766
13.017668247,13.81226,-59.70428,-28.58446,0.8355461,-0.02193255,-0.354584,-33.48174,-17.37867,38.766
13.027667046,16.76585,-57.4488899999997,-29.74291,0.7994207,-0.04614788,-0.4267798,-33.48174,-17.37867,38.766
13.03766489,26.48811,-56.3212,-31.2062,0.7738448,-0.1127773,-0.4836686,-31.61509,-17.35099,40.39241
13.047662735,47.71707,-65.75823,-29.62096,0.6393856,-0.2945186,-1.465904,-31.61509,-17.35099,40.39241
13.057661533,51.40906,-110.3912,-25.10913,0.7569318,-0.493139,-1.917355,-31.61509,-17.35099,40.39241
13.067659378,55.10106,-139.1771,-27.91378,1.377711,-0.1544297,-0.8699644,-31.61509,-17.35099,40.39241
13.077658176,72.6380199999999,-129.6807,-38.03493,1.817627,0.3431063,0.1351076,-31.61509,-17.35099,40.39241
13.087656021,49.13233,-102.4973,-38.03493,1.5002,0.4105043,0.3265954,-28.65146,-16.16672,42.85958
13.097654343,12.70466,-94.2473700000001,-30.41358,1.368258,0.08828899,0.1302136,-28.65146,-16.16672,42.85958
13.107652664,26.3035,-91.93262,-28.21864,1.447378,-0.4776133,-0.3344759,-28.65146,-16.16672,42.85958
13.117650986,58.9161100000002,-89.20242,-19.80467,1.296205,-0.2738017,-0.7286116,-28.65146,-16.16672,42.85958
13.127649307,46.60947,-88.9650000000003,-11.87847,1.087481,0.2971824,-1.073448,-28.65146,-16.16672,42.85958
13.137647629,-9.878035,-92.0513299999999,-8.829934,0.9390481,0.3753965,-0.6496696,-23.42365,-15.72629,45.3475
13.14764595,-34.12213,-88.6682400000002,-3.281595,0.7715074,-0.04207433,-0.5583407,-23.42365,-15.72629,45.3475
13.157644272,-31.23007,-85.8193300000003,6.35178600000003,0.8159908,-0.334577,-0.5444641,-23.42365,-15.72629,45.3475
13.167642117,-11.60097,-82.9704100000001,9.217411,1.084345,-0.3810973,-0.6320208,-23.42365,-15.72629,45.3475
13.177640915,15.71979,-74.4830200000002,5.0714,1.221544,-0.3712476,-0.701656,-23.42365,-15.72629,45.3475
13.18763876,37.50255,-69.4974299999998,3.303247,1.149262,0.04713019,-0.9189113,-18.94782,-14.92147,46.60231
13.197637558,16.45819,-64.0963599999998,-6.93983999999998,1.228407,0.3529102,-0.7052045,-18.94782,-14.92147,46.60231
13.207635403,-9.01656900000002,-57.21148,-14.07342,1.194931,0.06048746,-0.6734848,-18.94782,-14.92147,46.60231
13.217633247,1.505613,-57.15213,-14.25633,1.163308,-0.4377083,-0.7757167,-18.94782,-14.92147,46.60231
13.227632046,22.30384,-48.54604,-9.25672899999999,1.134084,-0.515931,-0.7641599,-18.94782,-14.92147,46.60231
13.23762989,34.11823,-46.05324,-3.281595,1.032491,-0.3200011,-0.6936824,-15.57853,-14.88962,47.40134
13.247628689,28.58023,-42.4921,0.620533899999998,0.9425251,-0.1491869,-0.7375986,-15.57853,-14.88962,47.40134
13.257626534,6.305205,-38.04067,3.669072,0.8250803,0.06050453,-0.6690115,-15.57853,-14.88962,47.40134
13.267625332,-12.70856,-35.1324,2.632569,0.702956,0.07653994,-0.670717,-15.57853,-14.88962,47.40134
13.277623177,-17.44662,-32.75831,0.0717969800000001,0.5809977,-0.02100543,-0.7116368,-15.57853,-14.88962,47.40134
13.287621021,-11.53943,-30.50292,-2.91577,0.4862136,-0.06071667,-0.7574047,-13.33991,-14.48858,47.8675
13.29761982,1.197947,-25.33926,-6.93983999999998,0.5020372,-0.101032,-0.8426085,-13.33991,-14.48858,47.8675
13.307617664,12.70466,-17.97957,-11.51265,0.5995238,-0.1040102,-0.9006853,-13.33991,-14.48858,47.8675
13.317616463,15.96592,-10.44182,-13.15886,0.7590194,-0.08557554,-0.8770393,-13.33991,-14.48858,47.8675
13.327614307,8.27426799999999,-3.141478,-12.18333,0.8702311,-0.1422816,-0.8355824,-13.33991,-14.48858,47.8675
13.337612629,1.751746,3.624692,-9.19575899999999,0.9704477,-0.2881278,-0.7936049,-11.53035,-14.47172,48.26794
13.347610951,1.013347,9.32251899999998,-4.318098,1.03258,-0.3008214,-0.7750455,-11.53035,-14.47172,48.26794
13.357609272,0.3980148,15.13905,-1.208589,1.037055,-0.2022668,-0.7947003,-11.53035,-14.47172,48.26794
13.367607594,-2.55558,20.71817,-0.4159691,0.9857401,-0.06567673,-0.838675,-11.53035,-14.47172,48.26794
13.377605438,-7.29363900000002,26.00053,-2.732858,0.9509634,0.02152581,-0.8458155,-11.53035,-14.47172,48.26794
13.387604237,-8.89350299999999,31.81707,-6.02527899999998,0.8850903,0.02592845,-0.8595805,-11.53821,-14.09136,48.26591
13.397602081,-5.324575,37.7523,-8.70799300000002,0.8297799,-0.01321252,-0.875267,-11.53821,-14.09136,48.26591
13.407600403,0.8287475,43.80625,-10.23226,0.784017,-0.04128551,-0.8703942,-11.53821,-14.09136,48.26591
13.417598724,5.81293900000002,50.03825,-10.47614,0.7753345,-0.04572526,-0.8588921,-11.53821,-14.09136,48.26591
13.427597046,8.15120200000001,56.74506,-9.07381699999998,0.7708755,-0.04122056,-0.8349567,-11.53821,-14.09136,48.26591
13.437595368,7.59740300000001,63.2738200000001,-7.06178199999999,0.7707382,-0.03317625,-0.8052868,-11.52866,-14.47499,47.88094
13.447593689,5.074541,69.4464599999999,-4.50101,0.7655535,-0.01609089,-0.7856606,-11.52866,-14.47499,47.88094
13.457591534,1.013347,75.0849399999999,-2.184121,0.7824534,-0.007298603,-0.7641564,-11.52866,-14.47499,47.88094
13.467590332,-3.232446,79.4770100000001,0.2547093,0.8135098,0.0004032771,-0.7331051,-11.52866,-14.47499,47.88094
13.477588177,-6.98597300000001,83.8690899999999,1.839949,0.8398557,-7.345853e-05,-0.6829004,-14.06831,-15.26527,46.64049
13.487586975,-9.57036899999999,87.1334699999998,2.022861,0.8617799,-0.02514518,-0.6556533,-14.06831,-15.26527,46.64049
13.49758482,-10.61643,89.6262700000001,2.083832,0.8895875,-0.05200056,-0.6236302,-14.06831,-15.26527,46.64049
13.507582665,-10.3703,92.1190699999998,2.022861,0.912967,-0.07646109,-0.5858573,-14.06831,-15.26527,46.64049
13.517581463,-12.0317,93.36547,1.90092,0.9907057,-0.08826744,-0.5041532,-14.06831,-15.26527,46.64049
13.527579308,-13.01623,93.4841799999998,2.571598,1.050026,-0.07963867,-0.4329509,-17.43563,-15.30093,45.38995
13.537578106,-13.20083,92.5345399999998,2.022861,1.036222,-0.07043289,-0.406129,-17.43563,-15.30093,45.38995
13.547575951,-12.52396,91.2287799999999,1.291212,0.9980804,-0.06343332,-0.4084572,-17.43563,-15.30093,45.38995
13.557574749,-13.01623,89.8636800000001,-0.2940276,0.9545089,-0.05263156,-0.408384,-17.43563,-15.30093,45.38995
13.567572594,-14.06229,88.3205199999999,-2.001209,0.9241739,-0.04586281,-0.3997185,-17.43563,-15.30093,45.38995
13.577570439,-14.06229,86.7773600000002,-3.403537,0.887848,-0.05706505,-0.3771592,-21.1583,-16.1072,43.30219
13.587569237,-12.70856,85.29355,-4.379068,0.8638156,-0.1008501,-0.3838061,-21.1583,-16.1072,43.30219
13.597567082,-9.07810300000001,83.69103,-5.171688,0.8629691,-0.1333152,-0.3718319,-21.1583,-16.1072,43.30219
13.60756588,-4.401577,82.2072199999998,-6.08625000000001,0.8787956,-0.1448089,-0.3345276,-21.1583,-16.1072,43.30219
13.617563724,0.5826145,79.7144200000001,-7.366636,0.8896033,-0.1486794,-0.3029594,-21.1583,-16.1072,43.30219
13.627562523,7.16667,75.9752299999999,-7.48857699999998,0.9038382,-0.127064,-0.2551322,-24.13177,-16.9073,41.2845
13.637560367,9.68953300000002,72.8889000000003,-6.81789900000001,0.9166371,-0.08058873,-0.195823,-24.13177,-16.9073,41.2845
13.647558689,9.32033300000002,68.3781199999997,-6.33013299999999,0.9234114,-0.02517942,-0.1561273,-24.13177,-16.9073,41.2845
13.657557011,9.38186599999998,63.0364100000001,-4.805864,0.9427949,0.006947653,-0.1389406,-24.13177,-16.9073,41.2845
13.667555332,4.151542,57.33858,-2.671887,0.9443486,0.05498663,-0.09684099,-24.13177,-16.9073,41.2845
13.677553654,-3.601645,51.4627,-1.452472,0.9419528,0.07951272,-0.06669284,-26.73191,-17.70187,39.59208
13.687551975,-9.26270200000001,43.15337,0.31568,0.9318651,0.09858533,-0.03174412,-26.73191,-17.70187,39.59208
13.69754982,-14.43149,34.78469,1.169271,0.9447402,0.1140925,-0.01119179,-26.73191,-17.70187,39.59208
13.707548618,-19.96948,26.83147,1.474125,0.9608136,0.08872975,-0.003077482,-26.73191,-17.70187,39.59208
13.717546463,-25.26134,17.80991,2.510627,0.9419124,0.03158888,0.006541703,-26.73191,-17.70187,39.59208
13.727545261,-27.59961,8.66964300000001,3.364218,0.9266906,-0.04018914,0.00180096,-28.96911,-18.10563,38.80342
13.737543106,-25.56901,-0.411269,3.54713,0.9411184,-0.1079798,-0.002992497,-28.96911,-18.10563,38.80342
13.747540951,-19.10802,-9.67023799999998,2.266744,0.9613448,-0.1732612,-0.01162532,-28.96911,-18.10563,38.80342
13.757539749,-10.30877,-18.8105,-0.1111153,0.963689,-0.220417,-0.0187959,-28.96911,-18.10563,38.80342
13.767537594,0.5826145,-27.71336,-2.549946,0.9543926,-0.2444513,-0.02308069,-28.96911,-18.10563,38.80342
13.777536392,13.07386,-36.55686,-3.220624,0.9768368,-0.2202844,-0.03269756,-30.45656,-18.50432,37.95582
13.787534237,19.22718,-45.63777,-2.06218,1.013323,-0.08740944,-0.03518826,-30.45656,-18.50432,37.95582
13.797533035,11.1048,-54.42192,-1.147618,1.04007,0.01971127,-0.016598,-30.45656,-18.50432,37.95582
13.80753088,-3.047846,-64.0370099999998,0.5595631,1.055661,0.09783574,-0.00946666,-30.45656,-18.50432,37.95582
13.817528725,-16.27749,-73.8895,1.474125,1.066822,0.07415739,-0.01905154,-30.45656,-18.50432,37.95582
13.827527523,-22.00008,-82.2581899999997,1.291212,1.140786,0.001698554,-0.02538331,-29.71074,-18.49162,38.79989
13.837525368,-16.83129,-89.43983,-0.659852100000001,1.197566,-0.03887067,-0.06758654,-29.71074,-18.49162,38.79989
13.847524166,-9.81650199999998,-95.0782999999997,-2.428004,1.234938,-0.05721124,-0.08152567,-29.71074,-18.49162,38.79989
13.857522011,-4.093911,-100.9542,-3.281595,1.308175,0.01338416,-0.06587851,-29.71074,-18.49162,38.79989
13.867520809,-5.263042,-108.1358,-1.635384,1.388235,0.03219758,-0.04161555,-29.71074,-18.49162,38.79989
13.877518654,-8.21663800000001,-112.0531,-1.26956,1.436237,-0.007358279,-0.06035351,-27.10612,-18.07087,41.26834
13.887516499,-3.847778,-114.3678,-4.440039,1.357509,-0.09784634,-0.1137935,-27.10612,-18.07087,41.26834
13.897515297,5.382206,-114.1898,-7.91537200000002,1.295833,-0.18713,-0.1256274,-27.10612,-18.07087,41.26834
13.907513142,19.22718,-108.4919,-12.67109,1.289367,-0.1790747,-0.0811106,-27.10612,-18.07087,41.26834
13.91751194,38.54862,-98.4613799999997,-16.51225,1.285345,-0.1202105,-0.06532574,-27.10612,-18.07087,41.26834
13.927509785,50.05533,-84.3948700000002,-18.40234,1.24615,-0.03030146,-0.03273739,-22.98681,-18.39959,43.75196
13.937508106,53.74733,-66.7672200000001,-19.13399,1.196805,0.1077653,0.02713509,-22.98681,-18.39959,43.75196
13.947506428,48.3324,-44.68813,-17.36584,1.186831,0.2260258,0.1209229,-22.98681,-18.39959,43.75196
13.957504749,31.16463,-20.82848,-12.73206,1.183326,0.3106956,0.1941294,-22.98681,-18.39959,43.75196
13.967503071,11.04326,2.55635,-6.81789900000001,1.168082,0.292612,0.2156965,-22.98681,-18.39959,43.75196
13.977501392,-8.89350299999999,25.82248,-0.2940276,1.16562,0.2419727,0.209971,-19.64844,-17.2125,46.22192
13.987499714,-25.07674,48.13897,5.315282,1.162916,0.1781908,0.2023349,-19.64844,-17.2125,46.22192
13.997498035,-35.78353,68.3187700000002,10.01003,1.153258,0.09522761,0.1846658,-19.64844,-17.2125,46.22192
14.00749588,-41.32152,86.8367099999997,13.36342,1.129981,0.03594154,0.1287282,-19.64844,-17.2125,46.22192
14.017494679,-43.96745,103.9895,15.4974,1.124168,0.006550805,0.0627024,-19.64844,-17.2125,46.22192
14.027492523,-45.13658,119.1244,17.20458,1.106758,-0.001415648,0.02636303,-18.93827,-15.3051,46.21734
14.037491322,-45.13658,132.7161,18.30205,1.102433,-0.005840438,-0.02292163,-18.93827,-15.3051,46.21734
14.047489166,-44.45971,146.1891,18.91176,1.090965,-0.01914451,-0.07123439,-18.93827,-15.3051,46.21734
14.057487011,-43.41365,158.7718,19.94827,1.072044,-0.0248471,-0.1224076,-18.93827,-15.3051,46.21734
14.067485809,-43.10598,169.2178,22.14321,1.060266,-0.02165284,-0.1726383,-21.93505,-14.96468,44.12905
14.077483654,-42.85985,177.7052,23.78942,1.055105,-0.006909934,-0.196562,-21.93505,-14.96468,44.12905
14.087482452,-44.02898,183.6404,24.33816,1.042219,0.002881389,-0.2668927,-21.93505,-14.96468,44.12905
14.097480297,-42.05992,188.2106,24.82593,1.031267,0.01381879,-0.3223913,-21.93505,-14.96468,44.12905
14.107479095,-42.73678,192.6026,25.37466,1.005543,0.03336919,-0.3606375,-21.93505,-14.96468,44.12905
14.11747694,-49.62851,196.8167,25.55757,1.016203,0.06284595,-0.3486993,-27.90528,-15.42435,40.02307
14.127474785,-57.9970199999999,199.7249,25.25272,1.045651,0.05187045,-0.3372619,-27.90528,-15.42435,40.02307
14.137473583,-61.19675,201.5055,24.58204,1.074419,-0.001803355,-0.3703201,-27.90528,-15.42435,40.02307
14.147471428,-59.0430900000001,203.9389,24.21622,1.085525,-0.04900539,-0.4014347,-27.90528,-15.42435,40.02307
14.157470226,-54.79729,205.1853,23.48457,1.07594,-0.08455539,-0.4420878,-27.90528,-15.42435,40.02307
14.167468071,-49.4439,200.1404,24.82593,1.053024,-0.1105929,-0.4764986,-35.76013,-14.78155,32.99459
14.177466869,-44.89045,191.653,26.53311,1.020419,-0.1148853,-0.5563629,-35.76013,-14.78155,32.99459
14.187464714,-46.05958,180.6135,29.03291,0.9942051,-0.09388141,-0.5410082,-35.76013,-14.78155,32.99459
14.197463036,-54.2435,170.8203,30.55718,1.056041,-0.06090837,-0.3640513,-35.76013,-14.78155,32.99459
14.207461357,-55.10496,158.7718,33.17892,1.086175,-0.03290918,-0.4492976,-35.76013,-14.78155,32.99459
14.217459679,-57.93549,142.0344,36.53231,0.9795772,-0.01306891,-0.4405025,-42.83655,-15.28453,24.75225
14.227458,-63.9042100000003,124.6442,37.20299,0.8815174,-0.00816457,-0.4891476,-42.83655,-15.28453,24.75225
14.237456322,-70.2421299999997,101.9716,38.66629,0.779198,-0.03512264,-0.5057124,-42.83655,-15.28453,24.75225
14.247454643,-72.6419299999997,73.8979000000001,39.70279,0.6586829,-0.1052469,-0.5270202,-42.83655,-15.28453,24.75225
14.257452488,-64.2118800000002,39.65158,38.48338,0.5704754,-0.260591,-0.5316123,-42.83655,-15.28453,24.75225
14.26745081,-37.87566,4.277568,28.24029,0.5439681,-0.4074587,-0.5927859,-48.04658,-15.75929,18.20081
14.277449131,14.30453,-30.38422,12.38789,0.6000064,-0.5129009,-0.6598572,-48.04658,-15.75929,18.20081
14.287447453,76.6376899999998,-64.2150700000003,-3.70839,0.6569661,-0.4358399,-0.8049847,-48.04658,-15.75929,18.20081
14.297445774,132.6329,-101.429,-14.86604,0.6531914,-0.3946912,-0.9729691,-48.04658,-15.75929,18.20081
14.307444096,157.5539,-133.3012,-17.48778,0.8514228,-0.4024367,-0.4430503,-48.04658,-15.75929,18.20081
14.31744194,163.8918,-106.474,-12.73206,1.461672,0.2077601,0.4511446,-50.25198,-15.0079,19.01904
14.327440739,179.8289,-99.1142600000003,-9.80546599999998,1.677158,0.4503308,-0.004419373,-50.25198,-15.0079,19.01904
14.337438583,144.2012,-101.9038,7.69314200000002,1.42072,0.6520256,-0.5084435,-50.25198,-15.0079,19.01904
14.347437382,66.9769700000002,-106.1772,7.937025,1.068518,1.014925,-0.2896922,-50.25198,-15.0079,19.01904
14.357435227,2.367078,-113.6556,5.498195,1.068961,0.6568539,-0.1771354,-50.25198,-15.0079,19.01904
14.367434025,-28.83027,-113.0621,9.46129399999998,1.146513,-0.02905145,-0.4766826,-49.66501,-11.15778,23.90588
14.37743187,-38.24486,-108.0171,13.30245,1.163449,-0.2296993,-0.4551245,-49.66501,-11.15778,23.90588
14.387429714,-41.87532,-101.0729,17.50943,1.089164,-0.4767375,-0.4204739,-49.66501,-11.15778,23.90588
14.397428513,-30.79933,-94.8408899999997,19.76535,0.9593731,-0.7030991,-0.502026,-49.66501,-11.15778,23.90588
14.407426357,-2.063314,-86.5315599999998,15.00963,0.969419,-0.5619064,-0.4413006,-49.66501,-11.15778,23.90588
14.417425156,23.04224,-78.4596300000001,7.63217200000002,1.058922,-0.1880628,-0.3525378,-48.18382,-11.11221,27.98052
14.427423,9.44340000000003,-72.99921,8.60770299999997,1.072959,0.1038418,-0.2928154,-48.18382,-11.11221,27.98052
14.437421799,-20.70788,-67.9542700000002,10.74168,1.084167,0.2090977,-0.2320829,-48.18382,-11.11221,27.98052
14.447419644,-35.96813,-62.19709,9.88808900000002,1.080033,0.01265961,-0.2889756,-48.18382,-11.11221,27.98052
14.457417488,-27.84574,-56.61796,8.42479100000002,1.02642,-0.2209604,-0.3194509,-48.18382,-11.11221,27.98052
14.467416287,-7.724371,-52.93811,7.205376,0.9966345,-0.3481481,-0.3471236,-46.36183,-9.172394,30.8223
14.477414131,16.27359,-49.9705,4.949458,1.007719,-0.2367265,-0.3026641,-46.36183,-9.172394,30.8223
14.48741293,20.82705,-46.52806,4.27878,1.024432,-0.06064148,-0.2137234,-46.36183,-9.172394,30.8223
14.497410774,1.013347,-43.32303,5.010429,1.032937,0.05931915,-0.1333683,-46.36183,-9.172394,30.8223
14.507409573,-25.19981,-41.18634,7.69314200000002,1.037686,0.03998848,-0.1319359,-46.36183,-9.172394,30.8223
14.517407417,-38.73712,-38.10002,9.09546899999999,1.020048,-0.1376858,-0.1801956,-45.63879,-8.385355,33.27482
14.527405739,-35.41433,-35.60722,8.85158600000001,0.9898676,-0.2440603,-0.2160088,-45.63879,-8.385355,33.27482
14.53740406,-24.76908,-34.89499,6.59566799999998,0.9677787,-0.2351279,-0.2011367,-45.63879,-8.385355,33.27482
14.547402382,-17.32355,-36.20074,4.705575,0.9825531,-0.1900801,-0.1427878,-45.63879,-8.385355,33.27482
14.557400704,-15.90829,-37.98132,4.827517,0.9806926,-0.142249,-0.1159966,-45.63879,-8.385355,33.27482
14.567399025,-18.61575,-41.3644,4.461692,0.9556305,-0.1559733,-0.07479184,-44.51404,-8.743108,34.9622
14.57739687,-17.44662,-45.57842,3.303247,0.9214857,-0.2319732,-0.07519132,-44.51404,-8.743108,34.9622
14.587395668,-11.90863,-48.78345,2.998394,0.9360299,-0.3069156,-0.1182692,-44.51404,-8.743108,34.9622
14.597393513,-4.770776,-51.03884,3.059364,0.9162348,-0.2651614,-0.1326028,-44.51404,-8.743108,34.9622
14.607392311,-6.18604100000003,-55.54962,2.449656,0.9204518,-0.1523002,-0.128332,-43.77161,-8.723863,36.58027
14.617390156,-9.44730199999998,-59.94169,1.230241,0.9463792,-0.1319345,-0.1360396,-43.77161,-8.723863,36.58027
14.627388477,-10.98563,-64.4524799999997,0.4985923,0.9497754,-0.1051099,-0.1327024,-43.77161,-8.723863,36.58027
14.637386799,-14.30843,-68.4884400000003,-0.4159691,1.00082,-0.07315468,-0.1495498,-43.77161,-8.723863,36.58027
14.647384643,-15.23143,-70.50642,-1.879267,1.037583,-0.08607516,-0.2070397,-43.77161,-8.723863,36.58027
14.657383442,-11.78556,-71.3373500000002,-2.428004,1.055598,-0.1131259,-0.2812434,-42.27013,-9.082617,37.81892
14.667381287,-6.92443900000002,-70.3877100000001,-2.367033,1.011481,-0.101093,-0.3577418,-42.27013,-9.082617,37.81892
14.677380085,-6.98597300000001,-69.5567799999999,-2.306063,0.9734113,-0.0731536,-0.4084117,-42.27013,-9.082617,37.81892
14.68737793,-11.17023,-67.6574999999998,-2.184121,0.9676332,-0.07733512,-0.4280221,-42.27013,-9.082617,37.81892
14.697376728,-16.09289,-65.58017,-1.086647,0.9638498,-0.08311835,-0.4146139,-42.27013,-9.082617,37.81892
14.707374573,-22.00008,-63.7402500000003,0.1327677,0.9635789,-0.09410298,-0.3930747,-40.40884,-9.044582,40.67084
14.717372417,-25.13828,-62.9093200000001,0.5595631,0.9747427,-0.1169093,-0.3605452,-40.40884,-9.044582,40.67084
14.727371216,-24.58448,-62.4938500000001,1.474125,0.9951319,-0.1381502,-0.3361678,-40.40884,-9.044582,40.67084
14.73736906,-22.24621,-61.8409700000001,2.022861,1.013537,-0.1325991,-0.3534301,-40.40884,-9.044582,40.67084
14.747367859,-20.09255,-62.4938500000001,2.510627,1.007162,-0.07889519,-0.3653972,-40.40884,-9.044582,40.67084
14.757365704,-21.69242,-63.7402500000003,1.90092,1.006815,-0.03403312,-0.3477008,-38.90317,-9.776609,42.75003
14.767364502,-23.66148,-64.9272999999997,0.864416900000002,0.997102,-0.06127106,-0.329491,-38.90317,-9.776609,42.75003
14.777362347,-21.13862,-67.6574999999998,-0.2940276,0.9848811,-0.1110654,-0.3280211,-38.90317,-9.776609,42.75003
14.787360191,-18.36962,-71.2780000000001,-0.903735200000002,0.9779063,-0.1021755,-0.2973824,-38.90317,-9.776609,42.75003
14.79735899,-18.00042,-76.2042500000001,-1.635384,0.9688894,-0.1141908,-0.2633847,-38.90317,-9.776609,42.75003
14.807356834,-17.20049,-81.8427199999998,-3.891303,1.003681,-0.1760714,-0.2505078,-36.65588,-10.12266,44.83275
14.817355633,-12.4009,-87.8966600000001,-5.90333699999997,1.063024,-0.2226441,-0.2639994,-36.65588,-10.12266,44.83275
14.827353477,-6.43217400000002,-93.7132,-8.03731400000003,1.08265,-0.2301454,-0.2764747,-36.65588,-10.12266,44.83275
14.837352276,-1.755648,-99.3516699999997,-9.378671,1.101353,-0.1886727,-0.2985325,-36.65588,-10.12266,44.83275
14.847350121,-4.093911,-105.8804,-9.62255399999997,1.12279,-0.08475672,-0.3000323,-36.65588,-10.12266,44.83275
14.857348442,-10.30877,-111.5189,-8.52507999999999,1.129381,-0.02044714,-0.2962318,-34.78503,-10.46825,47.29969
14.867346764,-18.67729,-117.4541,-7.244694,1.144631,0.02347923,-0.3082341,-34.78503,-10.46825,47.29969
14.877345085,-26.06128,-122.9739,-6.33013299999999,1.17321,0.03215136,-0.3250363,-34.78503,-10.46825,47.29969
14.887343407,-33.6914,-128.1969,-4.50101,1.213413,0.04436262,-0.3519098,-34.78503,-10.46825,47.29969
14.897341728,-42.55218,-133.4793,-4.257127,1.336862,0.00922179,-0.3698232,-34.78503,-10.46825,47.29969
14.907339573,-55.22803,-139.1771,-2.91577,1.527779,-0.008937523,-0.2710862,-30.65785,-11.17732,49.78535
14.917338371,-68.5192000000001,-145.4091,1.778978,1.701529,-0.02031261,-0.1373848,-30.65785,-11.17732,49.78535
14.927336216,-88.1483099999998,-150.0386,11.65624,1.789692,0.03491446,-0.08108075,-30.65785,-11.17732,49.78535
14.937335014,-113.0077,-154.2526,21.71642,1.864037,0.04764424,-0.01899875,-30.65785,-11.17732,49.78535
14.947332859,-135.8366,-154.312,32.26436,1.849607,0.06329871,-0.02950629,-30.65785,-11.17732,49.78535
14.957331657,-156.7579,-150.6321,41.04415,1.71335,0.0780777,-0.08478738,-25.77503,-12.25785,52.6656
14.967329502,-178.2945,-145.4091,45.86084,1.542012,-0.04018987,-0.26536,-25.77503,-12.25785,52.6656
14.977327347,-185.4939,-147.5458,45.12919,1.314323,-0.2766382,-0.6530274,-25.77503,-12.25785,52.6656
14.987326145,-188.0783,-159.2975,42.56842,1.091342,-0.4770417,-0.9885473,-25.77503,-12.25785,52.6656
14.99732399,-188.7551,-156.9235,33.72766,1.3168,-0.5176596,-0.8697646,-25.77503,-12.25785,52.6656
15.007322788,-175.7101,-137.9901,29.8865,1.298079,-0.2940373,-0.6606519,-21.19163,-16.40801,52.72127
15.017320633,-149.4354,-125.2887,31.16688,0.9924612,-0.3670915,-0.6553144,-21.19163,-16.40801,52.72127
15.027319431,-112.3309,-112.6466,35.19096,0.6828401,-0.3589208,-0.7394848,-21.19163,-16.40801,52.72127
15.037317276,-84.27171,-96.38405,36.10551,0.4820185,-0.2793251,-0.7941915,-21.19163,-16.40801,52.72127
15.047316074,-71.5343300000003,-80.2995600000001,39.94667,0.4479237,-0.1765677,-0.8022943,-21.19163,-16.40801,52.72127
15.057313919,-77.2569299999998,-50.68272,50.18976,0.5345832,-0.08932605,-0.58998,-18.41986,-23.24835,51.16473
15.067311764,-94.9169600000002,-21.54071,65.9811900000002,0.6314557,-0.07469206,-0.2096847,-18.41986,-23.24835,51.16473
15.077310562,-90.4250300000001,4.752387,79.6386400000002,0.7459607,-0.1482777,-0.05528527,-18.41986,-23.24835,51.16473
15.087308407,-57.3816899999997,26.05989,85.8576599999997,0.6039202,-0.1114395,-0.1301836,-18.41986,-23.24835,51.16473
15.097307205,-27.96881,43.15337,87.0161099999998,0.4710845,0.03275527,-0.1759324,-18.41986,-23.24835,51.16473
15.10730505,-11.72403,63.9860500000001,86.16251,0.4758225,0.142833,-0.2113837,-17.21584,-26.68055,49.12731
15.117303848,-4.709243,85.1748400000002,84.5162999999998,0.4895009,0.1661214,-0.2449139,-17.21584,-26.68055,49.12731
15.127301693,2.120945,106.3043,83.0530100000003,0.4954292,0.1354751,-0.2611879,-17.21584,-26.68055,49.12731
15.137299538,13.62766,125.5938,84.7601899999999,0.5321213,0.07523361,-0.2856437,-17.21584,-26.68055,49.12731
15.147298336,30.61083,145.1207,88.2964900000001,0.5503219,0.03853348,-0.3526666,-21.33398,-25.98891,44.57764
15.157296181,45.99414,164.2915,94.1496799999997,0.5622164,0.02740759,-0.3727847,-21.33398,-25.98891,44.57764
15.167294979,60.1467800000003,182.9875,99.3931699999999,0.610894,0.0545171,-0.4360486,-21.33398,-25.98891,44.57764
15.177292824,73.6840900000001,200.9713,103.5392,0.6553977,0.1232045,-0.4605512,-21.33398,-25.98891,44.57764
15.187291145,84.3293399999997,217.3526,106.9535,0.6801448,0.205357,-0.510866,-21.33398,-25.98891,44.57764
15.197289467,90.7903299999998,233.4964,107.3803,0.7208402,0.2954426,-0.5253174,-29.25906,-22.28909,39.20995
15.207287788,87.8982700000002,248.1564,101.893,0.7430316,0.3853514,-0.5191578,-29.25906,-22.28909,39.20995
15.21728611,68.1461000000001,258.3057,98.1737499999998,0.8476323,0.4975776,-0.5356407,-29.25906,-22.28909,39.20995
15.227284432,34.42589,266.9118,100.2468,0.9224111,0.6135344,-0.6109373,-29.25906,-22.28909,39.20995
15.237282753,1.44408,276.6456,104.8805,0.9430696,0.5480841,-0.7449577,-29.25906,-22.28909,39.20995
15.247281075,-27.415,287.0916,106.2829,0.9654253,0.3417716,-0.8229515,-37.23347,-15.20747,28.92198
15.257278919,-50.12077,294.8074,105.8561,0.9776837,0.1798785,-0.9105105,-37.23347,-15.20747,28.92198
15.267277718,-61.2582900000002,298.3092,103.966,0.9708694,0.1527188,-0.9430348,-37.23347,-15.20747,28.92198
15.277275562,-59.7199599999998,296.588,99.3931699999999,1.008512,0.171766,-0.9608127,-37.23347,-15.20747,28.92198
15.287274361,-57.07402,293.8578,92.8693,1.087135,0.1889923,-0.9475542,-37.23347,-15.20747,28.92198
15.297272205,-63.4119500000001,293.2643,85.3089199999999,1.206385,0.2226197,-0.9291062,-44.03583,-9.670444,14.90944
15.307271004,-77.2569299999998,290.4747,75.8584600000001,1.267838,0.2457187,-0.927305,-44.03583,-9.670444,14.90944
15.317268848,-90.7327000000001,283.2931,65.3105200000002,1.258763,0.2357372,-0.9363795,-44.03583,-9.670444,14.90944
15.327266693,-102.8548,270.4136,54.76257,1.209212,0.201723,-0.9353272,-44.03583,-9.670444,14.90944
15.337265492,-107.3467,251.3021,43.48298,1.168211,0.1803552,-0.8983999,-44.03583,-9.670444,14.90944
15.347263336,-106.9159,230.5288,30.86203,1.161108,0.1711716,-0.8246844,-45.17647,-6.421497,2.757123
15.357262135,-102.6086,206.9659,20.61894,1.099929,0.1350462,-0.7637893,-45.17647,-6.421497,2.757123
15.367259979,-93.3171,180.0199,12.14401,0.9539527,0.07341678,-0.7046541,-45.17647,-6.421497,2.757123
15.377258778,-83.7179100000002,147.9697,5.681107,0.7820234,0.01857691,-0.6440396,-45.17647,-6.421497,2.757123
15.387256622,-70.8574700000002,110.3996,1.96189,0.5703651,-0.0488684,-0.6005815,-45.17647,-6.421497,2.757123
15.397255421,-32.15306,68.8529399999997,6.65663900000001,0.4039028,0.122116,-0.6199569,-44.42261,-4.96364,-5.436966
15.407253265,-31.35313,32.88541,9.09546899999999,0.4631481,0.2899742,-0.5660244,-44.42261,-4.96364,-5.436966
15.41725111,-50.3669,-1.479612,8.36382100000002,0.67195,0.3827655,-0.4888829,-44.42261,-4.96364,-5.436966
15.427249909,-67.7192800000003,-31.51191,5.193341,0.8912262,0.1812904,-0.2518395,-44.42261,-4.96364,-5.436966
15.437247753,-46.61338,-55.37156,-4.927805,0.9197594,-0.09973448,-0.5418341,-44.42261,-4.96364,-5.436966
15.447246552,-5.201509,-79.9434400000003,-20.29244,0.8283082,-0.2863936,-0.4037966,-42.92078,-4.592737,-7.878883
15.457244396,30.11857,-73.7114499999998,-30.96232,1.289513,-0.3563267,0.4085181,-42.92078,-4.592737,-7.878883
15.467243195,87.9598000000001,-49.91114,-28.46252,1.566816,-0.1498339,0.4429176,-42.92078,-4.592737,-7.878883
15.477241039,119.7109,-54.95609,-19.07302,1.450049,-0.193513,0.1177006,-42.92078,-4.592737,-7.878883
15.487239361,113.8038,-61.6035600000001,-13.46371,1.086342,-0.1689939,-0.3458904,-42.92078,-4.592737,-7.878883
15.497237682,105.3122,-68.4884400000003,-19.92661,0.9352995,0.3496917,-0.3180033,-42.19774,-3.805697,-5.426367
15.507235527,82.2372100000002,-73.2366299999997,-21.32894,1.166677,0.4335426,-0.2576491,-42.19774,-3.805697,-5.426367
15.517234326,41.31761,-73.1772800000002,-14.68313,1.318475,0.3406786,-0.3253689,-42.19774,-3.805697,-5.426367
15.52723217,-8.03203799999998,-70.0316,-6.513045,1.219772,0.2791999,-0.2457374,-42.19774,-3.805697,-5.426367
15.537230969,-51.78217,-67.12334,3.120335,1.038358,-0.1537724,-0.2252095,-42.19774,-3.805697,-5.426367
15.547228813,-64.2734100000001,-66.2924000000001,7.754113,0.9680762,-0.4882346,-0.3532593,-41.8138,-4.916167,-2.127987
15.557227135,-39.78319,-64.9866499999998,2.449656,1.011408,-0.6955029,-0.4217178,-41.8138,-4.916167,-2.127987
15.567225456,1.567146,-64.0370099999998,-5.415571,1.046232,-0.5768617,-0.3830444,-41.8138,-4.916167,-2.127987
15.577223778,29.56477,-61.7816200000001,-10.41517,1.044399,-0.243755,-0.3003333,-41.8138,-4.916167,-2.127987
15.587222099,30.1801,-59.7636399999998,-11.08585,1.016858,0.05501899,-0.3027551,-41.8138,-4.916167,-2.127987
15.597220421,9.62799900000003,-56.55861,-10.04935,1.055559,0.1218234,-0.3081041,-42.58356,-4.517465,0.7024384
15.607218743,-13.26236,-50.2079,-6.75692799999998,1.088664,0.0442136,-0.3641352,-42.58356,-4.517465,0.7024384
15.617217064,-26.98427,-45.57842,-3.952273,1.018762,-0.07378027,-0.3625473,-42.58356,-4.517465,0.7024384
15.627214909,-27.96881,-41.48311,-4.927805,1.037167,-0.1700172,-0.2984254,-42.58356,-4.517465,0.7024384
15.637213707,-21.38475,-36.91298,-6.02527899999998,1.060887,-0.2395548,-0.3017989,-42.58356,-4.517465,0.7024384
15.647211552,-14.49303,-32.10543,-5.232659,0.9952182,-0.2193217,-0.285418,-41.85265,-4.110781,3.156983
15.65721035,-16.21596,-28.42559,-4.866835,0.9892122,-0.1328769,-0.2782511,-41.85265,-4.110781,3.156983
15.667208195,-19.90795,-24.21157,-5.3546,1.02946,-0.09671769,-0.290295,-41.85265,-4.110781,3.156983
15.677206993,-27.72267,-19.76014,-3.70839,1.014871,-0.07213518,-0.2807044,-41.85265,-4.110781,3.156983
15.687204838,-34.799,-16.25835,-1.818297,1.006543,-0.04350635,-0.2672971,-41.85265,-4.110781,3.156983
15.697202682,-42.05992,-14.06231,-1.147618,1.029087,-0.04958341,-0.236706,-41.47175,-4.485055,3.548793
15.707201481,-46.61338,-11.74757,-1.025677,1.016557,-0.1084632,-0.2184831,-41.47175,-4.485055,3.548793
15.717199325,-47.90557,-10.67923,-1.574414,0.9981133,-0.1898526,-0.2045513,-41.47175,-4.485055,3.548793
15.727198124,-44.39818,-10.26376,-1.940238,0.9801076,-0.242497,-0.183449,-41.47175,-4.485055,3.548793
15.737195969,-38.42945,-9.72959,-2.06218,0.972504,-0.2521292,-0.1575902,-41.0945,-4.852247,4.779108
15.747194767,-34.30673,-10.67923,-2.610917,0.972094,-0.2302524,-0.1556808,-41.0945,-4.852247,4.779108
15.757192612,-31.90693,-11.51016,-3.952273,0.9748439,-0.2209433,-0.1532951,-41.0945,-4.852247,4.779108
15.76719141,-30.7378,-11.86628,-5.232659,0.971883,-0.219115,-0.1595119,-41.0945,-4.852247,4.779108
15.777189255,-30.06093,-13.17203,-5.78139599999999,0.9752832,-0.2185751,-0.1609537,-41.0945,-4.852247,4.779108
15.787187099,-30.30707,-14.29972,-5.90333699999997,0.9906097,-0.2040659,-0.1485411,-41.45549,-5.611958,5.231885
15.797185898,-30.43013,-15.60548,-5.78139599999999,0.9861332,-0.1729181,-0.1337055,-41.45549,-5.611958,5.231885
15.807183742,-28.64567,-16.91123,-6.02527899999998,0.977054,-0.1822558,-0.1255515,-41.45549,-5.611958,5.231885
15.817182541,-24.70754,-18.21698,-5.78139599999999,0.9592367,-0.1939117,-0.1393961,-41.45549,-5.611958,5.231885
15.827180386,-23.35381,-21.3033,-6.695957,0.9787426,-0.2208092,-0.1470804,-41.45549,-5.611958,5.231885
15.837178707,-17.38509,-24.56768,-7.366636,0.989829,-0.2134536,-0.1107299,-41.46336,-5.231602,5.229857
15.847177029,-13.93923,-27.77271,-7.73246000000002,0.9633248,-0.2032778,-0.1097291,-41.46336,-5.231602,5.229857
15.85717535,-13.07776,-31.74932,-8.890904,0.9430105,-0.1850906,-0.09629827,-41.46336,-5.231602,5.229857
15.867173672,-12.89316,-36.55686,-9.92740700000002,0.9498302,-0.1585351,-0.07669538,-41.46336,-5.231602,5.229857
15.877171516,-13.93923,-41.48311,-10.17129,0.9738486,-0.1657085,-0.0628567,-41.46336,-5.231602,5.229857
15.887170315,-12.70856,-46.35,-11.08585,0.9882662,-0.1809869,-0.06431362,-40.71306,-5.592712,6.849955
15.897168159,-10.86257,-51.92912,-11.02488,0.9685379,-0.1689571,-0.08773255,-40.71306,-5.592712,6.849955
15.907166958,-10.7395,-56.73666,-11.20779,0.9618616,-0.1248903,-0.09012514,-40.71306,-5.592712,6.849955
15.917164803,-12.27783,-61.7816200000001,-11.20779,0.9586917,-0.08621795,-0.105444,-40.71306,-5.592712,6.849955
15.927163124,-14.43149,-68.3697400000001,-10.65906,0.9502185,-0.0497906,-0.08916704,-40.71306,-5.592712,6.849955
15.937161446,-19.23109,-75.6107299999999,-9.74449500000001,0.9840552,-0.008495045,-0.05717206,-41.08699,-5.96226,8.46171
15.947159767,-25.50747,-83.08912,-8.890904,1.022861,-0.02457401,-0.03952825,-41.08699,-5.96226,8.46171
15.957158089,-28.8918,-91.3984499999999,-8.22022599999998,1.050682,-0.07896207,-0.0424342,-41.08699,-5.96226,8.46171
15.96715641,-29.6302,-99.5890799999998,-7.54954800000001,1.068739,-0.1326852,-0.05776628,-41.08699,-5.96226,8.46171
15.977154732,-27.66114,-108.1358,-8.03731400000003,1.125131,-0.178682,-0.1081032,-41.08699,-5.96226,8.46171
15.987153053,-20.58482,-117.3948,-6.695957,1.211764,-0.09610765,-0.1398615,-39.96703,-6.310751,11.24559
15.997150898,-21.13862,-124.2797,-3.342566,1.291435,0.09675974,-0.2113579,-39.96703,-6.310751,11.24559
16.007149696,-36.52193,-129.0278,1.047329,1.421399,0.2843957,-0.2728905,-39.96703,-6.310751,11.24559
16.017147541,-64.3964800000001,-133.598,4.827517,1.534265,0.3713977,-0.3023028,-39.96703,-6.310751,11.24559
16.027146339,-93.1940299999999,-141.017,6.90052199999999,1.628861,0.3196186,-0.1646245,-39.96703,-6.310751,11.24559
16.069638729,-23.84608,-139.5332,-14.01245,1.34883,0.04630647,-0.3789466,-38.86256,-6.264177,15.76896
16.07713747,-18.98495,-133.0045,-15.29283,1.218365,0.1146701,-0.4854592,-38.86256,-6.264177,15.76896
16.087135315,-21.07708,-125.4667,-16.51225,0.9622334,0.07511812,-0.6429327,-37.37717,-6.591877,20.68413
16.097134113,-22.06161,-114.3678,-18.7072,0.7407141,0.006075872,-0.9114885,-37.37717,-6.591877,20.68413
16.107131958,-17.26202,-101.7851,-21.69477,0.6731036,-0.00146844,-0.9525263,-37.37717,-6.591877,20.68413
16.117130756,-14.30843,-77.2725900000003,-25.04816,0.8618605,0.05199238,-0.5106648,-37.37717,-6.591877,20.68413
16.127128601,-22.12315,-50.62337,-21.75574,0.8754603,0.1123471,-0.2642373,-37.37717,-6.591877,20.68413
16.137127399,-29.01487,-26.94178,-15.17089,0.7162924,0.1043571,-0.2094001,-35.50917,-7.29712,25.60411
16.147125244,-34.6144,-7.05873399999998,-9.74449500000001,0.5847148,0.1278868,-0.3273851,-35.50917,-7.29712,25.60411
16.157123089,-38.98325,16.20739,-11.14682,0.630753,0.1437528,-0.2331899,-35.50917,-7.29712,25.60411
16.167121887,-40.02932,38.22712,-14.80507,0.6993986,0.199881,-0.1955165,-35.50917,-7.29712,25.60411
16.177119732,-41.87532,56.92312,-18.58526,0.635274,0.1878435,-0.257138,-35.50917,-7.29712,25.60411
16.18711853,-42.30605,74.7881799999998,-21.99962,0.5758874,0.1312544,-0.3120561,-34.75887,-7.65823,27.22421
16.197116375,-40.89079,91.1694299999998,-25.84078,0.6190225,0.0653396,-0.3331717,-34.75887,-7.65823,27.22421
16.207115173,-31.90693,106.8978,-29.86485,0.6883526,0.03298295,-0.3016982,-34.75887,-7.65823,27.22421
16.217113018,-17.38509,119.7179,-34.80348,0.7208116,0.04196326,-0.3462647,-34.75887,-7.65823,27.22421
16.22711134,-0.03271778,132.3006,-43.64424,0.734715,0.02814126,-0.3467639,-34.75887,-7.65823,27.22421
16.237109661,17.62732,138.6513,-53.15568,0.7374782,0.009904575,-0.3807429,-35.8653,-8.370524,26.44558
16.247107506,38.05635,142.5092,-61.9354699999999,0.7791362,-0.03088542,-0.4674273,-35.8653,-8.370524,26.44558
16.257106304,63.2849799999999,144.4085,-69.73972,0.8018744,-0.1029881,-0.5894853,-35.8653,-8.370524,26.44558
16.267104149,94.6053900000001,145.4769,-78.7633999999999,0.8030923,-0.1441262,-0.6799277,-35.8653,-8.370524,26.44558
16.277102947,125.9258,144.9427,-88.2138600000003,0.839235,-0.09758108,-0.7163745,-38.80785,-10.32586,22.75696
16.287100792,152.5082,141.3815,-96.8717100000002,0.8450165,-0.04277917,-0.740806,-38.80785,-10.32586,22.75696
16.29709959,170.6605,136.3366,-105.7125,0.8129909,-0.02470143,-0.7670766,-38.80785,-10.32586,22.75696
16.307097435,183.2748,130.2233,-114.6142,0.7830728,-0.06677739,-0.7866352,-38.80785,-10.32586,22.75696
16.317095757,192.3202,122.3888,-123.7598,0.7837151,-0.1263118,-0.7622136,-38.80785,-10.32586,22.75696
16.327094078,202.3501,111.9428,-131.9909,0.8088927,-0.1959303,-0.777554,-41.39307,-11.5144,19.45406
16.3370924,214.226,100.1316,-140.2829,0.8275306,-0.2536514,-0.7531642,-41.39307,-11.5144,19.45406
16.347090721,230.7169,87.4302400000002,-146.7458,0.8226608,-0.28012,-0.7675062,-41.39307,-11.5144,19.45406
16.357089043,246.9001,75.2036400000001,-149.6724,0.8018345,-0.2091244,-0.7703596,-41.39307,-11.5144,19.45406
16.367087364,252.0689,63.3331700000002,-150.6479,0.8046464,-0.09838726,-0.7297142,-41.39307,-11.5144,19.45406
16.377085686,252.192,52.53104,-149.0017,0.8299094,-0.04097062,-0.6699509,-44.00304,-11.92479,18.21112
16.387083531,249.6076,42.67855,-142.4778,0.8384143,-0.1043644,-0.6594208,-44.00304,-11.92479,18.21112
16.397082329,249.6691,35.67497,-133.1493,0.8307924,-0.2435601,-0.6665502,-44.00304,-11.92479,18.21112
16.407080174,253.7303,29.85844,-124.9183,0.7725317,-0.3582416,-0.6467975,-44.00304,-11.92479,18.21112
16.417078972,261.9758,21.90522,-115.6507,0.7372523,-0.372566,-0.5960033,-44.00304,-11.92479,18.21112
16.427076817,262.0988,13.35848,-105.5296,0.7737704,-0.3179391,-0.5467877,-44.34383,-13.81903,19.44398
16.437075615,256.807,5.702025,-91.2623999999998,0.8116041,-0.2065295,-0.6143616,-44.34383,-13.81903,19.44398
16.44707346,230.5938,0.06354995,-72.7882600000001,0.8876987,0.07959028,-0.4183517,-44.34383,-13.81903,19.44398
16.457071781,181.9211,6.82971999999999,-51.08267,0.9957471,0.2202519,-0.2558604,-44.34383,-13.81903,19.44398
16.467070103,137.371,8.37288200000001,-26.6334,0.8924643,0.2674597,-0.3963939,-44.34383,-13.81903,19.44398
16.477067947,81.2526800000002,3.921454,-5.110718,0.7932845,0.3260144,-0.6862532,-44.33516,-14.56612,21.06055
16.487066746,17.93499,-3.675649,16.41196,0.876996,0.2259564,-0.7557669,-44.33516,-14.56612,21.06055
16.497064591,-24.03068,-13.40944,37.93464,0.9823729,-0.2470063,-0.7333357,-44.33516,-14.56612,21.06055
16.507063389,-19.96948,-11.56951,60.7986800000002,1.042862,-0.5592855,-0.6319026,-44.33516,-14.56612,21.06055
16.517061234,-16.03136,-1.657669,71.52953,0.9759083,-0.3625202,-0.4389704,-44.33516,-14.56612,21.06055
16.527060032,-25.93821,3.505987,63.23751,1.04085,-0.02914417,-0.3118682,-44.37814,-12.65726,21.88891
16.537057877,-33.38373,6.59230999999998,48.11676,1.095178,-0.1472152,-0.374626,-44.37814,-12.65726,21.88891
16.547055721,-17.56969,7.304539,38.05658,1.13048,-0.3147851,-0.3890016,-44.37814,-12.65726,21.88891
16.55705452,17.68885,8.78834800000002,34.09348,1.073052,-0.1899828,-0.4334413,-44.37814,-12.65726,21.88891
16.567052364,49.8092,10.39086,31.83756,0.9849508,0.08855423,-0.4984457,-44.37814,-12.65726,21.88891
16.577051163,68.8844999999998,11.4592,28.72805,0.9468606,0.3271657,-0.4678119,-44.78603,-11.13538,22.26502
16.587049008,66.3616299999997,13.00237,24.8869,0.9777578,0.5520067,-0.3918301,-44.78603,-11.13538,22.26502
16.597047806,49.37846,14.54553,23.36263,1.00261,0.423054,-0.3588184,-44.78603,-11.13538,22.26502
16.607045651,40.64075,15.85128,23.05777,0.9437852,0.1031043,-0.4127126,-44.78603,-11.13538,22.26502
16.617044449,43.04054,16.38545,22.75292,0.9320164,-0.02239145,-0.4006954,-44.78603,-11.13538,22.26502
16.627042293,41.07148,15.79193,20.31409,1.024004,-0.06651383,-0.3233151,-45.58717,-8.485055,21.47126
16.637040138,40.14848,15.49516,19.4605,1.059036,-0.1929717,-0.3051577,-45.58717,-8.485055,21.47126
16.647038937,38.54862,14.54553,18.91176,1.039309,-0.2314306,-0.2701773,-45.58717,-8.485055,21.47126
16.657036781,42.54827,12.82431,17.5704,1.027587,-0.2295474,-0.2514929,-45.58717,-8.485055,21.47126
16.66703558,48.57853,11.57791,16.29002,1.006552,-0.1217164,-0.2644055,-45.58717,-8.485055,21.47126
16.677033424,47.90167,9.73798600000003,13.97313,1.013532,-0.0006580418,-0.2730632,-45.95207,-8.872037,21.01901
16.687032223,45.99414,7.72000599999998,11.1075,1.052104,0.0472535,-0.2717071,-45.95207,-8.872037,21.01901
16.697030067,45.80954,6.117492,9.217411,1.047344,0.01498205,-0.2831763,-45.95207,-8.872037,21.01901
16.707028866,44.51734,4.989797,8.24187900000002,1.035837,0.005062188,-0.2802823,-45.95207,-8.872037,21.01901
16.71702671,42.05601,4.218216,7.51023000000002,1.025201,0.0004215534,-0.286484,-45.95207,-8.872037,21.01901
16.727025032,39.84081,3.56534,5.742078,0.9793611,-0.05106683,-0.3442985,-46.76931,-5.521122,20.60853
16.737023354,40.39462,3.862102,4.949458,0.9484502,-0.06655845,-0.3772624,-46.76931,-5.521122,20.60853
16.747021675,37.81022,4.336921,4.705575,0.9510773,0.001762136,-0.3514415,-46.76931,-5.521122,20.60853
16.757019997,33.19522,4.871092,3.242276,0.9616206,-0.01442875,-0.3380556,-46.76931,-5.521122,20.60853
16.767018318,31.34923,5.76137699999998,3.059364,0.9537671,-0.06388772,-0.3624365,-46.76931,-5.521122,20.60853
16.77701664,31.2877,6.65166300000002,3.912955,0.9343339,-0.06730136,-0.3748448,-46.3884,-5.895396,21.00034
16.787014961,31.34923,7.36389100000001,3.912955,0.9279212,-0.03658125,-0.349477,-46.3884,-5.895396,21.00034
16.797012806,26.79577,7.48259600000002,3.425189,0.9688316,-0.00879618,-0.3222766,-46.3884,-5.895396,21.00034
16.807011604,23.16531,8.13547199999999,3.608101,0.9966848,-0.03884704,-0.3208817,-46.3884,-5.895396,21.00034
16.817009449,21.01165,8.90705299999997,4.400721,0.9752807,-0.04145933,-0.347644,-45.65465,-5.12906,21.00185
16.82700777,20.33478,9.61928199999999,3.973926,0.9682949,-0.03291619,-0.3548126,-45.65465,-5.12906,21.00185
16.837006092,22.05771,10.39086,1.90092,0.9712306,-0.05963761,-0.3605538,-45.65465,-5.12906,21.00185
16.847004414,25.07284,11.2218,0.4985923,0.9724057,-0.09671265,-0.3787321,-45.65465,-5.12906,21.00185
16.857002735,27.65724,12.46819,0.4376215,0.9662125,-0.0519924,-0.363897,-45.65465,-5.12906,21.00185
16.867001057,24.08831,13.89265,0.681504599999997,0.9655994,0.006912853,-0.3509896,-46.44791,-2.859088,20.21011
16.876999378,18.98105,14.96099,0.3766508,0.976341,-0.02004379,-0.3462156,-46.44791,-2.859088,20.21011
16.886997223,17.13505,16.50415,0.4376215,0.9818353,-0.05366259,-0.3677524,-46.44791,-2.859088,20.21011
16.896996021,16.64279,18.22537,0.1327677,0.9891806,-0.05539544,-0.3605862,-46.44791,-2.859088,20.21011
16.906993866,17.38119,19.17501,-0.2330568,0.9794806,-0.03171016,-0.3533967,-46.44791,-2.859088,20.21011
16.916992664,17.62732,20.30271,-1.574414,0.9692134,-0.0300131,-0.358165,-46.42235,-4.003969,19.76469
16.926990509,17.13505,21.19299,-2.123151,0.9753902,-0.04728846,-0.3476427,-46.42235,-4.003969,19.76469
16.936989307,16.58125,22.49874,-2.184121,0.9801026,-0.03827734,-0.3289887,-46.42235,-4.003969,19.76469
16.946987152,15.10446,22.73615,-2.06218,0.9854155,-0.009317596,-0.3089052,-46.42235,-4.003969,19.76469
16.95698595,9.38186599999998,23.98255,-1.879267,0.975943,0.002206107,-0.3036273,-46.42235,-4.003969,19.76469
16.966983795,3.53621,24.87284,-1.025677,0.961054,-0.009216461,-0.2983341,-47.20776,-2.114353,18.97499
16.97698164,-0.586516899999998,25.64442,-0.720822899999998,0.9635527,-0.01259062,-0.3007304,-47.20776,-2.114353,18.97499
16.986980438,-3.109379,26.2973,-1.26956,0.980757,-0.04691486,-0.3184589,-47.20776,-2.114353,18.97499
16.996978283,-2.124848,26.23794,-1.757326,0.9846536,-0.0724875,-0.3069733,-47.20776,-2.114353,18.97499
17.006977081,-1.694115,26.23794,-2.123151,0.9866411,-0.04789674,-0.2792257,-47.20776,-2.114353,18.97499
17.016974926,-3.847778,25.82248,-2.91577,0.9919666,-0.04495827,-0.2352067,-47.9283,-3.271397,17.75001
17.026973724,-6.98597300000001,25.11025,-3.952273,0.9916695,-0.08086241,-0.2284969,-47.9283,-3.271397,17.75001
17.036971569,-9.324236,24.04191,-4.683922,0.9940361,-0.1288581,-0.22131,-47.9283,-3.271397,17.75001
17.046969414,-11.41637,22.91421,-6.33013299999999,0.9952396,-0.1665886,-0.2050308,-47.9283,-3.271397,17.75001
17.056968212,-13.01623,21.01493,-7.85440200000002,1.004516,-0.1929435,-0.1844615,-47.9283,-3.271397,17.75001
17.066966057,-14.49303,18.9376,-9.68352500000001,1.024604,-0.1981366,-0.1581735,-47.94036,-2.517768,16.90745
17.076964855,-14.80069,16.74156,-10.65906,1.044698,-0.1262273,-0.1496126,-47.94036,-2.517768,16.90745
17.0869627,-19.29262,15.25776,-11.26876,1.057463,-0.05363122,-0.1563536,-47.94036,-2.517768,16.90745
17.096961498,-24.89214,13.65524,-11.63459,1.05816,-0.01274134,-0.1501439,-47.94036,-2.517768,16.90745
17.106959343,-28.03034,11.3405,-10.29323,1.003529,-0.009990172,-0.1562709,-47.94036,-2.517768,16.90745
17.116958141,-28.39954,9.44122399999999,-9.56158399999997,0.9837949,-0.02377244,-0.1859046,-48.66875,-3.294456,15.68044
17.126955986,-24.15374,6.59230999999998,-8.098285,0.9978666,-0.02134544,-0.2165587,-48.66875,-3.294456,15.68044
17.136954308,-21.50782,3.149873,-6.20819099999998,0.9970972,-0.007049968,-0.2457541,-48.66875,-3.294456,15.68044
17.146952629,-19.47722,0.775778400000001,-5.598484,0.9905031,-0.01941213,-0.2548324,-48.66875,-3.294456,15.68044
17.156950951,-12.89316,-3.794354,-4.074214,0.9702012,-0.05521335,-0.2997739,-48.66875,-3.294456,15.68044
17.166949272,-3.601645,-7.236791,-3.891303,0.9921836,-0.08463641,-0.3232549,-49.03197,-3.684707,14.84118
17.176947594,4.151542,-8.72059999999997,-4.622952,0.9722211,-0.08552553,-0.324177,-49.03197,-3.684707,14.84118
17.186945915,9.68953300000002,-11.56951,-7.42760699999997,0.9365232,-0.05259118,-0.3121589,-49.03197,-3.684707,14.84118
17.19694376,14.85832,-17.02993,-13.09789,0.9077013,-0.1265027,-0.308261,-49.03197,-3.684707,14.84118
17.206942558,28.58023,-24.21157,-19.49982,0.8988178,-0.2779869,-0.3809501,-49.03197,-3.684707,14.84118
17.216940403,52.57819,-31.98673,-23.21903,0.9074546,-0.4552525,-0.494342,-48.27829,-4.052355,15.68727
17.226938725,81.6834099999999,-39.46513,-21.93865,0.8920619,-0.4415574,-0.5574908,-48.27829,-4.052355,15.68727
17.236937046,99.9587800000001,-45.22231,-17.06099,0.9157081,-0.2469364,-0.5288675,-48.27829,-4.052355,15.68727
17.246935368,95.5283900000002,-50.80143,-8.46410900000001,0.9161131,-0.06073819,-0.5207804,-48.27829,-4.052355,15.68727
17.256933689,70.4228300000001,-54.89674,2.510627,0.8885325,0.03318256,-0.4996991,-48.27829,-4.052355,15.68727
17.266932011,37.99482,-57.9237099999997,11.71721,0.8643554,0.07645813,-0.4446318,-47.52013,-4.793821,17.3094
17.276930332,9.812599,-59.94169,17.50943,0.8754171,0.05970914,-0.3872177,-47.52013,-4.793821,17.3094
17.286928654,-9.63190200000001,-60.35716,20.43603,0.9056169,0.008993389,-0.3657214,-47.52013,-4.793821,17.3094
17.296926975,-17.38509,-56.97408,21.59447,0.9244892,-0.03580439,-0.3633499,-47.52013,-4.793821,17.3094
17.306925297,-20.76942,-50.56402,21.9603,0.882071,-0.03325745,-0.3120689,-47.52013,-4.793821,17.3094
17.316923142,-19.72335,-42.96692,21.22865,0.8454264,-0.0002575181,-0.2378343,-47.52299,-5.153474,19.76244
17.32692194,-14.55456,-33.94535,18.30205,0.8670329,-0.00827931,-0.2053267,-47.52299,-5.153474,19.76244
17.336919785,0.767214200000001,-20.70978,14.39993,0.8956819,-0.002827559,-0.2025066,-47.52299,-5.153474,19.76244
17.346918583,14.73526,-3.853706,11.16848,0.8678553,0.1049886,-0.1493639,-47.52299,-5.153474,19.76244
17.356916428,15.47366,11.63726,10.13197,0.863953,0.2368175,-0.07281887,-47.52299,-5.153474,19.76244
17.366915226,8.52040099999998,24.39802,9.40032399999997,0.9116781,0.2653592,-0.03079472,-46.44541,-3.229092,21.43765
17.376913071,3.16701,35.43756,8.18090799999998,0.9556909,0.2041589,-0.06962034,-46.44541,-3.229092,21.43765
17.386911869,-0.6480501,45.64617,8.30284999999999,0.9940098,0.05676421,-0.1160711,-46.44541,-3.229092,21.43765
17.396909714,-5.570708,51.52205,11.41236,1.047973,-0.09393348,-0.1855199,-46.44541,-3.229092,21.43765
17.406907559,12.33546,49.56343,8.48576300000002,0.9898057,0.03993946,-0.4051193,-45.33941,-2.089939,20.2144
17.416906357,21.75005,38.34583,3.425189,1.042819,0.2784851,-0.4191519,-45.33941,-2.089939,20.2144
17.426904202,10.3664,33.24152,-4.50101,1.253719,0.7537022,-0.2947336,-45.33941,-2.089939,20.2144
17.436903,-20.33868,26.23794,-8.58605100000002,1.567422,0.6877792,-0.05214682,-45.33941,-2.089939,20.2144
17.446900845,-45.13658,27.48434,1.413154,1.526341,0.2807994,-0.04335604,-45.33941,-2.089939,20.2144
17.456899643,-40.76772,28.84945,8.30284999999999,1.23592,-0.008748714,-0.2040553,-45.71469,-1.726561,18.53258
17.466897488,-19.96948,24.04191,10.43683,0.9939566,-0.1515946,-0.2629402,-45.71469,-1.726561,18.53258
17.476896286,2.305545,20.83688,6.65663900000001,0.8901051,-0.2259157,-0.2479041,-45.71469,-1.726561,18.53258
17.486894131,16.58125,18.75954,1.96189,0.8475744,-0.2184072,-0.2382604,-45.71469,-1.726561,18.53258
17.496891976,18.30419,15.96998,0.681504599999997,0.8854836,-0.1620908,-0.2727985,-45.71469,-1.726561,18.53258
17.506890774,5.44374,15.02035,3.851984,0.9358653,-0.04251689,-0.27196,-47.2066,-1.751431,16.90895
17.516888619,-20.64635,14.48618,7.87605399999997,0.9334157,0.01059535,-0.250912,-47.2066,-1.751431,16.90895
17.526887417,-43.04445,13.29913,10.37586,0.9190242,-0.05255435,-0.2173703,-47.2066,-1.751431,16.90895
17.536885262,-47.47484,12.52755,9.58323599999998,0.9832854,-0.1534772,-0.2332494,-47.2066,-1.751431,16.90895
17.54688406,-35.5374,12.82431,7.63217200000002,1.046685,-0.2088658,-0.2630174,-47.2066,-1.751431,16.90895
17.556881905,-15.60063,13.77395,6.35178600000003,1.012398,-0.2000262,-0.2849744,-47.2049,-1.7547,16.52195
17.566880703,2.920877,13.65524,5.437224,0.9478187,-0.1084916,-0.2853639,-47.2049,-1.7547,16.52195
17.576878548,11.90473,12.17143,5.376253,0.9391792,0.01509146,-0.249966,-47.2049,-1.7547,16.52195
17.586876393,10.9202,10.86568,5.681107,0.9709788,0.08692599,-0.221804,-47.2049,-1.7547,16.52195
17.596875191,5.136074,9.85669000000001,6.22984400000002,0.9891637,0.0792392,-0.1983835,-47.2049,-1.7547,16.52195
17.606873036,-1.447982,9.14446299999999,7.26634699999998,1.010441,0.03663011,-0.1744808,-46.82819,-1.755701,16.07323
17.616871834,-6.49370699999998,8.84769999999998,8.36382100000002,1.032428,-0.01831092,-0.1721121,-46.82819,-1.755701,16.07323
17.626869678,-8.03203799999998,8.55093899999998,8.97352800000002,1.026747,-0.07999832,-0.2098938,-46.82819,-1.755701,16.07323
17.636868477,-6.24757399999999,8.31352900000002,8.48576300000002,1.004124,-0.1479395,-0.2572159,-46.82819,-1.755701,16.07323
17.646866321,-2.432514,7.72000599999998,7.57120099999999,0.9770864,-0.1617695,-0.2763083,-46.82819,-1.755701,16.07323
17.65686512,0.767214200000001,7.779358,6.71760999999998,0.9716169,-0.129687,-0.2633854,-47.60126,-0.6202593,16.06158
17.666862965,0.705681,8.49158700000002,6.53469799999998,0.9944261,-0.07211802,-0.2347254,-47.60126,-0.6202593,16.06158
17.676861286,-1.878715,9.44122399999999,6.65663900000001,1.022656,-0.04508354,-0.2620605,-47.60126,-0.6202593,16.06158
17.686859608,-3.663178,10.56892,6.83955100000002,1.007178,-0.05199168,-0.2931392,-47.60126,-0.6202593,16.06158
17.696857929,-5.632242,10.68762,6.83955100000002,0.9758563,-0.04485298,-0.2950007,-47.60126,-0.6202593,16.06158
17.706856251,-7.35517199999998,11.10309,6.04693200000002,0.9816843,-0.04296419,-0.2605539,-47.97262,-0.6296096,15.2848
17.716854572,-9.324236,11.04374,5.86401899999998,0.9936107,-0.05386479,-0.2031427,-47.97262,-0.6296096,15.2848
17.726852894,-9.07810300000001,10.98439,6.10790299999999,1.005788,-0.07851154,-0.1615215,-47.97262,-0.6296096,15.2848
17.736851215,-7.232106,9.97539500000001,5.80304899999998,0.9889496,-0.1156442,-0.1471253,-47.97262,-0.6296096,15.2848
17.746849537,-2.74018,8.01676800000001,5.193341,0.9786701,-0.1135623,-0.1629009,-47.97262,-0.6296096,15.2848
17.756847858,-0.03271778,5.998787,4.27878,0.9617537,-0.09490974,-0.1590476,-48.31393,-2.157659,14.83863
17.76684618,-1.386449,3.862102,3.912955,0.9630727,-0.08699457,-0.146609,-48.31393,-2.157659,14.83863
17.776844501,-0.2173175,1.844121,3.242276,0.971931,-0.1173505,-0.1375237,-48.31393,-2.157659,14.83863
17.786842346,3.966942,0.06354995,2.571598,0.9682391,-0.1551699,-0.1734007,-48.31393,-2.157659,14.83863
17.796840668,9.812599,-1.123497,2.083832,0.9756452,-0.1347501,-0.1882547,-48.31393,-2.157659,14.83863
17.806838989,14.05839,-2.132488,0.864416900000002,0.9769443,-0.07462994,-0.2059798,-48.33752,-1.016592,14.83254
17.816837311,12.76619,-2.904068,0.4985923,0.9915228,-0.02105502,-0.2242049,-48.33752,-1.016592,14.83254
17.826835632,7.22820399999999,-3.082125,0.803446099999999,0.9981625,-0.01112166,-0.2151261,-48.33752,-1.016592,14.83254
17.836833954,1.997879,-2.963421,1.474125,1.001503,-0.03345283,-0.2199119,-48.33752,-1.016592,14.83254
17.846832275,2.551678,-2.132488,1.230241,1.007395,-0.08856803,-0.254844,-48.33752,-1.016592,14.83254
17.856830597,5.197607,-1.301555,1.352183,0.999917,-0.08020131,-0.2801977,-48.71227,-1.019404,14.82976
17.866828918,3.105477,0.06354995,1.778978,0.9937499,-0.03697785,-0.2696694,-48.71227,-1.019404,14.82976
17.876826763,-1.324916,0.657073599999999,1.90092,0.9943762,-0.04418004,-0.2615328,-48.71227,-1.019404,14.82976
17.886825561,-2.001781,1.07254,1.96189,0.9864799,-0.09034257,-0.2442785,-48.71227,-1.019404,14.82976
17.896823406,0.8287475,1.725416,1.90092,0.9817708,-0.1249024,-0.2404327,-48.71227,-1.019404,14.82976
17.906822205,6.18213799999999,1.784769,1.413154,0.9762999,-0.09286375,-0.2322957,-48.35522,-0.2520661,15.27999
17.916820049,7.16667,1.606712,0.986358399999998,0.9895065,-0.04346132,-0.2256313,-48.35522,-0.2520661,15.27999
17.926818848,4.336142,1.784769,1.169271,1.002641,-0.04220801,-0.2232617,-48.35522,-0.2520661,15.27999
17.936816692,2.244012,2.081531,1.352183,1.003113,-0.06755539,-0.2328275,-48.35522,-0.2520661,15.27999
17.946815491,3.16701,2.615702,1.169271,1.004171,-0.09824529,-0.2433501,-48.34736,-0.632422,15.28202
17.956813335,5.320673,3.209226,1.169271,0.9877562,-0.08068188,-0.2533761,-48.34736,-0.632422,15.28202
17.96681118,3.105477,3.56534,1.778978,0.975378,-0.04381503,-0.2337424,-48.34736,-0.632422,15.28202
17.976809978,0.02881546,4.099511,1.96189,0.9933944,-0.04289418,-0.2251597,-48.34736,-0.632422,15.28202
17.986807823,-2.063314,4.57433,1.839949,0.9983282,-0.07187863,-0.217025,-48.34736,-0.632422,15.28202
17.996806622,-1.140316,4.336921,1.778978,1.003766,-0.1018601,-0.2127196,-47.58018,-1.391322,14.84013
18.006804466,1.628679,4.277568,1.230241,0.9942616,-0.1146692,-0.211264,-47.58018,-1.391322,14.84013
18.016803265,4.274609,4.040159,0.803446099999999,0.9829133,-0.1070832,-0.2074176,-47.58018,-1.391322,14.84013
18.026801109,5.689873,3.446635,0.681504599999997,0.9732682,-0.08630813,-0.1997489,-47.58018,-1.391322,14.84013
18.036799908,4.951474,3.031168,0.986358399999998,0.9821493,-0.06620468,-0.199291,-47.58018,-1.391322,14.84013
18.046797752,2.428612,3.32793,0.803446099999999,1.003922,-0.05802137,-0.2017239,-47.94537,-1.777759,14.45238
18.056796551,0.4595481,2.971816,1.1083,1.002382,-0.08000691,-0.2112871,-47.94537,-1.777759,14.45238
18.066794395,1.197947,2.912464,1.169271,0.9854482,-0.08676398,-0.2227416,-47.94537,-1.777759,14.45238
18.07679224,2.059412,2.793759,1.1083,0.9745908,-0.0790499,-0.2059745,-47.94537,-1.777759,14.45238
18.086791039,1.567146,2.793759,0.986358399999998,0.9833941,-0.05443854,-0.1906818,-47.94537,-1.777759,14.45238
18.096788883,0.3364816,2.496997,0.925387699999998,1.004566,-0.0662302,-0.1974157,-47.97851,-0.2530675,14.83127
18.106787682,0.5826145,2.200235,0.864416900000002,1.001031,-0.08584297,-0.2088903,-47.97851,-0.2530675,14.83127
18.116785526,2.982411,2.140883,0.803446099999999,0.9903095,-0.1118492,-0.2131721,-47.97851,-0.2530675,14.83127
18.126784325,5.382206,1.962826,0.620533899999998,0.9802712,-0.09662896,-0.2275158,-47.97851,-0.2530675,14.83127
18.136782169,5.25914,2.140883,0.620533899999998,0.9900907,-0.07454127,-0.2246672,-47.97851,-0.2530675,14.83127
18.146780968,2.674744,2.55635,0.864416900000002,1.008675,-0.05161902,-0.202691,-48.35155,-0.2591486,14.44149
18.156778812,-0.7711166,2.912464,0.986358399999998,1.004379,-0.05664663,-0.2117752,-48.35155,-0.2591486,14.44149
18.166776657,-1.878715,3.209226,1.047329,0.9986482,-0.08885834,-0.2146283,-48.35155,-0.2591486,14.44149
18.176775456,-0.955716300000001,3.149873,1.1083,0.9915981,-0.1025689,-0.2107839,-48.35155,-0.2591486,14.44149
18.1867733,0.3364816,3.684045,0.4985923,1.000319,-0.1000195,-0.2165427,-48.35155,-0.2591486,14.44149
18.196772099,2.059412,3.387283,0.5595631,0.9917344,-0.1098728,-0.2126966,-47.97681,-0.2563362,14.44427
18.206769943,3.659276,3.387283,0.0717969800000001,0.9856632,-0.09777848,-0.2055104,-47.97681,-0.2563362,14.44427
18.216768742,3.966942,3.090521,-0.05014454,0.9985802,-0.08481862,-0.1978791,-47.97681,-0.2563362,14.44427
18.226766586,4.151542,2.793759,-0.4159691,1.003711,-0.07252923,-0.193584,-47.97681,-0.2563362,14.44427
18.236765385,1.997879,2.615702,-0.598881400000002,0.9968265,-0.06931191,-0.1988372,-47.97681,-0.2563362,14.44427
18.246763229,-0.894183000000003,2.734407,-0.4769399,0.9877674,-0.07955968,-0.1839829,-47.95153,-1.400672,14.06335
18.256762028,-2.247914,2.55635,-0.2940276,0.9962478,-0.09011794,-0.1878236,-47.95153,-1.400672,14.06335
18.266759872,-1.571049,2.734407,-0.2940276,1.005087,-0.09390542,-0.1959738,-47.95153,-1.400672,14.06335
18.276758194,-0.894183000000003,2.675054,-0.5379106,0.9917505,-0.08449832,-0.2012173,-47.95153,-1.400672,14.06335
18.286756516,-0.955716300000001,2.734407,-0.720822899999998,0.9881469,-0.07443492,-0.2088708,-47.95153,-1.400672,14.06335
18.296754837,-0.709583300000001,2.971816,-0.720822899999998,0.9998458,-0.07471605,-0.2117626,-48.35942,0.1212072,14.43946
18.306753159,-0.1557842,3.149873,-0.659852100000001,0.9972867,-0.09424814,-0.2165389,-48.35942,0.1212072,14.43946
18.31675148,1.382547,3.446635,-0.7817937,1.000793,-0.09888914,-0.2002722,-48.35942,0.1212072,14.43946
18.329249382,3.228544,2.971816,-1.147618,0.9932531,-0.08626325,-0.1849479,-48.35942,0.1212072,14.43946
18.339247227,3.35161,2.675054,-1.26956,0.9892091,-0.07860318,-0.1887714,-48.69118,-1.790466,13.60831
18.349246025,2.367078,2.496997,-1.147618,0.991592,-0.07557465,-0.1815977,-48.69118,-1.790466,13.60831
18.356744766,1.567146,2.022178,-1.147618,0.9931912,-0.0827971,-0.17777,-48.69118,-1.790466,13.60831
18.366742611,1.751746,1.725416,-1.330531,0.9946698,-0.08377485,-0.1816009,-48.69118,-1.790466,13.60831
18.376740933,2.120945,1.07254,-1.330531,0.988698,-0.07705018,-0.1772851,-48.69118,-1.790466,13.60831
18.386739254,1.997879,0.894483100000001,-1.330531,0.9954041,-0.07120921,-0.1906984,-48.69118,-1.790466,13.60831
18.396737576,1.136414,0.894483100000001,-1.208589,0.9958715,-0.07027195,-0.1954852,-47.98101,0.1169372,13.60373
18.406735897,0.8287475,0.8351307,-1.26956,0.9980638,-0.08342802,-0.2041,-47.98101,0.1169372,13.60373
18.416734219,1.136414,0.5383689,-1.330531,0.9979694,-0.07789592,-0.1835225,-47.98101,0.1169372,13.60373
18.42673254,1.07488,0.597721199999998,-1.208589,0.99661,-0.08321988,-0.1782544,-47.98101,0.1169372,13.60373
18.439230442,1.136414,-0.05515479,-1.574414,0.9985498,-0.08268245,-0.1768222,-47.97146,-0.2666879,13.21876
18.446729183,1.321013,-0.1738595,-1.452472,0.9971321,-0.08520158,-0.1835192,-47.97146,-0.2666879,13.21876
18.459227085,1.07488,-0.2925643,-1.574414,0.9907778,-0.08446929,-0.1959513,-47.97146,-0.2666879,13.21876
18.466725826,0.890280700000001,-0.648678499999998,-1.574414,0.9892363,-0.08006486,-0.1892496,-47.97146,-0.2666879,13.21876
18.479223728,0.4595481,-0.648678499999998,-1.513443,0.992757,-0.08578273,-0.1844686,-47.97146,-0.2666879,13.21876
18.489221573,0.767214200000001,-0.826735599999998,-1.513443,0.9942092,-0.0852681,-0.1844712,-48.32627,-1.403485,14.06057
18.499220371,1.751746,-1.123497,-1.818297,0.9968165,-0.09449773,-0.1897377,-48.32627,-1.403485,14.06057
18.509218216,2.797811,-1.301555,-1.696355,0.9956052,-0.08188279,-0.1892603,-48.32627,-1.403485,14.06057
18.519217014,2.613211,-1.538964,-1.757326,0.9837945,-0.07584714,-0.1945056,-48.32627,-1.403485,14.06057
18.529214859,2.428612,-1.479612,-1.818297,0.9930581,-0.07616761,-0.196436,-48.32627,-1.403485,14.06057
18.5367136,2.182479,-1.538964,-1.818297,0.9969911,-0.07804684,-0.1978781,-48.31475,-1.790923,13.22409
18.549211502,1.813279,-1.717021,-1.696355,0.9944724,-0.07375383,-0.2012248,-48.31475,-1.790923,13.22409
18.559209347,1.44408,-1.538964,-1.574414,0.993905,-0.06933454,-0.1950035,-48.31475,-1.790923,13.22409
18.566708088,0.951813900000003,-1.479612,-1.513443,1.000335,-0.07462741,-0.2031491,-48.31475,-1.790923,13.22409
18.576706886,0.890280700000001,-1.242202,-1.513443,1.000942,-0.08091953,-0.2017128,-48.31475,-1.790923,13.22409
18.589204788,2.428612,-1.242202,-1.635384,0.9928881,-0.0932491,-0.2040885,-48.69118,-1.790466,13.60831
18.596703529,3.659276,-1.301555,-1.696355,0.9929066,-0.09421185,-0.2031311,-48.69118,-1.790466,13.60831
18.609201431,6.12060500000003,-1.004793,-1.818297,0.9899572,-0.09279476,-0.201212,-48.69118,-1.790466,13.60831
18.619199276,7.04360400000002,-1.064145,-1.818297,0.997927,-0.07613721,-0.2036231,-48.69118,-1.790466,13.60831
18.629198074,6.67440499999999,-1.242202,-1.879267,0.9927918,-0.0621332,-0.202182,-48.69118,-1.790466,13.60831
18.639195919,5.136074,-0.9454404,-1.879267,0.998169,-0.06297692,-0.1997983,-47.97512,-0.2596054,14.05727
18.649193764,4.151542,-0.9454404,-1.696355,0.9988937,-0.07558392,-0.1983606,-47.97512,-0.2596054,14.05727
18.659192562,4.766874,-1.004793,-1.696355,0.9912741,-0.08494543,-0.195952,-47.97512,-0.2596054,14.05727
18.669190407,6.428272,-1.360907,-1.818297,0.9837755,-0.07489756,-0.1968987,-47.97512,-0.2596054,14.05727
18.679189205,6.79747099999997,-1.657669,-1.574414,0.9907533,-0.05727897,-0.1983511,-47.97512,-0.2596054,14.05727
18.68918705,5.62834,-1.18285,-1.879267,1.002206,-0.04444454,-0.2012458,-47.98299,0.1207504,14.05524
18.699185848,4.397675,-1.242202,-1.452472,1.010071,-0.04822054,-0.2060443,-47.98299,0.1207504,14.05524
18.709183693,3.720809,-1.123497,-1.26956,1.002081,-0.06396362,-0.209855,-47.98299,0.1207504,14.05524
18.719182491,3.905409,-1.123497,-1.26956,0.9964012,-0.07278771,-0.2060142,-47.98299,0.1207504,14.05524
18.729180336,4.459208,-0.9454404,-1.208589,0.9886537,-0.07534853,-0.2036071,-47.98299,0.1207504,14.05524
18.739179134,4.951474,-0.9454404,-1.025677,0.9875247,-0.06710108,-0.2026501,-47.98299,0.1207504,14.05524
18.749176979,3.474676,-0.9454404,-0.8427644,0.9885936,-0.04618885,-0.203136,-47.98299,0.1207504,14.05524
18.759175301,0.8287475,-0.9454404,-0.598881400000002,1.000726,-0.04352823,-0.204115,-47.98299,0.1207504,14.05524
18.769173622,-1.447982,-0.767383199999997,-0.4159691,1.001367,-0.05180727,-0.207464,-47.98299,0.1207504,14.05524
18.779171944,-3.355512,-0.886087999999999,0.01082622,0.9982222,-0.06593978,-0.205062,-47.98299,0.1207504,14.05524
18.789170265,-4.093911,-0.708030899999999,0.0717969800000001,1.001355,-0.07705893,-0.2055431,-48.70271,-1.403028,14.44479
18.799168587,-4.586177,-0.648678499999998,0.1327677,1.000226,-0.06880267,-0.203629,-48.70271,-1.403028,14.44479
18.809166908,-5.386109,-0.589326100000003,0.0717969800000001,0.9971954,-0.06297861,-0.1978823,-48.70271,-1.403028,14.44479
18.81916523,-6.80137299999998,-0.648678499999998,0.0717969800000001,0.9923047,-0.06214283,-0.2021812,-48.70271,-1.403028,14.44479
18.829163551,-7.539772,-0.648678499999998,0.2547093,0.9919724,-0.07041918,-0.2031356,-48.70271,-1.403028,14.44479
18.839161873,-7.17057299999998,-0.5299737,0.4376215,0.9964583,-0.07562765,-0.1978777,-48.35942,0.1212072,14.43946
18.849160194,-6.92443900000002,-0.826735599999998,0.3766508,0.9997428,-0.068685,-0.1897495,-48.35942,0.1212072,14.43946
18.859158516,-6.49370699999998,-1.004793,0.01082622,0.9948913,-0.06970888,-0.184955,-48.35942,0.1212072,14.43946
18.869156361,-5.816842,-1.598316,-0.1111153,0.9999449,-0.07932787,-0.1849613,-48.35942,0.1212072,14.43946
18.879154682,-4.64771,-2.251192,-0.4159691,0.9867656,-0.07813043,-0.1849387,-48.35942,0.1212072,14.43946
18.889153004,-4.155444,-2.844716,-0.05014454,0.9777941,-0.06770469,-0.1944972,-48.68331,-2.170822,13.61034
18.899151325,-5.447642,-3.260183,-0.05014454,0.9853676,-0.05593194,-0.1988207,-48.68331,-2.170822,13.61034
18.909149647,-7.17057299999998,-3.378887,-0.05014454,0.9969929,-0.05234453,-0.2036276,-48.68331,-2.170822,13.61034
18.919147968,-8.58583600000001,-3.556944,0.0717969800000001,1.0062,-0.04981188,-0.2122587,-48.68331,-2.170822,13.61034
18.92914629,-10.12417,-3.141478,0.2547093,1.002402,-0.05525858,-0.2151221,-47.96895,-0.636692,14.44629
18.939144611,-11.4779,-2.666659,0.5595631,0.9932939,-0.06319606,-0.2131899,-47.96895,-0.636692,14.44629
18.949142933,-10.3703,-2.310545,0.620533899999998,0.9907238,-0.08229944,-0.2241877,-47.96895,-0.636692,14.44629
18.959141254,-7.539772,-2.19184,0.31568,0.9952241,-0.08860235,-0.2323298,-47.96895,-0.636692,14.44629
18.969139576,-5.324575,-1.657669,0.3766508,0.9959878,-0.07743253,-0.2347268,-47.96895,-0.636692,14.44629
18.979137421,-5.078443,-1.18285,0.31568,0.9982724,-0.06899479,-0.2203757,-48.34369,-0.6395044,14.44351
18.989136219,-5.93990799999998,-0.826735599999998,0.5595631,0.9933578,-0.06659638,-0.2131891,-48.34369,-0.6395044,14.44351
18.999134064,-6.678307,-0.708030899999999,0.681504599999997,0.9900042,-0.06953442,-0.2083967,-48.34369,-0.6395044,14.44351
19.009132862,-6.61677399999998,-0.589326100000003,0.4985923,0.9902493,-0.08268948,-0.212701,-48.34369,-0.6395044,14.44351
19.019130707,-5.632242,-0.767383199999997,0.620533899999998,0.9941397,-0.08204333,-0.203615,-48.34369,-0.6395044,14.44351
19.029129505,-4.340044,-0.708030899999999,0.3766508,0.9960054,-0.07765494,-0.2060122,-47.96895,-0.636692,14.44629
19.03912735,-3.170913,-0.5299737,0.3766508,0.9991581,-0.06403453,-0.2112856,-47.96895,-0.636692,14.44629
19.049126148,-3.355512,-0.589326100000003,0.31568,0.998633,-0.062145,-0.2160709,-47.96895,-0.636692,14.44629
19.059123993,-3.417045,-0.648678499999998,0.681504599999997,0.9928989,-0.06803695,-0.2103165,-47.96895,-0.636692,14.44629
19.069122791,-2.801713,-0.9454404,0.7424754,0.9921629,-0.08065527,-0.2069619,-47.96895,-0.636692,14.44629
19.079120636,-0.894183000000003,-0.708030899999999,0.4985923,0.9835301,-0.08816759,-0.2126878,-47.97064,-0.6334233,14.8333
19.089118958,1.197947,-0.708030899999999,0.1327677,0.9854144,-0.08473754,-0.2136492,-47.97064,-0.6334233,14.8333
19.099117279,1.197947,-1.004793,-0.1111153,0.9891487,-0.07586418,-0.207915,-47.97064,-0.6334233,14.8333
19.109115124,-0.2788507,-0.767383199999997,0.1327677,0.999729,-0.06834409,-0.2055425,-47.97064,-0.6334233,14.8333
19.119113922,-1.509515,-1.004793,0.1327677,0.9979544,-0.0775945,-0.2036228,-47.97064,-0.6334233,14.8333
19.129111767,-1.140316,-1.004793,0.1937385,0.9955536,-0.07964272,-0.2098396,-48.73416,0.1183944,14.43668
19.139110565,0.2134152,-0.648678499999998,-0.05014454,0.9886504,-0.07545388,-0.2150929,-48.73416,0.1183944,14.43668
19.14910841,1.07488,-0.767383199999997,-0.1720861,0.9923202,-0.06320214,-0.2117524,-48.73416,0.1183944,14.43668
19.159107208,0.767214200000001,-0.2925643,-0.3549984,0.9966033,-0.0577897,-0.2136756,-48.73416,0.1183944,14.43668
19.169105053,1.813279,-0.1145072,-0.2940276,0.9959539,-0.07540608,-0.2256343,-48.73416,0.1183944,14.43668
19.179103851,4.028476,0.004197581,-0.1720861,0.9817231,-0.09612311,-0.2284756,-48.34538,-0.6362357,14.83052
19.189101696,6.55133799999999,0.06354995,-0.598881400000002,0.9810643,-0.08685059,-0.222734,-48.34538,-0.6362357,14.83052
19.199100494,7.65893599999998,0.1229023,-0.598881400000002,0.9857113,-0.07448304,-0.2088666,-48.34538,-0.6362357,14.83052
19.209098339,6.73593800000001,0.3009594,-0.5379106,0.9919904,-0.07139947,-0.2040925,-48.34538,-0.6362357,14.83052
19.219096184,5.505273,0.1822547,-0.5379106,0.9969797,-0.07763131,-0.2055354,-48.34538,-0.6362357,14.83052
19.229094982,4.705341,0.3009594,-0.4769399,0.9941583,-0.0830017,-0.202179,-48.31422,-2.157114,14.90313
19.239092827,5.99753899999999,0.3603118,-0.4769399,0.9961205,-0.08407956,-0.2179752,-48.31422,-2.157114,14.90313
19.249091625,7.04360400000002,-0.1145072,-0.5379106,0.9894782,-0.06767562,-0.2165321,-48.31422,-2.157114,14.90313
19.25908947,7.16667,-0.2925643,-0.659852100000001,0.9979554,-0.05192292,-0.2127223,-48.31422,-2.157114,14.90313
19.269088268,6.36673800000001,0.1229023,-0.659852100000001,1.004225,-0.04836676,-0.2093841,-48.31422,-2.157114,14.90313
19.279086113,5.62834,0.06354995,-0.598881400000002,1.000483,-0.05671924,-0.2112898,-47.97681,-0.2563362,14.44427
19.289084911,6.36673800000001,0.3009594,-0.4769399,0.9887317,-0.07985206,-0.2179634,-47.97681,-0.2563362,14.44427
19.299082756,7.720469,0.1229023,-0.659852100000001,0.9857405,-0.07665432,-0.233752,-47.97681,-0.2563362,14.44427
19.309081554,6.612871,0.3009594,-0.3549984,0.9911041,-0.05073643,-0.2275465,-47.97681,-0.2563362,14.44427
19.319079399,3.105477,0.4196641,0.1937385,0.9958044,-0.04132733,-0.2184642,-47.97681,-0.2563362,14.44427
19.329077244,-0.4634504,1.131893,0.3766508,1.001013,-0.05919987,-0.2179901,-47.97512,-0.2596054,14.05727
19.339076042,-0.5249836,1.428654,0.4985923,0.9952185,-0.08800685,-0.2203655,-47.97512,-0.2596054,14.05727
19.349073887,1.07488,1.725416,0.3766508,1.000024,-0.08458051,-0.228032,-47.97512,-0.2596054,14.05727
19.359072685,2.367078,2.081531,0.2547093,0.9970332,-0.05494013,-0.2218129,-47.97512,-0.2596054,14.05727
19.36907053,0.767214200000001,2.675054,0.5595631,0.9916584,-0.02838094,-0.2285104,-47.97512,-0.2596054,14.05727
19.379069328,-2.001781,3.031168,1.230241,1.004091,-0.04175043,-0.2294858,-47.97064,-0.6334233,14.8333
19.389067173,-3.293979,3.505987,1.596066,0.9962027,-0.06280178,-0.2294666,-47.97064,-0.6334233,14.8333
19.399065971,-2.92478,3.921454,1.352183,0.9936278,-0.08128335,-0.2256288,-47.97064,-0.6334233,14.8333
19.409063816,-0.894183000000003,4.099511,1.474125,0.9918543,-0.09050301,-0.220359,-47.97064,-0.6334233,14.8333
19.419062615,0.644147799999998,4.455625,1.474125,0.9902941,-0.08514462,-0.2155719,-47.97064,-0.6334233,14.8333
19.429060459,1.321013,4.336921,1.474125,0.993019,-0.07430357,-0.2050507,-48.32627,-1.403485,14.06057
19.439058781,1.936346,4.633682,1.474125,0.9958398,-0.06895074,-0.2103214,-48.32627,-1.403485,14.06057
19.449057102,1.874812,4.633682,1.291212,0.9947389,-0.06213421,-0.2064926,-48.32627,-1.403485,14.06057
19.459054947,0.5210813,4.277568,1.535095,0.9897131,-0.05396372,-0.2055288,-48.32627,-1.403485,14.06057
19.469053745,-1.509515,4.218216,1.657037,0.9883168,-0.05735781,-0.2016969,-48.36111,0.124476,14.82646
19.47905159,-3.109379,3.980806,1.90092,0.9939596,-0.0722535,-0.1954814,-48.36111,0.124476,14.82646
19.489050388,-4.155444,3.387283,1.778978,1.000506,-0.08316922,-0.1811327,-48.36111,0.124476,14.82646
19.499048233,-3.540112,3.031168,1.596066,1.000339,-0.1001498,-0.177778,-48.36111,0.124476,14.82646
19.509047032,-1.447982,2.615702,1.1083,0.9975598,-0.1080675,-0.1873426,-48.36111,0.124476,14.82646
19.519044876,0.4595481,2.259588,0.986358399999998,0.9832131,-0.09673657,-0.1925849,-48.3243,-1.407298,13.60907
19.529043675,1.628679,1.962826,0.681504599999997,0.9810354,-0.08467054,-0.1968914,-48.3243,-1.407298,13.60907
19.539041519,1.382547,1.844121,0.7424754,0.9919379,-0.06841468,-0.196436,-48.3243,-1.407298,13.60907
19.549040318,0.0903486900000002,1.666064,0.803446099999999,0.9986009,-0.06006589,-0.2012355,-48.3243,-1.407298,13.60907
19.559038162,-1.940248,1.784769,1.1083,0.9935846,-0.05236801,-0.1988359,-48.3243,-1.407298,13.60907
19.569036484,-4.83231,1.725416,1.413154,0.9950734,-0.05379203,-0.1983595,-47.99084,0.5011063,14.05321
19.579034805,-6.862906,1.844121,1.413154,1.001799,-0.07454588,-0.1974088,-47.99084,0.5011063,14.05321
19.589033127,-5.93990799999998,1.784769,1.169271,0.9920786,-0.1019945,-0.2021705,-47.99084,0.5011063,14.05321
19.599031449,-3.601645,1.903473,1.352183,0.9866267,-0.09731737,-0.210298,-47.99084,0.5011063,14.05321
19.60902977,-1.755648,1.903473,0.925387699999998,0.9912902,-0.08598278,-0.2031304,-47.99084,0.5011063,14.05321
19.619028091,-0.6480501,1.903473,1.047329,0.999335,-0.07315426,-0.1993191,-48.7246,-0.2652307,14.0517
19.629026413,-1.140316,1.725416,1.169271,0.9960048,-0.05125619,-0.1887903,-48.7246,-0.2652307,14.0517
19.639024734,-2.494047,1.666064,1.169271,0.9952156,-0.06091166,-0.1801721,-48.7246,-0.2652307,14.0517
19.649023056,-3.601645,1.07254,1.413154,0.9955877,-0.08088933,-0.1868676,-48.7246,-0.2652307,14.0517
19.659021377,-2.186381,1.131893,1.230241,0.9914934,-0.09659052,-0.1945137,-48.7246,-0.2652307,14.0517
19.669019699,-0.4019172,0.716426,0.986358399999998,0.9921241,-0.1044277,-0.2026486,-48.73247,0.1151252,14.04968
19.679018021,0.3980148,0.4196641,0.925387699999998,0.9973885,-0.07313132,-0.1926157,-48.73247,0.1151252,14.04968
19.689015865,0.1518819,0.657073599999999,0.7424754,1.003145,-0.06807481,-0.1835341,-48.73247,0.1151252,14.04968
19.699014187,-0.03271778,0.4790165,0.803446099999999,0.9982904,-0.06920403,-0.1902254,-48.73247,0.1151252,14.04968
19.709012508,0.1518819,0.2416071,0.620533899999998,0.9937112,-0.08484463,-0.1902134,-48.73247,0.1151252,14.04968
19.71901083,1.197947,0.3603118,0.5595631,0.9983305,-0.09744926,-0.1969182,-48.71138,-0.6559377,12.82823
19.729009151,2.551678,0.657073599999999,0.4376215,0.990382,-0.08933213,-0.1954708,-48.71138,-0.6559377,12.82823
19.739007473,3.290077,0.657073599999999,0.2547093,0.9905928,-0.07483306,-0.2045678,-48.71138,-0.6559377,12.82823
19.749005794,1.936346,0.716426,0.5595631,0.9902649,-0.0573281,-0.2026574,-48.71138,-0.6559377,12.82823
19.759004116,-0.2788507,0.775778400000001,0.5595631,1.007325,-0.05741996,-0.1964657,-48.71138,-0.6559377,12.82823
19.769002438,-1.817181,0.953835399999999,0.681504599999997,1.003033,-0.06232469,-0.1921497,-48.7246,-0.2652307,14.0517
19.779000759,-2.247914,0.953835399999999,0.620533899999998,1.00253,-0.08770009,-0.202671,-48.7246,-0.2652307,14.0517
19.788999081,-0.4634504,1.07254,0.5595631,0.9987699,-0.09507667,-0.2040983,-48.7246,-0.2652307,14.0517
19.798997402,1.690213,1.131893,0.3766508,0.9929425,-0.09617246,-0.205045,-48.7246,-0.2652307,14.0517
19.808995247,2.305545,1.250597,0.2547093,0.9918526,-0.08978462,-0.1949946,-48.7246,-0.2652307,14.0517
19.818994045,1.997879,1.250597,0.1937385,0.9955334,-0.07796159,-0.1854326,-47.94537,-1.777759,14.45238
19.82899189,0.5826145,0.894483100000001,0.1327677,0.9970139,-0.07887351,-0.1820849,-47.94537,-1.777759,14.45238
19.838990688,-0.0942510000000003,0.5383689,0.0717969800000001,0.9880064,-0.09213243,-0.1777586,-47.94537,-1.777759,14.45238
19.848988533,0.02881546,0.4196641,-0.05014454,0.9955855,-0.1066004,-0.1820752,-47.94537,-1.777759,14.45238
19.858987331,1.44408,0.06354995,-0.5379106,0.9989128,-0.1021743,-0.1835179,-47.94537,-1.777759,14.45238
19.868985176,2.736278,-0.05515479,-0.4769399,1.004974,-0.08741496,-0.1768322,-49.09737,-0.2718563,13.59742
19.878983974,3.290077,-0.3519166,-0.659852100000001,0.9955878,-0.08088493,-0.1863891,-49.09737,-0.2718563,13.59742
19.888981819,3.290077,-0.3519166,-0.5379106,0.9858809,-0.08305996,-0.1906788,-49.09737,-0.2718563,13.59742
19.898980141,2.797811,-0.4706214,-0.5379106,0.9892724,-0.08202107,-0.1906849,-49.09737,-0.2718563,13.59742
19.908978462,2.182479,-0.648678499999998,-0.720822899999998,1.003976,-0.08660752,-0.1926237,-49.09737,-0.2718563,13.59742
19.918976784,2.367078,-0.5299737,-0.659852100000001,0.9990853,-0.0857849,-0.1983583,-48.68529,-2.167009,14.06184
19.928975105,2.797811,-0.5299737,-0.659852100000001,0.9979196,-0.07559878,-0.1978803,-48.68529,-2.167009,14.06184
19.93897295,2.490145,-0.648678499999998,-0.8427644,0.995716,-0.06202717,-0.1969228,-48.68529,-2.167009,14.06184
19.948971748,0.8287475,-0.708030899999999,-0.4769399,0.9942277,-0.0605856,-0.1954849,-48.68529,-2.167009,14.06184
19.958969593,-0.4019172,-0.5299737,-0.1720861,0.9925585,-0.07579681,-0.207921,-48.68529,-2.167009,14.06184
19.968968391,0.3364816,-0.3519166,-0.2940276,0.9918123,-0.08796009,-0.2079166,-48.33414,-1.023129,14.05854
19.978966236,1.321013,-0.2332119,-0.2940276,0.9921626,-0.08066405,-0.2079191,-48.33414,-1.023129,14.05854
19.988965034,1.382547,-0.1145072,-0.2330568,1.0003,-0.07265365,-0.1997995,-48.33414,-1.023129,14.05854
19.998962879,0.705681,0.1229023,-0.1111153,0.9993253,-0.07268607,-0.2012335,-48.33414,-1.023129,14.05854
20.008961678,0.3980148,0.1229023,-0.1111153,0.9945917,-0.08004677,-0.1988305,-48.35773,0.117938,14.05246
20.018959522,-0.1557842,0.06354995,-0.2330568,0.9932994,-0.08867013,-0.1825545,-48.35773,0.117938,14.05246
20.028958321,1.07488,-0.05515479,-0.2330568,0.994895,-0.09600667,-0.1911697,-48.35773,0.117938,14.05246
20.038956165,2.797811,0.004197581,-0.4159691,0.9952978,-0.09169543,-0.1988287,-48.35773,0.117938,14.05246
20.048954964,2.797811,-0.1738595,-0.4159691,0.9971958,-0.06296545,-0.1964466,-48.35773,0.117938,14.05246
20.058952808,1.25948,-0.1145072,-0.2330568,1.000953,-0.05568104,-0.2050693,-48.73835,0.4916677,13.59615
20.068950653,-0.586516899999998,0.1229023,0.0717969800000001,0.9957858,-0.06601422,-0.2079291,-48.73835,0.4916677,13.59615
20.078949451,-1.017249,0.2416071,0.4985923,0.9872649,-0.07928106,-0.205518,-48.73835,0.4916677,13.59615
20.088947296,-0.6480501,0.3603118,0.31568,0.9932493,-0.08638176,-0.1978694,-48.73835,0.4916677,13.59615
20.098946095,-0.1557842,0.1822547,0.01082622,1.008361,-0.08649018,-0.1892813,-48.73835,0.4916677,13.59615
20.108943939,0.4595481,0.1229023,0.0717969800000001,1.005005,-0.08949845,-0.1921462,-47.94955,-1.404486,13.61185
20.118942738,1.197947,0.06354995,-0.05014454,0.98927,-0.08209568,-0.1988207,-47.94955,-1.404486,13.61185
20.128940582,0.4595481,0.3009594,0.0717969800000001,0.9885624,-0.07049532,-0.2040868,-47.94955,-1.404486,13.61185
20.138939381,-1.386449,0.4196641,0.1937385,0.9928941,-0.06741513,-0.1954808,-47.94955,-1.404486,13.61185
20.148937225,-2.001781,0.2416071,0.2547093,0.9952648,-0.08964265,-0.1868648,-47.94955,-1.404486,13.61185
20.158936024,-0.832649800000001,0.06354995,0.0717969800000001,0.9947193,-0.1124971,-0.1873365,-48.7069,-1.029756,13.60426
20.168933868,1.874812,-0.3519166,-0.4159691,0.9918807,-0.1168652,-0.1806304,-48.7069,-1.029756,13.60426
20.178932667,3.597743,-0.708030899999999,-0.5379106,0.9878515,-0.08387008,-0.1772819,-48.7069,-1.029756,13.60426
20.188930512,2.920877,-1.360907,-0.659852100000001,0.9861239,-0.06986456,-0.1830254,-48.7069,-1.029756,13.60426
20.19892931,0.951813900000003,-1.598316,-0.4159691,0.987529,-0.06696501,-0.1878143,-48.7069,-1.029756,13.60426
20.208927155,-0.0942510000000003,-1.538964,-0.1720861,0.9974775,-0.07805916,-0.2002718,-48.32627,-1.403485,14.06057
20.218924999,-0.03271778,-1.479612,-0.5379106,0.9992489,-0.09455056,-0.2007492,-48.32627,-1.403485,14.06057
20.228923798,1.382547,-1.301555,-0.659852100000001,1.003605,-0.09301105,-0.2012358,-48.32627,-1.403485,14.06057
20.238921642,1.936346,-1.064145,-0.598881400000002,0.9994335,-0.0785547,-0.2055394,-48.32627,-1.403485,14.06057
20.248920441,0.5210813,-0.767383199999997,-0.659852100000001,1.001685,-0.06884403,-0.2112887,-48.32627,-1.403485,14.06057
20.258918285,-1.078783,-0.1738595,-0.2940276,0.9957814,-0.06615029,-0.222765,-47.5984,-0.2606063,13.60854
20.268917084,-1.940248,0.3009594,-0.1720861,1.000745,-0.07087655,-0.2189438,-47.5984,-0.2606063,13.60854
20.278914929,-2.001781,0.775778400000001,0.01082622,1.001263,-0.0722057,-0.2060228,-47.5984,-0.2606063,13.60854
20.288913727,-1.263382,1.131893,0.01082622,0.996573,-0.08206544,-0.2112764,-47.5984,-0.2606063,13.60854
20.298911572,0.4595481,1.369302,0.01082622,0.9908496,-0.08839049,-0.199779,-47.5984,-0.2606063,13.60854
20.30891037,1.628679,1.369302,0.0717969800000001,0.9891156,-0.0738158,-0.1964297,-48.69904,-1.41011,13.60629
20.318908215,0.705681,1.191245,0.1327677,0.9894127,-0.0635569,-0.1911685,-48.69904,-1.41011,13.60629
20.328907013,-0.4634504,0.894483100000001,0.2547093,0.9983804,-0.07410115,-0.1945315,-48.69904,-1.41011,13.60629
20.338904858,-0.5249836,0.8351307,0.3766508,1.004428,-0.08462413,-0.189275,-48.69904,-1.41011,13.60629
20.348902702,-0.1557842,1.013188,0.31568,0.9981846,-0.08967268,-0.1964414,-48.69904,-1.41011,13.60629
20.358901501,0.1518819,0.4196641,0.01082622,0.9917806,-0.08586781,-0.1916455,-48.35773,0.117938,14.05246
20.368899345,0.5826145,0.4196641,-0.05014454,1.000963,-0.08179887,-0.1916625,-48.35773,0.117938,14.05246
20.378898144,0.02881546,0.5383689,-0.05014454,0.9870583,-0.0680032,-0.1940347,-48.35773,0.117938,14.05246
20.388895989,-1.201849,0.4196641,0.0717969800000001,0.9857589,-0.0768504,-0.202166,-48.35773,0.117938,14.05246
20.398894787,-1.324916,0.3009594,-0.05014454,1.000059,-0.08577882,-0.1997957,-48.35773,0.117938,14.05246
20.408892632,-0.4019172,0.3603118,0.01082622,0.9995736,-0.08574016,-0.1945305,-48.35773,0.117938,14.05246
20.41889143,0.2134152,0.2416071,0.0717969800000001,0.9941066,-0.07999495,-0.1921296,-48.35773,0.117938,14.05246
20.428889275,0.5210813,0.1822547,-0.1111153,0.9898408,-0.08640963,-0.1935562,-48.35773,0.117938,14.05246
20.438888073,1.07488,-0.05515479,-0.2330568,0.9912924,-0.08591255,-0.1954732,-48.35773,0.117938,14.05246
20.448885918,1.44408,0.004197581,-0.4159691,0.9960265,-0.07853428,-0.1959619,-48.35773,0.117938,14.05246
20.458884716,1.197947,-0.1145072,-0.3549984,0.9926783,-0.08207221,-0.2036124,-48.73049,0.1113119,13.59817
20.468882561,0.3980148,0.004197581,-0.2940276,0.993591,-0.07858241,-0.1959577,-48.73049,0.1113119,13.59817
20.478880882,0.2749484,-0.1145072,-0.2940276,1.002038,-0.08710106,-0.1892702,-48.73049,0.1113119,13.59817
20.488879204,1.013347,-0.1145072,-0.4159691,0.9995558,-0.08475548,-0.193095,-48.73049,0.1113119,13.59817
20.498877049,1.013347,-0.411269,-0.598881400000002,0.9917267,-0.08292691,-0.1887747,-48.73049,0.1113119,13.59817
20.508875847,0.8287475,-0.589326100000003,-0.720822899999998,0.9986917,-0.09058192,-0.1906992,-48.33414,-1.023129,14.05854
20.518873692,0.767214200000001,-0.826735599999998,-0.659852100000001,0.99567,-0.08525679,-0.1863881,-48.33414,-1.023129,14.05854
20.52887249,1.25948,-0.9454404,-0.7817937,0.9937999,-0.08978124,-0.1988266,-48.33414,-1.023129,14.05854
20.538870335,1.321013,-1.064145,-0.720822899999998,0.9942346,-0.08678683,-0.1911709,-48.33414,-1.023129,14.05854
20.548869133,1.136414,-1.18285,-0.964705900000002,0.991166,-0.07907239,-0.1911676,-48.70101,-1.406297,14.05779
20.558866978,1.382547,-1.835726,-1.147618,0.9946402,-0.08238341,-0.1887799,-48.70101,-1.406297,14.05779
20.568865776,1.751746,-1.95443,-1.208589,0.9978199,-0.09587871,-0.1835176,-48.70101,-1.406297,14.05779
20.578863621,2.551678,-2.42925,-1.574414,1.001927,-0.1069742,-0.1835219,-48.70101,-1.406297,14.05779
20.588862419,3.16701,-2.844716,-1.940238,0.9923667,-0.1168907,-0.1844599,-48.70101,-1.406297,14.05779
20.598860264,4.459208,-3.497592,-2.610917,0.9999393,-0.1307895,-0.1796837,-48.35773,0.117938,14.05246
20.608859062,5.197607,-4.20982,-3.037712,0.9997212,-0.1191049,-0.1768149,-48.35773,0.117938,14.05246
20.618856907,3.782343,-5.040754,-3.159653,0.9852962,-0.1032793,-0.168658,-48.35773,0.117938,14.05246
20.628855228,1.44408,-6.22780099999998,-3.342566,0.99406,-0.1024667,-0.1519234,-48.35773,0.117938,14.05246
20.63885355,-0.832649800000001,-7.236791,-3.830332,0.9859474,-0.137663,-0.1571645,-48.35773,0.117938,14.05246
20.648851871,0.767214200000001,-8.542543,-4.744893,0.9837157,-0.1747176,-0.1657654,-47.98299,0.1207504,14.05524
20.658850193,6.05907200000001,-9.49218100000001,-5.29363,0.9806441,-0.1670953,-0.1758121,-47.98299,0.1207504,14.05524
20.668848514,10.9202,-10.38247,-5.171688,0.9753448,-0.118698,-0.1858654,-47.98299,0.1207504,14.05524
20.678846836,13.75073,-11.03534,-5.29363,0.9716657,-0.05277036,-0.1954475,-47.98299,0.1207504,14.05524
20.688845158,13.13539,-11.15405,-4.866835,0.9736692,-0.02999241,-0.2064641,-47.98299,0.1207504,14.05524
20.698843479,13.38153,-11.0947,-4.50101,0.9862813,-0.02753284,-0.2304156,-47.57848,-1.394591,14.45313
20.708841324,15.28906,-10.91664,-4.013244,0.995182,-0.03477331,-0.2443079,-47.57848,-1.394591,14.45313
20.718840122,16.08899,-10.0857,-3.70839,0.9924968,-0.04745646,-0.2438214,-47.57848,-1.394591,14.45313
20.728837967,17.62732,-9.61088600000001,-3.342566,1.00668,-0.05000415,-0.2342739,-47.57848,-1.394591,14.45313
20.738836765,19.35025,-9.01736299999997,-2.671887,1.001989,-0.03349148,-0.2251771,-47.57848,-1.394591,14.45313
20.74883461,19.16565,-8.42383900000002,-1.574414,0.9917609,-0.008013234,-0.2333016,-47.94706,-1.77449,14.83938
20.758833408,16.58125,-7.77096299999999,-0.4159691,0.9869252,0.01555761,-0.2490923,-47.94706,-1.77449,14.83938
20.768831253,10.42793,-6.64326800000002,0.5595631,0.9927003,0.01887592,-0.2706391,-47.94706,-1.77449,14.83938
20.778829575,4.643808,-5.634277,1.230241,1.002095,-0.01455178,-0.2797398,-47.94706,-1.77449,14.83938
20.788827896,2.182479,-4.20982,2.022861,0.9999244,-0.02868258,-0.2792538,-47.94706,-1.77449,14.83938
20.798826218,0.3364816,-2.844716,2.876452,0.9951094,-0.0316495,-0.2744589,-47.60744,-0.2431726,15.67255
20.808824539,-0.7711166,-1.835726,3.54713,1.00282,-0.02638333,-0.2467163,-47.60744,-0.2431726,15.67255
20.818822861,-1.263382,-1.242202,4.27878,0.987796,-0.03046243,-0.2352032,-47.60744,-0.2431726,15.67255
20.828821182,-2.432514,-1.004793,4.705575,0.9821265,-0.03972837,-0.2265766,-47.60744,-0.2431726,15.67255
20.838819504,-1.694115,-0.886087999999999,5.13237,0.9884281,-0.06390096,-0.2265813,-47.60744,-0.2431726,15.67255
20.848817825,0.2749484,-0.826735599999998,5.559165,0.9888936,-0.08866601,-0.2256186,-47.9996,0.5179949,16.05272
20.858816147,2.859344,-0.708030899999999,5.80304899999998,0.9836491,-0.09524038,-0.242358,-47.9996,0.5179949,16.05272
20.868814468,8.76653499999999,-0.2332119,5.86401899999998,0.9818379,-0.07691127,-0.2533668,-47.9996,0.5179949,16.05272
20.87881279,10.42793,-0.1738595,6.22984400000002,0.9816819,-0.04226774,-0.2375824,-47.9996,0.5179949,16.05272
20.888811111,8.21273500000003,0.06354995,6.22984400000002,0.9957741,-0.03996222,-0.2285146,-47.9996,0.5179949,16.05272
20.898809433,4.643808,-0.1145072,6.53469799999998,0.9834692,-0.05902984,-0.2146095,-47.96056,-1.383238,16.12736
20.908807754,2.059412,-0.3519166,6.83955100000002,0.9770212,-0.1048094,-0.2117151,-47.96056,-1.383238,16.12736
20.918805599,2.920877,-1.18285,6.473727,0.9773227,-0.1464672,-0.1978262,-47.96056,-1.383238,16.12736
20.928803921,6.305205,-2.19184,5.681107,0.9725156,-0.1756047,-0.1853673,-47.96056,-1.383238,16.12736
20.938802242,10.05873,-3.260183,4.583633,0.977924,-0.1777827,-0.1695831,-47.96056,-1.383238,16.12736
20.948800564,12.64313,-4.387877,3.730042,0.9927413,-0.1624346,-0.1705701,-47.62933,0.8946266,15.27947
20.958798885,12.45853,-5.278163,3.791013,0.9954686,-0.1258781,-0.1643628,-47.62933,0.8946266,15.27947
20.968797207,10.12027,-5.99039199999999,3.851984,0.9886083,-0.09856059,-0.1911581,-47.62933,0.8946266,15.27947
20.978795528,8.15120200000001,-7.17743899999998,3.608101,0.9802315,-0.09401581,-0.2074163,-47.62933,0.8946266,15.27947
20.98879385,7.78200200000001,-7.94901899999999,3.181306,0.979234,-0.09321716,-0.2241649,-47.62933,0.8946266,15.27947
20.998792171,8.76653499999999,-8.66124800000001,2.998394,0.9865876,-0.09545772,-0.2193914,-47.60574,-0.2464414,15.28555
21.008790493,10.9202,-9.13606700000001,2.937423,0.9870435,-0.09411371,-0.2327926,-47.60574,-0.2464414,15.28555
21.018788815,11.8432,-9.96700000000001,3.364218,0.9799737,-0.08048472,-0.2150765,-47.60574,-0.2464414,15.28555
21.028787136,11.1048,-10.38247,3.059364,0.9869549,-0.08917271,-0.2237008,-47.60574,-0.2464414,15.28555
21.038785458,14.30453,-10.91664,3.303247,0.9913952,-0.09272343,-0.2495507,-47.60574,-0.2464414,15.28555
21.048783779,16.15052,-11.80692,3.912955,0.984657,-0.07084005,-0.233273,-47.60744,-0.2431726,15.67255
21.058782101,14.48913,-12.69721,3.181306,0.9770121,-0.07790738,-0.1925789,-47.60744,-0.2431726,15.67255
21.068780422,16.21206,-13.40944,1.352183,0.9757793,-0.1413532,-0.1667173,-47.60744,-0.2431726,15.67255
21.078778744,28.45717,-13.7062,0.681504599999997,0.972472,-0.2002974,-0.2284327,-47.60744,-0.2431726,15.67255
21.088777065,35.28735,-12.04433,1.90092,0.9486599,-0.1538956,-0.3102396,-47.60744,-0.2431726,15.67255
21.09877491,29.8109,-9.848295,2.571598,0.9564393,-0.02365874,-0.3265583,-48.02347,1.659608,16.11114
21.108773708,20.08865,-8.72059999999997,4.095867,0.9758712,0.0574178,-0.3237416,-48.02347,1.659608,16.11114
21.118771553,7.78200200000001,-7.77096299999999,6.96149300000002,0.9812773,0.1072266,-0.308928,-48.02347,1.659608,16.11114
21.128770351,-6.49370699999998,-5.81233500000002,8.30284999999999,0.9905341,0.1082332,-0.2720941,-48.02347,1.659608,16.11114
21.138768196,-19.23109,-6.04974400000001,8.05896700000001,0.9866794,0.003045482,-0.2352099,-47.27398,1.665234,16.1167
21.148766518,-23.84608,-7.77096299999999,6.90052199999999,1.025962,-0.1679912,-0.2122627,-47.27398,1.665234,16.1167
21.158764839,-16.76976,-8.245782,5.0714,1.039813,-0.2829383,-0.2180001,-47.27398,1.665234,16.1167
21.168763161,-13.44696,-10.20441,5.376253,1.018624,-0.2180873,-0.2012298,-47.27398,1.665234,16.1167
21.178761482,-25.13828,-11.0947,3.973926,1.027859,-0.1377454,-0.1505375,-47.27398,1.665234,16.1167
21.188759804,-37.38339,-12.5785,4.217809,0.9860896,-0.1711989,-0.1581133,-46.91048,2.054938,16.89145
21.198758125,-44.15205,-13.40944,2.75451,0.9465876,-0.2752324,-0.2365041,-46.91048,2.054938,16.89145
21.208756447,-31.8454,-13.58749,-2.06218,0.9494804,-0.4315144,-0.3278769,-46.91048,2.054938,16.89145
21.218754768,-9.508835,-12.16304,-5.415571,0.9819434,-0.4231778,-0.3896719,-46.91048,2.054938,16.89145
21.22875309,5.197607,-10.02635,-5.78139599999999,0.9724485,-0.2018058,-0.3399405,-46.91048,2.054938,16.89145
21.238751411,-2.001781,-6.88067700000001,-6.33013299999999,0.9984652,-0.05582859,-0.3218375,-46.91415,2.062021,17.72996
21.248749256,-15.41603,-3.260183,-5.964308,1.00093,-0.05793858,-0.3452915,-46.91415,2.062021,17.72996
21.258748055,-18.12349,-0.708030899999999,-5.78139599999999,0.9816536,-0.1223989,-0.3911846,-46.91415,2.062021,17.72996
21.268745899,-11.04717,2.31894,-6.20819099999998,0.9768281,-0.1521113,-0.441419,-46.91415,2.062021,17.72996
21.278744698,-4.955376,4.871092,-6.81789900000001,0.9780406,-0.08621765,-0.412245,-46.91415,2.062021,17.72996
21.288742542,-4.524643,7.423244,-6.33013299999999,0.9878587,-0.06262735,-0.351489,-46.53941,2.064834,17.73274
21.298741341,-10.3703,9.14446299999999,-4.988776,0.9908721,-0.06590265,-0.2911929,-46.53941,2.064834,17.73274
21.308739185,-16.33902,9.32251899999998,-2.793829,0.9691792,-0.05132751,-0.2447369,-46.53941,2.064834,17.73274
21.318737984,-22.24621,9.44122399999999,-3.098683,0.9418505,-0.1521678,-0.2130773,-46.53941,2.064834,17.73274
21.328735828,-10.7395,7.60130100000003,-4.805864,0.9378567,-0.3293883,-0.2412607,-46.53941,2.064834,17.73274
21.338734627,10.05873,7.18583399999999,-5.29363,0.9451942,-0.3057173,-0.272387,-46.8827,0.5405989,17.73807
21.348732472,15.71979,5.58332,-4.622952,0.9283603,-0.1088356,-0.2279008,-46.8827,0.5405989,17.73807
21.358730793,8.88960099999997,2.912464,-5.110718,0.9812815,-0.01931703,-0.1715441,-46.8827,0.5405989,17.73807
21.368729115,1.997879,0.716426,-5.29363,0.9917784,-0.05875069,-0.1490592,-46.8827,0.5405989,17.73807
21.378727436,5.136074,-3.260183,-5.720425,0.9689187,-0.1389143,-0.150913,-46.8827,0.5405989,17.73807
21.388725758,13.56613,-6.88067700000001,-7.73246000000002,0.9643059,-0.2045856,-0.1484952,-47.26361,0.9148731,17.34626
21.398724079,23.71911,-9.72959,-9.01284600000001,0.9681912,-0.2048685,-0.1877451,-47.26361,0.9148731,17.34626
21.408722401,27.47264,-12.10369,-10.17129,0.978353,-0.1236778,-0.205491,-47.26361,0.9148731,17.34626
21.418720722,22.67304,-14.41843,-10.84197,0.9746022,-0.02817934,-0.2227378,-47.26361,0.9148731,17.34626
21.428719044,14.73526,-16.0803,-11.26876,0.9906932,-0.05530225,-0.2476448,-47.26361,0.9148731,17.34626
21.438716889,13.07386,-16.73317,-12.79303,0.9797404,-0.148523,-0.3213025,-46.89056,0.9209547,17.73604
21.448715687,18.61185,-16.199,-13.2808,0.9560295,-0.1330792,-0.3877872,-46.89056,0.9209547,17.73604
21.458713532,19.96558,-14.29972,-12.97595,0.9499508,-0.0178698,-0.4232209,-46.89056,0.9209547,17.73604
21.46871233,14.11993,-11.86628,-12.06138,0.9938443,0.109815,-0.424766,-46.89056,0.9209547,17.73604
21.478710175,3.843876,-9.13606700000001,-11.08585,1.054881,0.1568977,-0.3502266,-46.89056,0.9209547,17.73604
21.488708973,-3.970845,-7.77096299999999,-9.378671,1.056623,0.06409976,-0.3521201,-46.88439,0.5438671,18.12507
21.498706818,-4.46311,-5.278163,-8.22022599999998,1.021543,-0.03941114,-0.3300178,-46.88439,0.5438671,18.12507
21.508705616,-1.140316,-4.20982,-8.098285,0.9834409,-0.1127447,-0.3490756,-46.88439,0.5438671,18.12507
21.518703461,3.905409,-2.547954,-8.70799300000002,0.9762005,-0.1162191,-0.3414048,-46.88439,0.5438671,18.12507
21.528702259,7.720469,-1.479612,-7.12275300000002,0.9518312,0.01416682,-0.3251243,-46.88439,0.5438671,18.12507
21.538700104,5.136074,-0.826735599999998,-5.415571,0.9565076,0.1284862,-0.3218119,-46.13491,0.5494919,18.13063
21.548698902,-0.832649800000001,-1.538964,-4.196156,0.9814055,0.1260844,-0.3194618,-46.13491,0.5494919,18.13063
21.558696747,-4.893843,-2.073135,-2.245092,1.013107,0.07433963,-0.2544174,-46.13491,0.5494919,18.13063
21.568695545,-6.06297400000002,-2.844716,0.681504599999997,1.003425,0.01935099,-0.2419433,-46.13491,0.5494919,18.13063
21.57869339,-8.64737,-2.963421,2.69354,0.965347,-0.0299087,-0.2854147,-46.13491,0.5494919,18.13063
21.588691712,-10.80103,-3.675649,3.851984,0.9572324,-0.03875017,-0.2782196,-46.08774,-1.732643,18.1428
21.598690033,-15.60063,-3.972411,4.217809,0.975505,-0.05140869,-0.267241,-46.08774,-1.732643,18.1428
21.608688355,-15.96982,-4.862697,3.181306,0.9850732,-0.1453519,-0.2519191,-46.08774,-1.732643,18.1428
21.618686676,-10.30877,-6.04974400000001,1.839949,0.9772875,-0.171672,-0.2437629,-46.08774,-1.732643,18.1428
21.628684521,-2.678647,-7.29614399999999,0.803446099999999,0.9693576,-0.1652887,-0.2724653,-46.08774,-1.732643,18.1428
21.638683319,1.136414,-7.71161000000001,1.474125,0.9571867,-0.08838291,-0.2853854,-46.47401,-1.348016,18.9765
21.648681164,-0.03271778,-7.11808599999999,2.205774,0.9528024,-0.01155135,-0.3232051,-46.47401,-1.348016,18.9765
21.658679962,-3.970845,-6.22780099999998,2.205774,0.9330002,-0.02207373,-0.368154,-46.47401,-1.348016,18.9765
21.668677807,-5.01691,-5.99039199999999,2.083832,0.9402149,-0.04273456,-0.3581111,-46.47401,-1.348016,18.9765
21.678676605,-3.232446,-5.337515,2.266744,0.9899173,-0.04120868,-0.2988547,-46.50716,0.1766753,19.35538
21.68867445,-3.601645,-5.278163,2.327715,1.011549,-0.0499957,-0.243854,-46.50716,0.1766753,19.35538
21.698673248,-0.4634504,-5.100106,1.474125,1.007717,-0.1062661,-0.2778117,-46.50716,0.1766753,19.35538
21.708671093,6.305205,-4.922049,0.5595631,0.9708451,-0.1170082,-0.3629312,-46.50716,0.1766753,19.35538
21.718669891,7.16667,-3.675649,0.01082622,0.9411871,-0.06919746,-0.3844277,-46.50716,0.1766753,19.35538
21.728667736,6.18213799999999,-2.19184,0.31568,0.9760679,-0.03186969,-0.3634408,-45.72033,-1.715665,19.82259
21.738666534,1.013347,-0.708030899999999,2.327715,1.017677,0.0368711,-0.3228521,-45.72033,-1.715665,19.82259
21.748664379,-12.83163,0.4196641,3.54713,1.031283,0.06560086,-0.2927329,-45.72033,-1.715665,19.82259
21.758663177,-21.75395,0.4196641,2.449656,1.010573,-0.0252066,-0.2941091,-45.72033,-1.715665,19.82259
21.768661022,-20.89248,-0.3519166,0.1937385,0.9647754,-0.1817926,-0.3136106,-45.72033,-1.715665,19.82259
21.778659821,-9.44730199999998,-1.301555,-2.793829,0.9451545,-0.2525891,-0.3078152,-46.5167,0.5602999,19.74036
21.788657665,4.889941,-2.369897,-4.013244,0.9731326,-0.184643,-0.2715098,-46.5167,0.5602999,19.74036
21.79865551,2.367078,-3.082125,-2.976741,0.9961283,-0.006902426,-0.2275666,-46.5167,0.5602999,19.74036
21.808654308,-9.63190200000001,-4.803344,-2.91577,0.9973897,0.03025144,-0.2060424,-46.5167,0.5602999,19.74036
21.818652153,-19.90795,-7.65225799999999,-3.525478,0.9966587,-0.009391836,-0.2352241,-46.5167,0.5602999,19.74036
21.828650951,-25.63054,-9.67023799999998,-4.013244,1.004434,-0.08596434,-0.229475,-46.49929,-0.2036805,19.35741
21.838648796,-24.09221,-11.92563,-4.074214,0.9829551,-0.1360469,-0.2394748,-46.49929,-0.2036805,19.35741
21.848647594,-23.84608,-13.35009,-3.464507,0.9650516,-0.09140102,-0.2605124,-46.49929,-0.2036805,19.35741
21.858645439,-30.24553,-14.89325,-5.964308,0.9835103,-0.1393059,-0.2251176,-46.49929,-0.2036805,19.35741
21.868644237,-23.29228,-17.08928,-10.23226,1.013749,-0.2454806,-0.2634291,-46.49929,-0.2036805,19.35741
21.878642082,-12.09323,-18.27633,-13.95148,0.9699597,-0.3022387,-0.3174172,-46.87769,-0.1994104,20.19314
21.888640881,-4.216978,-19.58208,-15.17089,0.9227518,-0.2272549,-0.3053899,-46.87769,-0.1994104,20.19314
21.898638725,-2.678647,-19.70079,-14.3173,0.9127961,-0.1122702,-0.3039664,-46.87769,-0.1994104,20.19314
21.908637524,-10.61643,-19.22597,-13.21983,0.8684844,-0.08934431,-0.3579741,-46.87769,-0.1994104,20.19314
21.918635368,-18.12349,-20.17561,-14.07342,0.8471003,-0.1177496,-0.335915,-46.87769,-0.1994104,20.19314
21.928634167,-21.93855,-21.3033,-14.7441,0.8677435,-0.1782765,-0.3038708,-45.35683,-1.325959,20.59735
21.938632011,-19.53875,-22.84646,-14.37827,0.8856148,-0.2472596,-0.2871341,-45.35683,-1.325959,20.59735
21.94863081,-10.49337,-24.56768,-11.69556,0.8629291,-0.1299398,-0.3215822,-45.35683,-1.325959,20.59735
