Time (s),Gyroscope X (deg/s),Gyroscope Y (deg/s),Gyroscope Z (deg/s),Accelerometer X (g),Accelerometer Y (g),Accelerometer Z (g),Magnetometer X (uT),Magnetometer Y (uT),Magnetometer Z (uT)
13.48938942,13.19693,5.88008199999999,1.778978,1.068652,-0.07873614,-0.1625882,-28.87966,-21.80902,50.62772
13.499386788,7.04360400000002,15.37646,3.973926,1.078252,-0.07063981,-0.1482497,-28.87966,-21.80902,50.62772
13.509384632,2.059412,24.87284,6.29081499999999,1.092258,-0.08973935,-0.1415691,-28.87966,-21.80902,50.62772
13.519382477,-0.2173175,34.25051,8.48576300000002,1.096863,-0.1012539,-0.1353527,-28.87966,-21.80902,50.62772
13.529379845,0.8287475,44.16236,9.46129399999998,1.101852,-0.08109141,-0.1200522,-28.87966,-21.80902,50.62772
13.539378166,4.459208,54.66773,8.11993799999998,1.10227,-0.05063456,-0.08512469,-28.1459,-21.04269,50.62923
13.549376011,10.05873,65.88532,5.254312,1.082925,-0.03181941,-0.05829556,-28.1459,-21.04269,50.62923
13.559373379,14.91986,75.79717,3.48616,1.051199,-0.02981568,-0.08934821,-28.1459,-21.04269,50.62923
13.569371224,14.55066,84.7000299999998,3.242276,1.048222,-0.001326776,-0.1027505,-28.1459,-21.04269,50.62923
13.579369068,7.04360400000002,94.7899199999998,2.632569,1.086632,0.05544698,-0.08847478,-29.64935,-20.68012,49.84207
13.589366436,-4.032378,106.7791,2.69354,1.134298,0.06112626,-0.04883753,-29.64935,-20.68012,49.84207
13.599364281,-14.24689,118.9463,3.48616,1.152415,0.005417639,-0.01583302,-29.64935,-20.68012,49.84207
13.609362602,-17.38509,128.8582,5.559165,1.149118,-0.0788426,-0.02968428,-29.64935,-20.68012,49.84207
13.61935997,-15.10836,137.3456,8.60770299999997,1.157895,-0.1568751,-0.02632946,-29.64935,-20.68012,49.84207
13.629357815,-10.24723,145.7143,11.35139,1.194866,-0.2051019,-0.01298136,-32.64104,-20.3495,46.59278
13.639355659,-4.093911,155.1513,14.21701,1.238326,-0.2350365,0.02045091,-32.64104,-20.3495,46.59278
13.649353027,6.55133799999999,164.9444,16.89973,1.285459,-0.2277003,0.02993838,-32.64104,-20.3495,46.59278
13.659350872,16.27359,174.2628,19.39953,1.319089,-0.2015695,0.05140894,-32.64104,-20.3495,46.59278
13.669349193,22.18078,182.6908,21.28962,1.335706,-0.1784985,0.04084536,-32.64104,-20.3495,46.59278
13.679346561,24.82671,190.644,22.93583,1.355014,-0.1425336,0.05276684,-36.008,-19.65551,41.66167
13.689344406,23.71911,198.2411,23.91136,1.390061,-0.1139144,0.07758434,-36.008,-19.65551,41.66167
13.699342251,21.93465,205.7789,24.58204,1.433113,-0.09698389,0.08229069,-36.008,-19.65551,41.66167
13.709339619,18.61185,212.1889,25.43563,1.467512,-0.08594601,0.09897805,-36.008,-19.65551,41.66167
13.719337463,12.95079,218.4209,26.22825,1.533692,-0.1061637,0.1361968,-36.008,-19.65551,41.66167
13.729335785,9.68953300000002,224.7716,27.02087,1.565187,-0.1217652,0.1686891,-41.20135,-17.85039,34.77604
13.739332676,6.79747099999997,229.9946,27.20378,1.575717,-0.1368353,0.1983463,-41.20135,-17.85039,34.77604
13.749330997,4.397675,233.6151,27.50864,1.58375,-0.20132,0.1969132,-41.20135,-17.85039,34.77604
13.759328842,7.65893599999998,235.6925,28.30126,1.584779,-0.2554838,0.2232471,-41.20135,-17.85039,34.77604
13.76932621,11.96626,239.6097,25.86243,1.581396,-0.2826845,0.2318743,-41.20135,-17.85039,34.77604
13.779324055,21.38085,243.705,24.03331,1.597396,-0.2777668,0.2567311,-46.44026,-16.44352,25.82796
13.789321423,27.34957,247.3849,23.60651,1.611005,-0.2496852,0.2691431,-46.44026,-16.44352,25.82796
13.799319267,28.82637,249.2841,24.27719,1.625644,-0.1973116,0.3317976,-46.44026,-16.44352,25.82796
13.809317589,26.98037,252.9046,22.38709,1.631554,-0.1741406,0.3552316,-46.44026,-16.44352,25.82796
13.819314957,24.45751,254.8633,22.81389,1.594659,-0.1553441,0.3648626,-46.44026,-16.44352,25.82796
13.829312801,21.99618,255.7536,23.91136,1.51221,-0.1501699,0.365005,-49.80797,-14.65259,15.66624
13.839310646,17.50425,256.169,25.55757,1.44147,-0.1457319,0.3656057,-49.80797,-14.65259,15.66624
13.849308014,10.7356,256.2284,26.28922,1.387722,-0.1637491,0.371447,-49.80797,-14.65259,15.66624
13.859305859,2.797811,255.5755,26.35019,1.364272,-0.2114793,0.4102648,-49.80797,-14.65259,15.66624
13.86930418,2.920877,254.5072,27.20378,1.362587,-0.3041223,0.3796627,-49.80797,-14.65259,15.66624
13.879301548,12.0278,251.7769,28.48417,1.310967,-0.3311461,0.4056028,-52.00983,-14.39426,3.198971
13.889299393,25.13437,250.1744,26.22825,1.273185,-0.3429903,0.414286,-52.00983,-14.39426,3.198971
13.899297237,40.39462,247.3255,22.75292,1.23222,-0.2893654,0.4153008,-52.00983,-14.39426,3.198971
13.909294605,51.22446,242.9334,20.55797,1.195009,-0.2270632,0.4536357,-52.00983,-14.39426,3.198971
13.91929245,51.90133,238.304,17.63138,1.139047,-0.151818,0.5130573,-52.00983,-14.39426,3.198971
13.929290771,53.93192,231.8345,17.50943,1.089312,-0.07357999,0.4614376,-51.24046,-12.96637,-8.542637
13.939287662,45.44034,227.9173,15.4974,1.025754,-0.03644631,0.4615389,-51.24046,-12.96637,-8.542637
13.949285984,29.87243,229.2231,11.04653,0.9566135,-0.01203454,0.517168,-51.24046,-12.96637,-8.542637
13.959283829,17.25812,228.6295,9.76614900000002,0.8720074,0.002766712,0.4589253,-51.24046,-12.96637,-8.542637
13.969281197,5.44374,224.7716,11.41236,0.7673848,-0.004483382,0.476817,-51.24046,-12.96637,-8.542637
13.979279041,-6.80137299999998,219.9641,11.71721,0.7171767,-0.05634663,0.440546,-48.21761,-12.26161,-17.81249
13.989276886,-10.7395,213.8508,12.08304,0.6735369,-0.1207541,0.3999597,-48.21761,-12.26161,-17.81249
13.999274254,-14.55456,206.313,12.14401,0.603464,-0.1781577,0.3852608,-48.21761,-12.26161,-17.81249
14.009272575,-10.86257,195.7483,13.54634,0.506819,-0.2236547,0.2954687,-48.21761,-12.26161,-17.81249
14.01927042,-2.001781,182.2753,17.26555,0.3978444,-0.2074296,0.286083,-48.21761,-12.26161,-17.81249
14.029267788,0.5210813,166.8437,20.67991,0.3156768,-0.1140147,0.2637091,-43.69133,-11.91942,-26.29519
14.039265633,-0.3403839,149.6909,22.50904,0.246424,-0.05976278,0.2351013,-43.69133,-11.91942,-26.29519
14.049263477,-5.324575,133.369,23.91136,0.1805901,0.0204826,0.2251453,-43.69133,-11.91942,-26.29519
14.059260845,-14.18536,117.5812,23.60651,0.113202,0.07986321,0.2218974,-43.69133,-11.91942,-26.29519
14.069259167,-25.87667,102.8618,21.5335,0.05303572,0.1452187,0.2717574,-43.69133,-11.91942,-26.29519
14.079257011,-29.8148,87.7863499999998,20.497,0.07204557,0.06674457,0.2578658,-37.7488,-11.16212,-31.93125
14.089254379,-29.9994,75.5004000000002,15.68031,0.08816562,-0.01307343,0.262644,-37.7488,-11.16212,-31.93125
14.099252224,-21.87701,65.64791,11.71721,0.09713443,-0.102056,0.2372867,-37.7488,-11.16212,-31.93125
14.111749649,-4.893843,55.32061,8.05896700000001,0.07449087,-0.1426796,0.2014435,-37.7488,-11.16212,-31.93125
14.121747494,5.81293900000002,45.82423,6.16887299999999,0.01186222,-0.1038557,0.1718709,-35.14464,-9.644981,-34.75791
14.131744862,12.0278,33.00412,3.912955,-0.05878076,-0.02716398,0.1557027,-35.14464,-9.644981,-34.75791
14.141742706,9.01266799999998,16.86027,0.864416900000002,-0.1038993,-0.01135792,0.1749204,-35.14464,-9.644981,-34.75791
14.149240971,4.951474,4.396273,-2.001209,-0.1075935,-0.02283127,0.1505224,-35.14464,-9.644981,-34.75791
14.161737919,0.2134152,-13.8249,-6.02527899999998,-0.0820926,-0.1085575,0.1796931,-35.14464,-9.644981,-34.75791
14.16923666,-0.6480501,-22.96517,-7.61051899999998,-0.04963389,-0.150101,0.1896974,-31.77027,-9.622938,-35.11989
14.179234028,2.490145,-32.93637,-8.52507999999999,-0.002736696,-0.1821702,0.1948882,-31.77027,-9.622938,-35.11989
14.191731453,9.13573400000002,-41.48311,-9.378671,0.01103838,-0.1627972,0.2111308,-31.77027,-9.622938,-35.11989
14.201729298,14.98139,-47.24029,-10.65906,0.002382961,-0.1174169,0.1972555,-31.77027,-9.622938,-35.11989
14.211727142,15.41212,-53.53164,-12.36624,0.01259925,-0.06401934,0.2221099,-31.77027,-9.622938,-35.11989
14.22172451,13.68919,-61.54421,-13.82954,0.03412837,-0.01623395,0.2464674,-32.52145,-9.625295,-34.73845
14.231722832,11.53553,-70.1503099999998,-15.17089,0.05693077,-0.009395074,0.3072051,-32.52145,-9.625295,-34.73845
14.241720676,11.1048,-78.3409299999999,-16.51225,0.08606371,-0.02890445,0.3425739,-32.52145,-9.625295,-34.73845
14.251718044,11.474,-85.1664499999997,-17.97555,0.1326581,-0.06909934,0.4162037,-32.52145,-9.625295,-34.73845
14.261715889,12.82773,-90.9829900000002,-20.10953,0.1763294,-0.1093652,0.488403,-32.52145,-9.625295,-34.73845
14.271713734,18.42725,-96.5621099999999,-22.06059,0.225133,-0.1380819,0.53714,-33.64684,-9.996654,-32.68075
14.281711102,25.50357,-102.6754,-23.34098,0.2576238,-0.1281053,0.60121,-33.64684,-9.996654,-32.68075
14.291709423,27.10344,-110.688,-23.95068,0.2873759,-0.07579615,0.6772382,-33.64684,-9.996654,-32.68075
14.301707268,20.88858,-122.2023,-23.95068,0.293256,-0.04971796,0.7528363,-33.64684,-9.996654,-32.68075
14.311704636,10.30486,-136.5062,-23.40195,0.3219212,-0.07017337,0.7920349,-33.64684,-9.996654,-32.68075
14.32170248,1.936346,-149.8012,-22.73127,0.3888567,-0.1564423,0.8316622,-37.01592,-10.75925,-29.92821
14.331700325,0.951813900000003,-159.535,-21.93865,0.4785635,-0.2096593,0.8760271,-37.01592,-10.75925,-29.92821
14.341697693,5.25914,-163.9864,-21.45088,0.6509352,-0.2533847,0.9293384,-37.01592,-10.75925,-29.92821
14.351696014,15.22752,-162.4432,-20.35341,0.7017606,-0.2354253,0.9235023,-37.01592,-10.75925,-29.92821
14.361693859,25.56511,-156.5674,-19.56079,0.7178622,-0.2109285,0.9105463,-37.01592,-10.75925,-29.92821
14.371691227,26.61117,-150.6321,-17.73167,0.667083,-0.1800175,0.8933981,-41.06901,-12.2632,-24.27419
14.381689072,18.91952,-151.285,-14.3173,0.6242012,-0.129312,0.8451236,-41.06901,-12.2632,-24.27419
14.391686916,9.25880099999997,-160.6033,-9.80546599999998,0.6399187,-0.1372766,0.7905406,-41.06901,-12.2632,-24.27419
14.401684284,2.920877,-172.8299,-5.415571,0.7454342,-0.1271556,0.7128248,-41.06901,-12.2632,-24.27419
14.411682129,-0.03271778,-181.9108,-3.769361,0.8563012,-0.1404627,0.7183778,-41.06901,-12.2632,-24.27419
14.421680451,4.090009,-185.7687,-5.598484,0.9075325,-0.1445073,0.6967536,-44.83509,-12.62047,-18.23694
14.431677818,13.50459,-184.4036,-8.46410900000001,0.8913049,-0.1877916,0.7279004,-44.83509,-12.62047,-18.23694
14.441675663,21.25778,-180.6644,-10.17129,0.871857,-0.1380624,0.7346217,-44.83509,-12.62047,-18.23694
14.451673508,21.62698,-178.7651,-9.92740700000002,0.925153,-0.1740989,0.7173094,-44.83509,-12.62047,-18.23694
14.461670876,26.11891,-179.7148,-4.013244,0.9177744,0.06509827,0.7986185,-44.83509,-12.62047,-18.23694
14.47166872,11.8432,-177.5187,-12.36624,0.9675839,-0.02238379,0.6367955,-48.2318,-12.96457,-10.9714
14.481667042,-0.4634504,-178.0529,-11.20779,1.0307,-0.01068296,0.6108394,-48.2318,-12.96457,-10.9714
14.49166441,-6.12450699999998,-177.7561,-11.57362,1.047754,0.01391501,0.5538527,-48.2318,-12.96457,-10.9714
14.501662254,-11.2933,-179.0025,-10.23226,1.036095,-0.0668817,0.5117792,-48.2318,-12.96457,-10.9714
14.511660099,-13.8777,-178.3497,-7.54954800000001,1.061779,-0.138198,0.4691595,-48.2318,-12.96457,-10.9714
14.521657467,-9.324236,-177.2813,-5.84236700000003,1.087086,-0.1632828,0.4346644,-50.85909,-14.43704,-2.855717
14.531655312,-4.155444,-176.3317,-3.098683,1.074509,-0.115659,0.4619529,-50.85909,-14.43704,-2.855717
14.541653633,-4.155444,-173.6015,-3.952273,1.135315,-0.08598547,0.3871814,-50.85909,-14.43704,-2.855717
14.551650524,-8.33970399999999,-173.3047,-0.4159691,1.195766,-0.061444,0.3894626,-50.85909,-14.43704,-2.855717
14.561648846,-18.67729,-171.2867,0.681504599999997,1.22681,-0.001295765,0.4166718,-51.2649,-14.74502,6.044574
14.571646691,-24.52294,-169.3875,0.7424754,1.207205,0.004568343,0.4095258,-51.2649,-14.74502,6.044574
14.581644058,-26.43047,-167.5475,0.01082622,1.154059,-0.04628896,0.3833099,-51.2649,-14.74502,6.044574
14.591641903,-23.66148,-164.6986,-1.635384,1.126735,-0.09724925,0.3431703,-51.2649,-14.74502,6.044574
14.601640225,-19.90795,-161.3155,-4.379068,1.133294,-0.136517,0.2862183,-51.2649,-14.74502,6.044574
14.611637116,-17.38509,-159.0008,-6.33013299999999,1.179079,-0.1621032,0.2588663,-51.27263,-15.82561,13.21019
14.621635437,-9.81650199999998,-158.0511,-4.135185,1.233336,-0.1713501,0.2463311,-51.27263,-15.82561,13.21019
14.631633282,-8.15510499999999,-154.7868,-4.440039,1.217728,-0.09382105,0.2027879,-51.27263,-15.82561,13.21019
14.641630649,-9.75496900000002,-153.7184,-4.988776,1.229619,-0.07865353,0.188406,-51.27263,-15.82561,13.21019
14.651628494,-14.18536,-152.7688,-5.232659,1.230407,-0.06902001,0.1773949,-51.27263,-15.82561,13.21019
14.661626339,-19.23109,-152.294,-5.964308,1.222222,-0.07392272,0.190332,-50.18027,-15.75561,20.50707
14.671623707,-23.96914,-151.285,-6.20819099999998,1.222714,-0.1001582,0.1898593,-50.18027,-15.75561,20.50707
14.681622028,-23.78455,-150.276,-6.26916200000001,1.230889,-0.1204764,0.1821931,-50.18027,-15.75561,20.50707
14.691619873,-22.61541,-149.2077,-5.29363,1.229608,-0.1302864,0.1750192,-50.18027,-15.75561,20.50707
14.701617241,-21.07708,-147.6645,-4.683922,1.22078,-0.1277118,0.156848,-50.18027,-15.75561,20.50707
14.711615086,-20.58482,-145.6465,-4.257127,1.21272,-0.1402477,0.1319794,-48.33506,-15.68652,27.0355
14.72161293,-20.21562,-143.0944,-4.440039,1.19822,-0.1470269,0.1128633,-48.33506,-15.68652,27.0355
14.731610298,-17.44662,-139.9487,-5.049747,1.199024,-0.164847,0.0755376,-48.33506,-15.68652,27.0355
14.74160862,-14.06229,-136.2688,-5.29363,1.200281,-0.1542631,0.0611754,-48.33506,-15.68652,27.0355
14.751606464,-11.6625,-132.8858,-5.720425,1.186376,-0.1412429,0.02721738,-48.33506,-15.68652,27.0355
14.761603832,-9.93956800000001,-129.5027,-5.720425,1.17597,-0.1066844,0.002819249,-45.3305,-17.1375,32.74189
14.771601677,-10.98563,-125.9415,-5.415571,1.17387,-0.07270556,0.003292736,-45.3305,-17.1375,32.74189
14.781599522,-15.16989,-122.2023,-4.866835,1.167658,-0.05346959,-0.005315756,-45.3305,-17.1375,32.74189
14.791596889,-20.83095,-118.5225,-4.50101,1.154649,-0.06157184,-0.01294821,-45.3305,-17.1375,32.74189
14.801594734,-23.90761,-115.1394,-4.135185,1.145793,-0.08320719,-0.02154157,-45.3305,-17.1375,32.74189
14.811593056,-23.66148,-111.7563,-3.525478,1.14702,-0.09687266,-0.03063313,-42.73801,-16.69333,37.98385
14.821590424,-22.92308,-107.6016,-3.342566,1.151043,-0.1036446,-0.03590274,-42.73801,-16.69333,37.98385
14.831588268,-20.83095,-103.5063,-2.671887,1.15788,-0.1045121,-0.03926447,-42.73801,-16.69333,37.98385
14.841586113,-18.06195,-99.5890799999998,-2.184121,1.153998,-0.1056747,-0.05170038,-42.73801,-16.69333,37.98385
14.851583481,-15.41603,-95.4937700000003,-2.06218,1.145179,-0.1035772,-0.06891428,-42.73801,-16.69333,37.98385
14.861581325,-13.26236,-90.4488099999999,-1.879267,1.130482,-0.09953793,-0.07367546,-39.72273,-18.16501,41.23922
14.871579647,-11.17023,-85.2258100000001,-2.001209,1.116706,-0.09254293,-0.07604613,-39.72273,-18.16501,41.23922
14.881577015,-10.49337,-79.8247400000001,-2.123151,1.107599,-0.0747825,-0.08034201,-39.72273,-18.16501,41.23922
14.89157486,-10.43183,-74.12691,-1.574414,1.084053,-0.06653585,-0.08413169,-39.72273,-18.16501,41.23922
14.901572704,-10.7395,-68.6071399999999,-1.452472,1.080817,-0.05015671,-0.09274464,-39.72273,-18.16501,41.23922
14.911570072,-12.09323,-62.9686700000001,-1.086647,1.08668,-0.05103908,-0.09562609,-36.76821,-19.64043,44.10712
14.921567917,-12.4009,-56.97408,-1.147618,1.086246,-0.05402033,-0.1018461,-36.76821,-19.64043,44.10712
14.931566238,-12.9547,-50.56402,-1.818297,1.092223,-0.0613361,-0.1176476,-36.76821,-19.64043,44.10712
14.941563129,-12.27783,-44.15396,-2.245092,1.092128,-0.05661456,-0.1324845,-36.76821,-19.64043,44.10712
14.951561451,-12.2163,-38.27808,-2.428004,1.10063,-0.04315604,-0.1669603,-36.76821,-19.64043,44.10712
14.961559296,-14.55456,-32.28349,-3.281595,1.085635,-0.02300766,-0.1631107,-34.52064,-19.98702,46.12535
14.971556664,-17.32355,-26.94178,-4.440039,1.085818,-0.007817976,-0.2028368,-34.52064,-19.98702,46.12535
14.981554508,-18.92342,-23.6774,-5.049747,1.090631,-0.0049169,-0.2148103,-34.52064,-19.98702,46.12535
14.99155283,-18.49269,-20.82848,-5.29363,1.090465,-0.02264217,-0.2396914,-34.52064,-19.98702,46.12535
15.001549721,-18.36962,-18.27633,-5.3546,1.086331,-0.03651005,-0.2593023,-34.52064,-19.98702,46.12535
15.011548042,-19.96948,-15.48677,-5.049747,1.074921,-0.02545355,-0.2477994,-33.38435,-20.73222,46.97625
15.021545887,-22.12315,-12.75656,-4.927805,1.069075,-0.02559098,-0.250182,-33.38435,-20.73222,46.97625
15.031543732,-21.50782,-9.90764799999999,-4.866835,1.059952,-0.0332051,-0.2659572,-33.38435,-20.73222,46.97625
15.0415411,-20.21562,-7.11808599999999,-4.379068,1.054637,-0.03582316,-0.2750401,-33.38435,-20.73222,46.97625
15.051538944,-19.41569,-4.269173,-4.50101,1.040552,-0.0386759,-0.2908079,-33.38435,-20.73222,46.97625
15.061537266,-17.44662,-2.013783,-4.805864,1.018548,-0.03477662,-0.2950777,-33.36076,-21.87328,46.98233
15.071534634,-15.47756,0.1822547,-5.29363,0.9902143,-0.03095417,-0.2940722,-33.36076,-21.87328,46.98233
15.081532478,-13.57003,2.081531,-5.90333699999997,0.9561803,-0.03503694,-0.2949689,-33.36076,-21.87328,46.98233
15.091530323,-11.41637,3.624692,-6.57401600000003,0.9365737,-0.02922112,-0.3073792,-33.36076,-21.87328,46.98233
15.101527691,-9.57036899999999,5.58332,-7.12275300000002,0.9281849,-0.0235117,-0.3025803,-33.36076,-21.87328,46.98233
15.111525536,-9.26270200000001,7.54194799999998,-7.54954800000001,0.9284813,-0.01327475,-0.299712,-32.9703,-22.63118,46.98917
15.121523857,-9.44730199999998,9.14446299999999,-7.67149000000001,0.9249169,-0.005066619,-0.2977936,-32.9703,-22.63118,46.98917
15.131521225,-11.17023,10.56892,-7.61051899999998,0.9273754,-0.006616238,-0.3131119,-32.9703,-22.63118,46.98917
15.14151907,-11.90863,12.29014,-7.42760699999997,0.9294345,-0.01236738,-0.3088068,-32.9703,-22.63118,46.98917
15.151516914,-12.70856,14.07071,-7.18372300000002,0.9194387,-0.02531778,-0.3217076,-33.32512,-23.76798,47.83098
15.161514282,-13.3239,15.49516,-6.63498599999997,0.9160447,-0.02643567,-0.3303158,-33.32512,-23.76798,47.83098
15.171512127,-13.26236,17.21638,-6.14722099999998,0.9227341,-0.0195749,-0.338465,-33.32512,-23.76798,47.83098
15.181510448,-14.30843,19.11566,-5.232659,0.9266508,-0.02041676,-0.3327287,-33.32512,-23.76798,47.83098
15.19150734,-16.15442,20.42141,-4.622952,0.9232807,-0.02310167,-0.3533009,-33.32512,-23.76798,47.83098
15.201505661,-16.83129,21.54911,-4.135185,0.9250503,-0.03965013,-0.3599998,-32.94841,-23.76898,47.38226
15.211503506,-17.07742,22.97356,-3.647419,0.9399549,-0.05492333,-0.3619362,-32.94841,-23.76898,47.38226
15.221500874,-16.89282,23.44838,-3.037712,0.9439511,-0.06022044,-0.3652918,-32.94841,-23.76898,47.38226
15.231498718,-15.53909,23.27032,-2.184121,0.9357516,-0.06477784,-0.3676692,-32.94841,-23.76898,47.38226
15.24149704,-13.38543,23.44838,-1.086647,0.9480582,-0.07130279,-0.3638604,-32.94841,-23.76898,47.38226
15.251493931,-11.53943,23.86385,0.2547093,0.9409289,-0.05490848,-0.3624164,-34.05154,-24.54848,46.15247
15.261492252,-11.41637,24.27932,1.535095,0.9426265,-0.04112382,-0.3466299,-34.05154,-24.54848,46.15247
15.271490097,-11.97016,24.51673,2.815481,0.9410962,-0.0371437,-0.3332282,-34.05154,-24.54848,46.15247
15.281487465,-12.09323,24.99154,3.54713,0.9520166,-0.04751339,-0.3217587,-34.05154,-24.54848,46.15247
15.29148531,-11.90863,25.70377,4.461692,0.957577,-0.05804599,-0.3165014,-34.05154,-24.54848,46.15247
15.301483154,-9.878035,26.23794,4.888487,0.9550864,-0.08083795,-0.3059625,-34.41254,-25.30819,46.60524
15.311480522,-6.370641,26.71276,5.254312,0.9508491,-0.08867481,-0.3035602,-34.41254,-25.30819,46.60524
15.321478844,-2.124848,27.18758,5.315282,0.9588248,-0.09824921,-0.3050073,-34.41254,-25.30819,46.60524
15.331476688,1.321013,27.6624,4.888487,0.9594339,-0.1044492,-0.293521,-34.41254,-25.30819,46.60524
15.341474056,4.336142,28.19657,4.217809,0.9555464,-0.1050031,-0.2925569,-34.41254,-25.30819,46.60524
15.351471901,6.85900399999999,28.37463,3.364218,0.9425065,-0.1110131,-0.2839183,-35.15666,-25.32417,45.37418
15.361469746,8.76653499999999,28.55269,2.510627,0.920997,-0.1068979,-0.265696,-35.15666,-25.32417,45.37418
15.371468067,10.7356,28.13722,1.718008,0.9006048,-0.1106234,-0.2570451,-35.15666,-25.32417,45.37418
15.381465435,12.52006,27.24693,1.047329,0.8859207,-0.1069602,-0.2498418,-35.15666,-25.32417,45.37418
15.39146328,13.56613,27.06888,0.620533899999998,0.8798892,-0.09670793,-0.231648,-35.15666,-25.32417,45.37418
15.401461125,12.95079,26.65341,0.31568,0.8886611,-0.09640741,-0.2177847,-37.03654,-24.96114,44.97124
15.411458492,11.72013,26.05989,-0.1111153,0.8886726,-0.09681857,-0.2096488,-37.03654,-24.96114,44.97124
15.421456337,11.72013,24.75414,-0.5379106,0.8995045,-0.1030227,-0.2206733,-37.03654,-24.96114,44.97124
15.431454659,11.1048,23.62644,-0.964705900000002,0.9118406,-0.1109347,-0.209207,-37.03654,-24.96114,44.97124
15.44145155,10.551,21.96457,-1.696355,0.9152252,-0.1093398,-0.2015561,-37.03654,-24.96114,44.97124
15.451449871,9.99719900000002,20.0653,-2.184121,0.9151981,-0.1078737,-0.2005992,-36.666,-24.58506,44.13349
15.461447716,9.56646600000001,17.92861,-2.976741,0.9150535,-0.1000577,-0.1958152,-36.666,-24.58506,44.13349
15.471445084,9.13573400000002,16.38545,-3.159653,0.9120388,-0.09528414,-0.1986827,-36.666,-24.58506,44.13349
15.481442928,8.33580199999998,15.13905,-3.70839,0.9071102,-0.09255359,-0.2082463,-36.666,-24.58506,44.13349
15.49144125,7.65893599999998,14.18941,-4.013244,0.9130928,-0.09971136,-0.2068192,-36.666,-24.58506,44.13349
15.501438141,7.90506900000002,13.35848,-4.805864,0.9204254,-0.1010682,-0.2116174,-38.17731,-23.84213,43.34431
15.511436463,8.95113399999999,12.11208,-5.476542,0.9251012,-0.09088507,-0.2240711,-38.17731,-23.84213,43.34431
15.521434307,10.98173,11.2218,-5.78139599999999,0.9336975,-0.08220077,-0.2494529,-38.17731,-23.84213,43.34431
15.531431675,12.15086,10.39086,-5.84236700000003,0.9576928,-0.06290656,-0.2638569,-38.17731,-23.84213,43.34431
15.54142952,10.1818,9.97539500000001,-5.415571,0.9969053,-0.02327406,-0.2658498,-38.17731,-23.84213,43.34431
15.551427364,5.320673,9.38187199999997,-4.805864,1.041424,-0.006936481,-0.2759817,-37.7989,-23.8464,42.50859
15.561424732,-0.03271778,8.19482400000001,-3.342566,1.081527,0.01138043,-0.2727063,-37.7989,-23.8464,42.50859
15.571423054,-4.401577,7.18583399999999,-1.330531,1.101045,0.009756498,-0.2799186,-37.7989,-23.8464,42.50859
15.581420899,-7.10903899999999,5.88008199999999,0.31568,1.118742,0.001236355,-0.2933474,-37.7989,-23.8464,42.50859
15.591418266,-8.27817099999997,5.049149,2.327715,1.140579,-0.02037941,-0.3130015,-37.7989,-23.8464,42.50859
15.601416111,-8.64737,4.455625,3.973926,1.149237,-0.01439461,-0.3149324,-37.8191,-22.71187,41.7285
15.611413956,-9.07810300000001,4.218216,5.13237,1.145635,-0.004269766,-0.3158859,-37.8191,-22.71187,41.7285
15.621411323,-10.80103,4.158864,6.16887299999999,1.13967,0.001872587,-0.3220986,-37.8191,-22.71187,41.7285
15.631409645,-12.70856,3.802749,6.65663900000001,1.133705,0.008050053,-0.3244826,-37.8191,-22.71187,41.7285
15.64140749,-13.5085,3.862102,7.022464,1.116068,0.01301186,-0.3282818,-37.8191,-22.71187,41.7285
15.651405334,-15.35449,3.921454,7.32731800000001,1.088771,0.0134225,-0.3306272,-38.18401,-23.09885,41.27625
15.661402702,-17.20049,3.921454,7.44925899999998,1.06303,0.0091273,-0.319574,-38.18401,-23.09885,41.27625
15.671400547,-17.56969,3.505987,7.81508400000003,1.043971,0.01219619,-0.3147557,-38.18401,-23.09885,41.27625
15.681398868,-17.20049,3.32793,7.87605399999997,1.017661,0.01226761,-0.3032241,-38.18401,-23.09885,41.27625
15.69139576,-17.26202,2.734407,8.05896700000001,0.9962845,0.008977874,-0.2979216,-37.80757,-23.09931,40.89202
15.701394081,-17.01589,2.615702,8.18090799999998,0.9788499,0.003314376,-0.2950183,-37.80757,-23.09931,40.89202
15.711391926,-16.58516,2.081531,7.99799599999998,0.9651766,0.005058182,-0.2873377,-37.80757,-23.09931,40.89202
15.721389294,-15.66216,1.428654,7.69314200000002,0.9637077,0.005563353,-0.282071,-37.80757,-23.09931,40.89202
15.731387138,-15.53909,0.953835399999999,7.205376,0.9496017,0.0043698,-0.2758246,-37.80757,-23.09931,40.89202
15.74138546,-15.35449,0.06354995,6.65663900000001,0.9311036,0.003610505,-0.265742,-38.17276,-23.48575,40.50427
15.751382351,-15.16989,-0.826735599999998,5.681107,0.9288697,-0.007098026,-0.2628639,-38.17276,-23.48575,40.50427
15.761380672,-14.86223,-1.717021,4.27878,0.9363698,-0.01709321,-0.2561744,-38.17276,-23.48575,40.50427
15.771378517,-13.3239,-2.251192,2.876452,0.9390784,-0.03163987,-0.2585682,-38.17276,-23.48575,40.50427
15.781375885,-11.4779,-3.260183,1.596066,0.9323143,-0.03466723,-0.2561628,-38.17276,-23.48575,40.50427
15.79137373,-9.878035,-4.150468,0.2547093,0.9317303,-0.02922375,-0.2441988,-38.91607,-23.86846,40.88773
15.801371574,-9.13963599999997,-5.278163,-0.720822899999998,0.927578,-0.01569942,-0.244195,-38.91607,-23.86846,40.88773
15.811368942,-9.69343500000003,-6.52456300000001,-2.184121,0.9334351,-0.0159863,-0.2351122,-38.91607,-23.86846,40.88773
15.821367264,-11.4779,-7.59290600000003,-3.403537,0.9612474,-0.01781828,-0.2298959,-38.91607,-23.86846,40.88773
15.831365108,-12.09323,-8.77995300000002,-4.561981,0.9805052,-0.03165731,-0.2438046,-38.91607,-23.86846,40.88773
15.841362476,-11.41637,-9.848295,-5.3546,1.000244,-0.04490001,-0.246707,-38.15704,-24.24646,40.50832
15.851360321,-10.24723,-11.03534,-6.08625000000001,1.01105,-0.04961612,-0.2543819,-38.15704,-24.24646,40.50832
15.861358166,-8.64737,-11.92563,-6.81789900000001,1.017761,-0.04359081,-0.247695,-38.15704,-24.24646,40.50832
15.871356487,-6.98597300000001,-12.75656,-7.48857699999998,1.013534,-0.02623306,-0.2534351,-38.15704,-24.24646,40.50832
15.881353855,-6.001441,-13.46879,-7.976343,1.007257,-0.02927274,-0.2534233,-38.15704,-24.24646,40.50832
15.8913517,-5.632242,-13.7062,-8.28119799999998,1.007256,-0.02929907,-0.2562948,-37.79185,-23.86002,40.89608
15.901349545,-4.955376,-13.8249,-8.829934,1.013221,-0.03546776,-0.2529536,-37.79185,-23.86002,40.89608
15.911346912,-3.047846,-13.7062,-9.25672899999999,1.008826,-0.03511251,-0.2577318,-37.79185,-23.86002,40.89608
15.921344757,-0.4634504,-13.7062,-9.68352500000001,1.003928,-0.03373829,-0.2562878,-37.79185,-23.86002,40.89608
15.931343079,1.628679,-13.52814,-9.62255399999997,1.006578,-0.01908576,-0.2539034,-37.79185,-23.86002,40.89608
15.94133997,1.628679,-12.99397,-9.19575899999999,1.017276,-0.01790252,-0.2539223,-38.1405,-25.37391,42.12691
15.951338291,1.013347,-12.34109,-9.01284600000001,1.009418,-0.01468689,-0.2572595,-38.1405,-25.37391,42.12691
15.961336136,1.013347,-11.98498,-8.52507999999999,0.9992602,-0.01880581,-0.2605907,-38.1405,-25.37391,42.12691
15.971333504,1.997879,-11.62887,-8.15925599999997,0.9902143,-0.03018312,-0.2629649,-38.1405,-25.37391,42.12691
15.981331348,3.043944,-10.91664,-7.48857699999998,0.986623,-0.02050453,-0.2596111,-38.1405,-25.37391,42.12691
15.99132967,2.920877,-10.0857,-6.87886999999998,0.981112,-0.01228222,-0.2519464,-37.02216,-24.98893,41.68172
16.001326561,2.367078,-9.61088600000001,-6.33013299999999,0.9708001,-0.008130033,-0.2538438,-37.02216,-24.98893,41.68172
16.011324883,1.136414,-9.13606700000001,-5.659454,0.974754,-0.01089299,-0.2457142,-37.02216,-24.98893,41.68172
16.021322727,0.5210813,-8.30513400000001,-4.988776,0.9733462,-0.01387594,-0.2500181,-37.02216,-24.98893,41.68172
16.031320095,0.02881546,-7.53355299999998,-4.440039,0.9762792,-0.01426445,-0.245716,-37.02216,-24.98893,41.68172
16.04131794,-0.4634504,-6.94003,-4.013244,0.9778051,-0.01761396,-0.2433249,-37.01627,-25.36547,42.13526
16.051315784,-0.709583300000001,-5.99039199999999,-3.281595,0.9782912,-0.01763945,-0.2471543,-37.01627,-25.36547,42.13526
16.061313152,-1.386449,-5.396868,-2.793829,0.9782367,-0.0147161,-0.2461979,-37.01627,-25.36547,42.13526
16.071311474,-2.55558,-4.803344,-2.184121,0.9830695,-0.01272949,-0.2519497,-37.01627,-25.36547,42.13526
16.081309319,-3.724712,-4.20982,-1.696355,0.9900455,-0.02080881,-0.247174,-37.01627,-25.36547,42.13526
16.091307163,-4.093911,-3.675649,-1.513443,0.9965436,-0.02938351,-0.2423974,-36.6258,-26.12337,42.1421
16.101304531,-3.786245,-3.082125,-0.964705900000002,0.9967146,-0.03868759,-0.2505311,-36.6258,-26.12337,42.1421
16.111302376,-3.047846,-2.547954,-0.720822899999998,1.002497,-0.03513227,-0.2462349,-36.6258,-26.12337,42.1421
16.121300697,-2.863246,-2.073135,-0.598881400000002,1.004409,-0.03317268,-0.2486316,-36.6258,-26.12337,42.1421
16.131298065,-2.92478,-1.717021,-0.4769399,1.004392,-0.0321441,-0.2424104,-36.6258,-26.12337,42.1421
16.14129591,-2.432514,-1.242202,-0.4159691,1.006899,-0.03604791,-0.2495923,-36.62749,-26.1201,42.5291
16.151293755,-2.247914,-0.826735599999998,-0.2940276,1.012819,-0.0397439,-0.2414659,-36.62749,-26.1201,42.5291
16.161291122,-1.201849,-0.648678499999998,-0.2940276,1.013277,-0.03834721,-0.2491243,-36.62749,-26.1201,42.5291
16.171288967,0.1518819,0.06354995,-0.3549984,1.015343,-0.04465434,-0.2524763,-36.62749,-26.1201,42.5291
16.181287289,1.628679,0.597721199999998,-0.5379106,1.020663,-0.0426581,-0.258229,-36.62749,-26.1201,42.5291
16.19128418,2.428612,1.250597,-0.8427644,1.018163,-0.03931906,-0.2596612,-36.24319,-26.50091,42.1469
16.201282501,2.859344,2.081531,-0.659852100000001,1.023879,-0.03244242,-0.2639802,-36.24319,-26.50091,42.1469
16.211280346,2.182479,2.793759,-0.659852100000001,1.014551,-0.02876113,-0.2663577,-36.24319,-26.50091,42.1469
16.221277714,0.890280700000001,3.268578,-0.1111153,1.00681,-0.03186918,-0.2706506,-36.24319,-26.50091,42.1469
16.231275559,0.1518819,3.446635,0.31568,0.9845209,-0.0386575,-0.27396,-36.24319,-26.50091,42.1469
16.24127388,0.1518819,3.802749,0.803446099999999,0.9744494,-0.04703414,-0.2648474,-36.25106,-26.12056,42.14487
16.251271725,0.890280700000001,3.980806,1.657037,0.9699472,-0.04079269,-0.2634054,-36.25106,-26.12056,42.14487
16.261269093,1.628679,4.277568,1.96189,0.9650124,-0.03748421,-0.2629191,-36.25106,-26.12056,42.14487
16.271266937,1.505613,4.396273,2.327715,0.9613485,-0.02391076,-0.2586091,-36.25106,-26.12056,42.14487
16.281264782,0.3980148,4.396273,2.75451,0.9646076,-0.015445,-0.2433024,-36.25892,-25.7402,42.14285
16.29126215,-0.5249836,4.455625,2.998394,0.9680093,-0.01486114,-0.2399585,-36.25892,-25.7402,42.14285
16.301259995,-0.7711166,4.336921,3.48616,0.9671144,-0.01933564,-0.2490487,-36.25892,-25.7402,42.14285
16.311258316,-0.2788507,4.277568,3.912955,0.9653032,-0.02665178,-0.2480865,-36.25892,-25.7402,42.14285
16.321255684,0.5210813,4.455625,4.33975,0.9712285,-0.03097398,-0.2552744,-36.25892,-25.7402,42.14285
16.331253529,1.567146,4.57433,4.888487,0.9730761,-0.02560528,-0.2567147,-36.6258,-26.12337,42.1421
16.341251373,2.059412,4.455625,5.13237,0.9816878,-0.01720922,-0.2605605,-36.6258,-26.12337,42.1421
16.351248741,1.628679,4.277568,5.86401899999998,0.9914853,-0.01991376,-0.2586626,-36.6258,-26.12337,42.1421
16.361246586,0.8287475,3.980806,6.35178600000003,0.9865663,-0.01765141,-0.2663118,-36.6258,-26.12337,42.1421
16.371244907,0.644147799999998,3.624692,6.71760999999998,0.9870807,-0.01910346,-0.2667909,-36.6258,-26.12337,42.1421
16.381242275,0.5826145,3.862102,7.022464,0.989652,-0.02637249,-0.2701436,-37.00054,-26.12618,42.13931
16.39124012,1.013347,3.921454,7.38828800000001,1.000379,-0.02660702,-0.265855,-37.00054,-26.12618,42.13931
16.401237965,1.628679,4.099511,7.57120099999999,0.9975006,-0.02913307,-0.2701565,-37.00054,-26.12618,42.13931
16.411235333,2.059412,4.158864,7.69314200000002,0.9983456,-0.02236145,-0.2754241,-37.00054,-26.12618,42.13931
16.421233177,1.690213,4.336921,7.69314200000002,0.9987909,-0.01980451,-0.262504,-37.00054,-26.12618,42.13931
16.431231499,1.197947,4.57433,7.38828800000001,1.004982,-0.01251588,-0.2759168,-36.63,-25.7501,41.30156
16.441229344,-0.1557842,4.396273,7.14440499999997,0.9942143,-0.009720862,-0.2658486,-36.63,-25.7501,41.30156
16.451226711,-0.4634504,4.514977,7.022464,0.9854805,-0.01190736,-0.27349,-36.63,-25.7501,41.30156
16.461224556,-0.4019172,4.336921,6.65663900000001,0.9840395,-0.01284192,-0.2663086,-36.63,-25.7501,41.30156
16.471222401,0.2749484,4.336921,6.16887299999999,0.9773577,-0.02023674,-0.2634236,-36.63,-25.7501,41.30156
16.481219769,0.890280700000001,4.455625,5.498195,0.978848,-0.02161687,-0.2581615,-37.39887,-24.98793,42.13045
16.49121809,1.567146,4.57433,5.13237,0.9762933,-0.01536765,-0.260073,-37.39887,-24.98793,42.13045
16.501215935,1.628679,4.336921,4.888487,0.970928,-0.0149263,-0.2533637,-37.39887,-24.98793,42.13045
16.511213303,1.44408,4.158864,4.400721,0.9792346,-0.01626826,-0.2586422,-37.39887,-24.98793,42.13045
16.521211147,1.690213,4.099511,4.156838,0.9748131,-0.01444255,-0.2619849,-37.39887,-24.98793,42.13045
16.531208992,1.874812,4.158864,3.54713,0.9791157,-0.009962142,-0.2596007,-37.38932,-25.37155,41.74548
16.54120636,1.628679,3.921454,3.303247,0.979087,-0.008548748,-0.2643868,-37.38932,-25.37155,41.74548
16.551204205,1.136414,3.921454,2.937423,0.9834435,-0.007004853,-0.2643948,-37.38932,-25.37155,41.74548
16.561202526,0.767214200000001,3.862102,2.571598,0.9815881,-0.0118439,-0.2581688,-37.38932,-25.37155,41.74548
16.571199894,1.013347,3.446635,2.205774,0.9742731,-0.01148055,-0.2557633,-37.38932,-25.37155,41.74548
16.581197739,0.8287475,3.031168,1.718008,0.9718173,-0.01062298,-0.2629379,-37.40307,-24.61465,41.28992
16.591195583,0.644147799999998,2.853111,1.1083,0.9747865,-0.01296332,-0.2595924,-37.40307,-24.61465,41.28992
16.601193428,0.5210813,2.378292,0.803446099999999,0.9815893,-0.01180879,-0.2543403,-37.40307,-24.61465,41.28992
16.611190796,0.4595481,2.022178,0.31568,0.9810846,-0.01082494,-0.2519467,-37.40307,-24.61465,41.28992
16.621189117,0.02881546,1.666064,0.1327677,0.9746701,-0.0065782,-0.2519366,-37.40307,-24.61465,41.28992
16.631186962,-0.1557842,1.488007,-0.1720861,0.9731804,-0.005180512,-0.2552844,-38.14667,-24.99682,41.73788
16.64118433,-0.5249836,1.07254,-0.3549984,0.9747332,-0.01000486,-0.2548073,-38.14667,-24.99682,41.73788
16.651182175,-1.140316,0.597721199999998,-0.4769399,0.9693834,-0.01061843,-0.2571907,-38.14667,-24.99682,41.73788
16.661180019,-1.940248,0.3009594,-0.7817937,0.967416,-0.009707352,-0.2595804,-38.14667,-24.99682,41.73788
16.671177387,-2.494047,0.1229023,-0.964705900000002,0.9738306,-0.01394971,-0.2591119,-38.14667,-24.99682,41.73788
16.681175709,-2.186381,-0.05515479,-0.964705900000002,0.9787837,-0.0182297,-0.259598,-38.15453,-24.61647,41.73586
16.691173553,-2.001781,-0.2925643,-1.330531,0.9816808,-0.01665762,-0.253382,-38.15453,-24.61647,41.73586
16.701170921,-1.755648,-0.411269,-1.574414,0.9826187,-0.01469094,-0.2529056,-38.15453,-24.61647,41.73586
16.711168766,-2.309447,-0.4706214,-1.879267,0.9816613,-0.0157256,-0.2576894,-38.15453,-24.61647,41.73586
16.721166611,-2.801713,-0.648678499999998,-2.184121,0.9884813,-0.0155777,-0.2562656,-38.15453,-24.61647,41.73586
16.731164932,-2.617113,-0.5299737,-2.428004,0.9924773,-0.0208792,-0.2600998,-37.40307,-24.61465,41.28992
16.7411623,-2.124848,-0.708030899999999,-2.732858,0.9936152,-0.02962121,-0.2620138,-37.40307,-24.61465,41.28992
16.751160145,-1.324916,-0.589326100000003,-3.037712,0.9922092,-0.03254709,-0.2600963,-37.40307,-24.61465,41.28992
16.761157989,-0.4019172,-0.589326100000003,-3.281595,0.9915751,-0.02481526,-0.2634472,-37.40307,-24.61465,41.28992
16.771155357,0.2749484,-0.826735599999998,-3.647419,0.9950317,-0.0271372,-0.2591455,-37.40307,-24.61465,41.28992
16.781153202,0.4595481,-0.826735599999998,-4.013244,0.9974775,-0.02753973,-0.255321,-37.77612,-24.62074,40.90014
16.791151524,0.644147799999998,-0.886087999999999,-4.257127,0.9988009,-0.02025955,-0.2591538,-37.77612,-24.62074,40.90014
16.801148415,0.644147799999998,-1.064145,-4.379068,0.9988574,-0.02312144,-0.2534103,-37.77612,-24.62074,40.90014
16.811146736,0.767214200000001,-1.064145,-4.440039,1.00132,-0.024535,-0.2538928,-37.77612,-24.62074,40.90014
16.821144581,0.767214200000001,-1.420259,-4.196156,1.005741,-0.02638265,-0.2529429,-37.40307,-24.61465,41.28992
16.831141949,0.3364816,-1.538964,-4.135185,1.004604,-0.01761869,-0.2486359,-37.40307,-24.61465,41.28992
16.841139793,-0.4634504,-1.717021,-3.952273,1.002727,-0.02157839,-0.2524603,-37.40307,-24.61465,41.28992
16.851137638,-1.078783,-2.013783,-3.830332,1.000337,-0.02407287,-0.2543698,-37.40307,-24.61465,41.28992
16.86113596,-1.078783,-1.95443,-3.586449,0.9940162,-0.02459158,-0.2443085,-37.40307,-24.61465,41.28992
16.871133327,-1.201849,-2.19184,-3.464507,0.9847971,-0.02673503,-0.2462062,-38.14469,-25.00063,41.28638
16.881131172,-0.894183000000003,-2.013783,-3.281595,0.9878196,-0.03203822,-0.2481244,-38.14469,-25.00063,41.28638
16.891129017,-1.078783,-2.013783,-3.281595,0.9892082,-0.02811448,-0.2471707,-38.14469,-25.00063,41.28638
16.901126385,-0.6480501,-1.895078,-3.159653,0.9864948,-0.03936229,-0.2490773,-38.14469,-25.00063,41.28638
16.911124229,0.02881546,-1.895078,-3.098683,0.9889558,-0.0408329,-0.2557814,-38.14469,-25.00063,41.28638
16.921122551,1.013347,-1.717021,-2.8548,0.9908974,-0.04023842,-0.2481276,-37.38734,-25.37537,41.29398
16.931119919,1.813279,-1.598316,-2.610917,0.9902728,-0.03297918,-0.2500427,-37.38734,-25.37537,41.29398
16.941117764,1.505613,-1.657669,-2.306063,0.9877015,-0.02570576,-0.2462115,-37.38734,-25.37537,41.29398
16.951115608,0.644147799999998,-1.360907,-2.123151,0.9843287,-0.02770301,-0.2447694,-37.38734,-25.37537,41.29398
16.961112976,0.0903486900000002,-1.301555,-1.818297,0.9843456,-0.02871842,-0.2495549,-37.38734,-25.37537,41.29398
16.971110821,0.0903486900000002,-1.18285,-1.574414,0.9795559,-0.03320846,-0.2519383,-37.0126,-25.37255,41.29675
16.981109142,0.2134152,-1.123497,-1.330531,0.9850689,-0.04136932,-0.252903,-37.0126,-25.37255,41.29675
16.991106987,0.767214200000001,-0.708030899999999,-1.025677,0.9835336,-0.03754282,-0.2562513,-37.0126,-25.37255,41.29675
17.001104355,1.013347,-0.4706214,-0.720822899999998,0.9872589,-0.02818369,-0.2505173,-37.0126,-25.37255,41.29675
17.0111022,0.3980148,-0.4706214,-0.2330568,0.9906138,-0.02520176,-0.2505239,-37.0126,-25.37255,41.29675
17.021100044,-0.2173175,-0.3519166,-0.1720861,0.9993,-0.0206479,-0.2495831,-37.76406,-25.37436,41.7427
17.031097412,-0.2173175,-0.3519166,0.1937385,1.00576,-0.02732784,-0.2500712,-37.76406,-25.37436,41.7427
17.041095734,0.02881546,-0.1145072,0.620533899999998,1.011622,-0.02822337,-0.2543884,-37.76406,-25.37436,41.7427
17.051093578,0.2134152,-0.5299737,0.864416900000002,1.008112,-0.02295615,-0.2553408,-37.76406,-25.37436,41.7427
17.061090946,0.0903486900000002,-0.4706214,1.535095,1.002764,-0.02350827,-0.2510241,-37.76406,-25.37436,41.7427
17.071088791,-0.2788507,-0.411269,1.839949,0.9987682,-0.01820238,-0.2467113,-37.38734,-25.37537,41.29398
17.081086636,-0.7711166,-0.3519166,2.083832,0.9920461,-0.02376828,-0.2562697,-37.38734,-25.37537,41.29398
17.091084003,-0.832649800000001,-0.5299737,2.266744,0.9833816,-0.02918832,-0.2457245,-37.38734,-25.37537,41.29398
17.101081848,-0.586516899999998,-0.4706214,2.327715,0.9815239,-0.03409759,-0.2471557,-37.38734,-25.37537,41.29398
17.11108017,0.5210813,-0.4706214,2.205774,0.9743807,-0.04301637,-0.250491,-37.38734,-25.37537,41.29398
17.121078014,1.382547,-0.05515479,1.839949,0.9743527,-0.04157665,-0.2524056,-37.38932,-25.37155,41.74548
17.131075382,1.505613,0.1822547,1.596066,0.9756323,-0.03181061,-0.2500175,-37.38932,-25.37155,41.74548
17.141073227,0.951813900000003,0.1822547,1.230241,0.9722232,-0.03185603,-0.2476187,-37.38932,-25.37155,41.74548
17.151071548,0.2134152,0.3603118,0.986358399999998,0.9696862,-0.02659589,-0.2514442,-37.38932,-25.37155,41.74548
17.16106844,-0.3403839,0.1822547,0.7424754,0.9761733,-0.0347375,-0.2524106,-37.38932,-25.37155,41.74548
17.171066761,-0.4634504,0.1229023,0.681504599999997,0.9777073,-0.03860788,-0.253848,-37.74834,-26.13507,41.74675
17.181064606,-0.1557842,0.4196641,0.620533899999998,0.9829831,-0.03413894,-0.2548155,-37.74834,-26.13507,41.74675
17.191061974,0.2134152,0.4790165,0.620533899999998,0.9833418,-0.02734622,-0.2567322,-37.74834,-26.13507,41.74675
17.201059818,0.2134152,0.5383689,0.4376215,0.9896203,-0.02428021,-0.2538725,-37.74834,-26.13507,41.74675
17.211057663,0.02881546,0.5383689,0.4985923,0.9934424,-0.02037419,-0.2601016,-37.74834,-26.13507,41.74675
17.221055031,-0.2173175,0.657073599999999,0.1327677,0.9983712,-0.02310034,-0.2500594,-37.02046,-24.9922,41.29473
17.231053352,0.3980148,0.657073599999999,0.1327677,0.9979892,-0.02907517,-0.2648931,-37.02046,-24.9922,41.29473
17.241051197,1.936346,0.4790165,0.01082622,0.9984403,-0.02710933,-0.2634586,-37.02046,-24.9922,41.29473
17.251049042,3.105477,0.5383689,0.01082622,0.9935328,-0.02525814,-0.262972,-37.02046,-24.9922,41.29473
17.26104641,3.720809,0.597721199999998,0.01082622,0.9938385,-0.01549818,-0.2591464,-37.02046,-24.9922,41.29473
17.271044254,3.597743,0.657073599999999,0.01082622,0.9928436,-0.0146249,-0.2677593,-37.39718,-24.9912,41.74345
17.281042576,2.859344,0.597721199999998,0.1327677,0.9888859,-0.011205,-0.2572246,-37.39718,-24.9912,41.74345
17.291039944,1.997879,0.597721199999998,0.2547093,0.9829232,-0.004970479,-0.2533872,-37.39718,-24.9912,41.74345
17.301037788,1.136414,0.5383689,0.5595631,0.980505,-0.006016454,-0.2562542,-37.39718,-24.9912,41.74345
17.311035633,0.3364816,0.5383689,0.803446099999999,0.9801561,-0.013273,-0.2519445,-37.39718,-24.9912,41.74345
17.321033001,0.1518819,0.4196641,0.864416900000002,0.9772684,-0.01532206,-0.2572033,-37.00671,-25.7491,41.75029
17.331030846,0.0903486900000002,0.4196641,1.047329,0.9811277,-0.01333275,-0.2605605,-37.00671,-25.7491,41.75029
17.341029167,-0.7711166,0.3603118,0.925387699999998,0.9771513,-0.008958887,-0.2519404,-37.00671,-25.7491,41.75029
17.351027012,-1.324916,0.3603118,0.803446099999999,0.9776806,-0.01148341,-0.2634265,-37.00671,-25.7491,41.75029
17.36102438,-1.509515,0.1822547,0.681504599999997,0.9782162,-0.01381481,-0.2538553,-37.00671,-25.7491,41.75029
17.371022225,-1.447982,0.2416071,0.3766508,0.9793627,-0.02306014,-0.2576835,-37.39352,-24.99828,40.90495
17.381020069,-0.586516899999998,0.004197581,0.2547093,0.9901441,-0.02620924,-0.2533943,-37.39352,-24.99828,40.90495
17.391017437,0.5826145,0.004197581,-0.1111153,0.987561,-0.01853346,-0.2586561,-37.39352,-24.99828,40.90495
17.401015759,1.44408,0.06354995,-0.2330568,0.988941,-0.01411079,-0.2562668,-37.39352,-24.99828,40.90495
17.411013603,1.505613,-0.05515479,-0.4769399,0.9844319,-0.007313354,-0.2471677,-37.39521,-24.99501,41.29195
17.421010971,1.013347,-0.1145072,-0.7817937,0.9821117,-0.01377732,-0.2581693,-37.39521,-24.99501,41.29195
17.431008816,0.644147799999998,-0.3519166,-0.964705900000002,0.9831041,-0.01473398,-0.2586493,-37.39521,-24.99501,41.29195
17.441006661,0.644147799999998,-0.2925643,-1.147618,0.987174,-0.02389524,-0.2596112,-37.39521,-24.99501,41.29195
17.451004028,0.8287475,-0.2925643,-1.513443,0.9867141,-0.02536654,-0.2600886,-37.39521,-24.99501,41.29195
17.461001873,1.013347,-0.3519166,-1.452472,0.990079,-0.02284842,-0.2577022,-37.38932,-25.37155,41.74548
17.471000195,0.767214200000001,-0.411269,-1.452472,0.9914868,-0.01986548,-0.2533983,-37.38932,-25.37155,41.74548
17.480998039,0.2749484,-0.3519166,-1.391501,0.9889573,-0.01514376,-0.2629666,-37.38932,-25.37155,41.74548
17.490995407,-0.894183000000003,-0.411269,-1.208589,0.9908425,-0.01168299,-0.2605779,-37.38932,-25.37155,41.74548
17.500993252,-1.878715,-0.589326100000003,-1.26956,0.9895197,-0.01894562,-0.2548308,-37.38932,-25.37155,41.74548
17.510991097,-1.940248,-0.826735599999998,-1.147618,0.9855861,-0.01708834,-0.2557816,-37.0126,-25.37255,41.29675
17.520988464,-1.694115,-0.411269,-1.26956,0.9813481,-0.02494714,-0.2557722,-37.0126,-25.37255,41.29675
17.530986786,-1.140316,-0.5299737,-1.391501,0.9852448,-0.02487453,-0.2562576,-37.0126,-25.37255,41.29675
17.540984631,-0.4634504,-0.648678499999998,-1.391501,0.9842433,-0.02343649,-0.2562562,-37.0126,-25.37255,41.29675
17.550981999,-0.0942510000000003,-0.5299737,-1.574414,0.9794174,-0.02597471,-0.2576829,-37.0126,-25.37255,41.29675
17.560979843,-0.0942510000000003,-0.648678499999998,-1.635384,0.9861471,-0.02093408,-0.2524315,-37.77781,-24.61747,41.28714
17.570977688,-0.2173175,-0.589326100000003,-1.391501,0.9822129,-0.01909436,-0.2552966,-37.77781,-24.61747,41.28714
17.58097601,-0.2173175,-0.589326100000003,-1.26956,0.9788875,-0.02346774,-0.248111,-37.77781,-24.61747,41.28714
17.590973377,0.0903486900000002,-0.708030899999999,-1.147618,0.9824229,-0.03026249,-0.2548155,-37.77781,-24.61747,41.28714
17.600971222,0.5826145,-0.4706214,-1.330531,0.9848783,-0.0311376,-0.2495552,-37.77781,-24.61747,41.28714
17.610969067,0.767214200000001,-0.3519166,-1.025677,0.9799415,-0.02789057,-0.255769,-37.38734,-25.37537,41.29398
17.620966434,0.705681,-0.2332119,-0.964705900000002,0.9823502,-0.02636761,-0.2538592,-37.38734,-25.37537,41.29398
17.630964279,0.0903486900000002,-0.1738595,-1.025677,0.9861917,-0.023398,-0.2562596,-37.38734,-25.37537,41.29398
17.640962601,-0.2788507,-0.2925643,-0.8427644,0.9832858,-0.02447116,-0.26104,-37.38734,-25.37537,41.29398
17.650959968,-0.6480501,-0.3519166,-0.598881400000002,0.9862561,-0.02678077,-0.2543445,-37.38734,-25.37537,41.29398
17.660957813,-0.5249836,-0.2925643,-0.7817937,0.983848,-0.02828179,-0.2538614,-37.38565,-25.37864,40.90697
17.670955658,-0.3403839,-0.411269,-0.598881400000002,0.9833242,-0.02635714,-0.2548181,-37.38565,-25.37864,40.90697
17.680953503,-1.078783,-0.411269,-0.4159691,0.9837481,-0.02292525,-0.2524268,-37.38565,-25.37864,40.90697
17.69095087,-1.878715,-0.2925643,-0.2330568,0.9868083,-0.03013198,-0.2500374,-37.38565,-25.37864,40.90697
17.700949192,-1.817181,-0.708030899999999,-0.2330568,0.9892871,-0.03258728,-0.2581769,-37.38565,-25.37864,40.90697
17.710947037,-0.955716300000001,-0.648678499999998,-0.2330568,0.9889361,-0.03990526,-0.2605673,-37.38932,-25.37155,41.74548
17.720944405,0.4595481,-0.767383199999997,-0.1720861,0.9928058,-0.0383666,-0.2600959,-37.38932,-25.37155,41.74548
17.730942249,1.136414,-0.886087999999999,-0.2940276,0.9902619,-0.03255047,-0.2562643,-37.38932,-25.37155,41.74548
17.740940094,1.136414,-0.767383199999997,-0.1111153,0.984242,-0.023476,-0.2605633,-37.38932,-25.37155,41.74548
17.750937462,0.5210813,-0.589326100000003,-0.05014454,0.979308,-0.02014118,-0.2572056,-37.38932,-25.37155,41.74548
17.760935306,-0.3403839,-0.5299737,0.2547093,0.9720933,-0.02512121,-0.2547988,-37.0126,-25.37255,41.29675
17.770933628,-1.017249,-0.589326100000003,0.2547093,0.9556875,-0.03368441,-0.2523752,-37.0126,-25.37255,41.29675
17.780931473,-0.709583300000001,-0.5299737,0.5595631,0.9479113,-0.03483186,-0.2547542,-37.0126,-25.37255,41.29675
17.790928841,-1.263382,-0.3519166,0.864416900000002,0.9488655,-0.03389376,-0.260499,-37.0126,-25.37255,41.29675
17.800926685,-2.432514,0.06354995,1.047329,0.9513747,-0.03771418,-0.2585881,-37.0126,-25.37255,41.29675
17.810925007,-3.970845,0.1229023,1.474125,0.9459338,-0.03346574,-0.260494,-37.38145,-25.75191,41.74751
17.820921898,-6.001441,-0.05515479,1.96189,0.9465476,-0.04029189,-0.2643219,-37.38145,-25.75191,41.74751
17.830920219,-6.55523999999999,-0.5299737,2.449656,0.939802,-0.04428199,-0.2609591,-37.38145,-25.75191,41.74751
17.840918064,-6.370641,-1.123497,2.75451,0.9466583,-0.04608152,-0.2600134,-37.38145,-25.75191,41.74751
17.850915432,-5.75530800000001,-1.598316,2.937423,0.9484428,-0.03729055,-0.2590617,-37.38145,-25.75191,41.74751
17.860913277,-5.570708,-2.013783,3.059364,0.9537088,-0.0323578,-0.2624221,-37.38734,-25.37537,41.29398
17.870911121,-5.447642,-2.251192,2.75451,0.961565,-0.03564365,-0.2667422,-37.38734,-25.37537,41.29398
17.880909443,-5.324575,-2.666659,2.510627,0.9677153,-0.02579453,-0.2657983,-37.38734,-25.37537,41.29398
17.890906811,-5.01691,-3.20083,2.083832,0.9805576,-0.03541316,-0.2825684,-37.38734,-25.37537,41.29398
17.900904655,-3.355512,-3.497592,1.778978,0.9962612,-0.0414991,-0.2912085,-37.38734,-25.37537,41.29398
17.9109025,-1.447982,-3.616297,1.535095,1.015905,-0.05002025,-0.3089479,-37.02663,-24.61511,40.90569
17.920899868,0.890280700000001,-3.260183,1.413154,1.022684,-0.04804782,-0.320446,-37.02663,-24.61511,40.90569
17.930897713,1.813279,-3.20083,1.474125,1.029542,-0.02415821,-0.3266856,-37.02663,-24.61511,40.90569
17.940896034,1.690213,-3.141478,1.839949,1.031551,-0.02760344,-0.3357812,-37.02663,-24.61511,40.90569
17.950893402,1.136414,-3.260183,2.266744,1.038355,-0.02641818,-0.327179,-37.37949,-25.75572,41.296
17.960891247,0.4595481,-4.031764,2.571598,1.046989,-0.0188883,-0.3195388,-37.37949,-25.75572,41.296
17.970889091,0.2134152,-4.743992,3.181306,1.051504,-0.0255014,-0.3085377,-37.37949,-25.75572,41.296
17.980886936,0.705681,-5.574925,3.669072,1.052928,-0.02352948,-0.3085407,-37.37949,-25.75572,41.296
17.990884304,1.690213,-6.04974400000001,4.034896,1.039676,-0.01844156,-0.3080403,-37.37949,-25.75572,41.296
18.000882626,1.997879,-6.287153,4.33975,1.020048,-0.01098849,-0.3008294,-37.0126,-25.37255,41.29675
18.01088047,1.44408,-6.761972,4.583633,0.9980478,-0.006997043,-0.2950491,-37.0126,-25.37255,41.29675
18.020877838,0.890280700000001,-7.53355299999998,4.461692,0.9820675,-0.01207568,-0.2844913,-37.0126,-25.37255,41.29675
18.030875683,0.890280700000001,-8.30513400000001,4.33975,0.9670863,-0.01867575,-0.2830278,-37.0126,-25.37255,41.29675
18.040873528,2.059412,-8.77995300000002,3.973926,0.9546935,-0.03355147,-0.2887452,-37.0126,-25.37255,41.29675
18.050870895,3.474676,-9.07671499999999,3.791013,0.9489681,-0.03994236,-0.2844264,-37.00671,-25.7491,41.75029
18.060869217,5.25914,-9.551534,3.242276,0.954343,-0.04085629,-0.2896999,-37.00671,-25.7491,41.75029
18.070867062,6.98206999999997,-9.67023799999998,2.876452,0.9523042,-0.03600645,-0.2863475,-37.00671,-25.7491,41.75029
18.080864906,7.78200200000001,-9.96700000000001,2.144803,0.9557155,-0.03589081,-0.2810892,-37.00671,-25.7491,41.75029
18.090862274,8.58193500000002,-10.0857,1.839949,0.9678066,-0.03141882,-0.2964258,-37.00671,-25.7491,41.75029
18.100860119,8.64346799999999,-10.85729,1.1083,0.9703143,-0.03528312,-0.2993007,-37.0126,-25.37255,41.29675
18.11085844,9.32033300000002,-11.51016,0.803446099999999,0.9761682,-0.03567095,-0.3012251,-37.0126,-25.37255,41.29675
18.120855331,9.99719900000002,-12.40045,0.2547093,0.9794332,-0.0277919,-0.2969257,-37.0126,-25.37255,41.29675
18.130853653,9.87413200000002,-12.99397,-0.2330568,0.9742501,-0.01142932,-0.3031423,-37.0126,-25.37255,41.29675
18.140851498,8.58193500000002,-13.58749,-0.5379106,0.9661129,0.006976584,-0.2921256,-37.0126,-25.37255,41.29675
18.150849342,5.87447300000001,-14.47778,-0.4769399,0.9577605,0.01074296,-0.2873262,-36.65725,-24.60195,42.13399
18.16084671,2.859344,-15.19001,-0.4159691,0.9557402,0.01462567,-0.2834951,-36.65725,-24.60195,42.13399
18.170844555,-0.2173175,-16.0803,-0.2330568,0.948645,0.003357083,-0.2782155,-36.65725,-24.60195,42.13399
18.180842876,-1.817181,-16.73317,0.1937385,0.9430891,-0.01238177,-0.2868161,-36.65725,-24.60195,42.13399
18.190840244,-1.940248,-17.38605,0.681504599999997,0.9378483,-0.01884203,-0.2911125,-36.65725,-24.60195,42.13399
18.200838089,-1.755648,-17.97957,0.986358399999998,0.9437822,-0.02366755,-0.3002146,-35.90329,-24.97014,42.91557
18.210835934,-1.447982,-17.97957,0.986358399999998,0.9568145,-0.01712354,-0.303589,-35.90329,-24.97014,42.91557
18.220833302,-1.694115,-18.03892,0.986358399999998,0.9679722,-0.01447777,-0.3040877,-35.90329,-24.97014,42.91557
18.230831146,-2.678647,-18.03892,0.620533899999998,0.9683143,-0.006665243,-0.3007403,-35.90329,-24.97014,42.91557
18.240829468,-3.601645,-18.15763,0.3766508,0.9745929,-0.003594842,-0.297402,-35.90329,-24.97014,42.91557
18.250827313,-3.909311,-18.33569,0.1327677,0.9800268,-0.007291676,-0.2883176,-35.52686,-24.9706,42.53136
18.26082468,-3.909311,-18.8105,-0.2330568,0.9831403,-0.01745687,-0.2907133,-35.52686,-24.9706,42.53136
18.270822525,-2.74018,-18.5731,-0.659852100000001,0.992604,-0.02848603,-0.2950341,-35.52686,-24.9706,42.53136
18.28082037,-1.632582,-17.86087,-0.964705900000002,1.00195,-0.03317834,-0.2969635,-35.52686,-24.9706,42.53136
18.290817738,-0.1557842,-17.20799,-1.208589,1.003861,-0.03121436,-0.2988816,-35.52686,-24.9706,42.53136
18.300816059,0.3980148,-16.37706,-1.391501,1.002192,-0.02000488,-0.291703,-35.53221,-24.96024,43.75686
18.310813904,-0.1557842,-15.84289,-1.26956,0.9937096,-0.009508076,-0.2945624,-35.53221,-24.96024,43.75686
18.320811272,-1.140316,-14.9526,-1.147618,0.9912605,-0.009210888,-0.3098726,-35.53221,-24.96024,43.75686
18.330809116,-3.047846,-13.35009,-0.964705900000002,0.993749,-0.01213001,-0.3156191,-35.53221,-24.96024,43.75686
18.340806961,-4.955376,-11.51016,-0.8427644,0.9865064,-0.0156703,-0.315127,-35.53221,-24.96024,43.75686
18.350805283,-6.12450699999998,-9.67023799999998,-0.4159691,0.9896106,-0.02535851,-0.3184799,-35.15747,-24.95743,43.75964
18.360802651,-7.04750599999997,-8.245782,0.0717969800000001,0.9995342,-0.03491198,-0.3218448,-35.15747,-24.95743,43.75964
18.370800495,-6.98597300000001,-6.52456300000001,0.3766508,1.004866,-0.03331373,-0.3180259,-35.15747,-24.95743,43.75964
18.38079834,-6.55523999999999,-5.159458,0.925387699999998,0.9971378,-0.03681976,-0.3127472,-35.15747,-24.95743,43.75964
18.390795708,-6.06297400000002,-3.735002,1.169271,0.9883434,-0.03550498,-0.3093821,-35.15747,-24.95743,43.75964
18.400793552,-5.632242,-1.776374,2.022861,0.9744521,-0.02207656,-0.2988327,-34.40182,-25.32889,44.15423
18.410791874,-6.30910700000001,0.004197581,2.632569,0.9595114,-0.004847147,-0.2954611,-34.40182,-25.32889,44.15423
18.420789719,-8.093571,2.022178,3.242276,0.9459984,-0.01196994,-0.3011786,-34.40182,-25.32889,44.15423
18.430787087,-9.93956800000001,3.446635,3.669072,0.9398302,-0.02083875,-0.3011656,-34.40182,-25.32889,44.15423
18.440784931,-10.80103,5.227206,3.912955,0.9462752,-0.05286252,-0.309783,-34.40182,-25.32889,44.15423
18.450782776,-9.81650199999998,6.29554899999997,4.034896,0.9525108,-0.07369622,-0.3164885,-34.40182,-25.32889,44.15423
18.460780144,-7.04750599999997,7.304539,4.034896,0.9596639,-0.09165754,-0.3298965,-34.40182,-25.32889,44.15423
18.470778465,-4.032378,8.96640499999999,3.973926,0.9694017,-0.09160552,-0.3452279,-34.40182,-25.32889,44.15423
18.48077631,-1.694115,10.03475,3.48616,0.9834206,-0.08542708,-0.3375967,-34.40182,-25.32889,44.15423
18.490773678,-0.894183000000003,11.04374,3.425189,0.9869891,-0.06785829,-0.3371288,-34.40182,-25.32889,44.15423
18.500771523,-1.263382,11.2218,2.69354,0.9936911,-0.06137354,-0.3333136,-34.40182,-25.32889,44.15423
18.510769367,-1.755648,11.51856,1.96189,1.002162,-0.07144604,-0.3371544,-34.40182,-25.32889,44.15423
18.520767689,-0.955716300000001,11.75597,1.1083,0.9993368,-0.07695249,-0.3486339,-34.40182,-25.32889,44.15423
18.53076458,0.2749484,12.11208,0.3766508,0.9905267,-0.07458719,-0.3366548,-34.40182,-25.32889,44.15423
18.540762901,0.767214200000001,11.87467,0.1327677,0.979639,-0.06550799,-0.329938,-34.77486,-25.33498,43.76445
18.550760746,0.3980148,11.39985,-0.1111153,0.9721692,-0.05687355,-0.3260986,-34.77486,-25.33498,43.76445
18.560758114,-0.6480501,10.86568,-0.2940276,0.9624905,-0.06047952,-0.3275165,-34.77486,-25.33498,43.76445
18.570755959,-0.5249836,10.45021,-0.720822899999998,0.9553351,-0.06900471,-0.340902,-34.77486,-25.33498,43.76445
18.580753803,0.1518819,10.39086,-0.903735200000002,0.9448195,-0.07990319,-0.3408809,-34.77486,-25.33498,43.76445
18.590752125,1.690213,9.97539500000001,-0.903735200000002,0.9346428,-0.08308569,-0.348041,-35.8974,-25.34668,43.36911
18.600749493,3.290077,9.38187199999997,-1.147618,0.9437579,-0.07571297,-0.3585874,-35.8974,-25.34668,43.36911
18.610747337,4.643808,9.14446299999999,-1.452472,0.9504309,-0.06782363,-0.3605154,-35.8974,-25.34668,43.36911
18.620745182,5.074541,8.72899499999998,-1.513443,0.9535329,-0.05116575,-0.3523893,-35.8974,-25.34668,43.36911
18.63074255,4.705341,8.19482400000001,-1.26956,0.9527699,-0.03666838,-0.3595703,-35.8974,-25.34668,43.36911
18.640740395,3.659276,7.95741500000002,-0.720822899999998,0.9576064,-0.03456765,-0.3528792,-35.88168,-26.1074,43.37316
18.650738716,2.736278,7.66065299999999,-0.3549984,0.9634703,-0.03541051,-0.3514535,-35.88168,-26.1074,43.37316
18.660736561,2.428612,6.88907200000001,0.31568,0.9599535,-0.02957413,-0.3433131,-35.88168,-26.1074,43.37316
18.670733929,1.813279,5.82073000000003,1.1083,0.9613326,-0.0251778,-0.3437952,-35.88168,-26.1074,43.37316
18.680731773,1.197947,4.811739,2.144803,0.9656298,-0.02009312,-0.3284896,-35.88168,-26.1074,43.37316
18.690729618,-0.2788507,3.743397,3.120335,0.9644651,-0.009876261,-0.3246616,-35.9016,-24.97341,42.52857
18.700726986,-2.001781,2.55635,4.095867,0.9561126,-0.006114272,-0.3203408,-35.9016,-24.97341,42.52857
18.710725307,-3.724712,1.844121,5.193341,0.9572148,-0.0128869,-0.3193838,-35.9016,-24.97341,42.52857
18.720723152,-4.155444,1.30995,5.681107,0.9578922,-0.02312216,-0.3241681,-35.9016,-24.97341,42.52857
18.73072052,-3.847778,0.716426,5.86401899999998,0.960435,-0.02896902,-0.3313497,-35.9016,-24.97341,42.52857
18.740718365,-2.247914,1.191245,5.620136,0.9711199,-0.02743168,-0.345726,-35.51899,-25.35095,42.53339
18.750716209,-0.955716300000001,1.250597,5.620136,0.9739752,-0.02408334,-0.3576962,-35.51899,-25.35095,42.53339
18.760714531,-0.2788507,1.725416,4.949458,0.9785935,-0.01030239,-0.3486149,-35.51899,-25.35095,42.53339
18.770711899,-1.017249,1.666064,4.888487,0.9686173,0.002235878,-0.3375935,-35.51899,-25.35095,42.53339
18.780709743,-2.55558,1.191245,4.827517,0.950518,0.006435996,-0.3174628,-35.51899,-25.35095,42.53339
18.790707588,-4.093911,0.597721199999998,4.827517,0.9505661,0.004081804,-0.3093265,-35.89571,-25.34995,42.98211
18.800704956,-4.216978,0.2416071,4.827517,0.9508319,-0.009965771,-0.3050161,-35.89571,-25.34995,42.98211
18.810702801,-3.724712,0.2416071,4.644604,0.9475215,-0.01540724,-0.308359,-35.89571,-25.34995,42.98211
18.820701122,-3.663178,0.3009594,4.522663,0.9474754,-0.01299598,-0.3102739,-35.89571,-25.34995,42.98211
18.830698967,-3.909311,0.716426,3.973926,0.965493,-0.01280669,-0.3284912,-35.89571,-25.34995,42.98211
18.840696335,-4.401577,1.962826,3.364218,0.9665359,-0.0168096,-0.3433279,-35.53302,-24.59351,42.14233
18.85069418,-5.93990799999998,2.853111,2.632569,0.964633,-0.0192769,-0.3433239,-35.53302,-24.59351,42.14233
18.860692024,-7.66283799999999,3.209226,1.90092,0.9510069,-0.01991362,-0.3303784,-35.53302,-24.59351,42.14233
18.870689392,-8.64737,2.378292,1.474125,0.9496508,-0.02513663,-0.3141031,-35.53302,-24.59351,42.14233
18.880687714,-9.26270200000001,1.547359,0.986358399999998,0.9531358,-0.02888075,-0.3059725,-35.53302,-24.59351,42.14233
18.890685558,-8.955036,1.07254,0.4376215,0.9676124,-0.04694208,-0.2930715,-36.26678,-25.35984,42.14082
18.900682926,-7.97050500000002,0.657073599999999,-0.4159691,0.9876551,-0.05049065,-0.299327,-36.26678,-25.35984,42.14082
18.910680771,-6.24757399999999,0.597721199999998,-1.26956,1.00226,-0.049703,-0.2979169,-36.26678,-25.35984,42.14082
18.920678616,-4.64771,0.8351307,-2.367033,1.006624,-0.04870193,-0.3041463,-36.26678,-25.35984,42.14082
18.930676937,-3.355512,1.07254,-3.70839,1.015279,-0.04278735,-0.3137344,-36.26678,-25.35984,42.14082
18.940673828,-2.370981,0.953835399999999,-5.049747,1.013851,-0.04485143,-0.3237815,-36.64322,-25.35939,42.52504
18.95067215,-1.571049,1.131893,-6.14722099999998,1.001104,-0.04075175,-0.3261532,-36.64322,-25.35939,42.52504
18.960669994,-1.201849,0.597721199999998,-6.81789900000001,0.9869428,-0.03903513,-0.3203861,-36.64322,-25.35939,42.52504
18.970667362,-1.017249,-0.1738595,-7.18372300000002,0.9752743,-0.04011911,-0.3074439,-36.64322,-25.35939,42.52504
18.980665207,-1.201849,-0.9454404,-7.366636,0.9689274,-0.03915419,-0.2945115,-36.64322,-25.35939,42.52504
18.990663052,-1.386449,-1.479612,-7.85440200000002,0.9708528,-0.03752235,-0.2796794,-36.24937,-26.12383,41.75787
19.000661373,-0.832649800000001,-2.013783,-7.91537200000002,0.9671037,-0.04531885,-0.273928,-36.24937,-26.12383,41.75787
19.010658741,0.644147799999998,-2.42925,-8.28119799999998,0.9704669,-0.042849,-0.2768059,-36.24937,-26.12383,41.75787
19.020656586,1.44408,-2.369897,-8.40313799999999,0.9665214,-0.04058937,-0.2868497,-36.24937,-26.12383,41.75787
19.03065443,1.936346,-2.42925,-8.46410900000001,0.9596096,-0.0359016,-0.2906675,-36.24937,-26.12383,41.75787
19.040651798,1.382547,-2.013783,-8.64702100000002,0.9541378,-0.03031,-0.3050167,-36.25892,-25.7402,42.14285
19.050649643,0.4595481,-1.835726,-8.70799300000002,0.9496964,-0.02756544,-0.3141026,-36.25892,-25.7402,42.14285
19.060647964,-0.894183000000003,-1.657669,-8.64702100000002,0.9452659,-0.02524959,-0.3169669,-36.25892,-25.7402,42.14285
19.070645809,-2.001781,-1.479612,-8.58605100000002,0.9454767,-0.03639137,-0.3136144,-36.25892,-25.7402,42.14285
19.080643177,-2.247914,-1.420259,-8.70799300000002,0.9471309,-0.04652399,-0.3093075,-36.2415,-26.50418,41.7599
19.090641022,-1.201849,-1.004793,-8.829934,0.9579122,-0.04967748,-0.3054969,-36.2415,-26.50418,41.7599
19.100638866,0.644147799999998,-0.3519166,-8.890904,0.9642985,-0.05249766,-0.3088573,-36.2415,-26.50418,41.7599
19.110636234,2.305545,0.1822547,-8.76896300000003,0.9597601,-0.04430438,-0.3064586,-36.2415,-26.50418,41.7599
19.120634556,2.859344,0.894483100000001,-8.40313799999999,0.9678119,-0.03202308,-0.3093473,-36.2415,-26.50418,41.7599
19.130632401,2.120945,1.013188,-8.098285,0.9655799,-0.01702931,-0.3122187,-35.87184,-26.49156,42.92369
19.140630245,1.013347,1.131893,-7.61051899999998,0.9611601,-0.01515094,-0.3098186,-35.87184,-26.49156,42.92369
19.150627613,-0.03271778,1.131893,-6.87886999999998,0.9597242,-0.01669854,-0.3165158,-35.87184,-26.49156,42.92369
19.160625458,-0.832649800000001,0.953835399999999,-5.964308,0.9612663,-0.02108103,-0.3208245,-35.87184,-26.49156,42.92369
19.170623779,-1.017249,1.07254,-5.232659,0.9648219,-0.02879023,-0.3213073,-35.87184,-26.49156,42.92369
19.180621147,-1.017249,1.250597,-4.561981,0.9614398,-0.0303061,-0.3203439,-35.86427,-26.87137,42.99022
19.190618992,-0.2173175,1.428654,-4.257127,0.9718151,-0.03787618,-0.32036,-35.86427,-26.87137,42.99022
19.200616837,0.644147799999998,1.428654,-3.769361,0.9707944,-0.03549295,-0.3232303,-35.86427,-26.87137,42.99022
19.210614681,1.321013,1.428654,-3.098683,0.9770085,-0.02904856,-0.3227642,-35.86427,-26.87137,42.99022
19.220612049,1.07488,1.369302,-2.671887,0.9818348,-0.02649279,-0.3194233,-35.86427,-26.87137,42.99022
19.230610371,0.3364816,0.716426,-1.879267,0.9900695,-0.02391794,-0.3213526,-35.86398,-26.87192,42.92571
19.240608215,0.02881546,0.4790165,-1.635384,0.9878064,-0.03322186,-0.3242176,-35.86398,-26.87192,42.92571
19.250605583,-0.4634504,0.06354995,-0.7817937,0.9965194,-0.03014284,-0.3251908,-35.86398,-26.87192,42.92571
19.260603428,-0.0942510000000003,-0.1738595,-0.3549984,0.9936147,-0.03118088,-0.3261426,-35.86398,-26.87192,42.92571
19.270601273,0.2749484,-0.1738595,0.31568,0.9940478,-0.02823036,-0.3232727,-35.86398,-26.87192,42.92571
19.280599594,0.3364816,-0.648678499999998,0.925387699999998,0.9929374,-0.02094563,-0.3213583,-35.50327,-26.11166,42.53744
19.290596962,-0.1557842,-0.767383199999997,1.474125,0.9831291,-0.017808,-0.3289992,-35.50327,-26.11166,42.53744
19.300594807,-0.6480501,-0.648678499999998,1.96189,0.9734143,-0.01945776,-0.3289819,-35.50327,-26.11166,42.53744
19.310592651,-0.894183000000003,-0.826735599999998,2.510627,0.9707006,-0.03071874,-0.3323243,-35.50327,-26.11166,42.53744
19.320590019,-0.4019172,-0.767383199999997,2.937423,0.9576605,-0.0367331,-0.3241642,-35.50327,-26.11166,42.53744
19.330587864,0.705681,-0.826735599999998,3.48616,0.9552093,-0.03573069,-0.3155458,-35.86229,-26.87519,42.53871
19.340586186,1.44408,-1.123497,3.973926,0.9506247,-0.02512617,-0.315062,-35.86229,-26.87519,42.53871
19.35058403,1.567146,-1.242202,4.461692,0.9534463,-0.019747,-0.3174612,-35.86229,-26.87519,42.53871
19.360581398,0.767214200000001,-1.242202,4.949458,0.9553962,-0.01966022,-0.3122002,-35.86229,-26.87519,42.53871
19.370579243,-0.4634504,-1.360907,5.010429,0.95216,-0.02895266,-0.3117136,-35.86229,-26.87519,42.53871
19.380577087,-0.709583300000001,-1.776374,5.010429,0.9561654,-0.03473115,-0.3145906,-35.47798,-27.256,42.15652
19.390574455,-0.2173175,-1.895078,4.766546,0.9591771,-0.03960124,-0.3222518,-35.47798,-27.256,42.15652
19.4005723,0.5210813,-1.835726,4.827517,0.962052,-0.03718053,-0.3294361,-35.47798,-27.256,42.15652
19.410570622,1.07488,-2.132488,4.217809,0.9722716,-0.03651022,-0.3313684,-35.47798,-27.256,42.15652
19.420568466,1.382547,-2.073135,3.669072,0.9771798,-0.03833947,-0.3294622,-35.47798,-27.256,42.15652
19.430565834,1.813279,-2.488602,3.242276,0.9819684,-0.03388016,-0.3304288,-35.1128,-26.86956,42.54427
19.440563679,2.797811,-3.022773,2.510627,0.9838911,-0.03233171,-0.3246896,-35.1128,-26.86956,42.54427
19.450562,4.090009,-3.43824,2.022861,0.9858682,-0.033711,-0.3203855,-35.1128,-26.86956,42.54427
19.460558891,5.25914,-3.794354,1.535095,0.9837383,-0.02400354,-0.3170343,-35.1128,-26.86956,42.54427
19.470557213,5.566806,-4.150468,1.291212,0.9757999,-0.01634584,-0.3127153,-35.1128,-26.86956,42.54427
19.480555058,5.689873,-4.091116,1.1083,0.9703757,-0.01311721,-0.3198853,-35.87015,-26.49483,42.53669
19.490552902,5.505273,-4.20982,0.925387699999998,0.9615071,-0.007955846,-0.3208283,-35.87015,-26.49483,42.53669
19.50055027,4.643808,-4.328525,0.925387699999998,0.9596229,-0.01138589,-0.319867,-35.87015,-26.49483,42.53669
19.510548115,3.35161,-4.44723,1.169271,0.9537507,-0.01003092,-0.3184214,-35.87015,-26.49483,42.53669
19.520546436,2.736278,-4.44723,1.291212,0.9581611,-0.01142793,-0.3213001,-35.87015,-26.49483,42.53669
19.530543804,2.859344,-4.684639,1.047329,0.9612098,-0.01822352,-0.3270466,-35.87801,-26.11448,42.53466
19.540541649,3.290077,-4.269173,1.1083,0.9670814,-0.01960043,-0.3308851,-35.87801,-26.11448,42.53466
19.550539494,3.720809,-4.031764,0.925387699999998,0.9723513,-0.01454478,-0.3208455,-35.87801,-26.11448,42.53466
19.560537338,3.597743,-3.616297,0.620533899999998,0.963753,0.00235471,-0.3141348,-35.87801,-26.11448,42.53466
19.570534706,2.859344,-3.853706,0.5595631,0.9646294,0.007796337,-0.3055234,-35.87801,-26.11448,42.53466
19.580533028,1.567146,-3.675649,0.31568,0.9641695,0.006325041,-0.3060008,-35.51113,-25.73131,42.53541
19.590530872,0.1518819,-3.556944,0.0717969800000001,0.9648571,-0.004360863,-0.3069564,-35.51113,-25.73131,42.53541
19.60052824,-0.3403839,-3.022773,-0.1720861,0.9675565,-0.01842177,-0.3093503,-35.51113,-25.73131,42.53541
19.610526085,0.705681,-2.844716,-0.3549984,0.9707147,-0.03104649,-0.3150955,-35.51113,-25.73131,42.53541
19.62052393,2.551678,-2.547954,-0.720822899999998,0.9755027,-0.02660912,-0.318455,-35.51113,-25.73131,42.53541
19.630522251,3.53621,-2.310545,-1.086647,0.9763309,-0.01881769,-0.3184585,-35.12433,-26.48212,43.38075
19.640519619,3.290077,-1.717021,-1.330531,0.9877213,-0.002530265,-0.3156111,-35.12433,-26.48212,43.38075
19.650517464,1.997879,-1.18285,-1.574414,0.9894817,0.007823336,-0.3031738,-35.12433,-26.48212,43.38075
19.660515308,0.8287475,-0.589326100000003,-1.940238,0.9865476,0.008176739,-0.3113046,-35.12433,-26.48212,43.38075
19.670512676,0.3364816,-0.2925643,-2.06218,0.9817965,0.001809495,-0.3065089,-34.75378,-26.10604,42.543
19.680510521,0.3364816,0.4196641,-2.245092,0.9834668,-0.00936048,-0.3093804,-34.75378,-26.10604,42.543
19.690508842,1.136414,1.191245,-2.367033,0.9792104,-0.01625653,-0.3103284,-34.75378,-26.10604,42.543
19.700506687,2.059412,1.903473,-2.610917,0.979605,-0.01142879,-0.3146375,-34.75378,-26.10604,42.543
19.710504055,2.120945,2.615702,-2.306063,0.9760217,-0.002271085,-0.3151121,-34.75378,-26.10604,42.543
19.7205019,1.382547,2.971816,-2.001209,0.9725972,-0.001257202,-0.303142,-34.39057,-25.71579,43.38226
19.730499744,0.2749484,3.684045,-1.574414,0.9725505,0.001136492,-0.3069712,-34.39057,-25.71579,43.38226
19.740497112,-1.017249,4.57433,-1.330531,0.9735886,-0.002244589,-0.3069721,-34.39057,-25.71579,43.38226
19.750495434,-1.509515,5.405263,-0.903735200000002,0.9786592,-0.01287021,-0.3108068,-34.39057,-25.71579,43.38226
19.760493278,-1.632582,6.117492,-0.598881400000002,0.9855582,-0.01719073,-0.3199107,-34.39057,-25.71579,43.38226
19.770491123,-1.632582,7.06713000000001,-0.3549984,0.9870389,-0.01809826,-0.3160844,-35.13808,-25.72523,42.92519
19.780488491,-1.940248,7.779358,-0.1111153,0.9904851,-0.01997394,-0.31609,-35.13808,-25.72523,42.92519
19.790486336,-2.309447,8.254177,-0.05014454,0.9943091,-0.01601086,-0.3160976,-35.13808,-25.72523,42.92519
19.800484657,-3.047846,8.610291,0.2547093,0.9840904,-0.01665044,-0.3108153,-35.13808,-25.72523,42.92519
19.810481548,-3.786245,8.78834800000002,0.7424754,0.9802698,-0.02051257,-0.2998004,-35.13808,-25.72523,42.92519
19.82047987,-4.46311,8.84769999999998,1.474125,0.9721264,-0.02794065,-0.2973914,-34.76951,-25.34533,42.53894
19.830477714,-4.955376,9.14446299999999,1.90092,0.9697555,-0.03136715,-0.2949935,-34.76951,-25.34533,42.53894
19.840475559,-5.263042,9.38187199999997,2.449656,0.9643413,-0.02859795,-0.299292,-34.76951,-25.34533,42.53894
19.850472927,-5.447642,9.38187199999997,2.815481,0.9576218,-0.03408484,-0.300236,-34.76951,-25.34533,42.53894
19.860471249,-6.001441,10.15345,3.181306,0.9567177,-0.03808234,-0.3102835,-34.76951,-25.34533,42.53894
19.870469093,-7.04750599999997,10.62827,3.364218,0.9631637,-0.04443014,-0.3275218,-35.87801,-26.11448,42.53466
19.880466938,-7.35517199999998,10.98439,3.425189,0.9610119,-0.05950614,-0.3241642,-35.87801,-26.11448,42.53466
19.890464306,-6.678307,11.3405,3.303247,0.9660287,-0.06719086,-0.3251281,-35.87801,-26.11448,42.53466
19.900462151,-5.139976,11.39985,2.998394,0.970504,-0.07196186,-0.3251347,-35.87801,-26.11448,42.53466
19.910460472,-3.047846,11.39985,2.75451,0.9725803,-0.07871964,-0.324658,-35.87801,-26.11448,42.53466
19.920457363,-0.894183000000003,11.10309,2.205774,0.9871494,-0.07595383,-0.3194198,-35.87632,-26.11774,42.14766
19.930455685,0.951813900000003,10.98439,1.839949,0.9953287,-0.07048196,-0.323264,-35.87632,-26.11774,42.14766
19.940453529,2.305545,11.16244,1.230241,0.9938958,-0.0719374,-0.3199111,-35.87632,-26.11774,42.14766
19.950451374,3.53621,10.86568,0.925387699999998,0.9923131,-0.06573915,-0.3294815,-35.87632,-26.11774,42.14766
19.960448742,4.828408,10.56892,0.925387699999998,0.9843559,-0.0571231,-0.3265984,-35.87632,-26.11774,42.14766
19.970446587,5.074541,10.03475,1.047329,0.9822066,-0.04647924,-0.3270759,-36.6258,-26.12337,42.1421
19.980444908,4.213075,9.02575799999998,1.474125,0.9747553,-0.0388119,-0.3227578,-36.6258,-26.12337,42.1421
19.990442276,3.16701,7.54194799999998,2.083832,0.9643486,-0.02914077,-0.3055134,-36.6258,-26.12337,42.1421
20.000440121,1.567146,6.23619700000001,3.181306,0.9600105,-0.03164741,-0.304548,-36.6258,-26.12337,42.1421
20.010437965,0.951813900000003,5.108501,3.730042,0.9527054,-0.03174788,-0.2997495,-36.6258,-26.12337,42.1421
20.020436287,0.644147799999998,3.743397,4.33975,0.9478986,-0.03523127,-0.2983045,-35.87265,-26.12483,41.30915
20.030433178,0.3364816,2.675054,5.13237,0.9449772,-0.03524952,-0.2939922,-35.87265,-26.12483,41.30915
20.040431499,0.02881546,1.666064,5.620136,0.9449214,-0.03236567,-0.2973429,-35.87265,-26.12483,41.30915
20.050429344,-0.2788507,0.5383689,5.742078,0.947988,-0.04014595,-0.3045248,-35.87265,-26.12483,41.30915
20.060426712,-0.2173175,-0.2925643,5.92499000000001,0.9464973,-0.03877898,-0.3112227,-35.87265,-26.12483,41.30915
20.070424557,0.5826145,-1.004793,5.80304899999998,0.9572926,-0.04303567,-0.3217691,-36.99885,-26.12945,41.75231
20.080422401,1.07488,-1.479612,5.681107,0.9582377,-0.04161621,-0.3279926,-36.99885,-26.12945,41.75231
20.090420723,0.951813900000003,-1.776374,5.80304899999998,0.9677789,-0.03074576,-0.3289692,-36.99885,-26.12945,41.75231
20.100418091,-0.2788507,-1.776374,5.80304899999998,0.980436,-0.02996588,-0.3242056,-36.99885,-26.12945,41.75231
20.110415936,-1.571049,-2.42925,6.10790299999999,0.9873762,-0.03608021,-0.3170376,-36.99885,-26.12945,41.75231
20.12041378,-1.940248,-3.022773,5.92499000000001,0.9917547,-0.03539372,-0.3046024,-37.00671,-25.7491,41.75029
20.130411625,-2.247914,-3.556944,5.92499000000001,0.9942553,-0.03870643,-0.3002987,-37.00671,-25.7491,41.75029
20.140408993,-2.309447,-3.972411,5.742078,0.9928345,-0.04055106,-0.286417,-37.00671,-25.7491,41.75029
20.150407314,-2.124848,-4.743992,5.559165,0.9894258,-0.0405877,-0.2830611,-37.00671,-25.7491,41.75029
20.160405159,-2.001781,-5.278163,5.254312,0.9908149,-0.03665079,-0.2806716,-37.00671,-25.7491,41.75029
20.170402527,-1.632582,-5.69363,4.766546,0.9870166,-0.04212383,-0.2864065,-37.01457,-25.36874,41.74826
20.180400372,-1.632582,-5.45622,4.095867,0.9776517,-0.0364907,-0.2878273,-37.01457,-25.36874,41.74826
20.190398216,-1.632582,-5.218811,3.303247,0.9701005,-0.02346684,-0.2820746,-37.01457,-25.36874,41.74826
20.200396538,-2.001781,-5.278163,2.449656,0.9655622,-0.01526918,-0.2791974,-37.01457,-25.36874,41.74826
20.210393906,-2.494047,-5.040754,1.90092,0.9641719,-0.01924559,-0.285894,-37.01457,-25.36874,41.74826
20.22039175,-2.001781,-4.44723,1.474125,0.9731011,-0.02790824,-0.2959574,-36.646,-24.98884,41.36201
20.230389595,-1.140316,-3.260183,0.925387699999998,0.9844477,-0.03554685,-0.3055468,-36.646,-24.98884,41.36201
20.240386963,0.0903486900000002,-2.19184,0.681504599999997,0.9839877,-0.03702254,-0.3065027,-36.646,-24.98884,41.36201
20.250384808,1.197947,-1.598316,0.4985923,0.9816852,-0.01806367,-0.3007607,-36.646,-24.98884,41.36201
20.260383129,0.951813900000003,-1.420259,0.4985923,0.9780785,-0.007325782,-0.2878356,-37.02244,-24.98838,41.74623
20.270380974,-0.4019172,-1.123497,0.3766508,0.9770067,-0.001913872,-0.2782636,-37.02244,-24.98838,41.74623
20.280378342,-1.817181,-0.589326100000003,0.3766508,0.9770599,-0.00487672,-0.2835273,-37.02244,-24.98838,41.74623
20.290376186,-2.92478,0.06354995,0.31568,0.9825901,-0.01403983,-0.2878417,-37.02244,-24.98838,41.74623
20.300374031,-2.74018,0.716426,-0.05014454,0.9838741,-0.03054963,-0.2892754,-37.02244,-24.98838,41.74623
20.310372353,-1.694115,1.428654,-0.598881400000002,0.9825654,-0.03891545,-0.2978854,-37.39101,-25.36828,42.13248
20.320369721,-0.4634504,1.903473,-0.964705900000002,0.9819592,-0.03262774,-0.2998002,-37.39101,-25.36828,42.13248
20.330367565,-0.832649800000001,2.378292,-1.330531,0.9771864,-0.01171688,-0.2878329,-37.39101,-25.36828,42.13248
20.34036541,-2.74018,2.259588,-1.330531,0.9638638,-0.002663865,-0.2787191,-37.39101,-25.36828,42.13248
20.350362778,-4.955376,1.547359,-1.208589,0.9620084,-0.007502915,-0.2724931,-37.39101,-25.36828,42.13248
20.360360622,-5.816842,1.369302,-1.147618,0.9715806,-0.02439193,-0.2801627,-36.64153,-25.36266,42.13804
20.370358944,-5.01691,1.428654,-1.513443,0.9871417,-0.04900788,-0.2954979,-36.64153,-25.36266,42.13804
20.380356789,-2.801713,2.378292,-1.940238,0.991179,-0.05687864,-0.3146459,-36.64153,-25.36266,42.13804
20.390354157,-0.5249836,3.268578,-2.488975,0.992468,-0.04758518,-0.310822,-36.64153,-25.36266,42.13804
20.400352001,0.644147799999998,3.149873,-2.732858,0.9873974,-0.03695956,-0.3069873,-36.64153,-25.36266,42.13804
20.410349846,0.705681,2.615702,-3.098683,0.9797905,-0.02104746,-0.3041067,-37.00671,-25.7491,41.75029
20.420347214,-0.586516899999998,2.081531,-3.220624,0.983256,-0.02386393,-0.3007619,-37.00671,-25.7491,41.75029
20.430345535,-2.001781,2.140883,-3.159653,0.9813468,-0.02575769,-0.2911866,-37.00671,-25.7491,41.75029
20.44034338,-3.417045,1.547359,-3.159653,0.9781407,-0.03642403,-0.2816067,-37.00671,-25.7491,41.75029
20.450341225,-3.847778,0.953835399999999,-3.037712,0.9734447,-0.04569267,-0.2753747,-37.00671,-25.7491,41.75029
20.460338593,-2.986313,0.2416071,-2.91577,0.9769626,-0.05149833,-0.2801651,-36.63983,-25.36593,41.75104
20.470336437,-1.878715,-0.589326100000003,-2.91577,0.9731386,-0.0554658,-0.280636,-36.63983,-25.36593,41.75104
20.480334759,-1.694115,-1.123497,-2.732858,0.9735538,-0.05153497,-0.2768091,-36.63983,-25.36593,41.75104
20.490332604,-2.432514,-1.598316,-2.8548,0.9738749,-0.0428387,-0.2830334,-36.63983,-25.36593,41.75104
20.500329971,-4.340044,-1.895078,-2.8548,0.9705361,-0.04685361,-0.2897266,-36.63983,-25.36593,41.75104
20.510327816,-5.87837500000002,-1.657669,-3.159653,0.9707419,-0.0581534,-0.3036027,-37.38315,-25.74864,42.13451
20.520325661,-5.693775,-1.360907,-3.647419,0.9730821,-0.0790202,-0.3055157,-37.38315,-25.74864,42.13451
20.530323029,-4.032378,-1.301555,-4.135185,0.9726218,-0.08050466,-0.3074289,-37.38315,-25.74864,42.13451
20.540320873,-1.817181,-1.064145,-4.683922,0.9687546,-0.08196433,-0.2992859,-37.38315,-25.74864,42.13451
20.550319195,0.3980148,-0.886087999999999,-5.415571,0.9650983,-0.06892491,-0.3002401,-37.38315,-25.74864,42.13451
20.56031704,1.567146,-0.648678499999998,-5.90333699999997,0.9717285,-0.05851896,-0.2925971,-36.99099,-26.50981,41.75434
20.570314407,1.751746,-0.1145072,-6.33013299999999,0.9705546,-0.04781635,-0.2887692,-36.99099,-26.50981,41.75434
20.580312252,1.505613,0.2416071,-6.45207400000002,0.9680921,-0.04639403,-0.2873296,-36.99099,-26.50981,41.75434
20.590310574,1.25948,0.657073599999999,-6.33013299999999,0.9598202,-0.04705216,-0.2882721,-36.99099,-26.50981,41.75434
20.600307465,1.628679,0.775778400000001,-5.84236700000003,0.9612979,-0.04805187,-0.2944959,-36.99099,-26.50981,41.75434
20.610305786,2.120945,1.07254,-4.988776,0.9587339,-0.04132128,-0.2968861,-36.2415,-26.50418,41.7599
20.620303631,2.182479,1.131893,-4.379068,0.9620148,-0.03448838,-0.3007221,-36.2415,-26.50418,41.7599
20.630301475,1.813279,1.191245,-3.647419,0.9608218,-0.02284496,-0.3002445,-36.2415,-26.50418,41.7599
20.640298843,1.013347,1.488007,-2.976741,0.9652176,-0.02316071,-0.2911592,-36.2415,-26.50418,41.7599
20.650296688,0.3364816,1.725416,-2.549946,0.9705308,-0.0206041,-0.2887762,-36.2415,-26.50418,41.7599
20.66029501,0.1518819,1.725416,-2.184121,0.9755753,-0.02973732,-0.2887826,-36.98312,-26.89016,41.75637
20.670292854,0.3980148,1.725416,-1.635384,0.9789293,-0.02678611,-0.2921392,-36.98312,-26.89016,41.75637
20.680290222,0.951813900000003,1.369302,-1.26956,0.9847475,-0.02520457,-0.2911927,-36.98312,-26.89016,41.75637
20.690288067,1.382547,1.369302,-0.720822899999998,0.9828148,-0.02629359,-0.2998034,-36.98312,-26.89016,41.75637
20.700285911,1.44408,1.07254,-0.05014454,0.9870989,-0.02084604,-0.2978979,-36.98312,-26.89016,41.75637
20.710283279,0.5826145,0.775778400000001,0.31568,0.9870535,-0.01841285,-0.2974199,-36.99885,-26.12945,41.75231
20.720281601,0.2134152,0.3009594,0.803446099999999,0.9885598,-0.02083034,-0.2993362,-36.99885,-26.12945,41.75231
20.730279446,-0.4019172,0.3603118,1.169271,0.9797193,-0.0171087,-0.2983646,-36.99885,-26.12945,41.75231
20.74027729,-1.201849,0.2416071,1.291212,0.9841946,-0.02187531,-0.2978926,-36.99885,-26.12945,41.75231
20.750274658,-1.755648,0.1229023,1.535095,0.9789631,-0.02881255,-0.3012317,-36.99885,-26.12945,41.75231
20.760272503,-1.878715,-0.05515479,1.596066,0.980039,-0.03409718,-0.2969251,-36.60838,-26.88735,41.75915
20.770270824,-1.694115,-0.1145072,1.413154,0.9821566,-0.04341543,-0.3108051,-36.60838,-26.88735,41.75915
20.780268669,-1.078783,-0.1145072,1.169271,0.9817603,-0.04829583,-0.3122388,-36.60838,-26.88735,41.75915
20.790266037,-0.0942510000000003,-0.05515479,0.5595631,0.985703,-0.05064327,-0.3117665,-36.60838,-26.88735,41.75915
20.800263882,0.8287475,-0.2332119,0.31568,0.9924771,-0.04807094,-0.3108219,-36.61625,-26.507,41.75713
20.810261726,1.505613,-0.3519166,-0.1111153,0.988435,-0.0403538,-0.3084239,-36.61625,-26.507,41.75713
20.820259094,1.813279,-0.411269,-0.4769399,0.9852941,-0.02873133,-0.3060285,-36.61625,-26.507,41.75713
20.830257416,1.751746,-0.767383199999997,-0.4769399,0.9843827,-0.03218164,-0.3093761,-36.61625,-26.507,41.75713
20.84025526,1.690213,-1.064145,-0.598881400000002,0.9742072,-0.03533341,-0.3131861,-36.61625,-26.507,41.75713
20.850253105,2.244012,-1.123497,-0.720822899999998,0.9768146,-0.04455865,-0.3179741,-36.99099,-26.50981,41.75434
20.860250473,3.597743,-1.301555,-0.964705900000002,0.9715954,-0.0518851,-0.3107845,-36.99099,-26.50981,41.75434
20.870248318,5.44374,-2.132488,-1.086647,0.9684905,-0.04221884,-0.3098244,-36.99099,-26.50981,41.75434
20.880246639,6.48980500000002,-2.726011,-1.147618,0.9629248,-0.03108196,-0.3021603,-36.99099,-26.50981,41.75434
20.890244484,6.55133799999999,-3.319535,-1.086647,0.9593691,-0.02337715,-0.3021561,-36.99099,-26.50981,41.75434
20.900241852,5.505273,-3.853706,-0.7817937,0.9576618,-0.0102773,-0.3007208,-36.6258,-26.12337,42.1421
20.910239696,4.090009,-3.972411,-0.5379106,0.9505097,-0.01869715,-0.3026205,-36.6258,-26.12337,42.1421
20.920237541,3.16701,-4.625287,-0.3549984,0.945802,-0.02756343,-0.3054814,-36.6258,-26.12337,42.1421
20.930234909,3.720809,-5.040754,-0.1111153,0.9523506,-0.03918437,-0.3150614,-36.6258,-26.12337,42.1421
20.940233231,4.213075,-5.69363,0.1937385,0.957599,-0.03325816,-0.3160292,-36.6258,-26.12337,42.1421
20.950231075,4.213075,-5.69363,0.3766508,0.9691422,-0.0252989,-0.3208372,-36.61794,-26.50373,42.14413
20.96022892,3.597743,-6.22780099999998,0.5595631,0.9664733,-0.01259871,-0.3079142,-36.61794,-26.50373,42.14413
20.970226288,2.367078,-6.64326800000002,0.7424754,0.9766658,-0.01046235,-0.3088897,-36.61794,-26.50373,42.14413
20.980224133,0.767214200000001,-6.99938200000001,0.803446099999999,0.9747019,-0.009441535,-0.299315,-36.61794,-26.50373,42.14413
20.990222454,-0.2173175,-7.41484800000003,1.1083,0.9767639,-0.01510489,-0.2854384,-36.61794,-26.50373,42.14413
21.000220299,-0.0942510000000003,-8.245782,1.1083,0.9701163,-0.02451298,-0.2902102,-36.24319,-26.50091,42.1469
21.010217667,0.5210813,-8.60189500000002,1.413154,0.9721097,-0.02692085,-0.2921273,-36.24319,-26.50091,42.1469
21.020215511,1.07488,-8.542543,1.535095,0.9726299,-0.028964,-0.3040921,-36.24319,-26.50091,42.1469
21.030213356,1.25948,-8.42383900000002,1.474125,0.9719236,-0.01731974,-0.3045725,-36.24319,-26.50091,42.1469
21.040210724,0.5826145,-7.94901899999999,1.352183,0.9694891,-0.01733713,-0.3012182,-36.24319,-26.50091,42.1469
21.050209045,-0.2173175,-8.00837199999998,1.352183,0.9699853,-0.01781327,-0.3012189,-36.25275,-26.11729,42.53188
21.06020689,-0.5249836,-8.067724,1.352183,0.9699765,-0.01731873,-0.3002619,-36.25275,-26.11729,42.53188
21.070204735,-0.586516899999998,-7.71161000000001,1.291212,0.9735258,-0.02445439,-0.2911733,-36.25275,-26.11729,42.53188
21.080202103,0.1518819,-7.17743899999998,1.230241,0.9822853,-0.02377345,-0.2887958,-36.25275,-26.11729,42.53188
21.090199947,0.5826145,-6.58391499999997,0.925387699999998,0.9794639,-0.02914823,-0.2859181,-36.25275,-26.11729,42.53188
21.100198269,1.136414,-6.10909600000003,0.803446099999999,0.9798802,-0.0251823,-0.2782626,-35.86229,-26.87519,42.53871
21.110196114,1.567146,-5.69363,0.5595631,0.973446,-0.02000792,-0.2830385,-35.86229,-26.87519,42.53871
21.120193481,1.44408,-4.922049,0.2547093,0.9910085,-0.02114069,-0.2854617,-35.86229,-26.87519,42.53871
21.130191326,1.013347,-3.616297,0.01082622,0.9963464,-0.02012915,-0.2926499,-35.86229,-26.87519,42.53871
21.140189171,0.3980148,-2.547954,-0.4159691,0.9992955,-0.02155941,-0.2960047,-35.86229,-26.87519,42.53871
21.150186539,0.0903486900000002,-1.360907,-0.4159691,1.012548,-0.02664733,-0.2965051,-35.87632,-26.11774,42.14766
21.16018486,0.4595481,-0.1145072,-0.720822899999998,1.017534,-0.03296694,-0.3075194,-35.87632,-26.11774,42.14766
21.170182705,1.628679,1.131893,-0.903735200000002,1.013739,-0.0383478,-0.3032042,-35.87632,-26.11774,42.14766
21.18018055,2.428612,2.615702,-0.659852100000001,1.007215,-0.02825876,-0.3017597,-35.87632,-26.11774,42.14766
21.190177918,2.428612,4.040159,-0.3549984,1.001118,-0.01467637,-0.2912239,-35.87632,-26.11774,42.14766
21.200175762,1.628679,5.286559,-0.3549984,0.9995841,-0.01079281,-0.2883508,-35.51113,-25.73131,42.53541
21.210174084,0.705681,6.82971999999999,-0.1720861,0.9976869,-0.01385561,-0.3003111,-35.51113,-25.73131,42.53541
21.220171928,0.1518819,8.19482400000001,0.31568,0.983076,-0.01406971,-0.2921498,-35.51113,-25.73131,42.53541
21.230169296,0.0903486900000002,9.26316700000002,0.986358399999998,0.9817512,-0.02139378,-0.2931027,-35.51113,-25.73131,42.53541
21.240167141,0.644147799999998,10.50957,1.718008,0.9837544,-0.02426985,-0.2931055,-35.51113,-25.73131,42.53541
21.250164986,0.5210813,11.63726,2.388686,0.9960692,-0.03131128,-0.2926466,-35.49371,-26.49529,42.15247
21.260163307,1.013347,12.5869,3.242276,0.995749,-0.01433597,-0.2955218,-35.49371,-26.49529,42.15247
21.270160198,-0.2173175,13.35848,4.095867,0.991248,-0.008059409,-0.2902513,-35.49371,-26.49529,42.15247
21.28015852,-2.186381,13.8333,5.010429,0.9799265,-0.001948301,-0.2883188,-35.49371,-26.49529,42.15247
21.290156365,-5.201509,14.07071,6.35178600000003,0.9806528,-0.01450263,-0.2811382,-35.49371,-26.49529,42.15247
21.300153732,-7.539772,14.54553,7.08343500000003,0.9868912,-0.03524855,-0.2782722,-35.88587,-25.73412,42.53263
21.310151577,-7.724371,14.48618,7.51023000000002,0.978533,-0.05731176,-0.2816021,-35.88587,-25.73412,42.53263
21.320149899,-6.49370699999998,14.78294,7.754113,0.9777488,-0.06758028,-0.2868623,-35.88587,-25.73412,42.53263
21.330147743,-4.83231,14.72359,7.99799599999998,0.9724274,-0.0696204,-0.2858954,-35.88587,-25.73412,42.53263
21.340145111,-3.909311,14.66423,7.754113,0.9644597,-0.06056248,-0.2877981,-35.88587,-25.73412,42.53263
21.350142956,-3.970845,14.90164,7.44925899999998,0.9692755,-0.05756923,-0.2897216,-36.63197,-25.74628,41.75307
21.360140801,-4.340044,15.0797,7.022464,0.9752042,-0.06178609,-0.2854237,-36.63197,-25.74628,41.75307
21.370139122,-4.401577,15.1984,6.29081499999999,0.9760158,-0.07938678,-0.2988207,-36.63197,-25.74628,41.75307
21.380136013,-3.293979,15.37646,5.559165,0.9874825,-0.09329639,-0.3036228,-36.63197,-25.74628,41.75307
21.390134335,-0.894183000000003,15.37646,4.888487,0.993628,-0.1092374,-0.3065009,-37.00502,-25.75236,41.36328
21.400132179,1.505613,15.25776,4.217809,0.9874722,-0.09284575,-0.3074516,-37.00502,-25.75236,41.36328
21.410129547,2.982411,15.0797,3.851984,0.9853081,-0.08112502,-0.2964436,-37.00502,-25.75236,41.36328
21.420127392,3.53621,14.72359,3.54713,0.9820036,-0.0607369,-0.2916573,-37.00502,-25.75236,41.36328
21.430125237,2.859344,14.42682,3.364218,0.9749662,-0.04917825,-0.2878194,-37.00502,-25.75236,41.36328
21.440123558,1.505613,13.71459,3.48616,0.9715207,-0.04728062,-0.285421,-37.37977,-25.75518,41.3605
21.450120926,0.8287475,13.23978,3.54713,0.966355,-0.05756113,-0.2825379,-37.37977,-25.75518,41.3605
21.460118771,1.013347,12.52755,3.791013,0.9556924,-0.06071815,-0.2858685,-37.37977,-25.75518,41.3605
21.470116615,1.936346,11.57791,3.791013,0.9518421,-0.06319323,-0.2825112,-37.37977,-25.75518,41.3605
21.480114937,2.613211,10.50957,4.034896,0.9570978,-0.05780982,-0.2897003,-37.37977,-25.75518,41.3605
21.490111828,2.982411,9.61928199999999,3.851984,0.9599232,-0.05231215,-0.279178,-37.75253,-25.7618,40.90622
21.500110149,3.228544,8.55093899999998,3.791013,0.9608501,-0.04991677,-0.2849231,-37.75253,-25.7618,40.90622
21.510107994,3.290077,7.72000599999998,3.730042,0.9615679,-0.03632692,-0.2882779,-37.75253,-25.7618,40.90622
21.520105839,2.551678,6.65166300000002,3.851984,0.9645627,-0.0401816,-0.2911536,-37.75253,-25.7618,40.90622
21.530103207,1.628679,5.76137699999998,3.791013,0.9693008,-0.03267605,-0.2777637,-37.75253,-25.7618,40.90622
21.540101051,0.951813900000003,4.455625,4.034896,0.9724399,-0.04435558,-0.2863805,-38.51604,-25.00999,40.5096
21.550099373,0.1518819,3.505987,4.095867,0.979348,-0.04916186,-0.2954843,-38.51604,-25.00999,40.5096
21.560096741,0.2134152,2.496997,4.034896,0.9808839,-0.05297079,-0.2902216,-38.51604,-25.00999,40.5096
21.570094586,0.3980148,1.369302,4.156838,0.9793494,-0.04911797,-0.2906985,-38.51604,-25.00999,40.5096
21.58009243,-0.4019172,0.597721199999998,4.156838,0.9885791,-0.04741199,-0.2835364,-38.51604,-25.00999,40.5096
21.590090275,-1.324916,-0.5299737,4.034896,0.9943525,-0.04337969,-0.2801975,-38.14917,-24.62682,40.51035
21.600087643,-2.063314,-1.360907,3.851984,0.9870559,-0.04397909,-0.2768345,-38.14917,-24.62682,40.51035
21.610085964,-2.74018,-2.310545,3.730042,0.9797153,-0.04210139,-0.2682079,-38.14917,-24.62682,40.51035
21.620083809,-2.92478,-3.319535,3.120335,0.9740244,-0.05050115,-0.2710673,-38.14917,-24.62682,40.51035
21.630081654,-2.494047,-3.853706,2.632569,0.9696153,-0.04905587,-0.2629241,-38.14917,-24.62682,40.51035
21.640079021,-1.817181,-4.565935,1.96189,0.9593326,-0.04630391,-0.2585998,-38.51604,-25.00999,40.5096
21.650076866,-1.386449,-5.278163,1.1083,0.9530838,-0.05075697,-0.2538019,-38.51604,-25.00999,40.5096
21.660075188,-0.7711166,-5.574925,0.3766508,0.9588845,-0.04817756,-0.2499841,-38.51604,-25.00999,40.5096
21.670073032,0.02881546,-5.75298199999998,-0.4159691,0.9701017,-0.04907259,-0.2657965,-38.51604,-25.00999,40.5096
21.6800704,1.136414,-5.634277,-1.208589,0.9745484,-0.05242141,-0.269632,-38.51604,-25.00999,40.5096
21.690068245,1.997879,-5.515573,-1.940238,0.9773605,-0.04656526,-0.2729884,-39.26384,-25.01888,40.11703
21.70006609,2.490145,-5.574925,-2.610917,0.9810966,-0.03763922,-0.2615114,-39.26384,-25.01888,40.11703
21.710063457,1.936346,-5.337515,-2.976741,0.9886787,-0.0263654,-0.2672704,-39.26384,-25.01888,40.11703
21.720061779,1.136414,-5.396868,-3.220624,0.9857206,-0.02444938,-0.2639157,-39.26384,-25.01888,40.11703
21.730059624,0.0903486900000002,-5.396868,-3.464507,0.9911343,-0.02723174,-0.261053,-39.26384,-25.01888,40.11703
21.740057468,-0.709583300000001,-5.218811,-3.525478,0.9931161,-0.02923724,-0.2720632,-38.14917,-24.62682,40.51035
21.750054836,-1.386449,-5.218811,-3.525478,0.9916025,-0.02627254,-0.2634469,-38.14917,-24.62682,40.51035
21.760052681,-1.940248,-5.040754,-3.464507,0.9956088,-0.03202469,-0.2634524,-38.14917,-24.62682,40.51035
21.770051002,-1.878715,-4.803344,-3.769361,0.9911881,-0.03017704,-0.2644024,-38.14917,-24.62682,40.51035
21.780048847,-2.063314,-4.565935,-4.074214,0.9980618,-0.03297443,-0.2663279,-38.14917,-24.62682,40.51035
21.790046215,-1.632582,-4.328525,-4.257127,0.9952016,-0.03647639,-0.2711078,-38.14917,-24.62682,40.51035
21.80004406,-1.447982,-4.091116,-4.257127,0.9925868,-0.02670833,-0.2600985,-38.14917,-24.62682,40.51035
21.810041904,-1.571049,-4.387877,-4.196156,0.9881759,-0.0253245,-0.2586555,-38.14917,-24.62682,40.51035
21.820040226,-2.001781,-4.44723,-4.318098,0.9944271,-0.02079681,-0.2553174,-38.14917,-24.62682,40.51035
21.830037594,-2.309447,-4.150468,-4.440039,0.9928131,-0.03890943,-0.2663172,-38.14917,-24.62682,40.51035
21.840035439,-2.186381,-3.260183,-4.50101,0.9890327,-0.04536715,-0.2734876,-37.77612,-24.62074,40.90014
21.850033283,-1.386449,-2.488602,-4.988776,0.9867674,-0.0547413,-0.28401,-37.77612,-24.62074,40.90014
21.860030651,-0.2173175,-1.717021,-5.171688,0.9876698,-0.05080085,-0.2801839,-37.77612,-24.62074,40.90014
21.870028496,0.0903486900000002,-1.420259,-5.415571,0.9807695,-0.04652422,-0.2758658,-37.77612,-24.62074,40.90014
21.880026817,-0.3403839,-1.123497,-5.598484,0.980111,-0.03724293,-0.269167,-37.77612,-24.62074,40.90014
21.890024662,-1.078783,-1.360907,-5.78139599999999,0.975765,-0.03922432,-0.2638945,-38.13514,-25.38426,40.90141
21.90002203,-1.571049,-1.301555,-5.537513,0.9796386,-0.03756275,-0.250023,-38.13514,-25.38426,40.90141
21.910019875,-2.247914,-1.598316,-5.3546,0.9782428,-0.04093928,-0.2442768,-38.13514,-25.38426,40.90141
21.920017719,-2.494047,-1.717021,-5.171688,0.9782599,-0.04194592,-0.2481052,-38.13514,-25.38426,40.90141
21.930016041,-2.309447,-1.95443,-5.171688,0.9857001,-0.04918894,-0.2591236,-38.13514,-25.38426,40.90141
21.940013409,-1.509515,-1.538964,-5.415571,0.9842808,-0.05176073,-0.2715634,-37.75451,-25.75799,41.35772
21.950011253,-1.509515,-1.360907,-5.415571,0.9960887,-0.05788415,-0.2758896,-37.75451,-25.75799,41.35772
21.960009098,-1.571049,-1.242202,-5.720425,0.993587,-0.05460656,-0.2840219,-37.75451,-25.75799,41.35772
21.970006943,-1.817181,-1.301555,-5.415571,0.9930739,-0.05311501,-0.2792356,-37.75451,-25.75799,41.35772
21.980004311,-1.694115,-1.242202,-5.598484,0.9956822,-0.06231391,-0.2811521,-37.01289,-25.37201,41.36125
21.990002632,-0.832649800000001,-1.064145,-5.659454,0.9947727,-0.06570716,-0.2782781,-37.01289,-25.37201,41.36125
22.000000477,-0.0942510000000003,-0.9454404,-6.20819099999998,0.9967603,-0.06752832,-0.2691882,-37.01289,-25.37201,41.36125
22.009998322,0.8287475,-0.9454404,-6.39110400000002,0.99021,-0.05596004,-0.2653511,-37.01289,-25.37201,41.36125
22.019995689,1.505613,-0.886087999999999,-6.33013299999999,0.9927257,-0.06034522,-0.2720545,-37.01289,-25.37201,41.36125
22.029993534,1.751746,-0.9454404,-6.14722099999998,0.9808713,-0.05182371,-0.2710789,-37.36993,-26.13935,40.91103
22.039991856,1.628679,-0.886087999999999,-5.84236700000003,0.978811,-0.04610769,-0.2792125,-37.36993,-26.13935,40.91103
22.049989223,0.951813900000003,-0.589326100000003,-5.29363,0.9732979,-0.03794682,-0.2782478,-37.36993,-26.13935,40.91103
22.059987068,-0.5249836,-0.708030899999999,-4.622952,0.9689971,-0.04237017,-0.2744106,-37.36993,-26.13935,40.91103
22.069984913,-1.140316,-0.4706214,-4.257127,0.9632592,-0.04838063,-0.2815777,-37.36993,-26.13935,40.91103
22.079982758,-0.709583300000001,-0.1738595,-3.891303,0.9654081,-0.05903766,-0.2825359,-37.36573,-26.51262,41.75156
22.089980125,0.2749484,-0.05515479,-3.647419,0.9635243,-0.06245016,-0.2796603,-37.36573,-26.51262,41.75156
22.099978447,1.567146,0.2416071,-3.342566,0.9667717,-0.05358203,-0.2734467,-37.36573,-26.51262,41.75156
22.109976292,1.751746,0.3603118,-2.91577,0.9650549,-0.04000958,-0.2734472,-37.36573,-26.51262,41.75156
22.119974136,1.751746,0.2416071,-2.732858,0.9645422,-0.03850925,-0.2677038,-37.36573,-26.51262,41.75156
22.129971504,1.567146,0.1822547,-2.245092,0.9684728,-0.04045869,-0.276803,-37.3719,-26.13553,41.36253
22.139969349,1.874812,-0.1145072,-1.940238,0.9694097,-0.03852274,-0.2796767,-37.3719,-26.13553,41.36253
22.14996767,1.874812,-0.2925643,-1.26956,0.9727477,-0.03452978,-0.2753763,-37.3719,-26.13553,41.36253
22.159965515,1.628679,-0.4706214,-1.086647,0.9771117,-0.03352871,-0.2816057,-37.3719,-26.13553,41.36253
22.169962883,1.136414,-0.411269,-0.4769399,0.9799643,-0.0294927,-0.2715616,-37.3719,-26.13553,41.36253
22.179960728,0.705681,-0.9454404,-0.1720861,0.9859341,-0.03627883,-0.2825775,-37.36993,-26.13935,40.91103
22.189958572,0.5826145,-1.064145,0.31568,0.9869245,-0.03729255,-0.289279,-37.36993,-26.13935,40.91103
22.199956894,0.2749484,-1.18285,0.803446099999999,0.9810892,-0.03786746,-0.2863972,-37.36993,-26.13935,40.91103
22.209954262,0.02881546,-1.360907,1.169271,0.9845335,-0.03980459,-0.2931028,-37.36993,-26.13935,40.91103
22.219952107,-0.1557842,-1.538964,1.413154,0.9937178,-0.03566542,-0.2854627,-37.36993,-26.13935,40.91103
22.229949951,-0.0942510000000003,-1.835726,1.474125,0.9894248,-0.04061842,-0.286411,-36.9893,-26.51307,41.36734
22.239947796,0.2749484,-1.95443,1.535095,0.9820623,-0.03788333,-0.2902276,-36.9893,-26.51307,41.36734
22.249945164,0.767214200000001,-1.95443,1.413154,0.9826217,-0.04178174,-0.2926204,-36.9893,-26.51307,41.36734
22.259943485,0.890280700000001,-1.835726,1.169271,0.980548,-0.03494496,-0.2844828,-36.9893,-26.51307,41.36734
22.26994133,0.767214200000001,-1.479612,1.1083,0.9692807,-0.03176159,-0.2839854,-36.9893,-26.51307,41.36734
22.279938698,0.705681,-1.598316,1.1083,0.9693606,-0.03620367,-0.2916416,-37.37162,-26.13608,41.29803
22.289936543,0.705681,-1.479612,1.1083,0.9674044,-0.03571251,-0.2868525,-37.37162,-26.13608,41.29803
22.299934387,0.5210813,-1.717021,1.596066,0.9662765,-0.02742992,-0.2820669,-37.37162,-26.13608,41.29803
22.309932709,0.5210813,-1.657669,1.718008,0.9677555,-0.02839013,-0.2839836,-37.37162,-26.13608,41.29803
22.319930077,0.2749484,-1.95443,1.96189,0.9681443,-0.02297568,-0.2772856,-37.37162,-26.13608,41.29803
22.329927921,-0.4634504,-1.835726,2.144803,0.9714454,-0.01705285,-0.2744214,-36.98732,-26.51689,40.91584
22.339925766,-0.955716300000001,-1.776374,2.266744,0.9793116,-0.02079812,-0.2758699,-36.98732,-26.51689,40.91584
22.349923611,-1.324916,-1.895078,2.144803,0.9858708,-0.03286094,-0.280664,-36.98732,-26.51689,40.91584
22.359920979,-0.586516899999998,-2.013783,2.144803,0.9951603,-0.03468258,-0.2873797,-36.98732,-26.51689,40.91584
22.3699193,0.2749484,-1.895078,2.266744,1.004965,-0.03792115,-0.290746,-36.98732,-26.51689,40.91584
22.379917145,1.321013,-2.19184,1.96189,1.005848,-0.03304868,-0.2912274,-36.99716,-26.13272,41.36531
22.38991499,1.628679,-2.42925,2.144803,1.008627,-0.02514853,-0.2835771,-36.99716,-26.13272,41.36531
22.399912357,1.505613,-2.666659,2.083832,1.012406,-0.01875226,-0.2831067,-36.99716,-26.13272,41.36531
22.409910202,0.8287475,-2.963421,2.205774,1.003594,-0.01642645,-0.2754347,-36.99716,-26.13272,41.36531
22.419908524,0.4595481,-2.726011,2.022861,0.9916088,-0.02684609,-0.2730183,-36.99716,-26.13272,41.36531
22.429906368,0.767214200000001,-3.141478,2.022861,0.982939,-0.03243292,-0.280659,-36.61625,-26.507,41.75713
22.439903736,1.321013,-3.141478,2.266744,0.9756774,-0.03502364,-0.28256,-36.61625,-26.507,41.75713
22.449901581,1.813279,-3.141478,1.96189,0.9640133,-0.03674262,-0.2858892,-36.61625,-26.507,41.75713
22.459899426,1.997879,-3.082125,1.90092,0.9633897,-0.02945265,-0.2844543,-36.61625,-26.507,41.75713
22.469897747,1.567146,-2.963421,1.778978,0.9608544,-0.02413984,-0.2825369,-36.61625,-26.507,41.75713
22.479895592,0.8287475,-3.141478,1.413154,0.9589521,-0.02658959,-0.2806186,-37.3719,-26.13553,41.36253
22.48989296,0.705681,-2.904068,1.047329,0.963923,-0.03185428,-0.2825403,-37.3719,-26.13553,41.36253
22.499890804,0.0903486900000002,-2.785364,0.7424754,0.9595841,-0.03438726,-0.2844464,-37.3719,-26.13553,41.36253
22.509888172,-0.0942510000000003,-2.726011,0.1937385,0.9674597,-0.03860952,-0.2849376,-37.3719,-26.13553,41.36253
22.519886017,0.3980148,-2.488602,-0.05014454,0.9747476,-0.0375112,-0.2868649,-36.99716,-26.13272,41.36531
22.529884339,0.951813900000003,-2.42925,-0.4159691,0.9895332,-0.04648267,-0.2902384,-36.99716,-26.13272,41.36531
22.539882183,1.25948,-2.547954,-0.7817937,0.9912794,-0.03580571,-0.2955085,-36.99716,-26.13272,41.36531
22.549879551,1.382547,-2.726011,-1.147618,0.9995435,-0.0346223,-0.2902589,-36.99716,-26.13272,41.36531
22.559877396,1.505613,-2.963421,-1.391501,1.004838,-0.03111172,-0.2897904,-36.99716,-26.13272,41.36531
22.56987524,1.874812,-2.963421,-1.574414,1.007247,-0.02958437,-0.2874021,-36.62242,-26.12991,41.36809
22.579873562,1.813279,-2.726011,-1.879267,1.000355,-0.0257979,-0.2835625,-36.62242,-26.12991,41.36809
22.589870453,1.997879,-2.963421,-2.06218,0.989576,-0.02258296,-0.2806731,-36.62242,-26.12991,41.36809
22.599868775,2.244012,-2.904068,-2.184121,0.984741,-0.02463541,-0.2820998,-36.62242,-26.12991,41.36809
22.609866619,2.244012,-2.607306,-2.123151,0.9788409,-0.02184071,-0.2825689,-36.62242,-26.12991,41.36809
22.619864464,2.059412,-2.666659,-2.123151,0.9671411,-0.02158593,-0.2825485,-37.00502,-25.75236,41.36328
22.629861832,1.936346,-2.488602,-1.818297,0.9671244,-0.02056612,-0.2772844,-37.00502,-25.75236,41.36328
22.639860153,1.382547,-2.073135,-1.391501,0.9613066,-0.0221345,-0.2767953,-37.00502,-25.75236,41.36328
22.649857998,0.8287475,-1.895078,-1.147618,0.9636608,-0.01769259,-0.2744077,-37.00502,-25.75236,41.36328
22.659855843,0.2134152,-1.479612,-0.8427644,0.9681352,-0.02248992,-0.2772857,-37.00502,-25.75236,41.36328
22.66985321,0.0903486900000002,-1.242202,-0.5379106,0.9779489,-0.02622743,-0.2820876,-36.63028,-25.74955,41.36606
22.679851055,0.2134152,-0.648678499999998,-0.4769399,0.9931498,-0.03126807,-0.2816342,-36.63028,-25.74955,41.36606
22.689849377,0.705681,-0.1145072,-0.3549984,0.9989398,-0.02825558,-0.2835594,-36.63028,-25.74955,41.36606
22.699847221,0.4595481,0.1822547,-0.05014454,0.9983616,-0.02340319,-0.2830811,-36.63028,-25.74955,41.36606
22.709844589,-0.03271778,0.775778400000001,0.4376215,1.002736,-0.02285277,-0.2854817,-36.63028,-25.74955,41.36606
22.719842434,-0.1557842,1.191245,0.620533899999998,1.000851,-0.0262872,-0.284999,-35.88248,-25.74066,41.75863
22.729840279,-0.4634504,1.903473,0.986358399999998,0.9956032,-0.03220026,-0.2825954,-35.88248,-25.74066,41.75863
22.7398386,-0.0942510000000003,2.496997,1.291212,0.9927148,-0.03427127,-0.2902471,-35.88248,-25.74066,41.75863
22.749835491,0.8287475,3.090521,1.718008,0.9820715,-0.03836908,-0.2902274,-35.88248,-25.74066,41.75863
22.759833813,1.25948,3.743397,2.022861,0.9923376,-0.04009686,-0.2888092,-35.88248,-25.74066,41.75863
22.769831657,1.874812,4.336921,2.449656,0.9850296,-0.04028511,-0.2935821,-37.00671,-25.7491,41.75029
22.779829502,1.874812,5.049149,2.69354,0.9854438,-0.03638501,-0.2931053,-37.00671,-25.7491,41.75029
22.78982687,1.013347,5.93943499999998,3.242276,0.9867617,-0.02850495,-0.2844953,-37.00671,-25.7491,41.75029
22.799825191,-0.5249836,6.65166300000002,3.48616,0.9874309,-0.03822372,-0.2859296,-37.00671,-25.7491,41.75029
22.809823036,-1.324916,6.82971999999999,3.851984,0.9839652,-0.03541163,-0.2897529,-37.00671,-25.7491,41.75029
22.819820404,-1.694115,7.18583399999999,4.156838,0.9826047,-0.04077071,-0.2883134,-36.61625,-26.507,41.75713
22.829818249,-2.370981,7.83871000000002,4.522663,0.9885233,-0.04453254,-0.2873656,-36.61625,-26.507,41.75713
22.839816093,-2.801713,8.610291,4.461692,0.9876586,-0.05038092,-0.2873626,-36.61625,-26.507,41.75713
22.849814415,-2.494047,8.96640499999999,4.400721,0.9867852,-0.05572599,-0.2854454,-36.61625,-26.507,41.75713
22.85981226,-2.063314,8.96640499999999,4.522663,0.9828056,-0.05145307,-0.2878325,-36.61625,-26.507,41.75713
22.869809628,-1.878715,9.08511,4.522663,0.9827251,-0.04702855,-0.2820906,-37.01289,-25.37201,41.36125
22.879807472,-1.940248,9.14446299999999,4.522663,0.9798482,-0.0495151,-0.2820849,-37.01289,-25.37201,41.36125
22.889805317,-2.186381,9.26316700000002,4.33975,0.9769704,-0.0520236,-0.2844721,-37.01289,-25.37201,41.36125
22.899802685,-1.817181,9.08511,4.33975,0.9776604,-0.06263489,-0.277292,-37.01289,-25.37201,41.36125
22.909800529,-0.894183000000003,9.08511,4.156838,0.9714023,-0.06660219,-0.2724942,-37.01289,-25.37201,41.36125
22.919798851,0.2749484,8.78834800000002,3.730042,0.971998,-0.07245243,-0.2758438,-37.76039,-25.38145,40.90419
22.929796696,1.382547,8.55093899999998,3.54713,0.973421,-0.07053757,-0.2820683,-37.76039,-25.38145,40.90419
22.939794064,1.690213,8.37288200000001,3.181306,0.9802402,-0.07041162,-0.2830374,-37.76039,-25.38145,40.90419
22.949791908,1.567146,8.55093899999998,2.815481,0.982594,-0.06597847,-0.2816069,-37.76039,-25.38145,40.90419
22.95979023,1.013347,8.254177,2.510627,0.9727421,-0.06035059,-0.2825483,-37.76039,-25.38145,40.90419
22.969788074,0.951813900000003,7.83871000000002,2.266744,0.9718325,-0.06374823,-0.280153,-37.76039,-25.38145,40.90419
22.979785442,0.1518819,7.48259600000002,2.144803,0.9698027,-0.05938853,-0.2772791,-37.76039,-25.38145,40.90419
22.989783287,0.02881546,6.948425,2.022861,0.9756783,-0.06063816,-0.2672389,-37.76039,-25.38145,40.90419
22.999781132,0.2749484,6.41425300000001,2.083832,0.9713117,-0.06172263,-0.2701025,-37.76039,-25.38145,40.90419
23.009779453,0.5210813,6.05813900000001,2.022861,0.9678678,-0.05977672,-0.2624398,-37.76039,-25.38145,40.90419
23.019776344,0.951813900000003,5.345911,2.205774,0.9769887,-0.05222405,-0.2533647,-37.37779,-25.75899,40.909
23.029774666,1.197947,4.752387,2.144803,0.9765822,-0.05665382,-0.2586272,-37.37779,-25.75899,40.909
23.039772511,1.628679,4.396273,2.144803,0.9803761,-0.05131245,-0.2672495,-37.37779,-25.75899,40.909
23.049770355,1.628679,4.218216,2.449656,0.9838153,-0.05263653,-0.2600765,-37.37779,-25.75899,40.909
23.059767723,1.690213,3.862102,2.510627,0.9843369,-0.0546314,-0.266777,-37.37779,-25.75899,40.909
23.069765568,1.936346,3.743397,2.75451,0.9941614,-0.05880639,-0.2663144,-37.75084,-25.76507,40.51922
23.079763889,2.120945,3.209226,2.75451,0.9960823,-0.057315,-0.2667968,-37.75084,-25.76507,40.51922
23.089761734,1.997879,3.090521,2.75451,0.9948689,-0.0447659,-0.2734979,-37.75084,-25.76507,40.51922
23.099759102,1.505613,2.971816,3.242276,0.9929149,-0.04420891,-0.2615303,-37.75084,-25.76507,40.51922
23.109756947,0.4595481,2.734407,3.242276,0.9943404,-0.04221504,-0.2591404,-37.76656,-25.00436,40.51516
23.119755268,-0.4019172,2.437645,3.48616,0.9910114,-0.04669376,-0.2634406,-37.76656,-25.00436,40.51516
23.129753113,-0.709583300000001,2.378292,3.54713,0.9880442,-0.04429198,-0.260086,-37.76656,-25.00436,40.51516
23.139750481,-0.709583300000001,2.081531,3.425189,0.9880699,-0.04580194,-0.2658286,-37.76656,-25.00436,40.51516
23.149748325,-0.2788507,2.022178,3.48616,0.9900883,-0.0497417,-0.2758812,-37.76656,-25.00436,40.51516
23.15974617,-0.2173175,2.140883,3.120335,0.991579,-0.05110867,-0.2691834,-38.13961,-25.01044,40.12538
23.169744492,-0.2788507,2.022178,2.75451,0.9875557,-0.04434549,-0.2648709,-38.13961,-25.01044,40.12538
23.179741383,-0.2173175,1.962826,2.69354,0.9827386,-0.04737824,-0.2672547,-38.13961,-25.01044,40.12538
23.189739704,0.3364816,1.666064,2.449656,0.9813691,-0.05224717,-0.2653367,-38.13961,-25.01044,40.12538
23.199737549,0.5210813,1.428654,2.144803,0.9860771,-0.04337212,-0.2615186,-38.13961,-25.01044,40.12538
23.209735394,0.4595481,1.30995,2.022861,0.9920676,-0.05105515,-0.2643985,-38.88909,-25.01607,40.11982
23.219732761,0.3980148,1.013188,1.413154,0.9954411,-0.04903596,-0.2634477,-38.88909,-25.01607,40.11982
23.229730606,0.3364816,0.775778400000001,1.169271,0.9890083,-0.0438177,-0.2634379,-38.88909,-25.01607,40.11982
23.239728928,-0.0942510000000003,0.2416071,0.620533899999998,0.9834774,-0.03467214,-0.2610377,-38.88909,-25.01607,40.11982
23.249726772,-0.586516899999998,-0.3519166,0.4376215,0.9839849,-0.03556821,-0.2538597,-38.88909,-25.01607,40.11982
23.25972414,-0.832649800000001,-0.708030899999999,0.01082622,0.9767409,-0.03915239,-0.2581533,-37.76487,-25.00763,40.12816
23.269721985,-1.201849,-0.708030899999999,-0.3549984,0.9727525,-0.03438055,-0.2591048,-37.76487,-25.00763,40.12816
23.279720306,-1.017249,-0.648678499999998,-0.720822899999998,0.97128,-0.0339895,-0.2662809,-37.76487,-25.00763,40.12816
23.289718151,-0.955716300000001,-0.708030899999999,-0.964705900000002,0.966023,-0.03941241,-0.2633989,-37.76487,-25.00763,40.12816
23.299715519,-0.955716300000001,-0.826735599999998,-1.208589,0.9655474,-0.03983317,-0.2552622,-37.76487,-25.00763,40.12816
23.309713364,-1.078783,-1.004793,-1.513443,0.9625123,-0.03415395,-0.2653085,-38.52222,-24.6329,40.12057
23.319711208,-1.140316,-1.004793,-1.757326,0.9664571,-0.03643554,-0.2576576,-38.52222,-24.6329,40.12057
23.32970953,-1.447982,-1.360907,-1.757326,0.9698772,-0.03681443,-0.2533562,-38.52222,-24.6329,40.12057
23.339706421,-1.755648,-1.538964,-1.818297,0.9733068,-0.03767031,-0.2480976,-38.52222,-24.6329,40.12057
23.349704743,-2.247914,-1.835726,-2.123151,0.9738928,-0.04304794,-0.2528831,-38.52222,-24.6329,40.12057
23.359702587,-2.186381,-2.19184,-2.793829,0.9842578,-0.05016738,-0.2567279,-38.13961,-25.01044,40.12538
23.369700432,-2.309447,-2.488602,-3.342566,0.9818392,-0.05122653,-0.2610306,-38.13961,-25.01044,40.12538
23.3796978,-2.370981,-2.42925,-4.074214,0.983815,-0.05264531,-0.2610337,-38.13961,-25.01044,40.12538
23.389695644,-1.940248,-2.310545,-4.927805,0.9863104,-0.05612481,-0.2749158,-38.13961,-25.01044,40.12538
23.399693966,-2.001781,-2.251192,-5.476542,0.987394,-0.0619347,-0.2749162,-38.13961,-25.01044,40.12538
23.409691811,-1.878715,-2.013783,-6.14722099999998,0.9830383,-0.06345226,-0.2720368,-38.13961,-25.01044,40.12538
23.419689179,-1.140316,-2.132488,-6.513045,0.9942614,-0.06415854,-0.2672704,-38.13961,-25.01044,40.12538
23.429687023,0.1518819,-2.19184,-7.06178199999999,0.9884073,-0.06377949,-0.2663032,-38.13961,-25.01044,40.12538
23.439685345,0.890280700000001,-2.073135,-7.54954800000001,0.9945939,-0.05587782,-0.2658374,-38.13961,-25.01044,40.12538
23.449682236,1.25948,-2.19184,-7.42760699999997,0.989542,-0.04620615,-0.2600881,-38.13961,-25.01044,40.12538
23.459680557,0.8287475,-2.547954,-7.30566500000003,0.9816658,-0.04199706,-0.2610326,-37.75084,-25.76507,40.51922
23.469678402,0.4595481,-2.547954,-7.30566500000003,0.9855987,-0.04388067,-0.2629533,-37.75084,-25.76507,40.51922
23.479676247,-0.0942510000000003,-2.785364,-7.18372300000002,0.9851381,-0.04537392,-0.2658236,-37.75084,-25.76507,40.51922
23.489674568,-0.2788507,-2.666659,-6.81789900000001,0.9861645,-0.04834824,-0.274439,-37.75084,-25.76507,40.51922
23.499671459,0.02881546,-2.310545,-6.45207400000002,0.9760184,-0.05289147,-0.2710701,-37.75084,-25.76507,40.51922
23.509669781,0.2749484,-2.666659,-6.14722099999998,0.974916,-0.04612323,-0.2725056,-37.76487,-25.00763,40.12816
23.519667626,0.5210813,-2.904068,-5.84236700000003,0.9715256,-0.047127,-0.2686709,-37.76487,-25.00763,40.12816
23.529664993,0.4595481,-2.963421,-5.476542,0.9758677,-0.04449746,-0.2562362,-37.76487,-25.00763,40.12816
23.539662838,0.3980148,-3.497592,-4.988776,0.9694731,-0.04116518,-0.2500044,-37.76487,-25.00763,40.12816
23.549660683,0.02881546,-4.20982,-4.318098,0.9732874,-0.0367339,-0.2519265,-37.76487,-25.00763,40.12816
23.559659004,-0.2788507,-4.684639,-3.70839,0.9732986,-0.03715382,-0.2447477,-37.76039,-25.38145,40.90419
23.569656849,-0.894183000000003,-4.981401,-3.098683,0.9825352,-0.03600384,-0.2452427,-37.76039,-25.38145,40.90419
23.579654217,-1.201849,-5.396868,-2.732858,0.9810697,-0.03616438,-0.2595974,-37.76039,-25.38145,40.90419
23.589652062,-2.186381,-5.69363,-2.306063,0.9880069,-0.04237526,-0.2629579,-37.76039,-25.38145,40.90419
23.599650383,-2.617113,-5.87168699999998,-2.001209,0.9914782,-0.04577846,-0.2706203,-37.76039,-25.38145,40.90419
23.609647274,-2.92478,-5.99039199999999,-1.818297,0.9906045,-0.05113669,-0.2701389,-38.50399,-25.76361,41.35216
23.619645595,-2.617113,-5.931039,-1.818297,0.9920914,-0.05262216,-0.2763625,-38.50399,-25.76361,41.35216
23.62964344,-1.755648,-5.81233500000002,-1.940238,0.9888089,-0.05950336,-0.2777908,-38.50399,-25.76361,41.35216
23.639641285,-1.324916,-5.515573,-2.001209,0.9901708,-0.05410038,-0.2744445,-38.50399,-25.76361,41.35216
23.649639606,-0.832649800000001,-5.218811,-2.245092,0.9808725,-0.05178421,-0.2667717,-38.50399,-25.76361,41.35216
23.659636497,-0.709583300000001,-5.040754,-2.488975,0.9793735,-0.04990953,-0.2710767,-37.37021,-26.1388,40.97552
23.669634819,-0.7711166,-4.981401,-2.671887,0.9847219,-0.04933547,-0.2730005,-37.37021,-26.1388,40.97552
23.679632664,-0.2173175,-4.506582,-2.671887,0.9812943,-0.04841814,-0.2715591,-37.37021,-26.1388,40.97552
23.689630508,0.5826145,-3.972411,-2.976741,0.9700546,-0.04668767,-0.2705827,-37.37021,-26.1388,40.97552
23.699627876,1.013347,-3.675649,-2.671887,0.9713683,-0.03893928,-0.2763299,-37.37021,-26.1388,40.97552
23.709625721,0.890280700000001,-3.082125,-2.793829,0.9698425,-0.03558538,-0.2782424,-37.37021,-26.1388,40.97552
23.719624042,0.5210813,-2.904068,-2.793829,0.9727477,-0.03452978,-0.2753763,-37.37021,-26.1388,40.97552
23.729621887,0.5210813,-2.607306,-2.549946,0.9791352,-0.03731046,-0.2744296,-37.37021,-26.1388,40.97552
23.739619255,0.705681,-2.19184,-2.549946,0.9791725,-0.03922717,-0.2715577,-37.37021,-26.1388,40.97552
23.7496171,1.505613,-2.073135,-2.488975,0.9836372,-0.0435563,-0.2763501,-37.00333,-25.75563,40.97628
23.759615421,2.428612,-1.776374,-2.488975,0.9796571,-0.03929656,-0.2801729,-37.00333,-25.75563,40.97628
23.769613266,3.043944,-1.538964,-2.428004,0.9863685,-0.0332888,-0.2754004,-37.00333,-25.75563,40.97628
23.779610634,3.043944,-1.360907,-2.428004,0.9853024,-0.02847237,-0.2777926,-37.00333,-25.75563,40.97628
23.789608478,2.551678,-1.064145,-2.306063,0.9887124,-0.02839623,-0.2768414,-37.00333,-25.75563,40.97628
23.799606323,1.628679,-0.9454404,-1.940238,0.9906231,-0.02645419,-0.2811525,-36.99547,-26.13599,40.97831
23.809603691,1.197947,-0.826735599999998,-1.696355,0.9979116,-0.02533392,-0.2806869,-36.99547,-26.13599,40.97831
23.819601536,0.5826145,-0.589326100000003,-1.452472,1.002855,-0.02915011,-0.283566,-36.99547,-26.13599,40.97831
23.829599857,0.5826145,-0.4706214,-0.8427644,1.002847,-0.02862484,-0.2792589,-36.99547,-26.13599,40.97831
23.839597702,0.3980148,-0.2925643,-0.4769399,1.004227,-0.02420218,-0.2768696,-36.99547,-26.13599,40.97831
23.849595547,0.0903486900000002,-0.1145072,-0.1111153,1.004576,-0.01693247,-0.2797436,-36.62242,-26.12991,41.36809
23.859592915,-0.6480501,0.06354995,0.1327677,1.001598,-0.01411514,-0.2840463,-36.62242,-26.12991,41.36809
23.869590759,-1.324916,0.3009594,0.681504599999997,0.9958256,-0.01810794,-0.283078,-36.62242,-26.12991,41.36809
23.879589081,-0.955716300000001,0.716426,0.986358399999998,0.9891784,-0.02750286,-0.286414,-36.62242,-26.12991,41.36809
23.889586925,-0.4634504,0.894483100000001,1.291212,0.9892066,-0.0289382,-0.2840208,-36.62242,-26.12991,41.36809
23.899584293,0.2749484,0.953835399999999,1.413154,0.9780041,-0.02912882,-0.2806512,-37.3736,-26.13226,41.74953
23.909582138,0.951813900000003,1.250597,1.596066,0.9769843,-0.02671927,-0.28065,-37.3736,-26.13226,41.74953
23.91958046,0.890280700000001,1.07254,1.778978,0.9749274,-0.02089351,-0.2768193,-37.3736,-26.13226,41.74953
23.929578304,0.644147799999998,1.30995,1.96189,0.9734946,-0.02234456,-0.2729879,-37.3736,-26.13226,41.74953
23.939575672,-0.0942510000000003,1.013188,2.205774,0.9730343,-0.02382902,-0.274901,-37.3736,-26.13226,41.74953
23.949573517,-0.5249836,0.894483100000001,2.144803,0.9764718,-0.02520577,-0.2734709,-36.62242,-26.12991,41.36809
23.959571362,-0.955716300000001,0.716426,2.388686,0.9721134,-0.02680673,-0.2796844,-36.62242,-26.12991,41.36809
23.969569683,-1.263382,0.657073599999999,2.266744,0.9770471,-0.03015032,-0.2839994,-36.62242,-26.12991,41.36809
23.979566574,-1.755648,0.657073599999999,1.96189,0.9747219,-0.03600124,-0.2811223,-36.62242,-26.12991,41.36809
23.989564896,-1.878715,0.597721199999998,1.596066,0.9771756,-0.03692904,-0.2816049,-36.62242,-26.12991,41.36809
23.99956274,-1.509515,0.775778400000001,1.413154,0.9797388,-0.04368157,-0.2816077,-37.00671,-25.7491,41.75029
24.009560585,-0.7711166,1.013188,0.986358399999998,0.984131,-0.04410706,-0.2844867,-37.00671,-25.7491,41.75029
24.019557953,0.0903486900000002,1.013188,0.803446099999999,0.986909,-0.03623763,-0.2801863,-37.00671,-25.7491,41.75029
24.029556274,0.4595481,0.8351307,0.3766508,0.9892551,-0.03127484,-0.2739702,-37.00671,-25.7491,41.75029
24.039554119,0.644147799999998,0.597721199999998,0.3766508,0.9886679,-0.02593231,-0.2730134,-37.00671,-25.7491,41.75029
24.049551964,0.5826145,0.5383689,0.1327677,0.9873084,-0.03126066,-0.2682239,-37.37021,-26.1388,40.97552
24.059549332,0.767214200000001,0.4196641,0.0717969800000001,0.9853592,-0.0313211,-0.2706134,-37.37021,-26.1388,40.97552
24.069547176,0.767214200000001,0.3009594,0.1327677,0.9791176,-0.03632138,-0.2725155,-37.37021,-26.1388,40.97552
24.079545498,0.767214200000001,0.3009594,-0.05014454,0.9820574,-0.03726589,-0.2758704,-37.37021,-26.1388,40.97552
24.089543343,0.951813900000003,0.1822547,0.0717969800000001,0.9874355,-0.03807888,-0.2701367,-37.37021,-26.1388,40.97552
24.09954071,0.5210813,0.2416071,0.0717969800000001,0.9907654,-0.03356944,-0.2624864,-37.3719,-26.13553,41.36253
24.109538555,-0.0942510000000003,-0.05515479,0.1327677,0.9853341,-0.02979359,-0.2629565,-37.3719,-26.13553,41.36253
24.1195364,-0.7711166,-0.05515479,0.1327677,0.9912257,-0.03208497,-0.2605733,-37.3719,-26.13553,41.36253
24.129534721,-0.955716300000001,0.06354995,0.1937385,0.9927508,-0.03546081,-0.2610537,-37.3719,-26.13553,41.36253
24.139531612,-1.140316,0.3009594,-0.1111153,0.9835339,-0.03753404,-0.2552941,-37.3719,-26.13553,41.36253
24.149529934,-0.7711166,0.716426,-0.05014454,0.9879424,-0.0389925,-0.264873,-37.00502,-25.75236,41.36328
24.159527779,-0.1557842,1.07254,-0.1111153,0.9855512,-0.04150892,-0.2691754,-37.00502,-25.75236,41.36328
24.169525623,0.4595481,1.488007,-0.2940276,0.9757385,-0.03774069,-0.2610234,-37.00502,-25.75236,41.36328
24.179522991,1.197947,1.784769,-0.4159691,0.9778061,-0.04399954,-0.2591111,-37.00502,-25.75236,41.36328
24.189521313,1.997879,2.259588,-0.4159691,0.9791414,-0.03711734,-0.2533723,-37.00502,-25.75236,41.36328
24.199519157,2.613211,2.55635,-0.3549984,0.9766779,-0.03572573,-0.2552827,-37.74495,-26.14161,40.97275
24.209517002,2.982411,3.090521,-0.2330568,0.9835075,-0.03604604,-0.2519445,-37.74495,-26.14161,40.97275
24.21951437,3.413143,3.56534,-0.1720861,0.9868827,-0.03397417,-0.2452508,-37.74495,-26.14161,40.97275
24.229512215,3.782343,4.277568,0.0717969800000001,0.986311,-0.02969095,-0.2538653,-37.74495,-26.14161,40.97275
24.239510536,4.151542,4.633682,0.3766508,0.9858035,-0.02879489,-0.2610433,-37.00333,-25.75563,40.97628
24.249508381,3.597743,5.167854,0.4985923,0.9949868,-0.02468645,-0.2567531,-37.00333,-25.75563,40.97628
24.259505749,2.859344,5.58332,1.230241,0.9944823,-0.02369821,-0.2538811,-37.00333,-25.75563,40.97628
24.269503594,1.567146,5.998787,1.535095,0.9896829,-0.02772005,-0.2581789,-37.00333,-25.75563,40.97628
24.279501438,0.4595481,6.473606,2.205774,0.9872385,-0.02727801,-0.2576962,-37.00333,-25.75563,40.97628
24.28949976,-0.03271778,6.88907200000001,2.75451,0.9872997,-0.03076173,-0.2667883,-37.01119,-25.37527,40.97425
24.299496651,-0.4019172,7.89806300000001,3.120335,0.9892582,-0.03117827,-0.2634416,-37.01119,-25.37527,40.97425
24.309494972,-0.7711166,8.254177,3.303247,0.9888349,-0.03458823,-0.26344,-37.01119,-25.37527,40.97425
24.319492817,-0.955716300000001,8.49158700000002,3.303247,0.9917864,-0.03594388,-0.258659,-37.01119,-25.37527,40.97425
24.329490662,-0.709583300000001,9.02575799999998,3.425189,0.9958099,-0.04270266,-0.2624928,-37.01119,-25.37527,40.97425
24.339488983,-0.4019172,9.44122399999999,3.181306,1.00612,-0.04690313,-0.2658598,-38.12756,-25.76407,40.96794
24.349486351,-0.1557842,9.85669000000001,3.242276,1.00397,-0.03628561,-0.2692088,-38.12756,-25.76407,40.96794
24.359484196,0.1518819,10.33151,3.120335,0.995864,-0.04563479,-0.2644065,-38.12756,-25.76407,40.96794
24.36948204,0.5210813,10.50957,2.876452,0.9914597,-0.04481571,-0.2715777,-38.12756,-25.76407,40.96794
24.379479885,0.951813900000003,10.68762,2.815481,0.9890437,-0.04579586,-0.267266,-38.12756,-25.76407,40.96794
24.389477253,1.382547,10.68762,2.632569,0.986653,-0.04829472,-0.2696541,-37.757,-25.38799,40.13019
24.399475575,1.136414,10.80633,2.449656,0.9841197,-0.04292046,-0.2610367,-37.757,-25.38799,40.13019
24.409473419,0.5826145,10.74698,2.571598,0.982155,-0.0419216,-0.2538549,-37.757,-25.38799,40.13019
24.419471264,-0.0942510000000003,10.80633,2.449656,0.9802152,-0.04246779,-0.2562443,-37.757,-25.38799,40.13019
24.429468632,-0.1557842,10.45021,2.266744,0.9814449,-0.05604548,-0.2557643,-37.757,-25.38799,40.13019
24.439466477,0.1518819,10.50957,2.205774,0.9809837,-0.05756066,-0.2610275,-37.757,-25.38799,40.13019
24.449464798,0.890280700000001,10.2128,1.90092,0.9868823,-0.06040365,-0.2658228,-37.757,-25.38799,40.13019
24.459462643,1.751746,10.27216,1.535095,0.9774899,-0.05331324,-0.267244,-37.757,-25.38799,40.13019
24.469460011,2.428612,9.85669000000001,1.169271,0.979817,-0.04740526,-0.2638995,-37.757,-25.38799,40.13019
24.479457855,2.120945,9.73798600000003,0.5595631,0.9855634,-0.04189812,-0.2586466,-37.757,-25.38799,40.13019
24.4894557,2.059412,9.73798600000003,0.4376215,0.9876043,-0.04668212,-0.2548203,-38.88123,-25.39642,40.12185
24.499454022,2.059412,9.26316700000002,0.2547093,0.9848657,-0.05640682,-0.2495487,-38.88123,-25.39642,40.12185
24.509451389,2.674744,8.84769999999998,0.5595631,0.9809678,-0.05651454,-0.2528919,-38.88123,-25.39642,40.12185
24.519449234,3.474676,8.13547199999999,0.681504599999997,0.9814659,-0.05693361,-0.2466712,-38.88123,-25.39642,40.12185
24.529447079,4.213075,7.66065299999999,0.803446099999999,0.9897374,-0.05628863,-0.2471643,-38.88123,-25.39642,40.12185
24.539444924,4.889941,6.71101499999999,1.169271,0.9964197,-0.04888065,-0.2486136,-38.88543,-25.02315,39.28131
24.549442291,4.828408,6.05813900000001,1.352183,0.9957159,-0.03715739,-0.2404796,-38.88543,-25.02315,39.28131
24.559440613,3.782343,5.405263,1.657037,0.9920959,-0.02606541,-0.2419119,-38.88543,-25.02315,39.28131
24.569438458,2.305545,4.752387,1.96189,0.9969938,-0.02744401,-0.2438344,-38.88543,-25.02315,39.28131
24.579436302,0.5826145,4.277568,2.083832,0.9956522,-0.03375266,-0.2400018,-38.88543,-25.02315,39.28131
24.58943367,-0.5249836,3.505987,2.327715,0.9933338,-0.04016396,-0.2452605,-38.51266,-25.01652,39.7356
24.599431515,-0.0942510000000003,2.734407,2.571598,0.9905949,-0.04989743,-0.240946,-38.51266,-25.01652,39.7356
24.609429836,0.4595481,2.378292,2.815481,0.9794806,-0.05503784,-0.2476254,-38.51266,-25.01652,39.7356
24.619427681,0.890280700000001,1.606712,2.876452,0.9857511,-0.05145096,-0.2409372,-38.51266,-25.01652,39.7356
24.629425049,0.5210813,0.775778400000001,2.815481,0.9748075,-0.03949231,-0.2380497,-38.51266,-25.01652,39.7356
24.639422893,0.02881546,0.3009594,2.69354,0.9738522,-0.04046113,-0.2356549,-38.89159,-24.64606,38.89228
24.649420738,-0.709583300000001,-0.2925643,2.571598,0.9764064,-0.0467279,-0.2356577,-38.89159,-24.64606,38.89228
