Time (s),Gyroscope X (deg/s),Gyroscope Y (deg/s),Gyroscope Z (deg/s),Accelerometer X (g),Accelerometer Y (g),Accelerometer Z (g),Magnetometer X (uT),Magnetometer Y (uT),Magnetometer Z (uT)
12.139679432,-8.64737,8.49158700000002,-0.1111153,1.134724,-0.1187348,-0.1095711,-31.55701,-18.80275,48.59252
12.1496768,-5.93990799999998,18.64084,0.1937385,1.152831,-0.09630357,-0.08711538,-31.55701,-18.80275,48.59252
12.159674645,-5.01691,28.84945,1.169271,1.156666,-0.06634412,-0.0608081,-30.80136,-19.17422,48.98711
12.169672966,-5.509175,39.23611,1.839949,1.161994,-0.06408013,-0.03736775,-30.80136,-19.17422,48.98711
12.179670334,-5.386109,50.15695,2.449656,1.15857,-0.06307502,-0.02635479,-30.80136,-19.17422,48.98711
12.189668179,-3.663178,61.3151899999999,3.181306,1.15094,-0.07196394,-0.02538205,-30.80136,-19.17422,48.98711
12.199665546,-1.940248,72.3547300000002,4.156838,1.149861,-0.09244744,-0.0311178,-30.80136,-19.17422,48.98711
12.209663391,0.5210813,83.0975099999998,5.498195,1.154436,-0.102575,-0.0325589,-31.17271,-19.18357,48.21033
12.219661236,2.736278,94.1370500000001,6.53469799999998,1.165292,-0.1095663,-0.02348308,-31.17271,-19.18357,48.21033
12.229658604,3.53621,105.8888,7.32731800000001,1.191429,-0.09959769,0.0003975942,-31.17271,-19.18357,48.21033
12.239656448,3.228544,117.5219,8.36382100000002,1.20796,-0.09716064,0.01855404,-31.17271,-19.18357,48.21033
12.24965477,2.736278,128.0866,9.46129399999998,1.216924,-0.1070479,0.03385539,-31.17271,-19.18357,48.21033
12.259652138,3.16701,137.7017,10.86362,1.213199,-0.1163983,0.02907853,-33.01829,-19.98231,45.36246
12.269649983,4.090009,146.0704,12.26595,1.229109,-0.132991,0.04006232,-33.01829,-19.98231,45.36246
12.279647827,4.705341,154.7358,13.30245,1.246205,-0.1350347,0.04529738,-33.01829,-19.98231,45.36246
12.289645195,5.136074,162.689,14.27798,1.283321,-0.1389941,0.06341959,-33.01829,-19.98231,45.36246
12.29964304,5.62834,170.939,15.13157,1.319493,-0.1443818,0.08680815,-33.01829,-19.98231,45.36246
12.309641361,4.582274,179.0703,16.41196,1.355422,-0.1365178,0.1250296,-37.1384,-19.28686,41.26431
12.319638729,2.982411,187.7951,17.26555,1.411011,-0.1374633,0.1670476,-37.1384,-19.28686,41.26431
12.329636574,3.474676,196.1044,18.36302,1.439133,-0.129408,0.1899682,-37.1384,-19.28686,41.26431
12.339634419,1.751746,203.3454,19.76535,1.480473,-0.1244318,0.2195665,-37.1384,-19.28686,41.26431
12.349631786,2.244012,210.0522,20.98477,1.505332,-0.1505972,0.2271872,-37.1384,-19.28686,41.26431
12.359629631,5.136074,215.7501,21.89933,1.525366,-0.1793009,0.2333811,-41.20921,-17.47003,34.77401
12.369627953,8.705001,221.5072,22.32612,1.553981,-0.1982214,0.2280717,-41.20921,-17.47003,34.77401
12.379625321,12.70466,226.849,21.65545,1.565618,-0.2206816,0.2443288,-41.20921,-17.47003,34.77401
12.389623165,17.44272,231.8939,21.04574,1.570225,-0.2321479,0.2558095,-41.20921,-17.47003,34.77401
12.399620533,21.81158,236.4047,19.4605,1.573576,-0.2549254,0.255331,-41.20921,-17.47003,34.77401
12.409618378,24.51904,239.9065,19.15564,1.555757,-0.2394597,0.2845513,-46.43072,-16.82715,25.44298
12.419616222,28.02644,242.8741,18.91176,1.565061,-0.241596,0.2965,-46.43072,-16.82715,25.44298
12.42961359,29.01097,245.2482,19.0337,1.538568,-0.2054325,0.3228585,-46.43072,-16.82715,25.44298
12.439611435,29.93397,247.0288,19.09467,1.546235,-0.2240748,0.3400787,-46.43072,-16.82715,25.44298
12.449609757,29.4417,248.3939,19.27759,1.520866,-0.1955414,0.3798374,-46.43072,-16.82715,25.44298
12.459607124,25.93431,249.5809,18.36302,1.514875,-0.1871049,0.4119103,-50.17316,-15.03903,15.27849
12.469604969,24.45751,250.1151,18.18011,1.504626,-0.2120202,0.4195918,-50.17316,-15.03903,15.27849
12.479602814,25.62664,250.4712,18.60691,1.456658,-0.2001404,0.4407297,-50.17316,-15.03903,15.27849
12.489600182,26.6727,250.5899,17.93623,1.430904,-0.1776828,0.4546475,-50.17316,-15.03903,15.27849
12.499598026,25.56511,249.937,17.20458,1.405123,-0.1793868,0.4834074,-50.17316,-15.03903,15.27849
12.509596348,28.58023,247.919,17.26555,1.326468,-0.1432479,0.4605636,-52.37421,-15.14743,4.425752
12.519593716,30.24163,245.1888,17.38749,1.2763,-0.1448566,0.4462942,-52.37421,-15.14743,4.425752
12.52959156,26.24197,242.2212,17.26555,1.243117,-0.1148004,0.5099949,-52.37421,-15.14743,4.425752
12.539589405,21.25778,237.7698,17.93623,1.19138,-0.05851661,0.506242,-52.37421,-15.14743,4.425752
12.549586773,21.25778,231.3597,20.31409,1.1062,-0.03874447,0.4613992,-51.96973,-14.10652,-7.76811
12.559584618,13.44306,229.045,20.31409,1.063587,-0.02609311,0.5021492,-51.96973,-14.10652,-7.76811
12.569582939,6.05907200000001,228.9856,17.63138,1.01767,-0.02099887,0.4677705,-51.96973,-14.10652,-7.76811
12.57957983,-0.586516899999998,227.027,16.47293,0.9308467,-0.04202469,0.481806,-51.96973,-14.10652,-7.76811
12.589578152,-4.032378,223.1098,16.83875,0.84554,-0.04104887,0.454197,-51.96973,-14.10652,-7.76811
12.59957552,-10.49337,217.4119,15.61934,0.7799714,-0.07898293,0.4332637,-48.55643,-14.15966,-17.03113
12.609573364,-14.00076,209.5181,15.98516,0.7192289,-0.1143744,0.4142357,-48.55643,-14.15966,-17.03113
12.619571209,-14.06229,200.3778,16.65584,0.6490296,-0.1400637,0.3607642,-48.55643,-14.15966,-17.03113
12.629568577,-10.12417,190.7627,17.5704,0.5639232,-0.1761997,0.3130642,-48.55643,-14.15966,-17.03113
12.639566421,-7.60130500000002,181.6818,18.54594,0.4825212,-0.1749011,0.3122487,-48.55643,-14.15966,-17.03113
12.649564743,-5.201509,170.0487,20.55797,0.4064725,-0.1208177,0.3329461,-43.69302,-11.91615,-25.90819
12.659562111,-8.03203799999998,156.2196,23.54554,0.3523327,-0.04100263,0.3038268,-43.69302,-11.91615,-25.90819
12.669559956,-14.18536,141.2628,25.9234,0.2833278,0.0001819665,0.2804862,-43.69302,-11.91615,-25.90819
12.6795578,-22.12315,128.2053,25.25272,0.2021612,-0.01197733,0.2423448,-43.69302,-11.91615,-25.90819
12.689555168,-23.59995,115.1478,24.21622,0.177617,-0.05500235,0.2136841,-43.69302,-11.91615,-25.90819
12.699553013,-20.52328,102.6244,22.50904,0.1664922,-0.03328459,0.2213551,-38.43501,-11.53401,-30.32181
12.709551334,-19.10802,90.6946099999997,20.25312,0.1461819,0.01066641,0.2357365,-38.43501,-11.53401,-30.32181
12.719548702,-18.12349,78.4086800000001,18.24108,0.1311053,-0.04326048,0.2166336,-38.43501,-11.53401,-30.32181
12.729546547,-14.92376,66.12273,15.25352,0.0549673,-0.03709057,0.2057575,-38.43501,-11.53401,-30.32181
12.739544392,-9.81650199999998,53.9555,11.16848,0.02178058,-0.0871597,0.1694565,-38.43501,-11.53401,-30.32181
12.749541759,-1.509515,41.78827,7.63217200000002,0.008888489,-0.1016559,0.1532111,-35.14214,-10.01499,-33.53038
12.759539604,7.16667,29.50232,4.705575,-0.01202749,-0.07781149,0.1489342,-35.14214,-10.01499,-33.53038
12.769537926,8.33580199999998,17.03833,1.778978,-0.04004033,-0.03887209,0.1633303,-35.14214,-10.01499,-33.53038
12.779534817,6.18213799999999,4.040159,-1.086647,-0.0675685,-0.02641397,0.1504535,-35.14214,-10.01499,-33.53038
12.789533138,4.213075,-7.94901899999999,-3.952273,-0.06611128,-0.05215763,0.1485433,-35.14214,-10.01499,-33.53038
12.799530983,5.197607,-18.15763,-7.06178199999999,-0.0239528,-0.09174997,0.1384299,-32.89619,-9.628107,-34.74123
12.809528351,8.15120200000001,-26.58566,-9.01284600000001,0.00479381,-0.1173702,0.1441293,-32.89619,-9.628107,-34.74123
12.819526195,11.04326,-34.18277,-10.41517,0.01170137,-0.09577776,0.1522475,-32.89619,-9.628107,-34.74123
12.82952404,11.59706,-41.42376,-11.45168,0.01295289,-0.05816007,0.1713787,-32.89619,-9.628107,-34.74123
12.839521408,8.08966899999999,-49.37697,-12.54915,0.02696311,-0.02506639,0.1995817,-32.89619,-9.628107,-34.74123
12.84951973,1.505613,-58.2798300000002,-13.21983,0.0336998,-0.01981069,0.2282832,-32.88216,-10.38555,-34.35017
12.859517574,-4.278511,-68.1916699999999,-14.43924,0.05170239,-0.04342311,0.2641511,-32.88216,-10.38555,-34.35017
12.869514942,-7.539772,-77.2132299999999,-15.71963,0.08432424,-0.06655809,0.3205721,-32.88216,-10.38555,-34.35017
12.879512787,-8.33970399999999,-86.0567400000003,-17.42681,0.1314776,-0.1106646,0.3903734,-32.88216,-10.38555,-34.35017
12.889510632,-5.324575,-93.5944900000001,-18.82914,0.1871077,-0.1654434,0.443891,-32.88216,-10.38555,-34.35017
12.899507999,1.567146,-100.3013,-20.71923,0.248007,-0.2151886,0.5050554,-34.0154,-10.37655,-32.2945
12.909506321,9.074201,-106.7707,-22.30447,0.2924701,-0.2200747,0.5652797,-34.0154,-10.37655,-32.2945
12.919503212,15.16599,-113.2401,-23.03612,0.3112624,-0.1811859,0.6322376,-34.0154,-10.37655,-32.2945
12.929501533,17.87345,-121.5495,-23.03612,0.3238785,-0.09858783,0.7097237,-34.0154,-10.37655,-32.2945
12.939499378,13.87379,-130.9865,-22.2435,0.3628967,-0.04652017,0.7924359,-34.0154,-10.37655,-32.2945
12.949496746,8.705001,-140.1267,-21.81671,0.4413901,-0.04743761,0.841114,-37.40051,-10.37789,-29.48152
12.959494591,4.520741,-147.0116,-21.57282,0.5203483,-0.07314643,0.8878835,-37.40051,-10.37789,-29.48152
12.969492912,2.059412,-151.6411,-21.69477,0.5794999,-0.1343879,0.9179465,-37.40051,-10.37789,-29.48152
12.979489803,4.889941,-155.2022,-21.51185,0.6091174,-0.1547377,0.9135929,-37.40051,-10.37789,-29.48152
12.989488125,8.08966899999999,-158.5853,-20.1705,0.6257091,-0.1565554,0.8915499,-37.40051,-10.37789,-29.48152
12.99948597,6.48980500000002,-162.74,-18.09749,0.6612752,-0.1299838,0.9039241,-41.07687,-11.88284,-24.27622
13.009483337,1.07488,-168.2004,-15.53672,0.7240453,-0.09978894,0.8817923,-41.07687,-11.88284,-24.27622
13.019481182,-2.494047,-174.0763,-14.07342,0.8068181,-0.1482407,0.8778319,-41.07687,-11.88284,-24.27622
13.029479027,-0.832649800000001,-176.391,-13.95148,0.8839228,-0.2074566,0.8250694,-41.07687,-11.88284,-24.27622
13.039476395,9.25880099999997,-174.0169,-16.02448,0.8932427,-0.2634715,0.7906101,-41.07687,-11.88284,-24.27622
13.049474716,22.73458,-167.1321,-19.13399,0.8592817,-0.2714404,0.7897142,-45.59611,-12.23865,-17.40602
13.059472561,36.39495,-161.2562,-21.81671,0.8123082,-0.2355904,0.7730367,-45.59611,-12.23865,-17.40602
13.069469929,45.31727,-159.2975,-20.29244,0.8348104,-0.2942528,0.6863903,-45.59611,-12.23865,-17.40602
13.079467773,43.96354,-158.1699,-18.52429,0.7547891,-0.00256974,0.7127764,-45.59611,-12.23865,-17.40602
13.089465618,33.74902,-162.0278,-17.36584,0.9101685,-0.1302805,0.6527163,-49.00066,-12.2024,-10.14252
13.099462986,26.79577,-167.1914,-11.63459,0.9852741,-0.08314543,0.5965799,-49.00066,-12.2024,-10.14252
13.109461308,18.55032,-171.6429,-9.01284600000001,1.025945,-0.07000571,0.5639625,-49.00066,-12.2024,-10.14252
13.119459152,8.58193500000002,-176.1536,-8.52507999999999,1.053778,-0.04785601,0.5347151,-49.00066,-12.2024,-10.14252
13.12945652,0.3364816,-182.1482,-8.76896300000003,1.103685,-0.0591852,0.5164452,-49.00066,-12.2024,-10.14252
13.139454365,-3.786245,-186.7777,-9.25672899999999,1.148084,-0.08866011,0.4919679,-50.12335,-13.67451,-3.305714
13.14945221,-4.709243,-189.6266,-8.40313799999999,1.157285,-0.1383602,0.4575072,-50.12335,-13.67451,-3.305714
13.159449577,-7.35517199999998,-189.1518,-8.58605100000002,1.106719,-0.09288428,0.4384406,-50.12335,-13.67451,-3.305714
13.169447422,-6.92443900000002,-188.2615,-6.02527899999998,1.097665,-0.1309149,0.3910872,-50.12335,-13.67451,-3.305714
13.179445744,-9.20116899999999,-185.472,-4.013244,1.064623,-0.08469458,0.3624183,-50.12335,-13.67451,-3.305714
13.189443111,-14.18536,-182.5043,-2.488975,1.071254,-0.04938373,0.3303331,-52.01071,-14.75773,5.200508
13.199440956,-22.92308,-180.4863,-2.428004,1.097254,-0.08575431,0.2824395,-52.01071,-14.75773,5.200508
13.209438801,-22.67695,-180.4863,-1.391501,1.134146,-0.1310461,0.2450579,-52.01071,-14.75773,5.200508
13.219436169,-16.95436,-180.3083,-1.757326,1.156999,-0.129571,0.1976387,-52.01071,-14.75773,5.200508
13.229434013,-11.60097,-177.8748,-3.403537,1.195102,-0.1354556,0.1626377,-52.01071,-14.75773,5.200508
13.239432335,-7.84743800000001,-174.6105,-2.976741,1.214514,-0.1047419,0.1846105,-52.03364,-15.4438,14.04111
13.249429703,-10.1857,-171.3461,-3.281595,1.209305,-0.06046628,0.2018369,-52.03364,-15.4438,14.04111
13.259427548,-16.46209,-168.6159,-4.013244,1.205917,-0.03575459,0.2013578,-52.03364,-15.4438,14.04111
13.269425392,-20.64635,-166.3011,-4.135185,1.216483,-0.02790236,0.1869801,-52.03364,-15.4438,14.04111
13.27942276,-24.89214,-164.5206,-3.647419,1.241392,-0.03150392,0.1644446,-52.03364,-15.4438,14.04111
13.289420605,-28.58414,-162.918,-3.220624,1.26952,-0.05121833,0.1265931,-50.18564,-15.74526,21.73257
13.299418926,-31.96847,-161.2562,-3.647419,1.290433,-0.07437941,0.1524057,-50.18564,-15.74526,21.73257
13.309415817,-34.42979,-159.0008,-4.988776,1.308426,-0.09907012,0.1236661,-50.18564,-15.74526,21.73257
13.319414139,-32.5838,-156.8047,-5.537513,1.31268,-0.1178852,0.1294065,-50.18564,-15.74526,21.73257
13.329411984,-29.56867,-154.8461,-5.476542,1.31825,-0.1296746,0.1035567,-50.18564,-15.74526,21.73257
13.339409351,-25.87667,-152.1159,-5.78139599999999,1.311459,-0.1319982,0.07676887,-48.35954,-14.90892,29.03096
13.349407196,-23.90761,-149.3264,-6.87886999999998,1.310489,-0.13267,0.05858484,-48.35954,-14.90892,29.03096
13.359405518,-23.29228,-145.4684,-8.58605100000002,1.309236,-0.1439196,0.05332558,-48.35954,-14.90892,29.03096
13.369402409,-19.72335,-140.5422,-9.68352500000001,1.30631,-0.1440783,0.04232347,-48.35954,-14.90892,29.03096
13.37940073,-15.66216,-135.0818,-10.11032,1.289238,-0.1171853,0.04426061,-48.35954,-14.90892,29.03096
13.389398575,-14.80069,-129.6214,-10.04935,1.278775,-0.07899389,0.04522617,-44.59396,-16.74171,33.90643
13.399395943,-15.60063,-124.3984,-10.23226,1.24738,-0.06798665,0.04144946,-44.59396,-16.74171,33.90643
13.409393787,-17.38509,-118.8192,-9.86643700000001,1.23282,-0.07125139,0.03477562,-44.59396,-16.74171,33.90643
13.419391155,-18.43115,-113.5369,-9.13478800000001,1.210833,-0.06837191,0.02524168,-44.59396,-16.74171,33.90643
13.429389,-18.98495,-108.4326,-8.58605100000002,1.183255,-0.07926629,0.009499554,-44.59396,-16.74171,33.90643
13.439387322,-17.50816,-103.0315,-8.28119799999998,1.165411,-0.08944295,-0.001952544,-41.22082,-17.8128,39.22656
13.449385166,-15.47756,-97.33369,-8.15925599999997,1.150172,-0.08250315,-0.007192102,-41.22082,-17.8128,39.22656
13.459382534,-13.63156,-91.93262,-7.91537200000002,1.143654,-0.07301837,-0.01866901,-41.22082,-17.8128,39.22656
13.469380379,-12.33936,-86.6502599999999,-7.366636,1.148567,-0.07546505,-0.03111992,-41.22082,-17.8128,39.22656
13.479378224,-11.41637,-81.1898399999998,-7.85440200000002,1.131949,-0.0729172,-0.03539879,-41.22082,-17.8128,39.22656
13.489375591,-8.40123700000001,-76.2042500000001,-8.46410900000001,1.128473,-0.06966324,-0.04400794,-38.65229,-18.90413,42.86366
13.499373913,-5.263042,-71.1592900000003,-8.58605100000002,1.124348,-0.05761814,-0.04639672,-38.65229,-18.90413,42.86366
13.509370804,-4.770776,-66.23305,-8.95187600000001,1.125174,-0.04987061,-0.05118592,-38.65229,-18.90413,42.86366
13.519369125,-4.155444,-60.83198,-10.04935,1.121996,-0.06275211,-0.07127725,-38.65229,-18.90413,42.86366
13.52936697,-1.386449,-55.78703,-11.45168,1.116005,-0.08151171,-0.09040502,-38.65229,-18.90413,42.86366
13.539364815,2.736278,-50.2079,-12.67109,1.106202,-0.1046061,-0.09708205,-36.3831,-20.38798,45.33947
13.549362183,7.720469,-44.80684,-13.95148,1.090103,-0.1041672,-0.1205043,-36.3831,-20.38798,45.33947
13.559360027,12.58159,-39.76189,-15.17089,1.075139,-0.08611548,-0.1334045,-36.3831,-20.38798,45.33947
13.569358349,15.04292,-33.94535,-16.63419,1.066892,-0.06265149,-0.1534963,-36.3831,-20.38798,45.33947
13.579355717,14.42759,-28.42559,-18.34137,1.042216,-0.02053847,-0.1711714,-36.3831,-20.38798,45.33947
13.589353562,9.812599,-22.78711,-19.31691,1.033063,0.02527846,-0.1893532,-34.88502,-20.7402,47.35213
13.599350929,2.182479,-17.80151,-19.7437,1.026266,0.04994913,-0.1869548,-34.88502,-20.7402,47.35213
13.609348774,-5.93990799999998,-13.94361,-19.49982,1.022116,0.06276823,-0.2108797,-34.88502,-20.7402,47.35213
13.619346619,-14.67763,-10.61988,-19.31691,1.012766,0.04093891,-0.2395723,-34.88502,-20.7402,47.35213
13.629343986,-23.72301,-7.236791,-19.25594,1.007214,-0.001097735,-0.2543877,-33.37568,-21.47931,48.59282
13.639342308,-29.6302,-4.091116,-18.89011,1.00697,-0.03996911,-0.2534201,-33.37568,-21.47931,48.59282
13.649340153,-29.32254,-2.19184,-17.42681,1.000737,-0.07188901,-0.2763726,-33.37568,-21.47931,48.59282
13.659337521,-24.21528,-0.708030899999999,-15.53672,1.003542,-0.09190194,-0.2921654,-33.37568,-21.47931,48.59282
13.669335365,-18.36962,1.369302,-13.34177,0.9961172,-0.08649369,-0.3223042,-33.37568,-21.47931,48.59282
13.67933321,-13.38543,3.980806,-11.08585,1.000617,-0.06715573,-0.3428957,-32.99308,-21.85685,48.59763
13.689330578,-12.70856,6.88907200000001,-9.19575899999999,1.013786,-0.01586731,-0.3424533,-32.99308,-21.85685,48.59763
13.699328899,-16.21596,9.32251899999998,-7.366636,1.018698,0.03374315,-0.3482176,-32.99308,-21.85685,48.59763
13.709326744,-21.81548,10.68762,-5.659454,1.014061,0.04731492,-0.3419915,-32.99308,-21.85685,48.59763
13.719324589,-25.75361,11.39985,-4.135185,0.9968311,0.0303209,-0.3563144,-32.99308,-21.85685,48.59763
13.729321957,-26.67661,12.7056,-2.793829,0.9769189,0.000735909,-0.3601006,-32.95377,-23.75863,48.60777
13.739319801,-24.83061,14.01136,-1.513443,0.9660528,-0.01746299,-0.3605556,-32.95377,-23.75863,48.60777
13.749317169,-22.24621,15.43581,-0.1720861,0.9620726,-0.01320764,-0.3648569,-32.95377,-23.75863,48.60777
13.759315014,-20.46175,16.50415,1.1083,0.9474177,-0.01094465,-0.3514318,-32.95377,-23.75863,48.60777
13.769313335,-19.16955,17.5725,2.205774,0.917047,-0.002206518,-0.3398953,-32.95377,-23.75863,48.60777
13.779310703,-19.60028,18.16602,3.791013,0.8919434,0.01149947,-0.3278907,-32.93635,-24.52261,48.22482
13.789308548,-21.20015,18.16602,5.315282,0.8558199,0.01530401,-0.3120357,-32.93635,-24.52261,48.22482
13.799306393,-23.41535,18.22537,6.65663900000001,0.8331653,0.00229212,-0.3043356,-32.93635,-24.52261,48.22482
13.809304237,-25.13828,18.40343,7.754113,0.8087429,-0.02053055,-0.3028514,-32.93635,-24.52261,48.22482
13.819301605,-25.56901,18.58149,8.668674,0.7931516,-0.04660664,-0.3042533,-32.93635,-24.52261,48.22482
13.829299927,-24.21528,18.58149,9.15644099999999,0.7848896,-0.07336507,-0.2898747,-34.40387,-26.05528,48.22181
13.839297771,-21.75395,18.52213,9.64420700000001,0.7773433,-0.0865995,-0.2860295,-34.40387,-26.05528,48.22181
13.849295139,-19.60028,18.04732,9.82711900000002,0.7649202,-0.09933906,-0.2706901,-34.40387,-26.05528,48.22181
13.859292984,-17.44662,16.80092,9.27838200000003,0.7520831,-0.1159699,-0.2548705,-34.40387,-26.05528,48.22181
13.869290352,-13.26236,15.49516,8.30284999999999,0.742246,-0.1370642,-0.2553265,-34.40387,-26.05528,48.22181
13.879288197,-6.55523999999999,14.24877,6.77858100000002,0.731723,-0.1474242,-0.2495625,-35.14013,-26.45161,46.99277
13.889286518,-0.0942510000000003,13.41783,4.644604,0.728405,-0.1523316,-0.2476412,-35.14013,-26.45161,46.99277
13.899284363,6.73593800000001,12.64625,2.022861,0.7372758,-0.1574228,-0.239041,-35.14013,-26.45161,46.99277
13.909281731,14.11993,11.93402,-0.903735200000002,0.7541389,-0.1474717,-0.2500802,-35.14013,-26.45161,46.99277
13.919279575,21.44238,11.4592,-3.403537,0.7750534,-0.1200738,-0.2750096,-35.14013,-26.45161,46.99277
13.92927742,25.19591,11.63726,-5.29363,0.8088329,-0.07671376,-0.282737,-35.12691,-26.84232,45.76929
13.939274788,20.27325,11.93402,-6.93983999999998,0.8571154,-0.05290743,-0.2813915,-35.12691,-26.84232,45.76929
13.949273109,14.11993,12.17143,-7.73246000000002,0.8956278,-0.02784946,-0.2814651,-35.12691,-26.84232,45.76929
13.959270954,9.01266799999998,11.3405,-7.48857699999998,0.9371133,-0.03142524,-0.2839294,-35.12691,-26.84232,45.76929
13.969268322,5.505273,10.56892,-7.30566500000003,0.9854494,-0.06262574,-0.2930985,-35.12691,-26.84232,45.76929
13.979266167,4.889941,9.559929,-7.06178199999999,1.022777,-0.07849362,-0.3022525,-35.5331,-25.32371,45.7584
13.989264011,5.99753899999999,8.84769999999998,-6.513045,1.066431,-0.06803514,-0.3157314,-35.5331,-25.32371,45.7584
13.999261379,6.24367199999998,8.37288200000001,-5.78139599999999,1.103069,-0.04684909,-0.3100578,-35.5331,-25.32371,45.7584
14.009259224,5.320673,7.95741500000002,-5.232659,1.151798,-0.04688017,-0.3125356,-35.5331,-25.32371,45.7584
14.019257545,6.48980500000002,7.18583399999999,-5.171688,1.187197,-0.03805576,-0.3274355,-35.5331,-25.32371,45.7584
14.029254913,8.76653499999999,6.23619700000001,-5.110718,1.204876,-0.01993719,-0.3504426,-35.91232,-24.95271,44.97958
14.039252758,10.9202,5.523968,-4.379068,1.230887,0.02175893,-0.3638988,-35.91232,-24.95271,44.97958
14.049250603,7.843536,5.108501,-3.464507,1.247898,0.07606085,-0.361071,-35.91232,-24.95271,44.97958
14.059247971,-0.894183000000003,4.57433,-2.367033,1.248016,0.09613592,-0.3448048,-35.91232,-24.95271,44.97958
14.069245815,-8.33970399999999,3.209226,-0.659852100000001,1.228769,0.08312996,-0.3438107,-35.91232,-24.95271,44.97958
14.079244137,-11.1087,1.962826,1.047329,1.199322,0.04208342,-0.3581061,-35.52435,-25.3406,43.75889
14.089241505,-9.81650199999998,1.369302,2.144803,1.180121,0.0002586765,-0.3733763,-35.52435,-25.3406,43.75889
14.099239349,-7.35517199999998,1.666064,3.181306,1.149147,-0.01103961,-0.3728408,-35.52435,-25.3406,43.75889
14.109237194,-6.61677399999998,2.081531,4.217809,1.11261,0.01454079,-0.3660837,-35.52435,-25.3406,43.75889
14.119234562,-7.90897099999997,2.140883,5.315282,1.07638,0.02424469,-0.3425728,-35.52435,-25.3406,43.75889
14.129232407,-8.83197000000002,1.903473,6.473727,1.029529,0.02827058,-0.332442,-35.54177,-24.57662,44.14183
14.141729832,-9.20116899999999,2.022178,7.26634699999998,0.9760851,0.01995627,-0.3289967,-35.54177,-24.57662,44.14183
14.151727676,-9.63190200000001,2.615702,7.32731800000001,0.940877,0.02656733,-0.3270227,-35.54177,-24.57662,44.14183
14.161725044,-10.49337,3.32793,7.57120099999999,0.9033349,0.02782202,-0.3212147,-35.54177,-24.57662,44.14183
14.171723366,-11.2933,3.802749,7.754113,0.8877961,0.02518181,-0.3106582,-35.53391,-24.95697,44.14386
14.179221153,-12.27783,4.218216,7.51023000000002,0.8782918,0.01238149,-0.3082455,-35.53391,-24.95697,44.14386
14.191718578,-12.52396,4.871092,7.022464,0.874841,-0.01153292,-0.3120619,-35.53391,-24.95697,44.14386
14.19921732,-11.1087,5.405263,6.59566799999998,0.8695647,-0.01601942,-0.3130087,-35.53391,-24.95697,44.14386
14.209214211,-8.52430299999999,5.76137699999998,5.92499000000001,0.872328,-0.03347626,-0.3149233,-35.53391,-24.95697,44.14386
14.221711636,-4.83231,5.88008199999999,4.766546,0.8705068,-0.04033297,-0.3168327,-35.52068,-25.34768,42.92039
14.23170948,-1.571049,5.88008199999999,3.730042,0.8781381,-0.03137822,-0.3106268,-35.52068,-25.34768,42.92039
14.241707802,0.951813900000003,5.76137699999998,3.059364,0.882827,-0.02155359,-0.3092018,-35.52068,-25.34768,42.92039
14.25170517,2.244012,5.464615,2.266744,0.8912411,-0.002374223,-0.3025213,-35.52068,-25.34768,42.92039
14.261703014,2.428612,4.811739,1.839949,0.904157,0.01055052,-0.2987186,-35.52068,-25.34768,42.92039
14.271700859,1.136414,4.099511,1.657037,0.9191043,0.01917264,-0.2915682,-35.53052,-24.96351,43.36986
14.281698227,0.0903486900000002,3.56534,1.535095,0.9326882,0.02234351,-0.2930284,-35.53052,-24.96351,43.36986
14.291696072,-1.078783,2.675054,1.778978,0.9606083,0.01462973,-0.2935537,-35.53052,-24.96351,43.36986
14.301694393,-2.432514,1.962826,1.778978,0.9801723,0.01056383,-0.3022011,-35.53052,-24.96351,43.36986
14.311691761,-2.92478,1.191245,2.083832,0.9938412,0.009455018,-0.2936103,-35.53052,-24.96351,43.36986
14.321689606,-3.355512,0.5383689,2.449656,1.010466,0.006359954,-0.2960314,-35.90329,-24.97014,42.91557
14.33168745,-3.540112,-0.3519166,2.75451,1.012368,0.008814088,-0.2974711,-35.90329,-24.97014,42.91557
14.341684818,-4.278511,-0.648678499999998,3.303247,1.017086,0.01721216,-0.2926957,-35.90329,-24.97014,42.91557
14.351682663,-5.324575,-1.242202,3.608101,1.018394,0.02554287,-0.2879143,-35.90329,-24.97014,42.91557
14.361680985,-6.55523999999999,-1.420259,4.034896,1.021856,0.02265177,-0.2927054,-35.90329,-24.97014,42.91557
14.371677876,-7.97050500000002,-1.717021,4.156838,1.02489,0.0169111,-0.2893592,-37.03368,-24.60149,42.5182
14.381676197,-8.83197000000002,-2.132488,4.461692,1.033751,0.01230572,-0.2807591,-37.03368,-24.60149,42.5182
14.391674042,-8.46277000000003,-2.013783,4.583633,1.026626,0.002419805,-0.2836156,-37.03368,-24.60149,42.5182
14.40167141,-6.49370699999998,-2.42925,4.522663,1.027718,-0.003897789,-0.2860087,-37.03368,-24.60149,42.5182
14.411669254,-4.401577,-2.19184,4.644604,1.026222,-0.001948503,-0.282178,-37.03368,-24.60149,42.5182
14.421667576,-3.601645,-1.835726,4.400721,1.023677,0.003832513,-0.2821751,-36.64491,-25.35612,42.91204
14.431664467,-3.601645,-1.479612,4.095867,1.029051,0.002901016,-0.2893628,-36.64491,-25.35612,42.91204
14.441662788,-3.540112,-0.9454404,3.48616,1.020377,-0.002046432,-0.2802535,-36.64491,-25.35612,42.91204
14.451660633,-2.309447,-0.589326100000003,2.815481,1.016222,-0.0142683,-0.2792859,-36.64491,-25.35612,42.91204
14.461658001,-0.4019172,-0.05515479,2.266744,1.008517,-0.01934573,-0.2864498,-36.64491,-25.35612,42.91204
14.471655846,0.5826145,0.597721199999998,1.596066,1.000781,-0.02232211,-0.2763855,-35.89543,-25.35049,42.9176
14.48165369,1.628679,0.775778400000001,0.925387699999998,0.9964696,-0.0262992,-0.2768555,-35.89543,-25.35049,42.9176
14.491651058,2.244012,1.250597,0.31568,0.9901804,-0.02893212,-0.2854582,-35.89543,-25.35049,42.9176
14.50164938,2.736278,1.903473,-0.4159691,0.9804492,-0.0295533,-0.2792196,-35.89543,-25.35049,42.9176
14.511647225,2.428612,2.55635,-1.086647,0.9712386,-0.03220008,-0.2830315,-35.89543,-25.35049,42.9176
14.521645069,1.628679,2.853111,-1.574414,0.9681342,-0.02252064,-0.2806357,-36.27017,-25.35331,42.91483
14.531642437,0.3980148,2.971816,-2.001209,0.9597929,-0.01917419,-0.2686577,-36.27017,-25.35331,42.91483
14.541640282,-1.263382,3.149873,-2.428004,0.9666292,-0.02005926,-0.2739336,-36.27017,-25.35331,42.91483
14.551638603,-1.878715,3.268578,-2.793829,0.9717198,-0.03160373,-0.2720253,-36.27017,-25.35331,42.91483
14.561635971,-1.940248,3.387283,-3.342566,0.9707367,-0.03112845,-0.2710665,-36.27017,-25.35331,42.91483
14.571633816,-2.494047,3.684045,-4.013244,0.9737319,-0.03496996,-0.2725064,-37.03735,-24.59441,43.35671
14.581631661,-2.863246,3.862102,-4.257127,0.9722137,-0.0321501,-0.2796832,-37.03735,-24.59441,43.35671
14.591629028,-3.293979,3.862102,-4.622952,0.9721333,-0.02772558,-0.2739412,-37.03735,-24.59441,43.35671
14.601626873,-3.601645,3.802749,-4.805864,0.9706998,-0.02919856,-0.2725026,-37.03735,-24.59441,43.35671
14.611625195,-3.170913,3.446635,-4.988776,0.9713073,-0.03544679,-0.2662806,-35.90329,-24.97014,42.91557
14.621622085,-1.755648,3.387283,-5.171688,0.980597,-0.03726842,-0.2729964,-35.90329,-24.97014,42.91557
14.631620407,0.0903486900000002,3.268578,-5.415571,0.9844087,-0.03291176,-0.2830543,-35.90329,-24.97014,42.91557
14.641618252,1.25948,3.209226,-5.3546,0.9826837,-0.01882721,-0.2801835,-35.90329,-24.97014,42.91557
14.65161562,1.382547,3.031168,-5.110718,0.9824285,-0.005217118,-0.2792293,-35.90329,-24.97014,42.91557
14.661613464,0.3364816,3.031168,-4.927805,0.9828002,0.001208353,-0.2682244,-36.2842,-24.59586,42.52377
14.671611786,-0.586516899999998,3.031168,-4.561981,0.9785978,-0.008624208,-0.2715646,-36.2842,-24.59586,42.52377
14.681608677,-0.832649800000001,2.675054,-4.50101,0.9821714,-0.01730933,-0.2725257,-36.2842,-24.59586,42.52377
14.691606998,0.2134152,2.437645,-4.135185,0.9832708,-0.02416974,-0.2811403,-36.2842,-24.59586,42.52377
14.701604843,1.382547,2.615702,-3.830332,0.9863462,-0.03244456,-0.2892793,-36.2842,-24.59586,42.52377
14.711602211,2.120945,2.496997,-3.586449,0.9895027,-0.01870565,-0.2816311,-36.27634,-24.97622,42.52579
14.721600056,1.997879,2.496997,-3.281595,0.9874088,-0.01095879,-0.2801937,-36.27634,-24.97622,42.52579
14.7315979,0.890280700000001,2.081531,-2.976741,0.9874175,-0.01145772,-0.2816293,-36.27634,-24.97622,42.52579
14.741595268,-0.0942510000000003,1.962826,-2.610917,0.9839096,-0.006111489,-0.2739674,-36.27634,-24.97622,42.52579
14.75159359,-0.586516899999998,1.844121,-2.488975,0.9860122,-0.01435727,-0.2768404,-36.27634,-24.97622,42.52579
14.761591434,-0.1557842,1.962826,-2.306063,0.9846324,-0.01877994,-0.2792297,-36.26231,-25.73366,42.91685
14.771589279,0.4595481,2.081531,-2.428004,0.9850367,-0.01441602,-0.2811459,-36.26231,-25.73366,42.91685
14.781586647,0.3980148,2.200235,-2.245092,0.9820156,-0.00907333,-0.2749204,-36.26231,-25.73366,42.91685
14.791584492,0.0903486900000002,2.259588,-2.123151,0.9800775,-0.009562472,-0.2710883,-36.26231,-25.73366,42.91685
14.801582813,-0.2173175,2.31894,-2.123151,0.9712538,-0.006851857,-0.2744237,-36.26231,-25.73366,42.91685
14.811580181,-0.03271778,2.140883,-1.757326,0.970279,-0.006888661,-0.2763363,-35.89374,-25.35376,42.5306
14.821578026,0.3364816,2.437645,-1.757326,0.9723007,-0.01072748,-0.2753817,-35.89374,-25.35376,42.5306
14.83157587,0.5210813,2.31894,-1.391501,0.9829157,-0.005203105,-0.2787516,-35.89374,-25.35376,42.5306
14.841573238,0.5826145,2.378292,-1.025677,0.9839272,-0.007100569,-0.2758814,-35.89374,-25.35376,42.5306
14.851571083,0.890280700000001,2.55635,-0.8427644,0.9883116,-0.007000787,-0.2744534,-35.89374,-25.35376,42.5306
14.861569405,0.644147799999998,2.378292,-0.598881400000002,0.9921188,-0.002017901,-0.269197,-35.90329,-24.97014,42.91557
14.871566296,0.951813900000003,2.259588,-0.2330568,0.9925859,-0.001093813,-0.2754195,-35.90329,-24.97014,42.91557
14.881564617,0.5826145,1.962826,0.1327677,0.9949489,0.002853562,-0.2739889,-35.90329,-24.97014,42.91557
14.891562462,0.2134152,2.022178,0.4985923,0.9955731,-0.004414453,-0.273031,-35.90329,-24.97014,42.91557
14.90155983,0.3364816,1.784769,0.864416900000002,0.9887171,-0.002606141,-0.2730195,-35.90329,-24.97014,42.91557
14.911557674,-0.0942510000000003,1.725416,1.047329,0.9886084,0.003249328,-0.2701494,-36.27634,-24.97622,42.52579
14.921555996,-0.5249836,1.725416,1.291212,0.9862208,0.0008470195,-0.2620088,-36.27634,-24.97622,42.52579
14.931552887,-1.447982,1.428654,1.474125,0.9809524,-0.004164738,-0.2672627,-36.27634,-24.97622,42.52579
14.941551208,-1.755648,1.369302,1.535095,0.9799693,-0.003693832,-0.2667825,-36.27634,-24.97622,42.52579
14.951549053,-1.632582,1.428654,1.657037,0.9757836,-0.01454181,-0.2749082,-36.27634,-24.97622,42.52579
14.961546421,-0.7711166,1.428654,1.839949,0.9772561,-0.01493725,-0.2682106,-36.25275,-26.11729,42.53188
14.971544266,-0.2788507,1.191245,1.839949,0.97425,-0.01066265,-0.2725136,-36.25275,-26.11729,42.53188
14.98154211,-0.0942510000000003,1.07254,1.657037,0.9741596,-0.005778699,-0.2696433,-36.25275,-26.11729,42.53188
14.991540432,-0.2788507,1.191245,1.657037,0.9770545,-0.004276842,-0.2710844,-36.25275,-26.11729,42.53188
15.0015378,-0.586516899999998,1.250597,1.535095,0.9794538,-0.002276898,-0.270132,-36.25275,-26.11729,42.53188
15.011535645,-0.6480501,0.894483100000001,1.474125,0.9761454,-0.007656913,-0.2667748,-36.63536,-25.73975,42.52707
15.021533489,-0.0942510000000003,0.953835399999999,1.413154,0.9747466,-0.01112562,-0.2710786,-36.63536,-25.73975,42.52707
15.031530857,0.705681,0.775778400000001,1.169271,0.9747031,-0.008630973,-0.2639005,-36.63536,-25.73975,42.52707
15.041528702,0.8287475,0.953835399999999,1.230241,0.9751152,-0.004801096,-0.2710809,-36.63536,-25.73975,42.52707
15.051527023,0.4595481,0.894483100000001,1.169271,0.9731022,-0.001461209,-0.2734711,-36.63536,-25.73975,42.52707
15.061524391,-0.1557842,0.894483100000001,1.352183,0.9739316,0.006365334,-0.269646,-36.64939,-24.9823,42.13601
15.071522236,-1.263382,0.775778400000001,1.230241,0.9730377,0.001921563,-0.2753862,-36.64939,-24.9823,42.13601
15.081520081,-1.817181,0.5383689,1.413154,0.978994,-0.003743805,-0.2701308,-36.64939,-24.9823,42.13601
15.091517448,-1.571049,0.2416071,1.474125,0.9821536,-0.01632464,-0.2710902,-36.64939,-24.9823,42.13601
15.101515293,-0.709583300000001,0.004197581,1.413154,0.9878427,-0.007986322,-0.2749309,-36.64939,-24.9823,42.13601
15.111513615,-0.1557842,0.004197581,1.535095,0.9896085,0.001763011,-0.275415,-37.01796,-25.3622,42.52226
15.121510506,-0.5249836,-0.1145072,1.657037,0.9943263,0.01017425,-0.269204,-37.01796,-25.3622,42.52226
15.131508827,-1.078783,-0.411269,1.778978,0.9889692,0.0101035,-0.265366,-37.01796,-25.3622,42.52226
15.141506672,-2.124848,-0.411269,1.535095,0.9831501,0.008495618,-0.2691841,-37.01796,-25.3622,42.52226
15.15150404,-2.370981,-0.767383199999997,1.535095,0.9842342,0.002694509,-0.2682273,-37.01796,-25.3622,42.52226
15.161501884,-1.878715,-0.648678499999998,1.596066,0.9770107,-0.001790975,-0.2648635,-37.01627,-25.36547,42.13526
15.171500206,-1.017249,-1.004793,1.596066,0.9693351,-0.008273022,-0.2662842,-37.01627,-25.36547,42.13526
15.181498051,-0.4019172,-0.9454404,1.596066,0.9721382,-0.001931104,-0.2696407,-37.01627,-25.36547,42.13526
15.191495419,0.5210813,-1.123497,1.657037,0.9731594,-0.004296773,-0.2648562,-37.01627,-25.36547,42.13526
15.201493263,0.767214200000001,-1.242202,1.352183,0.9715689,0.002431123,-0.2696409,-36.63367,-25.74302,42.14007
15.211491108,0.4595481,-0.708030899999999,1.1083,0.975395,0.006460042,-0.2624699,-36.63367,-25.74302,42.14007
15.221488476,-0.2173175,-0.9454404,0.986358399999998,0.9770205,-0.00225479,-0.2624705,-36.63367,-25.74302,42.14007
15.231486321,0.02881546,-1.004793,0.681504599999997,0.9810525,-0.00951689,-0.2682186,-36.63367,-25.74302,42.14007
15.241484642,0.767214200000001,-0.9454404,0.5595631,0.98983,-0.009816255,-0.2667981,-36.63367,-25.74302,42.14007
15.25148201,1.321013,-1.064145,0.31568,0.9878724,-0.00936899,-0.2667948,-36.65725,-24.60195,42.13399
15.261479855,1.382547,-1.18285,0.01082622,0.9911736,-0.003446152,-0.2639306,-36.65725,-24.60195,42.13399
15.271477699,0.705681,-1.242202,0.01082622,0.9896471,-0.0001141957,-0.268236,-36.65725,-24.60195,42.13399
15.281475067,0.2134152,-1.004793,-0.2940276,0.9887652,-0.004955944,-0.2644046,-36.65725,-24.60195,42.13399
15.291472912,-0.1557842,-1.004793,-0.598881400000002,0.9893058,-0.007900393,-0.268712,-36.65725,-24.60195,42.13399
15.301471233,-0.1557842,-0.886087999999999,-0.7817937,0.9849048,-0.00697598,-0.2643974,-36.27017,-25.35331,42.91483
15.311468601,0.02881546,-0.826735599999998,-0.8427644,0.9849494,-0.0094399,-0.2682254,-36.27017,-25.35331,42.91483
15.321466446,0.4595481,-0.826735599999998,-0.8427644,0.9815846,-0.01195363,-0.2701332,-36.27017,-25.35331,42.91483
15.331464291,0.5210813,-0.767383199999997,-1.025677,0.9835614,-0.0133417,-0.2667862,-36.27017,-25.35331,42.91483
15.341462135,0.3980148,-0.411269,-1.025677,0.983452,-0.007512558,-0.2667876,-36.27017,-25.35331,42.91483
15.351459503,0.0903486900000002,-0.5299737,-0.964705900000002,0.9848401,-0.003601984,-0.2672696,-35.89374,-25.35376,42.5306
15.361457825,-0.2173175,-0.3519166,-0.903735200000002,0.9829198,-0.005075819,-0.264873,-35.89374,-25.35376,42.5306
15.371455669,-0.4634504,-0.2925643,-0.903735200000002,0.9829279,-0.005592304,-0.2682229,-35.89374,-25.35376,42.5306
15.381453037,-1.140316,-0.2332119,-0.7817937,0.980014,-0.006148974,-0.2696534,-35.89374,-25.35376,42.5306
15.391450882,-1.386449,-0.2332119,-0.4769399,0.9780759,-0.006638118,-0.2658213,-35.89374,-25.35376,42.5306
15.401448727,-1.447982,-0.2925643,-0.4159691,0.9829565,-0.007010086,-0.2639154,-36.26848,-25.35658,42.52782
15.411446095,-0.5249836,-0.411269,-0.3549984,0.9844889,-0.01092875,-0.2706171,-36.26848,-25.35658,42.52782
15.421444416,0.2749484,-0.411269,-0.1111153,0.9937719,-0.01218563,-0.2687187,-36.26848,-25.35658,42.52782
15.431442261,0.1518819,-0.3519166,-0.05014454,0.9936523,-0.005901455,-0.2720701,-36.26848,-25.35658,42.52782
15.441439629,-0.2173175,-0.2332119,0.1937385,0.9979277,4.063314e-05,-0.2692076,-36.26848,-25.35658,42.52782
15.451437473,-0.7711166,-0.2925643,0.2547093,0.9920641,0.0008966676,-0.2691976,-36.64322,-25.35939,42.52504
15.461435318,-1.017249,-0.2925643,0.3766508,0.9893683,-0.01134461,-0.273497,-36.64322,-25.35939,42.52504
15.471432686,-0.5249836,-0.1145072,0.4376215,0.9923819,-0.01615326,-0.2744581,-36.64322,-25.35939,42.52504
15.481430531,-0.03271778,-0.1738595,0.31568,0.9869621,-0.01278856,-0.2667923,-36.64322,-25.35939,42.52504
15.491428852,0.4595481,-0.05515479,0.31568,0.9917941,-0.01082829,-0.2754156,-36.64322,-25.35939,42.52504
15.501426697,0.3980148,0.1822547,0.1937385,0.9911351,-0.001564556,-0.2706311,-36.63367,-25.74302,42.14007
15.511424065,-0.709583300000001,0.4790165,0.4985923,0.986264,-0.001660793,-0.2706226,-36.63367,-25.74302,42.14007
15.521421909,-2.001781,0.1822547,0.3766508,0.9838035,-0.0001770114,-0.2624829,-36.63367,-25.74302,42.14007
15.531419754,-3.170913,0.06354995,0.681504599999997,0.9765779,-0.004728334,-0.2662977,-36.63367,-25.74302,42.14007
15.541417122,-3.170913,0.06354995,0.4985923,0.9762357,-0.01254086,-0.2696452,-36.63367,-25.74302,42.14007
15.551415444,-2.617113,-0.1145072,0.4376215,0.97927,-0.01824642,-0.2624703,-36.64322,-25.35939,42.52504
15.561413288,-1.755648,0.1229023,0.2547093,0.969923,-0.0135936,-0.2648481,-36.64322,-25.35939,42.52504
15.571410656,-1.017249,0.2416071,-0.05014454,0.967397,-0.008757774,-0.2619735,-36.64322,-25.35939,42.52504
15.581408501,-0.4634504,0.4196641,-0.1111153,0.9692617,-0.004400099,-0.2677208,-36.64322,-25.35939,42.52504
15.591406346,-0.2788507,0.3009594,-0.4769399,0.9639696,-0.007836061,-0.2600535,-36.64322,-25.35939,42.52504
15.601403713,-0.2173175,0.3009594,-0.5379106,0.9712558,-0.00678602,-0.2672451,-37.00224,-26.12291,42.52631
15.611402035,0.2134152,0.1229023,-0.659852100000001,0.9728189,-0.01206102,-0.2629392,-37.00224,-26.12291,42.52631
15.621399879,1.136414,0.3603118,-0.7817937,0.9815765,-0.01143714,-0.2667833,-37.00224,-26.12291,42.52631
15.631397724,1.813279,0.1229023,-0.720822899999998,0.9869156,-0.01038609,-0.2696643,-37.00224,-26.12291,42.52631
15.641395092,2.120945,0.06354995,-0.903735200000002,0.9883772,-0.01034844,-0.2687097,-37.00224,-26.12291,42.52631
15.651392937,1.874812,0.1822547,-0.659852100000001,0.9989933,-0.004793346,-0.2687297,-36.26231,-25.73366,42.91685
15.661391258,1.25948,0.1229023,-0.5379106,0.9994146,-0.00144484,-0.2754313,-36.26231,-25.73366,42.91685
15.671388626,0.3364816,0.06354995,-0.4159691,1.000372,-0.0004145687,-0.2711261,-36.26231,-25.73366,42.91685
15.681386471,-0.4019172,0.004197581,-0.2940276,0.9956459,-0.008309322,-0.2739872,-36.26231,-25.73366,42.91685
15.691384315,-0.709583300000001,0.1229023,-0.1111153,0.9995077,-0.006241005,-0.2687302,-36.26231,-25.73366,42.91685
15.701381683,-0.832649800000001,0.06354995,0.0717969800000001,0.9970523,-0.005370274,-0.274469,-36.64153,-25.36266,42.13804
15.711379528,-1.571049,0.4790165,0.1937385,0.9878091,-0.005951104,-0.2648813,-36.64153,-25.36266,42.13804
15.72137785,-2.063314,0.4196641,0.4985923,0.9853566,-0.004988198,-0.26057,-36.64153,-25.36266,42.13804
15.731374741,-1.940248,0.657073599999999,0.681504599999997,0.9818838,-0.0016289,-0.2576934,-36.64153,-25.36266,42.13804
15.741373062,-2.186381,0.894483100000001,0.803446099999999,0.9726459,-0.002818388,-0.2615056,-37.01965,-25.35893,42.90926
15.751370907,-1.940248,0.953835399999999,0.803446099999999,0.9707997,-0.0081432,-0.2552795,-37.01965,-25.35893,42.90926
15.761368751,-1.201849,1.30995,0.620533899999998,0.9718459,-0.01204076,-0.2586304,-37.01965,-25.35893,42.90926
15.771366119,0.2749484,1.606712,0.3766508,0.9762112,-0.01099579,-0.260074,-37.01965,-25.35893,42.90926
15.781363964,1.25948,1.606712,0.1937385,0.9776085,-0.007570983,-0.2605559,-37.01965,-25.35893,42.90926
15.791362286,1.751746,1.606712,0.2547093,0.9736639,-0.005285006,-0.2677282,-36.64153,-25.36266,42.13804
15.801359653,1.874812,1.962826,-0.05014454,0.9834527,-0.007490613,-0.2643947,-36.64153,-25.36266,42.13804
15.811357498,2.428612,2.022178,-0.05014454,0.9829557,-0.007036421,-0.2667868,-36.64153,-25.36266,42.13804
15.821355343,2.490145,2.259588,0.01082622,0.9873196,-0.006035344,-0.2730162,-36.64153,-25.36266,42.13804
15.831352711,2.182479,2.081531,-0.2940276,0.9902069,-0.003999442,-0.2691931,-36.64153,-25.36266,42.13804
15.841350555,1.382547,2.200235,-0.05014454,0.9907113,-0.004992064,-0.2725438,-37.0118,-25.73929,42.91129
15.851348877,0.5826145,2.140883,0.1937385,0.996097,-0.006339097,-0.2720743,-37.0118,-25.73929,42.91129
15.861346722,-0.4019172,1.903473,0.4376215,0.9931112,-0.002974565,-0.269677,-37.0118,-25.73929,42.91129
15.871344089,-1.201849,1.547359,0.7424754,0.997513,-0.003872642,-0.2711202,-37.0118,-25.73929,42.91129
15.881341934,-1.632582,1.369302,1.047329,0.9955859,-0.004786097,-0.2605879,-37.0118,-25.73929,42.91129
15.891339779,-2.309447,1.07254,0.803446099999999,0.9975043,-0.003373712,-0.2696846,-37.01429,-25.36928,41.68375
15.901337147,-2.063314,0.657073599999999,0.681504599999997,0.999464,-0.00375514,-0.2625093,-37.01429,-25.36928,41.68375
15.911335468,-1.509515,0.597721199999998,0.5595631,0.9941787,-0.007751483,-0.2629776,-37.01429,-25.36928,41.68375
15.921333313,-0.709583300000001,0.716426,0.1937385,0.9868621,-0.007436412,-0.2658364,-37.01429,-25.36928,41.68375
15.931330681,-0.2788507,0.2416071,0.0717969800000001,0.9834818,-0.008890838,-0.2581729,-37.01429,-25.36928,41.68375
15.941328526,0.644147799999998,0.2416071,-0.2940276,0.977129,-0.008114651,-0.2658193,-37.02413,-24.98512,42.13323
15.95132637,1.321013,0.1229023,-0.2940276,0.9742779,-0.01210237,-0.270599,-37.02413,-24.98512,42.13323
15.961323738,1.751746,0.06354995,-0.598881400000002,0.9717715,-0.008198567,-0.263417,-37.02413,-24.98512,42.13323
15.97132206,2.305545,0.1822547,-0.4769399,0.9702913,-0.007273473,-0.2653289,-37.02413,-24.98512,42.13323
15.981319904,2.367078,0.2416071,-0.3549984,0.9687116,-0.0009830582,-0.2648492,-37.02413,-24.98512,42.13323
15.991317749,1.751746,0.1229023,0.01082622,0.9745749,-0.001847873,-0.2658164,-36.64153,-25.36266,42.13804
16.001315117,0.767214200000001,0.3009594,0.1937385,0.9745218,0.001119364,-0.2600742,-36.64153,-25.36266,42.13804
16.011312962,-0.4019172,0.1822547,0.31568,0.9759545,0.002566019,-0.2643842,-36.64153,-25.36266,42.13804
16.021311283,-1.263382,0.3009594,0.4985923,0.9799044,-0.0003242271,-0.2701333,-36.64153,-25.36266,42.13804
16.031308174,-1.817181,0.2416071,0.5595631,0.9857685,-0.00116271,-0.268229,-36.64153,-25.36266,42.13804
16.041306496,-2.309447,0.4196641,0.7424754,0.9853719,-0.006051893,-0.2706199,-37.01627,-25.36547,42.13526
16.05130434,-2.432514,0.4196641,0.7424754,0.9853633,-0.005548576,-0.2687057,-37.01627,-25.36547,42.13526
16.061301708,-2.74018,0.657073599999999,0.7424754,0.9854172,-0.008489477,-0.2715765,-37.01627,-25.36547,42.13526
16.071299553,-3.170913,0.657073599999999,0.620533899999998,0.9908126,-0.01030471,-0.2691926,-37.01627,-25.36547,42.13526
16.081297874,-3.047846,0.8351307,0.5595631,0.9859881,-0.01279903,-0.2658335,-37.01627,-25.36547,42.13526
16.091295719,-2.309447,0.8351307,0.4376215,0.9856935,-0.02298331,-0.2629589,-36.27464,-24.97949,42.13879
16.101293087,-1.201849,0.8351307,0.31568,0.9840851,-0.01527512,-0.2667867,-36.27464,-24.97949,42.13879
16.111290932,-0.4019172,0.8351307,0.1937385,0.990483,-0.01849766,-0.2610541,-36.27464,-24.97949,42.13879
16.121288776,0.5826145,0.716426,-0.05014454,0.9859617,-0.01131103,-0.2624838,-36.27464,-24.97949,42.13879
16.131286144,0.951813900000003,0.894483100000001,-0.1720861,0.9829113,-0.00456811,-0.2624802,-36.27464,-24.97949,42.13879
16.141283989,0.644147799999998,0.775778400000001,-0.4769399,0.9798697,0.001675877,-0.2639122,-36.63367,-25.74302,42.14007
16.151282311,-0.03271778,0.716426,-0.4769399,0.9697618,-0.004753337,-0.2543215,-36.63367,-25.74302,42.14007
16.161279678,-0.3403839,0.8351307,-0.7817937,0.960479,-0.003492073,-0.2557413,-36.63367,-25.74302,42.14007
16.171277523,-0.955716300000001,0.657073599999999,-0.659852100000001,0.9629053,-0.002962583,-0.2562243,-36.63367,-25.74302,42.14007
16.181275368,-1.140316,0.657073599999999,-0.4159691,0.9528685,-0.01333933,-0.2533326,-36.63367,-25.74302,42.14007
16.191272736,-1.201849,0.5383689,-0.4769399,0.9539617,-0.01962182,-0.2518972,-37.00841,-25.74583,42.13729
16.20127058,-0.832649800000001,0.4196641,-0.4769399,0.9403037,-0.0189417,-0.2542664,-37.00841,-25.74583,42.13729
16.211268902,-0.709583300000001,0.4196641,-0.4159691,0.9260606,-0.01285762,-0.2489788,-37.00841,-25.74583,42.13729
16.221266747,-0.5249836,0.597721199999998,-0.5379106,0.9203506,-0.02030781,-0.2542313,-37.00841,-25.74583,42.13729
16.231264114,-0.3403839,0.775778400000001,-0.598881400000002,0.9181812,-0.008749478,-0.2609305,-37.00841,-25.74583,42.13729
16.241261959,-1.201849,0.657073599999999,-0.598881400000002,0.9193896,0.004959716,-0.2523218,-37.39101,-25.36828,42.13248
16.251259804,-4.032378,0.3009594,-0.4159691,0.9256961,0.00659039,-0.2470689,-37.39101,-25.36828,42.13248
16.261257172,-5.87837500000002,-0.5299737,-0.05014454,0.9330568,0.003798232,-0.2494739,-37.39101,-25.36828,42.13248
16.271255493,-6.06297400000002,-1.538964,0.2547093,0.9463812,-0.005197723,-0.2523662,-37.39101,-25.36828,42.13248
16.281253338,-5.263042,-2.19184,0.803446099999999,0.9601923,-0.01419723,-0.2566952,-37.39101,-25.36828,42.13248
16.291250706,-4.216978,-3.082125,1.291212,0.9841566,-0.0192051,-0.2715716,-36.63786,-25.36974,41.29954
16.30124855,-2.74018,-3.794354,1.535095,1.004438,-0.009698718,-0.2854881,-36.63786,-25.36974,41.29954
16.311246395,-2.678647,-4.269173,2.022861,1.026265,-0.004451926,-0.2903132,-36.63786,-25.36974,41.29954
16.321244717,-2.863246,-4.625287,2.205774,1.03785,0.0009600201,-0.3080421,-36.63786,-25.36974,41.29954
16.331241608,-3.540112,-4.922049,2.876452,1.04229,-0.00182404,-0.3032634,-36.64153,-25.36266,42.13804
16.341239929,-3.663178,-5.040754,3.48616,1.043344,-0.006255652,-0.3118784,-36.64153,-25.36266,42.13804
16.351237774,-3.601645,-5.159458,4.156838,1.039042,-0.01072728,-0.3133055,-36.64153,-25.36266,42.13804
16.361235142,-3.724712,-5.218811,4.949458,1.038936,-0.004788418,-0.3013425,-36.64153,-25.36266,42.13804
16.371232987,-4.032378,-5.159458,5.86401899999998,1.032954,0.002386905,-0.3008553,-36.64153,-25.36266,42.13804
16.381231308,-5.447642,-4.743992,6.96149300000002,1.014659,0.01665195,-0.2955628,-37.0126,-25.37255,41.29675
16.391228199,-9.07810300000001,-4.20982,8.11993799999998,1.004359,0.02041933,-0.2864528,-37.0126,-25.37255,41.29675
16.401226521,-13.3239,-3.972411,9.09546899999999,0.9930907,0.02357197,-0.2893054,-37.0126,-25.37255,41.29675
16.411224365,-16.27749,-3.378887,9.94906,0.9825841,0.01218335,-0.2897628,-37.0126,-25.37255,41.29675
16.42122221,-17.69275,-2.844716,10.43683,0.9817663,0.003950053,-0.2849735,-37.0126,-25.37255,41.29675
16.431219578,-18.18502,-2.132488,10.68071,0.9861742,0.002469654,-0.2969452,-36.62214,-26.13045,41.30359
16.441217423,-17.87736,-2.013783,10.74168,0.9943636,0.007486484,-0.2974393,-36.62214,-26.13045,41.30359
16.451215744,-18.06195,-1.18285,10.4978,1.019021,0.01762669,-0.3046636,-36.62214,-26.13045,41.30359
16.461213112,-19.16955,-1.123497,9.94906,1.028304,0.0163347,-0.3065937,-36.62214,-26.13045,41.30359
16.471210957,-18.98495,-1.598316,8.79061600000001,1.039002,0.0175355,-0.3046984,-36.62214,-26.13045,41.30359
16.481208801,-16.76976,-2.607306,7.26634699999998,1.03943,-0.005339173,-0.309479,-36.99519,-26.13653,40.91381
16.491207123,-12.33936,-3.141478,5.681107,1.033363,-0.01951186,-0.3051576,-36.99519,-26.13653,40.91381
16.501204014,-7.35517199999998,-3.675649,3.669072,1.016153,-0.0110172,-0.2955582,-36.99519,-26.13653,40.91381
16.511202335,-3.232446,-4.031764,1.96189,0.9939776,0.002155431,-0.2950444,-36.99519,-26.13653,40.91381
16.52120018,-0.586516899999998,-4.684639,0.620533899999998,0.9698915,0.01338164,-0.2906981,-36.99519,-26.13653,40.91381
16.531197548,0.5826145,-5.515573,-0.659852100000001,0.9536911,0.01992177,-0.2844501,-37.37779,-25.75899,40.909
16.541195393,1.197947,-6.64326800000002,-1.574414,0.9362272,0.0156585,-0.2877685,-37.37779,-25.75899,40.909
16.551193237,1.07488,-7.65225799999999,-2.306063,0.9325119,0.005835556,-0.2911096,-37.37779,-25.75899,40.909
16.561190605,1.505613,-8.542543,-2.976741,0.9360545,-0.001506391,-0.304514,-37.37779,-25.75899,40.909
16.571188927,2.428612,-9.07671499999999,-3.464507,0.9341398,-0.003575715,-0.3140816,-37.37779,-25.75899,40.909
16.581186772,1.874812,-8.89865800000003,-4.257127,0.9394622,-0.001504862,-0.3116986,-36.99885,-26.12945,41.75231
16.591184616,-0.2173175,-8.72059999999997,-5.171688,0.9521356,-0.001757963,-0.3136349,-36.99885,-26.12945,41.75231
16.601181984,-1.632582,-8.66124800000001,-5.78139599999999,0.9585154,-0.004004599,-0.307424,-36.99885,-26.12945,41.75231
16.611179829,-3.047846,-9.31412399999998,-6.08625000000001,0.9680914,-0.02077511,-0.302172,-36.99885,-26.12945,41.75231
16.62117815,-3.540112,-10.44182,-6.14722099999998,0.9835104,-0.03749597,-0.3041089,-36.99885,-26.12945,41.75231
16.631175518,-2.92478,-11.51016,-6.14722099999998,1.003687,-0.04764769,-0.288827,-36.2415,-26.50418,41.7599
16.641173363,-1.878715,-12.63786,-5.720425,1.021161,-0.04384385,-0.282637,-36.2415,-26.50418,41.7599
16.651171207,-1.509515,-13.40944,-5.415571,1.025104,-0.0461781,-0.2807289,-36.2415,-26.50418,41.7599
16.661168575,-0.7711166,-13.88426,-5.78139599999999,1.037443,-0.054769,-0.2903197,-36.2415,-26.50418,41.7599
16.67116642,-0.709583300000001,-13.76555,-6.57401600000003,1.037256,-0.07083948,-0.2936653,-36.2415,-26.50418,41.7599
16.681164741,0.2134152,-13.40944,-7.366636,1.021013,-0.08819467,-0.296504,-36.61625,-26.507,41.75713
16.691162586,3.474676,-13.58749,-7.976343,0.9956064,-0.1105727,-0.2974111,-36.61625,-26.507,41.75713
16.701159954,7.78200200000001,-13.76555,-8.64702100000002,0.9703323,-0.1139658,-0.2949733,-36.61625,-26.507,41.75713
16.711157799,11.2894,-13.58749,-9.01284600000001,0.9447955,-0.1032104,-0.2858386,-36.61625,-26.507,41.75713
16.721155643,12.27393,-13.58749,-9.07381699999998,0.9273229,-0.08056279,-0.2690638,-36.61625,-26.507,41.75713
16.731153011,11.35093,-13.64685,-9.13478800000001,0.9147342,-0.05818623,-0.2393759,-36.24658,-26.49437,42.92091
16.741150856,10.24333,-13.94361,-8.64702100000002,0.9156675,-0.05558895,-0.2231066,-36.24658,-26.49437,42.92091
16.751149177,9.25880099999997,-13.88426,-8.46410900000001,0.9187441,-0.06382425,-0.2269384,-36.24658,-26.49437,42.92091
16.761146545,9.19726699999998,-13.35009,-8.15925599999997,0.9349149,-0.06897733,-0.240844,-36.24658,-26.49437,42.92091
16.77114439,9.38186599999998,-12.51915,-7.976343,0.9613307,-0.07498322,-0.2638602,-36.24658,-26.49437,42.92091
16.781142235,10.61253,-11.0947,-7.976343,0.9778506,-0.07287976,-0.2820754,-35.49907,-26.48494,43.37797
16.791140556,11.78166,-9.78894299999998,-8.098285,0.9962128,-0.06479893,-0.288331,-35.49907,-26.48494,43.37797
16.801137447,11.90473,-8.542543,-7.85440200000002,1.001771,-0.04975213,-0.3022232,-35.49907,-26.48494,43.37797
16.811135769,11.2894,-7.65225799999999,-7.79343099999999,1.016213,-0.04016811,-0.2950723,-35.49907,-26.48494,43.37797
16.821133614,10.3664,-6.94003,-7.366636,1.015958,-0.02657118,-0.2955539,-35.49907,-26.48494,43.37797
16.831130981,10.1818,-6.04974400000001,-6.81789900000001,1.014261,-0.01390443,-0.2883756,-34.74172,-26.85967,43.38556
16.841128826,9.62799900000003,-4.862697,-5.90333699999997,1.026583,0.004918839,-0.2759589,-34.74172,-26.85967,43.38556
16.851126671,7.59740300000001,-2.726011,-5.049747,1.023505,0.01312781,-0.2749985,-34.74172,-26.85967,43.38556
16.861124992,5.136074,-0.4706214,-3.952273,1.020076,0.01399686,-0.2788213,-34.74172,-26.85967,43.38556
16.87112236,2.982411,1.725416,-2.488975,1.014785,0.009807395,-0.300347,-34.37823,-26.46996,44.16032
16.881120205,1.321013,4.158864,-1.086647,1.002763,0.00133958,-0.2969738,-34.37823,-26.46996,44.16032
16.89111805,0.02881546,5.88008199999999,0.4376215,0.9965277,-0.004238633,-0.3089259,-34.37823,-26.46996,44.16032
16.901115417,-0.03271778,7.54194799999998,1.657037,0.9951823,-0.0106658,-0.3180149,-34.37823,-26.46996,44.16032
16.911113262,-0.0942510000000003,9.20381500000001,2.876452,0.9940979,-0.004877852,-0.3204073,-34.37823,-26.46996,44.16032
16.921111584,-0.4634504,10.74698,3.912955,0.9959217,0.002057862,-0.3098836,-34.37654,-26.47323,43.77332
16.931108952,-0.6480501,11.51856,4.888487,0.9885381,0.006447756,-0.2921646,-34.37654,-26.47323,43.77332
16.941106796,-0.2173175,11.99338,5.376253,0.9888527,0.01571318,-0.289296,-34.37654,-26.47323,43.77332
16.951104641,0.5826145,12.7056,5.92499000000001,0.9791727,0.01206332,-0.2954997,-34.37654,-26.47323,43.77332
16.961102486,1.874812,14.01136,5.742078,0.9714991,0.005642719,-0.2902204,-34.37654,-26.47323,43.77332
16.971099854,3.16701,15.31711,5.92499000000001,0.962675,0.008344554,-0.2945128,-34.75128,-26.47604,43.77053
16.981098175,4.213075,16.08869,6.04693200000002,0.947039,0.01036884,-0.3050148,-34.75128,-26.47604,43.77053
16.99109602,5.62834,16.50415,6.71760999999998,0.9415877,0.01506353,-0.311228,-34.75128,-26.47604,43.77053
17.001093388,6.305205,16.68221,7.08343500000003,0.9367476,0.01285307,-0.3298834,-34.75128,-26.47604,43.77053
17.011091232,5.81293900000002,16.80092,7.87605399999997,0.9374043,0.02993102,-0.3236675,-34.75128,-26.47604,43.77053
17.021089077,3.905409,16.80092,8.85158600000001,0.9396856,0.03826342,-0.3208022,-34.75548,-26.10277,42.93
17.031087399,1.751746,16.08869,9.46129399999998,0.9436116,0.0369358,-0.3150657,-34.75548,-26.10277,42.93
17.041084766,-0.4634504,15.37646,9.94906,0.9453038,0.02490842,-0.3054941,-34.75548,-26.10277,42.93
17.051082611,-0.894183000000003,14.24877,10.01003,0.9506115,0.001648609,-0.3098045,-34.75548,-26.10277,42.93
17.061080456,0.5826145,13.59589,9.94906,0.9616004,-0.01274762,-0.3136486,-34.75548,-26.10277,42.93
17.071077824,1.997879,13.06172,9.15644099999999,0.966855,-0.007399335,-0.3246664,-35.12852,-26.10885,42.54022
17.081075668,2.613211,12.64625,8.30284999999999,0.9627305,0.004680875,-0.3232266,-35.12852,-26.10885,42.54022
17.09107399,2.428612,11.93402,7.205376,0.96066,0.01084755,-0.335189,-35.12852,-26.10885,42.54022
17.101071835,1.136414,11.28115,6.22984400000002,0.9581965,0.01223916,-0.3370993,-35.12852,-26.10885,42.54022
17.111069202,0.5826145,10.80633,5.315282,0.9554833,0.0009957349,-0.3385274,-35.12852,-26.10885,42.54022
17.121067047,1.07488,9.67863400000001,4.583633,0.9510517,0.003272091,-0.3456989,-35.8999,-24.97668,42.14157
17.131064892,1.44408,8.78834800000002,3.973926,0.9554572,0.00249252,-0.3342206,-35.8999,-24.97668,42.14157
17.14106226,1.505613,7.89806300000001,3.608101,0.9618254,0.0006526404,-0.3366241,-35.8999,-24.97668,42.14157
17.151060104,2.244012,7.12648200000003,3.364218,0.9715322,0.002823275,-0.332813,-35.8999,-24.97668,42.14157
17.161058426,2.367078,6.473606,2.815481,0.9799294,-0.003398243,-0.3404832,-35.8999,-24.97668,42.14157
17.171056271,2.613211,5.523968,2.69354,0.9681526,0.001386408,-0.3232352,-36.27464,-24.97949,42.13879
17.181053639,2.674744,4.218216,2.449656,0.9592729,0.006972088,-0.3308783,-36.27464,-24.97949,42.13879
17.191051483,3.105477,3.32793,2.205774,0.9481038,0.004741858,-0.3380369,-36.27464,-24.97949,42.13879
17.201049805,3.105477,2.734407,2.022861,0.9430744,0.01280261,-0.3490375,-36.27464,-24.97949,42.13879
17.211046696,1.505613,2.615702,2.327715,0.9444821,0.01578116,-0.3452121,-36.27464,-24.97949,42.13879
17.221045017,-0.894183000000003,1.844121,2.449656,0.9408376,0.02841821,-0.3370732,-36.28082,-24.6024,41.74976
17.231042862,-3.232446,0.657073599999999,3.242276,0.9300159,0.03416729,-0.3226986,-36.28082,-24.6024,41.74976
17.24104023,-5.693775,-0.708030899999999,3.973926,0.933347,0.03871625,-0.3107411,-36.28082,-24.6024,41.74976
17.251038075,-7.90897099999997,-1.301555,4.644604,0.9401931,0.03736736,-0.3136242,-36.28082,-24.6024,41.74976
17.261035919,-10.7395,-1.717021,5.498195,0.9553771,0.03334212,-0.3083853,-36.28082,-24.6024,41.74976
17.271034241,-14.12383,-1.717021,6.41275599999997,0.9558344,0.03550547,-0.285415,-37.02413,-24.98512,42.13323
17.281031609,-16.58516,-2.310545,6.90052199999999,0.9564582,0.02822429,-0.2858928,-37.02413,-24.98512,42.13323
17.291029453,-17.13896,-3.43824,7.57120099999999,0.9674934,0.01141681,-0.2878219,-37.02413,-24.98512,42.13323
17.301027298,-15.41603,-4.328525,7.63217200000002,0.9786643,-0.0127122,-0.2935781,-37.02413,-24.98512,42.13323
17.311024666,-13.20083,-5.218811,7.44925899999998,1.010361,-0.01407359,-0.2984188,-37.02413,-24.98512,42.13323
17.321022511,-10.9241,-6.16844799999999,7.38828800000001,1.027618,0.001428028,-0.2879242,-36.6477,-24.98557,41.74901
17.331020832,-11.17023,-7.17743899999998,7.14440499999997,1.048752,0.01797816,-0.2774366,-36.6477,-24.98557,41.74901
17.341018677,-13.07776,-8.30513400000001,6.77858100000002,1.056638,0.01330525,-0.2740991,-36.6477,-24.98557,41.74901
17.351016045,-14.24689,-9.61088600000001,5.98596099999998,1.058493,-0.007514109,-0.2697898,-36.6477,-24.98557,41.74901
17.361013889,-13.26236,-10.79793,5.681107,1.052552,-0.02856646,-0.2740812,-36.6477,-24.98557,41.74901
17.371011734,-10.86257,-11.86628,4.949458,1.044625,-0.04774499,-0.2817197,-37.00671,-25.7491,41.75029
17.381009102,-8.64737,-12.5785,4.461692,1.034359,-0.04598209,-0.2793094,-37.00671,-25.7491,41.75029
17.391007423,-8.46277000000003,-13.35009,3.851984,1.00847,-0.04261044,-0.2797437,-37.00671,-25.7491,41.75029
17.401005268,-9.63190200000001,-13.23138,3.303247,0.9885696,-0.0469394,-0.2849723,-37.00671,-25.7491,41.75029
17.411003113,-11.04717,-13.23138,2.388686,0.9686962,-0.05275197,-0.2930719,-36.6477,-24.98557,41.74901
17.421000481,-11.4779,-12.51915,1.596066,0.9424397,-0.05564779,-0.2872824,-36.6477,-24.98557,41.74901
17.430998325,-11.97016,-12.22239,0.803446099999999,0.9153077,-0.06395451,-0.2867544,-36.6477,-24.98557,41.74901
17.440996647,-12.15476,-11.62887,-0.1111153,0.9041791,-0.06800489,-0.2805125,-36.6477,-24.98557,41.74901
17.450994015,-12.83163,-11.03534,-1.147618,0.9029909,-0.08262415,-0.282421,-36.6477,-24.98557,41.74901
17.46099186,-12.9547,-10.44182,-2.123151,0.9013085,-0.09670584,-0.2776287,-36.63197,-25.74628,41.75307
17.470989704,-11.90863,-9.19541899999997,-3.281595,0.903052,-0.1117531,-0.2795421,-36.63197,-25.74628,41.75307
17.480987549,-9.508835,-8.30513400000001,-4.50101,0.9128996,-0.1175171,-0.2934365,-36.63197,-25.74628,41.75307
17.490984917,-7.232106,-7.29614399999999,-5.537513,0.9323547,-0.1157319,-0.2996924,-36.63197,-25.74628,41.75307
17.500983238,-5.75530800000001,-6.287153,-6.75692799999998,0.95227,-0.1124666,-0.3045137,-36.63197,-25.74628,41.75307
17.510981083,-4.46311,-5.218811,-7.366636,0.966976,-0.09134201,-0.3112448,-36.99099,-26.50981,41.75434
17.520978451,-4.278511,-4.44723,-7.976343,0.9856643,-0.0744113,-0.3069746,-36.99099,-26.50981,41.75434
17.530976296,-4.955376,-4.031764,-8.28119799999998,1.000444,-0.05716398,-0.3127477,-36.99099,-26.50981,41.75434
17.54097414,-5.75530800000001,-3.913059,-8.22022599999998,1.017033,-0.05828967,-0.3122978,-36.99099,-26.50981,41.75434
17.550972462,-6.678307,-3.735002,-8.22022599999998,1.020147,-0.06843291,-0.3123006,-36.99099,-26.50981,41.75434
17.560969353,-4.770776,-3.675649,-7.976343,1.023767,-0.07953367,-0.3118254,-35.8589,-26.88173,41.76471
17.570967674,-1.324916,-3.378887,-7.976343,1.015131,-0.08712938,-0.3266443,-35.8589,-26.88173,41.76471
17.580965519,1.936346,-2.488602,-7.48857699999998,1.011026,-0.07600313,-0.32329,-35.8589,-26.88173,41.76471
17.590962887,4.028476,-1.895078,-7.18372300000002,1.010065,-0.05071806,-0.3194662,-35.8589,-26.88173,41.76471
17.600960732,4.520741,-1.479612,-6.02527899999998,1.007771,-0.0322669,-0.3161169,-35.8589,-26.88173,41.76471
17.610959053,3.597743,-1.301555,-4.318098,1.000713,-0.01983329,-0.3228079,-35.8589,-26.88173,41.76471
17.620956898,2.674744,-0.886087999999999,-2.610917,1.001446,-0.007298367,-0.3352554,-35.8589,-26.88173,41.76471
17.630954266,1.321013,0.004197581,-0.5379106,0.997946,-0.002473005,-0.3314219,-35.8589,-26.88173,41.76471
17.64095211,-0.832649800000001,1.013188,1.413154,0.9898918,0.01159176,-0.3170542,-35.8589,-26.88173,41.76471
17.650949955,-2.863246,1.547359,3.425189,0.9759454,0.02792596,-0.3074626,-35.8589,-26.88173,41.76471
17.660947323,-4.955376,1.606712,5.80304899999998,0.9670204,0.03672029,-0.2830419,-35.84486,-27.63917,42.15577
17.670945167,-7.41670600000002,1.547359,8.18090799999998,0.964431,0.04496961,-0.2787323,-35.84486,-27.63917,42.15577
17.680943489,-8.77043599999998,1.131893,10.43683,0.9673047,0.04735082,-0.2902238,-35.84486,-27.63917,42.15577
17.690941334,-11.17023,1.725416,12.87566,0.9724135,0.06047568,-0.3007647,-35.84486,-27.63917,42.15577
17.700938702,-14.49303,2.793759,14.88769,0.9811515,0.06202718,-0.3093947,-35.84486,-27.63917,42.15577
17.710936546,-19.29262,3.980806,17.26555,0.9854811,0.06504153,-0.3079673,-36.22578,-27.26489,41.76396
17.720934868,-23.90761,5.049149,19.76535,0.9875223,0.0602707,-0.3027053,-36.22578,-27.26489,41.76396
17.730931759,-27.90727,5.642673,21.9603,0.9863538,0.0447238,-0.2998278,-36.22578,-27.26489,41.76396
17.74093008,-30.184,5.523968,24.39913,0.9883111,0.01862251,-0.2888173,-36.22578,-27.26489,41.76396
17.750927925,-31.23007,4.989797,25.98437,0.9981949,0.0116778,-0.2725611,-36.22578,-27.26489,41.76396
17.76092577,-31.107,4.158864,27.08184,1.00406,0.01086127,-0.2682639,-36.97329,-27.27433,41.30689
17.770923138,-29.19947,3.743397,27.3867,1.010476,0.006680364,-0.2610954,-36.97329,-27.27433,41.30689
17.780920982,-28.27647,3.743397,26.65505,1.016601,0.01804821,-0.2534518,-36.97329,-27.27433,41.30689
17.790919304,-29.13794,4.336921,25.19175,1.010047,0.003861511,-0.2496081,-36.97329,-27.27433,41.30689
17.800916672,-28.83027,4.633682,22.81389,0.9953651,-0.01882574,-0.2543625,-36.97329,-27.27433,41.30689
17.810914516,-25.56901,4.989797,19.76535,0.9833918,-0.05605527,-0.261032,-36.96034,-27.66449,40.14792
17.820912361,-18.86189,5.82073000000003,15.80225,0.9680609,-0.09634573,-0.2763094,-36.96034,-27.66449,40.14792
17.830910206,-10.67797,7.00777700000002,11.83915,0.9628443,-0.1043598,-0.2911341,-36.96034,-27.66449,40.14792
17.840907574,-3.909311,8.66964300000001,7.754113,0.9588448,-0.09916368,-0.2987857,-36.96034,-27.66449,40.14792
17.850905895,1.690213,10.03475,3.973926,0.9444157,-0.0834741,-0.3054646,-36.96034,-27.66449,40.14792
17.86090374,5.99753899999999,11.39985,0.5595631,0.9302536,-0.05615173,-0.3159756,-37.70366,-28.04721,40.53139
17.870901108,8.88960099999997,13.00237,-2.367033,0.929662,-0.05094527,-0.3298547,-37.70366,-28.04721,40.53139
17.880898952,11.41246,15.02035,-5.659454,0.9514129,-0.04191772,-0.3461665,-37.70366,-28.04721,40.53139
17.890896797,12.2124,17.75056,-8.890904,0.9679011,-0.0377176,-0.3476321,-37.70366,-28.04721,40.53139
17.900895119,11.53553,19.70918,-11.57362,0.980567,-0.03743665,-0.3443041,-37.70366,-28.04721,40.53139
17.910892487,11.72013,20.48076,-13.82954,0.9861741,-0.05036294,-0.3352177,-38.0826,-27.67675,39.68807
17.920890331,12.15086,20.12465,-15.10992,0.9786026,-0.06207425,-0.3241942,-38.0826,-27.67675,39.68807
17.930888176,12.82773,17.92861,-15.90254,0.982092,-0.06568229,-0.3012277,-38.0826,-27.67675,39.68807
17.940886021,13.01233,15.1984,-16.14643,0.9819177,-0.05571249,-0.2734725,-38.0826,-27.67675,39.68807
17.950883389,12.39699,11.93402,-16.02448,0.9848337,-0.05508998,-0.2648634,-38.83208,-27.68237,39.68251
17.96088171,11.16633,9.20381500000001,-16.2074,0.9846816,-0.04673987,-0.2548152,-38.83208,-27.68237,39.68251
17.970879555,9.074201,7.60130100000003,-16.2074,0.975013,-0.05080088,-0.252883,-38.83208,-27.68237,39.68251
17.980876923,6.85900399999999,6.23619700000001,-16.26837,0.960877,-0.05061616,-0.2552513,-38.83208,-27.68237,39.68251
17.990874767,4.705341,5.464615,-15.65866,0.9477254,-0.05086722,-0.2542711,-38.83208,-27.68237,39.68251
18.000872612,2.305545,4.099511,-14.50021,0.9295656,-0.04393688,-0.2542413,-38.4652,-27.2992,39.68327
18.010870934,0.02881546,2.853111,-12.97595,0.9193003,-0.04217838,-0.2523095,-38.4652,-27.2992,39.68327
18.020868301,-2.309447,2.140883,-11.45168,0.9161341,-0.05544908,-0.2618721,-38.4652,-27.2992,39.68327
18.030866146,-4.46311,1.488007,-9.74449500000001,0.918412,-0.07286727,-0.2585216,-38.4652,-27.2992,39.68327
18.040863991,-5.263042,1.191245,-8.22022599999998,0.9294782,-0.09101792,-0.2480075,-38.4652,-27.2992,39.68327
18.050861359,-4.278511,1.250597,-7.06178199999999,0.9366916,-0.1117182,-0.2422718,-38.07474,-28.0571,39.6901
18.060859203,-1.878715,1.250597,-6.20819099999998,0.9586282,-0.1379502,-0.2356033,-38.07474,-28.0571,39.6901
18.070857525,2.305545,1.903473,-5.720425,0.9826682,-0.1467608,-0.2413858,-38.07474,-28.0571,39.6901
18.08085537,6.55133799999999,2.496997,-5.537513,1.005432,-0.1396044,-0.251956,-38.07474,-28.0571,39.6901
18.090852737,8.58193500000002,3.684045,-5.232659,1.027002,-0.1207738,-0.2586986,-38.07474,-28.0571,39.6901
18.100850582,8.15120200000001,4.930444,-4.318098,1.04102,-0.08898963,-0.2673455,-37.69044,-28.43791,39.30791
18.110848427,6.428272,6.05813900000001,-3.586449,1.048577,-0.07621025,-0.2678406,-37.69044,-28.43791,39.30791
18.120845795,4.582274,6.88907200000001,-2.123151,1.057381,-0.07799761,-0.2697698,-37.69044,-28.43791,39.30791
18.130844116,3.843876,7.48259600000002,-0.5379106,1.060051,-0.09064952,-0.2774284,-37.69044,-28.43791,39.30791
18.140841961,3.966942,7.66065299999999,1.352183,1.061487,-0.08911069,-0.2716884,-37.69044,-28.43791,39.30791
18.150839806,5.074541,8.13547199999999,3.059364,1.071202,-0.08745655,-0.2712272,-37.6983,-28.05756,39.30588
18.160837173,6.67440499999999,8.55093899999998,4.705575,1.064615,-0.07393644,-0.2664334,-37.6983,-28.05756,39.30588
18.170835018,7.16667,9.08511,6.10790299999999,1.056623,-0.06333344,-0.258765,-37.6983,-28.05756,39.30588
18.18083334,7.59740300000001,9.559929,7.57120099999999,1.046322,-0.05959679,-0.2530051,-37.6983,-28.05756,39.30588
18.190831184,8.33580199999998,9.85669000000001,8.668674,1.032184,-0.05948669,-0.2635091,-37.6983,-28.05756,39.30588
18.200828552,9.19726699999998,10.27216,9.82711900000002,1.00296,-0.05998072,-0.2543651,-38.08091,-27.68002,39.30107
18.210826397,10.79713,10.50957,10.74168,0.9806448,-0.06527224,-0.2533677,-38.08091,-27.68002,39.30107
18.220824242,12.52006,10.45021,11.59527,0.9575701,-0.05594789,-0.2466298,-38.08091,-27.68002,39.30107
18.23082161,12.70466,9.85669000000001,12.5708,0.9441757,-0.04297367,-0.2336882,-38.08091,-27.68002,39.30107
18.240819454,11.22786,8.610291,13.79022,0.9293713,-0.03304823,-0.2322292,-38.08091,-27.68002,39.30107
18.250817776,9.19726699999998,7.18583399999999,14.33895,0.9318044,-0.03307473,-0.2403693,-38.09046,-27.29639,39.68604
18.26081562,7.843536,6.77036799999997,14.58284,0.9413172,-0.04719402,-0.2638324,-38.09046,-27.29639,39.68604
18.270812988,6.73593800000001,7.48259600000002,14.52187,0.944375,-0.05447536,-0.2695788,-38.09046,-27.29639,39.68604
18.280810833,5.566806,8.19482400000001,14.52187,0.9432972,-0.04925219,-0.2805855,-38.09046,-27.29639,39.68604
18.290809155,5.136074,8.610291,14.52187,0.9403639,-0.04887245,-0.2858448,-38.09046,-27.29639,39.68604
18.300806046,4.582274,8.66964300000001,14.39993,0.9530175,-0.04820231,-0.2930457,-39.23489,-26.1703,38.89761
18.310804367,3.290077,8.49158700000002,13.66828,0.9656356,-0.0455584,-0.296897,-39.23489,-26.1703,38.89761
18.320802212,1.690213,7.89806300000001,12.93663,0.9737096,-0.03412573,-0.2863853,-39.23489,-26.1703,38.89761
18.330800057,0.3980148,6.77036799999997,12.20498,0.9708118,-0.0349487,-0.263887,-39.23489,-26.1703,38.89761
18.340797424,0.5826145,4.693035,11.04653,0.9742529,-0.03621572,-0.2504925,-39.23489,-26.1703,38.89761
18.350795269,2.551678,2.971816,9.82711900000002,0.9763143,-0.04189663,-0.2385303,-38.85229,-26.54784,38.90242
18.360793591,5.44374,1.547359,8.24187900000002,0.9761129,-0.03123182,-0.2409256,-38.85229,-26.54784,38.90242
18.370791435,6.98206999999997,0.5383689,6.65663900000001,0.9805779,-0.009135876,-0.2256246,-38.85229,-26.54784,38.90242
18.380788803,7.04360400000002,-0.648678499999998,5.376253,0.972331,0.01509477,-0.2150878,-38.85229,-26.54784,38.90242
18.390786648,6.24367199999998,-2.310545,3.973926,0.9716216,0.02663808,-0.2265754,-38.85229,-26.54784,38.90242
18.400784493,4.889941,-3.853706,3.120335,0.9842093,0.0306471,-0.240477,-39.62955,-25.03912,38.05025
18.41078186,3.720809,-4.20982,2.022861,0.9994572,0.02244609,-0.2668232,-39.62955,-25.03912,38.05025
18.420780182,3.290077,-3.972411,1.291212,0.9981003,0.01643007,-0.284048,-39.62955,-25.03912,38.05025
18.430778027,2.736278,-3.616297,0.803446099999999,0.9955468,0.0227188,-0.2816523,-39.62955,-25.03912,38.05025
18.440775871,2.059412,-3.378887,0.5595631,0.9900619,0.02944871,-0.2778158,-39.62955,-25.03912,38.05025
18.450773239,1.567146,-3.616297,0.01082622,0.9859939,0.03866702,-0.2706325,-39.24106,-25.79321,38.50858
18.460771084,0.3980148,-3.141478,-0.1720861,0.9957907,0.03594493,-0.2706489,-39.24106,-25.79321,38.50858
18.470769405,-0.709583300000001,-2.547954,-0.3549984,1.003704,0.02979718,-0.2692254,-39.24106,-25.79321,38.50858
18.48076725,-0.894183000000003,-2.251192,-0.598881400000002,0.9984271,0.0253063,-0.2706507,-39.24106,-25.79321,38.50858
18.490764618,-0.0942510000000003,-1.895078,-0.598881400000002,0.986629,0.0309703,-0.263453,-39.24106,-25.79321,38.50858
18.500762463,-0.3403839,-1.598316,-0.8427644,0.9814599,0.04699636,-0.253398,-38.88176,-25.03023,38.44281
18.510760307,-1.940248,-1.657669,-0.964705900000002,0.974439,0.05753082,-0.2553028,-38.88176,-25.03023,38.44281
18.520757675,-4.340044,-1.301555,-1.391501,0.9839113,0.04600272,-0.2610592,-38.88176,-25.03023,38.44281
18.530755997,-5.75530800000001,-0.5299737,-1.818297,0.9964696,0.02575795,-0.2701689,-38.88176,-25.03023,38.44281
18.540753842,-5.93990799999998,0.004197581,-2.306063,1.003996,0.01425282,-0.2692219,-39.64108,-24.65169,38.88672
18.550751686,-5.509175,-0.05515479,-2.732858,1.001037,0.0161469,-0.26826,-39.64108,-24.65169,38.88672
18.560749054,-5.01691,-0.826735599999998,-3.098683,1.015153,0.01688103,-0.2716349,-39.64108,-24.65169,38.88672
18.570746899,-5.078443,-0.886087999999999,-3.70839,1.035874,0.003149867,-0.2769318,-39.64108,-24.65169,38.88672
18.58074522,-5.078443,-0.3519166,-4.50101,1.045906,-0.01226786,-0.284124,-39.64108,-24.65169,38.88672
18.590743065,-5.139976,-0.05515479,-5.232659,1.029228,-0.006205553,-0.2759607,-38.88374,-25.02642,38.89431
18.600740433,-5.632242,-0.4706214,-5.537513,0.9981027,-0.009136163,-0.2634627,-38.88374,-25.02642,38.89431
18.610738278,-6.12450699999998,-1.420259,-6.14722099999998,0.9834744,-0.008352405,-0.2524301,-38.88374,-25.02642,38.89431
18.620736122,-7.539772,-2.726011,-6.93983999999998,0.9758406,-0.0166151,-0.2361431,-38.88374,-25.02642,38.89431
18.63073349,-8.64737,-3.913059,-7.67149000000001,0.9589373,-0.02473728,-0.2375472,-38.88374,-25.02642,38.89431
18.640731811,-9.07810300000001,-5.100106,-8.28119799999998,0.9577536,-0.03921609,-0.2241413,-39.24106,-25.79321,38.50858
18.650729656,-8.58583600000001,-6.34650599999999,-9.01284600000001,0.9555653,-0.05235343,-0.2212627,-39.24106,-25.79321,38.50858
18.660727501,-8.03203799999998,-6.82132499999999,-9.74449500000001,0.9626652,-0.06735192,-0.229407,-39.24106,-25.79321,38.50858
18.670724869,-7.232106,-7.65225799999999,-11.02488,0.9735522,-0.07645743,-0.2389951,-39.24106,-25.79321,38.50858
18.680722713,-6.55523999999999,-7.889668,-12.18333,0.981388,-0.07884201,-0.2509726,-39.24106,-25.79321,38.50858
18.690721035,-6.370641,-8.30513400000001,-12.91498,0.9859716,-0.08947725,-0.2548065,-39.23489,-26.1703,38.89761
18.70071888,-5.447642,-8.66124800000001,-13.82954,0.99007,-0.1000607,-0.2519394,-39.23489,-26.1703,38.89761
18.710716247,-3.417045,-9.07671499999999,-14.86604,0.9882458,-0.1070095,-0.2638988,-39.23489,-26.1703,38.89761
18.720714092,-1.386449,-9.551534,-15.41478,0.9945064,-0.1029632,-0.2600822,-39.23489,-26.1703,38.89761
18.730711937,0.02881546,-9.49218100000001,-16.02448,0.9894085,-0.09087155,-0.2552907,-39.23489,-26.1703,38.89761
18.740709305,0.5826145,-9.49218100000001,-16.39031,0.9843025,-0.07826778,-0.2476278,-38.84612,-26.92493,39.29145
18.750707626,0.2749484,-9.43282899999999,-16.75613,0.9818314,-0.07634211,-0.244274,-38.84612,-26.92493,39.29145
18.760705471,0.705681,-9.25477200000002,-16.57322,0.9799278,-0.07883576,-0.2471414,-38.84612,-26.92493,39.29145
18.770703316,1.628679,-8.542543,-16.26837,0.97206,-0.07513876,-0.2509573,-38.84612,-26.92493,39.29145
18.780700684,1.936346,-8.245782,-15.53672,0.9763604,-0.07072858,-0.2562303,-38.84612,-26.92493,39.29145
18.790698528,1.874812,-7.71161000000001,-14.43924,0.9797142,-0.06778176,-0.2600655,-38.45734,-27.67956,39.68529
18.80069685,1.013347,-7.236791,-12.854,0.9814974,-0.05903028,-0.2634209,-38.45734,-27.67956,39.68529
18.810694694,-0.586516899999998,-7.236791,-10.96391,0.989796,-0.05985136,-0.2648709,-38.45734,-27.67956,39.68529
18.820692062,-1.571049,-7.05873399999998,-9.19575899999999,0.9898709,-0.06368039,-0.2586485,-38.45734,-27.67956,39.68529
18.830689907,-1.632582,-7.05873399999998,-7.61051899999998,0.9948969,-0.07184648,-0.2591338,-38.45734,-27.67956,39.68529
18.840687752,-1.632582,-6.94003,-6.26916200000001,0.9942836,-0.06500717,-0.2538701,-38.07474,-28.0571,39.6901
18.85068512,-2.001781,-6.88067700000001,-4.744893,0.9882723,-0.05643602,-0.2600833,-38.07474,-28.0571,39.6901
18.860683441,-3.232446,-6.46521000000002,-3.647419,0.986769,-0.05392196,-0.2476384,-38.07474,-28.0571,39.6901
18.870681286,-4.46311,-6.34650599999999,-2.671887,0.9878594,-0.06029223,-0.2557744,-38.07474,-28.0571,39.6901
18.880679131,-4.955376,-5.87168699999998,-2.06218,0.9841151,-0.06870615,-0.2643801,-38.07474,-28.0571,39.6901
18.890676498,-4.709243,-5.634277,-1.26956,0.983277,-0.07603377,-0.2667696,-38.05312,-29.19436,40.14769
18.900674343,-3.786245,-5.396868,-0.8427644,0.9808605,-0.07703146,-0.2643723,-38.05312,-29.19436,40.14769
18.910672665,-2.801713,-5.040754,-0.3549984,0.9798112,-0.07323046,-0.2715501,-38.05312,-29.19436,40.14769
18.920670509,-2.124848,-4.506582,0.1327677,0.9793779,-0.07618538,-0.2748986,-38.05312,-29.19436,40.14769
18.930667877,-1.201849,-4.328525,0.620533899999998,0.9713652,-0.06468109,-0.2748876,-38.05312,-29.19436,40.14769
18.940665722,-0.6480501,-3.735002,1.169271,0.9736488,-0.05627408,-0.2638865,-37.32106,-28.42475,40.53619
18.950663567,-0.4019172,-3.616297,1.718008,0.9680093,-0.04127306,-0.2586162,-37.32106,-28.42475,40.53619
18.960660934,-1.078783,-3.853706,2.388686,0.9674708,-0.03826277,-0.2471302,-37.32106,-28.42475,40.53619
18.970658779,-1.694115,-4.150468,2.815481,0.9708817,-0.03816029,-0.2433075,-37.32106,-28.42475,40.53619
18.980657101,-1.755648,-4.328525,3.181306,0.986424,-0.03541036,-0.2418996,-37.32106,-28.42475,40.53619
18.990654945,-1.509515,-4.803344,3.791013,0.9869996,-0.04034174,-0.2509923,-37.31937,-28.42802,40.14919
19.000652313,-0.955716300000001,-4.743992,4.095867,0.990369,-0.03845423,-0.2643988,-37.31937,-28.42802,40.14919
19.010650158,-0.3403839,-4.269173,4.217809,0.9908822,-0.03994139,-0.2687065,-37.31937,-28.42802,40.14919
19.020648479,-0.2788507,-3.794354,4.217809,0.9999818,-0.03151376,-0.2701603,-37.31937,-28.42802,40.14919
19.030646324,-0.4634504,-3.43824,4.095867,0.9987888,-0.01987035,-0.2696826,-37.31937,-28.42802,40.14919
19.040643692,-0.2173175,-2.963421,3.730042,1.004245,-0.02518248,-0.2778265,-36.57774,-28.04204,40.15273
19.050641537,0.2749484,-2.42925,3.608101,1.006345,-0.03351165,-0.2897924,-36.57774,-28.04204,40.15273
19.060639381,0.8287475,-1.598316,3.242276,1.006327,-0.03254013,-0.2897927,-36.57774,-28.04204,40.15273
19.070636749,1.874812,-0.648678499999998,2.998394,0.9994706,-0.03073621,-0.2902597,-36.57774,-28.04204,40.15273
19.080634594,2.490145,-0.2332119,2.815481,0.9885726,-0.02120198,-0.2868932,-37.31937,-28.42802,40.14919
19.090632916,3.597743,-0.1145072,2.388686,0.9829872,-0.009137476,-0.2840151,-37.31937,-28.42802,40.14919
19.10063076,3.905409,0.1229023,1.839949,0.9756341,-0.00687936,-0.2868743,-37.31937,-28.42802,40.14919
19.110628128,4.090009,0.657073599999999,1.291212,0.9778491,0.00477436,-0.2926241,-37.31937,-28.42802,40.14919
19.120625973,4.151542,1.191245,1.230241,0.9766348,0.01729712,-0.3021967,-37.31937,-28.42802,40.14919
19.130623817,2.244012,2.081531,1.413154,0.9802774,0.03101493,-0.2978994,-36.95248,-28.04485,40.14995
19.140622139,-1.755648,2.55635,1.839949,0.9767585,0.03678548,-0.2969376,-36.95248,-28.04485,40.14995
19.150619507,-5.01691,2.437645,2.327715,0.9760392,0.02314736,-0.2988471,-36.95248,-28.04485,40.14995
19.160617352,-6.80137299999998,1.962826,2.388686,0.9807785,0.003505056,-0.3313935,-36.95248,-28.04485,40.14995
19.170615196,-6.73984000000002,2.615702,2.205774,0.9923555,-0.01697842,-0.3644302,-36.95248,-28.04485,40.14995
19.180613518,-7.10903899999999,4.633682,1.474125,0.9939716,-0.02521627,-0.365388,-36.95418,-28.04158,40.53695
19.190610409,-8.093571,6.05813900000001,0.5595631,0.9893872,-0.01460736,-0.3644256,-36.95418,-28.04158,40.53695
19.20060873,-8.52430299999999,6.88907200000001,0.01082622,0.9775431,-0.006532108,-0.3591427,-36.95418,-28.04158,40.53695
19.210606575,-9.01656900000002,7.423244,-0.4159691,0.9668682,-0.008533256,-0.3423734,-36.95418,-28.04158,40.53695
19.22060442,-8.52430299999999,7.12648200000003,-0.598881400000002,0.9501288,0.001003992,-0.3260751,-36.95418,-28.04158,40.53695
19.230601788,-7.17057299999998,5.82073000000003,-0.2940276,0.9438486,-0.001343631,-0.3035704,-37.31767,-28.43129,39.76219
19.240599632,-4.401577,4.218216,0.0717969800000001,0.9485337,0.00912916,-0.2844383,-37.31767,-28.43129,39.76219
19.250597954,-0.832649800000001,2.55635,0.2547093,0.9582644,0.03614908,-0.273455,-37.31767,-28.43129,39.76219
19.260595322,0.890280700000001,1.250597,0.7424754,0.9685456,0.05976513,-0.2639074,-37.31767,-28.43129,39.76219
19.270593166,0.5210813,0.716426,0.986358399999998,0.9779721,0.07707337,-0.2514853,-37.31767,-28.43129,39.76219
19.280591011,-0.2788507,0.716426,1.230241,0.9818488,0.07806483,-0.2577139,-37.31739,-28.43183,39.69769
19.290588856,-0.3403839,1.606712,1.413154,0.9856787,0.05580034,-0.2562791,-37.31739,-28.43183,39.69769
19.300586224,0.951813900000003,2.378292,1.535095,0.99045,0.03484121,-0.2735107,-37.31739,-28.43183,39.69769
19.310584545,3.290077,3.209226,2.083832,1.005609,0.03156365,-0.2926794,-37.31739,-28.43183,39.69769
19.32058239,3.53621,3.743397,2.815481,1.017498,0.02103765,-0.3003546,-37.31739,-28.43183,39.69769
19.330580235,1.628679,3.802749,3.912955,1.026002,0.008903597,-0.3171165,-37.7,-28.05429,39.69288
19.340577602,-0.894183000000003,3.802749,5.13237,1.030128,-0.003110774,-0.3113776,-37.7,-28.05429,39.69288
19.350575447,-3.601645,3.980806,6.29081499999999,1.022645,-0.01978942,-0.3123175,-37.7,-28.05429,39.69288
19.360573769,-5.386109,3.56534,7.26634699999998,1.005044,-0.04239834,-0.3022308,-37.7,-28.05429,39.69288
19.370571137,-6.001441,2.912464,8.30284999999999,0.9934473,-0.04740793,-0.293595,-37.7,-28.05429,39.69288
19.380568981,-5.632242,2.496997,9.09546899999999,0.9796932,-0.04125277,-0.2816082,-37.70616,-27.6772,39.30385
19.390566826,-6.55523999999999,2.55635,9.27838200000003,0.9755619,-0.02861657,-0.2725113,-37.70616,-27.6772,39.30385
19.400564671,-8.52430299999999,2.793759,9.46129399999998,0.9758722,-0.01871176,-0.2528928,-37.70616,-27.6772,39.30385
19.410562039,-10.9241,2.675054,9.52226500000001,0.9776955,-0.01178921,-0.2438048,-37.70616,-27.6772,39.30385
19.42056036,-12.89316,2.615702,9.70517700000002,0.9857454,-0.02521461,-0.2414225,-37.70616,-27.6772,39.30385
19.430558205,-13.81616,2.081531,9.82711900000002,1.00058,-0.03651393,-0.2337882,-38.06885,-28.43364,40.14363
19.440556049,-13.3239,1.725416,10.071,1.015552,-0.05508213,-0.224238,-38.06885,-28.43364,40.14363
19.450553417,-11.35483,1.07254,10.61974,1.015996,-0.05256469,-0.2156251,-38.06885,-28.43364,40.14363
19.460551262,-9.63190200000001,0.597721199999998,10.55877,1.017819,-0.04564214,-0.2065371,-38.06885,-28.43364,40.14363
19.470549584,-9.01656900000002,0.3009594,10.98556,1.005935,-0.03497129,-0.1830689,-38.06885,-28.43364,40.14363
19.480547428,-9.20116899999999,-0.2332119,12.08304,1.001717,-0.01732825,-0.1577015,-38.43654,-28.45008,38.52834
19.490544796,-10.30877,-1.18285,13.30245,0.9964648,0.003052098,-0.1495619,-38.43654,-28.45008,38.52834
19.500542641,-12.33936,-1.479612,14.52187,1.005681,0.005112159,-0.1567571,-38.43654,-28.45008,38.52834
19.510540486,-15.23143,-0.9454404,15.74128,1.029539,0.006025593,-0.1615847,-38.43654,-28.45008,38.52834
19.520538807,-18.24655,0.2416071,16.5339,1.06181,-0.0003374048,-0.1831752,-38.43654,-28.45008,38.52834
19.530536175,-19.53875,1.903473,17.63138,1.07113,-0.003515381,-0.1788835,-38.43993,-28.44354,39.30235
19.54053402,-20.76942,3.505987,18.48497,1.064229,0.0007349071,-0.1774368,-38.43993,-28.44354,39.30235
19.550531864,-22.98461,4.752387,19.58244,1.047179,0.0003849043,-0.1788427,-38.43993,-28.44354,39.30235
19.560529232,-25.69208,5.642673,20.25312,1.034627,-0.03201419,-0.1874268,-38.43993,-28.44354,39.30235
19.570527077,-25.13828,6.82971999999999,20.37506,1.006347,-0.05754455,-0.2079497,-38.43993,-28.44354,39.30235
19.580525398,-22.73848,8.84769999999998,20.00924,0.9907961,-0.08620747,-0.2265797,-39.17986,-28.83279,38.91181
19.590523243,-19.84642,11.3405,19.58244,0.9797275,-0.09378108,-0.2337371,-39.17986,-28.83279,38.91181
19.600520611,-17.26202,13.59589,18.30205,0.9690198,-0.09449174,-0.235154,-39.17986,-28.83279,38.91181
19.610518456,-15.72369,15.73257,16.77778,0.9667228,-0.1017736,-0.2294052,-39.17986,-28.83279,38.91181
19.6205163,-14.12383,17.51315,15.0706,0.9619254,-0.105734,-0.2270029,-39.17986,-28.83279,38.91181
19.630514622,-12.33936,19.35307,13.11954,0.9538462,-0.116558,-0.2241146,-39.17816,-28.83606,38.52481
19.64051199,-9.878035,20.71817,11.29042,0.9456755,-0.1225288,-0.221706,-39.17816,-28.83606,38.52481
19.650509834,-7.10903899999999,21.72716,9.82711900000002,0.9383022,-0.1193606,-0.2312655,-39.17816,-28.83606,38.52481
19.660507679,-5.447642,22.61745,8.79061600000001,0.9304826,-0.09236817,-0.2384374,-39.17816,-28.83606,38.52481
19.670505524,-6.001441,23.74514,7.44925899999998,0.9267785,-0.07696579,-0.2465707,-39.93184,-28.46841,37.67872
19.680502891,-8.83197000000002,24.57608,6.22984400000002,0.9360689,-0.07876109,-0.250415,-39.93184,-28.46841,37.67872
19.690501213,-12.09323,24.81349,5.315282,0.9489259,-0.08869431,-0.2485206,-39.93184,-28.46841,37.67872
19.700499058,-12.83163,24.16061,4.461692,0.9484414,-0.1150368,-0.2585631,-39.93184,-28.46841,37.67872
19.710496902,-10.49337,23.50773,3.791013,0.9526451,-0.1315811,-0.270052,-39.93184,-28.46841,37.67872
19.72049427,-7.04750599999997,22.73615,3.181306,0.9571707,-0.1394027,-0.2848937,-40.31106,-28.0974,36.8999
19.730492115,-3.909311,22.79551,2.510627,0.9673891,-0.1387675,-0.2906546,-40.31106,-28.0974,36.8999
19.740490436,-2.124848,22.6768,1.535095,0.9741164,-0.1338059,-0.2940176,-40.31106,-28.0974,36.8999
19.750488281,-0.4634504,22.32069,0.2547093,0.972813,-0.1163641,-0.2968913,-40.31106,-28.0974,36.8999
19.760485649,1.505613,21.66781,-0.598881400000002,0.9667497,-0.1047862,-0.2930551,-40.31106,-28.0974,36.8999
19.770483494,3.290077,20.65882,-1.879267,0.96904,-0.09694391,-0.2906682,-41.05321,-28.11719,35.21733
19.780481338,4.397675,19.64983,-2.91577,0.9679205,-0.08916905,-0.2882754,-41.05321,-28.11719,35.21733
19.790478706,4.951474,18.34408,-3.891303,0.9670109,-0.09256667,-0.28588,-41.05321,-28.11719,35.21733
19.800477028,6.05907200000001,16.50415,-4.866835,0.9589693,-0.1052942,-0.2786841,-41.05321,-28.11719,35.21733
19.810474873,9.01266799999998,14.90164,-5.3546,0.9595925,-0.1125974,-0.2815548,-41.05321,-28.11719,35.21733
19.820472717,12.15086,12.94301,-6.08625000000001,0.956005,-0.1028003,-0.2652794,-41.73238,-28.5027,35.21426
19.830470085,13.62766,10.39086,-6.695957,0.9643847,-0.08161203,-0.2514208,-41.73238,-28.5027,35.21426
19.84046793,14.48913,8.13547199999999,-6.695957,0.966989,-0.06452191,-0.2480797,-41.73238,-28.5027,35.21426
19.850466251,14.85832,6.117492,-6.87886999999998,0.9682587,-0.05429205,-0.2480846,-41.73238,-28.5027,35.21426
19.860464096,13.68919,4.336921,-6.63498599999997,0.9583745,-0.04658945,-0.2346692,-41.73238,-28.5027,35.21426
19.870461464,12.08933,2.496997,-6.20819099999998,0.944763,-0.04831181,-0.2341664,-41.73855,-28.12562,34.82523
19.880459309,11.2894,0.4790165,-5.78139599999999,0.933226,-0.05684462,-0.2389299,-41.73855,-28.12562,34.82523
19.890457153,11.59706,-1.064145,-5.537513,0.9332122,-0.05573703,-0.2240943,-41.73855,-28.12562,34.82523
19.900455475,12.88926,-2.073135,-5.415571,0.928311,-0.05446376,-0.2336576,-41.73855,-28.12562,34.82523
19.910452843,13.38153,-3.141478,-5.415571,0.9340176,-0.04711892,-0.2398909,-41.73855,-28.12562,34.82523
19.920450687,12.76619,-4.091116,-5.537513,0.9681531,-0.04834002,-0.2346858,-42.13071,-27.36445,35.2054
19.930448532,10.85866,-5.040754,-5.659454,0.9964533,-0.05014042,-0.2270774,-42.13071,-27.36445,35.2054
19.940446377,10.1818,-6.70261999999998,-5.78139599999999,1.023394,-0.05727795,-0.2156367,-42.13071,-27.36445,35.2054
19.950443745,11.2894,-8.60189500000002,-5.90333699999997,1.055742,-0.06736463,-0.2195192,-42.13071,-27.36445,35.2054
19.960442066,13.44306,-10.14506,-6.02527899999998,1.077211,-0.06890618,-0.2219491,-42.13071,-27.36445,35.2054
19.970439911,14.05839,-11.2134,-6.02527899999998,1.083834,-0.05793547,-0.2056918,-41.71693,-29.26287,35.28282
19.980437756,12.70466,-12.81591,-5.90333699999997,1.075319,-0.04538589,-0.1965873,-41.71693,-29.26287,35.28282
19.990435123,12.2124,-14.89325,-6.14722099999998,1.068103,-0.05042297,-0.200402,-41.71693,-29.26287,35.28282
20.000432968,12.52006,-16.199,-6.63498599999997,1.075513,-0.05628771,-0.220035,-41.71693,-29.26287,35.28282
20.01043129,13.44306,-16.49576,-7.42760699999997,1.075104,-0.06080085,-0.2343904,-41.71693,-29.26287,35.28282
20.020428181,13.31999,-15.66483,-7.79343099999999,1.061237,-0.04891312,-0.2329336,-41.44734,-27.35221,36.049
20.030426502,12.08933,-14.71519,-8.22022599999998,1.042237,-0.04938062,-0.2429505,-41.44734,-27.35221,36.049
20.040424347,11.53553,-13.46879,-8.64702100000002,1.019037,-0.05957974,-0.2453003,-41.44734,-27.35221,36.049
20.050422192,12.0278,-12.04433,-8.829934,0.9873468,-0.0587875,-0.2495524,-41.44734,-27.35221,36.049
20.060419559,11.41246,-11.03534,-8.76896300000003,0.9739915,-0.04767293,-0.2275175,-41.44734,-27.35221,36.049
20.070417881,9.87413200000002,-11.2134,-8.03731400000003,0.957541,-0.02735592,-0.2021295,-41.06643,-27.72649,36.44081
20.080415726,7.843536,-11.51016,-7.12275300000002,0.9413767,-0.022772,-0.1973168,-41.06643,-27.72649,36.44081
20.09041357,4.828408,-11.3321,-6.02527899999998,0.9481404,-0.01975781,-0.2011579,-41.06643,-27.72649,36.44081
20.100410938,1.628679,-10.26376,-5.476542,0.9604926,-0.02871156,-0.1973485,-41.06643,-27.72649,36.44081
20.110408783,-0.586516899999998,-9.61088600000001,-4.805864,0.9722394,-0.03134688,-0.192104,-41.06643,-27.72649,36.44081
20.120407105,-1.755648,-9.373476,-3.891303,0.9744474,-0.01913717,-0.1901967,-40.31892,-27.71704,36.89788
20.130404949,-3.355512,-9.848295,-3.281595,0.9767824,-0.01375446,-0.1911593,-40.31892,-27.71704,36.89788
20.140402317,-5.078443,-9.43282899999999,-2.488975,0.9878015,-0.003874945,-0.1974026,-40.31892,-27.71704,36.89788
20.150400162,-6.92443900000002,-8.83930499999998,-1.879267,1.002772,0.003166993,-0.203652,-40.31892,-27.71704,36.89788
20.160398006,-9.69343500000003,-8.12707699999999,-1.452472,1.006265,-0.001102379,-0.1998283,-40.31892,-27.71704,36.89788
20.170396328,-12.27783,-8.12707699999999,-1.147618,1.001166,-0.01470422,-0.1883301,-40.32061,-27.71378,37.28488
20.180393219,-11.04717,-8.83930499999998,-0.964705900000002,0.9923109,-0.03630446,-0.1930949,-40.32061,-27.71378,37.28488
20.190391541,-7.90897099999997,-10.0857,-1.086647,0.9921284,-0.05223448,-0.1811261,-40.32061,-27.71378,37.28488
20.200389385,-4.586177,-10.0857,-1.26956,0.988618,-0.04696725,-0.1820785,-40.32061,-27.71378,37.28488
20.21038723,-2.494047,-10.61988,-1.513443,0.9853693,-0.02946297,-0.1739415,-39.93801,-28.09132,37.28969
20.220384598,-2.370981,-11.0947,-1.635384,0.978031,-0.02751505,-0.1576576,-39.93801,-28.09132,37.28969
20.230382919,-1.940248,-11.45081,-2.001209,0.9767017,-0.03497957,-0.173925,-39.93801,-28.09132,37.28969
20.240380764,-0.6480501,-10.97599,-2.671887,0.9727006,-0.02983609,-0.1873194,-39.93801,-28.09132,37.28969
20.250378609,-0.3403839,-10.14506,-2.976741,0.9799293,-0.02595926,-0.2040832,-39.93801,-28.09132,37.28969
20.260375977,-1.755648,-9.07671499999999,-3.403537,0.9890993,-0.02149673,-0.2141504,-39.93184,-28.46841,37.67872
20.270373821,-3.909311,-8.18642900000001,-3.952273,1.006198,-0.02423247,-0.2314083,-39.93184,-28.46841,37.67872
20.280372143,-5.816842,-6.82132499999999,-4.379068,1.010246,-0.03251876,-0.242899,-39.93184,-28.46841,37.67872
20.290369988,-7.04750599999997,-5.634277,-5.049747,1.020203,-0.04410746,-0.2563136,-39.93184,-28.46841,37.67872
20.300367355,-5.87837500000002,-4.565935,-5.90333699999997,1.025172,-0.04943798,-0.2654138,-39.93184,-28.46841,37.67872
20.3103652,-3.663178,-3.497592,-6.93983999999998,1.027964,-0.0426937,-0.2778634,-39.57648,-27.6978,38.51595
20.320363045,-2.55558,-2.369897,-8.03731400000003,1.021802,-0.02571976,-0.2682855,-39.57648,-27.6978,38.51595
20.330361366,-2.186381,-1.538964,-9.01284600000001,1.014093,-0.004516954,-0.2711489,-39.57648,-27.6978,38.51595
20.340358257,-1.755648,-0.767383199999997,-9.92740700000002,1.001001,0.01811189,-0.2658676,-39.57648,-27.6978,38.51595
20.350356579,-2.001781,-0.2925643,-10.53712,0.9832184,0.0308766,-0.2663185,-39.57648,-27.6978,38.51595
20.360354424,-1.817181,0.2416071,-11.39071,0.9689841,0.03646614,-0.2619879,-39.17449,-28.84314,37.68631
20.370352268,-0.709583300000001,0.657073599999999,-11.87847,0.9547404,0.04253707,-0.258136,-39.17449,-28.84314,37.68631
20.380349636,-0.3403839,0.657073599999999,-12.12236,0.9401456,0.04128122,-0.2576317,-39.17449,-28.84314,37.68631
20.390347958,-0.4019172,0.4790165,-12.79303,0.9341986,0.02082436,-0.2499588,-39.17449,-28.84314,37.68631
20.400345802,0.890280700000001,0.4790165,-13.95148,0.9414793,-0.003946407,-0.2643225,-39.17449,-28.84314,37.68631
20.410343647,3.905409,1.07254,-14.98798,0.9442863,-0.02389351,-0.2729366,-38.79189,-29.22068,37.69112
20.420341015,7.47433699999998,1.725416,-16.08545,0.9366723,-0.03385049,-0.2824923,-38.79189,-29.22068,37.69112
20.43033886,10.48946,1.844121,-17.06099,0.936004,-0.02410539,-0.2781864,-38.79189,-29.22068,37.69112
20.440337181,11.6586,1.903473,-17.97555,0.9383367,-0.01878851,-0.2863276,-38.79189,-29.22068,37.69112
20.450335026,11.53553,1.784769,-18.52429,0.9514421,-0.01613059,-0.2897012,-38.79189,-29.22068,37.69112
20.460332394,10.30486,1.369302,-19.13399,0.9677368,-0.02743177,-0.2854195,-38.41884,-29.2146,38.08089
20.470330238,9.50493299999999,0.775778400000001,-19.68273,0.9843917,-0.03190073,-0.2787473,-38.41884,-29.2146,38.08089
20.480328083,9.50493299999999,0.1229023,-19.86564,1.006497,-0.04110388,-0.2701691,-38.41884,-29.2146,38.08089
20.490326405,9.99719900000002,-0.9454404,-19.7437,1.01755,-0.03248852,-0.2553548,-38.41884,-29.2146,38.08089
20.500323773,10.30486,-1.895078,-18.89011,1.028165,-0.02694221,-0.2563319,-38.41884,-29.2146,38.08089
20.510321617,9.75106599999998,-2.42925,-18.09749,1.038057,-0.008766936,-0.2563538,-38.03821,-29.58833,38.53721
20.520319462,6.79747099999997,-2.547954,-17.2439,1.037718,0.009153563,-0.2621007,-38.03821,-29.58833,38.53721
20.530317307,2.182479,-2.726011,-16.08545,1.030916,0.00803414,-0.2635243,-38.03821,-29.58833,38.53721
20.540314675,-1.386449,-3.319535,-14.7441,1.021928,-0.006152399,-0.254412,-38.03821,-29.58833,38.53721
20.550312996,-2.124848,-3.675649,-13.2808,1.01068,-0.03033051,-0.2701792,-38.03821,-29.58833,38.53721
20.560310841,-1.017249,-3.43824,-11.69556,1.007033,-0.04418,-0.2888337,-37.65691,-29.90248,38.54168
20.570308685,0.1518819,-2.666659,-10.17129,1.001691,-0.04532322,-0.2960028,-37.65691,-29.90248,38.54168
20.580306053,0.767214200000001,-1.835726,-9.01284600000001,0.9994466,-0.02917358,-0.2787743,-37.65691,-29.90248,38.54168
20.590303898,0.4595481,-1.598316,-7.61051899999998,1.002104,-0.01503315,-0.2792611,-37.65691,-29.90248,38.54168
20.60030222,0.767214200000001,-1.360907,-6.33013299999999,1.006821,-0.006674583,-0.2787929,-37.65691,-29.90248,38.54168
20.610299111,-0.3403839,-1.123497,-4.622952,1.016932,-0.0001488063,-0.2778551,-37.26814,-30.65711,38.93552
20.620297432,-3.047846,-1.064145,-2.671887,1.028702,-0.003597634,-0.2553816,-37.26814,-30.65711,38.93552
20.630295277,-4.770776,-1.657669,-0.4159691,1.017988,-0.003725963,-0.24627,-37.26814,-30.65711,38.93552
20.640293121,-5.87837500000002,-2.785364,2.083832,1.010965,-0.01891137,-0.2443395,-37.26814,-30.65711,38.93552
20.650291443,-5.87837500000002,-3.260183,4.400721,1.006337,-0.0322285,-0.2558139,-37.26814,-30.65711,38.93552
20.660288811,-5.93990799999998,-3.022773,6.16887299999999,1.002413,-0.03082626,-0.2534145,-37.25858,-31.04074,38.55054
20.670286655,-6.43217400000002,-2.547954,7.63217200000002,0.9914404,-0.017463,-0.2562703,-37.25858,-31.04074,38.55054
20.6802845,-7.539772,-1.895078,9.40032399999997,0.9761681,-0.008487983,-0.2514602,-37.25858,-31.04074,38.55054
20.690281868,-8.83197000000002,-1.835726,10.68071,0.970018,-0.01833271,-0.2519255,-37.25858,-31.04074,38.55054
20.700279713,-9.75496900000002,-2.073135,11.65624,0.9696203,-0.02248595,-0.2270378,-37.25858,-31.04074,38.55054
20.710278034,-9.07810300000001,-3.022773,12.38789,0.9714655,-0.04284149,-0.2251215,-37.64288,-30.65992,38.93274
20.720275879,-6.862906,-3.616297,12.81469,0.9831716,-0.06930629,-0.221785,-37.64288,-30.65992,38.93274
20.730273724,-2.986313,-3.913059,12.63177,0.9937289,-0.08660476,-0.2232347,-37.64288,-30.65992,38.93274
20.740271091,1.874812,-3.853706,12.44886,0.9978987,-0.1011269,-0.2261097,-37.64288,-30.65992,38.93274
20.750268936,6.305205,-3.616297,11.5343,0.9957963,-0.0928724,-0.2222795,-37.63136,-31.04736,38.09626
20.760267258,10.12027,-2.785364,10.61974,0.991672,-0.0807834,-0.2198826,-37.63136,-31.04736,38.09626
20.770264149,12.15086,-2.726011,9.88808900000002,0.982043,-0.06104565,-0.2193923,-37.63136,-31.04736,38.09626
20.78026247,12.64313,-2.132488,9.217411,0.9751236,-0.05582385,-0.2179459,-37.63136,-31.04736,38.09626
20.790260315,12.88926,-1.598316,9.27838200000003,0.9799385,-0.05285693,-0.2227408,-37.63136,-31.04736,38.09626
20.80025816,12.15086,-0.826735599999998,9.46129399999998,0.9749504,-0.04658999,-0.2174694,-37.65691,-29.90248,38.54168
20.810255527,10.3664,-0.411269,9.70517700000002,0.9733466,-0.03873695,-0.2055042,-37.65691,-29.90248,38.54168
20.820253849,8.08966899999999,-0.1145072,10.13197,0.9724119,-0.04060269,-0.1949734,-37.65691,-29.90248,38.54168
20.830251694,6.85900399999999,-0.411269,10.98556,0.9716514,-0.05167593,-0.1820477,-37.65691,-29.90248,38.54168
20.840249538,6.12060500000003,-0.411269,11.65624,0.97768,-0.06124934,-0.1791842,-37.65691,-29.90248,38.54168
20.850247383,5.81293900000002,-0.05515479,12.50983,0.9851238,-0.06837823,-0.1777597,-38.0399,-29.58506,38.92421
20.860244751,6.18213799999999,0.716426,13.42439,0.9977759,-0.06775636,-0.1902249,-38.0399,-29.58506,38.92421
20.870243072,6.48980500000002,1.844121,14.0341,1.014587,-0.05481608,-0.1931289,-38.0399,-29.58506,38.92421
20.880240917,6.48980500000002,3.505987,14.0341,1.037939,-0.05294952,-0.1989131,-38.0399,-29.58506,38.92421
20.890238762,6.18213799999999,5.345911,14.21701,1.048102,-0.04942171,-0.2070675,-38.0399,-29.58506,38.92421
20.90023613,6.12060500000003,7.06713000000001,14.09507,1.053891,-0.04643116,-0.2113855,-38.41295,-29.59114,38.53442
20.910233974,7.22820399999999,8.84769999999998,14.21701,1.067125,-0.05053,-0.2099718,-38.41295,-29.59114,38.53442
20.920232296,9.19726699999998,10.56892,14.4609,1.068476,-0.04472027,-0.21524,-38.41295,-29.59114,38.53442
20.930230141,11.474,12.29014,15.0706,1.068725,-0.03209402,-0.2166794,-38.41295,-29.59114,38.53442
20.940227509,11.8432,13.77395,15.74128,1.082929,-0.009910937,-0.2128813,-38.41295,-29.59114,38.53442
20.950225353,9.99719900000002,15.73257,16.5339,1.087239,-0.005973345,-0.2167184,-38.0618,-28.44726,38.53112
20.960223198,8.08966899999999,17.5725,17.63138,1.083878,-0.008381736,-0.2071404,-38.0618,-28.44726,38.53112
20.970221519,7.65893599999998,19.11566,18.66788,1.06622,-0.02815071,-0.2051902,-38.0618,-28.44726,38.53112
20.980218887,9.812599,20.12465,19.94827,1.048985,-0.04455363,-0.2080274,-38.0618,-28.44726,38.53112
20.990216732,12.27393,21.54911,20.67991,1.035706,-0.03796892,-0.2032202,-38.0618,-28.44726,38.53112
21.000214577,13.19693,23.15162,21.41156,1.023505,-0.01097531,-0.200813,-38.08341,-27.31001,38.07354
21.010212421,10.9202,25.0509,22.14321,1.019169,0.01222035,-0.2055972,-38.08341,-27.31001,38.07354
21.020209789,6.05907200000001,26.59406,22.38709,1.011175,0.02274434,-0.2065431,-38.08341,-27.31001,38.07354
21.030208111,0.2749484,28.25592,22.9968,1.002507,0.0172409,-0.2050908,-38.08341,-27.31001,38.07354
21.040205956,-4.278511,29.73973,23.05777,0.998226,-0.01453516,-0.216561,-38.08341,-27.31001,38.07354
21.0502038,-5.509175,30.98614,23.30166,0.9949644,-0.04872079,-0.2280324,-39.21998,-26.56427,37.28713
21.060201168,-4.216978,31.87642,23.48457,0.982151,-0.06692307,-0.2246553,-39.21998,-26.56427,37.28713
21.070199013,-2.001781,32.70735,23.60651,0.977647,-0.06073868,-0.2294348,-39.21998,-26.56427,37.28713
21.080197334,-1.571049,33.30088,23.54554,0.9649982,-0.03561435,-0.2179334,-39.21998,-26.56427,37.28713
21.090195179,-3.909311,33.47894,23.30166,0.9607219,-0.01517524,-0.2054882,-39.21998,-26.56427,37.28713
21.100192547,-6.30910700000001,33.36023,22.38709,0.9573861,-0.01909359,-0.2016528,-40.35626,-25.81908,36.43623
21.110190392,-6.49370699999998,33.06347,21.16768,0.9500943,-0.04596445,-0.2016332,-40.35626,-25.81908,36.43623
21.120188236,-4.032378,32.648,19.33856,0.9597657,-0.06822756,-0.2126516,-40.35626,-25.81908,36.43623
21.130186558,0.0903486900000002,32.35124,17.63138,0.9651963,-0.07202973,-0.2150529,-40.35626,-25.81908,36.43623
21.140183926,3.474676,32.11383,15.43643,0.9614953,-0.0565308,-0.2126576,-40.35626,-25.81908,36.43623
21.15018177,4.889941,31.34225,13.30245,0.9699196,-0.03780207,-0.2021484,-41.80314,-25.0795,35.19601
21.160179615,3.782343,29.50232,11.16848,0.9690955,-0.01981658,-0.1997587,-41.80314,-25.0795,35.19601
21.17017746,2.059412,27.60305,9.339353,0.9647404,-0.02131659,-0.194965,-41.80314,-25.0795,35.19601
21.180174828,0.4595481,24.81349,7.63217200000002,0.9572135,-0.03548742,-0.187291,-41.80314,-25.0795,35.19601
21.190173149,0.767214200000001,21.90522,6.04693200000002,0.9594624,-0.05149661,-0.1892051,-41.80314,-25.0795,35.19601
21.200170994,2.551678,18.99695,4.705575,0.9560643,-0.05197072,-0.1805847,-43.32063,-23.95949,34.0178
21.210168839,3.966942,15.96998,3.303247,0.9553897,-0.04165208,-0.1667075,-43.32063,-23.95949,34.0178
21.220166206,3.843876,12.94301,2.022861,0.9467431,-0.02241157,-0.1695688,-43.32063,-23.95949,34.0178
21.230164051,2.490145,10.2128,0.4985923,0.9489388,-0.009817047,-0.1786688,-43.32063,-23.95949,34.0178
21.240162373,0.767214200000001,7.83871000000002,-0.903735200000002,0.9455945,-0.01323207,-0.1729192,-43.32063,-23.95949,34.0178
21.250160217,-0.03271778,5.702025,-2.367033,0.9463524,-0.02788746,-0.1829668,-43.31696,-23.96658,33.1793
21.260157585,0.890280700000001,3.862102,-4.196156,0.9503819,-0.03522857,-0.1973293,-43.31696,-23.96658,33.1793
21.27015543,1.997879,2.853111,-6.14722099999998,0.9723457,-0.03727697,-0.2031099,-43.31696,-23.96658,33.1793
21.280153275,1.628679,1.903473,-7.85440200000002,0.993256,-0.03488499,-0.1993184,-43.31696,-23.96658,33.1793
21.290151596,0.5826145,0.5383689,-9.86643700000001,1.002659,-0.04242164,-0.1935899,-43.31696,-23.96658,33.1793
21.300148964,0.890280700000001,-1.004793,-11.75653,1.013573,-0.05298884,-0.2036563,-43.32312,-23.58949,32.79027
21.310146809,1.813279,-2.607306,-13.2808,1.022054,-0.06353832,-0.2065398,-43.32312,-23.58949,32.79027
21.320144653,3.843876,-4.20982,-15.04895,1.022596,-0.06641255,-0.20319,-43.32312,-23.58949,32.79027
21.330142498,5.99753899999999,-5.634277,-16.57322,1.015008,-0.05147635,-0.2007878,-43.32312,-23.58949,32.79027
21.340139866,6.305205,-7.41484800000003,-17.54875,1.00861,-0.02183311,-0.1869055,-43.31696,-23.96658,33.1793
21.350138187,4.151542,-8.60189500000002,-18.64623,1.005333,-0.002884716,-0.1802046,-43.31696,-23.96658,33.1793
21.360136032,1.44408,-10.20441,-19.19496,1.001582,-0.01076022,-0.1830675,-43.31696,-23.96658,33.1793
21.370133877,0.3980148,-10.97599,-19.86564,1.002016,-0.0341821,-0.1945481,-43.31696,-23.96658,33.1793
21.380131245,1.07488,-11.62887,-20.29244,0.9861767,-0.04719532,-0.2016958,-43.31696,-23.96658,33.1793
21.390129089,2.182479,-12.16304,-20.47535,0.9759471,-0.04741059,-0.2031136,-42.9439,-23.96049,33.56908
21.400127411,2.490145,-12.93462,-20.29244,0.9732533,-0.03394517,-0.2126839,-42.9439,-23.96049,33.56908
21.410125256,1.997879,-13.29073,-20.1705,0.9831374,-0.04164778,-0.2260993,-42.9439,-23.96049,33.56908
21.4201231,0.8287475,-12.69721,-20.04856,0.9924383,-0.04388934,-0.2256363,-42.9439,-23.96049,33.56908
21.430120468,-0.1557842,-12.5785,-19.92661,0.9886174,-0.04775586,-0.2151,-42.9439,-23.96049,33.56908
21.440118313,-0.03271778,-13.29073,-19.56079,0.9780676,-0.05664106,-0.2074221,-42.56327,-24.33422,34.02539
21.450116634,0.02881546,-14.53713,-19.31691,0.9868441,-0.05620009,-0.1782444,-42.56327,-24.33422,34.02539
21.460114479,-0.586516899999998,-16.67382,-19.31691,0.9989724,-0.05287814,-0.1600805,-42.56327,-24.33422,34.02539
21.470111847,-0.586516899999998,-19.16662,-19.19496,1.011643,-0.05245235,-0.1409596,-42.56327,-24.33422,34.02539
21.480109692,-1.078783,-21.71877,-18.89011,1.024508,-0.06290206,-0.1424151,-42.56327,-24.33422,34.02539
21.490107536,-0.955716300000001,-23.85546,-18.52429,1.02686,-0.05851281,-0.1457704,-41.78572,-25.84348,34.81306
21.500105858,-1.386449,-25.45797,-18.03652,1.034622,-0.05705077,-0.1620559,-41.78572,-25.84348,34.81306
21.510103226,-1.817181,-25.87344,-17.73167,1.037033,-0.05621548,-0.1821605,-41.78572,-25.84348,34.81306
21.520101071,-2.801713,-25.69538,-17.60972,1.025247,-0.05173807,-0.1984127,-41.78572,-25.84348,34.81306
21.530098915,-4.340044,-25.57667,-17.06099,1.013419,-0.04470018,-0.2003082,-41.78572,-25.84348,34.81306
21.54009676,-6.24757399999999,-25.16121,-16.51225,1.004443,-0.03365261,-0.195031,-41.0945,-26.2116,35.6587
21.550094128,-8.40123700000001,-25.39862,-15.35381,0.9907786,-0.03238579,-0.1863932,-41.0945,-26.2116,35.6587
21.560092449,-9.324236,-25.63603,-14.3173,0.9900522,-0.04547232,-0.1811242,-41.0945,-26.2116,35.6587
21.570090294,-9.01656900000002,-25.69538,-13.58565,0.9877463,-0.05226403,-0.1748969,-41.0945,-26.2116,35.6587
21.580088139,-8.52430299999999,-25.45797,-12.48818,0.9998811,-0.04951124,-0.1658259,-41.0945,-26.2116,35.6587
21.590085507,-8.21663800000001,-25.0425,-11.69556,1.001622,-0.03823878,-0.1591317,-40.33267,-26.96015,36.44232
21.600083351,-8.58583600000001,-24.62704,-10.3542,1.017947,-0.02524227,-0.1548563,-40.33267,-26.96015,36.44232
21.610081673,-10.0011,-23.49934,-9.19575899999999,1.025225,-0.02369331,-0.1606123,-40.33267,-26.96015,36.44232
21.620079517,-11.17023,-22.25294,-8.52507999999999,1.035595,-0.03143018,-0.1788143,-40.33267,-26.96015,36.44232
21.630076885,-11.53943,-20.65043,-7.61051899999998,1.043951,-0.03585349,-0.202278,-40.33267,-26.96015,36.44232
21.64007473,-11.23177,-19.16662,-7.06178199999999,1.039908,-0.02817147,-0.2037086,-39.56326,-28.08851,37.29247
21.650072575,-12.09323,-17.4454,-6.513045,1.03594,-0.02430531,-0.1974812,-39.56326,-28.08851,37.29247
21.660070896,-13.44696,-16.31771,-6.08625000000001,1.036298,-0.01752136,-0.2003551,-39.56326,-28.08851,37.29247
21.670068264,-14.24689,-15.0713,-6.20819099999998,1.029752,-0.03222455,-0.1998613,-39.56326,-28.08851,37.29247
21.680066109,-13.81616,-14.35908,-6.63498599999997,1.018076,-0.05919957,-0.2017483,-39.56326,-28.08851,37.29247
21.690063953,-10.9241,-13.29073,-6.93983999999998,1.01085,-0.08940051,-0.1940707,-38.79806,-28.84359,37.30209
21.700061798,-6.61677399999998,-12.69721,-7.48857699999998,1.007418,-0.08862805,-0.2084222,-38.79806,-28.84359,37.30209
21.71006012,-2.370981,-11.92563,-8.28119799999998,1.00923,-0.08130313,-0.2084272,-38.79806,-28.84359,37.30209
21.720057487,-1.509515,-10.73858,-8.52507999999999,1.018598,-0.06117688,-0.2065344,-38.79806,-28.84359,37.30209
21.730055332,-4.278511,-9.72959,-9.01284600000001,1.014972,-0.0494938,-0.196481,-38.79806,-28.84359,37.30209
21.740053177,-6.862906,-9.551534,-9.378671,1.00155,-0.06148738,-0.2036332,-38.77917,-29.91473,38.08183
21.750051022,-7.17057299999998,-9.49218100000001,-9.68352500000001,0.9909354,-0.09341928,-0.2184423,-38.77917,-29.91473,38.08183
21.760048389,-5.201509,-9.19541899999997,-9.98837900000002,0.9829513,-0.1097491,-0.2332601,-38.77917,-29.91473,38.08183
21.770046711,-3.232446,-8.364487,-10.17129,0.9825913,-0.09093605,-0.2476215,-38.77917,-29.91473,38.08183
21.780044556,-3.540112,-7.59290600000003,-10.65906,0.9855636,-0.0675346,-0.2457185,-38.77917,-29.91473,38.08183
21.7900424,-5.078443,-6.82132499999999,-11.14682,0.9778384,-0.0453032,-0.2423607,-38.7713,-30.29509,38.08386
21.800039768,-6.24757399999999,-6.405858,-11.8175,0.974051,-0.05120933,-0.2423526,-38.7713,-30.29509,38.08386
21.810037613,-5.324575,-6.22780099999998,-12.18333,0.9693418,-0.06012389,-0.2504779,-38.7713,-30.29509,38.08386
21.820035934,-1.878715,-5.81233500000002,-12.30527,0.9767556,-0.06587889,-0.2581465,-38.7713,-30.29509,38.08386
21.830033779,3.16701,-5.396868,-12.00041,0.9870673,-0.04439462,-0.2691773,-38.7713,-30.29509,38.08386
21.840031147,6.24367199999998,-4.803344,-11.45168,0.9956223,-0.006729144,-0.2605875,-38.02182,-30.28946,38.08942
21.850028992,6.12060500000003,-4.150468,-10.59809,1.004204,0.02946589,-0.2534331,-38.02182,-30.28946,38.08942
21.860026836,4.643808,-3.735002,-9.56158399999997,1.0044,0.04502426,-0.2529589,-38.02182,-30.28946,38.08942
21.870025158,3.659276,-3.497592,-8.15925599999997,1.00836,0.04169653,-0.2534435,-38.02182,-30.28946,38.08942
21.880022526,3.474676,-3.616297,-6.57401600000003,1.009453,0.03538333,-0.2553581,-37.63502,-31.04028,38.93476
21.89002037,4.705341,-3.913059,-4.744893,1.011483,0.03105875,-0.2544034,-37.63502,-31.04028,38.93476
21.900018215,6.79747099999997,-4.150468,-2.610917,1.009897,0.03790076,-0.2467452,-37.63502,-31.04028,38.93476
21.91001606,7.720469,-4.44723,-0.2330568,1.008638,0.05289183,-0.2520112,-37.63502,-31.04028,38.93476
21.920014381,6.48980500000002,-4.44723,1.90092,1.009219,0.07376371,-0.2558462,-37.63502,-31.04028,38.93476
21.930011749,3.16701,-4.031764,3.791013,1.006637,0.08147898,-0.2568008,-37.62885,-31.41737,39.32379
21.940009594,-1.017249,-3.43824,5.86401899999998,1.010555,0.08068102,-0.2462788,-37.62885,-31.41737,39.32379
21.950007439,-4.216978,-3.675649,7.87605399999997,1.003531,0.06548245,-0.245784,-37.62885,-31.41737,39.32379
21.96000576,-5.201509,-3.972411,10.13197,1.004319,0.04943123,-0.2491313,-37.62885,-31.41737,39.32379
21.970002651,-5.01691,-4.091116,11.9611,1.005999,0.0378106,-0.2481741,-37.62885,-31.41737,39.32379
21.980000973,-5.570708,-4.506582,13.79022,1.014657,0.04379541,-0.250105,-37.26984,-30.65384,39.32252
21.989998817,-7.47823899999999,-4.684639,15.25352,1.020839,0.05231014,-0.2357607,-37.26984,-30.65384,39.32252
21.999996662,-10.3703,-4.981401,16.22905,1.023872,0.04657386,-0.2319359,-37.26984,-30.65384,39.32252
22.00999403,-12.5855,-5.337515,16.5339,1.029795,0.01652741,-0.2357671,-37.26984,-30.65384,39.32252
22.019991875,-12.83163,-5.218811,15.86322,1.031079,-0.02638114,-0.2544228,-37.26984,-30.65384,39.32252
22.029990196,-9.57036899999999,-4.565935,14.15604,1.031227,-0.06052573,-0.2687715,-37.27181,-30.65003,39.77402
22.039988041,-4.955376,-3.616297,12.08304,1.017527,-0.08371461,-0.277356,-37.27181,-30.65003,39.77402
22.049985409,-0.4019172,-2.844716,10.01003,0.9886134,-0.07507052,-0.2792221,-37.27181,-30.65003,39.77402
22.059983253,3.043944,-2.488602,8.18090799999998,0.9562914,-0.06646304,-0.2777323,-37.27181,-30.65003,39.77402
22.069981098,4.643808,-2.132488,6.35178600000003,0.9293817,-0.06068185,-0.2781654,-37.27181,-30.65003,39.77402
22.07997942,4.336142,-1.657669,4.705575,0.9210491,-0.05783872,-0.2681015,-37.64288,-30.65992,38.93274
22.089976788,3.413143,-1.479612,2.998394,0.9217037,-0.06646745,-0.2566147,-37.64288,-30.65992,38.93274
22.099974632,4.397675,-1.242202,1.169271,0.9301148,-0.0994418,-0.2671495,-37.64288,-30.65992,38.93274
22.109972477,8.52040099999998,0.3009594,-0.7817937,0.9303613,-0.1389649,-0.2853256,-37.64288,-30.65992,38.93274
22.119970799,13.25846,2.022178,-2.610917,0.9259595,-0.1380668,-0.2838825,-37.64288,-30.65992,38.93274
22.129968643,17.68885,3.268578,-3.70839,0.9226848,-0.09342049,-0.2834097,-38.01932,-30.65947,39.31696
22.139966011,19.16565,3.862102,-4.561981,0.9383631,-0.04592177,-0.2777063,-38.01932,-30.65947,39.31696
22.149963856,16.82739,4.218216,-4.988776,0.9533668,-0.01452069,-0.277262,-38.01932,-30.65947,39.31696
22.1599617,12.15086,4.040159,-4.988776,0.958491,-0.0009130284,-0.2351597,-38.01932,-30.65947,39.31696
22.169960022,7.65893599999998,2.200235,-3.70839,0.9645644,-0.01216613,-0.2035814,-38.01932,-30.65947,39.31696
22.179956913,7.47433699999998,-1.18285,-1.879267,0.9787652,-0.04214114,-0.2174772,-37.65899,-29.95934,39.31602
22.189955235,10.98173,-3.20083,0.1327677,1.012458,-0.07301877,-0.2658641,-37.65899,-29.95934,39.31602
22.199953079,14.42759,-2.132488,1.535095,1.03034,-0.06551671,-0.2812117,-37.65899,-29.95934,39.31602
22.209950924,14.30453,-0.648678499999998,2.937423,1.020213,-0.01894358,-0.2678059,-37.65899,-29.95934,39.31602
22.219948292,12.33546,-0.3519166,4.33975,1.001231,0.006038086,-0.2582077,-37.65899,-29.95934,39.31602
22.229946137,9.50493299999999,-0.5299737,5.98596099999998,0.9872032,0.0003497789,-0.2653604,-37.65611,-30.26921,40.15621
22.239944458,8.82806800000001,-1.301555,7.38828800000001,0.9729578,-0.0192816,-0.255759,-37.65611,-30.26921,40.15621
22.249942303,10.79713,-2.785364,8.85158600000001,0.9691257,-0.0227282,-0.2524014,-37.65611,-30.26921,40.15621
22.259940147,12.33546,-3.735002,10.31489,0.9764252,-0.02203663,-0.2457142,-37.65611,-30.26921,40.15621
22.269937515,13.31999,-4.269173,11.04653,0.9805827,-0.009757701,-0.2404603,-37.65611,-30.26921,40.15621
22.279935837,13.44306,-3.972411,11.77818,0.9749864,0.002739894,-0.2433252,-37.67838,-29.19154,40.15047
22.289933682,12.27393,-3.43824,12.14401,0.9810298,0.01773048,-0.264397,-37.67838,-29.19154,40.15047
22.299931526,10.24333,-1.598316,12.08304,0.9937813,0.01297824,-0.280211,-37.67838,-29.19154,40.15047
22.309928894,8.52040099999998,0.8351307,11.71721,0.9978207,0.005177715,-0.2917019,-37.67838,-29.19154,40.15047
22.319926739,7.28973700000001,2.259588,11.83915,0.9862294,-0.0004273558,-0.2950302,-37.67838,-29.19154,40.15047
22.32992506,6.05907200000001,3.209226,12.02207,0.9873206,-0.006775677,-0.3007734,-37.6958,-28.42756,40.53341
22.339922905,5.566806,3.624692,12.44886,0.9795737,-0.00932335,-0.2969306,-37.6958,-28.42756,40.53341
22.349920273,4.274609,3.387283,12.75372,0.9840389,-0.01363492,-0.2998088,-37.6958,-28.42756,40.53341
22.359918118,3.474676,2.912464,12.50983,0.9931113,-0.02938648,-0.2883347,-37.6958,-28.42756,40.53341
22.369915962,3.843876,2.675054,11.77818,1.003606,-0.04325389,-0.2864351,-37.6958,-28.42756,40.53341
22.379914284,6.12060500000003,2.853111,10.37586,1.009587,-0.05046433,-0.2907509,-38.07841,-28.05002,40.5286
22.389911175,8.27426799999999,3.862102,8.79061600000001,1.008014,-0.04471674,-0.2964925,-38.07841,-28.05002,40.5286
22.399909496,9.01266799999998,4.752387,7.022464,1.005827,-0.03216494,-0.3007991,-38.07841,-28.05002,40.5286
22.409907341,7.96660199999998,6.17684400000002,5.681107,0.9865621,-0.01855414,-0.3117763,-38.07841,-28.05002,40.5286
22.419905186,5.320673,7.00777700000002,4.766546,0.9707935,-0.009107379,-0.3074441,-38.09244,-27.29258,40.13755
22.429903507,2.736278,7.18583399999999,4.095867,0.9544584,-0.0216269,-0.3126767,-38.09244,-27.29258,40.13755
22.439900875,1.567146,6.77036799999997,3.669072,0.9440261,-0.03685772,-0.3083474,-38.09244,-27.29258,40.13755
22.44989872,1.136414,6.59230999999998,3.364218,0.9344119,-0.04384208,-0.3073717,-38.09244,-27.29258,40.13755
22.459896565,1.013347,6.117492,3.120335,0.9348833,-0.04278193,-0.2987584,-38.09244,-27.29258,40.13755
22.469894409,1.44408,5.642673,2.876452,0.9377911,-0.04164732,-0.2872779,-38.47674,-26.91177,40.51974
22.479891777,2.428612,4.930444,2.75451,0.9348336,-0.03970935,-0.2815304,-38.47674,-26.91177,40.51974
22.489890099,3.659276,4.455625,2.327715,0.9421678,-0.04101788,-0.2810643,-38.47674,-26.91177,40.51974
22.499887943,4.828408,4.57433,2.205774,0.9405062,-0.03034684,-0.2796284,-38.47674,-26.91177,40.51974
22.509885788,5.013007,4.040159,1.839949,0.9437798,-0.02297111,-0.2772431,-38.47674,-26.91177,40.51974
22.519883156,5.074541,3.921454,1.535095,0.9517118,-0.004414412,-0.2844404,-38.1222,-25.77442,39.74243
22.529881001,3.966942,3.031168,1.474125,0.9583686,0.004512304,-0.2791899,-38.1222,-25.77442,39.74243
22.539879322,2.490145,1.903473,1.474125,0.9667389,-0.0002343769,-0.2849462,-38.1222,-25.77442,39.74243
22.549877167,1.505613,1.30995,1.291212,0.9773406,-0.02000116,-0.2907025,-38.1222,-25.77442,39.74243
22.559875012,1.567146,0.894483100000001,1.169271,0.9838726,-0.03059791,-0.2945398,-38.1222,-25.77442,39.74243
22.569872379,3.16701,0.657073599999999,0.31568,0.9861775,-0.04948655,-0.2926246,-37.73762,-26.15578,39.29574
22.579870224,5.99753899999999,0.597721199999998,-0.659852100000001,0.9827761,-0.05006162,-0.2950114,-37.73762,-26.15578,39.29574
22.589868546,7.41280299999999,0.8351307,-1.513443,0.9785172,-0.03062038,-0.2854375,-37.73762,-26.15578,39.29574
22.59986639,6.79747099999997,0.953835399999999,-2.367033,0.9718776,-0.01413304,-0.2749015,-37.73762,-26.15578,39.29574
22.609863758,5.197607,0.657073599999999,-3.037712,0.9677911,-0.003947596,-0.2681969,-37.73762,-26.15578,39.29574
22.619861603,3.782343,0.3009594,-3.159653,0.9725083,0.004441696,-0.2643787,-38.49863,-25.77397,40.12666
22.629859447,2.182479,-0.1145072,-3.464507,0.9821271,-0.01484102,-0.2682191,-38.49863,-25.77397,40.12666
22.639857769,1.690213,0.004197581,-3.952273,0.9923938,-0.01655124,-0.2648865,-38.49863,-25.77397,40.12666
22.649855137,1.382547,0.2416071,-4.318098,0.999656,-0.01394296,-0.2610712,-38.49863,-25.77397,40.12666
22.659853458,1.25948,0.4196641,-4.866835,1.006402,-0.009926525,-0.2615626,-38.49863,-25.77397,40.12666
22.669850826,0.951813900000003,0.3603118,-5.537513,1.007009,-0.01621863,-0.2601263,-37.73173,-26.53232,39.74927
22.679848671,1.44408,0.4196641,-6.08625000000001,1.01058,-0.02497397,-0.2687447,-37.73173,-26.53232,39.74927
22.689846992,2.920877,0.775778400000001,-6.93983999999998,1.009642,-0.02695821,-0.2711354,-37.73173,-26.53232,39.74927
22.69984436,4.889941,1.250597,-7.67149000000001,1.003343,-0.02912731,-0.2821311,-37.73173,-26.53232,39.74927
22.709842205,6.92053700000001,1.962826,-8.34216799999998,0.9970109,-0.0292217,-0.27877,-37.73173,-26.53232,39.74927
22.71984005,7.90506900000002,2.437645,-8.95187600000001,0.9909014,-0.01524133,-0.2778058,-38.48907,-26.15759,39.74168
22.729837894,8.028135,2.615702,-9.56158399999997,0.9916935,-0.005493692,-0.276374,-38.48907,-26.15759,39.74168
22.739835262,6.73593800000001,2.55635,-9.92740700000002,0.9925234,0.002350408,-0.2706345,-38.48907,-26.15759,39.74168
22.749833584,4.397675,2.31894,-9.86643700000001,0.9997767,0.005448836,-0.2663408,-38.48907,-26.15759,39.74168
22.759831428,2.428612,1.962826,-10.04935,0.9980473,-0.00624354,-0.2658562,-38.48907,-26.15759,39.74168
22.769829273,0.890280700000001,1.250597,-10.11032,1.00357,-0.01488577,-0.2663422,-38.11433,-26.15478,39.74446
22.779827118,0.0903486900000002,0.8351307,-9.98837900000002,1.002217,-0.02076573,-0.2687312,-38.11433,-26.15478,39.74446
22.789824486,-0.7711166,0.1822547,-10.17129,0.9937618,-0.01173059,-0.2720688,-38.11433,-26.15478,39.74446
22.799822807,-2.55558,-0.589326100000003,-10.23226,0.9859509,-0.01087794,-0.2682268,-38.11433,-26.15478,39.74446
22.809820652,-4.64771,-1.420259,-10.3542,0.9816306,-0.01436927,-0.2686969,-38.11433,-26.15478,39.74446
22.819818497,-6.001441,-2.607306,-10.47614,0.9714134,-0.01496934,-0.2591075,-38.4829,-26.53468,40.13071
22.829815865,-7.04750599999997,-4.269173,-10.23226,0.9592925,-0.01805867,-0.2519069,-38.4829,-26.53468,40.13071
22.839813709,-8.093571,-5.69363,-9.62255399999997,0.9578316,-0.01807438,-0.2504686,-38.4829,-26.53468,40.13071
22.849812031,-8.77043599999998,-6.761972,-9.01284600000001,0.9529607,-0.01816622,-0.2499815,-38.4829,-26.53468,40.13071
22.859809875,-10.49337,-7.65225799999999,-8.22022599999998,0.9525636,-0.02307297,-0.2542868,-38.4829,-26.53468,40.13071
22.869807243,-11.97016,-8.067724,-7.42760699999997,0.9520928,-0.02411555,-0.2609857,-38.09861,-26.91549,39.74852
22.879805088,-13.63156,-8.542543,-6.87886999999998,0.9526051,-0.02562906,-0.2681648,-38.09861,-26.91549,39.74852
22.889802933,-15.72369,-9.01736299999997,-6.08625000000001,0.9573656,-0.01973441,-0.2715247,-38.09861,-26.91549,39.74852
22.899801254,-17.26202,-9.61088600000001,-5.171688,0.9621608,-0.04148949,-0.2696131,-38.09861,-26.91549,39.74852
22.909799099,-17.81582,-10.44182,-4.196156,0.9816977,-0.04408494,-0.2768252,-38.09861,-26.91549,39.74852
22.919796467,-18.06195,-11.0947,-3.464507,0.9899759,-0.04400474,-0.2859326,-37.34295,-27.28695,40.14311
22.929794312,-19.04649,-11.62887,-2.732858,1.002236,-0.04811843,-0.2840386,-37.34295,-27.28695,40.14311
22.939792633,-19.78489,-11.80692,-2.488975,1.00757,-0.04647189,-0.2749554,-37.34295,-27.28695,40.14311
22.949790478,-20.40022,-12.22239,-2.123151,1.007605,-0.04845006,-0.2787835,-37.34295,-27.28695,40.14311
22.959788322,-20.46175,-12.5785,-2.245092,1.006085,-0.07135005,-0.282125,-37.34295,-27.28695,40.14311
22.96978569,-18.36962,-12.04433,-2.976741,0.999665,-0.09290657,-0.2873726,-37.31937,-28.42802,40.14919
22.979783535,-13.93923,-11.74757,-3.464507,0.9845375,-0.09173883,-0.2863894,-37.31937,-28.42802,40.14919
22.989781857,-9.13963599999997,-11.3321,-4.196156,0.9764507,-0.07638357,-0.2902079,-37.31937,-28.42802,40.14919
22.999778748,-6.001441,-10.85729,-4.50101,0.9579268,-0.04999645,-0.2873109,-37.31937,-28.42802,40.14919
23.009777069,-3.970845,-10.56052,-4.683922,0.9492553,-0.02921965,-0.2815582,-37.67669,-29.19481,39.76347
23.019774914,-2.863246,-10.0857,-4.50101,0.9427123,-0.0181942,-0.2839426,-37.67669,-29.19481,39.76347
23.029772758,-2.186381,-9.13606700000001,-4.074214,0.9416546,-0.01388548,-0.2887276,-37.67669,-29.19481,39.76347
23.03977108,-1.509515,-8.48319099999998,-2.976741,0.9377479,-0.01349866,-0.2911137,-37.67669,-29.19481,39.76347
23.049767971,-0.5249836,-8.067724,-1.757326,0.9499343,-0.01375699,-0.2925707,-37.67669,-29.19481,39.76347
23.059766293,-0.0942510000000003,-7.71161000000001,-0.1720861,0.9611996,-0.01700181,-0.2997681,-37.29578,-29.56908,40.15528
23.069764137,0.2134152,-7.65225799999999,1.413154,0.9822251,-0.02102567,-0.3069823,-37.29578,-29.56908,40.15528
23.079761982,-0.586516899999998,-7.59290600000003,2.632569,1.003791,-0.02801154,-0.3204183,-37.29578,-29.56908,40.15528
23.089760304,-1.324916,-7.35549600000001,3.54713,1.02042,-0.03174599,-0.3395893,-37.29578,-29.56908,40.15528
23.099757671,-1.694115,-7.29614399999999,3.851984,1.032317,-0.04278409,-0.3501359,-37.29578,-29.56908,40.15528
23.109755516,-1.878715,-6.94003,3.54713,1.033472,-0.05255469,-0.3582712,-36.53674,-29.94708,39.77586
23.119753361,-1.447982,-6.64326800000002,2.998394,1.022624,-0.07171635,-0.3577688,-36.53674,-29.94708,39.77586
23.129751205,0.890280700000001,-6.88067700000001,2.327715,1.000221,-0.07203614,-0.3443295,-36.53674,-29.94708,39.77586
23.139748573,3.16701,-7.236791,1.718008,0.9839742,-0.06308915,-0.3404749,-36.53674,-29.94708,39.77586
23.149746895,5.25914,-8.067724,1.169271,0.967132,-0.04828752,-0.3327921,-36.53674,-29.94708,39.77586
23.15974474,5.44374,-8.66124800000001,0.620533899999998,0.9705083,-0.04618055,-0.3222699,-36.56371,-28.79948,40.54379
23.169742584,6.36673800000001,-8.95800999999999,0.4376215,0.9695073,-0.04472496,-0.3203542,-36.56371,-28.79948,40.54379
23.179739952,7.41280299999999,-9.19541899999997,0.3766508,0.9689935,-0.04325534,-0.3179608,-36.56371,-28.79948,40.54379
23.189737797,8.397335,-9.78894299999998,0.803446099999999,0.9660186,-0.04031952,-0.309342,-36.56371,-28.79948,40.54379
23.199736118,9.13573400000002,-10.97599,1.474125,0.9658375,-0.03056479,-0.305037,-36.56371,-28.79948,40.54379
23.209733963,8.27426799999999,-12.4598,2.571598,0.9575588,-0.03065817,-0.2973653,-36.54799,-29.56019,40.54784
23.219731808,8.64346799999999,-14.00296,3.303247,0.958486,-0.02825401,-0.3021533,-36.54799,-29.56019,40.54784
23.229729176,8.88960099999997,-14.47778,3.608101,0.9638674,-0.0297371,-0.3165196,-36.54799,-29.56019,40.54784
23.23972702,9.13573400000002,-13.94361,3.669072,0.9583525,-0.0216333,-0.3217764,-36.54799,-29.56019,40.54784
23.249725342,8.64346799999999,-13.23138,4.034896,0.9482989,-0.005349401,-0.3260702,-36.54799,-29.56019,40.54784
