Time (s),Gyroscope X (deg/s),Gyroscope Y (deg/s),Gyroscope Z (deg/s),Accelerometer X (g),Accelerometer Y (g),Accelerometer Z (g),Magnetometer X (uT),Magnetometer Y (uT),Magnetometer Z (uT)
12.344436646,-11.8471,12.76496,11.59527,1.102132,-0.04492537,-0.1511694,-28.50185,-22.1773,51.72903
12.354434013,-13.01623,21.84587,12.75372,1.09776,-0.04542313,-0.1430259,-27.75434,-22.16787,52.1861
12.364432335,-14.18536,31.22355,13.48536,1.095419,-0.05024107,-0.133449,-27.75434,-22.16787,52.1861
12.374429226,-14.80069,40.77927,14.58284,1.101811,-0.05285936,-0.114795,-27.75434,-22.16787,52.1861
12.384427548,-15.10836,50.92853,15.37546,1.099325,-0.04986123,-0.1004342,-27.75434,-22.16787,52.1861
12.394424915,-15.23143,60.7810199999998,15.55837,1.090718,-0.05810805,-0.08031688,-27.75434,-22.16787,52.1861
12.40442276,-14.61609,70.8709299999997,16.04613,1.08503,-0.06640248,-0.07169046,-28.50015,-22.18057,51.34203
12.414420128,-12.7701,80.8421200000001,16.59487,1.082101,-0.06589985,-0.06354968,-28.50015,-22.18057,51.34203
12.424417496,-10.80103,90.7539700000001,16.83875,1.085424,-0.06084758,-0.04967807,-28.50015,-22.18057,51.34203
12.434415341,-9.01656900000002,100.4878,17.26555,1.099608,-0.06337772,-0.03821632,-28.50015,-22.18057,51.34203
12.444412708,-6.92443900000002,110.5183,17.5704,1.121972,-0.06041843,-0.02868455,-28.50015,-22.18057,51.34203
12.454410553,-5.324575,120.3114,18.18011,1.141017,-0.06239291,-0.02010288,-29.97465,-22.96942,49.33546
12.464407921,-3.663178,130.0452,19.0337,1.173454,-0.05102186,-0.01585517,-29.97465,-22.96942,49.33546
12.474405766,-3.724712,139.9571,19.94827,1.198631,-0.04218886,-0.007765536,-29.97465,-22.96942,49.33546
12.484403134,-5.078443,149.038,20.74088,1.22761,-0.05416746,0.001279975,-29.97465,-22.96942,49.33546
12.494400978,-5.201509,157.9409,21.71642,1.259022,-0.0661901,0.000271159,-29.97465,-22.96942,49.33546
12.504398346,-4.340044,166.4282,22.63098,1.302339,-0.08900945,0.01503738,-33.2907,-21.88752,45.24129
12.514395714,-2.124848,174.7376,23.97233,1.342107,-0.1046712,0.02310788,-33.2907,-21.88752,45.24129
12.524394035,0.8287475,183.2843,25.19175,1.40087,-0.09362909,0.04070991,-33.2907,-21.88752,45.24129
12.534390926,2.244012,192.0091,26.47214,1.448866,-0.07975246,0.07268727,-33.2907,-21.88752,45.24129
12.544389248,0.2134152,199.903,26.65505,1.490282,-0.07856575,0.1128151,-33.2907,-21.88752,45.24129
12.554386616,0.4595481,207.3814,27.14281,1.523218,-0.0932239,0.1390832,-37.41529,-20.81825,40.3671
12.564384461,3.228544,214.0882,27.56961,1.534898,-0.1181831,0.1476836,-37.41529,-20.81825,40.3671
12.574381828,7.720469,220.7357,27.93543,1.553902,-0.1440266,0.15005,-37.41529,-20.81825,40.3671
12.584379673,13.25846,227.5612,28.24029,1.548662,-0.1504649,0.1481465,-37.41529,-20.81825,40.3671
12.594377041,16.64279,233.3777,28.05737,1.546826,-0.1562272,0.159637,-37.41529,-20.81825,40.3671
12.604374409,19.04258,238.304,26.9599,1.542013,-0.1591414,0.1701748,-43.03091,-19.41039,31.86773
12.614372253,22.67304,242.2806,26.47214,1.538497,-0.1532743,0.1816653,-43.03091,-19.41039,31.86773
12.624369621,24.14984,245.3075,25.4966,1.536446,-0.1472555,0.2065533,-43.03091,-19.41039,31.86773
12.634367466,24.27291,247.5629,25.00884,1.545341,-0.1531382,0.2347753,-43.03091,-19.41039,31.86773
12.644364834,25.19591,250.5305,23.4236,1.530594,-0.1460615,0.2434135,-43.03091,-19.41039,31.86773
12.654363155,26.98037,250.7086,23.36263,1.514421,-0.1666107,0.2630686,-48.6586,-17.2489,22.52581
12.664360046,30.42623,251.5395,22.9968,1.4691,-0.1401793,0.2755838,-48.6586,-17.2489,22.52581
12.674358368,31.84149,251.7769,20.74088,1.425856,-0.1204531,0.2943186,-48.6586,-17.2489,22.52581
12.684355736,29.93397,251.3021,19.82632,1.400237,-0.1309754,0.3149447,-48.6586,-17.2489,22.52581
12.694352627,28.82637,250.5305,18.91176,1.378374,-0.1342704,0.3207266,-48.6586,-17.2489,22.52581
12.704350948,31.04156,248.0971,19.70438,1.357716,-0.1495716,0.339431,-51.5666,-16.22847,10.82339
12.714348316,31.65689,246.3165,18.66788,1.319183,-0.120922,0.3672482,-51.5666,-16.22847,10.82339
12.724346161,31.16463,243.4083,17.44846,1.265002,-0.08981943,0.3783419,-51.5666,-16.22847,10.82339
12.734343529,29.13403,239.0755,16.65584,1.227624,-0.07165882,0.3726595,-51.5666,-16.22847,10.82339
12.744341373,24.76517,234.0899,16.9607,1.187639,-0.04348874,0.404308,-51.5666,-16.22847,10.82339
12.754338741,16.33512,228.8076,16.71681,1.142948,-0.02337,0.4689884,-52.66336,-15.19445,-0.8655901
12.764336586,7.59740300000001,221.6259,16.41196,1.078452,-0.04027333,0.4604909,-52.66336,-15.19445,-0.8655901
12.774333954,10.48946,214.3256,16.83875,1.0333,-0.07605766,0.4179855,-52.66336,-15.19445,-0.8655901
12.784331322,12.88926,211.536,15.37546,1.025304,-0.09042102,0.4586821,-52.66336,-15.19445,-0.8655901
12.794329166,15.22752,210.9425,12.20498,1.002212,-0.0552334,0.4242558,-50.78156,-13.37014,-11.69788
12.804326534,12.82773,209.9335,9.52226500000001,0.9118556,-0.04297796,0.4717892,-50.78156,-13.37014,-11.69788
12.814324856,10.61253,206.4911,6.83955100000002,0.8098143,-0.006674797,0.4643005,-50.78156,-13.37014,-11.69788
12.824321747,8.21273500000003,201.6835,5.13237,0.7441816,-0.014801,0.4615456,-50.78156,-13.37014,-11.69788
12.834320068,5.197607,196.698,4.461692,0.7155169,-0.02074434,0.4051251,-50.78156,-13.37014,-11.69788
12.844317436,2.428612,189.9318,3.973926,0.6664764,-0.05554492,0.4253198,-47.41837,-14.17792,-20.1833
12.854315281,-0.894183000000003,180.9696,4.217809,0.6011714,-0.05553962,0.4077263,-47.41837,-14.17792,-20.1833
12.864312649,-2.617113,170.0487,5.98596099999998,0.5592399,-0.08018798,0.4068486,-47.41837,-14.17792,-20.1833
12.874310017,-1.201849,160.2556,8.48576300000002,0.5109817,-0.07990291,0.3830039,-47.41837,-14.17792,-20.1833
12.884307861,-5.693775,151.4715,11.04653,0.4557881,-0.04617131,0.4180274,-47.41837,-14.17792,-20.1833
12.894305229,-13.38543,141.2628,14.09507,0.3895615,-0.02352482,0.3808081,-42.5421,-13.05477,-26.60327
12.904303074,-20.40022,130.4014,17.26555,0.3241378,-0.04284987,0.3751842,-42.5421,-13.05477,-26.60327
12.914300442,-25.87667,119.8366,20.00924,0.2634839,-0.03189184,0.3231223,-42.5421,-13.05477,-26.60327
12.924298286,-31.72233,109.9248,21.77739,0.2040894,-0.009486645,0.2978556,-42.5421,-13.05477,-26.60327
12.934295654,-43.10598,98.8852400000001,22.32612,0.150452,0.01875927,0.3142134,-42.5421,-13.05477,-26.60327
12.944293499,-53.25896,85.29355,22.08224,0.1217304,-0.009209527,0.2936919,-38.01447,-13.44551,-31.7924
12.954290867,-57.25863,72.0579700000001,19.88729,0.1023354,-0.09221593,0.2923114,-38.01447,-13.44551,-31.7924
12.964288235,-49.9977,59.41592,16.04613,0.07361748,-0.1985441,0.2584099,-38.01447,-13.44551,-31.7924
12.974286556,-34.0606,47.30804,11.77818,0.04691602,-0.2560452,0.2455497,-38.01447,-13.44551,-31.7924
12.984283447,-15.16989,35.67497,7.51023000000002,0.02107305,-0.2550629,0.2494231,-38.01447,-13.44551,-31.7924
12.994281769,1.997879,24.51673,3.303247,0.007381998,-0.2266891,0.2465682,-34.67236,-11.53531,-33.77702
13.004279137,15.78132,13.00237,-0.964705900000002,0.004755511,-0.1644572,0.2556497,-34.67236,-11.53531,-33.77702
13.014276981,23.84218,1.606712,-5.049747,0.007421101,-0.09878924,0.2570639,-34.67236,-11.53531,-33.77702
13.024274349,28.1495,-10.50117,-8.34216799999998,0.008619618,-0.03333012,0.2388591,-34.67236,-11.53531,-33.77702
13.034272194,26.48811,-22.431,-10.17129,8.167941e-05,0.006471218,0.2522638,-34.67236,-11.53531,-33.77702
13.044269562,19.65792,-34.24212,-11.51265,-0.001668235,0.02209205,0.2637487,-33.56019,-10.77324,-34.61124
13.054267406,13.62766,-45.16295,-12.06138,0.01975936,-0.028933,0.2704245,-33.56019,-10.77324,-34.61124
13.064264774,13.38153,-53.41293,-13.03692,0.05153639,-0.08679363,0.251241,-33.56019,-10.77324,-34.61124
13.074262142,16.88892,-58.2798300000002,-13.89051,0.09919599,-0.1069615,0.2808348,-33.56019,-10.77324,-34.61124
13.084259987,18.85798,-61.72227,-15.41478,0.1214415,-0.09691625,0.3214724,-33.56019,-10.77324,-34.61124
13.094257355,22.42691,-65.6988799999999,-15.84157,0.1309102,-0.1077874,0.3343803,-33.93243,-11.14606,-33.38649
13.10675478,23.84218,-72.1682799999998,-16.69516,0.1369948,-0.1194648,0.3726588,-33.93243,-11.14606,-33.38649
13.114252567,22.79611,-77.2132299999999,-16.93905,0.1428107,-0.1171824,0.3970554,-33.93243,-11.14606,-33.38649
13.124250889,21.13471,-87.0063799999998,-17.36584,0.1529818,-0.08698814,0.435316,-33.93243,-11.14606,-33.38649
13.134248257,17.68885,-100.0045,-18.03652,0.1700218,-0.08461025,0.4989362,-33.93243,-11.14606,-33.38649
13.144246101,10.61253,-116.3264,-18.7072,0.1993793,-0.06277412,0.5912446,-35.79497,-12.27722,-30.55629
13.154243469,3.474676,-134.9037,-18.58526,0.2347212,-0.07522166,0.6414367,-35.79497,-12.27722,-30.55629
13.164241314,1.936346,-151.4037,-18.7072,0.3177713,-0.137361,0.6810297,-35.79497,-12.27722,-30.55629
13.174238682,5.689873,-161.731,-19.49982,0.4197311,-0.1685081,0.7210605,-35.79497,-12.27722,-30.55629
13.18423605,14.18146,-165.5296,-20.53632,0.5667403,-0.2114523,0.7552726,-35.79497,-12.27722,-30.55629
13.196733475,29.38017,-163.0368,-21.99962,0.6642438,-0.1874875,0.773761,-38.79129,-13.03319,-27.34947
13.206730366,39.65622,-159.1788,-21.87768,0.6681402,-0.1097256,0.7665555,-38.79129,-13.03319,-27.34947
13.214229107,41.74834,-157.7544,-20.35341,0.6472258,-0.03454252,0.743601,-38.79129,-13.03319,-27.34947
13.224226475,35.71809,-159.535,-16.63419,0.628472,0.05522207,0.7163317,-38.79129,-13.03319,-27.34947
13.23422432,22.85765,-164.8173,-12.30527,0.6482596,0.09016217,0.6684306,-38.79129,-13.03319,-27.34947
13.244221687,5.382206,-171.2274,-9.07381699999998,0.712051,0.04106003,0.6874751,-43.66756,-14.15633,-20.9295
13.256719112,-4.709243,-177.8748,-7.366636,0.8046292,-0.06344533,0.6437902,-43.66756,-14.15633,-20.9295
13.26671648,-3.355512,-180.9018,-7.976343,0.8456033,-0.1696,0.6375246,-43.66756,-14.15633,-20.9295
13.276714325,4.397675,-182.8011,-10.04935,0.8841863,-0.2262051,0.6346005,-43.66756,-14.15633,-20.9295
13.286711693,14.05839,-185.8281,-11.45168,0.9357142,-0.2192329,0.647909,-47.39941,-16.40557,-13.7211
13.296709061,23.28838,-190.4576,-11.63459,1.005398,-0.1680279,0.623367,-47.39941,-16.40557,-13.7211
13.306706905,29.50323,-194.1967,-11.08585,1.062243,-0.1335108,0.6084231,-47.39941,-16.40557,-13.7211
13.316704273,32.70296,-196.3334,-10.72003,1.092368,-0.1042417,0.5557197,-47.39941,-16.40557,-13.7211
13.326702118,34.11823,-196.8083,-11.14682,1.063546,0.002888063,0.5361208,-47.39941,-16.40557,-13.7211
13.336699486,30.7339,-197.3424,-11.69556,1.111389,0.02355074,0.513539,-50.0694,-15.96972,-4.841553
13.346697807,21.62698,-197.4611,-8.95187600000001,1.151505,0.0671632,0.5196792,-50.0694,-15.96972,-4.841553
13.356695175,10.551,-195.7399,-8.64702100000002,1.167705,0.08703059,0.5316103,-50.0694,-15.96972,-4.841553
13.36669302,4.459208,-191.6446,-8.34216799999998,1.1308,0.05346264,0.5010544,-50.0694,-15.96972,-4.841553
13.376690388,1.874812,-185.4126,-8.22022599999998,1.077482,0.03753711,0.4690869,-50.0694,-15.96972,-4.841553
13.386688233,-2.801713,-178.5871,-7.73246000000002,1.075236,0.05286302,0.4494652,-52.30389,-15.52732,4.428243
13.3966856,-9.878035,-173.4234,-6.57401600000003,1.138209,0.07164397,0.4010144,-52.30389,-15.52732,4.428243
13.406683445,-19.72335,-171.4054,-5.78139599999999,1.220565,0.07052118,0.3659351,-52.30389,-15.52732,4.428243
13.416680813,-26.67661,-172.3551,-3.098683,1.326453,-0.01625363,0.319351,-52.30389,-15.52732,4.428243
13.426678181,-34.18366,-172.5925,-2.732858,1.30469,0.02562745,0.2700848,-52.30389,-15.52732,4.428243
13.436676025,-37.99872,-174.6105,-4.074214,1.322279,-0.05547557,0.2375319,-51.93438,-16.97511,12.82418
13.446673393,-35.47586,-176.5691,-4.379068,1.315401,-0.1056512,0.1858706,-51.93438,-16.97511,12.82418
13.456671238,-29.0764,-178.1123,-3.525478,1.322074,-0.09851536,0.1547496,-51.93438,-16.97511,12.82418
13.466668606,-28.21494,-178.8838,-2.549946,1.334273,-0.04785486,0.1417938,-51.93438,-16.97511,12.82418
13.476666927,-34.12213,-179.8335,-1.513443,1.323745,-0.006333312,0.1351014,-51.93438,-16.97511,12.82418
13.486664295,-44.64431,-180.4863,-0.4769399,1.315008,0.01780432,0.1365461,-50.45495,-17.65647,20.90189
13.49666214,-55.72029,-181.0205,-0.4769399,1.307539,4.88098e-05,0.1241207,-50.45495,-17.65647,20.90189
13.506659508,-61.19675,-180.7831,-1.574414,1.296972,-0.06067114,0.09639737,-50.45495,-17.65647,20.90189
13.516657353,-59.1661499999998,-179.1212,-3.281595,1.277249,-0.1269261,0.06773425,-50.45495,-17.65647,20.90189
13.52665472,-52.0283,-176.1536,-5.537513,1.263065,-0.1508079,0.03761483,-50.45495,-17.65647,20.90189
13.536652088,-42.05992,-173.1267,-7.73246000000002,1.245405,-0.1450238,0.01754394,-49.01886,-19.10554,28.2092
13.546649933,-32.52227,-170.3371,-9.19575899999999,1.222417,-0.1150566,-0.003481054,-49.01886,-19.10554,28.2092
13.556647301,-26.98427,-167.1914,-10.53712,1.213249,-0.06815844,-0.009698637,-49.01886,-19.10554,28.2092
13.566645146,-26.36894,-164.1051,-11.8175,1.218111,-0.04195315,-0.02407114,-49.01886,-19.10554,28.2092
13.576642513,-26.49201,-161.0781,-13.76857,1.229853,-0.04473769,-0.03509814,-49.01886,-19.10554,28.2092
13.586640358,-26.55354,-157.3389,-15.53672,1.232746,-0.04326655,-0.03988933,-45.29768,-19.02675,34.23553
13.596637726,-25.38441,-153.5997,-17.48778,1.239861,-0.05935946,-0.06143351,-45.29768,-19.02675,34.23553
13.606636048,-22.36928,-149.6825,-18.7072,1.234808,-0.07612165,-0.07673482,-45.29768,-19.02675,34.23553
13.616632938,-17.93889,-145.2904,-20.10953,1.234802,-0.10196,-0.0858211,-45.29768,-19.02675,34.23553
13.62663126,-12.4009,-140.7796,-21.02409,1.222445,-0.1188007,-0.093931,-45.29768,-19.02675,34.23553
13.636628628,-5.324575,-136.3282,-21.45088,1.20884,-0.1210835,-0.1015639,-41.53156,-21.22573,40.79004
13.646626472,1.567146,-131.8174,-21.45088,1.198886,-0.1101693,-0.108728,-41.53156,-21.22573,40.79004
13.65662384,6.18213799999999,-126.8912,-20.96312,1.181537,-0.09444966,-0.1058304,-41.53156,-21.22573,40.79004
13.666621208,9.99719900000002,-122.143,-20.29244,1.166577,-0.07630578,-0.1086804,-41.53156,-21.22573,40.79004
13.676619053,12.45853,-117.0387,-19.62176,1.156697,-0.06922501,-0.1101007,-41.53156,-21.22573,40.79004
13.686616421,13.50459,-111.8157,-18.89011,1.151807,-0.0683585,-0.1110496,-36.64596,-22.67682,44.83332
13.696614265,14.18146,-106.0585,-18.40234,1.138726,-0.07258783,-0.1201186,-36.64596,-22.67682,44.83332
13.706611633,16.82739,-100.3013,-17.73167,1.12175,-0.07682391,-0.1215237,-36.64596,-22.67682,44.83332
13.716609478,18.79645,-94.1286600000003,-17.12196,1.105298,-0.08296709,-0.1200577,-36.64596,-22.67682,44.83332
13.726606846,22.24231,-87.9560199999998,-16.93905,1.100876,-0.08114138,-0.1234005,-36.64596,-22.67682,44.83332
13.736605167,26.18044,-81.3085500000003,-16.51225,1.083558,-0.06754038,-0.1396454,-33.27335,-23.38171,48.47442
13.746602058,28.58023,-74.4236799999998,-16.32934,1.070902,-0.04265306,-0.153987,-33.27335,-23.38171,48.47442
13.75660038,28.8879,-66.8265700000002,-15.35381,1.063586,-0.01668836,-0.1683382,-33.27335,-23.38171,48.47442
13.766597748,24.45751,-58.6359399999998,-14.37827,1.059905,0.02355892,-0.1697779,-33.27335,-23.38171,48.47442
13.776595592,16.88892,-51.27625,-13.76857,1.06192,0.04592573,-0.1726586,-33.27335,-23.38171,48.47442
13.78659296,10.67406,-44.51008,-12.54915,1.054489,0.05191192,-0.1927474,-31.07279,-24.48893,50.56073
13.796590328,6.98206999999997,-38.8716,-10.41517,1.065086,0.05762359,-0.2286606,-31.07279,-24.48893,50.56073
13.806588173,1.321013,-33.11442,-7.73246000000002,1.066818,0.04224273,-0.2669457,-31.07279,-24.48893,50.56073
13.816585541,-5.693775,-27.11983,-5.29363,1.063036,0.03572795,-0.2803376,-31.07279,-24.48893,50.56073
13.826583385,-16.21596,-21.12525,-2.91577,1.057377,0.02599819,-0.269318,-28.47407,-23.69164,52.57565
13.836580753,-24.83061,-15.42742,-1.025677,1.056207,0.01041618,-0.2702691,-28.47407,-23.69164,52.57565
13.846578598,-28.58414,-10.97599,1.291212,1.037918,-0.02796265,-0.2826703,-28.47407,-23.69164,52.57565
13.856575966,-28.09187,-6.04974400000001,3.120335,1.009884,-0.0665998,-0.302233,-28.47407,-23.69164,52.57565
13.866573811,-25.19981,-0.708030899999999,4.888487,0.9878643,-0.08809702,-0.320375,-28.47407,-23.69164,52.57565
13.876571178,-22.80001,4.871092,6.35178600000003,0.9667091,-0.07732955,-0.3193838,-28.10102,-23.68556,52.96543
13.8865695,-20.21562,9.85669000000001,7.26634699999998,0.940582,-0.06132812,-0.3198209,-28.10102,-23.68556,52.96543
13.896566868,-17.07742,14.42682,7.87605399999997,0.9273219,-0.05571932,-0.3154921,-28.10102,-23.68556,52.96543
13.906564713,-13.63156,18.46278,7.99799599999998,0.908561,-0.04310993,-0.330777,-28.10102,-23.68556,52.96543
13.91656208,-11.41637,22.49874,7.81508400000003,0.9004549,-0.02681386,-0.3379457,-28.10102,-23.68556,52.96543
13.926559925,-9.38576900000002,26.71276,7.26634699999998,0.8957856,-0.01192088,-0.3465558,-27.69144,-25.21071,52.20232
13.936557293,-9.07810300000001,30.1552,7.14440499999997,0.9027368,0.007181336,-0.3451371,-27.69144,-25.21071,52.20232
13.946554661,-10.24723,33.83505,7.08343500000003,0.9074882,0.01355736,-0.3489757,-27.69144,-25.21071,52.20232
13.956552505,-10.3703,36.50591,6.83955100000002,0.9081389,0.00480572,-0.3508888,-27.69144,-25.21071,52.20232
13.966549873,-8.77043599999998,39.35482,6.65663900000001,0.9215994,-0.01150299,-0.356651,-27.69144,-25.21071,52.20232
13.976547718,-6.30910700000001,42.02568,6.41275599999997,0.9240865,-0.01447039,-0.3676618,-28.80414,-25.60659,51.35751
13.986545086,-3.909311,44.45912,5.86401899999998,0.9256297,-0.01882215,-0.3686206,-28.80414,-25.60659,51.35751
13.996542931,-2.55558,46.65516,5.742078,0.9414997,-0.007936322,-0.3815726,-28.80414,-25.60659,51.35751
14.006540298,-2.063314,48.07962,5.559165,0.9497547,-0.006267151,-0.376323,-28.80414,-25.60659,51.35751
14.01653862,-1.940248,49.26666,5.742078,0.9549735,0.001046124,-0.3849484,-28.80414,-25.60659,51.35751
14.026535511,-2.801713,50.39436,6.16887299999999,0.9529498,0.004819103,-0.3930817,-29.55024,-25.61875,50.57794
14.036533833,-4.46311,51.16594,6.59566799999998,0.9480161,0.008167085,-0.3882881,-29.55024,-25.61875,50.57794
14.0465312,-6.678307,51.28465,7.14440499999997,0.9456173,0.006180312,-0.3878049,-29.55024,-25.61875,50.57794
14.056529045,-8.40123700000001,51.40335,7.87605399999997,0.9364618,0.0006321368,-0.3901804,-29.55024,-25.61875,50.57794
14.066526413,-9.63190200000001,51.22529,8.54673300000003,0.9370276,-0.00383982,-0.4021446,-29.55024,-25.61875,50.57794
14.076524258,-11.35483,51.52205,9.15644099999999,0.9283106,-0.006275067,-0.3839429,-31.04018,-25.64743,48.50281
14.086521626,-13.3239,51.16594,9.82711900000002,0.9293193,-0.008260311,-0.3906442,-31.04018,-25.64743,48.50281
14.096518993,-14.00076,50.63177,10.19294,0.9367212,-0.01284628,-0.3767772,-31.04018,-25.64743,48.50281
14.106516838,-14.98529,49.74148,10.4978,0.9519489,-0.01936177,-0.3782378,-31.04018,-25.64743,48.50281
14.116514206,-13.81616,48.19832,10.55877,0.9569669,-0.02700699,-0.3748946,-31.04018,-25.64743,48.50281
14.126512051,-11.23177,46.95192,10.80265,0.9707174,-0.03250521,-0.3682171,-32.55766,-24.52742,47.32459
14.136509419,-8.58583600000001,46.12099,10.19294,0.9821212,-0.04297939,-0.3691914,-32.55766,-24.52742,47.32459
14.14650774,-6.001441,45.88358,10.01003,0.9788799,-0.02601793,-0.3672758,-32.55766,-24.52742,47.32459
14.156504631,-3.293979,45.34941,9.52226500000001,0.9708157,-0.01149812,-0.3562582,-32.55766,-24.52742,47.32459
14.166502953,-1.078783,44.93394,8.42479100000002,0.9727324,-0.009367347,-0.3399905,-32.55766,-24.52742,47.32459
14.17650032,1.936346,44.28107,7.63217200000002,0.9803679,-0.001051984,-0.3505347,-34.354,-24.93499,45.70068
14.186498165,3.043944,43.80625,6.96149300000002,0.9818349,0.02479769,-0.3433653,-34.354,-24.93499,45.70068
14.196495533,0.3980148,43.39078,6.77858100000002,0.9856554,0.02942649,-0.3237515,-34.354,-24.93499,45.70068
14.206493378,-3.232446,42.6192,6.65663900000001,0.9828544,0.02315041,-0.3132163,-34.354,-24.93499,45.70068
14.216490746,-5.01691,41.3728,6.71760999999998,0.9809315,-0.004047665,-0.307463,-34.354,-24.93499,45.70068
14.22648859,-3.109379,39.77029,6.90052199999999,0.9849616,-0.03701646,-0.3079401,-35.47903,-24.57669,44.0778
14.236485958,1.013347,38.64259,6.90052199999999,0.9907038,-0.05728624,-0.3050735,-35.47903,-24.57669,44.0778
14.246483803,5.87447300000001,37.6336,6.35178600000003,0.9908241,-0.06354846,-0.2993291,-35.47903,-24.57669,44.0778
14.256481171,10.42793,36.56526,5.498195,0.9816114,-0.03984477,-0.2911834,-35.47903,-24.57669,44.0778
14.266478539,13.87379,35.91238,4.888487,0.9655603,-0.01533062,-0.2858974,-35.47903,-24.57669,44.0778
14.276476383,17.01199,35.55627,3.791013,0.9663329,0.02099428,-0.3007439,-36.60407,-24.2184,42.45492
14.286473751,14.24299,35.55627,2.937423,0.9741359,0.0470788,-0.2816212,-36.60407,-24.2184,42.45492
14.296472073,7.10513699999998,35.79368,2.022861,0.976161,0.04334971,-0.2687023,-36.60407,-24.2184,42.45492
14.306469441,2.859344,35.08145,1.535095,0.9794788,0.02260751,-0.2591312,-36.60407,-24.2184,42.45492
14.316467285,2.120945,33.7757,1.291212,0.9820029,-0.007930631,-0.2562563,-36.60407,-24.2184,42.45492
14.326464653,3.228544,32.82606,1.1083,0.9823953,-0.02881397,-0.255773,-38.1134,-23.47929,41.21424
14.336462498,4.889941,32.17318,1.352183,0.9839574,-0.03411531,-0.2543387,-38.1134,-23.47929,41.21424
14.346459866,6.612871,31.22355,1.535095,0.9881061,-0.02133745,-0.2476491,-38.1134,-23.47929,41.21424
14.35645771,4.274609,30.09585,1.778978,1.000347,0.001888388,-0.2318834,-38.1134,-23.47929,41.21424
14.366455078,1.07488,28.49333,1.839949,1.002757,0.003468408,-0.2237522,-38.1134,-23.47929,41.21424
14.376452923,-0.5249836,26.11924,1.535095,1.006377,-0.007641123,-0.2242342,-38.10973,-23.48637,40.37573
14.386450291,0.02881546,24.33867,1.1083,1.009923,-0.01487773,-0.2261529,-38.10973,-23.48637,40.37573
14.396448612,0.5826145,22.97356,0.681504599999997,1.009493,-0.01774048,-0.2194513,-38.10973,-23.48637,40.37573
14.406445503,1.136414,21.66781,0.01082622,1.015313,-0.0160887,-0.2108475,-38.10973,-23.48637,40.37573
14.416443825,1.505613,20.36206,-0.4769399,1.009258,-0.005022899,-0.2098826,-38.87156,-22.73782,39.59211
14.426441193,1.997879,18.70019,-0.964705900000002,1.003055,-0.01190916,-0.2055629,-38.87156,-22.73782,39.59211
14.436439037,3.228544,17.45379,-1.513443,0.9904814,-0.01700383,-0.2041039,-38.87156,-22.73782,39.59211
14.446436405,5.136074,16.20739,-2.245092,0.9792777,-0.01723396,-0.2050415,-38.87156,-22.73782,39.59211
14.456433773,7.22820399999999,15.0797,-2.8548,0.9713951,-0.01245571,-0.1968932,-38.87156,-22.73782,39.59211
14.466431618,8.82806800000001,14.42682,-3.220624,0.9626932,-0.01596343,-0.1896985,-39.62721,-22.36636,39.19752
14.476428986,10.1818,13.65524,-3.647419,0.9567941,-0.01312923,-0.1858603,-39.62721,-22.36636,39.19752
14.48642683,11.16633,13.06172,-4.013244,0.9518521,-0.009277931,-0.1791526,-39.62721,-22.36636,39.19752
14.496424198,11.474,12.46819,-4.318098,0.9509524,-0.01313499,-0.1738857,-39.62721,-22.36636,39.19752
14.506422043,11.474,11.87467,-4.440039,0.9529659,-0.01646171,-0.1700598,-39.62721,-22.36636,39.19752
14.516419411,11.90473,11.10309,-4.622952,0.9495672,-0.01695339,-0.1633536,-40.37303,-22.37907,38.35345
14.526417256,13.07386,10.33151,-5.049747,0.9569559,-0.02118088,-0.1633654,-40.37303,-22.37907,38.35345
14.536414623,13.13539,9.67863400000001,-5.110718,0.9606524,-0.01040837,-0.1624175,-40.37303,-22.37907,38.35345
14.546412945,11.96626,9.44122399999999,-5.171688,0.9628869,0.0003221125,-0.1629027,-40.37303,-22.37907,38.35345
14.556410313,9.38186599999998,8.43223400000003,-5.415571,0.97798,0.001158882,-0.1571864,-40.37303,-22.37907,38.35345
14.566408157,6.612871,7.60130100000003,-5.476542,0.9910488,0.005759851,-0.1605603,-40.3809,-21.99871,38.35143
14.576405525,4.336142,6.77036799999997,-5.659454,1.005916,-0.007583473,-0.1639329,-40.3809,-21.99871,38.35143
14.58640337,2.920877,5.82073000000003,-5.720425,1.018719,-0.01458895,-0.1606033,-40.3809,-21.99871,38.35143
14.596400738,2.305545,4.633682,-5.537513,1.033403,-0.01825216,-0.1678066,-40.3809,-21.99871,38.35143
14.606398583,1.813279,3.684045,-5.537513,1.041227,-0.01947646,-0.1592056,-40.3809,-21.99871,38.35143
14.61639595,1.25948,2.615702,-5.415571,1.042641,-0.01706707,-0.164473,-40.74438,-22.38842,37.57667
14.626393795,0.705681,1.547359,-5.232659,1.037249,-0.01515527,-0.1563283,-40.74438,-22.38842,37.57667
14.636391163,0.1518819,0.775778400000001,-5.29363,1.030376,-0.01231398,-0.149617,-40.74438,-22.38842,37.57667
14.646389484,0.02881546,-0.1145072,-5.232659,1.022142,-0.01488006,-0.1467305,-40.74438,-22.38842,37.57667
14.656386375,0.3364816,-1.004793,-5.3546,1.01011,-0.022906,-0.1481432,-40.74438,-22.38842,37.57667
14.666383743,1.505613,-1.479612,-5.3546,1.004788,-0.02495491,-0.1481334,-40.73822,-22.7655,37.9657
14.676382065,2.305545,-1.717021,-5.537513,1.003806,-0.02446206,-0.1452604,-40.73822,-22.7655,37.9657
14.686378956,3.35161,-2.073135,-5.476542,0.9940541,-0.02417756,-0.1462006,-40.73822,-22.7655,37.9657
14.696377277,3.35161,-2.488602,-5.29363,0.9885607,-0.01694871,-0.1409286,-40.73822,-22.7655,37.9657
14.706374645,3.474676,-3.022773,-5.171688,0.9892207,-0.02618172,-0.142363,-40.73822,-22.7655,37.9657
14.71637249,3.843876,-3.319535,-4.988776,0.98774,-0.02527419,-0.1461893,-39.99829,-22.37626,38.35624
14.726369858,4.213075,-3.853706,-4.683922,0.9863691,-0.03018701,-0.1490571,-39.99829,-22.37626,38.35624
14.736367702,4.705341,-4.150468,-4.196156,0.9872439,-0.02479366,-0.14571,-39.99829,-22.37626,38.35624
14.74636507,4.397675,-4.684639,-3.830332,0.9929054,-0.01500684,-0.1505081,-39.99829,-22.37626,38.35624
14.756362915,3.659276,-5.100106,-3.098683,0.9996059,-0.008570376,-0.1519572,-39.99829,-22.37626,38.35624
14.766360283,2.859344,-5.634277,-2.488975,1.006886,-0.006942399,-0.1490989,-40.3792,-22.00198,37.96442
14.776358128,1.567146,-6.04974400000001,-1.940238,1.016996,-0.0004517372,-0.1519896,-40.3792,-22.00198,37.96442
14.786355495,0.767214200000001,-6.64326800000002,-1.574414,1.019515,-0.004731581,-0.1472071,-40.3792,-22.00198,37.96442
14.796353817,0.2749484,-7.05873399999998,-0.8427644,1.023936,-0.006574843,-0.1457786,-40.3792,-22.00198,37.96442
14.806351185,-0.03271778,-7.889668,-0.3549984,1.031159,-0.002106916,-0.1510567,-40.3792,-22.00198,37.96442
14.816349029,-0.0942510000000003,-8.12707699999999,0.0717969800000001,1.036103,-0.00589238,-0.1505858,-40.37303,-22.37907,38.35345
14.826346397,-0.2173175,-8.60189500000002,0.681504599999997,1.039899,-0.0004676243,-0.1501152,-40.37303,-22.37907,38.35345
14.836344242,-0.4634504,-9.13606700000001,1.169271,1.043309,-0.0004222039,-0.1525141,-40.37303,-22.37907,38.35345
14.84634161,-0.709583300000001,-9.49218100000001,1.474125,1.045704,0.001468009,-0.163526,-40.37303,-22.37907,38.35345
14.856339455,-1.017249,-9.848295,1.839949,1.052589,-0.001758083,-0.15923,-40.37303,-22.37907,38.35345
14.866336822,-1.263382,-10.02635,1.596066,1.054545,-0.002266796,-0.1659333,-39.62524,-22.37017,38.74602
14.876334667,-1.447982,-10.44182,1.90092,1.050152,-0.001850095,-0.1640114,-39.62524,-22.37017,38.74602
14.886332035,-1.632582,-10.67923,2.083832,1.042313,0.0004203423,-0.164477,-39.62524,-22.37017,38.74602
14.896330357,-2.063314,-10.85729,1.96189,1.036469,0.000370694,-0.1572881,-39.62524,-22.37017,38.74602
14.906327248,-2.247914,-11.27275,2.022861,1.022748,0.00446869,-0.1577438,-39.62524,-22.37017,38.74602
14.916324615,-2.370981,-11.51016,2.022861,1.018453,-0.0005369846,-0.1644351,-39.62524,-22.37017,38.74602
14.926322937,-2.92478,-11.2134,1.96189,1.012104,0.0003313732,-0.1620314,-39.62524,-22.37017,38.74602
14.936320305,-3.047846,-11.03534,1.535095,1.005357,-0.003702617,-0.1634543,-39.62524,-22.37017,38.74602
14.94631815,-3.232446,-10.85729,1.413154,1.002499,-0.007112408,-0.1581841,-39.62524,-22.37017,38.74602
14.956315517,-2.370981,-10.97599,0.681504599999997,0.992251,-0.006364932,-0.1605593,-39.62524,-22.37017,38.74602
14.966313362,-1.201849,-10.85729,0.01082622,0.9879587,-0.01129599,-0.1591148,-39.25247,-22.36355,39.2003
14.97631073,-0.4634504,-10.67923,-0.4159691,0.9887788,-0.002988079,-0.1557684,-39.25247,-22.36355,39.2003
14.986308575,0.0903486900000002,-10.56052,-0.903735200000002,0.9853761,-0.003607044,-0.1629409,-39.25247,-22.36355,39.2003
14.996305943,0.2134152,-10.20441,-1.330531,0.987749,-0.0001190946,-0.1586388,-39.25247,-22.36355,39.2003
15.006303787,0.1518819,-9.96700000000001,-1.940238,0.9896416,0.002798856,-0.1624714,-38.89346,-21.60002,39.19902
15.016301155,0.2749484,-9.67023799999998,-2.245092,0.9974445,0.002467074,-0.1624849,-38.89346,-21.60002,39.19902
15.026299,-0.0942510000000003,-9.551534,-2.549946,0.996967,0.001989247,-0.1605697,-38.89346,-21.60002,39.19902
15.036296368,-0.4634504,-9.373476,-2.732858,1.002802,0.002537824,-0.1663229,-38.89346,-21.60002,39.19902
15.046294689,-0.955716300000001,-9.19541899999997,-2.91577,1.008188,0.001225907,-0.1620248,-38.89346,-21.60002,39.19902
15.056292057,-0.955716300000001,-9.13606700000001,-3.159653,1.0112,-0.003639802,-0.1692074,-38.88111,-22.3542,39.97708
15.066289902,-0.586516899999998,-8.95800999999999,-3.220624,1.011642,-0.001196981,-0.1687302,-38.88111,-22.3542,39.97708
15.07628727,-0.4634504,-8.60189500000002,-3.342566,1.018929,-0.0001162152,-0.1725718,-38.88111,-22.3542,39.97708
15.086285114,-0.7711166,-8.60189500000002,-3.525478,1.026623,0.005411862,-0.1692366,-38.88111,-22.3542,39.97708
15.096282482,-1.324916,-8.12707699999999,-3.647419,1.02223,0.005793453,-0.1711434,-38.88111,-22.3542,39.97708
15.106280327,-1.632582,-7.83031500000001,-3.769361,1.030989,0.006474389,-0.1687659,-38.50048,-22.72793,40.4334
15.116277695,-1.755648,-7.47420100000002,-3.647419,1.029554,0.004957508,-0.1721131,-38.50048,-22.72793,40.4334
15.126275539,-1.447982,-7.236791,-3.952273,1.022321,0.000940228,-0.1706637,-38.50048,-22.72793,40.4334
15.136272907,-0.955716300000001,-6.761972,-3.952273,1.023747,0.002934089,-0.1682738,-38.50048,-22.72793,40.4334
15.146271229,-0.4019172,-6.10909600000003,-4.013244,1.016411,0.004198738,-0.1735257,-38.50048,-22.72793,40.4334
15.15626812,-0.3403839,-5.87168699999998,-3.891303,1.010098,0.003145998,-0.1687287,-38.12376,-22.72893,39.98467
15.166266441,-0.586516899999998,-5.040754,-3.586449,1.008573,0.006517455,-0.1687269,-38.12376,-22.72893,39.98467
15.176263809,-0.832649800000001,-4.44723,-3.464507,1.005156,0.006975354,-0.1644139,-38.12376,-22.72893,39.98467
15.186261654,-0.6480501,-3.853706,-3.220624,1.006633,0.005971253,-0.1711162,-38.12376,-22.72893,39.98467
15.196259022,-1.078783,-3.141478,-3.098683,1.000749,0.007724197,-0.1792422,-38.12376,-22.72893,39.98467
15.206256867,-1.140316,-2.42925,-2.793829,1.002737,0.00591182,-0.1691951,-37.73697,-23.47974,40.83002
15.216254234,-1.509515,-1.895078,-2.610917,0.9974234,0.003350814,-0.1720567,-37.73697,-23.47974,40.83002
15.226251602,-1.755648,-1.301555,-2.488975,1.005247,0.002108963,-0.1653699,-37.73697,-23.47974,40.83002
15.236249447,-2.124848,-0.4706214,-2.245092,1.002827,0.001014705,-0.1735012,-37.73697,-23.47974,40.83002
15.246246815,-1.940248,0.06354995,-2.184121,1.005613,0.008367646,-0.1725508,-37.73697,-23.47974,40.83002
15.256244659,-2.063314,0.8351307,-1.940238,1.013389,0.009497539,-0.1720861,-38.11958,-23.1022,40.82521
15.266242027,-2.432514,1.369302,-1.879267,1.01198,0.00648826,-0.1792615,-38.11958,-23.1022,40.82521
15.276240349,-2.432514,2.022178,-1.696355,1.011469,0.008032484,-0.1687323,-38.11958,-23.1022,40.82521
15.28623724,-2.494047,2.437645,-1.757326,1.015004,0.001224577,-0.1768725,-38.11958,-23.1022,40.82521
15.296235561,-1.940248,2.971816,-1.879267,1.016171,-0.008904495,-0.171129,-38.11958,-23.1022,40.82521
15.306232929,-1.078783,3.505987,-1.940238,1.01796,-0.0007572892,-0.1874058,-37.73697,-23.47974,40.83002
15.316230774,-0.4019172,3.921454,-1.879267,1.014041,0.000789792,-0.1692135,-37.73697,-23.47974,40.83002
15.326228142,-0.586516899999998,4.396273,-1.818297,1.01163,-0.0008121707,-0.1797376,-37.73697,-23.47974,40.83002
15.336225987,-0.6480501,4.514977,-1.757326,1.009557,0.006072889,-0.1663356,-37.73697,-23.47974,40.83002
15.346223354,-0.6480501,4.693035,-1.696355,1.008166,0.002065754,-0.1763823,-37.73697,-23.47974,40.83002
15.356221199,-1.017249,5.108501,-1.696355,1.009049,0.006951394,-0.1754279,-37.73697,-23.47974,40.83002
15.366218567,-1.571049,5.405263,-1.513443,1.005255,0.001601254,-0.1677627,-37.73697,-23.47974,40.83002
15.376216412,-1.940248,5.82073000000003,-1.513443,1.008606,0.004464681,-0.1806908,-37.73697,-23.47974,40.83002
15.38621378,-2.370981,5.88008199999999,-1.513443,1.004728,0.003446892,-0.1773338,-37.73697,-23.47974,40.83002
15.396212101,-2.247914,6.117492,-1.330531,0.9994439,-0.0005275031,-0.1754092,-37.73697,-23.47974,40.83002
15.406208992,-1.817181,6.29554899999997,-1.391501,0.9959968,0.001326227,-0.1777966,-37.74313,-23.10266,40.44099
15.416207314,-1.386449,6.59230999999998,-1.330531,0.9951119,-0.003612081,-0.1844938,-37.74313,-23.10266,40.44099
15.426204681,-0.7711166,6.41425300000001,-1.26956,0.993532,0.002673944,-0.1844927,-37.74313,-23.10266,40.44099
15.436202526,-0.586516899999998,6.82971999999999,-1.208589,0.9940117,0.003222,-0.1787508,-37.74313,-23.10266,40.44099
15.446199894,-0.6480501,6.59230999999998,-1.208589,0.9953724,0.008585467,-0.1797116,-37.74313,-23.10266,40.44099
15.456197739,-0.4634504,6.82971999999999,-0.964705900000002,0.9909706,0.009483542,-0.1782685,-38.11788,-23.10547,40.4382
15.466195107,-0.4634504,6.82971999999999,-0.903735200000002,0.9930462,0.002703823,-0.1801846,-38.11788,-23.10547,40.4382
15.476192951,0.02881546,6.71101499999999,-0.8427644,0.9964553,0.002753634,-0.1821049,-38.11788,-23.10547,40.4382
15.486190319,0.2749484,6.473606,-0.598881400000002,0.998312,0.007627796,-0.1845023,-38.11788,-23.10547,40.4382
15.496188164,0.5826145,6.41425300000001,-0.4769399,0.9958783,0.007641125,-0.177798,-38.11788,-23.10547,40.4382
15.506185532,0.2134152,6.17684400000002,-0.2330568,0.9938375,0.01242513,-0.1816243,-38.48476,-23.48864,40.43745
15.516183853,-0.4634504,5.88008199999999,-0.05014454,0.9967501,0.01293791,-0.1849795,-38.48476,-23.48864,40.43745
15.526181221,-0.955716300000001,5.76137699999998,0.1327677,1.00016,0.01302283,-0.1830712,-38.48476,-23.48864,40.43745
15.536179066,-1.571049,5.523968,0.2547093,0.9958587,0.008573146,-0.1821054,-38.48476,-23.48864,40.43745
15.546176434,-1.447982,5.286559,0.3766508,1.006089,0.008805971,-0.1787732,-38.48476,-23.48864,40.43745
15.556174278,-1.078783,5.108501,0.4376215,1.005682,0.004371826,-0.1845143,-37.72741,-23.86337,40.44504
15.566171646,-0.586516899999998,4.633682,0.5595631,1.002253,0.005240867,-0.1883372,-37.72741,-23.86337,40.44504
15.576169491,-0.4019172,4.455625,0.7424754,1.008506,0.009812444,-0.1802134,-37.72741,-23.86337,40.44504
15.586166859,-0.5249836,4.277568,0.864416900000002,1.002999,0.01737781,-0.191213,-37.72741,-23.86337,40.44504
15.596164704,-0.832649800000001,3.980806,0.925387699999998,1.002192,0.008724591,-0.179245,-38.48278,-23.49245,39.98595
15.606162071,-0.7711166,3.684045,0.925387699999998,1.00074,0.008214347,-0.1787638,-38.48278,-23.49245,39.98595
15.616159916,-0.3403839,3.446635,0.925387699999998,0.9973757,0.005713783,-0.1792358,-38.48278,-23.49245,39.98595
15.626157284,-0.0942510000000003,3.090521,0.864416900000002,1.000383,0.001465512,-0.1720614,-38.48278,-23.49245,39.98595
15.636155605,0.0903486900000002,2.853111,0.864416900000002,1.001244,0.00719539,-0.1849859,-38.48278,-23.49245,39.98595
15.646152973,0.3364816,2.853111,0.620533899999998,0.9982944,0.008621265,-0.1821096,-38.48278,-23.49245,39.98595
15.656150818,-0.2173175,2.55635,0.681504599999997,0.9953173,0.01149126,-0.1806695,-38.48278,-23.49245,39.98595
15.666148186,-0.586516899999998,1.903473,0.620533899999998,0.9928466,0.01342568,-0.1763585,-38.48278,-23.49245,39.98595
15.67614603,-0.709583300000001,1.784769,0.620533899999998,0.986541,0.01182574,-0.1782614,-38.48278,-23.49245,39.98595
15.686143398,-0.955716300000001,1.369302,0.5595631,0.9904385,0.01192467,-0.1758753,-38.48278,-23.49245,39.98595
15.696141243,-1.017249,1.191245,0.620533899999998,0.9924886,0.006659296,-0.1715703,-38.84798,-23.87889,39.59819
15.706138611,-0.894183000000003,1.131893,0.4985923,0.9986926,0.01356312,-0.1739758,-38.84798,-23.87889,39.59819
15.716136455,-0.832649800000001,0.775778400000001,0.4376215,0.9987929,0.008219743,-0.1739746,-38.84798,-23.87889,39.59819
15.726133823,-1.078783,0.2416071,0.1937385,0.9977571,0.01167105,-0.1663165,-38.84798,-23.87889,39.59819
15.736132145,-0.894183000000003,0.004197581,0.31568,0.9992077,0.01213302,-0.1720621,-38.84798,-23.87889,39.59819
15.746129036,-1.017249,-0.1145072,0.31568,0.9996858,0.01263279,-0.1715844,-38.84966,-23.87562,39.9852
15.756127357,-1.078783,-0.826735599999998,0.2547093,1.000137,0.01460302,-0.1696714,-38.84966,-23.87562,39.9852
15.766124725,-1.017249,-1.123497,0.1327677,0.9978016,0.009207133,-0.1701445,-38.84966,-23.87562,39.9852
15.77612257,-0.5249836,-1.064145,0.1937385,0.9987952,0.00828997,-0.1663174,-38.84966,-23.87562,39.9852
15.786119938,0.0903486900000002,-1.360907,0.1937385,1.00078,0.006363474,-0.1687133,-38.84966,-23.87562,39.9852
15.796117306,0.4595481,-1.360907,-0.05014454,1.000706,0.01024079,-0.1696713,-39.60532,-23.50416,39.59061
15.80611515,0.1518819,-1.479612,-0.05014454,1.003493,0.01762006,-0.1658494,-39.60532,-23.50416,39.59061
15.816112995,-0.0942510000000003,-1.598316,-0.2330568,1.00249,0.01899665,-0.1725481,-39.60532,-23.50416,39.59061
15.826110363,-0.2173175,-1.657669,-0.1111153,1.005892,0.01960684,-0.1663327,-39.60532,-23.50416,39.59061
15.836108208,-0.4634504,-1.717021,-0.1720861,1.007442,0.01471226,-0.1735128,-39.60532,-23.50416,39.59061
15.846105576,-0.4019172,-1.895078,-0.2330568,1.001673,0.01080286,-0.1634516,-38.84798,-23.87889,39.59819
15.856103897,-0.3403839,-1.479612,-0.2330568,1.004052,0.01371287,-0.1691994,-38.84798,-23.87889,39.59819
15.866101265,-0.709583300000001,-1.538964,-0.05014454,1.005496,0.01471766,-0.1687236,-38.84798,-23.87889,39.59819
15.87609911,-0.832649800000001,-1.598316,-0.1111153,1.005469,0.01620566,-0.1653739,-38.84798,-23.87889,39.59819
15.886096477,-1.324916,-1.479612,0.0717969800000001,1.008841,0.01818535,-0.1687304,-38.84798,-23.87889,39.59819
15.896094322,-1.694115,-1.242202,-0.05014454,1.010265,0.02012215,-0.1725619,-38.84011,-24.25924,39.60022
15.90609169,-1.940248,-1.242202,-0.1111153,1.011342,0.01487265,-0.1644267,-38.84011,-24.25924,39.60022
15.916089535,-2.124848,-1.18285,-0.1720861,1.010847,0.01539267,-0.1596402,-38.84011,-24.25924,39.60022
15.926086903,-2.124848,-1.064145,-0.1720861,1.013227,0.01832025,-0.1634737,-38.84011,-24.25924,39.60022
15.936084747,-1.755648,-0.9454404,-0.1111153,1.004569,0.01234422,-0.1605856,-38.84011,-24.25924,39.60022
15.946082115,-1.509515,-0.708030899999999,-0.2940276,1.013337,0.01251745,-0.1606009,-39.23058,-23.50134,39.59338
15.95607996,-1.201849,-0.5299737,-0.598881400000002,1.001095,0.0156684,-0.1615376,-39.23058,-23.50134,39.59338
15.966077328,-1.201849,-0.2332119,-0.598881400000002,1.001067,0.01709057,-0.1653665,-39.23058,-23.50134,39.59338
15.976075649,-1.324916,-0.2332119,-0.659852100000001,1.004561,0.01286509,-0.1567571,-39.23058,-23.50134,39.59338
15.986073017,-1.263382,0.004197581,-0.659852100000001,1.00515,0.007570844,-0.1524496,-39.23058,-23.50134,39.59338
15.996070862,-1.017249,0.06354995,-0.659852100000001,1.00811,0.005698708,-0.1510186,-38.85583,-23.49853,39.59617
16.00606823,-0.6480501,0.06354995,-0.8427644,1.007555,0.008997243,-0.1610685,-38.85583,-23.49853,39.59617
16.016066074,-0.3403839,0.3603118,-0.964705900000002,1.007549,0.00955323,-0.1534114,-38.85583,-23.49853,39.59617
16.026063442,-0.4019172,0.4196641,-1.208589,1.010488,0.008591169,-0.1586807,-38.85583,-23.49853,39.59617
16.03606081,-0.4019172,0.4790165,-0.903735200000002,1.004642,0.008458126,-0.1605847,-38.85583,-23.49853,39.59617
16.046058655,-0.586516899999998,0.657073599999999,-1.147618,1.004488,0.01672924,-0.1591509,-38.84966,-23.87562,39.9852
16.056056023,-1.017249,0.775778400000001,-1.147618,1.014247,0.01591069,-0.1634749,-38.84966,-23.87562,39.9852
16.066053867,-1.140316,0.894483100000001,-1.025677,1.01284,0.01297603,-0.1625145,-38.84966,-23.87562,39.9852
16.076052189,-0.955716300000001,0.8351307,-1.025677,1.012857,0.01196939,-0.1663429,-38.84966,-23.87562,39.9852
16.08604908,-0.6480501,1.250597,-0.903735200000002,1.008586,0.006150202,-0.1558053,-38.84966,-23.87562,39.9852
16.096047401,-0.5249836,1.488007,-0.7817937,1.009981,0.00948723,-0.1658587,-39.21485,-24.26206,39.59744
16.106044769,-0.2788507,1.369302,-0.8427644,1.008972,0.01145931,-0.160593,-39.21485,-24.26206,39.59744
16.116042137,-0.2788507,1.369302,-0.659852100000001,1.008961,0.01190118,-0.1653789,-39.21485,-24.26206,39.59744
16.126039982,0.0903486900000002,1.784769,-0.720822899999998,1.006598,0.007940633,-0.1682452,-39.21485,-24.26206,39.59744
16.136037827,0.02881546,1.606712,-0.4769399,1.007103,0.006983125,-0.1677673,-38.84011,-24.25924,39.60022
16.146035194,0.5826145,1.725416,-0.598881400000002,1.006141,0.006565898,-0.158194,-38.84011,-24.25924,39.60022
16.156033039,0.705681,1.784769,-0.598881400000002,1.003648,0.009348954,-0.1672833,-38.84011,-24.25924,39.60022
16.166030407,0.8287475,1.962826,-0.4159691,1.006643,0.005516216,-0.1677661,-38.84011,-24.25924,39.60022
16.176028252,0.3980148,1.962826,-0.3549984,1.002149,0.01124118,-0.1696741,-38.84011,-24.25924,39.60022
16.18602562,0.3364816,2.081531,-0.3549984,1.000222,0.01031456,-0.1605775,-39.5896,-24.26487,39.59466
16.196023941,0.1518819,2.022178,-0.3549984,1.000827,0.003987338,-0.1629698,-39.5896,-24.26487,39.59466
16.206021309,0.1518819,2.081531,-0.1720861,1.000257,0.00832323,-0.1658414,-39.5896,-24.26487,39.59466
16.216019154,0.02881546,1.962826,-0.1111153,0.9992657,0.009323788,-0.1605756,-39.5896,-24.26487,39.59466
16.226016522,0.0903486900000002,1.903473,0.0717969800000001,1.000286,0.006927395,-0.159141,-39.5896,-24.26487,39.59466
16.236014366,-0.2173175,1.784769,0.0717969800000001,0.9974074,0.004392563,-0.1643997,-38.46368,-24.2597,39.216
16.246011734,-0.0942510000000003,1.428654,0.2547093,1.001269,0.006438936,-0.1615355,-38.46368,-24.2597,39.216
16.256009579,0.02881546,1.369302,0.1937385,1.000275,0.007338541,-0.1672769,-38.46368,-24.2597,39.216
16.266006947,0.0903486900000002,1.131893,0.1327677,1.000681,0.01175513,-0.1634501,-38.46368,-24.2597,39.216
16.276004791,0.2134152,1.07254,0.2547093,1.004538,0.0136786,-0.173986,-38.46368,-24.2597,39.216
16.286002159,0.1518819,0.894483100000001,0.31568,1.003556,0.01417584,-0.1706344,-38.84011,-24.25924,39.60022
16.296000004,0.2134152,0.657073599999999,0.31568,1.003583,0.01272295,-0.1701555,-38.84011,-24.25924,39.60022
16.305997372,0.2134152,0.4790165,0.31568,1.006058,0.01090703,-0.161545,-38.84011,-24.25924,39.60022
16.315995693,0.3364816,0.597721199999998,0.1937385,1.005542,0.01232835,-0.1644159,-38.84011,-24.25924,39.60022
16.325993061,0.3980148,0.4196641,0.31568,1.003153,0.009860205,-0.163454,-38.84011,-24.25924,39.60022
16.335990906,0.644147799999998,0.3009594,0.3766508,0.9967747,0.01216829,-0.1629649,-38.84011,-24.25924,39.60022
16.345988274,0.644147799999998,0.1822547,0.4376215,0.9968477,0.008282198,-0.162964,-38.84011,-24.25924,39.60022
16.355986118,0.8287475,0.004197581,0.4376215,1.000598,0.01610065,-0.1663226,-38.84011,-24.25924,39.60022
16.365983486,0.5210813,0.06354995,0.4985923,0.9986564,0.01551494,-0.1730191,-38.84011,-24.25924,39.60022
16.375981331,0.2134152,0.1229023,0.31568,1.000138,0.01463374,-0.1663214,-38.84011,-24.25924,39.60022
16.385978699,-0.03271778,0.06354995,0.4376215,1.000535,0.01954487,-0.1615376,-38.85414,-23.5018,39.20916
16.395976544,-0.1557842,-0.05515479,0.4376215,1.004606,0.01039678,-0.1610637,-38.85414,-23.5018,39.20916
16.405973911,-0.2788507,0.06354995,0.5595631,0.9991297,0.01663654,-0.1577058,-38.85414,-23.5018,39.20916
16.415972233,-0.0942510000000003,-0.05515479,0.31568,1.004056,0.01383138,-0.1562779,-38.85414,-23.5018,39.20916
16.425969124,-0.2173175,-0.1738595,0.4376215,1.005443,0.01770684,-0.1605885,-38.85414,-23.5018,39.20916
16.435967445,-0.1557842,-0.1738595,0.4376215,1.002997,0.01810937,-0.164413,-39.22272,-23.8817,39.59541
16.445964813,-0.03271778,-0.2925643,0.2547093,1.007832,0.02014426,-0.1649005,-39.22272,-23.8817,39.59541
16.455962658,-0.1557842,-0.411269,0.2547093,1.004956,0.01767966,-0.162502,-39.22272,-23.8817,39.59541
16.465960026,-0.03271778,-0.411269,0.2547093,1.008917,0.01439143,-0.1586794,-39.22272,-23.8817,39.59541
16.475957871,0.0903486900000002,-0.411269,0.0717969800000001,1.008863,0.01733234,-0.1558086,-39.22272,-23.8817,39.59541
16.485955238,0.1518819,-0.4706214,0.0717969800000001,1.003054,0.01526064,-0.1572337,-39.21146,-24.26859,38.82344
16.495953083,0.4595481,-0.2332119,-0.2330568,1.000587,0.01655129,-0.1701513,-39.21146,-24.26859,38.82344
16.505950451,0.5210813,-0.2332119,-0.05014454,0.9975956,0.02049815,-0.1572255,-39.21146,-24.26859,38.82344
16.515948296,0.5826145,-0.2925643,0.01082622,1.003054,0.01526503,-0.1567551,-39.21146,-24.26859,38.82344
16.525945664,0.1518819,-0.3519166,-0.05014454,1.007952,0.01386887,-0.1605919,-39.21146,-24.26859,38.82344
16.535943985,-0.03271778,-0.2332119,-0.05014454,1.006998,0.01293955,-0.1538899,-38.84798,-23.87889,39.59819
16.545941353,-0.03271778,-0.3519166,-0.05014454,1.003036,0.01622338,-0.1581911,-38.84798,-23.87889,39.59819
16.555939198,-0.4019172,-0.05515479,-0.2330568,1.003513,0.01670999,-0.1591492,-38.84798,-23.87889,39.59819
16.565936566,-0.1557842,-0.05515479,-0.1720861,1.004533,0.01430482,-0.1586718,-38.84798,-23.87889,39.59819
16.57593441,-0.4634504,0.004197581,-0.3549984,1.008359,0.01831618,-0.1534151,-38.84798,-23.87889,39.59819
16.585931778,-0.4019172,-0.2925643,-0.2330568,1.012761,0.01743127,-0.1534225,-38.47153,-23.87934,39.21397
16.595929623,-0.0942510000000003,-0.05515479,-0.2940276,1.015738,0.01457006,-0.1539056,-38.47153,-23.87934,39.21397
16.605926991,-0.2173175,0.1822547,-0.3549984,1.01231,0.01546544,-0.154857,-38.47153,-23.87934,39.21397
16.615924835,-0.2173175,0.3009594,-0.2940276,1.01728,0.0101788,-0.1591715,-38.47153,-23.87934,39.21397
16.625922203,0.02881546,0.4790165,-0.5379106,1.010957,0.009585484,-0.157246,-38.47153,-23.87934,39.21397
16.635920048,0.2134152,0.4790165,-0.2330568,1.011902,0.01100057,-0.1639481,-38.84628,-23.88216,39.21119
16.645917416,0.5210813,0.5383689,-0.2330568,1.013834,0.0120457,-0.1601231,-38.84628,-23.88216,39.21119
16.655915737,0.644147799999998,0.716426,-0.1720861,1.009945,0.01145661,-0.1629876,-38.84628,-23.88216,39.21119
16.665913105,0.3980148,0.775778400000001,-0.1111153,1.009893,0.01444579,-0.1548525,-38.84628,-23.88216,39.21119
16.67591095,0.5210813,0.716426,-0.1720861,1.007053,0.01003815,-0.1524536,-38.84628,-23.88216,39.21119
16.685908317,0.2749484,1.191245,-0.05014454,1.003182,0.00845559,-0.1577107,-38.83842,-24.26251,39.21322
16.695906162,0.1518819,1.191245,0.01082622,1.003246,0.005077207,-0.1553171,-38.83842,-24.26251,39.21322
16.70590353,0.4595481,1.131893,0.01082622,1.002758,0.00502808,-0.1596234,-38.83842,-24.26251,39.21322
16.715901375,0.5826145,1.30995,0.1937385,1.010108,0.002682181,-0.1663357,-38.83842,-24.26251,39.21322
16.725898743,0.4595481,1.547359,0.0717969800000001,1.022784,0.002503699,-0.1601363,-39.5896,-24.26487,39.59466
16.735896587,0.767214200000001,1.606712,0.1937385,1.027194,0.001089137,-0.1649293,-39.5896,-24.26487,39.59466
16.745893955,0.5826145,1.666064,0.4376215,1.030089,0.002590997,-0.1663705,-39.5896,-24.26487,39.59466
16.755892277,0.4595481,1.666064,0.620533899999998,1.034481,0.002178681,-0.1678138,-39.5896,-24.26487,39.59466
16.765889168,0.5210813,1.606712,0.803446099999999,1.030695,-0.00369672,-0.1644556,-39.5896,-24.26487,39.59466
16.775887489,1.013347,1.428654,0.7424754,1.02519,0.003943263,-0.1673195,-39.59915,-23.88124,39.97964
16.785884857,1.013347,1.547359,0.925387699999998,1.023315,4.501187e-05,-0.1644437,-39.59915,-23.88124,39.97964
16.795882702,1.136414,1.30995,1.169271,1.018961,-0.001441823,-0.1582143,-39.59915,-23.88124,39.97964
16.805880547,1.567146,1.488007,0.986358399999998,1.019888,0.0009579461,-0.1634808,-39.59915,-23.88124,39.97964
16.815877914,1.813279,1.428654,1.291212,1.017363,0.005820114,-0.1577348,-39.59915,-23.88124,39.97964
16.825875759,1.997879,1.547359,1.535095,1.014412,0.007206487,-0.1591657,-39.22102,-23.88497,39.20841
16.835873127,2.059412,1.428654,1.596066,1.007115,0.006585146,-0.1581957,-39.22102,-23.88497,39.20841
16.845871448,2.059412,1.666064,2.022861,0.9957651,0.0141272,-0.159135,-39.22102,-23.88497,39.20841
16.85586834,1.628679,1.666064,2.266744,0.9845902,0.01248807,-0.1548079,-39.22102,-23.88497,39.20841
16.865866661,1.013347,1.666064,2.449656,0.9739215,0.009908991,-0.1480886,-39.22102,-23.88497,39.20841
16.875864029,0.8287475,1.606712,2.69354,0.9660729,0.01266519,-0.1485542,-38.83842,-24.26251,39.21322
16.885861874,1.013347,1.547359,2.876452,0.9544368,0.00951087,-0.1494902,-38.83842,-24.26251,39.21322
16.895859241,0.705681,1.488007,2.937423,0.9467504,0.003461915,-0.1566539,-38.83842,-24.26251,39.21322
16.905857086,0.3980148,1.30995,2.815481,0.9472492,0.003064783,-0.1480403,-38.83842,-24.26251,39.21322
16.915854454,0.2749484,1.30995,2.876452,0.946731,0.004398325,-0.1604827,-38.83842,-24.26251,39.21322
16.925852299,0.5210813,1.131893,2.69354,0.9488068,-0.002377006,-0.1619203,-39.22102,-23.88497,39.20841
16.935849667,0.3364816,0.716426,2.388686,0.9459119,-0.003878865,-0.1604792,-39.22102,-23.88497,39.20841
16.945847511,0.2749484,0.1229023,2.083832,0.9439193,-0.001444662,-0.1556906,-39.22102,-23.88497,39.20841
16.955844879,0.2134152,-0.589326100000003,1.718008,0.9493117,-0.003352071,-0.1633567,-39.22102,-23.88497,39.20841
16.965843201,0.2749484,-0.886087999999999,1.352183,0.9620038,-0.004563527,-0.1638571,-39.22102,-23.88497,39.20841
16.975840092,0.2749484,-1.835726,0.925387699999998,0.9728024,-0.008719266,-0.1633963,-39.59576,-23.88778,39.20563
16.985838413,0.767214200000001,-2.42925,0.5595631,0.9840224,-0.009522111,-0.1691585,-39.59576,-23.88778,39.20563
16.995835781,1.382547,-3.319535,0.1937385,0.9868537,-0.004611144,-0.1696433,-39.59576,-23.88778,39.20563
17.005833626,1.567146,-4.387877,0.1327677,1.001882,-0.0004047676,-0.1672777,-39.59576,-23.88778,39.20563
17.015830994,1.874812,-5.45622,-0.2330568,1.001816,0.002942892,-0.1730214,-39.59576,-23.88778,39.20563
17.025828838,1.505613,-6.34650599999999,-0.1720861,1.011484,0.006986345,-0.1768679,-39.61149,-23.12707,39.20158
17.035826206,1.25948,-7.236791,-0.1111153,1.015336,0.009509699,-0.1749609,-39.61149,-23.12707,39.20158
17.045824051,1.07488,-8.245782,-0.2330568,1.02221,0.006725472,-0.1754508,-39.61149,-23.12707,39.20158
17.055821419,1.013347,-8.89865800000003,-0.1111153,1.025051,0.01115946,-0.1749783,-39.61149,-23.12707,39.20158
17.065819263,1.07488,-9.31412399999998,-0.05014454,1.024607,0.008659578,-0.1816769,-39.61149,-23.12707,39.20158
17.075816631,1.44408,-9.43282899999999,0.1327677,1.028026,0.008241183,-0.1816828,-38.85753,-23.49526,39.98317
17.085814953,1.567146,-9.373476,0.4376215,1.020168,0.01145242,-0.1854985,-38.85753,-23.49526,39.98317
17.095812321,1.690213,-9.13606700000001,0.620533899999998,1.023091,0.01152333,-0.1840679,-38.85753,-23.49526,39.98317
17.105810165,1.44408,-9.25477200000002,0.620533899999998,1.020122,0.01386806,-0.1869348,-38.85753,-23.49526,39.98317
17.115807533,1.567146,-8.83930499999998,0.864416900000002,1.018641,0.01478438,-0.1898039,-38.85753,-23.49526,39.98317
17.125805378,1.505613,-8.42383900000002,1.047329,1.018072,0.01913344,-0.1912398,-38.8637,-23.11818,39.59414
17.135802746,1.382547,-7.889668,1.047329,1.012217,0.01951249,-0.1902725,-38.8637,-23.11818,39.59414
17.145800591,0.890280700000001,-7.35549600000001,1.230241,1.01026,0.01997731,-0.1883549,-38.8637,-23.11818,39.59414
17.155798435,0.1518819,-6.94003,1.413154,1.00835,0.01805283,-0.1821296,-38.8637,-23.11818,39.59414
17.165795803,-0.2173175,-6.52456300000001,1.474125,1.007357,0.01898316,-0.184521,-38.8637,-23.11818,39.59414
17.175794125,-0.955716300000001,-6.22780099999998,1.778978,1.005512,0.0136803,-0.175902,-38.49065,-23.11209,39.98392
17.185791493,-1.509515,-5.87168699999998,1.778978,1.0054,0.01943482,-0.1840391,-38.49065,-23.11209,39.98392
17.195789337,-1.878715,-5.218811,1.839949,1.004435,0.01894297,-0.1826016,-38.49065,-23.11209,39.98392
17.205786705,-2.801713,-5.159458,1.90092,1.005556,0.01122077,-0.1792515,-38.49065,-23.11209,39.98392
17.21578455,-2.617113,-5.040754,1.839949,1.008038,0.008857634,-0.1773409,-38.49065,-23.11209,39.98392
17.225781918,-2.801713,-4.803344,1.657037,1.005098,0.009806527,-0.1735074,-38.48278,-23.49245,39.98595
17.235779762,-2.370981,-4.743992,1.352183,1.007137,0.00497863,-0.1744669,-38.48278,-23.49245,39.98595
17.24577713,-1.940248,-4.625287,0.925387699999998,1.010014,0.007443233,-0.1768654,-38.48278,-23.49245,39.98595
17.255774975,-1.263382,-4.743992,0.5595631,1.010594,0.002639135,-0.1720795,-38.48278,-23.49245,39.98595
17.265772343,-0.6480501,-4.565935,-0.1111153,1.016445,0.002163521,-0.1835753,-38.48278,-23.49245,39.98595
17.275770664,-0.2173175,-4.565935,-0.7817937,1.015085,-0.00317361,-0.179743,-38.48109,-23.49572,39.59895
17.285767555,0.1518819,-4.387877,-1.208589,1.00868,0.0006049253,-0.1778185,-38.48109,-23.49572,39.59895
17.295765877,0.5210813,-4.44723,-1.635384,1.014984,0.002165375,-0.1802228,-38.48109,-23.49572,39.59895
17.305763245,0.5826145,-4.20982,-1.940238,1.016041,-0.002178452,-0.1792663,-38.48109,-23.49572,39.59895
17.315761089,0.705681,-4.328525,-2.306063,1.009002,0.00932753,-0.1811713,-38.49432,-23.10501,40.82243
17.325758457,0.705681,-4.269173,-2.367033,1.011962,0.007481729,-0.1768688,-38.49432,-23.10501,40.82243
17.335756302,0.0903486900000002,-4.031764,-2.488975,1.008568,0.006341889,-0.1878699,-38.49432,-23.10501,40.82243
17.34575367,-0.1557842,-3.853706,-2.793829,1.00378,0.001913303,-0.1835532,-38.49432,-23.10501,40.82243
17.355751515,0.02881546,-3.319535,-2.610917,1.003772,0.002425397,-0.1806819,-38.49432,-23.10501,40.82243
17.365748882,0.02881546,-3.022773,-2.91577,1.005202,0.003788657,-0.1940848,-38.11788,-23.10547,40.4382
17.375746727,-0.1557842,-2.726011,-2.8548,0.9964446,0.003191114,-0.1873693,-38.11788,-23.10547,40.4382
17.385744095,-0.03271778,-2.42925,-2.671887,0.9983017,0.008078444,-0.188331,-38.11788,-23.10547,40.4382
17.395742416,-0.1557842,-2.073135,-2.8548,0.9989742,-0.001534985,-0.1782796,-38.11788,-23.10547,40.4382
17.405740261,0.0903486900000002,-1.360907,-2.976741,0.9983015,0.008074054,-0.1888096,-38.11788,-23.10547,40.4382
17.415737629,0.3364816,-0.826735599999998,-2.91577,0.9979435,0.001307665,-0.1840214,-38.11958,-23.1022,40.82521
17.425735474,0.4595481,-0.5299737,-2.732858,1.002777,0.003316225,-0.1873804,-38.11958,-23.1022,40.82521
17.435732842,0.705681,-0.2332119,-2.671887,1.006231,0.0009152826,-0.191693,-38.11958,-23.1022,40.82521
17.445730686,0.767214200000001,0.1822547,-2.428004,1.008529,0.008210318,-0.1960061,-38.11958,-23.1022,40.82521
17.455728054,0.644147799999998,0.4196641,-2.306063,1.004194,0.005800237,-0.1845121,-38.11958,-23.1022,40.82521
17.465725899,0.1518819,0.597721199999998,-1.940238,1.004562,0.01212915,-0.1840358,-38.12127,-23.09893,41.21221
17.475723267,-0.3403839,0.657073599999999,-1.635384,1.007999,0.01071289,-0.1869128,-38.12127,-23.09893,41.21221
17.485721588,-0.832649800000001,1.013188,-1.391501,1.008513,0.009256457,-0.1878705,-38.12127,-23.09893,41.21221
17.495718479,-0.955716300000001,1.013188,-0.903735200000002,1.009992,0.008291859,-0.1902657,-38.12127,-23.09893,41.21221
17.505716801,-0.586516899999998,1.250597,-1.086647,1.007178,0.002396202,-0.1912165,-38.12127,-23.09893,41.21221
17.515714169,-0.709583300000001,1.428654,-1.086647,1.005184,0.004786514,-0.1912136,-38.11002,-23.48582,40.44023
17.525712013,-0.6480501,1.784769,-0.903735200000002,1.000799,0.004664786,-0.1950345,-38.11002,-23.48582,40.44023
17.535709381,-0.709583300000001,1.962826,-0.903735200000002,1.002252,0.005192586,-0.1936015,-38.11002,-23.48582,40.44023
17.545707226,-0.6480501,2.140883,-0.720822899999998,1.001774,0.004723537,-0.1907291,-38.11002,-23.48582,40.44023
17.555704594,-0.7711166,2.259588,-0.659852100000001,1.002857,-0.001117076,-0.1940795,-38.11002,-23.48582,40.44023
17.565702438,-0.4634504,2.31894,-0.659852100000001,1.002298,0.002776947,-0.1921652,-37.72124,-24.24046,40.83407
17.575699806,-0.1557842,2.496997,-0.8427644,1.004788,-7.633399e-05,-0.1907331,-37.72124,-24.24046,40.83407
17.585697651,0.0903486900000002,2.734407,-0.7817937,1.002784,0.002764626,-0.1945589,-37.72124,-24.24046,40.83407
17.595695019,0.02881546,2.793759,-0.8427644,1.004236,0.003257312,-0.1969545,-37.72124,-24.24046,40.83407
17.60569334,0.02881546,3.031168,-0.903735200000002,1.010623,0.0004590753,-0.197922,-37.72124,-24.24046,40.83407
17.615691185,0.02881546,3.090521,-0.964705900000002,1.008049,0.00767543,-0.2003123,-38.10385,-23.86291,40.82926
17.625688553,-0.1557842,3.090521,-0.903735200000002,1.010154,-0.000495736,-0.1950495,-38.10385,-23.86291,40.82926
17.635686397,-0.1557842,3.090521,-1.025677,1.008161,0.001898965,-0.1945681,-38.10385,-23.86291,40.82926
17.645683765,0.1518819,3.209226,-0.8427644,1.007682,0.001394801,-0.1955243,-38.10385,-23.86291,40.82926
17.65568161,0.2749484,3.149873,-1.025677,1.002297,0.002746223,-0.1955152,-38.10385,-23.86291,40.82926
17.665678978,0.5210813,3.209226,-0.903735200000002,0.9978492,0.006068717,-0.1945512,-37.73528,-23.48301,40.44301
17.675676823,0.3980148,2.971816,-0.903735200000002,0.9974266,0.002680708,-0.1921567,-37.73528,-23.48301,40.44301
17.68567419,0.0903486900000002,2.912464,-0.720822899999998,0.9933769,0.01093189,-0.1844945,-37.73528,-23.48301,40.44301
17.695672512,0.0903486900000002,2.912464,-0.659852100000001,0.9915541,0.004026894,-0.1916682,-37.73528,-23.48301,40.44301
17.70566988,-0.0942510000000003,2.853111,-0.4769399,0.9881188,0.005473872,-0.1854411,-37.73528,-23.48301,40.44301
17.715667725,0.02881546,3.031168,-0.4159691,0.9954703,0.003167477,-0.1878462,-38.10216,-23.86618,40.44226
17.725665092,0.02881546,2.912464,-0.3549984,0.9924747,0.006995825,-0.187842,-38.10216,-23.86618,40.44226
17.735662937,0.02881546,2.615702,-0.2330568,0.9933572,0.01185952,-0.1892805,-38.10216,-23.86618,40.44226
17.745660305,-0.0942510000000003,2.971816,-0.2940276,1.001142,0.01249048,-0.1902514,-38.10216,-23.86618,40.44226
17.75565815,-0.2788507,2.971816,-0.05014454,0.9973111,0.009092167,-0.1816295,-38.10216,-23.86618,40.44226
17.765655518,-0.4019172,2.853111,0.1327677,0.9963071,0.01045559,-0.1897639,-38.11002,-23.48582,40.44023
17.775653362,-0.4634504,2.853111,0.2547093,0.9997334,0.009494375,-0.1959911,-38.11002,-23.48582,40.44023
17.78565073,-0.586516899999998,2.734407,0.3766508,1.001694,0.00914367,-0.1854657,-38.11002,-23.48582,40.44023
17.795649052,-0.4019172,2.912464,0.31568,0.9992485,0.009554977,-0.188333,-38.11002,-23.48582,40.44023
17.805645943,-0.4019172,2.853111,0.4376215,1.001171,0.01108148,-0.1849868,-38.11002,-23.48582,40.44023
17.815644264,-0.5249836,2.912464,0.31568,1.000692,0.01055537,-0.1883358,-38.10804,-23.48964,39.98873
17.825642109,-0.1557842,2.734407,0.4376215,1.000646,0.01299734,-0.1869006,-38.10804,-23.48964,39.98873
17.835639477,-0.3403839,2.734407,0.31568,0.9976968,0.01441005,-0.1854601,-38.10804,-23.48964,39.98873
17.845637321,-0.03271778,2.675054,0.31568,1.003155,0.009163763,-0.1864254,-38.10804,-23.48964,39.98873
17.855634689,0.02881546,2.496997,0.31568,0.9958296,0.00997337,-0.1883272,-38.10804,-23.48964,39.98873
17.865632534,0.0903486900000002,2.55635,0.2547093,0.9997175,0.01054051,-0.1878555,-38.10385,-23.86291,40.82926
17.875629902,0.2134152,2.437645,0.1937385,0.9910509,0.005054631,-0.184489,-38.10385,-23.86291,40.82926
17.885628223,-0.0942510000000003,2.437645,0.1327677,0.9957671,0.01341759,-0.1835422,-38.10385,-23.86291,40.82926
17.895625114,-0.4634504,2.081531,0.2547093,1.000187,0.01154799,-0.1849852,-38.10385,-23.86291,40.82926
17.905623436,-0.4634504,2.259588,0.1327677,1.003019,0.01648091,-0.1830771,-38.49262,-23.10828,40.43542
17.915620804,-0.7711166,2.259588,0.0717969800000001,1.004986,0.01556105,-0.1816445,-38.49262,-23.10828,40.43542
17.925618649,-0.709583300000001,2.022178,0.1937385,0.9996895,0.01197585,-0.1902487,-38.49262,-23.10828,40.43542
17.935616016,-0.709583300000001,2.140883,0.0717969800000001,1.003037,0.01549622,-0.1845126,-38.49262,-23.10828,40.43542
17.945613861,-0.709583300000001,2.022178,0.0717969800000001,0.9997184,0.01056685,-0.1849841,-38.49262,-23.10828,40.43542
17.955611229,-0.894183000000003,1.962826,-0.1111153,1.004112,0.01019404,-0.1821202,-38.4752,-23.87226,40.05247
17.965609074,-0.955716300000001,1.962826,-0.2940276,1.006989,0.01267181,-0.183083,-38.4752,-23.87226,40.05247
17.975606441,-0.6480501,2.022178,-0.2330568,0.9997014,0.01157787,-0.1806771,-38.4752,-23.87226,40.05247
17.985604286,-0.4019172,1.962826,-0.2330568,1.003157,0.0092296,-0.1792468,-38.4752,-23.87226,40.05247
17.995602608,-0.3403839,1.844121,-0.3549984,0.99881,0.007208719,-0.1782816,-38.4752,-23.87226,40.05247
18.005599976,-0.1557842,1.784769,-0.4159691,1.00415,0.008277324,-0.1792483,-38.10046,-23.86945,40.05526
18.01559782,0.02881546,1.784769,-0.5379106,0.9982698,0.01016633,-0.1725385,-38.10046,-23.86945,40.05526
18.025595188,0.02881546,1.725416,-0.4159691,0.9977438,0.01202514,-0.1806738,-38.10046,-23.86945,40.05526
18.035593033,-0.0942510000000003,1.666064,-0.3549984,0.9992604,0.009156999,-0.1787614,-38.10046,-23.86945,40.05526
18.045590401,-0.2788507,1.606712,-0.4769399,0.9987917,0.008180241,-0.1782818,-38.10046,-23.86945,40.05526
18.055588245,-0.2173175,1.666064,-0.4159691,1.00065,0.01310268,-0.1754148,-38.84011,-24.25924,39.60022
18.065585613,-0.2173175,1.488007,-0.3549984,1.004629,0.008834159,-0.1725492,-38.84011,-24.25924,39.60022
18.075583458,-0.03271778,1.606712,-0.4159691,0.9992142,0.01156825,-0.1806763,-38.84011,-24.25924,39.60022
18.085580826,0.2134152,1.725416,-0.5379106,1.000741,0.008249461,-0.1749352,-38.84011,-24.25924,39.60022
18.095579147,0.3980148,1.547359,-0.659852100000001,1.000823,0.003860052,-0.1768485,-38.84011,-24.25924,39.60022
18.105576038,0.3980148,1.725416,-0.5379106,1.005687,0.00450789,-0.1696785,-38.48306,-23.49191,40.05045
18.11557436,0.5210813,1.547359,-0.4769399,1.001707,0.008772028,-0.1730227,-38.48306,-23.49191,40.05045
18.125571728,0.8287475,1.606712,-0.659852100000001,1.001099,0.01500268,-0.181159,-38.48306,-23.49191,40.05045
18.135569572,0.705681,1.725416,-0.598881400000002,1.004655,0.007302259,-0.1806847,-38.48306,-23.49191,40.05045
18.145567417,0.8287475,1.666064,-0.7817937,1.006991,0.01274203,-0.1754258,-38.48306,-23.49191,40.05045
18.155564785,0.890280700000001,1.844121,-0.659852100000001,1.002728,0.006388802,-0.1701524,-38.85781,-23.49472,40.04767
18.16556263,1.197947,1.962826,-0.4769399,1.00178,0.004885936,-0.1730218,-38.85781,-23.49472,40.04767
18.175559998,1.382547,1.606712,-0.659852100000001,1.005189,0.004931357,-0.1754206,-38.85781,-23.49472,40.04767
18.185558319,1.382547,1.666064,-0.5379106,1.006072,0.009799439,-0.1763806,-38.85781,-23.49472,40.04767
18.19555521,1.382547,1.606712,-0.659852100000001,1.002157,0.01072469,-0.173024,-38.85781,-23.49472,40.04767
18.205553532,1.25948,1.488007,-0.720822899999998,0.9948503,0.01056717,-0.1744469,-38.84798,-23.87889,39.59819
18.2155509,1.07488,1.725416,-0.4769399,1.002619,0.01223988,-0.1677608,-38.84798,-23.87889,39.59819
18.225548744,0.890280700000001,1.369302,-0.598881400000002,1.004071,0.01275891,-0.1672849,-38.84798,-23.87889,39.59819
18.235546112,0.8287475,1.488007,-0.5379106,0.9991817,0.01363419,-0.1672766,-38.84798,-23.87889,39.59819
18.245543957,0.767214200000001,1.428654,-0.4159691,0.9977483,0.01216559,-0.1653594,-38.84798,-23.87889,39.59819
18.255541325,0.5210813,1.488007,-0.3549984,1.000578,0.01702389,-0.1715871,-38.85583,-23.49853,39.59617
18.265539169,0.3364816,1.131893,-0.4159691,0.9957626,0.01404819,-0.1677493,-38.85583,-23.49853,39.59617
18.275536537,0.0903486900000002,1.191245,-0.1720861,1.005091,0.01034057,-0.1682432,-38.85583,-23.49853,39.59617
18.285534382,-0.03271778,1.250597,-0.1111153,0.9992617,0.009196501,-0.1744543,-38.85583,-23.49853,39.59617
18.295532703,0.02881546,1.369302,-0.1111153,1.0027,0.007837308,-0.1711099,-38.85583,-23.49853,39.59617
18.305530071,-0.2173175,1.369302,-0.1720861,0.9992621,0.009209669,-0.1730185,-38.8637,-23.11818,39.59414
18.315527916,0.0903486900000002,1.131893,0.1327677,1.006137,0.006451779,-0.1706369,-38.8637,-23.11818,39.59414
18.325525284,0.2749484,1.07254,0.0717969800000001,1.000815,0.004389705,-0.1720629,-38.8637,-23.11818,39.59414
18.335523129,0.2134152,1.191245,0.0717969800000001,1.001671,0.01072824,-0.1715874,-38.8637,-23.11818,39.59414
18.345520496,0.1518819,0.953835399999999,0.31568,1.004548,0.01321479,-0.1715931,-38.8637,-23.11818,39.59414
18.355518341,-0.0942510000000003,1.131893,0.2547093,1.002582,0.01419171,-0.1668041,-38.85583,-23.49853,39.59617
18.365515709,-0.4634504,1.07254,0.2547093,1.008968,0.01134958,-0.1725574,-38.85583,-23.49853,39.59617
18.375513554,-0.4019172,1.013188,0.3766508,1.010981,0.007996524,-0.1716029,-38.85583,-23.49853,39.59617
18.385510922,-0.4019172,1.191245,0.31568,0.9972502,0.01258467,-0.1715802,-38.85583,-23.49853,39.59617
18.395509243,-0.2788507,1.250597,0.31568,1.001284,0.005362074,-0.1730211,-38.85583,-23.49853,39.59617
18.405506611,-0.2788507,1.131893,0.3766508,0.9992827,0.008312762,-0.1648825,-38.85583,-23.49853,39.59617
18.415504456,-0.3403839,1.191245,0.31568,0.9983062,0.008218898,-0.1730166,-38.85583,-23.49853,39.59617
18.4255023,-0.4634504,1.131893,0.1937385,0.997279,0.01117128,-0.1667941,-38.85583,-23.49853,39.59617
18.435499668,-0.5249836,1.131893,0.2547093,1.001708,0.008815919,-0.1682369,-38.85583,-23.49853,39.59617
18.445497513,-0.1557842,0.953835399999999,0.31568,1.003656,0.008836858,-0.1701546,-38.85583,-23.49853,39.59617
18.455494881,0.02881546,1.013188,0.2547093,1.001194,0.01025919,-0.168715,-38.84798,-23.87889,39.59819
18.465492725,-0.0942510000000003,1.07254,0.1327677,1.002673,0.00930776,-0.1696745,-38.84798,-23.87889,39.59819
18.475490093,-0.1557842,0.716426,0.31568,1.000329,0.004432751,-0.1663191,-38.84798,-23.87889,39.59819
18.485488415,0.02881546,0.8351307,0.1937385,0.9993082,0.00679403,-0.1715823,-38.84798,-23.87889,39.59819
18.495485306,-0.03271778,0.716426,0.1327677,1.000635,0.01418394,-0.1634507,-39.24041,-23.11718,40.04286
18.505483627,-0.1557842,0.5383689,0.2547093,1.003557,0.01421096,-0.1668058,-39.24041,-23.11718,40.04286
18.515480995,-0.4634504,0.4790165,0.1327677,1.005559,0.01131733,-0.1687229,-39.24041,-23.11718,40.04286
18.52547884,-0.2173175,0.4196641,0.4376215,1.006643,0.005507438,-0.1687233,-39.24041,-23.11718,40.04286
18.535476208,0.02881546,0.3603118,0.0717969800000001,1.00364,0.009869829,-0.1634548,-39.24041,-23.11718,40.04286
18.545474053,0.0903486900000002,0.2416071,0.1327677,1.003611,0.01127883,-0.1687195,-38.85414,-23.5018,39.20916
18.555471897,0.2134152,0.004197581,0.1327677,1.006038,0.01183466,-0.1663309,-38.85414,-23.5018,39.20916
18.565469265,0.0903486900000002,0.004197581,0.1327677,1.005543,0.01234152,-0.1629802,-38.85414,-23.5018,39.20916
18.575467587,0.1518819,0.1822547,0.01082622,1.008475,0.0119135,-0.1629852,-38.85414,-23.5018,39.20916
18.585464478,-0.03271778,0.2416071,0.0717969800000001,1.005551,0.01181187,-0.1677658,-38.85414,-23.5018,39.20916
18.595462799,-0.03271778,0.06354995,-0.1111153,1.006174,0.004513123,-0.1701579,-38.85414,-23.5018,39.20916
18.605460167,0.3364816,0.3603118,-0.1111153,1.004588,0.01137269,-0.1605854,-38.85414,-23.5018,39.20916
18.615458012,0.2749484,0.1229023,-0.05014454,0.9992828,0.008317151,-0.164404,-38.85414,-23.5018,39.20916
18.625455379,0.2134152,0.06354995,-0.2940276,1.002573,0.0146643,-0.1682399,-38.85414,-23.5018,39.20916
18.635453224,0.02881546,0.2416071,-0.1111153,1.001066,0.01707301,-0.1672808,-38.85414,-23.5018,39.20916
18.645450592,-0.0942510000000003,0.1822547,-0.1111153,1.002591,0.01367083,-0.1706326,-38.48306,-23.49191,40.05045
18.655448437,-0.2788507,0.1229023,-0.1111153,1.006091,0.008871809,-0.1715946,-38.48306,-23.49191,40.05045
18.665445805,-0.03271778,0.1822547,0.01082622,1.002133,0.01226098,-0.16441,-38.48306,-23.49191,40.05045
18.675443649,-0.1557842,0.004197581,-0.1720861,1.001636,0.01273712,-0.1644092,-38.48306,-23.49191,40.05045
18.685441971,-0.1557842,0.3603118,-0.2330568,1.003024,0.01664331,-0.1653698,-38.48306,-23.49191,40.05045
18.695439339,-0.2173175,0.004197581,-0.1111153,1.002656,0.01033195,-0.1639318,-38.84628,-23.88216,39.21119
18.705437183,-0.2173175,-0.05515479,-0.1111153,1.003079,0.01371118,-0.1672834,-38.84628,-23.88216,39.21119
18.715434551,-0.0942510000000003,-0.2332119,-0.1720861,1.008899,0.01535857,-0.1591582,-38.84628,-23.88216,39.21119
18.725432396,-0.03271778,0.004197581,-0.1111153,1.004468,0.01765248,-0.1644154,-38.84628,-23.88216,39.21119
18.735429764,-0.03271778,-0.05515479,-0.4159691,1.007086,0.007985371,-0.1644175,-38.84628,-23.88216,39.21119
18.745427608,0.2134152,0.1822547,-0.4159691,1.006497,0.01328401,-0.1682464,-39.23058,-23.50134,39.59338
18.755424976,-0.03271778,0.06354995,-0.3549984,1.004594,0.01079915,-0.1701568,-39.23058,-23.50134,39.59338
18.765422821,0.3364816,0.1229023,-0.5379106,1.008031,0.009400453,-0.1711196,-39.23058,-23.50134,39.59338
18.775420189,0.3980148,0.3603118,-0.5379106,1.006561,0.009896846,-0.1668099,-39.23058,-23.50134,39.59338
18.78541851,0.2134152,0.3009594,-0.4769399,1.008472,0.01184766,-0.1701638,-39.23058,-23.50134,39.59338
18.795415878,0.2134152,0.3009594,-0.598881400000002,1.007094,0.007460108,-0.1687246,-38.84628,-23.88216,39.21119
18.805413723,-0.03271778,0.3009594,-0.720822899999998,0.9987402,0.01119576,-0.1672752,-38.84628,-23.88216,39.21119
18.815411568,-0.0942510000000003,0.3603118,-0.4769399,0.9996417,0.01510988,-0.1663206,-38.84628,-23.88216,39.21119
18.825408936,-0.1557842,0.4790165,-0.598881400000002,0.9947996,0.01360902,-0.1605689,-38.84628,-23.88216,39.21119
18.83540678,-0.03271778,0.2416071,-0.2940276,1.000258,0.008353954,-0.1624914,-38.84628,-23.88216,39.21119
18.845404148,-0.03271778,0.3603118,-0.4159691,1.000128,0.01508878,-0.1696715,-38.47153,-23.87934,39.21397
18.855401993,-0.03271778,0.4196641,-0.5379106,1.005119,0.00890962,-0.1653714,-38.47153,-23.87934,39.21397
18.865399361,-0.03271778,0.1229023,-0.4159691,1.006507,0.01281141,-0.1668106,-38.47153,-23.87934,39.21397
18.875397682,-0.2788507,0.4790165,-0.4159691,1.0085,0.01039477,-0.1696849,-38.47153,-23.87934,39.21397
18.88539505,-0.0942510000000003,0.1229023,-0.4769399,1.007041,0.01044929,-0.1605894,-38.47153,-23.87934,39.21397
18.895392895,-0.1557842,0.2416071,-0.4159691,1.009928,0.01246763,-0.1586807,-38.84798,-23.87889,39.59819
18.905390263,-0.1557842,0.1822547,-0.4769399,1.007915,0.01579875,-0.1620281,-38.84798,-23.87889,39.59819
18.915388107,-0.2173175,0.1822547,-0.4769399,1.009008,0.009507486,-0.1615498,-38.84798,-23.87889,39.59819
18.925385952,-0.1557842,0.3603118,-0.598881400000002,1.012444,0.008095622,-0.1639483,-38.84798,-23.87889,39.59819
18.93538332,-0.0942510000000003,0.1229023,-0.3549984,1.010016,0.007509071,-0.1696868,-38.84798,-23.87889,39.59819
18.945381165,0.1518819,0.3009594,-0.4159691,1.008565,0.007033942,-0.165377,-38.85583,-23.49853,39.59617
18.955378532,0.2134152,0.4196641,-0.4159691,1.009945,0.01144344,-0.1644234,-38.85583,-23.49853,39.59617
18.965376854,0.1518819,0.657073599999999,-0.4159691,1.00898,0.01096038,-0.1620287,-38.85583,-23.49853,39.59617
18.975374222,0.1518819,0.597721199999998,-0.3549984,1.001618,0.01370864,-0.1644094,-38.85583,-23.49853,39.59617
18.985372066,-0.03271778,0.716426,-0.2940276,1.001654,0.01173927,-0.1672804,-38.85583,-23.49853,39.59617
18.995369434,-0.0942510000000003,0.775778400000001,-0.1720861,1.003079,0.01372874,-0.1653691,-39.23058,-23.50134,39.59338
19.005367279,-0.1557842,0.657073599999999,-0.3549984,1.006058,0.01090264,-0.1620236,-39.23058,-23.50134,39.59338
19.015364647,-0.0942510000000003,0.894483100000001,-0.1720861,1.000708,0.01028907,-0.164407,-39.23058,-23.50134,39.59338
19.025362492,-0.0942510000000003,0.8351307,-0.2330568,0.9978383,0.007268477,-0.1696655,-39.23058,-23.50134,39.59338
19.035360336,-0.03271778,1.013188,-0.2330568,1.003621,0.01083696,-0.1639336,-39.23058,-23.50134,39.59338
19.045357704,-0.03271778,0.894483100000001,-0.2330568,1.003135,0.01084051,-0.162497,-38.83842,-24.26251,39.21322
19.055356026,0.02881546,0.8351307,-0.1720861,0.999238,0.0107679,-0.1620116,-38.83842,-24.26251,39.21322
19.065353394,-0.4634504,0.894483100000001,-0.1111153,1.002024,0.01811207,-0.1620184,-38.83842,-24.26251,39.21322
19.075351238,-0.4634504,0.716426,-0.1720861,1.00457,0.01235738,-0.1591499,-38.83842,-24.26251,39.21322
19.085348606,-0.3403839,0.716426,-0.1720861,1.001627,0.01321849,-0.1648879,-39.23844,-23.12099,39.59136
19.095346451,-0.0942510000000003,0.775778400000001,-0.1720861,1.002206,0.008383672,-0.1634519,-39.23844,-23.12099,39.59136
19.105343819,-0.2173175,0.8351307,-0.1720861,1.008996,0.009905463,-0.1711214,-39.23844,-23.12099,39.59136
19.115341663,-0.1557842,0.8351307,-0.2330568,1.007076,0.008440408,-0.1677676,-39.23844,-23.12099,39.59136
19.125339031,-0.3403839,0.894483100000001,-0.3549984,1.014364,0.009556288,-0.1677806,-39.23844,-23.12099,39.59136
19.135336876,-0.2788507,0.716426,-0.2330568,1.011379,0.01296032,-0.1610762,-39.59157,-24.26105,40.04617
19.145335197,-0.2173175,0.597721199999998,-0.2940276,1.007536,0.009929262,-0.1653759,-39.59157,-24.26105,40.04617
19.155332565,-0.2788507,0.657073599999999,-0.3549984,1.008501,0.01043866,-0.1648992,-39.59157,-24.26105,40.04617
19.16533041,-0.2173175,0.716426,-0.4159691,1.007039,0.0103659,-0.1696824,-39.59157,-24.26105,40.04617
19.175327778,-0.03271778,0.657073599999999,-0.2330568,1.003087,0.01321664,-0.1682405,-39.59157,-24.26105,40.04617
19.185325623,-0.0942510000000003,0.597721199999998,-0.1720861,1.004632,0.008908775,-0.1644135,-39.22272,-23.8817,39.59541
19.19532299,-0.1557842,0.597721199999998,-0.1720861,0.996386,0.006753843,-0.1696628,-39.22272,-23.8817,39.59541
19.205320835,-0.2788507,0.5383689,0.01082622,0.9967932,0.01120115,-0.1624861,-39.22272,-23.8817,39.59541
19.215318203,-0.3403839,0.597721199999998,0.1327677,0.9992937,0.00788406,-0.158661,-39.22272,-23.8817,39.59541
19.225316048,-0.0942510000000003,0.3009594,0.0717969800000001,1.000266,0.007850637,-0.1644056,-39.22272,-23.8817,39.59541
19.235313416,0.02881546,0.4790165,0.1937385,1.002241,0.006392345,-0.1687158,-38.85414,-23.5018,39.20916
19.245311737,0.2749484,0.4790165,0.1327677,1.000302,0.005881256,-0.1672766,-38.85414,-23.5018,39.20916
19.255309582,0.3980148,0.3009594,0.1327677,1.008015,0.01045098,-0.1625054,-38.85414,-23.5018,39.20916
19.26530695,0.5210813,0.3603118,0.1327677,1.006508,0.01285969,-0.1615463,-38.85414,-23.5018,39.20916
19.275304794,0.2134152,0.1229023,0.1937385,1.007915,0.01580313,-0.1615495,-38.85414,-23.5018,39.20916
19.285302162,0.3364816,0.004197581,0.2547093,1.007038,0.01035273,-0.1711181,-38.85583,-23.49853,39.59617
19.295300007,0.2134152,0.1229023,0.2547093,1.006462,0.01527972,-0.162504,-38.85583,-23.49853,39.59617
19.305297375,-0.0942510000000003,-0.05515479,0.1937385,1.00602,0.01281935,-0.1648954,-38.85583,-23.49853,39.59617
19.315295219,-0.0942510000000003,-0.1145072,0.31568,1.003577,0.01330966,-0.1591484,-38.85583,-23.49853,39.59617
19.325292587,-0.1557842,0.004197581,0.31568,1.003097,0.01274844,-0.166326,-38.85583,-23.49853,39.59617
19.335290432,-0.1557842,0.004197581,0.31568,1.001655,0.01178755,-0.1620161,-39.22272,-23.8817,39.59541
19.345288754,-0.1557842,0.06354995,0.31568,1.00804,0.00893225,-0.1692051,-39.22272,-23.8817,39.59541
19.355286121,-0.3403839,0.1822547,0.1327677,1.005554,0.01191721,-0.15628,-39.22272,-23.8817,39.59541
19.365283966,-0.3403839,0.004197581,0.0717969800000001,1.002225,0.007438485,-0.1605802,-39.22272,-23.8817,39.59541
19.375281334,-0.2788507,0.06354995,0.0717969800000001,1.003135,0.01086245,-0.1601042,-39.22272,-23.8817,39.59541
19.385279179,-0.0942510000000003,0.004197581,0.0717969800000001,1.002702,0.007889978,-0.165367,-39.22102,-23.88497,39.20841
19.395276547,0.0903486900000002,0.1229023,-0.1720861,1.001206,0.009878769,-0.1572291,-39.22102,-23.88497,39.20841
19.405274391,0.3980148,0.2416071,-0.1111153,1.00122,0.008775571,-0.1715861,-39.22102,-23.88497,39.20841
19.415271759,0.3364816,0.1229023,-0.1111153,1.003566,0.01372519,-0.1668057,-39.22102,-23.88497,39.20841
19.425269604,0.3364816,0.2416071,-0.2330568,1.006507,0.01280702,-0.1672892,-39.22102,-23.88497,39.20841
19.435267925,0.3980148,0.2416071,-0.2330568,1.000231,0.009828796,-0.1605774,-39.22272,-23.8817,39.59541
19.445265293,0.2749484,0.1822547,-0.1720861,1.006996,0.01288688,-0.1596328,-39.22272,-23.8817,39.59541
19.455263138,0.1518819,-0.1145072,-0.2330568,1.006583,0.009026275,-0.1558025,-39.22272,-23.8817,39.59541
19.465260506,0.0903486900000002,0.1229023,-0.1720861,1.004072,0.01278963,-0.1639349,-39.22272,-23.8817,39.59541
19.47525835,0.2749484,-0.05515479,-0.1720861,1.006986,0.01335947,-0.1610687,-39.22272,-23.8817,39.59541
19.485255718,0.2749484,0.004197581,-0.1111153,1.004046,0.01430397,-0.1577137,-38.83842,-24.26251,39.21322
19.495253563,-0.03271778,0.1229023,-0.2330568,1.003099,0.01280111,-0.1605832,-38.83842,-24.26251,39.21322
19.505250931,0.1518819,0.2416071,-0.2330568,1.000635,0.01417955,-0.1639293,-38.83842,-24.26251,39.21322
19.515248776,-0.03271778,-0.05515479,-0.1720861,1.001527,0.01856187,-0.1648891,-38.83842,-24.26251,39.21322
19.525246143,-0.1557842,0.1229023,-0.1720861,1.000186,0.01228833,-0.1572279,-38.83842,-24.26251,39.21322
19.535244465,-0.2788507,0.2416071,-0.1111153,1.005,0.01522891,-0.1648943,-38.84798,-23.87889,39.59819
19.54524231,-0.0942510000000003,0.5383689,-0.05014454,1.008978,0.01089893,-0.1687287,-38.84798,-23.87889,39.59819
19.555239678,0.2134152,0.5383689,-0.1111153,1.006563,0.00993196,-0.1629813,-38.84798,-23.87889,39.59819
19.565237522,0.0903486900000002,0.5383689,-0.05014454,1.014283,0.01395886,-0.1644316,-38.84798,-23.87889,39.59819
19.57523489,0.0903486900000002,0.657073599999999,-0.05014454,1.012327,0.01444563,-0.1601211,-38.84798,-23.87889,39.59819
19.585232735,0.3980148,0.775778400000001,-0.1111153,1.005588,0.009895156,-0.1648939,-39.22102,-23.88497,39.20841
19.595230103,0.3980148,0.8351307,-0.1111153,1.00207,0.01570082,-0.1601035,-39.22102,-23.88497,39.20841
19.605227947,0.2134152,1.013188,0.01082622,1.003613,0.01134467,-0.1615408,-39.22102,-23.88497,39.20841
19.615225315,0.1518819,0.894483100000001,-0.1111153,1.007915,0.0158163,-0.1601138,-39.22102,-23.88497,39.20841
19.625223637,0.0903486900000002,0.953835399999999,-0.1111153,1.004119,0.01040472,-0.1591486,-39.23844,-23.12099,39.59136
19.635221481,0.02881546,0.953835399999999,-0.1111153,1.006076,0.009939892,-0.1610662,-39.23844,-23.12099,39.59136
19.645218849,0.0903486900000002,0.894483100000001,-0.1111153,1.00216,0.01079053,-0.1658454,-39.23844,-23.12099,39.59136
19.655216694,0.02881546,0.953835399999999,-0.1111153,1.003127,0.01135699,-0.1591471,-39.23844,-23.12099,39.59136
19.665214062,-0.0942510000000003,0.8351307,0.0717969800000001,0.9982444,0.01168506,-0.1658388,-39.23844,-23.12099,39.59136
19.675211906,-0.3403839,0.657073599999999,-0.05014454,1.000239,0.009325478,-0.1624916,-39.59746,-23.88451,39.59264
19.685209274,-0.2788507,0.5383689,-0.1720861,1.000673,0.01228917,-0.1581859,-39.59746,-23.88451,39.59264
19.695207119,-0.3403839,0.775778400000001,0.0717969800000001,1.001663,0.01126228,-0.1663232,-39.59746,-23.88451,39.59264
19.705204487,-0.0942510000000003,0.597721199999998,-0.05014454,1.004145,0.008890372,-0.1653697,-39.59746,-23.88451,39.59264
19.715202808,0.1518819,0.597721199999998,-0.05014454,1.011076,0.003270586,-0.1572446,-39.59746,-23.88451,39.59264
19.725200653,0.0903486900000002,0.4790165,-0.05014454,1.003999,0.01666255,-0.1653715,-38.85781,-23.49472,40.04767
19.735198021,-0.0942510000000003,0.4196641,-0.05014454,1.006048,0.01136206,-0.1648951,-38.85781,-23.49472,40.04767
19.745195866,-0.03271778,0.1822547,0.01082622,1.00356,0.0143163,-0.15532,-38.85781,-23.49472,40.04767
19.755193233,0.02881546,0.3009594,-0.1111153,1.002089,0.01474685,-0.158189,-38.85781,-23.49472,40.04767
19.765191078,-0.03271778,0.1822547,0.01082622,1.000211,0.01074765,-0.1663205,-38.85781,-23.49472,40.04767
19.775188446,-0.0942510000000003,0.3009594,0.01082622,1.001179,0.01135361,-0.1553151,-39.22102,-23.88497,39.20841
19.785186291,-0.03271778,0.1822547,0.01082622,0.9997796,0.007854182,-0.162969,-39.22102,-23.88497,39.20841
19.795184612,-0.2788507,0.1822547,-0.1720861,1.005975,0.01525254,-0.1644174,-39.22102,-23.88497,39.20841
19.80518198,-0.2788507,0.3603118,0.01082622,1.002693,0.008380128,-0.1648885,-39.22102,-23.88497,39.20841
19.815179825,-0.709583300000001,0.004197581,0.01082622,1.001592,0.01520543,-0.1601026,-39.22102,-23.88497,39.20841
19.825177193,-0.586516899999998,0.06354995,0.01082622,1.002675,0.00936043,-0.1639316,-39.97668,-23.51351,38.81382
19.835175037,-0.5249836,0.06354995,0.01082622,1.007067,0.008952505,-0.1648963,-39.97668,-23.51351,38.81382
19.845172405,-0.4019172,0.1822547,-0.1111153,1.011883,0.01194136,-0.1672983,-39.97668,-23.51351,38.81382
19.85517025,-0.0942510000000003,0.1229023,-0.2940276,1.008511,0.009957287,-0.1644205,-39.97668,-23.51351,38.81382
19.865167618,0.0903486900000002,0.2416071,-0.2330568,1.007032,0.01092627,-0.1615467,-39.97668,-23.51351,38.81382
19.875165462,-0.0942510000000003,0.3009594,-0.2940276,1.006518,0.01240027,-0.1586747,-38.84011,-24.25924,39.60022
19.885163784,0.02881546,0.4196641,-0.2940276,1.007454,0.01430111,-0.1653769,-38.84011,-24.25924,39.60022
19.895161152,-0.1557842,0.3603118,-0.1111153,1.00899,0.0104834,-0.1610714,-38.84011,-24.25924,39.60022
19.905158997,-0.03271778,0.3009594,-0.2330568,1.008449,0.01341906,-0.1577212,-38.84011,-24.25924,39.60022
19.915156364,0.02881546,0.3009594,-0.2940276,1.00705,0.009954751,-0.1615465,-38.84011,-24.25924,39.60022
19.925154209,0.1518819,0.2416071,-0.2330568,1.012815,0.01449037,-0.1562933,-38.84628,-23.88216,39.21119
19.935151577,0.1518819,0.3603118,0.01082622,1.008972,0.01148564,-0.1577216,-38.84628,-23.88216,39.21119
19.945149422,0.3980148,0.3603118,-0.2330568,1.007041,0.01042735,-0.1629823,-38.84628,-23.88216,39.21119
19.95514679,0.3980148,0.1229023,-0.2940276,0.9982741,0.0103024,-0.1577027,-38.84628,-23.88216,39.21119
19.965144634,0.1518819,0.2416071,-0.1720861,1.000151,0.01427087,-0.1529212,-38.84628,-23.88216,39.21119
19.975142956,0.2749484,0.1229023,-0.05014454,1.002163,0.01088709,-0.1553167,-38.84995,-23.87507,40.0497
19.985140324,0.2749484,0.1822547,-0.1720861,1.000306,0.005999764,-0.154355,-38.84995,-23.87507,40.0497
19.995138168,0.5210813,0.2416071,-0.2940276,0.9998371,0.005027397,-0.1533968,-38.84995,-23.87507,40.0497
20.005135536,0.705681,0.2416071,-0.3549984,1.000279,0.007478994,-0.1519625,-38.84995,-23.87507,40.0497
20.015133381,0.890280700000001,0.3009594,-0.2330568,1.002658,0.01037584,-0.159146,-38.84995,-23.87507,40.0497
20.025130749,0.8287475,0.1822547,-0.3549984,1.002108,0.01378849,-0.1567531,-38.48109,-23.49572,39.59895
20.035128593,0.5826145,-0.05515479,-0.2940276,1.004532,0.01428287,-0.1610646,-38.48109,-23.49572,39.59895
20.045125961,0.5826145,0.004197581,-0.05014454,1.008998,0.009988857,-0.1620284,-38.48109,-23.49572,39.59895
20.055123806,0.4595481,0.06354995,-0.1111153,1.000277,0.007408767,-0.1596197,-38.48109,-23.49572,39.59895
20.065122128,0.3980148,0.004197581,-0.1111153,1.002658,0.01037584,-0.159146,-38.48109,-23.49572,39.59895
20.075119495,0.4595481,0.1229023,-0.2940276,1.002593,0.01374984,-0.1620183,-38.84011,-24.25924,39.60022
20.08511734,0.4595481,0.06354995,-0.2330568,1.009899,0.01388103,-0.1634668,-38.84011,-24.25924,39.60022
20.095114708,0.5210813,0.06354995,-0.05014454,1.00851,0.009935342,-0.1668133,-38.84011,-24.25924,39.60022
20.105112553,0.2749484,0.1822547,-0.3549984,1.010009,0.008056281,-0.1629869,-38.84011,-24.25924,39.60022
20.115109921,0.02881546,0.3009594,-0.2330568,1.008924,0.01382228,-0.1677722,-38.84011,-24.25924,39.60022
20.125107765,-0.4634504,0.1229023,-0.05014454,1.007861,0.01873087,-0.1601144,-38.85414,-23.5018,39.20916
20.135106087,-0.4634504,0.4196641,-0.2330568,1.010927,0.0109462,-0.167775,-38.85414,-23.5018,39.20916
20.145102978,-0.709583300000001,0.1822547,0.1327677,1.007491,0.01239318,-0.1615479,-38.85414,-23.5018,39.20916
20.155101299,-0.3403839,0.5383689,0.01082622,1.002621,0.01230133,-0.1610608,-38.85414,-23.5018,39.20916
20.165098667,-0.4019172,0.1229023,0.01082622,1.005056,0.01234945,-0.161065,-38.85414,-23.5018,39.20916
20.175096512,-0.4019172,0.1822547,0.0717969800000001,1.010433,0.01149257,-0.160117,-39.23058,-23.50134,39.59338
20.18509388,-0.2173175,0.2416071,0.01082622,1.003172,0.008910628,-0.1610609,-39.23058,-23.50134,39.59338
20.195091724,-0.1557842,0.1822547,0.01082622,1.000221,0.010297,-0.1624918,-39.23058,-23.50134,39.59338
20.205089092,0.02881546,0.3603118,-0.1111153,1.00058,0.01708973,-0.1644085,-39.23058,-23.50134,39.59338
20.215086937,-0.03271778,0.1822547,-0.1720861,1.006122,0.007524253,-0.1596299,-38.84995,-23.87507,40.0497
20.225085259,0.0903486900000002,0.1229023,-0.2330568,1.002576,0.01474331,-0.1596256,-38.84995,-23.87507,40.0497
20.23508215,0.1518819,0.3009594,-0.2330568,0.998245,0.01170262,-0.1639245,-38.84995,-23.87507,40.0497
20.245080471,0.2749484,0.004197581,-0.2940276,1.004651,0.007976755,-0.160106,-38.84995,-23.87507,40.0497
20.255077839,0.5210813,0.1822547,-0.4159691,0.9996879,0.01269863,-0.1644058,-38.84995,-23.87507,40.0497
20.265075684,0.3980148,0.06354995,-0.4159691,1.007428,0.01580229,-0.1605915,-39.98623,-23.12988,39.19879
20.275073052,0.2749484,-0.05515479,-0.2330568,1.006996,0.01289126,-0.1591543,-39.98623,-23.12988,39.19879
20.285070896,0.02881546,-0.1145072,-0.1720861,1.002126,0.01281258,-0.1572315,-39.98623,-23.12988,39.19879
20.295068741,0.02881546,-0.3519166,-0.2940276,1.004578,0.01186285,-0.1601069,-39.98623,-23.12988,39.19879
20.305066109,-0.3403839,-0.2925643,-0.2330568,1.006445,0.01627319,-0.1601113,-39.98623,-23.12988,39.19879
20.31506443,-0.4019172,-0.2925643,-0.2330568,1.008854,0.01780932,-0.1567659,-39.23058,-23.50134,39.59338
20.325061321,-0.03271778,-0.411269,-0.1720861,1.006012,0.01334461,-0.1605884,-39.23058,-23.50134,39.59338
20.335059643,0.2134152,-0.3519166,-0.4769399,1.00513,0.008489696,-0.1581927,-39.23058,-23.50134,39.59338
20.345057011,0.3364816,-0.3519166,-0.2940276,1.003091,0.01332637,-0.1562761,-39.23058,-23.50134,39.59338
20.355054855,0.02881546,-0.2332119,-0.3549984,1.000149,0.01419626,-0.161057,-39.23058,-23.50134,39.59338
20.3650527,0.02881546,-0.1145072,-0.3549984,1.001675,0.01085553,-0.1577087,-38.85583,-23.49853,39.59617
20.375050068,0.1518819,-0.1145072,-0.3549984,1.00113,0.01367269,-0.16728,-38.85583,-23.49853,39.59617
20.385047913,0.2134152,0.1822547,-0.2940276,1.00265,0.01089233,-0.1557961,-38.85583,-23.49853,39.59617
20.395045281,0.1518819,0.1229023,-0.4159691,1.00468,0.006550194,-0.1567557,-38.85583,-23.49853,39.59617
20.405043602,0.2749484,0.1822547,-0.4159691,1.000221,0.01030578,-0.1615347,-38.85583,-23.49853,39.59617
20.415040493,0.4595481,0.1822547,-0.3549984,1.003614,0.01136662,-0.159148,-38.48109,-23.49572,39.59895
20.425038815,0.4595481,0.1822547,-0.4159691,1.006941,0.01581022,-0.1586763,-38.48109,-23.49572,39.59895
20.435036183,0.0903486900000002,0.06354995,-0.3549984,1.007466,0.01389875,-0.1562839,-38.48109,-23.49572,39.59895
20.445034027,-0.03271778,0.004197581,-0.4159691,1.00752,0.01097979,-0.1567618,-38.48109,-23.49572,39.59895
20.455031872,-0.1557842,0.004197581,-0.4769399,1.004625,0.009455984,-0.1577135,-38.48109,-23.49572,39.59895
20.46502924,-0.1557842,0.06354995,-0.2940276,1.006121,0.007493529,-0.1629799,-39.60363,-23.50743,39.20361
20.475027084,-0.0942510000000003,-0.05515479,-0.2330568,1.007979,0.01241158,-0.1605916,-39.60363,-23.50743,39.20361
20.485024452,-0.03271778,-0.1145072,-0.1720861,1.009523,0.008072994,-0.1601146,-39.60363,-23.50743,39.20361
20.495022774,-0.03271778,-0.1145072,-0.05014454,1.004553,0.01336841,-0.1548429,-39.60363,-23.50743,39.20361
20.505019665,0.02881546,-0.1738595,-0.05014454,1.004172,0.007437477,-0.1648908,-39.60363,-23.50743,39.20361
20.515017986,-0.03271778,-0.05515479,-0.05014454,1.00568,0.005059489,-0.1625,-38.84459,-23.88543,38.82419
20.525015831,0.0903486900000002,0.2416071,0.0717969800000001,1.005164,0.006458867,-0.1677638,-38.84459,-23.88543,38.82419
20.535013199,0.02881546,0.1229023,0.0717969800000001,1.005128,0.008410691,-0.1668071,-38.84459,-23.88543,38.82419
20.545011044,0.3364816,0.2416071,0.01082622,1.00761,0.006060729,-0.1634607,-38.84459,-23.88543,38.82419
20.555008412,0.4595481,0.3009594,-0.1111153,1.008051,0.008499158,-0.1634621,-38.84459,-23.88543,38.82419
20.565006256,0.2749484,0.3009594,0.01082622,1.006158,0.00557243,-0.1605866,-38.85245,-23.50507,38.82216
20.575003624,0.1518819,0.4790165,0.1327677,1.004192,0.006523013,-0.1586692,-38.85245,-23.50507,38.82216
20.585001946,0.02881546,0.3603118,0.1937385,1.005605,0.008879743,-0.1696795,-38.85245,-23.50507,38.82216
20.59499979,0.0903486900000002,0.4790165,0.0717969800000001,1.006086,0.009493634,-0.1567589,-38.85245,-23.50507,38.82216
20.604997158,0.2749484,0.3603118,0.1937385,1.004155,0.008439723,-0.161541,-38.85245,-23.50507,38.82216
20.614995003,0.02881546,0.4196641,0.1327677,1.005661,0.006000287,-0.1658502,-38.8637,-23.11818,39.59414
20.624992371,0.3364816,0.3603118,0.1937385,1.003108,0.01231535,-0.160583,-38.8637,-23.11818,39.59414
20.634990215,0.2134152,0.2416071,0.1937385,1.00603,0.01235553,-0.1625025,-38.8637,-23.11818,39.59414
20.644987583,-0.0942510000000003,0.2416071,0.31568,1.003025,0.01667403,-0.1620198,-38.8637,-23.11818,39.59414
20.654985428,-0.03271778,0.3009594,0.1937385,1.001519,0.01910908,-0.1581892,-38.8637,-23.11818,39.59414
20.664983749,-0.03271778,0.2416071,0.31568,1.001629,0.01328433,-0.1577093,-39.23844,-23.12099,39.59136
20.67498064,0.02881546,0.1229023,0.2547093,1.004183,0.006999997,-0.1596264,-39.23844,-23.12099,39.59136
20.684978962,0.3364816,0.06354995,0.2547093,1.005634,0.007488296,-0.1625005,-39.23844,-23.12099,39.59136
20.69497633,0.3364816,0.3009594,0.3766508,1.001168,0.01176475,-0.163451,-39.23844,-23.12099,39.59136
20.704974174,0.5826145,0.2416071,0.0717969800000001,1.002603,0.01329919,-0.1581896,-39.23844,-23.12099,39.59136
20.714971542,0.644147799999998,0.06354995,0.01082622,1.00447,0.01770954,-0.1581939,-39.22888,-23.50461,39.20638
20.724969387,0.2134152,0.06354995,0.01082622,1.002069,0.01568326,-0.1620178,-39.22888,-23.50461,39.20638
20.734967232,0.02881546,-0.05515479,-0.1720861,1.004018,0.01573492,-0.1605855,-39.22888,-23.50461,39.20638
20.7449646,0.02881546,-0.1145072,0.01082622,1.005075,0.01138671,-0.1601077,-39.22888,-23.50461,39.20638
20.754962921,0.02881546,-0.1145072,0.01082622,1.003551,0.01478889,-0.1567559,-39.22888,-23.50461,39.20638
20.764959812,0.02881546,0.06354995,-0.1720861,1.002559,0.01575433,-0.1553186,-38.47323,-23.87608,39.60098
20.774958134,-0.03271778,0.004197581,-0.05014454,1.002162,0.01085637,-0.1586667,-38.47323,-23.87608,39.60098
20.784955502,0.02881546,-0.1738595,-0.2330568,1.007428,0.01580668,-0.1601129,-38.47323,-23.87608,39.60098
20.794953346,-0.0942510000000003,0.004197581,-0.2330568,1.004054,0.01377871,-0.1620208,-38.47323,-23.87608,39.60098
20.804951191,-0.1557842,-0.05515479,-0.2330568,1.005426,0.0187047,-0.1577173,-38.85414,-23.5018,39.20916
20.814948559,-0.0942510000000003,-0.05515479,-0.1720861,1.006022,0.01286324,-0.1601097,-38.85414,-23.5018,39.20916
20.824946403,-0.2788507,0.1229023,-0.2330568,1.00558,0.01041603,-0.1610654,-38.85414,-23.5018,39.20916
20.834943771,-0.03271778,0.2416071,-0.3549984,1.005443,0.01770245,-0.1610671,-38.85414,-23.5018,39.20916
20.844942093,0.0903486900000002,0.4790165,-0.4159691,1.008963,0.01196702,-0.1582003,-38.85414,-23.5018,39.20916
20.854938984,0.4595481,0.4790165,-0.4159691,1.002675,0.009377986,-0.1620173,-38.47323,-23.87608,39.60098
20.864937305,0.3364816,0.4196641,-0.4159691,1.004938,0.0186863,-0.1586736,-38.47323,-23.87608,39.60098
20.87493515,0.0903486900000002,0.5383689,-0.5379106,1.004074,0.01285108,-0.1572348,-38.47323,-23.87608,39.60098
20.884932518,-0.2173175,0.657073599999999,-0.598881400000002,1.004525,0.01481692,-0.1558004,-38.47323,-23.87608,39.60098
20.894930363,-0.1557842,0.716426,-0.5379106,1.001629,0.01329311,-0.1567521,-38.47323,-23.87608,39.60098
20.904927731,0.02881546,0.5383689,-0.5379106,1.006499,0.01334546,-0.1615464,-38.84798,-23.87889,39.59819
20.914925575,0.02881546,1.013188,-0.4159691,1.00557,0.01087985,-0.1634584,-38.84798,-23.87889,39.59819
20.924922943,0.2749484,0.8351307,-0.4769399,1.005192,0.005032307,-0.1644134,-38.84798,-23.87889,39.59819
20.934921265,0.3364816,0.597721199999998,-0.3549984,1.006041,0.01192683,-0.1562809,-38.84798,-23.87889,39.59819
20.944919109,0.02881546,0.716426,-0.4159691,1.004642,0.008458126,-0.1605847,-38.84798,-23.87889,39.59819
20.954916477,-0.0942510000000003,0.597721199999998,-0.2940276,1.003062,0.01473099,-0.1620193,-38.84798,-23.87889,39.59819
20.964914322,-0.2173175,0.4790165,-0.1111153,1.001683,0.01034343,-0.1605801,-38.84798,-23.87889,39.59819
20.97491169,-0.2173175,0.3603118,-0.05014454,1.003703,0.006456331,-0.1648898,-38.84798,-23.87889,39.59819
20.984909534,-0.0942510000000003,0.06354995,0.01082622,1.001766,0.006002302,-0.1572291,-38.84798,-23.87889,39.59819
20.994906902,0.1518819,0.2416071,0.01082622,1.005626,0.008004781,-0.1591506,-38.84798,-23.87889,39.59819
21.004904747,-0.03271778,0.06354995,-0.1111153,1.005671,0.005540861,-0.1629787,-38.47771,-23.50226,38.82494
21.014903069,0.0903486900000002,0.1822547,-0.1111153,1.001222,0.008845798,-0.1639289,-38.47771,-23.50226,38.82494
21.024900436,0.1518819,0.1229023,-0.1720861,1.005154,0.006940241,-0.1682425,-38.47771,-23.50226,38.82494
21.034898281,0.1518819,0.1229023,-0.2940276,1.005219,0.003553079,-0.166806,-38.47771,-23.50226,38.82494
21.044895649,0.2134152,0.1229023,-0.2330568,1.000285,0.006892282,-0.1629696,-38.47771,-23.50226,38.82494
21.054893494,0.1518819,-0.05515479,-0.1111153,1.005166,0.006520316,-0.1610637,-39.22888,-23.50461,39.20638
21.064890862,-0.03271778,0.1822547,-0.2330568,1.00613,0.007007768,-0.1629798,-39.22888,-23.50461,39.20638
21.074888706,0.2134152,0.1822547,-0.1720861,1.007556,0.009023578,-0.1581971,-39.22888,-23.50461,39.20638
21.084887028,0.1518819,0.004197581,-0.1720861,0.9997717,0.008379445,-0.1586619,-39.22888,-23.50461,39.20638
21.094883919,0.2134152,0.06354995,0.01082622,1.003631,0.01036437,-0.1624978,-39.22888,-23.50461,39.20638
21.10488224,0.0903486900000002,0.2416071,-0.1720861,1.004624,0.009416481,-0.1620207,-39.22888,-23.50461,39.20638
21.114879608,0.0903486900000002,0.06354995,0.0717969800000001,1.008401,0.01577326,-0.1658575,-39.22888,-23.50461,39.20638
21.124877453,0.2134152,0.1229023,0.1327677,1.005554,0.01190843,-0.1572372,-39.22888,-23.50461,39.20638
21.134874821,0.2134152,0.3603118,0.1327677,1.00456,0.01281242,-0.1625,-39.22888,-23.50461,39.20638
21.144872665,0.2134152,0.004197581,0.1937385,1.003633,0.0104346,-0.1548406,-39.22888,-23.50461,39.20638
21.15487051,0.2134152,0.004197581,-0.05014454,1.007473,0.01335154,-0.1629838,-38.85414,-23.5018,39.20916
21.164867878,0.3980148,0.2416071,0.0717969800000001,1.003594,0.01230302,-0.1629768,-38.85414,-23.5018,39.20916
21.1748662,0.2749484,0.1822547,-0.05014454,1.007528,0.01044136,-0.1625046,-38.85414,-23.5018,39.20916
21.184863091,0.2134152,0.1229023,-0.05014454,1.004634,0.008961445,-0.1586706,-38.85414,-23.5018,39.20916
21.194861412,0.2134152,0.1229023,0.1327677,1.00015,0.01422698,-0.1577069,-38.85414,-23.5018,39.20916
21.204859257,-0.03271778,0.3009594,0.1327677,1.000645,0.01372012,-0.1610577,-39.9722,-23.88733,39.58985
21.214856625,-0.03271778,0.06354995,0.0717969800000001,1.004056,0.0138226,-0.1572351,-39.9722,-23.88733,39.58985
21.224854469,-0.1557842,0.06354995,0.0717969800000001,1.000205,0.01132558,-0.1562705,-39.9722,-23.88733,39.58985
21.234851837,-0.03271778,0.06354995,0.1937385,1.005002,0.01529474,-0.1577157,-39.9722,-23.88733,39.58985
21.244849682,0.02881546,0.1229023,-0.05014454,1.005554,0.01191282,-0.1567586,-39.9722,-23.88733,39.58985
21.25484705,0.1518819,0.06354995,-0.1720861,1.007924,0.01533054,-0.1601136,-39.22102,-23.88497,39.20841
21.264844894,0.1518819,0.3009594,-0.2330568,1.009937,0.01197748,-0.1591592,-39.22102,-23.88497,39.20841
21.274843216,-0.03271778,0.1229023,-0.2940276,1.006526,0.01187939,-0.1625032,-39.22102,-23.88497,39.20841
21.284840584,0.1518819,0.3603118,-0.1720861,1.007557,0.009054302,-0.1548471,-39.22102,-23.88497,39.20841
21.294838429,0.02881546,0.3603118,-0.2330568,1.008026,0.0100135,-0.157241,-39.22102,-23.88497,39.20841
21.304835796,0.1518819,0.1822547,-0.1111153,1.008412,0.01534455,-0.1596359,-38.83842,-24.26251,39.21322
21.314833641,0.0903486900000002,0.2416071,-0.2330568,1.005048,0.01285277,-0.1591509,-38.83842,-24.26251,39.21322
21.324831009,0.0903486900000002,0.1229023,-0.1720861,1.005093,0.01042835,-0.1586717,-38.83842,-24.26251,39.21322
21.334828854,0.1518819,0.4790165,-0.1111153,1.001583,0.01570875,-0.1581884,-38.83842,-24.26251,39.21322
21.344827175,0.1518819,0.1229023,-0.2940276,1.00071,0.01035929,-0.1567498,-38.83842,-24.26251,39.21322
21.354824066,0.02881546,0.1822547,-0.05014454,1.005598,0.009426952,-0.1629795,-38.84459,-23.88543,38.82419
21.364822388,0.1518819,0.06354995,-0.2940276,1.003246,0.005072817,-0.1557957,-38.84459,-23.88543,38.82419
21.374819756,0.2134152,0.1229023,-0.2330568,1.000791,0.005956719,-0.1600988,-38.84459,-23.88543,38.82419
21.3848176,0.5210813,-0.1738595,-0.3549984,1.007537,0.009964376,-0.1615473,-38.84459,-23.88543,38.82419
21.394814968,0.4595481,-0.2332119,-0.2330568,1.006041,0.01194,-0.1548451,-38.84459,-23.88543,38.82419
21.404812813,0.1518819,-0.05515479,-0.2940276,1.001151,0.01277578,-0.159144,-38.84459,-23.88543,38.82419
21.414810658,0.1518819,-0.1738595,-0.2330568,1.001603,0.01477234,-0.1543596,-38.84459,-23.88543,38.82419
21.424808025,-0.03271778,-0.1738595,-0.2330568,1.005562,0.01141389,-0.1581942,-38.84459,-23.88543,38.82419
21.434806347,0.1518819,0.004197581,-0.2330568,1.007003,0.01235283,-0.164897,-38.84459,-23.88543,38.82419
21.444803238,0.2134152,0.1229023,-0.2330568,1.011894,0.01152144,-0.1601196,-39.23058,-23.50134,39.59338
21.45480156,0.0903486900000002,0.3009594,-0.1111153,1.007517,0.01086567,-0.1692047,-39.23058,-23.50134,39.59338
21.464799404,0.0903486900000002,0.3009594,-0.1111153,1.009908,0.01337771,-0.165381,-39.23058,-23.50134,39.59338
21.474796772,0.02881546,0.5383689,-0.1111153,1.006951,0.01534641,-0.1562833,-39.23058,-23.50134,39.59338
21.484794617,-0.03271778,0.5383689,-0.1720861,1.008528,0.00896382,-0.1668131,-39.23058,-23.50134,39.59338
21.494791985,-0.1557842,0.657073599999999,-0.1720861,1.003585,0.01279317,-0.1624983,-39.60979,-23.13034,38.81458
21.504789829,0.0903486900000002,0.8351307,-0.1720861,1.007989,0.01195216,-0.15772,-39.60979,-23.13034,38.81458
21.514788151,0.3980148,0.716426,-0.05014454,1.005535,0.01286678,-0.1586731,-39.60979,-23.13034,38.81458
21.524785519,0.02881546,0.8351307,-0.05014454,1.003025,0.01666525,-0.1629769,-39.60979,-23.13034,38.81458
21.534783363,-0.03271778,0.597721199999998,-0.05014454,1.002207,0.008418784,-0.1596233,-39.60979,-23.13034,38.81458
21.544780731,-0.3403839,0.4790165,-0.1720861,1.00411,0.01087731,-0.1605844,-39.22102,-23.88497,39.20841
21.554778576,-0.2173175,0.4196641,-0.05014454,1.004101,0.01138941,-0.1577131,-39.22102,-23.88497,39.20841
21.564775944,-0.2173175,0.4790165,0.01082622,1.000672,0.01225406,-0.1620145,-39.22102,-23.88497,39.20841
21.574773789,-0.1557842,0.3603118,-0.1720861,1.002199,0.008952828,-0.1543591,-39.22102,-23.88497,39.20841
21.58477211,-0.03271778,0.3603118,-0.1720861,1.002713,0.007478833,-0.1572311,-39.22102,-23.88497,39.20841
21.594769001,-0.2173175,0.1822547,-0.4159691,1.003045,0.0157464,-0.1572338,-39.21485,-24.26206,39.59744
21.604767323,-0.2173175,-0.05515479,-0.3549984,1.002603,0.0132948,-0.1586681,-39.21485,-24.26206,39.59744
21.61476469,-0.1557842,0.004197581,-0.4159691,1.003741,0.004561567,-0.159625,-39.21485,-24.26206,39.59744
21.624762535,-0.1557842,-0.1145072,-0.4159691,1.00265,0.01091427,-0.1534033,-39.21485,-24.26206,39.59744
21.63476038,-0.1557842,0.004197581,-0.2940276,1.002179,0.009858512,-0.161538,-39.21485,-24.26206,39.59744
21.644757748,-0.0942510000000003,-0.3519166,-0.2330568,1.000626,0.0146697,-0.1634508,-39.23058,-23.50134,39.59338
21.654755592,-0.0942510000000003,-0.2925643,-0.3549984,1.004624,0.009447206,-0.1586707,-39.23058,-23.50134,39.59338
21.66475296,-0.1557842,-0.1145072,-0.3549984,1.006159,0.005594376,-0.1581938,-39.23058,-23.50134,39.59338
21.674751282,0.02881546,-0.3519166,-0.1111153,1.006573,0.009481312,-0.1591526,-39.23058,-23.50134,39.59338
21.684748173,0.0903486900000002,-0.1738595,-0.2330568,1.005555,0.01193915,-0.1538872,-39.23058,-23.50134,39.59338
21.694746494,0.2749484,0.004197581,-0.3549984,1.004173,0.007468201,-0.1615408,-38.83672,-24.26578,38.82622
21.704744339,0.5826145,0.004197581,-0.1111153,1.006491,0.01385316,-0.1591536,-38.83672,-24.26578,38.82622
21.714741707,0.4595481,-0.1145072,-0.05014454,1.010387,0.01391699,-0.1605961,-38.83672,-24.26578,38.82622
21.724739551,0.3364816,-0.1145072,-0.1720861,1.006527,0.01191451,-0.1586746,-38.83672,-24.26578,38.82622
21.734736919,0.0903486900000002,-0.2925643,0.0717969800000001,1.003127,0.01135699,-0.1591471,-38.83672,-24.26578,38.82622
21.744734764,0.0903486900000002,-0.05515479,0.1327677,1.002144,0.01185862,-0.1553169,-39.60532,-23.50416,39.59061
21.754733086,-0.0942510000000003,-0.2925643,0.1937385,1.005544,0.01237224,-0.1596302,-39.60532,-23.50416,39.59061
21.764729977,-0.0942510000000003,-0.1145072,0.01082622,1.006039,0.01187416,-0.1620238,-39.60532,-23.50416,39.59061
21.774728298,-0.1557842,-0.1145072,0.2547093,1.006114,0.008036349,-0.1567586,-39.60532,-23.50416,39.59061
21.784725666,0.0903486900000002,-0.05515479,0.1937385,1.009404,0.01437911,-0.1610731,-39.60532,-23.50416,39.59061
21.794723511,-0.0942510000000003,0.004197581,0.1937385,1.007508,0.01136899,-0.1672906,-38.85245,-23.50507,38.82216
21.804720879,0.02881546,0.1229023,0.1327677,1.006516,0.01234321,-0.1648962,-38.85245,-23.50507,38.82216
21.814718723,0.1518819,0.1229023,0.1937385,1.008465,0.01239926,-0.1629853,-38.85245,-23.50507,38.82216
21.824716568,-0.03271778,0.3009594,0.2547093,1.009413,0.0139153,-0.1586802,-38.85245,-23.50507,38.82216
21.834713936,-0.03271778,0.3009594,0.2547093,1.010883,0.0134189,-0.1629898,-38.85245,-23.50507,38.82216
21.844712257,-0.0942510000000003,0.1822547,0.31568,1.006004,0.0138611,-0.1572385,-39.22272,-23.8817,39.59541
21.854709148,-0.0942510000000003,0.3603118,0.2547093,1.004138,0.009459527,-0.1562769,-39.22272,-23.8817,39.59541
21.86470747,0.02881546,0.1822547,0.0717969800000001,1.006122,0.007533032,-0.1586728,-39.22272,-23.8817,39.59541
21.874705315,-0.03271778,0.4196641,0.2547093,1.002171,0.01038378,-0.1572309,-39.22272,-23.8817,39.59541
21.884702682,-0.0942510000000003,0.2416071,0.1937385,1.000205,0.01133875,-0.1548348,-39.22272,-23.8817,39.59541
21.894700527,-0.03271778,0.3603118,0.0717969800000001,1.002108,0.01380166,-0.1553174,-38.85245,-23.50507,38.82216
21.904697895,-0.2173175,0.1229023,0.0717969800000001,0.9967961,0.01129333,-0.152436,-38.85245,-23.50507,38.82216
21.91469574,-0.2173175,0.06354995,-0.05014454,0.9954172,0.006901383,-0.1514753,-38.85245,-23.50507,38.82216
21.924694061,0.0903486900000002,0.2416071,-0.2940276,1.000765,0.007466673,-0.1543562,-38.85245,-23.50507,38.82216
21.934691429,0.0903486900000002,0.06354995,-0.3549984,0.9983305,0.00743611,-0.1524377,-38.85245,-23.50507,38.82216
21.944689274,0.4595481,0.1822547,-0.598881400000002,1.003642,0.009944445,-0.155319,-38.85245,-23.50507,38.82216
21.954686642,0.705681,0.2416071,-0.7817937,0.9983839,0.004482039,-0.1567442,-38.85245,-23.50507,38.82216
21.964684486,0.767214200000001,0.4196641,-0.720822899999998,1.004128,0.009901397,-0.1610628,-38.85245,-23.50507,38.82216
21.974681854,0.951813900000003,0.06354995,-0.659852100000001,1.006979,0.01390668,-0.1543687,-38.85245,-23.50507,38.82216
21.984679699,0.767214200000001,0.1822547,-0.7817937,1.004957,0.01773672,-0.1562805,-39.23675,-23.12426,39.20435
21.99467802,0.644147799999998,0.1229023,-0.5379106,1.005904,0.01921764,-0.1558039,-39.23675,-23.12426,39.20435
22.004674912,0.2134152,0.1229023,-0.3549984,1.005931,0.01773841,-0.1581965,-39.23675,-23.12426,39.20435
22.014673233,0.1518819,0.06354995,-0.598881400000002,1.009361,0.01689131,-0.1519808,-39.23675,-23.12426,39.20435
22.024670601,0.0903486900000002,-0.05515479,-0.2940276,1.00798,0.01245109,-0.1562844,-39.23675,-23.12426,39.20435
22.034668446,0.3364816,-0.1145072,-0.1111153,1.006032,0.01243015,-0.1543667,-39.23086,-23.5008,39.65788
22.04466629,0.2749484,-0.1145072,-0.05014454,1.005958,0.01626357,-0.1601105,-39.23086,-23.5008,39.65788
22.054663658,-0.03271778,0.004197581,0.01082622,1.008925,0.01384861,-0.1649008,-39.23086,-23.5008,39.65788
22.064661503,-0.1557842,0.1229023,0.0717969800000001,1.006021,0.01285446,-0.1610668,-39.23086,-23.5008,39.65788
22.074658871,-0.2788507,0.2416071,0.2547093,1.004073,0.01280719,-0.1620206,-39.23086,-23.5008,39.65788
22.084657192,-0.03271778,0.2416071,0.1327677,1.006581,0.008977994,-0.1610668,-39.223,-23.88116,39.65991
22.094655037,0.1518819,0.3009594,0.0717969800000001,1.004155,0.008439723,-0.161541,-39.223,-23.88116,39.65991
22.104652405,0.2749484,0.5383689,0.31568,1.003714,0.00602763,-0.1586682,-39.223,-23.88116,39.65991
22.11465025,0.2749484,0.657073599999999,0.01082622,1.003136,0.01087123,-0.159147,-39.223,-23.88116,39.65991
22.124647617,0.3980148,0.597721199999998,0.01082622,1.006547,0.0109781,-0.1548458,-39.223,-23.88116,39.65991
22.134645462,0.1518819,0.775778400000001,-0.05014454,1.004912,0.02018308,-0.1543667,-39.22272,-23.8817,39.59541
22.14464283,-0.03271778,0.8351307,-0.05014454,1.00457,0.01236177,-0.1586713,-39.22272,-23.8817,39.59541
22.154640675,-0.1557842,0.8351307,-0.1111153,1.002614,0.01287488,-0.1514894,-39.22272,-23.8817,39.59541
22.164638996,-0.0942510000000003,0.4790165,-0.2330568,1.005615,0.008446651,-0.1639365,-39.22272,-23.8817,39.59541
22.174636364,-0.2173175,0.5383689,-0.1111153,1.003595,0.01233375,-0.1596268,-39.22272,-23.8817,39.59541
22.184634209,0.02881546,0.3603118,0.0717969800000001,1.00706,0.009499715,-0.1581963,-38.84628,-23.88216,39.21119
22.194631577,-0.03271778,0.4196641,-0.1720861,1.006021,0.01285446,-0.1610668,-38.84628,-23.88216,39.21119
22.204629421,-0.03271778,0.2416071,-0.2330568,1.006031,0.01238625,-0.1591524,-38.84628,-23.88216,39.21119
22.214627266,-0.0942510000000003,0.1822547,-0.2330568,1.004607,0.0104319,-0.1572352,-38.84628,-23.88216,39.21119
22.224624634,0.0903988300000002,0.2413794,-0.1109915,1.006031,0.01237748,-0.1601096,-38.84628,-23.88216,39.21119
22.234622479,0.2133131,0.3598183,-0.1717462,1.006546,0.01095615,-0.1572387,-39.22888,-23.50461,39.20638
22.244619846,0.2130452,0.2407362,-0.2932805,1.001584,0.01572192,-0.1567527,-39.22888,-23.50461,39.20638
22.254618168,0.3357087,0.4184349,-0.2319605,1.004101,0.01138502,-0.1581917,-39.22888,-23.50461,39.20638
22.264616013,0.1507647,0.1213526,-0.2315351,1.00501,0.01477387,-0.1615442,-39.22888,-23.50461,39.20638
22.27461338,0.02745093,0.1803475,-0.1702353,1.005516,0.01381197,-0.1615448,-39.22888,-23.50461,39.20638
22.284611225,0.02743577,0.2986766,-0.1700406,0.9992211,0.01178332,-0.1572261,-39.59407,-23.89105,38.81863
22.294608593,-0.1569858,0.29832,-0.04792382,1.003504,0.01719136,-0.1596279,-39.59407,-23.89105,38.81863
22.304606438,0.0892863100000001,0.1793151,0.0740587400000003,0.9972259,0.01413851,-0.1610518,-39.59407,-23.89105,38.81863
22.314604759,-0.2182987,0.3569978,0.196003,1.003632,0.01038193,-0.1605835,-39.59407,-23.89105,38.81863
22.32460165,-0.2180632,0.5346997,0.07396849,1.002117,0.01332029,-0.1548387,-39.59407,-23.89105,38.81863
22.334599972,-0.3407591,0.1781377,-0.04810422,1.003064,0.01478804,-0.1557979,-39.21146,-24.26859,38.82344
22.34459734,-0.4634169,0.2964695,0.1347344,1.005094,0.01045469,-0.1558003,-39.21146,-24.26859,38.82344
22.354595184,-0.339923,0.4741169,0.01266199,1.010488,0.008599947,-0.1577235,-39.21146,-24.26859,38.82344
22.364593029,-0.2164875,0.3548912,0.0735210999999998,1.008099,0.006149356,-0.1548472,-39.21146,-24.26859,38.82344
22.374590397,-0.03180918,0.4731315,0.0734479100000001,1.01092,0.01151097,-0.1591607,-39.21146,-24.26859,38.82344
22.384588242,0.02964804,0.175906,0.0734513799999999,1.008017,0.01051682,-0.1553268,-39.98006,-23.50697,39.58783
22.39458561,0.0295335,0.2943152,-0.1704473,1.007035,0.01101845,-0.1514966,-39.98006,-23.50697,39.58783
22.404583931,0.2141734,0.2345745,0.0735157899999999,1.009983,0.009575013,-0.1562871,-39.98006,-23.50697,39.58783
22.414580822,0.0909925300000002,0.3529287,-0.1093356,1.00741,0.01679576,-0.1581988,-39.98006,-23.50697,39.58783
22.424579144,0.02932568,0.1744096,-0.04828501,1.003191,0.007961051,-0.1586678,-39.98006,-23.50697,39.58783
22.434576988,0.2137533,0.4707846,-0.04818605,1.003147,0.01044692,-0.1524469,-39.58791,-24.26814,39.20766
22.444574356,0.0905535800000002,0.2329143,-0.04812551,1.003606,0.01189188,-0.1548409,-39.58791,-24.26814,39.20766
22.454572201,0.1519924,0.4698634,-0.1090167,1.002244,0.006484518,-0.1586658,-39.58791,-24.26814,39.20766
22.464569569,-0.0327209,0.3507736,-0.04794729,1.005139,0.007995157,-0.1591498,-39.58791,-24.26814,39.20766
22.474567413,0.2748317,0.5283156,-0.04788706,1.003136,0.01087123,-0.159147,-39.58791,-24.26814,39.20766
22.484565735,0.2746605,0.4090218,-0.1087977,1.007511,0.01146555,-0.1567619,-39.22888,-23.50461,39.20638
22.494563103,0.0897158099999998,0.3492116,-0.1086036,1.005048,0.01285277,-0.1591509,-39.22888,-23.50461,39.20638
22.504560948,0.2125343,0.4674218,-0.04757302,1.004652,0.0079987,-0.1577132,-39.22888,-23.50461,39.20638
22.514558315,-0.03378827,0.2887403,0.01341922,1.013816,0.01303478,-0.158209,-39.22888,-23.50461,39.20638
22.52455616,-0.0953177099999998,0.4662856,0.0742390500000002,1.009029,0.008636913,-0.1505423,-38.83672,-24.26578,38.82622
22.534554005,-0.03374206,0.2876988,0.2568283,1.011454,0.009104958,-0.1577253,-38.83672,-24.26578,38.82622
22.544551373,0.02783356,0.2872815,0.3173807,1.015837,0.009182792,-0.1586902,-38.83672,-24.26578,38.82622
22.554549217,0.212321,0.4056068,0.4998752,1.024262,0.001521546,-0.1644458,-38.83672,-24.26578,38.82622
22.564546585,0.5195852,0.5237275,0.499324,1.040282,0.004740531,-0.1659103,-38.83672,-24.26578,38.82622
22.574544907,0.641979699999998,0.582403399999998,0.681455899999999,1.050537,0.003437066,-0.1711921,-39.58004,-24.64849,39.20969
22.584542751,0.5182035,0.700413800000002,0.802426500000001,1.055923,0.002103203,-0.1692869,-39.58004,-24.64849,39.20969
22.594540119,0.517514,0.8182202,1.228061,1.050015,0.005423158,-0.1654488,-39.58004,-24.64849,39.20969
22.604537964,0.02473339,0.698599600000001,1.287546,1.036303,0.009039781,-0.1654259,-39.58004,-24.64849,39.20969
22.614535332,-0.2213919,0.816408200000002,1.529621,1.031084,0.001739674,-0.1553648,-39.58004,-24.64849,39.20969
22.624533176,-0.0979507599999999,1.171348,1.832381,1.031145,-0.001748439,-0.1649355,-39.60363,-23.50743,39.20361
22.634531498,0.2097225,1.585306,2.134895,1.025293,-0.001325495,-0.1591825,-39.60363,-23.50743,39.20361
22.644528389,1.070518,1.346017,2.254174,1.019501,-0.004399441,-0.1639574,-39.60363,-23.50743,39.20361
22.65452671,1.130746,1.640864,2.434102,1.01353,0.002351573,-0.1567701,-39.60363,-23.50743,39.20361
22.664524078,1.252314,1.698193,2.61388,1.013559,0.000942569,-0.1515054,-39.60363,-23.50743,39.20361
22.674521923,1.12783,1.636726,2.854365,1.010068,0.005273388,-0.148629,-39.60194,-23.5107,38.8166
22.684519768,1.187966,1.5753,2.789809,1.00344,-0.005066721,-0.1490933,-39.60194,-23.5107,38.8166
22.694517136,1.247968,1.869971,3.09091,1.003901,-0.003560311,-0.1447873,-39.60194,-23.5107,38.8166
22.70451498,1.430904,1.808307,3.208969,1.00006,-0.006512367,-0.1404727,-39.60194,-23.5107,38.8166
22.714512348,1.675143,1.983888,3.143891,0.9961444,-0.005626616,-0.1414232,-39.60194,-23.5107,38.8166
22.72451067,1.796028,2.099896,3.38371,0.9956299,-0.004178955,-0.1414227,-39.22102,-23.88497,39.20841
22.734508514,1.670783,2.275054,3.379479,0.9956132,-0.00315915,-0.1361586,-39.22102,-23.88497,39.20841
22.744505882,1.422764,2.50942,3.375235,0.9995996,-0.007996831,-0.1423858,-39.22102,-23.88497,39.20841
22.754503727,1.790118,3.099531,3.492841,0.9946755,-0.005121443,-0.1361565,-39.22102,-23.88497,39.20841
22.764501095,1.664861,3.45164,3.793097,0.9995582,-0.005431962,-0.1275506,-39.22102,-23.88497,39.20841
22.774498939,1.847254,3.862454,3.910217,0.9994582,-7.980759e-05,-0.1265946,-39.22888,-23.50461,39.20638
22.784496784,1.660372,4.45079,4.697562,1.006251,0.001534156,-0.124214,-39.22888,-23.50461,39.20638
22.794494152,1.166311,5.335132,4.874612,1.015057,-0.0002005472,-0.1204003,-39.22888,-23.50461,39.20638
22.804492474,0.920178200000001,6.28477,5.301407,1.016547,-0.0015719,-0.114181,-39.22888,-23.50461,39.20638
22.814489841,0.981711400000002,7.82793099999999,5.78917300000002,1.031715,-0.004550999,-0.1008066,-39.22888,-23.50461,39.20638
22.824487686,0.920178200000001,9.31174099999998,6.39888099999998,1.042607,-0.01349851,-0.09316605,-39.97837,-23.51024,39.20082
22.834485531,4.058373,11.74519,7.37441300000002,1.055621,-0.005238249,-0.0683049,-39.97837,-23.51024,39.20082
22.844482899,4.366039,14.29734,7.92315000000002,1.04735,-0.005852504,-0.06446172,-39.97837,-23.51024,39.20082
22.854480743,4.181439,17.14625,8.22800400000003,1.037452,-0.02344106,-0.05343269,-39.97837,-23.51024,39.20082
22.864478111,5.165971,19.81711,8.22800400000003,1.043298,-0.04894887,-0.03907903,-39.97837,-23.51024,39.20082
22.874475956,9.10409800000002,23.37825,8.53285700000001,1.061472,-0.05622891,-0.02427298,-40.34356,-23.89668,38.81307
22.884474277,12.11923,26.46457,9.630331,1.046563,-0.04032071,-0.006065193,-40.34356,-23.89668,38.81307
22.894471645,12.42689,29.13543,10.42295,1.036711,-0.03389544,0.02697207,-40.34356,-23.89668,38.81307
22.90446949,11.81156,31.74694,11.27654,1.02358,-0.03504341,0.0360882,-40.34356,-23.89668,38.81307
22.914466858,9.84249699999998,34.35844,11.88625,1.00459,-0.03522122,0.05765728,-40.34356,-23.89668,38.81307
22.924464703,8.1811,36.61383,12.6179,0.9920512,-0.04154054,0.08448102,-40.37162,-22.38179,38.03095
22.934462547,4.796772,38.75051,13.22761,0.9807152,-0.05998465,0.1113058,-40.37162,-22.38179,38.03095
22.944459915,3.012308,39.70015,13.71537,0.9664713,-0.07956336,0.1266501,-40.37162,-22.38179,38.03095
22.954458237,2.704642,40.76849,14.44702,0.9596705,-0.08065206,0.1285765,-40.37162,-22.38179,38.03095
22.964455128,1.227844,41.30267,14.75187,0.9821966,-0.0865111,0.1299745,-40.37162,-22.38179,38.03095
22.974453449,0.3663791,41.59943,14.50799,1.014673,-0.07777515,0.1117298,-41.13147,-21.63705,36.79583
22.984451294,-3.202548,41.89619,12.92275,1.057564,-0.07842943,0.1068694,-41.13147,-21.63705,36.79583
22.994448662,-7.20220899999998,41.65878,11.03266,1.077242,-0.08893313,0.0848233,-41.13147,-21.63705,36.79583
23.004446507,-8.309806,39.58145,9.38644800000002,1.088075,-0.09511092,0.07667021,-41.13147,-21.63705,36.79583
23.014443874,-5.78694400000002,37.148,8.04509200000002,1.080096,-0.08564184,0.06663159,-41.13147,-21.63705,36.79583
23.024441719,-4.679346,34.29909,7.67926699999998,1.053265,-0.03226752,0.06283601,-42.62927,-21.28539,34.71867
23.034440041,-7.817541,31.45017,7.74023800000001,1.018988,0.002507073,0.06049393,-42.62927,-21.28539,34.71867
23.044437408,-11.01727,27.53292,7.86217899999999,0.9730146,0.01122549,0.05052172,-42.62927,-21.28539,34.71867
23.054435253,-13.78626,23.02214,7.25247100000002,0.92924,0.006227461,0.02379906,-42.62927,-21.28539,34.71867
23.064432621,-14.27853,17.32431,5.667232,0.8921092,-0.04153814,-0.01776003,-42.62927,-21.28539,34.71867
23.074430466,-9.97120299999999,11.27037,3.777138,0.8895628,-0.08863362,-0.0608153,-43.38744,-20.54392,33.09654
23.08442831,-2.648749,5.394484,2.130927,0.9173522,-0.0896389,-0.07139216,-43.38744,-20.54392,33.09654
23.094425678,2.212376,-0.06593392,1.277337,0.9242617,-0.04234413,-0.0690235,-43.38744,-20.54392,33.09654
23.104423523,3.935307,-5.94181799999997,1.216366,0.9033706,0.006380242,-0.06277815,-43.38744,-20.54392,33.09654
23.114420891,2.520042,-11.8177,0.9115121,0.8606782,0.04835664,-0.05649304,-43.39977,-19.78974,32.31848
23.124419212,-1.664218,-17.931,0.667629100000001,0.8170531,0.08775333,-0.06456292,-43.39977,-19.78974,32.31848
23.134417057,-6.033077,-23.86623,-0.856639900000002,0.7715602,0.09705053,-0.06544317,-43.39977,-19.78974,32.31848
23.144414425,-10.46347,-29.80147,-3.2345,0.7361822,0.08658009,-0.07112171,-43.39977,-19.78974,32.31848
23.15441227,-13.35553,-34.90577,-5.97818400000002,0.7278482,0.06296743,-0.08450122,-43.39977,-19.78974,32.31848
23.164410114,-14.46313,-39.65396,-8.11216100000002,0.764229,0.01920672,-0.1127894,-43.04861,-18.64586,32.31518
23.174407482,-11.87873,-43.86798,-9.819342,0.7936822,-0.01882008,-0.1367597,-43.04861,-18.64586,32.31518
23.184405804,-6.95607500000003,-46.89495,-10.24614,0.7679015,-0.02205741,-0.1692571,-43.04861,-18.64586,32.31518
23.194402695,-2.156483,-49.62516,-10.49002,0.7097037,0.04088004,-0.1753934,-43.04861,-18.64586,32.31518
23.204401016,-3.448681,-52.05861,-11.22167,0.6760215,0.09619874,-0.1643416,-43.04861,-18.64586,32.31518
23.214398861,-10.3404,-54.01724,-11.83138,0.6596898,0.1358461,-0.1509233,-41.53142,-19.76533,33.55789
23.224396229,-17.41672,-56.15392,-12.07526,0.6191726,0.1136115,-0.1565898,-41.53142,-19.76533,33.55789
23.234394074,-19.50885,-58.11255,-11.64846,0.5838292,0.0747247,-0.1876256,-41.53142,-19.76533,33.55789
23.244391441,-21.29332,-59.1808900000002,-11.40458,0.6045563,0.06039805,-0.2048868,-41.53142,-19.76533,33.55789
23.254389286,-22.77011,-59.5370100000001,-11.83138,0.6699122,0.03094338,-0.2193504,-41.53142,-19.76533,33.55789
23.264387608,-22.46245,-60.5460000000002,-12.68497,0.7501804,0.01209776,-0.2218784,-40.03951,-19.74046,35.18152
23.274384975,-17.72439,-61.1988800000002,-14.27021,0.7694561,-0.002721577,-0.236744,-40.03951,-19.74046,35.18152
23.28438282,-13.78626,-62.2078699999997,-15.24574,0.7534302,-0.006142464,-0.257294,-40.03951,-19.74046,35.18152
23.294380188,-12.5556,-62.5639799999999,-16.28224,0.7316629,0.01072837,-0.2783177,-40.03951,-19.74046,35.18152
23.304378033,-14.5862,-61.5549899999998,-17.6236,0.70781,0.0091975,-0.2878473,-40.03951,-19.74046,35.18152
23.314375877,-16.49372,-60.3085900000002,-17.74554,0.6944211,0.02080078,-0.3184558,-38.53973,-20.09595,36.80718
23.324373245,-18.27819,-58.6467200000001,-18.11137,0.6734169,0.04882826,-0.3433124,-38.53973,-20.09595,36.80718
23.334371567,-17.53979,-56.56939,-18.11137,0.659847,0.04300769,-0.4189022,-38.53973,-20.09595,36.80718
23.344368458,-20.12419,-56.6881,-16.89195,0.7385921,0.07966091,-0.4070845,-38.53973,-20.09595,36.80718
23.354366779,-25.78524,-55.50105,-15.42865,0.8182,0.09490933,-0.452692,-38.53973,-20.09595,36.80718
23.364364624,-35.5075,-54.84817,-12.38011,0.8516891,0.07538857,-0.4809813,-35.97818,-20.44346,38.44072
23.374361992,-45.47588,-53.24566,-9.94128299999998,0.8718178,0.04117913,-0.4924934,-35.97818,-20.44346,38.44072
23.384359837,-49.16787,-52.11796,-8.417014,0.9158632,0.005100233,-0.4944752,-35.97818,-20.44346,38.44072
23.394357205,-47.56801,-50.63415,-6.64886199999999,0.9546574,-0.01058075,-0.486403,-35.97818,-20.44346,38.44072
23.404355049,-45.35281,-49.03164,-4.819739,0.9480278,0.005447157,-0.4729954,-35.97818,-20.44346,38.44072
23.414353371,-45.96815,-46.77625,-3.783237,0.9338988,0.0314922,-0.4638846,-33.70363,-21.93766,39.69102
23.424350739,-50.5216,-43.92733,-3.783237,0.9321263,-0.004108672,-0.4739224,-33.70363,-21.93766,39.69102
23.434348583,-46.89114,-41.7313,-5.612359,0.936853,-0.03108991,-0.8299843,-33.70363,-21.93766,39.69102
23.444345951,-30.76944,-65.4722399999999,-8.477984,0.9820574,-0.3245563,-1.399971,-33.70363,-21.93766,39.69102
23.454343796,-38.46109,-78.7671699999999,-14.81894,1.473277,-0.6974055,-0.6713821,-33.70363,-21.93766,39.69102
23.464341641,27.441,-74.0783400000002,-11.83138,1.525884,-0.7958848,-0.5015539,-32.18446,-23.06094,40.48223
23.474339008,108.2341,-67.9056900000001,-7.807307,1.281696,-0.344672,-0.2117058,-32.18446,-23.06094,40.48223
23.484336853,122.2022,-55.79781,-7.31954099999998,1.473554,0.2911271,0.03091261,-32.18446,-23.06094,40.48223
23.494335175,79.3135100000001,-47.60718,-3.417412,1.40613,0.3765671,-0.04508545,-32.18446,-23.06094,40.48223
23.504332543,39.74765,-46.06402,-0.1859615,1.27581,0.1729647,-0.3463087,-32.18446,-23.06094,40.48223
23.514330387,24.30281,-43.15575,0.1188923,1.338883,0.02715537,-0.5382902,-28.81294,-23.39855,42.5733
