Time (s),Gyroscope X (deg/s),Gyroscope Y (deg/s),Gyroscope Z (deg/s),Accelerometer X (g),Accelerometer Y (g),Accelerometer Z (g),Magnetometer X (uT),Magnetometer Y (uT),Magnetometer Z (uT)
7.650449276,31.77996,10.74698,2.266744,0.8771209,-0.5704933,-0.1716992,-54.41081,12.90164,9.03872
7.660446644,28.76484,12.05273,5.437224,0.8856468,-0.478595,-0.1310588,-54.41081,12.90164,9.03872
7.670443535,23.04224,14.60488,6.90052199999999,0.8952114,-0.4172432,-0.1382699,-54.41081,12.90164,9.03872
7.680440903,17.07352,17.45379,5.193341,0.8963535,-0.4273956,-0.1880412,-54.41081,12.90164,9.03872
7.69043827,14.91986,19.76854,2.69354,0.8840871,-0.4762989,-0.2483077,-55.13949,12.1255,7.876209
7.700435638,14.98139,21.25234,1.047329,0.8842615,-0.512685,-0.2951992,-55.13949,12.1255,7.876209
7.710433483,16.08899,20.24335,1.230241,0.8639938,-0.4984424,-0.3411108,-55.13949,12.1255,7.876209
7.720430851,15.16599,16.62286,2.632569,0.8184093,-0.4330102,-0.3673698,-55.13949,12.1255,7.876209
7.730428219,10.61253,12.17143,6.04693200000002,0.8096167,-0.3531649,-0.3319605,-55.13949,12.1255,7.876209
7.740425587,1.690213,8.076119,9.09546899999999,0.8250645,-0.2928301,-0.3037669,-55.14566,12.50259,7.487179
7.750422955,-7.90897099999997,5.464615,10.37586,0.8363888,-0.2988534,-0.2961279,-55.14566,12.50259,7.487179
7.760420322,-12.9547,3.684045,9.03449899999999,0.8323548,-0.3957714,-0.3109317,-55.14566,12.50259,7.487179
7.77041769,-10.80103,3.209226,6.65663900000001,0.8390741,-0.4944077,-0.3243182,-55.14566,12.50259,7.487179
7.780415058,-6.80137299999998,4.099511,3.425189,0.8493151,-0.5210242,-0.3343793,-55.14566,12.50259,7.487179
7.790412426,-3.786245,5.167854,0.3766508,0.8518944,-0.5544594,-0.3295894,-54.78298,13.25902,6.6474
7.800409317,-2.74018,4.930444,-0.3549984,0.8587071,-0.5794139,-0.3099733,-54.78298,13.25902,6.6474
7.810406685,-3.847778,4.277568,1.413154,0.8671392,-0.5604394,-0.2726639,-54.78298,13.25902,6.6474
7.820404053,-7.41670600000002,2.437645,4.583633,0.8619306,-0.5410203,-0.210445,-54.78298,13.25902,6.6474
7.830401897,-12.15476,0.1822547,8.48576300000002,0.8650277,-0.5229695,-0.1563759,-54.78298,13.25902,6.6474
7.840399265,-15.90829,-0.767383199999997,11.04653,0.8661869,-0.5318155,-0.1166538,-54.77512,12.87867,6.649427
7.850396633,-16.95436,-0.1738595,12.44886,0.8588318,-0.5552641,-0.1142421,-54.77512,12.87867,6.649427
7.860394001,-15.41603,1.962826,12.08304,0.846656,-0.6082758,-0.1457932,-54.77512,12.87867,6.649427
7.870391369,-10.61643,4.099511,10.37586,0.8277263,-0.7175982,-0.2093827,-54.77512,12.87867,6.649427
7.880388737,-2.74018,5.93943499999998,10.43683,0.8330531,-0.7946358,-0.2490939,-54.77512,12.87867,6.649427
7.890386105,3.597743,6.23619700000001,12.50983,0.8369408,-0.794073,-0.2491009,-55.15183,12.87967,7.098149
7.900383472,7.04360400000002,6.473606,15.55837,0.8563933,-0.7651839,-0.2142062,-55.15183,12.87967,7.098149
7.91038084,6.67440499999999,6.82971999999999,19.70438,0.8841591,-0.737426,-0.1616184,-55.15183,12.87967,7.098149
7.920377731,3.905409,7.83871000000002,24.03331,0.914526,-0.7190953,-0.1358329,-55.15183,12.87967,7.098149
7.930376053,3.659276,9.73798600000003,26.35019,0.9269102,-0.7557778,-0.1353665,-55.15183,12.87967,7.098149
7.940373421,8.45886800000002,12.29014,26.89893,0.916656,-0.8065051,-0.1338998,-54.42227,14.01928,6.259122
7.950370789,14.48913,14.48618,28.05737,0.8922743,-0.8839718,-0.1563305,-54.42227,14.01928,6.259122
7.96036768,22.42691,15.0797,29.58164,0.8699747,-0.9423667,-0.1701552,-54.42227,14.01928,6.259122
7.970365047,30.24163,15.13905,31.65465,0.8788522,-0.9728923,-0.1266124,-54.42227,14.01928,6.259122
7.980362415,33.68749,17.33509,36.3494,0.9048143,-0.979401,-0.09746288,-54.42227,14.01928,6.259122
7.990359783,31.59536,19.35307,41.71482,0.9083596,-0.9602476,-0.08311671,-54.06943,15.15989,5.868817
8.000357151,29.13403,21.78652,46.16569,0.9144517,-0.9988753,-0.06923868,-54.06943,15.15989,5.868817
8.010354519,32.27223,23.98255,49.15326,0.9186136,-1.064158,-0.04338602,-54.06943,15.15989,5.868817
8.020351887,39.71775,26.53471,51.28724,0.9026547,-1.147814,-0.01701498,-54.06943,15.15989,5.868817
8.030349255,48.1478,30.0365,54.03092,0.9257665,-1.209575,0.03416827,-54.06943,15.15989,5.868817
8.040347099,51.65519,35.08145,58.1769299999997,0.9585971,-1.243917,0.08676326,-53.71907,16.67051,4.250978
8.050344467,46.1172,39.59223,65.6763399999999,0.9846914,-1.283503,0.1120925,-53.71907,16.67051,4.250978
8.060341835,35.10276,43.39078,76.5901000000001,1.047479,-1.383285,0.1177517,-53.71907,16.67051,4.250978
8.070339203,31.4723,48.02026,86.7722199999998,1.079359,-1.498463,0.1009756,-53.71907,16.67051,4.250978
8.080336571,38.85628,52.11558,95.73492,1.099832,-1.525583,0.06696795,-51.88012,18.94273,1.4147
8.090333462,49.13233,56.3296,103.2953,1.107076,-1.496345,0.06024773,-51.88012,18.94273,1.4147
8.10033083,56.70092,60.3655600000001,109.1485,1.113842,-1.493247,0.06549947,-51.88012,18.94273,1.4147
8.110328198,62.66964,64.8763400000001,115.1236,1.124412,-1.537355,0.05496373,-51.88012,18.94273,1.4147
8.120325565,67.2231,70.5741599999999,120.55,1.14061,-1.621668,0.04634283,-51.88012,18.94273,1.4147
8.130322933,73.5610299999997,76.7467999999998,125.1228,1.115886,-1.732606,0.03110006,-50.8249,23.10131,-2.598286
8.140320301,79.7143499999999,81.9698200000001,132.1345,1.108272,-1.793831,0.04787926,-50.8249,23.10131,-2.598286
8.150318146,82.2372100000002,86.2431900000001,144.2067,1.124944,-1.720829,0.07702455,-50.8249,23.10131,-2.598286
8.160315514,82.1141400000002,89.7449700000003,154.7546,1.150515,-1.680774,0.09754843,-50.8249,23.10131,-2.598286
8.170312882,87.2214100000002,92.3564799999998,163.2905,1.165935,-1.723122,0.1094969,-50.8249,23.10131,-2.598286
8.180310249,94.4823200000001,95.7395599999999,172.0703,1.205825,-1.718586,0.1472337,-46.43382,29.4865,-8.662086
8.190307617,98.8511800000001,100.4284,180.0575,1.280601,-1.678093,0.1624073,-46.43382,29.4865,-8.662086
8.200304985,104.5122,104.9985,184.7522,1.341758,-1.691625,0.1445969,-46.43382,29.4865,-8.662086
8.210301876,109.6195,111.3492,190.1786,1.360793,-1.6675,0.1378574,-46.43382,29.4865,-8.662086
8.220299244,109.1888,115.9787,198.5316,1.403658,-1.563331,0.1176556,-46.43382,29.4865,-8.662086
8.230296612,102.8508,119.2431,207.0675,1.439473,-1.447237,0.0883702,-41.32417,34.41609,-15.03551
8.24029398,95.22073,118.887,213.6524,1.419299,-1.359295,0.07737546,-41.32417,34.41609,-15.03551
8.250291348,89.4366,116.5129,217.4935,1.353669,-1.366558,0.1157778,-41.32417,34.41609,-15.03551
8.260289192,90.4826700000001,115.2071,220.0543,1.311725,-1.415701,0.1464925,-41.32417,34.41609,-15.03551
8.27028656,98.4204499999998,115.5039,221.7005,1.30019,-1.398531,0.1359795,-41.32417,34.41609,-15.03551
8.280283928,106.0506,116.869,223.5296,1.291327,-1.368311,0.1120584,-32.74845,38.21624,-23.05438
8.290281296,112.45,119.8366,227.8586,1.26951,-1.298624,0.02162756,-32.74845,38.21624,-23.05438
8.300278664,116.2036,116.2755,231.7607,1.178686,-1.160639,-0.05003604,-32.74845,38.21624,-23.05438
8.310276032,112.7577,111.1118,235.6018,1.126989,-1.131829,-0.02937457,-32.74845,38.21624,-23.05438
8.320273399,111.404,105.1766,239.8088,1.082513,-1.097071,0.04152327,-32.74845,38.21624,-23.05438
8.330270767,111.0348,100.1316,242.6745,1.055784,-1.073879,0.08463574,-23.09694,41.2669,-30.67431
8.340267658,111.0348,99.8348800000002,244.8694,1.051178,-1.063184,0.04204775,-23.09694,41.2669,-30.67431
8.350265026,118.2342,100.7845,243.2232,1.015585,-1.012887,-0.06653992,-23.09694,41.2669,-30.67431
8.360263348,127.5872,101.7935,240.1747,0.9166579,-0.9641617,-0.2099528,-23.09694,41.2669,-30.67431
8.370260239,131.2177,97.5201300000001,239.5649,0.8513573,-0.8863179,-0.2179948,-23.09694,41.2669,-30.67431
8.380257607,126.1104,93.4248200000001,244.2597,0.8314553,-0.8106928,-0.141886,-11.09167,42.00029,-36.97458
8.390254974,118.2957,87.3708799999998,249.6251,0.7735503,-0.6832578,-0.05710992,-11.09167,42.00029,-36.97458
8.400252342,110.7886,80.7234199999999,252.2469,0.6761628,-0.5823148,-0.02059436,-11.09167,42.00029,-36.97458
8.41024971,109.7426,75.7378199999999,248.6496,0.5975807,-0.5477312,0.05179871,-11.09167,42.00029,-36.97458
8.420247078,116.3882,75.2036400000001,241.455,0.4883721,-0.5451919,0.03428112,-11.09167,42.00029,-36.97458
8.430244446,123.9567,75.61911,234.1385,0.4068399,-0.5122973,-0.01822858,0.5333023,39.82087,-42.48853
8.440241814,126.7257,75.7378199999999,228.1024,0.3518406,-0.4653512,-0.07940252,0.5333023,39.82087,-42.48853
8.450239182,127.8333,74.8475299999999,222.798,0.2965266,-0.3492015,-0.1181007,0.5333023,39.82087,-42.48853
8.460237026,124.0183,71.9392600000002,217.1887,0.1851851,-0.1808709,-0.1217785,0.5333023,39.82087,-42.48853
8.470234394,114.6652,66.83496,210.0551,0.08167151,-0.06491901,-0.0780775,0.5333023,39.82087,-42.48853
8.480231762,105.066,63.45188,202.3728,0.04074968,-0.06433453,-0.03206302,11.08531,34.91693,-46.8353
8.49022913,103.2816,63.0957600000002,194.2637,-0.00939877,-0.01406897,-0.006624007,11.08531,34.91693,-46.8353
8.500226021,103.2816,61.61195,183.4718,-0.0691162,0.07805637,-0.00606505,11.08531,34.91693,-46.8353
8.510223389,100.7587,64.0454000000002,171.0948,-0.09072511,0.164477,-0.02088549,11.08531,34.91693,-46.8353
8.520220757,100.5741,67.48784,159.7542,-0.1128861,0.4345322,-0.09318138,11.08531,34.91693,-46.8353
8.530218125,89.0058700000003,66.5381999999999,147.0113,-0.1819756,0.2702301,-0.2150555,20.25916,26.60298,-48.33646
8.540215492,75.7762200000001,63.0364100000001,135.7317,-0.2502816,0.5077752,-0.2355764,20.25916,26.60298,-48.33646
8.55021286,60.70058,58.8223999999999,122.623,-0.3226225,0.3911656,-0.183734,20.25916,26.60298,-48.33646
8.560210705,50.363,56.21089,112.5629,-0.2684592,0.4146602,-0.1230553,20.25916,26.60298,-48.33646
8.570208073,37.93328,53.54004,100.9174,-0.3256428,0.4765546,-0.08612124,20.25916,26.60298,-48.33646
8.580205441,28.1495,48.07962,88.2964900000001,-0.4011422,0.5015494,-0.05919581,26.73451,18.71971,-49.0214
8.590202809,22.98071,41.3728,76.1633099999999,-0.4331803,0.4710303,0.02031153,26.73451,18.71971,-49.0214
8.600200176,21.87311,36.68396,65.1885800000003,-0.4318984,0.4303559,0.08636327,26.73451,18.71971,-49.0214
8.610197544,21.31931,32.05448,57.6891700000002,-0.4329787,0.4370422,0.1289567,26.73451,18.71971,-49.0214
8.620194912,17.31965,26.83147,51.65306,-0.4728936,0.4596876,0.08786291,26.73451,18.71971,-49.0214
8.630191803,15.71979,18.9376,42.08065,-0.5504628,0.4644591,0.08656117,30.96954,13.05512,-47.79939
8.640189171,17.19659,12.29014,32.69115,-0.5412164,0.4659119,0.1190879,30.96954,13.05512,-47.79939
8.650186539,18.55032,6.82971999999999,22.75292,-0.5533518,0.4887824,0.0956529,30.96954,13.05512,-47.79939
8.660184383,18.73492,-1.123497,11.47333,-0.6479473,0.4659609,0.08960219,30.96954,13.05512,-47.79939
8.670181751,18.05805,-7.236791,2.571598,-0.6625008,0.4116296,0.1312777,33.64411,10.4194,-46.92722
8.680179119,15.84286,-11.56951,-5.29363,-0.6735677,0.4056551,0.1925562,33.64411,10.4194,-46.92722
8.690176487,9.68953300000002,-14.24037,-12.73206,-0.6886235,0.404435,0.2509691,33.64411,10.4194,-46.92722
8.700173855,1.567146,-14.77454,-19.13399,-0.6915206,0.3772177,0.2567241,33.64411,10.4194,-46.92722
8.710171223,-6.678307,-15.78353,-25.53592,-0.7292155,0.3603886,0.2515298,33.64411,10.4194,-46.92722
8.72016859,-12.0317,-17.02993,-33.34018,-0.7809854,0.2625494,0.2392022,33.67306,9.267982,-48.14665
8.730165958,-12.33936,-18.51374,-40.29085,-0.7807965,0.1745626,0.2353959,33.67306,9.267982,-48.14665
8.740163326,-13.75463,-19.99755,-45.29045,-0.7445005,0.1879186,0.2358078,33.67306,9.267982,-48.14665
8.750160217,-20.76942,-21.06589,-47.72928,-0.6941865,0.2338386,0.2596371,33.67306,9.267982,-48.14665
8.760158539,-33.56833,-21.77812,-48.15607,-0.6469371,0.2868292,0.2662411,33.67306,9.267982,-48.14665
8.770155907,-49.38237,-23.02452,-49.19258,-0.6183702,0.3230692,0.2881965,32.5331,10.02026,-48.15905
8.780153274,-61.50442,-24.21157,-52.78985,-0.5698975,0.2845735,0.2780718,32.5331,10.02026,-48.15905
8.790150166,-65.5040699999999,-27.00113,-58.5211100000001,-0.5582218,0.2074122,0.2641926,32.5331,10.02026,-48.15905
8.800147533,-63.5350200000001,-29.55328,-64.9230299999998,-0.5365779,0.1702864,0.2493286,32.5331,10.02026,-48.15905
8.810144901,-60.5198899999999,-33.88601,-73.7028200000002,-0.5277743,0.1684902,0.2464422,32.5331,10.02026,-48.15905
8.820142269,-57.4432299999999,-37.86261,-82.3606700000001,-0.5007958,0.1066341,0.2258324,30.9791,12.67149,-48.18436
8.830139637,-54.18196,-41.06764,-89.5552200000002,-0.4864336,0.09347721,0.1908747,30.9791,12.67149,-48.18436
8.840137005,-55.65876,-44.80684,-95.2864699999999,-0.4369664,0.1310264,0.1515355,30.9791,12.67149,-48.18436
8.850134373,-62.6735499999999,-48.96151,-99.0666600000003,-0.3657572,0.1788687,0.1279488,30.9791,12.67149,-48.18436
8.860132217,-74.1187300000002,-52.34459,-101.6884,-0.2691238,0.2232303,0.146912,30.9791,12.67149,-48.18436
8.870129585,-90.4250300000001,-55.49026,-104.7979,-0.2402007,0.1900192,0.2253566,29.0172,16.84462,-47.83357
8.880126953,-103.7162,-56.73666,-106.8099,-0.2062814,0.07078026,0.2382497,29.0172,16.84462,-47.83357
8.890124321,-109.6849,-59.7636399999998,-112.1754,-0.195951,0.01283272,0.202832,29.0172,16.84462,-47.83357
8.900121689,-107.7774,-62.7312600000001,-120.4064,-0.2091112,-0.09180478,0.1607672,29.0172,16.84462,-47.83357
8.91011858,-98.8550899999999,-64.9272999999997,-128.3936,-0.1618298,-0.1457874,0.1070982,29.0172,16.84462,-47.83357
8.920115948,-91.6557000000002,-66.6485100000002,-135.832,-0.05819761,-0.1126494,0.05282988,24.39699,22.52655,-46.67186
8.930113316,-92.3940999999998,-72.2869900000002,-141.6852,-0.03357388,-0.07639277,-0.0209231,24.39699,22.52655,-46.67186
8.940110683,-97.2552299999997,-79.76539,-147.4774,0.0152891,-0.1350666,-0.006635889,24.39699,22.52655,-46.67186
8.950108528,-99.65502,-83.7419999999999,-152.66,0.07322158,-0.1831679,0.02821156,24.39699,22.52655,-46.67186
8.960105896,-101.6856,-87.7779500000002,-159.3058,0.1133133,-0.2157039,0.05016454,24.39699,22.52655,-46.67186
8.970103264,-103.0394,-91.1016899999998,-166.6223,0.1823979,-0.261335,0.0653703,18.318,29.27538,-45.52654
8.980100632,-103.6547,-93.1790200000002,-173.0242,0.3015636,-0.3803529,0.02451424,18.318,29.27538,-45.52654
8.990098,-104.0854,-92.0513299999999,-178.9384,0.5600912,-0.3668648,0.09010358,18.318,29.27538,-45.52654
9.000095367,-113.8692,-91.3390999999998,-183.2673,0.4929225,-0.372733,0.01891435,18.318,29.27538,-45.52654
9.010092735,-130.3601,-90.6268699999998,-185.889,0.5219329,-0.3355309,-0.01416755,18.318,29.27538,-45.52654
9.020090103,-151.466,-91.0423399999998,-192.169,0.4673001,-0.4377309,-0.0719537,10.3262,34.56472,-42.83981
9.030087471,-161.8036,-94.7221799999999,-200.583,0.3860331,-0.6520088,-0.1062143,10.3262,34.56472,-42.83981
9.040084362,-158.1731,-96.20599,-208.5701,0.3836409,-0.9389537,-0.07407168,10.3262,34.56472,-42.83981
9.050082684,-144.082,-92.1700399999998,-210.7651,0.4721235,-1.161005,-0.05023995,10.3262,34.56472,-42.83981
9.060080051,-125.7451,-87.0657299999999,-207.2288,0.6202943,-1.162977,-0.05480493,10.3262,34.56472,-42.83981
9.070077419,-117.9919,-84.0981100000001,-202.8999,0.732366,-1.060892,-0.133513,0.5045605,40.24154,-37.71754
9.08007431,-123.8376,-85.5819200000003,-201.8634,0.7824144,-0.9775836,-0.2183297,0.5045605,40.24154,-37.71754
9.090071678,-134.9751,-90.6268699999998,-203.2657,0.8433047,-0.9242664,-0.205528,0.5045605,40.24154,-37.71754
9.100069046,-149.1893,-95.4937700000003,-209.7896,0.8449147,-0.9560251,-0.1217718,0.5045605,40.24154,-37.71754
9.110066414,-158.7269,-91.9919700000001,-220.7643,0.8244661,-1.187683,-0.009689767,0.5045605,40.24154,-37.71754
9.120063782,-156.2656,-83.38588,-225.7639,0.827612,-1.380197,0.02768325,-9.72518,44.33733,-31.75156
9.13006115,-144.3281,-74.60173,-222.8373,0.8729904,-1.411011,-0.03890999,-9.72518,44.33733,-31.75156
9.140058994,-132.1446,-71.0999499999999,-217.289,0.8735071,-1.362644,-0.1178884,-9.72518,44.33733,-31.75156
9.150056362,-129.2525,-68.1916699999999,-209.6676,0.8820343,-1.273019,-0.1662625,-9.72518,44.33733,-31.75156
9.16005373,-133.4983,-67.3607400000003,-205.4606,0.9269214,-1.173439,-0.214224,-9.72518,44.33733,-31.75156
9.170051098,-141.8053,-66.47046,-207.5946,0.9569311,-1.190582,-0.2937156,-20.22561,45.85511,-23.00052
9.180048466,-144.8819,-68.2510300000003,-213.082,1.029407,-1.36571,-0.3115041,-20.22561,45.85511,-23.00052
9.190045834,-138.6056,-70.8625300000001,-216.6183,1.159783,-1.534026,-0.2413374,-20.22561,45.85511,-23.00052
9.200042725,-122.6684,-69.2600199999998,-219.301,1.305585,-1.693243,-0.1659355,-20.22561,45.85511,-23.00052
9.210040093,-96.9475599999998,-68.9632599999997,-219.5449,1.416315,-1.776186,-0.1230354,-20.22561,45.85511,-23.00052
9.22003746,-71.7804600000001,-68.7851999999998,-214.5453,1.46961,-1.757888,-0.04416793,-29.90241,43.94878,-14.99968
9.230035782,-58.8584900000002,-66.47046,-206.3752,1.407744,-1.679979,0.0004274349,-29.90241,43.94878,-14.99968
9.240032673,-60.33529,-65.75823,-195.4005,1.380694,-1.537236,-0.007697959,-29.90241,43.94878,-14.99968
9.250030041,-76.0877900000002,-62.0190300000001,-188.3888,1.376237,-1.482939,-0.0651333,-29.90241,43.94878,-14.99968
9.260027409,-86.6099800000001,-62.2564400000001,-185.2793,1.336159,-1.608461,-0.1540463,-38.81986,39.04745,-9.42886
9.270024777,-86.0561799999998,-64.5711799999999,-181.1943,1.317526,-1.810106,-0.1644905,-38.81986,39.04745,-9.42886
9.280022144,-75.4109300000001,-63.5621899999997,-174.9753,1.302156,-1.97675,-0.1275705,-38.81986,39.04745,-9.42886
9.290019512,-52.15137,-63.9776600000003,-165.7077,1.299627,-1.996118,-0.06151757,-38.81986,39.04745,-9.42886
9.30001688,-28.95334,-64.0370099999998,-153.8794,1.217831,-1.893964,0.02043522,-38.81986,39.04745,-9.42886
9.310014248,-17.01589,-63.3841299999998,-138.8196,1.150934,-1.753656,0.1506884,-45.40938,33.33935,-3.8365
9.320012093,-18.06195,-60.0603999999999,-121.321,1.126787,-1.555578,0.2353875,-45.40938,33.33935,-3.8365
9.330009461,-29.87634,-54.42192,-111.4437,1.127137,-1.443423,0.2769941,-45.40938,33.33935,-3.8365
9.340006828,-44.33665,-45.69712,-104.0663,1.129372,-1.51036,0.2856218,-45.40938,33.33935,-3.8365
9.350004196,-53.99736,-36.2601,-92.4818100000002,1.096551,-1.554197,0.2392684,-45.40938,33.33935,-3.8365
9.360001087,-57.7508900000001,-28.42559,-80.53155,1.002297,-1.544353,0.191094,-50.13958,25.72618,-0.2200708
9.369998455,-57.93549,-22.31229,-70.5323400000002,0.9122124,-1.521854,0.189331,-50.13958,25.72618,-0.2200708
9.379995823,-55.72029,-18.63245,-59.7405199999998,0.8530181,-1.561439,0.1865729,-50.13958,25.72618,-0.2200708
9.389993191,-49.8131,-16.55511,-46.63181,0.8548149,-1.60509,0.1918453,-50.13958,25.72618,-0.2200708
9.399990559,-40.27545,-13.23138,-33.58406,0.847273,-1.592547,0.1980767,-50.13958,25.72618,-0.2200708
9.409988403,-28.83027,-10.44182,-20.41438,0.835395,-1.53116,0.1880315,-52.31696,21.61603,3.010231
9.419985771,-17.38509,-7.53355299999998,-8.098285,0.830117,-1.432347,0.1645651,-52.31696,21.61603,3.010231
9.429983139,-6.61677399999998,-3.972411,1.96189,0.8413542,-1.305168,0.1252695,-52.31696,21.61603,3.010231
9.439980507,3.966942,0.1822547,9.339353,0.8677107,-1.205052,0.06968295,-52.31696,21.61603,3.010231
9.449977875,16.76585,4.218216,13.97313,0.8713783,-1.11671,-0.002132605,-52.31696,21.61603,3.010231
9.459975243,28.82637,6.71101499999999,16.89973,0.8474853,-1.013064,-0.04136088,-52.29704,20.48204,3.854818
9.469972611,36.94875,10.03475,18.91176,0.8272895,-0.9242695,-0.06527733,-52.29704,20.48204,3.854818
9.479969978,41.56374,12.82431,20.55797,0.8268707,-0.8506077,-0.08635292,-52.29704,20.48204,3.854818
9.489966869,43.10207,14.96099,22.50904,0.8160279,-0.7926931,-0.1064491,-52.29704,20.48204,3.854818
9.499965191,41.93295,16.91962,24.39913,0.8018775,-0.7401279,-0.1198381,-52.29704,20.48204,3.854818
9.509962559,40.33308,17.63185,25.98437,0.7904575,-0.7029711,-0.1236564,-52.65856,20.08853,2.62856
9.519959927,38.36402,16.91962,27.63058,0.779794,-0.6797382,-0.1107222,-52.65856,20.08853,2.62856
9.529956818,35.34889,15.31711,29.94747,0.7925277,-0.6563184,-0.07485725,-52.65856,20.08853,2.62856
9.539954186,33.44136,13.89265,31.59368,0.8148644,-0.6511307,-0.03421856,-52.65856,20.08853,2.62856
9.549951553,34.85662,12.52755,32.69115,0.8566453,-0.6693745,0.005913686,-52.65856,20.08853,2.62856
9.559948921,38.91782,11.3405,33.05698,0.8806054,-0.6986172,0.0508656,-51.9082,20.45762,0.6325836
9.569946289,46.24027,11.04374,33.30086,0.886148,-0.707394,0.0886657,-51.9082,20.45762,0.6325836
9.579943657,53.56273,10.68762,32.93504,0.860953,-0.6888347,0.1001907,-51.9082,20.45762,0.6325836
9.589941502,58.1161800000001,11.16244,32.87407,0.8385211,-0.6877456,0.1083653,-51.9082,20.45762,0.6325836
9.59993887,59.9621799999998,12.88366,34.39833,0.8441035,-0.6991311,0.1265444,-51.9082,20.45762,0.6325836
9.609936237,59.5314500000001,14.84229,36.71523,0.8579395,-0.7096669,0.1136014,-51.5657,22.34859,-0.9872837
9.619933605,57.5008499999999,15.96998,38.36143,0.8738502,-0.7262378,0.1269781,-51.5657,22.34859,-0.9872837
9.629930973,56.20865,17.5725,37.75173,0.8660919,-0.7540151,0.1351346,-51.5657,22.34859,-0.9872837
9.639928341,56.45479,19.59048,35.37387,0.8715276,-0.836124,0.1250961,-51.5657,22.34859,-0.9872837
9.649925232,59.5314500000001,22.32069,33.54474,0.8734061,-0.9362215,0.1217686,-51.5657,22.34859,-0.9872837
9.6599226,67.1000400000002,26.05989,32.63018,0.8681822,-0.9693381,0.1251363,-51.57072,23.0886,-3.442351
9.669919968,76.26849,30.2739,31.53271,0.8508415,-0.9541306,0.1251626,-51.57072,23.0886,-3.442351
9.679918289,83.2832700000001,34.60663,30.25232,0.8212454,-0.9090105,0.128074,-51.57072,23.0886,-3.442351
9.68991518,88.1444,38.34583,28.30126,0.7865036,-0.8758564,0.108983,-51.57072,23.0886,-3.442351
9.699912548,90.1750000000002,41.78827,25.06981,0.7566892,-0.8446969,0.1267343,-51.57072,23.0886,-3.442351
9.709909916,91.4671899999999,44.87459,22.93583,0.7294403,-0.845865,0.164111,-50.85129,25.28246,-7.060637
9.719907284,90.42113,49.62278,20.86283,0.7272294,-0.8573958,0.1832609,-50.85129,25.28246,-7.060637
9.729905128,89.6827299999998,54.66773,17.5704,0.7312205,-0.8884962,0.1746475,-50.85129,25.28246,-7.060637
9.739902019,89.12893,58.8817499999999,14.94866,0.7216347,-0.9233234,0.1598374,-50.85129,25.28246,-7.060637
9.749899387,88.6981999999997,60.8997199999999,13.85119,0.7211319,-0.9486945,0.1497947,-50.85129,25.28246,-7.060637
9.759897232,87.2214100000002,61.9087100000001,14.33895,0.7349685,-0.9592127,0.138766,-50.08263,25.25103,-11.4411
9.7698946,86.2368699999999,60.9590799999997,16.77778,0.7257521,-0.9363985,0.102883,-50.08263,25.25103,-11.4411
9.779891968,84.4524099999998,59.83139,19.82632,0.7191734,-0.9241747,0.07226244,-50.08263,25.25103,-11.4411
9.789889336,84.6370100000002,57.21988,23.05777,0.6997959,-0.9040604,0.08186257,-50.08263,25.25103,-11.4411
9.799886703,85.9907400000001,54.48967,26.16728,0.7257152,-0.9344687,0.1014468,-50.08263,25.25103,-11.4411
9.809883594,89.7442600000002,52.8278,30.25232,0.7473738,-0.9711292,0.1373117,-48.93357,25.21152,-17.10878
9.819880962,97.6205199999997,52.53104,35.25193,0.7749557,-1.011407,0.1899174,-48.93357,25.21152,-17.10878
9.82987833,107.0351,53.12457,38.8492,0.7788277,-1.009023,0.2296318,-48.93357,25.21152,-17.10878
9.839876652,117.1266,54.48967,41.83677,0.7799075,-0.9877681,0.2664748,-48.93357,25.21152,-17.10878
9.849873543,124.6951,55.91413,43.05618,0.7911204,-0.9344243,0.3363136,-47.42944,25.94317,-21.87474
9.859870911,129.7409,58.7630400000001,44.09269,0.7967043,-0.8929335,0.397551,-47.42944,25.94317,-21.87474
9.869868278,131.6484,62.56159,44.82433,0.8005566,-0.8639807,0.4200299,-47.42944,25.94317,-21.87474
9.879865646,133.0021,66.5381999999999,44.2756,0.8092783,-0.8606251,0.4492069,-47.42944,25.94317,-21.87474
9.889863014,137.1864,71.5238,43.05618,0.8038636,-0.8578734,0.4429942,-47.42944,25.94317,-21.87474
9.899860382,141.3091,76.03458,41.40997,0.8159898,-0.8802626,0.4659505,-45.53091,25.90929,-27.53686
9.90985775,151.6467,80.9608200000003,40.00764,0.8052139,-0.8769335,0.4812829,-45.53091,25.90929,-27.53686
9.919855118,160.446,85.8277200000001,36.28843,0.7912303,-0.8594537,0.4568953,-45.53091,25.90929,-27.53686
9.929852962,169.6759,89.56692,33.17892,0.7891074,-0.8759386,0.4655176,-45.53091,25.90929,-27.53686
9.93985033,181.1211,92.5345399999998,32.56921,0.7496326,-0.8508988,0.4196367,-45.53091,25.90929,-27.53686
9.949847698,192.3817,95.2647500000001,30.86203,0.7286457,-0.8495188,0.4034013,-43.2008,23.27313,-33.89185
9.959845066,205.7344,94.6118700000002,29.70359,0.6761995,-0.7801452,0.4508539,-43.2008,23.27313,-33.89185
9.969842434,214.7798,93.0093500000001,24.4601,0.6645193,-0.7792803,0.5173962,-43.2008,23.27313,-33.89185
9.979839325,217.6103,94.4931600000003,23.54554,0.6363924,-0.7338855,0.5471051,-43.2008,23.27313,-33.89185
9.989836693,221.1177,92.5345399999998,17.14361,0.6481402,-0.7372612,0.5245925,-43.2008,23.27313,-33.89185
9.999834061,219.5179,94.0777,24.09428,0.6709304,-0.6779715,0.5819666,-39.03425,19.44556,-40.29148
10.009831905,214.4106,90.9320199999998,19.82632,0.6116229,-0.6092696,0.5179232,-39.03425,19.44556,-40.29148
10.019829273,206.1036,90.3385000000002,22.63098,0.5753619,-0.5997427,0.4691692,-39.03425,19.44556,-40.29148
10.029826641,198.7811,87.7270000000003,25.55757,0.5453613,-0.6118191,0.4357243,-39.03425,19.44556,-40.29148
10.039824009,191.5202,83.5723299999999,27.93543,0.4704257,-0.5416093,0.3578289,-39.03425,19.44556,-40.29148
10.049821377,180.0135,78.5867299999998,27.93543,0.4525717,-0.4728574,0.3688496,-35.8604,12.19009,-46.29373
10.059818745,160.9382,73.4824300000002,28.66708,0.4631601,-0.4122502,0.4372519,-35.8604,12.19009,-46.29373
10.069816113,134.4789,70.15869,32.75212,0.4637836,-0.3395245,0.5238543,-35.8604,12.19009,-46.29373
10.07981348,106.789,69.2090499999999,35.9226,0.4584882,-0.3151074,0.6013865,-35.8604,12.19009,-46.29373
10.089811325,85.2523399999999,69.8025799999998,37.26396,0.4407439,-0.3034664,0.6373077,-35.8604,12.19009,-46.29373
10.099808693,70.6689599999999,70.5741599999999,36.28843,0.4030478,-0.2939187,0.6469425,-32.30981,4.264084,-49.45147
10.109806061,61.86971,69.8025799999998,34.09348,0.3679513,-0.2930709,0.6560964,-32.30981,4.264084,-49.45147
10.119803429,56.57785,68.4968300000001,31.22786,0.334372,-0.2958448,0.6379697,-32.30981,4.264084,-49.45147
10.129800797,53.00893,66.12273,29.33776,0.3012827,-0.2992923,0.5983065,-32.30981,4.264084,-49.45147
10.139797688,47.28633,62.1461299999998,28.54514,0.2592523,-0.2936748,0.5596136,-32.30981,4.264084,-49.45147
10.149795055,39.84081,56.27024,27.32573,0.2109615,-0.2656873,0.5362405,-28.83403,-0.2917614,-51.40162
10.159792423,31.53383,49.68213,25.98437,0.1758826,-0.2401878,0.5310307,-28.83403,-0.2917614,-51.40162
10.169790268,22.54998,44.63718,25.43563,0.1651904,-0.2411867,0.5511497,-28.83403,-0.2917614,-51.40162
10.179787636,15.78132,39.82964,24.82593,0.1628324,-0.2706214,0.5789189,-28.83403,-0.2917614,-51.40162
10.189785004,12.15086,35.85303,24.58204,0.1857603,-0.2970653,0.6133432,-28.83403,-0.2917614,-51.40162
10.199782372,11.2894,32.41059,24.33816,0.1828489,-0.2967719,0.6516343,-26.24265,-1.42723,-52.98904
10.209779739,11.72013,29.38362,23.97233,0.1910486,-0.2914346,0.686076,-26.24265,-1.42723,-52.98904
10.219777107,11.8432,26.59406,23.36263,0.196445,-0.2668028,0.7109463,-26.24265,-1.42723,-52.98904
10.229774475,11.2894,24.10126,22.87486,0.1881657,-0.2405062,0.7348827,-26.24265,-1.42723,-52.98904
10.239771843,9.62799900000003,22.26134,22.57001,0.1850411,-0.2291413,0.7621641,-26.24265,-1.42723,-52.98904
10.249769211,8.88960099999997,21.54911,21.9603,0.199595,-0.2253118,0.7774522,-24.35938,-1.796792,-53.36012
10.259767056,6.79747099999997,20.95558,22.50904,0.2154451,-0.2135071,0.7587571,-24.35938,-1.796792,-53.36012
10.269764423,1.505613,19.53113,22.87486,0.2144679,-0.1623324,0.7242882,-24.35938,-1.796792,-53.36012
10.279761791,-8.77043599999998,19.53113,24.21622,0.2470867,-0.1094037,0.7026817,-24.35938,-1.796792,-53.36012
10.289759159,-26.43047,20.83688,27.02087,0.2766648,-0.1022574,0.6763066,-24.35938,-1.796792,-53.36012
10.29975605,-48.09017,22.32069,30.98397,0.3026245,-0.136028,0.6470769,-23.24132,-1.411268,-53.7408
10.309753418,-70.4267300000002,23.56709,34.76416,0.3039041,-0.1790901,0.6116711,-23.24132,-1.411268,-53.7408
10.319750786,-87.90218,22.38004,38.72726,0.2697428,-0.2291917,0.5739361,-23.24132,-1.411268,-53.7408
10.329749107,-105.3776,21.60846,41.40997,0.2342222,-0.2846128,0.5419477,-23.24132,-1.411268,-53.7408
10.339745998,-116.3921,20.12465,46.47055,0.22126,-0.321547,0.5166153,-23.24132,-1.411268,-53.7408
10.349743366,-129.0064,21.01493,51.71403,0.2394913,-0.3844689,0.5046353,-21.76425,-0.2622194,-54.12276
10.359740734,-140.8208,20.77752,59.0305199999998,0.1991646,-0.3392327,0.4903367,-21.76425,-0.2622194,-54.12276
10.369738102,-158.1731,22.97356,66.0421600000001,0.1916566,-0.302296,0.5070904,-21.76425,-0.2622194,-54.12276
10.37973547,-178.2945,23.98255,72.7489500000001,0.1353525,-0.1851194,0.4765295,-21.76425,-0.2622194,-54.12276
10.389732838,-206.969,22.08328,74.5780700000001,0.07587288,-0.1063774,0.4478984,-21.49959,5.065574,-54.14838
10.399730206,-239.397,22.6768,76.7730200000002,0.06094308,-0.1936953,0.4436397,-21.49959,5.065574,-54.14838
10.409727573,-272.9326,22.5581,84.0895100000002,0.07120956,-0.2738878,0.4201922,-21.49959,5.065574,-54.14838
10.419725418,-302.7147,22.5581,93.6009399999999,0.05971833,-0.4433385,0.301569,-21.49959,5.065574,-54.14838
10.429722786,-328.0664,21.72716,104.6976,0.04122146,-0.6025517,0.2016199,-21.49959,5.065574,-54.14838
10.439720154,-346.5263,20.24335,113.7213,0.001549369,-0.7244377,0.08446928,-20.56871,13.7855,-51.02583
10.449717522,-345.911,21.72716,119.8793,-0.06846618,-0.8367341,0.0716987,-20.56871,13.7855,-51.02583
10.459714413,-336.681,23.15162,122.5011,-0.1357922,-0.9362157,0.07279883,-20.56871,13.7855,-51.02583
10.469711781,-322.8976,23.27032,123.4766,-0.1895061,-0.9818959,0.08247575,-20.56871,13.7855,-51.02583
10.479709149,-305.7298,19.41242,120.611,-0.2566095,-0.9631576,0.09790234,-20.56871,13.7855,-51.02583
10.48970747,-293.977,15.1984,118.416,-0.3202325,-0.8977976,0.04966024,-16.795,29.03537,-43.01348
10.499704361,-284.6855,7.00777700000002,113.1116,-0.3933604,-0.7924275,0.03971049,-16.795,29.03537,-43.01348
10.509701729,-286.9006,1.488007,109.0875,-0.4115305,-0.8083742,0.141683,-16.795,29.03537,-43.01348
10.519699097,-286.9622,-3.082125,106.1609,-0.3948279,-0.8688098,0.0861546,-16.795,29.03537,-43.01348
10.529696465,-282.5933,-4.091116,103.6002,-0.5016878,-0.9404687,0.0270159,-16.795,29.03537,-43.01348
10.539693833,-284.2547,-5.515573,101.3442,-0.4043463,-0.9612979,-0.01669885,-12.25866,43.16996,-32.60298
10.5496912,-280.6858,-2.963421,96.9543400000001,-0.3468108,-0.9894273,-0.02875631,-12.25866,43.16996,-32.60298
10.559688568,-283.5779,-2.844716,91.2840599999997,-0.3328109,-1.009487,-0.0737617,-12.25866,43.16996,-32.60298
10.569686413,-284.3778,-3.853706,89.33299,-0.3232924,-1.025739,-0.1709251,-12.25866,43.16996,-32.60298
10.579683781,-290.9003,-9.07671499999999,84.5162999999998,-0.3209243,-1.04805,-0.171402,-12.25866,43.16996,-32.60298
10.589681149,-290.6542,-14.29972,79.3947599999998,-0.3432481,-1.083101,-0.3422057,-8.067648,52.43748,-20.10569
10.599678517,-294.2846,-23.38064,74.4561300000003,-0.2960679,-1.207927,-0.3312486,-8.067648,52.43748,-20.10569
10.609675884,-295.8845,-32.75831,69.70041,-0.293483,-1.297874,-0.5011244,-8.067648,52.43748,-20.10569
10.619672775,-292.5002,-44.68813,68.1761400000002,-0.2821928,-1.510889,-0.5441611,-8.067648,52.43748,-20.10569
10.629670143,-275.7016,-58.1611199999998,66.2860500000002,-0.2896774,-1.682998,-0.5374036,-8.067648,52.43748,-20.10569
10.639667511,-243.1505,-64.2744199999998,61.10353,-0.3369752,-1.757747,-0.4789157,-4.116251,57.54543,-4.427891
10.649665832,-201.0003,-68.2510300000003,52.50665,-0.3474343,-1.770732,-0.4415652,-4.116251,57.54543,-4.427891
10.659662723,-167.5262,-74.3049699999999,49.702,-0.3558856,-1.708745,-0.3937088,-4.116251,57.54543,-4.427891
10.669660091,-142.236,-80.0028,48.36064,-0.3387968,-1.631768,-0.3559509,-4.116251,57.54543,-4.427891
10.679657459,-127.1604,-84.5729300000001,50.00685,-0.3080359,-1.477326,-0.272772,-4.116251,57.54543,-4.427891
10.689654827,-120.6994,-85.2851600000002,51.28724,-0.2748295,-1.348935,-0.1742763,-0.8289719,59.50066,6.423385
10.699652195,-116.6997,-82.43624,50.92141,-0.2121755,-1.362866,-0.1327458,-0.8289719,59.50066,6.423385
10.709649563,-110.731,-78.16287,52.62859,-0.1865878,-1.323826,-0.1170075,-0.8289719,59.50066,6.423385
10.719646931,-103.4701,-72.5244000000003,53.17733,-0.1590881,-1.256389,-0.08213676,-0.8289719,59.50066,6.423385
10.729644775,-100.6395,-67.3013900000002,56.46975,-0.1340565,-1.291819,-0.07834266,-0.8289719,59.50066,6.423385
10.739642143,-97.7474899999999,-63.2060800000001,64.7008099999999,-0.1265219,-1.303823,-0.07883129,2.180735,57.73544,12.45396
10.749639511,-91.6557000000002,-57.8643600000002,70.0052600000002,-0.1403564,-1.267598,-0.07307358,2.180735,57.73544,12.45396
10.759636879,-83.7794499999998,-50.32661,70.9807999999999,-0.1348658,-1.144384,-0.05540757,2.180735,57.73544,12.45396
10.769634247,-79.04139,-45.04425,72.5050700000003,-0.1506387,-1.083783,-0.08985315,2.180735,57.73544,12.45396
10.779631615,-72.8880699999998,-39.46513,71.2246799999997,-0.1586187,-1.022283,-0.09607656,2.180735,57.73544,12.45396
10.789628506,-63.7811499999999,-34.95435,65.3714799999998,-0.1658126,-1.003281,-0.1281335,4.755432,56.26701,16.48009
10.799626827,-50.30537,-31.63061,59.76217,-0.1840857,-1.017828,-0.1912699,4.755432,56.26701,16.48009
10.809624195,-34.92206,-29.73134,53.42121,-0.1968209,-0.9628224,-0.2065764,4.755432,56.26701,16.48009
10.819621086,-23.90761,-29.13782,48.90937,-0.2302418,-0.9224628,-0.2376359,4.755432,56.26701,16.48009
10.829618454,-15.60063,-29.13782,43.05618,-0.2800465,-0.8658785,-0.2657996,4.755432,56.26701,16.48009
10.839615822,-10.43183,-29.73134,35.25193,-0.3231357,-0.8288,-0.2628626,9.648093,54.80231,18.91087
10.84961319,-5.75530800000001,-29.61263,27.14281,-0.3501844,-0.8150272,-0.2393688,9.648093,54.80231,18.91087
10.859610558,0.0903486900000002,-29.19717,18.424,-0.3604954,-0.8364895,-0.2259452,9.648093,54.80231,18.91087
10.869607925,9.074201,-27.5353,9.52226500000001,-0.3626799,-0.8751493,-0.1976954,9.648093,54.80231,18.91087
10.87960577,20.02711,-25.39862,0.864416900000002,-0.3704913,-0.8999594,-0.1837967,9.648093,54.80231,18.91087
10.889603138,29.8109,-24.9238,-6.87886999999998,-0.3694968,-0.9272621,-0.1957558,12.65978,54.06791,19.38867
10.899600506,40.14848,-25.45797,-14.13439,-0.3577036,-0.9587206,-0.2072541,12.65978,54.06791,19.38867
10.909597874,50.1784,-27.59465,-19.7437,-0.3540146,-1.000238,-0.2383573,12.65978,54.06791,19.38867
10.919595242,61.3159100000002,-31.68997,-25.90175,-0.342048,-1.040921,-0.2493749,12.65978,54.06791,19.38867
10.929592609,74.0532899999999,-37.5065,-32.0598,-0.3326112,-1.101766,-0.2278398,12.65978,54.06791,19.38867
10.939589977,89.5596599999997,-44.09461,-39.49823,-0.3191755,-1.114221,-0.1311876,13.7832,54.44308,17.78247
10.949587822,104.02,-48.54604,-50.47297,-0.2982613,-1.057331,-0.01350903,13.7832,54.44308,17.78247
10.95958519,114.5422,-50.2079,-61.4477,-0.2745074,-1.022455,0.0821558,13.7832,54.44308,17.78247
10.969582558,124.6336,-49.79244,-72.7882600000001,-0.2896831,-1.0174,0.13626,13.7832,54.44308,17.78247
10.979579449,135.5865,-49.37697,-84.4336800000002,-0.299596,-1.033924,0.1573389,12.68013,54.39378,12.93661
10.989576817,143.5858,-46.58741,-94.7377300000001,-0.3013358,-1.071587,0.13438,12.68013,54.39378,12.93661
10.999574184,155.1541,-42.67015,-104.3711,-0.2735498,-1.123988,0.1362594,12.68013,54.39378,12.93661
11.009571552,166.107,-38.57484,-112.6631,-0.2622742,-1.154867,0.08312572,12.68013,54.39378,12.93661
11.01956892,175.7677,-34.59823,-118.9431,-0.2927643,-1.167798,0.01043864,12.68013,54.39378,12.93661
11.029566765,177.183,-32.5209,-122.2965,-0.3319248,-1.159147,-0.02155992,9.658472,56.9733,5.740634
11.039564133,178.9059,-30.50292,-125.5889,-0.3617442,-1.153791,-0.009066337,9.658472,56.9733,5.740634
11.049561501,177.9829,-27.4166,-129.674,-0.4049481,-1.16079,0.06279719,9.658472,56.9733,5.740634
11.059558868,176.3215,-23.08387,-134.6126,-0.4438723,-1.136069,0.1399094,9.658472,56.9733,5.740634
11.069556236,173.9833,-16.49576,-139.1854,-0.4432591,-1.114955,0.2155179,9.658472,56.9733,5.740634
11.079553604,170.4759,-8.12707699999999,-143.2705,-0.4050438,-1.124259,0.2843687,4.105301,58.38163,-2.758265
11.089550972,170.4143,3.56534,-144.4289,-0.4311351,-1.163055,0.2432666,4.105301,58.38163,-2.758265
11.099548817,166.2301,11.75597,-143.0876,-0.4770053,-1.213958,0.1433373,4.105301,58.38163,-2.758265
11.109546185,158.9691,15.31711,-138.2099,-0.4877531,-1.240798,0.04812629,4.105301,58.38163,-2.758265
11.119543552,148.6316,17.86926,-130.5276,-0.4452641,-1.298583,0.01408819,4.105301,58.38163,-2.758265
11.12954092,136.7557,17.15703,-121.0161,-0.4760369,-1.348509,-0.06481036,-2.228363,58.26246,-11.25508
11.139538288,130.9715,12.46819,-111.8095,-0.4930207,-1.405039,-0.09874509,-2.228363,58.26246,-11.25508
11.149535179,137.1864,8.43223400000003,-106.5661,-0.4923742,-1.385969,-0.03414336,-2.228363,58.26246,-11.25508
11.159532547,150.7852,7.304539,-106.0173,-0.4581128,-1.365322,0.07682125,-2.228363,58.26246,-11.25508
11.169529915,176.4446,11.2218,-107.1148,-0.4169584,-1.269936,0.215512,-2.228363,58.26246,-11.25508
11.17952776,202.1039,19.59048,-109.6146,-0.3568159,-1.17446,0.3230622,-8.53565,56.63165,-18.58277
11.189525127,216.2566,35.25951,-108.0903,-0.3531962,-1.135046,0.2680095,-8.53565,56.63165,-18.58277
11.199522495,213.303,39.47352,-99.6153899999998,-0.4334395,-1.070306,0.0819666,-8.53565,56.63165,-18.58277
11.209519863,196.5659,34.19116,-91.3233699999998,-0.4107791,-1.035324,-0.07361913,-8.53565,56.63165,-18.58277
11.219517231,172.1988,23.74514,-79.0682399999999,-0.3408753,-0.9701015,-0.1067795,-8.53565,56.63165,-18.58277
11.229514599,141.6168,12.11208,-67.9715699999999,-0.2565803,-0.8899397,-0.02558919,-13.57872,51.57348,-27.43141
11.239511967,110.0502,3.980806,-59.1308100000001,-0.1921338,-0.8932871,0.1063863,-13.57872,51.57348,-27.43141
11.249509811,88.7597399999999,0.5383689,-51.81432,-0.1703021,-0.9119986,0.1915396,-13.57872,51.57348,-27.43141
11.259507179,80.2681500000002,2.200235,-47.79025,-0.1143628,-0.8768965,0.348406,-13.57872,51.57348,-27.43141
11.269504547,83.0371399999998,7.36389100000001,-47.30249,-0.06773821,-0.8663994,0.4387729,-13.57872,51.57348,-27.43141
11.279501915,96.3283199999998,13.71459,-50.77782,-0.02941026,-0.8565618,0.4750753,-16.44035,46.17533,-33.42379
11.289499283,118.5418,20.42141,-58.33819,0.008145556,-0.8838027,0.4970313,-16.44035,46.17533,-33.42379
11.299496651,148.2624,28.01851,-66.6911799999999,0.04004259,-0.871003,0.4462434,-16.44035,46.17533,-33.42379
11.309493542,166.9069,35.97173,-72.7272900000002,0.0264564,-0.8781037,0.2840316,-16.44035,46.17533,-33.42379
11.319491863,174.9063,36.09044,-69.1300100000003,0.0559031,-0.8891451,0.2882903,-16.44035,46.17533,-33.42379
11.329489231,173.491,33.71634,-59.4356700000001,0.1516836,-0.7974306,0.3857293,-18.21597,42.32013,-37.86794
11.339486122,155.7694,32.58865,-50.04617,0.2127336,-0.5937375,0.528186,-18.21597,42.32013,-37.86794
11.34948349,120.6955,32.23254,-44.9856,0.2210141,-0.4350936,0.6410747,-18.21597,42.32013,-37.86794
11.359480858,78.3606200000001,33.83505,-39.74211,0.1612057,-0.4150332,0.6789813,-18.21597,42.32013,-37.86794
11.369478226,44.14814,34.96274,-37.30328,0.113341,-0.4876623,0.6518046,-18.21597,42.32013,-37.86794
11.379475594,29.4417,36.26849,-38.58367,0.08800013,-0.5926327,0.599711,-19.94064,36.23636,-43.46126
11.389473438,33.81056,35.85303,-42.97356,0.07598568,-0.6801211,0.5705613,-19.94064,36.23636,-43.46126
11.399470806,46.91714,36.44655,-49.07064,0.07164751,-0.7626477,0.4830108,-19.94064,36.23636,-43.46126
11.409468174,63.9003100000001,34.90339,-52.36306,0.04672179,-0.8380464,0.4222945,-19.94064,36.23636,-43.46126
11.419465542,74.7916900000001,30.0365,-47.97316,0.06914639,-0.865009,0.401205,-19.94064,36.23636,-43.46126
11.42946291,79.2836200000002,22.26134,-40.77861,0.09792884,-0.7884756,0.4183638,-19.47236,32.04165,-45.04868
11.439460278,71.7765599999999,13.47719,-34.62057,0.1219735,-0.64019,0.4804986,-19.47236,32.04165,-45.04868
11.449457646,51.96286,5.642673,-30.04776,0.1177094,-0.5673075,0.541745,-19.47236,32.04165,-45.04868
11.45945549,28.94943,1.784769,-23.95068,0.1152432,-0.5901024,0.6049272,-19.47236,32.04165,-45.04868
11.469452858,13.68919,0.597721199999998,-18.52429,0.09919747,-0.6431195,0.634162,-19.47236,32.04165,-45.04868
11.479450226,10.05873,0.2416071,-16.75613,0.0998219,-0.7024402,0.6289118,-20.52127,28.96639,-47.87881
11.489447594,14.24299,-0.1738595,-16.45128,0.09178068,-0.7159302,0.6059577,-20.52127,28.96639,-47.87881
11.499444962,22.61151,-1.064145,-17.2439,0.08122255,-0.699429,0.5734286,-20.52127,28.96639,-47.87881
11.509441853,30.30317,-2.844716,-18.7072,0.08074279,-0.6743362,0.5552371,-20.52127,28.96639,-47.87881
11.519439221,33.93362,-5.040754,-18.09749,0.07686997,-0.6495595,0.5628947,-20.10552,27.06415,-48.25289
11.529437542,32.88756,-7.83031500000001,-16.32934,0.09137503,-0.6169858,0.5863113,-20.10552,27.06415,-48.25289
11.539434433,27.53417,-10.32311,-14.3173,0.09870385,-0.5912738,0.618835,-20.10552,27.06415,-48.25289
11.549431801,19.22718,-12.4598,-12.30527,0.1045747,-0.6175469,0.6556819,-20.10552,27.06415,-48.25289
11.559429169,12.95079,-13.46879,-10.47614,0.09852475,-0.6576135,0.6978175,-20.10552,27.06415,-48.25289
11.569426537,12.08933,-12.51915,-9.31770000000002,0.1132117,-0.6852877,0.7748498,-20.81569,25.15675,-48.24831
11.579423905,12.27393,-9.78894299999998,-8.46410900000001,0.1119211,-0.6938584,0.7968687,-20.81569,25.15675,-48.24831
11.589421272,12.64313,-6.64326800000002,-7.976343,0.1116122,-0.677303,0.8011722,-20.81569,25.15675,-48.24831
11.599419117,12.88926,-4.625287,-8.098285,0.1098992,-0.6636121,0.8140932,-20.81569,25.15675,-48.24831
11.609416485,13.81226,-3.022773,-8.03731400000003,0.1050147,-0.6633542,0.7997444,-20.81569,25.15675,-48.24831
11.619413853,14.85832,-2.251192,-8.64702100000002,0.08597759,-0.6362509,0.7758418,-21.92551,24.45099,-48.25294
11.62941122,14.42759,-3.378887,-9.80546599999998,0.08392669,-0.631012,0.7686653,-21.92551,24.45099,-48.25294
11.639408588,12.58159,-4.44723,-10.53712,0.08217724,-0.6674351,0.7748992,-21.92551,24.45099,-48.25294
11.649405956,12.45853,-5.634277,-10.04935,0.08706465,-0.7196579,0.7926115,-21.92551,24.45099,-48.25294
11.659403324,15.47366,-5.99039199999999,-9.50061200000003,0.0934874,-0.7492909,0.8328083,-21.92551,24.45099,-48.25294
11.669401169,20.08865,-5.574925,-8.95187600000001,0.09875569,-0.7691577,0.8806619,-22.29239,24.06782,-48.25369
11.679398537,25.07284,-3.319535,-9.13478800000001,0.1083399,-0.759253,0.933286,-22.29239,24.06782,-48.25369
11.689395904,28.21103,-0.411269,-8.64702100000002,0.1168118,-0.7685369,0.9624668,-22.29239,24.06782,-48.25369
11.699392795,30.11857,2.853111,-7.54954800000001,0.1228374,-0.7774314,0.9863874,-22.29239,24.06782,-48.25369
11.709390163,32.51836,7.24518699999998,-6.26916200000001,0.1225261,-0.7865959,0.994526,-22.29239,24.06782,-48.25369
11.719387531,35.96422,11.81532,-4.866835,0.1137827,-0.7883142,0.9849702,-22.63032,22.53324,-49.47386
11.729384899,40.76381,14.48618,-4.379068,0.08745014,-0.7617753,0.9682592,-22.63032,22.53324,-49.47386
11.739382744,45.50187,16.20739,-5.232659,0.05995342,-0.7506471,0.9692613,-22.63032,22.53324,-49.47386
11.749380112,51.90133,18.10667,-7.12275300000002,0.03791467,-0.744003,0.9994484,-22.63032,22.53324,-49.47386
11.759377479,59.71605,21.72716,-9.68352500000001,0.02974298,-0.7748787,1.041585,-22.63032,22.53324,-49.47386
11.769374847,70.1151699999999,27.06888,-11.87847,0.01321593,-0.8020803,1.078471,-21.85386,21.39125,-50.23622
11.779372215,83.1602099999998,34.36922,-15.23186,0.0001857118,-0.8085584,1.089025,-21.85386,21.39125,-50.23622
11.789369583,97.3128499999998,42.5005,-18.34137,-0.0139108,-0.8102245,1.096707,-21.85386,21.39125,-50.23622
11.799366951,108.0196,49.02925,-20.71923,-0.03996564,-0.8509637,1.055605,-21.85386,21.39125,-50.23622
11.809364796,118.1726,52.94651,-20.53632,-0.08099091,-0.8474457,0.997768,-21.85386,21.39125,-50.23622
11.819362164,127.7103,54.54903,-18.89011,-0.1056783,-0.8056794,0.9422855,-21.42489,19.09832,-51.83378
11.829359531,139.8323,57.21988,-19.01205,-0.1123508,-0.7630361,0.8905998,-21.42489,19.09832,-51.83378
11.839356899,149.6161,57.6946999999999,-19.7437,-0.1252515,-0.7272849,0.7896336,-21.42489,19.09832,-51.83378
11.849354267,159.9537,56.98247,-19.92661,-0.121207,-0.8662335,0.731276,-21.42489,19.09832,-51.83378
11.859351635,171.5219,50.03825,-15.96351,-0.1068873,-0.9009637,0.7815105,-21.42489,19.09832,-51.83378
11.869348526,189.9204,43.09402,-12.97595,-0.167243,-1.040518,0.5308778,-19.42699,13.76016,-55.0165
11.879346848,235.5165,29.68038,-9.50061200000003,-0.1924463,-1.077364,0.3825727,-19.42699,13.76016,-55.0165
11.889344215,288.3735,16.91962,-9.68352500000001,-0.1978923,-0.9699302,0.3457041,-19.42699,13.76016,-55.0165
11.899341106,347.3224,1.428654,-13.52468,-0.1913712,-0.7198037,0.3700357,-19.42699,13.76016,-55.0165
11.909338474,384.6115,-8.83930499999998,-16.93905,-0.1718739,-0.3040822,0.4072236,-19.42699,13.76016,-55.0165
11.919335842,394.3953,-17.26734,-25.84078,-0.1347115,0.1339584,0.5616261,-17.01723,6.222957,-56.1851
11.92933321,359.506,-20.65043,-26.26757,-0.0301524,0.4359548,0.784861,-17.01723,6.222957,-56.1851
11.939330578,299.388,-20.94719,-15.29283,-0.04078618,0.5642325,0.9126263,-17.01723,6.222957,-56.1851
11.949328423,228.8094,-20.11626,-4.805864,-0.01614568,0.5761417,0.9393806,-17.01723,6.222957,-56.1851
11.95932579,164.261,-20.70978,-1.452472,0.02585967,0.3133037,1.014033,-17.01723,6.222957,-56.1851
11.969323158,124.7567,-19.28532,7.26634699999998,0.005607994,0.1205847,1.026561,-16.69117,-10.04824,-53.64722
11.979320526,105.1276,-15.66483,10.61974,0.01770363,-0.004562365,1.025136,-16.69117,-10.04824,-53.64722
11.989317894,101.251,-11.2134,13.11954,0.01309448,-0.01882907,1.016055,-16.69117,-10.04824,-53.64722
11.999315262,99.5895799999998,-7.41484800000003,14.82672,-0.004371405,0.0281323,0.981616,-16.69117,-10.04824,-53.64722
12.009313107,98.3589199999999,-3.735002,13.97313,-0.02022759,0.1435853,0.8878129,-16.69117,-10.04824,-53.64722
12.019310474,91.9594599999997,-5.45622,12.9976,-0.05711269,0.2373159,0.802188,-17.58379,-21.82428,-50.81918
12.029307842,76.8222899999997,-10.26376,12.50983,-0.08932178,0.2914901,0.7912229,-17.58379,-21.82428,-50.81918
12.03930521,58.5469200000001,-13.35009,12.69274,-0.06032378,0.2521412,0.7830467,-17.58379,-21.82428,-50.81918
12.049302578,42.54827,-14.47778,13.24148,0.03131019,0.1726546,0.7671144,-17.58379,-21.82428,-50.81918
12.059299469,30.7339,-15.60548,16.65584,0.1188359,0.1314026,0.7961656,-17.58379,-21.82428,-50.81918
12.069296837,17.38119,-16.49576,23.48457,0.1802473,0.1321924,0.8558803,-18.63945,-25.556,-48.80807
12.079294205,-2.432514,-14.89325,30.37426,0.2598247,0.1262449,0.9366226,-18.63945,-25.556,-48.80807
12.089292526,-23.72301,-13.17203,40.00764,0.2993274,0.1246395,0.9413399,-18.63945,-25.556,-48.80807
12.099289417,-38.30639,-12.63786,48.78743,0.2541103,0.1202007,0.9787487,-18.63945,-25.556,-48.80807
12.109286785,-39.66012,-5.69363,55.31131,0.2206837,-0.09991416,0.8936771,-19.34712,-27.8334,-47.57596
12.119284153,-7.97050500000002,-5.81233500000002,55.25034,0.07763538,-0.04081655,0.5986299,-19.34712,-27.8334,-47.57596
12.129281521,37.87175,-14.41843,43.11715,-0.01254253,0.2157269,0.4182978,-19.34712,-27.8334,-47.57596
12.139278889,62.97731,-24.09286,31.41077,0.181096,0.3637037,0.505023,-19.34712,-27.8334,-47.57596
12.149276733,62.3619799999998,-28.54429,28.17932,0.4429671,0.4357306,0.6940641,-19.34712,-27.8334,-47.57596
12.159274101,43.96354,-25.16121,31.59368,0.487489,0.4303705,0.8614895,-20.12188,-26.69469,-47.20061
12.169271469,20.95011,-16.55511,36.53231,0.4919652,0.3992139,0.8456967,-20.12188,-26.69469,-47.20061
12.179268837,3.290077,-8.89865800000003,40.92221,0.46878,0.2581564,0.8280661,-20.12188,-26.69469,-47.20061
12.189266205,-2.92478,-1.064145,44.15366,0.4796731,0.1187134,0.8070256,-20.12188,-26.69469,-47.20061
12.199263573,3.413143,3.921454,49.39714,0.4897398,0.02436422,0.830004,-20.12188,-26.69469,-47.20061
12.211760044,15.04292,7.60130100000003,57.3843100000001,0.4416585,0.04271252,0.8678907,-21.97568,-27.84274,-46.36992
12.221757889,23.34991,11.2218,62.9326599999997,0.4047697,0.1386422,0.8631445,-21.97568,-27.84274,-46.36992
12.231755257,30.24163,14.72359,64.8837200000003,0.3298952,0.4128259,0.7717964,-21.97568,-27.84274,-46.36992
12.239253521,32.02609,14.66423,60.4938200000002,0.2427437,0.6913763,0.6531897,-21.97568,-27.84274,-46.36992
12.249250889,22.30384,12.52755,51.47015,0.2521823,0.8372838,0.6464356,-21.97568,-27.84274,-46.36992
12.26174736,-1.140316,6.473606,46.40957,0.3369003,0.7374836,0.6558852,-23.86849,-27.08955,-45.61388
12.269245148,-8.70890300000002,3.446635,42.99521,0.3478649,0.6469343,0.6673752,-23.86849,-27.08955,-45.61388
12.279242516,-13.1393,1.131893,37.87367,0.3741951,0.5705768,0.7625856,-23.86849,-27.08955,-45.61388
12.291739941,-23.16921,0.716426,34.39833,0.3532655,0.5457936,0.8607365,-23.86849,-27.08955,-45.61388
12.301737309,-35.5374,1.30995,32.56921,0.3167481,0.5447923,0.8832935,-23.86849,-27.08955,-45.61388
12.311734676,-46.49031,2.081531,30.98397,0.295323,0.518194,0.8905164,-24.63201,-26.33773,-46.0105
12.321732044,-53.93583,3.624692,30.80106,0.3015537,0.420271,0.9029737,-24.63201,-26.33773,-46.0105
12.331729412,-50.5515,5.76137699999998,30.43524,0.2990763,0.2922395,0.8833894,-24.63201,-26.33773,-46.0105
12.341726303,-39.72165,6.948425,30.06941,0.3076457,0.1990511,0.877177,-24.63201,-26.33773,-46.0105
12.351724625,-23.35381,6.17684400000002,28.36223,0.2744301,0.2032191,0.8734052,-24.63201,-26.33773,-46.0105
12.361721993,-4.893843,3.743397,22.93583,0.2269618,0.3172959,0.8567084,-25.03351,-24.88906,-46.79505
12.37171936,7.843536,1.191245,15.37546,0.2057969,0.4582911,0.8571876,-25.03351,-24.88906,-46.79505
12.381716251,7.22820399999999,-0.3519166,7.69314200000002,0.2258431,0.5597464,0.9083341,-25.03351,-24.88906,-46.79505
12.391713619,-3.293979,0.716426,1.230241,0.2454111,0.5829952,0.9638089,-25.03351,-24.88906,-46.79505
12.401710987,-14.73916,3.090521,-4.379068,0.2545496,0.5390393,1.026019,-25.03351,-24.88906,-46.79505
12.411708355,-24.70754,6.65166300000002,-9.19575899999999,0.2488002,0.4572798,1.078215,-25.8265,-22.61963,-47.65128
12.4217062,-29.4456,10.74698,-13.64662,0.2394022,0.360847,1.074906,-25.8265,-22.61963,-47.65128
12.431703568,-27.04581,14.13006,-18.46332,0.2215799,0.3233878,1.055804,-25.8265,-22.61963,-47.65128
12.441700935,-20.58482,15.49516,-23.7068,0.1729614,0.368118,1.004191,-25.8265,-22.61963,-47.65128
12.451698303,-14.12383,15.25776,-30.35261,0.115467,0.4441932,0.9454067,-25.8265,-22.61963,-47.65128
12.461695671,-9.878035,13.12107,-37.85202,0.08914248,0.4958565,0.912896,-25.83606,-22.236,-47.26631
12.471693039,-9.93956800000001,10.74698,-44.74171,0.08905362,0.5007887,0.9210306,-25.83606,-22.236,-47.26631
12.481690884,-12.4009,8.610291,-51.32655,0.1111318,0.4674196,0.9439725,-25.83606,-22.236,-47.26631
12.491688252,-16.40056,8.31352900000002,-56.14325,0.1452566,0.4161165,0.9989625,-25.83606,-22.236,-47.26631
12.501685619,-24.39988,10.86568,-59.55761,0.2031632,0.3446467,1.082152,-25.83606,-22.236,-47.26631
12.511682987,-33.876,14.60488,-61.2647900000002,0.2139889,0.2877388,1.106077,-23.9494,-22.61211,-48.41138
12.521680355,-41.75225,17.27574,-63.2768200000001,0.1720013,0.2651944,1.069784,-23.9494,-22.61211,-48.41138
12.531677723,-46.05958,18.8189,-65.8985599999997,0.1182524,0.2463754,1.041168,-23.9494,-22.61211,-48.41138
12.541674614,-49.38237,19.05631,-69.3129299999998,0.07085143,0.2266266,1.003448,-23.9494,-22.61211,-48.41138
12.551672936,-51.2899,18.22537,-72.9102,0.02570777,0.2160017,0.9489719,-22.4625,-21.84723,-49.24283
12.561670303,-53.5051,16.26675,-75.5929100000002,-0.0004043013,0.2037434,0.8872842,-22.4625,-21.84723,-49.24283
12.571667671,-54.67423,14.78294,-78.0317500000003,0.01956826,0.1249285,0.8341478,-22.4625,-21.84723,-49.24283
12.581664562,-51.41297,13.53654,-78.7024200000003,0.06290258,0.02263786,0.8202199,-22.4625,-21.84723,-49.24283
12.59166193,-45.99804,12.7056,-76.6294199999998,0.09059472,-0.04908778,0.8876693,-22.4625,-21.84723,-49.24283
12.601659298,-42.42912,12.5869,-73.3369999999999,0.1150144,-0.1025088,0.9445912,-20.96434,-21.46924,-50.84624
12.611657143,-41.87532,13.23978,-68.5203100000003,0.1321559,-0.1318555,0.992905,-20.96434,-21.46924,-50.84624
12.62165451,-42.73678,13.29913,-63.39876,0.1207746,-0.1229878,0.977608,-20.96434,-21.46924,-50.84624
12.631651878,-44.82891,12.23079,-59.3746899999999,0.08158998,-0.1135494,0.9255092,-20.96434,-21.46924,-50.84624
12.641649246,-47.72097,9.02575799999998,-56.14325,0.04398022,-0.1097839,0.8872876,-20.96434,-21.46924,-50.84624
12.651646614,-50.05924,5.227206,-52.18015,0.03877804,-0.09324722,0.8470921,-19.0951,-21.08136,-51.60837
12.661643982,-48.70551,2.140883,-49.49743,0.02218714,-0.1193616,0.7906557,-19.0951,-21.08136,-51.60837
12.671641827,-43.84438,-0.411269,-46.44889,0.05111132,-0.1548507,0.7796072,-19.0951,-21.08136,-51.60837
12.681639194,-37.07573,-2.726011,-41.87609,0.06532416,-0.1852149,0.7762402,-19.0951,-21.08136,-51.60837
12.691636562,-30.61473,-4.743992,-35.83998,0.08234397,-0.2091143,0.7829167,-19.0951,-21.08136,-51.60837
12.70163393,-25.01521,-5.81233500000002,-29.62096,0.09525626,-0.1947571,0.8369697,-17.99696,-19.56185,-52.83364
12.711631298,-22.30775,-5.69363,-24.25554,0.1141582,-0.1624641,0.8733001,-17.99696,-19.56185,-52.83364
12.721628666,-22.55388,-5.159458,-19.86564,0.1028309,-0.1037048,0.893405,-17.99696,-19.56185,-52.83364
12.731626034,-25.50747,-4.743992,-16.75613,0.09961952,-0.06247198,0.8924428,-17.99696,-19.56185,-52.83364
12.741623878,-30.7378,-3.556944,-13.95148,0.1146779,-0.03398547,0.8928878,-17.99696,-19.56185,-52.83364
12.751621246,-35.16819,-2.666659,-11.87847,0.118266,-0.0173487,0.897663,-16.87891,-19.17633,-53.21433
12.761618614,-37.93719,-2.310545,-10.59809,0.1032943,0.001223885,0.8885913,-16.87891,-19.17633,-53.21433
12.771615505,-38.12179,-2.666659,-10.53712,0.08056195,0.01836516,0.8991553,-16.87891,-19.17633,-53.21433
12.781612873,-38.61406,-2.607306,-11.8175,0.05769807,0.01654334,0.9087671,-16.87891,-19.17633,-53.21433
12.791610241,-37.62952,-2.369897,-14.01245,0.05499607,0.004879994,0.9145178,-16.87891,-19.17633,-53.21433
12.801608562,-36.95266,-1.657669,-16.2074,0.0810965,0.01677409,0.9364837,-17.2851,-17.65771,-53.22523
12.811605453,-40.21392,-0.2925643,-17.60972,0.1209352,0.02355917,0.9545984,-17.2851,-17.65771,-53.22523
12.821602821,-46.79797,1.07254,-18.58526,0.1532552,0.04053111,0.9339589,-17.2851,-17.65771,-53.22523
12.831600189,-54.92036,2.31894,-19.25594,0.1690173,0.05729435,0.9262699,-17.2851,-17.65771,-53.22523
12.841597557,-67.6577400000001,2.437645,-19.80467,0.1640648,0.08723716,0.9166993,-17.2851,-17.65771,-53.22523
12.851594925,-74.1802600000001,0.5383689,-17.97555,0.1293016,0.06997569,0.9110214,-16.93645,-16.14383,-54.45606
12.861592293,-83.7794499999998,-0.2332119,-18.64623,0.108373,0.06777979,0.8756438,-16.93645,-16.14383,-54.45606
12.871590137,-90.05584,-1.657669,-19.25594,0.1154823,-0.02539808,0.8737411,-16.93645,-16.14383,-54.45606
12.881587505,-90.60963,-1.004793,-18.46332,0.1334226,-0.1240353,0.8890496,-16.93645,-16.14383,-54.45606
12.891584873,-83.7179100000002,-0.826735599999998,-18.40234,0.1366741,-0.2191542,0.8957686,-16.93645,-16.14383,-54.45606
12.901582241,-72.8880699999998,-0.411269,-18.21943,0.1408453,-0.2592734,0.9101289,-16.61336,-13.48507,-55.24148
12.911579609,-62.1197500000001,-0.4706214,-17.73167,0.1206363,-0.2462803,0.9398326,-16.61336,-13.48507,-55.24148
12.921576977,-57.4432299999999,-2.132488,-17.18293,0.09484121,-0.2212402,0.9704999,-16.61336,-13.48507,-55.24148
12.931574821,-59.22769,-3.556944,-15.90254,0.07389871,-0.1951412,1.000201,-16.61336,-13.48507,-55.24148
12.941572189,-63.1042800000002,-4.981401,-14.62216,0.05970272,-0.1657924,0.998783,-16.61336,-13.48507,-55.24148
12.951569557,-65.6886699999998,-7.41484800000003,-13.52468,0.03545776,-0.1207859,0.9777561,-17.43163,-10.0713,-55.7168
12.961566925,-70.9190000000001,-9.19541899999997,-15.65866,0.03557674,-0.07580151,0.9547728,-17.43163,-10.0713,-55.7168
12.971563816,-81.5642499999997,-10.73858,-18.34137,0.05103301,-0.1208598,0.936093,-17.43163,-10.0713,-55.7168
12.981561184,-90.05584,-11.62887,-18.46332,0.06420585,-0.2776639,0.9246246,-17.43163,-10.0713,-55.7168
12.991559505,-86.6099800000001,-10.73858,-15.47575,0.08418593,-0.4588183,0.9456937,-17.43163,-10.0713,-55.7168
13.001556873,-68.8883999999999,-8.83930499999998,-15.41478,0.0586441,-0.5259233,0.9428841,-17.11679,-7.092307,-56.1169
13.011553764,-46.98257,-8.364487,-16.93905,0.09643638,-0.5137587,0.9691368,-17.11679,-7.092307,-56.1169
13.021551132,-32.82993,-10.02635,-16.57322,0.05123594,-0.4679312,0.9768609,-17.11679,-7.092307,-56.1169
13.0315485,-27.16887,-12.63786,-16.63419,0.0574166,-0.3817403,0.9830495,-17.11679,-7.092307,-56.1169
13.041545868,-33.99906,-14.89325,-14.98798,0.09099737,-0.3268611,1.013127,-17.11679,-7.092307,-56.1169
13.051543713,-48.95164,-15.0713,-11.02488,0.1398881,-0.3092766,1.023566,-17.19541,-3.28875,-56.13718
13.06154108,-70.9190000000001,-12.99397,-4.013244,0.2018178,-0.2849419,1.053124,-17.19541,-3.28875,-56.13718
13.071538448,-99.0396899999998,-11.3321,2.998394,0.1742266,-0.2465004,0.9062389,-17.19541,-3.28875,-56.13718
13.081535816,-115.5921,-14.24037,1.718008,0.02858972,0.002693939,0.6269401,-17.19541,-3.28875,-56.13718
13.091533184,-131.5908,-17.50475,-7.48857699999998,-0.06503128,-0.02395476,0.4663087,-17.97635,-1.772951,-56.15086
13.101530552,-161.9882,-18.09828,-11.8175,-0.0003276319,-0.2801264,0.3710252,-17.97635,-1.772951,-56.15086
13.11152792,-175.0332,-15.96159,-9.07381699999998,0.09843224,-0.5579338,0.3335956,-17.97635,-1.772951,-56.15086
13.121525764,-171.3412,-8.72059999999997,-4.866835,0.1889699,-0.7058526,0.4354126,-17.97635,-1.772951,-56.15086
13.131523132,-170.849,0.8351307,1.778978,0.2219947,-0.6733815,0.4607112,-17.97635,-1.772951,-56.15086
13.1415205,-178.7868,12.7056,10.74168,0.2497317,-0.5929241,0.4840923,-18.46483,3.556299,-55.34353
13.151517868,-205.7999,23.8045,21.59447,0.1670283,-0.4459004,0.4267696,-18.46483,3.556299,-55.34353
13.161515236,-252.3805,29.62103,28.48417,0.002991336,-0.3552039,0.2844165,-18.46483,3.556299,-55.34353
13.171512127,-305.2991,29.85844,32.20339,-0.193843,-0.3868469,0.119659,-18.46483,3.556299,-55.34353
13.181510448,-356.6793,25.64442,34.76416,-0.3318778,-0.5134964,-0.03991214,-18.46483,3.556299,-55.34353
13.191507816,-388.9843,17.80991,38.05658,-0.3355526,-0.8157012,-0.238437,-18.64077,11.50381,-52.61226
13.201504707,-398.9527,12.52755,44.03172,-0.3347628,-1.123777,-0.5039688,-18.64077,11.50381,-52.61226
13.211502075,-391.5071,-4.150468,51.28724,-0.2243133,-1.420086,-0.252354,-18.64077,11.50381,-52.61226
13.221499443,-365.4786,-13.23138,61.1644999999999,-0.09731121,-1.560176,-0.01133698,-18.64077,11.50381,-52.61226
13.231496811,-337.2348,-17.50475,68.6638999999998,-0.04569287,-1.581416,0.1048725,-18.64077,11.50381,-52.61226
13.241494656,-317.1135,-19.87885,74.15128,-0.1133972,-1.55391,0.2298918,-17.11891,26.74334,-43.8426
13.251492024,-300.2534,-27.35724,79.3947599999998,-0.2382,-1.474187,0.1841455,-17.11891,26.74334,-43.8426
13.261489391,-279.0859,-37.26909,76.5291399999998,-0.408389,-1.263637,0.03602941,-17.11891,26.74334,-43.8426
13.271486759,-276.563,-47.29964,72.0172999999999,-0.4052331,-1.250691,0.01017747,-17.11891,26.74334,-43.8426
13.281484127,-291.6387,-53.76905,75.00487,-0.2220859,-1.504445,0.08218852,-17.11891,26.74334,-43.8426
13.291481495,-299.0842,-49.31762,90.1256100000002,0.003889884,-1.802087,0.3632739,-15.9825,42.00077,-32.6247
13.30147934,-288.0082,-36.02269,106.3438,0.1390955,-1.912619,0.5774688,-15.9825,42.00077,-32.6247
13.311476708,-272.5019,-16.97058,115.5504,0.1321631,-1.723666,0.6367757,-15.9825,42.00077,-32.6247
13.321474075,-269.7944,-0.1145072,118.7209,0.0399632,-1.46098,0.5478535,-15.9825,42.00077,-32.6247
13.331471443,-282.4702,13.8333,122.8669,-0.1066904,-1.182092,0.3293282,-15.9825,42.00077,-32.6247
13.341468811,-307.0836,20.71817,123.2327,-0.1787545,-1.161628,0.2255975,-13.60443,51.25796,-19.75385
13.351466179,-323.636,24.04191,125.8545,-0.1857703,-1.283013,0.1457188,-13.60443,51.25796,-19.75385
13.361464024,-325.3589,22.26134,125.9154,-0.1866235,-1.525464,0.04528175,-13.60443,51.25796,-19.75385
13.371461392,-308.4373,17.03833,129.5737,-0.1537199,-1.8263,-0.02983458,-13.60443,51.25796,-19.75385
13.381458759,-273.3018,13.77395,136.5244,-0.1081733,-1.889833,-0.008361703,-13.60443,51.25796,-19.75385
13.391456127,-228.6902,15.13905,135.7927,-0.1313693,-1.534743,0.08012387,-7.461679,56.37197,-5.285336
13.401453018,-199.9542,20.30271,126.5252,-0.1669709,-1.197245,0.02554136,-7.461679,56.37197,-5.285336
13.411450386,-196.2007,26.83147,120.9158,-0.1486006,-1.058379,0.07955268,-7.461679,56.37197,-5.285336
13.421448708,-188.509,32.94476,115.1846,-0.1024839,-0.9000798,-0.1919211,-7.461679,56.37197,-5.285336
13.431446076,-181.9865,63.68929,112.197,0.7195531,-0.7530332,1.512732,-7.461679,56.37197,-5.285336
13.441442967,-128.1449,101.2593,73.1147699999998,0.4123913,-0.3414813,1.004435,-0.8277798,59.19405,7.650581
13.451440334,-127.2219,102.3277,40.98318,-0.02606486,-0.9672541,0.05490822,-0.8277798,59.19405,7.650581
13.461437702,-102.1163,73.6604799999999,19.70438,-0.5161082,-1.22433,-0.5328199,-0.8277798,59.19405,7.650581
13.47143507,-65.0118099999997,51.16594,4.949458,-0.5891083,-1.414009,-0.6580307,-0.8277798,59.19405,7.650581
13.481432915,-35.41433,23.21097,-2.671887,-0.4066615,-1.317171,-0.5066651,-0.8277798,59.19405,7.650581
13.491430283,-12.09323,2.793759,-11.08585,-0.3035632,-1.252153,-0.421675,4.416245,58.14247,13.62962
13.501427651,17.31965,-10.79793,-16.08545,-0.1899943,-1.279446,-0.4103802,4.416245,58.14247,13.62962
13.511425018,46.4864,-15.66483,-16.63419,-0.1027012,-1.257408,-0.4210666,4.416245,58.14247,13.62962
13.521422386,64.5771700000002,-17.4454,-15.35381,-0.09735056,-1.25754,-0.4469191,4.416245,58.14247,13.62962
13.531419754,75.5300899999998,-15.0713,-11.39071,-0.1545635,-1.24554,-0.3927433,4.416245,58.14247,13.62962
13.541417599,79.7143499999999,-8.89865800000003,-6.513045,-0.2432952,-1.138673,-0.3648587,4.432779,57.01503,15.24821
13.551414967,73.6840900000001,-2.904068,-2.488975,-0.3051734,-1.009077,-0.353777,4.432779,57.01503,15.24821
13.561412335,62.7311699999999,1.547359,-0.4159691,-0.3233908,-0.9472627,-0.3566326,4.432779,57.01503,15.24821
13.571409702,54.91645,4.218216,-0.7817937,-0.3405219,-0.9696483,-0.3762186,4.432779,57.01503,15.24821
13.58140707,55.10106,3.862102,-3.647419,-0.3348377,-1.013521,-0.403496,4.432779,57.01503,15.24821
13.591404438,65.3155699999998,1.250597,-6.93983999999998,-0.3022624,-1.088628,-0.4504339,3.673813,58.12323,12.01155
13.601402283,78.1760200000002,-4.150468,-9.74449500000001,-0.2560213,-1.111341,-0.4304085,3.673813,58.12323,12.01155
13.611399651,93.80546,-10.44182,-13.15886,-0.2050866,-1.096902,-0.3434002,3.673813,58.12323,12.01155
13.621397018,108.3888,-16.13965,-17.73167,-0.164192,-1.068067,-0.3075857,3.673813,58.12323,12.01155
13.631394386,119.4648,-20.53172,-22.48738,-0.1429994,-1.027147,-0.2363253,3.673813,58.12323,12.01155
13.641391277,130.6023,-22.60905,-25.77981,-0.1176655,-0.9993277,-0.1717689,2.951094,57.70075,7.6865
13.651388645,138.3555,-23.73675,-29.1332,-0.1167542,-0.9951063,-0.1373141,2.951094,57.70075,7.6865
13.661386967,146.1087,-24.74574,-33.0963,-0.1281087,-0.9869425,-0.1234177,2.951094,57.70075,7.6865
13.671383858,154.108,-24.21157,-37.91299,-0.136967,-1.007873,-0.1080824,2.951094,57.70075,7.6865
13.681381226,162.2304,-22.25294,-41.63221,-0.1346939,-1.024669,-0.08989617,2.214098,58.40135,1.226851
13.691378593,169.1837,-19.04791,-43.64424,-0.1476674,-1.034,-0.07264241,2.214098,58.40135,1.226851
13.701375961,172.1988,-16.13965,-45.53433,-0.1490615,-0.9852669,-0.05446665,2.214098,58.40135,1.226851
13.711373329,172.8141,-10.61988,-48.15607,-0.1432189,-0.9067613,-0.03774688,2.214098,58.40135,1.226851
13.721371174,166.7839,-4.922049,-51.57044,-0.1635503,-0.8619267,-0.03293722,2.214098,58.40135,1.226851
13.731368542,157.3078,-0.2332119,-54.00927,-0.178562,-0.8671616,-0.04152407,0.369482,58.69627,-7.238621
13.74136591,146.1702,3.090521,-54.74092,-0.1897131,-0.8967884,-0.06877583,0.369482,58.69627,-7.238621
13.751363277,134.7251,5.227206,-54.92383,-0.1928085,-0.9404274,-0.1046524,0.369482,58.69627,-7.238621
13.761360645,123.8337,7.72000599999998,-54.00927,-0.2072132,-0.9791154,-0.159175,0.369482,58.69627,-7.238621
13.771358013,113.1884,7.54194799999998,-52.0582,-0.2621095,-0.9894909,-0.2184201,0.369482,58.69627,-7.238621
13.781355858,102.6047,2.734407,-49.74131,-0.3116901,-0.9972307,-0.2666678,-2.955877,57.84923,-14.48363
13.791353226,92.1440600000002,-4.684639,-47.11957,-0.3489382,-1.012226,-0.2847849,-2.955877,57.84923,-14.48363
13.801350594,84.76007,-13.76555,-45.04657,-0.3877742,-1.020414,-0.2990724,-2.955877,57.84923,-14.48363
13.811347961,82.8525500000001,-22.431,-44.5588,-0.3896196,-1.051357,-0.2780039,-2.955877,57.84923,-14.48363
13.821345329,87.3444699999999,-29.79069,-44.132,-0.347661,-1.078694,-0.2230337,-2.955877,57.84923,-14.48363
13.83134222,96.2667800000002,-33.35183,-44.5588,-0.2893189,-1.095853,-0.1532589,-4.411793,56.65932,-18.93918
13.841340542,104.6968,-31.86802,-43.46133,-0.2374596,-1.104734,-0.06768191,-4.411793,56.65932,-18.93918
13.85133791,109.1888,-27.4166,-40.5957,-0.1925586,-1.08088,-0.0007656786,-4.411793,56.65932,-18.93918
13.861335278,106.789,-21.83747,-35.65707,-0.1517715,-1.019737,0.06088379,-4.411793,56.65932,-18.93918
13.871332169,94.66692,-17.26734,-29.37708,-0.1272699,-0.9221339,0.1062807,-4.411793,56.65932,-18.93918
13.881329536,73.6225600000002,-14.24037,-22.48738,-0.1179539,-0.8718399,0.1655949,-7.716139,54.31101,-23.78956
13.891327858,49.87073,-12.22239,-15.90254,-0.1478209,-0.8633453,0.2024952,-7.716139,54.31101,-23.78956
13.901325226,29.68783,-10.38247,-11.93944,-0.1478305,-0.9141632,0.2250013,-7.716139,54.31101,-23.78956
13.911322117,19.65792,-8.245782,-10.90294,-0.159407,-0.9977809,0.2461004,-7.716139,54.31101,-23.78956
13.921319485,19.96558,-6.58391499999997,-11.32973,-0.1532073,-1.068711,0.234622,-7.716139,54.31101,-23.78956
13.931316853,26.24197,-5.515573,-12.18333,-0.1356186,-1.096986,0.239863,-9.522398,51.61049,-26.62729
13.94131422,34.05669,-3.675649,-13.15886,-0.1011388,-1.090329,0.2555942,-9.522398,51.61049,-26.62729
13.951312065,38.67168,-1.538964,-12.67109,-0.08717446,-1.029941,0.2397613,-9.522398,51.61049,-26.62729
13.961309433,38.17942,-1.18285,-13.15886,-0.07586584,-0.9579821,0.2196228,-9.522398,51.61049,-26.62729
13.971306801,30.85696,-2.251192,-13.40274,-0.07677975,-0.9094543,0.2143476,-9.522398,51.61049,-26.62729
13.981304169,19.35025,-3.141478,-12.18333,-0.05434687,-0.9361582,0.221494,-9.892061,51.59787,-27.79107
13.991301537,10.85866,-3.141478,-9.56158399999997,-0.03564074,-0.9714981,0.2487493,-9.892061,51.59787,-27.79107
14.001298904,7.10513699999998,-1.95443,-8.52507999999999,-0.0246507,-1.011505,0.2607048,-9.892061,51.59787,-27.79107
14.011296749,7.90506900000002,-0.708030899999999,-7.91537200000002,-0.02060511,-1.044757,0.2822423,-9.892061,51.59787,-27.79107
14.021294117,11.53553,1.30995,-6.93983999999998,-0.01217455,-1.078664,0.2760148,-9.892061,51.59787,-27.79107
14.031291485,16.76585,2.615702,-5.90333699999997,-0.004844348,-1.080095,0.2630809,-10.97948,50.05766,-29.01681
14.041288853,21.68851,3.209226,-4.196156,-0.01142477,-1.067157,0.2573461,-10.97948,50.05766,-29.01681
14.051286221,25.07284,1.962826,-3.342566,-0.02279032,-1.032924,0.2525713,-10.97948,50.05766,-29.01681
14.061283588,25.81124,-0.2332119,-2.793829,-0.03521347,-0.9943772,0.2434901,-10.97948,50.05766,-29.01681
14.071281433,23.96524,-2.666659,-2.001209,-0.03250043,-1.008783,0.2564107,-10.97948,50.05766,-29.01681
14.081278801,23.10378,-4.565935,-0.4159691,-0.02728954,-1.02659,0.2640634,-10.96992,49.67403,-29.40178
14.091276169,25.19591,-5.75298199999998,0.4376215,-0.01760494,-1.022029,0.3166887,-10.96992,49.67403,-29.40178
14.10127306,28.8879,-5.396868,0.4985923,-0.002643568,-1.013739,0.3405893,-10.96992,49.67403,-29.40178
14.111270428,32.39529,-4.743992,-0.2940276,-0.001782772,-1.007242,0.3582934,-10.96992,49.67403,-29.40178
14.121267796,35.77962,-4.565935,-0.5379106,0.008627416,-1.016033,0.3841206,-10.96992,49.67403,-29.40178
14.131266117,39.53315,-4.328525,-0.4769399,0.01821667,-1.033157,0.4037299,-10.9584,49.28659,-30.23826
14.141263008,45.3788,-4.803344,-0.720822899999998,0.01411861,-1.048206,0.4142696,-10.9584,49.28659,-30.23826
14.151260376,53.93192,-6.64326800000002,-2.549946,0.0002507534,-1.061998,0.4238689,-10.9584,49.28659,-30.23826
14.161257744,64.5771700000002,-9.13606700000001,-4.988776,-0.007983708,-1.116626,0.4195901,-10.9584,49.28659,-30.23826
14.171255112,77.6837499999997,-10.32311,-6.20819099999998,0.003687822,-1.165194,0.503333,-10.9584,49.28659,-30.23826
14.181252956,91.7748599999998,-9.78894299999998,-6.513045,0.03748361,-1.198256,0.587512,-10.93392,48.50899,-32.23371
14.191250324,108.3888,-5.75298199999998,-6.33013299999999,0.05608619,-1.201166,0.6540024,-10.93392,48.50899,-32.23371
14.201247692,127.218,0.4196641,-6.39110400000002,0.07772455,-1.209734,0.732932,-10.93392,48.50899,-32.23371
14.21124506,145.3703,7.18583399999999,-5.29363,0.05560684,-1.252221,0.7047455,-10.93392,48.50899,-32.23371
14.221242428,173.0603,9.85669000000001,-6.39110400000002,-0.01270632,-1.275965,0.5943196,-11.93103,46.18511,-36.22844
14.231239796,205.2421,7.83871000000002,-14.86604,-0.09088048,-1.267179,0.5020884,-11.93103,46.18511,-36.22844
14.24123764,250.4075,8.49158700000002,-22.54836,-0.0795818,-1.351708,0.4274327,-11.93103,46.18511,-36.22844
14.251235008,310.9562,12.23079,-34.07183,-0.05790865,-1.361501,0.531727,-11.93103,46.18511,-36.22844
14.261232376,372.7971,21.78652,-42.42482,0.02087892,-1.326606,0.5636452,-11.93103,46.18511,-36.22844
14.271229744,434.638,27.42499,-48.33899,0.06252445,-1.053122,0.5687665,-11.13377,42.32569,-43.4271
14.281227112,479.6804,29.56168,-51.93626,-0.03370187,-0.4450005,0.5338417,-11.13377,42.32569,-43.4271
14.29122448,463.1279,28.61204,-68.7032200000001,-0.1447695,0.2037055,0.6113976,-11.13377,42.32569,-43.4271
14.301222324,397.1643,26.95017,-78.5195099999998,-0.2237289,0.5961013,0.7018851,-11.13377,42.32569,-43.4271
14.311219692,276.1284,20.42141,-80.2876700000002,-0.1825555,0.1660932,0.6186518,-11.13377,42.32569,-43.4271
14.32121706,145.9241,-0.4706214,-72.7272900000002,-0.2198348,0.2216535,0.2396702,-12.233,28.21307,-54.26361
14.331214428,44.02507,-28.18818,-55.16771,-0.06465141,-0.2160635,-0.1883346,-12.233,28.21307,-54.26361
14.341211319,-4.46311,-55.96508,-43.03453,0.032911,-0.4590358,-0.3458936,-12.233,28.21307,-54.26361
14.351209641,-5.201509,-71.5747600000002,-46.69278,-0.02869373,-0.3937647,-0.2491307,-12.233,28.21307,-54.26361
14.361207008,39.47161,-82.9704100000001,-44.9856,0.05015689,-0.8292823,-0.2194843,-12.233,28.21307,-54.26361
14.371203899,96.4513899999998,-92.8822600000001,-44.80268,0.1777074,-0.9464265,0.03205455,-13.01956,12.27619,-56.18662
14.381201267,126.2335,-99.7077900000002,-43.21745,0.2100053,-0.6123945,0.1951067,-13.01956,12.27619,-56.18662
14.391198635,120.0801,-107.9578,-40.96152,0.2517229,-0.262036,0.3165021,-13.01956,12.27619,-56.18662
14.401196003,78.1144900000003,-111.4595,-36.87648,0.3596547,-0.034207,0.6053151,-13.01956,12.27619,-56.18662
14.411193848,6.92053700000001,-105.3463,-32.18174,0.3456754,0.08984517,0.7034156,-13.01956,12.27619,-56.18662
14.421191216,-71.4727999999998,-98.7581500000001,-23.64583,0.3477759,0.08461779,0.817793,-16.73275,10.3561,-55.04329
14.431188583,-152.8813,-90.0927000000003,-14.7441,0.2835572,0.07657903,0.7154918,-16.73275,10.3561,-55.04329
14.441185951,-205.123,-86.6502599999999,-9.92740700000002,0.1829624,0.1116791,0.6266429,-16.73275,10.3561,-55.04329
14.451183319,-221.4293,-96.62146,-12.2443,0.04306181,0.2837315,0.1363021,-16.73275,10.3561,-55.04329
14.461180687,-235.5204,-109.9164,-33.15727,0.003090065,0.4079424,-0.1163484,-16.73275,10.3561,-55.04329
14.471178532,-253.0574,-125.2293,-50.29005,0.2594664,-0.0908893,-0.2200393,-21.17093,6.983241,-52.60773
14.4811759,-255.3956,-135.9721,-61.5696399999999,0.4778525,-0.455183,-0.09015349,-21.17093,6.983241,-52.60773
14.491173267,-232.1976,-139.5332,-65.59371,0.9146644,-0.7729932,0.08049709,-21.17093,6.983241,-52.60773
14.501170635,-186.6015,-135.9127,-69.8616599999999,0.5779656,-0.8786381,0.04330374,-21.17093,6.983241,-52.60773
14.511168003,-137.6826,-132.0548,-78.5804799999998,0.4971913,-0.98707,0.1042516,-21.17093,6.983241,-52.60773
14.521165848,-102.1779,-126.0602,-84.3727,0.401971,-0.8721102,0.1278383,-26.2739,16.82701,-46.24623
14.531163216,-91.6557000000002,-117.2761,-84.67756,0.4201049,-0.8216226,0.2952953,-26.2739,16.82701,-46.24623
14.541160584,-97.37829,-109.2042,-79.3730999999999,0.397705,-0.7946584,0.3695067,-26.2739,16.82701,-46.24623
14.551157951,-102.4855,-100.5387,-75.8368000000003,0.3479574,-0.8139858,0.5418857,-26.2739,16.82701,-46.24623
14.561155319,-111.5925,-90.9236299999999,-72.8492300000001,0.3107728,-0.878283,0.764505,-26.2739,16.82701,-46.24623
14.57115221,-108.7619,-80.2401999999998,-72.7882600000001,0.2010822,-0.8996938,0.838881,-33.09312,22.15251,-40.32568
14.581150532,-100.1473,-73.2366299999997,-77.4830099999999,0.1154695,-0.9597729,0.8309099,-33.09312,22.15251,-40.32568
14.5911479,-88.7020999999999,-70.0316,-79.25116,0.115864,-1.034965,0.7380848,-33.09312,22.15251,-40.32568
14.601145268,-81.8103899999998,-61.95968,-75.7148599999998,0.1822006,-0.9911224,0.553706,-33.09312,22.15251,-40.32568
14.611142159,-58.6123500000001,-69.14131,-75.10515,0.4263051,-1.089973,0.6940074,-33.09312,22.15251,-40.32568
14.621139526,-43.72131,-58.5765900000003,-70.95914,0.6308448,-1.184533,0.8047048,-37.63309,23.29742,-35.91461
14.631137848,-31.2916,-47.5964,-69.6787500000001,0.6974763,-1.048173,0.7992892,-37.63309,23.29742,-35.91461
14.641134739,-36.02966,-34.24212,-66.6302099999999,0.8461042,-0.8902674,0.899969,-37.63309,23.29742,-35.91461
14.651132107,-57.7508900000001,-19.22597,-60.53314,1.008745,-0.829733,1.003521,-37.63309,23.29742,-35.91461
14.661129475,-86.3638499999997,-6.10909600000003,-50.96073,1.117193,-0.8697621,1.014828,-37.63309,23.29742,-35.91461
14.671126842,-111.2848,4.811739,-40.65667,1.149545,-0.9333339,0.9544873,-41.77892,23.67735,-32.33521
14.68112421,-128.4526,11.3405,-32.18174,1.101686,-0.9560479,0.85934,-41.77892,23.67735,-32.33521
14.691122055,-137.0057,13.89265,-26.51146,1.014695,-1.074083,0.787257,-41.77892,23.67735,-32.33521
14.701119423,-130.1755,14.13006,-20.35341,0.9351733,-1.200788,0.7075061,-41.77892,23.67735,-32.33521
14.711116791,-110.1772,13.23978,-16.93905,0.8777657,-1.258699,0.6631135,-41.77892,23.67735,-32.33521
14.721114159,-83.2871799999999,12.05273,-16.02448,0.8302974,-1.248741,0.6325648,-43.66335,23.68398,-29.8981
14.731111526,-56.08949,10.98439,-16.08545,0.792451,-1.205912,0.615391,-43.66335,23.68398,-29.8981
14.741108894,-33.62986,10.45021,-15.7806,0.7627017,-1.153243,0.5938935,-43.66335,23.68398,-29.8981
14.751106739,-16.83129,10.62827,-14.86604,0.7561805,-1.066148,0.5670821,-43.66335,23.68398,-29.8981
14.761104107,-6.12450699999998,11.16244,-14.01245,0.7615938,-0.9656007,0.5507752,-43.66335,23.68398,-29.8981
14.771101475,-2.186381,12.52755,-13.2808,0.7519802,-0.8948651,0.5483809,-43.70774,25.59557,-28.74724
14.781098843,-2.92478,12.64625,-12.42721,0.7163161,-0.8647326,0.5197207,-43.70774,25.59557,-28.74724
14.79109621,-5.75530800000001,13.23978,-10.3542,0.7053149,-0.8499472,0.513036,-43.70774,25.59557,-28.74724
14.801094055,-9.878035,14.42682,-7.18372300000002,0.6841856,-0.8671015,0.4896271,-43.70774,25.59557,-28.74724
14.811091423,-12.0317,15.73257,-3.525478,0.6692955,-0.8793259,0.460463,-44.08118,25.52937,-28.74968
14.821088791,-11.8471,16.91962,0.620533899999998,0.6610896,-0.8848608,0.4044853,-44.08118,25.52937,-28.74968
14.831086159,-10.98563,17.15703,5.193341,0.6560201,-0.875742,0.3499342,-44.08118,25.52937,-28.74968
14.84108305,-9.878035,17.27574,9.76614900000002,0.6544608,-0.871124,0.3269641,-44.08118,25.52937,-28.74968
14.851080418,-8.83197000000002,18.52213,14.64381,0.6524762,-0.8435654,0.3159532,-44.08118,25.52937,-28.74968
14.861078739,-9.26270200000001,20.24335,18.78982,0.6450928,-0.7878807,0.3102088,-44.07948,25.5261,-29.13668
14.871076107,-12.7701,22.14263,21.5335,0.6347244,-0.7288138,0.3087759,-44.07948,25.5261,-29.13668
14.881072998,-19.72335,24.10126,22.87486,0.6258553,-0.6980204,0.2944262,-44.07948,25.5261,-29.13668
14.891070366,-28.03034,25.46636,24.15525,0.6275869,-0.6862578,0.3015988,-44.07948,25.5261,-29.13668
14.901067734,-35.84506,27.12823,25.4966,0.6272604,-0.6943541,0.3202659,-44.07948,25.5261,-29.13668
14.911065578,-42.61372,28.55269,27.26476,0.6193217,-0.7387624,0.3169411,-42.97715,26.67233,-29.52143
14.921062946,-46.92104,29.56168,29.64261,0.6185837,-0.777854,0.294938,-42.97715,26.67233,-29.52143
14.931060314,-49.01317,29.68038,33.48377,0.6226032,-0.8111565,0.2580892,-42.97715,26.67233,-29.52143
14.941057682,-50.3669,29.73973,38.91017,0.6312602,-0.8316143,0.2341506,-42.97715,26.67233,-29.52143
14.95105505,-52.15137,29.32427,44.76336,0.6451278,-0.8178304,0.2235942,-42.97715,26.67233,-29.52143
14.961052895,-53.81276,28.9088,49.09229,0.6468149,-0.7779586,0.2226238,-42.26698,28.57973,-29.52601
14.971050262,-55.78183,28.07787,51.775,0.6329755,-0.7154754,0.2302891,-42.26698,28.57973,-29.52601
14.98104763,-59.7814899999997,26.83147,52.62859,0.5975384,-0.6711014,0.2174179,-42.26698,28.57973,-29.52601
14.991044998,-64.4580200000003,24.75414,52.62859,0.5633849,-0.6689,0.2131697,-42.26698,28.57973,-29.52601
15.001042366,-68.3961399999997,21.13364,52.56762,0.5247014,-0.7102991,0.2333479,-42.26698,28.57973,-29.52601
15.011039734,-68.2115399999998,18.04732,51.40918,0.502358,-0.7918577,0.2372365,-39.70052,31.26518,-29.13373
15.021037579,-63.3504099999999,15.61387,50.55559,0.4871148,-0.8884016,0.2344165,-39.70052,31.26518,-29.13373
15.031034946,-54.48963,13.952,50.98238,0.5077884,-0.9510647,0.2454038,-39.70052,31.26518,-29.13373
15.041032314,-45.25964,14.24877,53.05539,0.5385736,-0.955894,0.2353013,-39.70052,31.26518,-29.13373
15.051029682,-38.12179,14.01136,54.94548,0.5548337,-0.9139089,0.2213835,-39.70052,31.26518,-29.13373
15.06102705,-33.75293,13.06172,55.18937,0.5378537,-0.8405611,0.2017725,-37.51415,33.95816,-27.51874
15.071024895,-33.26067,9.67863400000001,53.60413,0.4849167,-0.7728534,0.1745686,-37.51415,33.95816,-27.51874
15.081022263,-35.66046,3.921454,50.7385,0.414279,-0.7480563,0.169421,-37.51415,33.95816,-27.51874
15.09101963,-38.24486,-3.675649,45.67793,0.3420976,-0.7966231,0.1690807,-37.51415,33.95816,-27.51874
15.101016998,-36.21426,-10.56052,39.45891,0.3122073,-0.8906626,0.2060074,-37.51415,33.95816,-27.51874
15.111013889,-28.39954,-13.94361,33.60571,0.32605,-1.029205,0.2768482,-36.08932,37.39915,-26.75187
15.121011257,-14.86223,-13.94361,31.47174,0.370162,-1.170402,0.3639085,-36.08932,37.39915,-26.75187
15.131009579,2.551678,-10.20441,32.69115,0.4121844,-1.253201,0.4117142,-36.08932,37.39915,-26.75187
15.141006947,21.62698,-4.328525,34.70319,0.4190305,-1.228905,0.3968602,-36.08932,37.39915,-26.75187
15.151003838,38.36402,0.894483100000001,35.61775,0.4027932,-1.169915,0.3466228,-36.08932,37.39915,-26.75187
15.161001205,50.85526,3.268578,35.3129,0.348154,-1.063309,0.3256332,-34.63165,39.316,-26.29938
15.170998573,56.02406,3.56534,33.23989,0.3024271,-0.9643496,0.2993658,-34.63165,39.316,-26.29938
15.180996418,55.96252,3.031168,28.91097,0.2472836,-0.8831624,0.2630692,-34.63165,39.316,-26.29938
15.190993786,52.57819,2.734407,24.76495,0.2387217,-0.8682103,0.2693018,-34.63165,39.316,-26.29938
15.200991154,45.07114,3.743397,23.24068,0.2708142,-0.915237,0.3180727,-34.63165,39.316,-26.29938
15.210988522,36.39495,6.948425,25.31369,0.3197914,-0.9788197,0.37974,-33.90039,40.45234,-27.52541
15.220985889,28.27257,12.11208,29.70359,0.3653875,-1.044659,0.4146135,-33.90039,40.45234,-27.52541
15.230983734,22.79611,18.10667,35.19096,0.3983775,-1.088665,0.4198317,-33.90039,40.45234,-27.52541
15.240981102,18.18112,24.21996,42.14162,0.4028445,-1.06805,0.3796182,-33.90039,40.45234,-27.52541
15.25097847,10.9202,27.89981,48.54355,0.3797994,-1.010373,0.3069,-33.90039,40.45234,-27.52541
15.260975838,0.644147799999998,29.32427,53.78704,0.3564877,-0.9643158,0.2394495,-32.75339,39.68645,-29.12552
15.270973206,-10.12417,29.08686,58.2988700000002,0.3427983,-0.9374314,0.180123,-32.75339,39.68645,-29.12552
15.280970573,-20.95402,27.18758,61.9571200000001,0.3176237,-0.9213201,0.1366123,-32.75339,39.68645,-29.12552
15.290968418,-30.30707,23.56709,65.24954,0.2793956,-0.9357474,0.1295041,-32.75339,39.68645,-29.12552
15.300965786,-36.39886,19.88724,67.6273999999998,0.2188993,-0.9578426,0.1291366,-32.75339,39.68645,-29.12552
15.310963154,-37.44492,15.67322,69.4565300000002,0.186674,-1.005979,0.1426053,-30.50126,39.69624,-29.94734
15.320960522,-35.47586,12.40884,71.1637000000001,0.175432,-1.029193,0.1790027,-30.50126,39.69624,-29.94734
15.33095789,-32.27613,10.15345,72.4440900000001,0.1720895,-1.032555,0.1904952,-30.50126,39.69624,-29.94734
15.340955734,-30.49167,9.79733799999999,73.6025400000002,0.1839144,-1.013273,0.2009983,-30.50126,39.69624,-29.94734
15.350953102,-33.07607,11.16244,74.8829300000001,0.1788826,-1.004516,0.2129692,-27.63404,42.77147,-28.71628
15.36095047,-40.39852,12.11208,77.1388399999998,0.1723722,-0.9955563,0.1971852,-27.63404,42.77147,-28.71628
15.370947838,-53.01283,12.64625,79.8215600000003,0.14857,-0.9744884,0.1613281,-27.63404,42.77147,-28.71628
15.380944729,-68.3961399999997,12.29014,82.3823200000003,0.1063973,-0.9617556,0.1039692,-27.63404,42.77147,-28.71628
15.39094305,-85.1331800000002,10.74698,84.9431000000003,0.05478534,-0.9644173,0.08395969,-27.63404,42.77147,-28.71628
15.400940418,-101.378,6.59230999999998,88.3574600000001,0.00401011,-1.011853,0.05486728,-24.69519,45.40342,-27.48238
15.410937786,-115.7767,0.775778400000001,91.7108499999999,-0.05543093,-1.090392,0.04398387,-24.69519,45.40342,-27.48238
15.420934677,-125.6836,-4.625287,94.0277399999998,-0.1292397,-1.183134,-0.0008497308,-24.69519,45.40342,-27.48238
15.430932045,-129.1294,-8.72059999999997,93.78386,-0.1992884,-1.267737,-0.01410596,-24.69519,45.40342,-27.48238
15.440930367,-130.5447,-9.373476,94.5155100000002,-0.1938786,-1.294745,0.04954218,-24.69519,45.40342,-27.48238
15.450927258,-136.3288,-6.04974400000001,100.3687,-0.1475759,-1.241685,0.1188413,-21.0203,48.12781,-23.46976
15.460924626,-146.5434,-2.666659,108.6607,-0.1301311,-1.105946,0.1517977,-21.0203,48.12781,-23.46976
15.470921993,-162.7881,-0.05515479,111.5873,-0.134964,-0.9556116,0.02255189,-21.0203,48.12781,-23.46976
15.480919361,-183.0325,-1.657669,112.0751,-0.1523488,-0.8897251,-0.1210076,-21.0203,48.12781,-23.46976
15.490916729,-200.8157,-3.43824,110.0021,-0.1997616,-0.9121559,-0.2922494,-21.0203,48.12781,-23.46976
15.500914574,-206.2306,-4.565935,105.0635,-0.3048991,-1.056217,-0.6198537,-17.03222,53.16494,-16.177
15.510911942,-201.7386,-15.84289,104.6367,-0.2716734,-1.189062,-0.5523981,-17.03222,53.16494,-16.177
15.52090931,-192.1395,-25.39862,103.7831,-0.3595085,-1.158455,-0.6288251,-17.03222,53.16494,-16.177
15.530906677,-184.3248,-34.24212,102.1978,-0.4276151,-1.0614,-0.6555316,-17.03222,53.16494,-16.177
15.540904045,-180.6328,-46.35,99.8809399999997,-0.4249994,-1.018309,-0.625397,-17.03222,53.16494,-16.177
15.55090189,-179.279,-59.3481699999998,95.79589,-0.4630795,-0.9370955,-0.6425802,-12.34369,57.08576,-6.551046
15.560899258,-169.3722,-64.2744199999998,90.3085299999997,-0.388249,-0.9756948,-0.5618213,-12.34369,57.08576,-6.551046
15.570896626,-166.2955,-67.2420299999998,87.0161099999998,-0.3160338,-1.109429,-0.5164481,-12.34369,57.08576,-6.551046
15.580893994,-157.927,-66.9452699999998,87.3209600000001,-0.2837296,-1.220399,-0.4992471,-12.34369,57.08576,-6.551046
15.590891361,-152.2044,-71.8121700000002,88.2355200000002,-0.2841537,-1.277439,-0.5714966,-12.34369,57.08576,-6.551046
15.600889206,-147.4048,-81.0117900000002,89.69882,-0.3106939,-1.21247,-0.5303096,-6.4182,58.72737,2.386375
15.610886574,-137.498,-89.0837100000001,82.4433,-0.3243555,-1.211133,-0.5140145,-6.4182,58.72737,2.386375
15.620883942,-128.6372,-99.7671400000003,76.1633099999999,-0.2759864,-1.268485,-0.4604835,-6.4182,58.72737,2.386375
15.630881309,-113.6846,-107.1862,70.4930300000001,-0.1984316,-1.347556,-0.3476544,-6.4182,58.72737,2.386375
15.640878677,-89.3174399999998,-112.884,66.10313,-0.07061271,-1.483295,-0.2698344,-6.4182,58.72737,2.386375
15.650876522,-59.5968899999998,-113.5369,63.9691600000002,0.006001016,-1.485956,-0.1421874,-1.560448,58.06042,9.199111
15.66087389,-31.16853,-111.6376,62.5668299999998,0.07596593,-1.421132,-0.06001103,-1.560448,58.06042,9.199111
15.670871258,-8.52430299999999,-106.3552,61.4083800000003,0.1068449,-1.274564,-0.04095956,-1.560448,58.06042,9.199111
15.680868626,-0.894183000000003,-102.5567,59.1524599999997,0.1212202,-1.079847,-0.03481327,-1.560448,58.06042,9.199111
15.690865517,-2.001781,-99.4703800000002,56.1649,0.09350529,-0.8759883,-0.05396049,-1.560448,58.06042,9.199111
15.700862884,-13.07776,-95.9092299999999,50.92141,0.1090986,-0.7208623,-0.07556354,2.567005,57.35081,11.62027
15.710861206,-26.61507,-90.6862300000002,46.16569,0.1244874,-0.8139204,-0.08226646,2.567005,57.35081,11.62027
15.720858097,-34.0606,-84.03876,48.90937,0.1684873,-0.8724403,-0.04069199,2.567005,57.35081,11.62027
15.730855465,-34.42979,-75.9668400000001,48.97034,0.2085264,-0.901996,-0.01156104,2.567005,57.35081,11.62027
15.740852833,-30.7378,-67.7762100000002,48.05579,0.214151,-0.9415653,0.006625238,2.567005,57.35081,11.62027
15.750850201,-25.69208,-61.95968,48.60452,0.1847356,-0.9839156,0.009080302,5.87723,57.37566,11.64483
15.760848045,-18.12349,-54.06581,46.71443,0.1235193,-0.9155521,0.01826236,5.87723,57.37566,11.64483
15.770845413,-15.16989,-47.06223,45.61695,0.03775657,-0.8646385,-0.02084448,5.87723,57.37566,11.64483
15.780842781,-15.60063,-42.01728,43.05618,-0.0323621,-0.7906293,-0.06572745,5.87723,57.37566,11.64483
15.790840149,-18.61575,-38.51549,39.76376,-0.08962069,-0.7000405,-0.07905108,5.87723,57.37566,11.64483
15.800837517,-18.86189,-35.60722,33.97154,-0.0897778,-0.7174892,-0.07378198,8.879365,57.02488,12.5076
15.810835361,-13.75463,-32.10543,29.27679,-0.07376879,-0.7915263,-0.0742694,8.879365,57.02488,12.5076
15.820832729,-2.986313,-28.30688,27.69155,-0.06037522,-0.8301721,-0.07811141,8.879365,57.02488,12.5076
15.830830097,9.935666,-22.72776,21.41156,-0.05592322,-0.7820681,-0.08818165,8.879365,57.02488,12.5076
15.840827465,18.79645,-19.34468,18.24108,-0.07847287,-0.7497635,-0.1202153,8.879365,57.02488,12.5076
15.850824833,24.33444,-16.02094,14.88769,-0.1222693,-0.6762017,-0.1646654,10.77666,55.89788,12.52759
15.860822678,26.3035,-12.69721,11.35139,-0.1668997,-0.6098359,-0.1971479,10.77666,55.89788,12.52759
15.870820045,23.47298,-9.61088600000001,8.11993799999998,-0.2144177,-0.5711643,-0.2229181,10.77666,55.89788,12.52759
15.880817413,20.33478,-6.10909600000003,4.217809,-0.2519171,-0.5988425,-0.2458172,10.77666,55.89788,12.52759
15.890814781,19.65792,-3.141478,-0.7817937,-0.2944795,-0.6412989,-0.2265891,10.77666,55.89788,12.52759
15.900812149,22.18078,-0.826735599999998,-5.84236700000003,-0.3088267,-0.706917,-0.197354,13.01306,56.66838,11.70172
15.910809994,29.0725,0.953835399999999,-10.41517,-0.3039222,-0.812208,-0.1906354,13.01306,56.66838,11.70172
15.920807362,42.54827,1.131893,-15.04895,-0.2957278,-0.9375681,-0.206889,13.01306,56.66838,11.70172
15.930804729,62.97731,-1.123497,-19.43885,-0.2852651,-1.054233,-0.2336774,13.01306,56.66838,11.70172
15.940802097,88.8212699999998,-7.83031500000001,-22.85321,-0.279656,-1.198404,-0.2819863,12.65493,56.26833,9.701453
15.950799465,125.1874,-14.77454,-27.54796,-0.2444602,-1.230271,-0.282518,12.65493,56.26833,9.701453
15.96079731,160.3844,-20.41302,-33.64503,-0.2249828,-1.227017,-0.1815733,12.65493,56.26833,9.701453
15.970794678,184.8131,-23.14323,-42.18094,-0.2099201,-1.144024,-0.06628407,12.65493,56.26833,9.701453
15.980792046,206.5343,-21.48136,-50.77782,-0.2412061,-0.9811411,0.01125785,12.65493,56.26833,9.701453
15.990788937,216.8719,-20.76913,-61.0209000000001,-0.3298997,-0.8520709,-0.03025689,12.2932,56.60555,4.923622
16.000786304,213.8568,-21.65942,-68.3983600000001,-0.3674224,-0.8004621,-0.04456205,12.2932,56.60555,4.923622
16.010783672,203.8884,-20.29431,-72.3614699999999,-0.3867468,-0.7063792,-0.07661717,12.2932,56.60555,4.923622
16.020781994,191.3356,-16.79252,-76.5074799999999,-0.4143635,-0.6897511,-0.1115094,12.2932,56.60555,4.923622
16.030778885,171.7065,-13.46879,-78.0317500000003,-0.5164535,-0.7280426,-0.09265707,12.2932,56.60555,4.923622
16.040776253,145.3703,-8.30513400000001,-73.5199099999998,-0.4710066,-0.7069658,-0.01186237,10.06517,57.64475,-5.161194
16.050773621,111.9578,0.953835399999999,-67.1789499999997,-0.408787,-0.6951526,0.1354275,10.06517,57.64475,-5.161194
16.060771465,68.8229699999999,11.28115,-57.9723700000003,-0.329005,-0.6588357,0.2673661,10.06517,57.64475,-5.161194
16.070768833,18.30419,22.32069,-46.75375,-0.2494025,-0.6678528,0.2782369,10.06517,57.64475,-5.161194
16.080766201,-34.30673,33.65699,-33.76698,-0.1444658,-0.6739115,0.3981781,10.06517,57.64475,-5.161194
16.090763569,-77.62612,44.34042,-28.46252,-0.1813314,-0.7108768,0.3149797,6.353821,57.18179,-11.637
16.100760937,-105.6237,53.77744,-31.51106,-0.3204481,-0.7811443,0.1061026,6.353821,57.18179,-11.637
16.110758781,-111.2233,59.0004500000001,-36.20581,-0.4824421,-1.00906,-0.1285372,6.353821,57.18179,-11.637
16.120756149,-91.4095699999998,56.98247,-37.91299,-0.6134782,-1.277472,-0.3948065,6.353821,57.18179,-11.637
16.130753517,-53.44357,52.76846,-35.90095,-0.6767282,-1.495438,-0.6052137,6.353821,57.18179,-11.637
16.140750885,-7.66283799999999,41.84762,-30.47455,-0.6115405,-1.566791,-0.5780301,4.142185,57.58006,-7.591732
16.150748253,41.56374,29.32427,-30.41358,-0.5891496,-1.357845,-0.5742943,4.142185,57.58006,-7.591732
16.160746098,76.26849,16.80092,-34.37668,-0.5405829,-1.08567,-0.4088617,4.142185,57.58006,-7.591732
16.170743465,89.4366,6.35490099999999,-39.80308,-0.525528,-0.8980333,-0.2754135,4.142185,57.58006,-7.591732
16.180740833,90.7903299999998,-1.895078,-45.83919,-0.5252279,-0.8325365,-0.1285081,4.142185,57.58006,-7.591732
16.190738201,87.0368,-8.364487,-51.87529,-0.4884316,-0.8428571,-0.008446974,2.99437,58.7127,-7.606157
16.200735569,83.6524699999999,-11.98498,-57.6675100000003,-0.4450896,-0.8913071,0.07284788,2.99437,58.7127,-7.606157
16.210732937,81.80648,-12.22239,-61.81353,-0.3819357,-0.9312406,0.1392702,2.99437,58.7127,-7.606157
16.220730782,82.6064100000001,-10.02635,-65.2278800000001,-0.3309429,-0.9732099,0.1688638,2.99437,58.7127,-7.606157
16.230728149,84.2678099999998,-6.10909600000003,-68.4593399999997,-0.2871013,-1.023573,0.1994292,2.99437,58.7127,-7.606157
16.240725517,83.89861,-3.141478,-68.6422500000001,-0.2710331,-1.049098,0.1898362,1.163713,57.51997,-12.0645
16.250722885,83.3448100000003,-1.835726,-68.0935099999998,-0.2681266,-1.048774,0.1659023,1.163713,57.51997,-12.0645
16.26072073,83.3448100000003,-2.547954,-69.06905,-0.2979265,-1.046663,0.0893815,1.163713,57.51997,-12.0645
16.270718098,85.2523399999999,-3.972411,-70.4104000000003,-0.3103215,-1.060838,0.1071141,1.163713,57.51997,-12.0645
16.280715466,91.9594599999997,-5.100106,-73.3369999999999,-0.2800401,-1.087985,0.2080478,1.163713,57.51997,-12.0645
16.290712833,104.0815,-0.05515479,-77.7878600000002,-0.2420546,-1.110071,0.3142312,-2.183615,57.08053,-16.08652
16.300709724,115.2806,7.48259600000002,-82.6045499999999,-0.236705,-1.134336,0.3592142,-2.183615,57.08053,-16.08652
16.310707092,123.6491,14.84229,-84.3117300000001,-0.2295346,-1.152529,0.3735637,-2.183615,57.08053,-16.08652
16.320705414,126.295,20.24335,-83.39717,-0.2155016,-1.147454,0.3668379,-2.183615,57.08053,-16.08652
16.330702305,122.4184,23.32968,-80.0437800000002,-0.1928776,-1.133085,0.3481303,-2.183615,57.08053,-16.08652
16.340699673,115.5267,24.99154,-75.7148599999998,-0.1786057,-1.062881,0.3423444,-5.876453,55.4863,-21.39524
16.350697041,106.6044,26.2973,-74.6173899999999,-0.1807052,-0.9519617,0.3073835,-5.876453,55.4863,-21.39524
16.360695362,95.5283900000002,26.17859,-75.7148599999998,-0.1809259,-0.88907,0.2772173,-5.876453,55.4863,-21.39524
16.370692253,81.4372800000001,24.21996,-77.36107,-0.1764769,-0.8418292,0.2259898,-5.876453,55.4863,-21.39524
16.380689621,67.2846400000001,22.91421,-77.7878600000002,-0.1436889,-0.8759639,0.1953125,-5.876453,55.4863,-21.39524
16.390686989,57.74699,23.21097,-76.08068,-0.08748104,-0.9627957,0.1966727,-9.171244,52.75437,-26.63059
16.400684357,54.17806,22.79551,-72.8492300000001,-0.03700589,-1.056247,0.1774657,-9.171244,52.75437,-26.63059
16.410681725,53.31659,21.48975,-66.9960399999999,-0.001076642,-1.10122,0.1769361,-9.171244,52.75437,-26.63059
16.420679569,49.50153,19.64983,-57.7284899999999,0.03054942,-1.097862,0.2099018,-9.171244,52.75437,-26.63059
16.430676937,41.74834,18.10667,-49.5584,0.02601699,-1.06384,0.2204296,-9.171244,52.75437,-26.63059
16.440674305,31.84149,16.50415,-41.75415,0.01688364,-1.070241,0.2309759,-12.78287,49.66371,-29.02822
16.450671673,24.33444,14.13006,-35.5961,-0.01395073,-1.089509,0.2099772,-12.78287,49.66371,-29.02822
16.460669518,22.61151,11.69661,-31.38912,-0.02692582,-1.126076,0.1717232,-12.78287,49.66371,-29.02822
16.470666885,27.65724,7.24518699999998,-28.27961,-0.02751529,-1.14722,0.1458865,-12.78287,49.66371,-29.02822
16.480664253,35.77962,2.971816,-25.59689,-0.001828423,-1.139204,0.1697685,-13.8669,48.11696,-31.02796
16.490661621,42.79441,0.1822547,-21.93865,0.0357446,-1.114619,0.2261686,-13.8669,48.11696,-31.02796
16.500658989,45.87107,0.06354995,-17.12196,0.06966896,-1.076753,0.3079363,-13.8669,48.11696,-31.02796
16.510656357,44.20967,1.191245,-12.42721,0.07265961,-1.026364,0.3911903,-13.8669,48.11696,-31.02796
16.520654202,39.90235,2.675054,-8.76896300000003,0.05854857,-0.9733412,0.480695,-13.8669,48.11696,-31.02796
16.530651569,34.97969,4.099511,-7.73246000000002,0.01898081,-0.9668285,0.5343627,-13.46152,46.96508,-32.6316
16.540648937,32.02609,4.336921,-8.829934,-0.01746423,-1.023024,0.5789483,-13.46152,46.96508,-32.6316
16.550646305,34.30282,5.286559,-10.23226,-0.01875432,-1.108508,0.6392732,-13.46152,46.96508,-32.6316
16.56064415,42.79441,6.29554899999997,-11.57362,0.0008283792,-1.189688,0.7000391,-13.46152,46.96508,-32.6316
16.570641518,54.54726,7.60130100000003,-12.54915,-0.0003734235,-1.20242,0.7450306,-13.46152,46.96508,-32.6316
16.580638886,65.1309699999999,8.13547199999999,-14.92701,-0.007070771,-1.183115,0.7450374,-15.67933,45.79353,-34.25471
16.590636253,70.2997699999998,9.26316700000002,-15.04895,0.002458969,-1.197474,0.7483745,-15.67933,45.79353,-34.25471
16.600633145,74.4840200000002,11.69661,-13.09789,0.03146622,-1.235762,0.8028914,-15.67933,45.79353,-34.25471
16.610631466,80.3296800000001,16.62286,-10.47614,0.02945233,-1.257323,0.840708,-15.67933,45.79353,-34.25471
16.620628834,86.72913,23.03292,-8.64702100000002,-0.01400728,-1.277146,0.8924751,-15.67933,45.79353,-34.25471
16.630626202,93.7439300000001,30.0365,-8.28119799999998,-0.0803931,-1.296112,0.9280103,-15.25117,43.86732,-37.4668
16.640623093,100.1434,37.6336,-8.15925599999997,-0.1279703,-1.330823,0.9549024,-15.25117,43.86732,-37.4668
16.65062046,106.1736,46.3584,-7.42760699999997,-0.1447112,-1.37262,0.9903571,-15.25117,43.86732,-37.4668
16.660618782,114.6037,55.14255,-5.78139599999999,-0.1572628,-1.429871,1.027244,-15.25117,43.86732,-37.4668
16.67061615,124.7567,64.5795699999997,-4.135185,-0.1910297,-1.473607,1.046936,-15.25117,43.86732,-37.4668
16.680613041,135.8942,70.5148099999999,-2.793829,-0.2986626,-1.42697,0.959532,-15.17967,41.23389,-41.51646
16.690610409,140.7553,74.0165999999997,-4.074214,-0.3357594,-1.373415,0.891625,-15.17967,41.23389,-41.51646
16.700607777,133.1252,76.3313400000001,-1.635384,-0.4146344,-1.250242,0.7687368,-15.17967,41.23389,-41.51646
16.710605621,115.096,79.2396099999998,-0.1720861,-0.4220263,-1.14431,0.6782715,-15.17967,41.23389,-41.51646
16.720602989,88.1444,79.2989599999999,4.766546,-0.3770736,-1.023974,0.5618682,-15.17967,41.23389,-41.51646
16.730600357,64.8233,73.3637199999998,7.38828800000001,-0.2955543,-0.9826537,0.4406357,-13.18875,36.63956,-46.70275
16.740597725,49.00927,67.8439500000002,9.94906,-0.2288177,-1.064352,0.2371456,-13.18875,36.63956,-46.70275
16.750595093,42.67134,62.2648299999999,13.48536,-0.09907775,-1.384271,0.1508581,-13.18875,36.63956,-46.70275
16.760592937,50.79373,56.4483,27.87446,0.02941674,-1.583902,0.1487712,-13.18875,36.63956,-46.70275
16.770590305,73.86869,53.54004,39.51988,0.07547975,-1.493416,0.1663749,-13.18875,36.63956,-46.70275
16.780587673,96.6975200000002,55.32061,45.49501,0.04934278,-1.190245,0.2165929,-10.52125,32.07054,-49.49743
16.790585041,109.3734,54.60838,41.77579,-0.0640851,-0.8585253,0.2296268,-10.52125,32.07054,-49.49743
16.800582409,113.9884,48.67314,33.4228,-0.1543878,-0.7209932,0.2134772,-10.52125,32.07054,-49.49743
16.810580254,112.9423,42.97531,26.59408,-0.2142417,-0.674401,0.1771978,-10.52125,32.07054,-49.49743
16.820577621,109.9272,31.93577,24.15525,-0.187158,-0.6381036,0.1556053,-10.52125,32.07054,-49.49743
16.830574989,108.0196,19.82789,25.00884,-0.03769422,-0.527311,0.151009,-6.706656,29.41274,-52.22894
16.840572357,106.789,14.72359,21.41156,0.08553098,-0.3667954,0.2201464,-6.706656,29.41274,-52.22894
16.850569725,102.6047,12.23079,15.25352,0.08319869,-0.1638617,0.2574272,-6.706656,29.41274,-52.22894
16.86056757,90.9133999999998,10.2128,6.473727,0.04390251,-0.0158118,0.3244582,-6.706656,29.41274,-52.22894
16.870564938,73.4994900000002,8.84769999999998,-0.903735200000002,0.0433294,-0.06208752,0.3665858,-6.706656,29.41274,-52.22894
16.880562305,61.3774499999998,7.72000599999998,-4.683922,0.05829604,-0.1849368,0.3445768,-4.338713,24.14733,-54.63522
16.890559673,60.57751,4.693035,-6.45207400000002,0.08743189,-0.3092437,0.3450366,-4.338713,24.14733,-54.63522
16.900557041,68.4537700000001,0.953835399999999,-7.48857699999998,0.1069035,-0.3356701,0.2827946,-4.338713,24.14733,-54.63522
16.910554886,77.8068199999997,-3.082125,-7.06178199999999,0.1507526,-0.2832238,0.2903619,-4.338713,24.14733,-54.63522
16.920552254,85.1292699999998,-5.87168699999998,-6.695957,0.2558052,-0.1169483,0.2848715,-4.338713,24.14733,-54.63522
16.930549622,81.49881,-9.72959,-4.622952,0.3280087,0.0877168,0.3502579,-4.262873,20.71432,-55.77797
16.940546989,61.00825,-14.83389,-1.086647,0.2373399,0.220541,0.4044608,-4.262873,20.71432,-55.77797
16.950544834,30.67237,-18.98856,2.388686,0.2582266,0.1732227,0.4455942,-4.262873,20.71432,-55.77797
16.960542202,7.16667,-24.03351,7.44925899999998,0.2243392,0.007522579,0.5193966,-4.262873,20.71432,-55.77797
16.97053957,-4.278511,-25.57667,11.59527,0.2167412,-0.1573344,0.5754457,-4.262873,20.71432,-55.77797
16.980536461,-2.986313,-25.0425,14.0341,0.2050849,-0.235739,0.6353082,-4.918814,16.51116,-57.37373
16.990533829,0.2134152,-23.02452,15.68031,0.1678838,-0.1995195,0.6908786,-4.918814,16.51116,-57.37373
17.00053215,-1.878715,-19.9382,16.22905,0.1562671,-0.1764229,0.7440149,-4.918814,16.51116,-57.37373
17.010529518,-6.49370699999998,-16.49576,15.74128,0.1092069,-0.1076121,0.8244799,-4.918814,16.51116,-57.37373
17.020526409,-14.12383,-10.73858,11.29042,0.03051268,-0.06728277,0.8877788,-4.918814,16.51116,-57.37373
17.030523777,-22.73848,-3.556944,5.681107,-0.007056948,-0.0645752,0.8931078,-5.63854,14.98738,-56.98418
17.040521145,-33.44526,1.606712,0.803446099999999,-0.02200303,-0.07315781,0.8902646,-5.63854,14.98738,-56.98418
17.05051899,-45.25964,5.93943499999998,-3.342566,-0.03383771,-0.1183878,0.8587109,-5.63854,14.98738,-56.98418
17.060516357,-54.2435,8.49158700000002,-6.20819099999998,-0.03035326,-0.2013983,0.8075186,-5.63854,14.98738,-56.98418
17.070513725,-58.8584900000002,9.02575799999998,-8.15925599999997,-0.02385235,-0.2642556,0.7218584,-6.405445,15.74574,-56.6068
17.080511093,-60.5814199999998,7.06713000000001,-9.13478800000001,-0.01866048,-0.3347163,0.6577382,-6.405445,15.74574,-56.6068
17.090508461,-60.1506900000001,3.684045,-9.50061200000003,-0.01434919,-0.4107504,0.5706495,-6.405445,15.74574,-56.6068
17.100506306,-57.6278200000001,-0.826735599999998,-11.93944,-0.02301909,-0.4691699,0.5247363,-6.405445,15.74574,-56.6068
17.110503674,-53.44357,-4.269173,-13.95148,-0.01890728,-0.5321646,0.5352741,-6.405445,15.74574,-56.6068
17.120501041,-44.95198,-5.75298199999998,-14.01245,-0.02587423,-0.5494452,0.5735767,-5.706804,18.04058,-55.77489
17.130498409,-37.81413,-5.931039,-13.64662,-0.0251677,-0.5338933,0.6252577,-5.706804,18.04058,-55.77489
17.140496254,-35.29126,-4.150468,-12.61012,-0.02872265,-0.4733339,0.6659273,-5.706804,18.04058,-55.77489
17.150493622,-38.30639,-2.844716,-11.57362,-0.03468155,-0.4156904,0.6587442,-5.706804,18.04058,-55.77489
17.16049099,-46.85951,-1.895078,-10.781,-0.03220623,-0.3926102,0.6266693,-5.706804,18.04058,-55.77489
17.170488358,-56.27409,-4.565935,-10.3542,-0.06080325,-0.4026064,0.5520639,-6.141661,20.71006,-54.63087
17.180485725,-65.3810100000001,-10.0857,-11.14682,-0.1010334,-0.4933672,0.4918568,-6.141661,20.71006,-54.63087
17.19048357,-69.8729400000002,-17.32669,-12.30527,-0.1481968,-0.6298513,0.4417237,-6.141661,20.71006,-54.63087
17.200480938,-66.6116800000002,-24.33027,-13.03692,-0.1647826,-0.7847962,0.432221,-6.141661,20.71006,-54.63087
17.210478306,-53.99736,-29.07846,-14.3173,-0.1740593,-0.8602731,0.48825,-6.141661,20.71006,-54.63087
17.220475674,-34.73746,-33.7673,-15.41478,-0.1763227,-0.9193342,0.5705842,-6.184643,22.61893,-53.8025
17.230473042,-14.00076,-36.08204,-14.80507,-0.1740886,-0.9070792,0.6303992,-6.184643,22.61893,-53.8025
17.240470886,4.274609,-36.31945,-13.64662,-0.1699799,-0.8396398,0.6629179,-6.184643,22.61893,-53.8025
17.250468254,17.44272,-35.60722,-13.21983,-0.1433103,-0.7544055,0.6795995,-6.184643,22.61893,-53.8025
17.260465622,27.9649,-36.61621,-15.84157,-0.1463611,-0.6699734,0.672883,-6.184643,22.61893,-53.8025
17.27046299,36.02575,-39.04966,-21.81671,-0.1735343,-0.6244291,0.6638258,-7.744009,25.28051,-52.60231
17.280460358,42.73288,-43.02627,-28.09669,-0.2002662,-0.6020961,0.6662595,-7.744009,25.28051,-52.60231
17.290458202,45.31727,-45.81583,-35.04736,-0.2174947,-0.5918589,0.7069658,-7.744009,25.28051,-52.60231
17.30045557,42.85594,-47.65575,-39.62017,-0.2165911,-0.611982,0.7892845,-7.744009,25.28051,-52.60231
17.310452938,36.64109,-46.11259,-41.93706,-0.1633257,-0.6692188,0.8978432,-7.744009,25.28051,-52.60231
17.320449829,24.21138,-44.62878,-40.35182,-0.1719958,-0.6748144,0.8892453,-9.600023,24.50193,-53.06367
17.330448151,16.45819,-41.2457,-40.90055,-0.1396888,-0.6823494,0.8987625,-9.600023,24.50193,-53.06367
17.340445519,10.1818,-38.10002,-41.20541,-0.1228405,-0.7241496,0.861415,-9.600023,24.50193,-53.06367
17.350442886,7.53587,-38.10002,-42.18094,-0.1456843,-0.7556154,0.7647905,-9.600023,24.50193,-53.06367
17.360439777,9.56646600000001,-40.53347,-44.07103,-0.1505889,-0.7808594,0.7250838,-9.600023,24.50193,-53.06367
17.370437145,16.02746,-43.20433,-46.50986,-0.1247956,-0.8308263,0.7317517,-12.88077,22.95948,-52.62861
17.380435467,26.54964,-43.67915,-47.24152,-0.09520616,-0.8738438,0.7991905,-12.88077,22.95948,-52.62861
17.390432835,33.25676,-41.3644,-46.14404,-0.03718146,-0.8988136,0.9187398,-12.88077,22.95948,-52.62861
17.400429726,38.30248,-36.14139,-41.87609,0.009884563,-0.8594661,1.027763,-12.88077,22.95948,-52.62861
17.410427094,34.48742,-30.14681,-37.0594,0.01622354,-0.7806613,1.076068,-12.88077,22.95948,-52.62861
17.420424461,23.04224,-26.2889,-34.01086,-0.002233919,-0.7063051,1.063638,-15.84726,21.41555,-52.64275
17.430422306,6.85900399999999,-23.55869,-30.5965,-0.03605695,-0.6710101,1.011044,-15.84726,21.41555,-52.64275
17.440419674,-10.80103,-22.01553,-27.79184,-0.05207634,-0.6757712,0.9502943,-15.84726,21.41555,-52.64275
17.450417042,-26.06128,-21.65942,-24.56039,-0.05658094,-0.7232081,0.8742208,-15.84726,21.41555,-52.64275
17.46041441,-35.78353,-22.25294,-21.63379,-0.0481616,-0.7582366,0.7986001,-15.84726,21.41555,-52.64275
17.470411778,-40.89079,-22.25294,-18.82914,-0.01013316,-0.8123363,0.7521259,-17.31647,19.88615,-52.25875
17.480409622,-41.69072,-22.60905,-15.59769,0.0335042,-0.8528932,0.7396172,-17.31647,19.88615,-52.25875
17.49040699,-37.75259,-22.25294,-12.54915,0.06339122,-0.8871764,0.752017,-17.31647,19.88615,-52.25875
17.500404358,-31.04547,-20.59108,-9.98837900000002,0.1000424,-0.8920161,0.7811474,-17.31647,19.88615,-52.25875
17.510401726,-24.15374,-17.92022,-8.098285,0.137218,-0.8467012,0.8203142,-17.31647,19.88615,-52.25875
17.520399571,-21.13862,-15.66483,-6.39110400000002,0.1451726,-0.7769229,0.8346397,-19.20143,20.25898,-51.50068
17.530396938,-21.81548,-14.12167,-5.537513,0.1498314,-0.7136714,0.8331795,-19.20143,20.25898,-51.50068
17.540394306,-25.69208,-12.16304,-4.927805,0.1495962,-0.675335,0.8279057,-19.20143,20.25898,-51.50068
17.550391674,-30.49167,-10.61988,-4.50101,0.146327,-0.6577005,0.797278,-19.20143,20.25898,-51.50068
17.560389042,-34.9836,-9.31412399999998,-4.440039,0.1437189,-0.6492639,0.7690444,-19.20143,20.25898,-51.50068
17.570386887,-38.24486,-8.42383900000002,-5.659454,0.1438615,-0.6322715,0.7140035,-20.36078,21.77905,-50.67863
17.580384255,-41.25998,-7.35549600000001,-6.93983999999998,0.1617998,-0.6283937,0.6742495,-20.36078,21.77905,-50.67863
17.590381622,-44.27511,-5.515573,-7.61051899999998,0.1778335,-0.6013993,0.6158283,-20.36078,21.77905,-50.67863
17.60037899,-49.4439,-2.488602,-8.34216799999998,0.1971516,-0.5931032,0.5779849,-20.36078,21.77905,-50.67863
17.610376358,-56.21256,0.597721199999998,-8.03731400000003,0.2234641,-0.5938535,0.5453961,-20.36078,21.77905,-50.67863
17.620374203,-64.3964800000001,3.209226,-6.81789900000001,0.2257283,-0.5852855,0.5209826,-20.38158,22.54956,-49.52168
17.630371571,-74.0571999999997,5.108501,-6.14722099999998,0.2259133,-0.5700476,0.4865208,-20.38158,22.54956,-49.52168
17.640368938,-86.8561099999999,5.405263,-5.110718,0.2151567,-0.5692058,0.4425104,-20.38158,22.54956,-49.52168
17.650366306,-100.1473,4.277568,-3.464507,0.1889186,-0.5746109,0.3865641,-20.38158,22.54956,-49.52168
17.660364151,-114.0538,2.081531,-1.696355,0.1692192,-0.590402,0.3497522,-20.43581,24.84532,-47.92134
17.670361519,-127.8988,-0.9454404,0.5595631,0.159517,-0.6196152,0.3114905,-20.43581,24.84532,-47.92134
17.680358887,-140.0208,-3.556944,2.876452,0.1700599,-0.6622356,0.3043045,-20.43581,24.84532,-47.92134
17.690356255,-150.3584,-6.58391499999997,4.827517,0.1496989,-0.7201325,0.2876047,-20.43581,24.84532,-47.92134
17.700353146,-156.5117,-11.56951,6.83955100000002,0.1020305,-0.8020422,0.3078091,-20.43581,24.84532,-47.92134
17.710351467,-155.8349,-15.84289,7.937025,0.04247593,-0.8748803,0.2830458,-20.91012,28.99081,-44.65658
17.720348835,-148.5124,-20.23496,5.80304899999998,-0.006360842,-0.9218176,0.2510784,-20.91012,28.99081,-44.65658
17.730346203,-137.9287,-23.32128,2.876452,0.01294703,-0.9892312,0.2769051,-20.91012,28.99081,-44.65658
17.740343094,-129.191,-24.50833,2.510627,0.06678949,-1.026486,0.3376001,-20.91012,28.99081,-44.65658
17.750340462,-127.0988,-23.43999,4.095867,0.1367116,-1.037619,0.4035245,-20.91012,28.99081,-44.65658
17.760338783,-131.5908,-19.70079,8.97352800000002,0.1973148,-1.019119,0.4886006,-21.04305,34.35992,-39.46044
17.770335674,-144.4512,-11.2134,15.74128,0.2476205,-0.971916,0.5464085,-21.04305,34.35992,-39.46044
17.780333042,-163.0343,-2.904068,20.98477,0.2656404,-0.8939541,0.530564,-21.04305,34.35992,-39.46044
17.79033041,-188.8782,2.675054,24.33816,0.2046216,-0.8130505,0.4229699,-21.04305,34.35992,-39.46044
17.800328731,-215.8298,0.4790165,22.26515,0.08094525,-0.7967995,0.2360581,-21.04305,34.35992,-39.46044
17.810325623,-235.6435,-11.56951,17.63138,-0.07059103,-0.9068842,0.004241234,-21.93332,40.10377,-34.2719
17.82032299,-239.7662,-28.54429,14.33895,-0.116527,-1.16191,-0.09850687,-21.93332,40.10377,-34.2719
17.830320358,-227.0288,-44.51008,15.13157,-0.07408028,-1.528746,-0.1315082,-21.93332,40.10377,-34.2719
17.840317726,-187.8321,-54.06581,18.85079,0.007251751,-1.81046,-0.08036976,-21.93332,40.10377,-34.2719
17.850315571,-131.4677,-56.91472,22.20418,0.07514255,-1.919088,0.0626341,-21.93332,40.10377,-34.2719
17.860312939,-78.1183899999998,-50.92013,23.78942,0.09164374,-1.808823,0.1812638,-21.33912,45.82597,-25.45988
17.870310307,-43.90591,-42.67015,26.47214,0.08371016,-1.56482,0.3109089,-21.33912,45.82597,-25.45988
17.880307674,-34.9836,-34.24212,30.43524,0.006218254,-1.278634,0.3152775,-21.33912,45.82597,-25.45988
17.890305519,-52.27443,-29.79069,32.20339,-0.1245336,-1.064029,0.2594568,-21.33912,45.82597,-25.45988
17.900302887,-82.7949100000001,-28.84105,33.66669,-0.1900243,-0.9774781,0.1944623,-21.33912,45.82597,-25.45988
17.910300255,-114.5461,-32.34284,36.89814,-0.2016492,-1.086713,0.1246386,-21.07202,50.05356,-20.64188
17.920297623,-137.4364,-34.53888,42.93424,-0.1605074,-1.332032,0.0978298,-21.07202,50.05356,-20.64188
17.930294991,-141.313,-36.08204,53.42121,-0.08683947,-1.595769,0.1121266,-21.07202,50.05356,-20.64188
17.940292835,-128.268,-36.2601,62.9936300000003,-0.04322986,-1.763871,0.1278868,-21.07202,50.05356,-20.64188
17.950290203,-104.4546,-32.69896,69.3345900000003,-0.01883832,-1.790216,0.1699658,-21.07202,50.05356,-20.64188
17.960287571,-79.4721200000002,-29.61263,72.7489500000001,-0.06244265,-1.725295,0.1896467,-19.63692,52.01398,-15.02937
17.970284939,-60.7044899999999,-27.23854,73.2976800000002,-0.1227334,-1.548919,0.2643642,-19.63692,52.01398,-15.02937
17.980282784,-55.90489,-23.7961,70.9807999999999,-0.1821404,-1.343542,0.2672864,-19.63692,52.01398,-15.02937
17.990280151,-65.3810100000001,-22.37165,70.0052600000002,-0.2028185,-1.28179,0.2098774,-19.63692,52.01398,-15.02937
18.000277519,-82.7949100000001,-25.63603,71.1637000000001,-0.1614281,-1.282944,0.1006902,-19.63692,52.01398,-15.02937
18.010274887,-93.1325000000001,-30.56227,75.9804,-0.06159988,-1.307521,0.01390024,-17.46297,54.73095,-10.57636
18.020272255,-94.3631700000001,-35.60722,79.6996199999998,0.06768934,-1.394748,-0.02650307,-17.46297,54.73095,-10.57636
18.0302701,-82.6103100000002,-37.56585,83.4188299999999,0.1873862,-1.461092,0.05849188,-17.46297,54.73095,-10.57636
18.040267468,-65.1348799999998,-29.73134,91.1011400000002,0.3719396,-1.445453,0.4123124,-17.46297,54.73095,-10.57636
18.050264835,-51.2899,-11.27275,95.9788100000001,0.4538447,-1.31108,0.6873162,-17.46297,54.73095,-10.57636
18.060262203,-40.76772,10.62827,91.7718300000001,0.3861556,-1.13078,0.7290239,-13.77601,56.70171,-5.721173
18.070259571,-41.62918,25.22895,83.7846500000002,0.2079185,-0.960351,0.5153673,-13.77601,56.70171,-5.721173
18.080257416,-47.84404,32.94476,78.0534100000002,0.04538483,-0.9521841,0.2725319,-13.77601,56.70171,-5.721173
18.090254784,-57.25863,34.36922,77.1998099999998,-0.09624007,-0.9401313,0.0904382,-13.77601,56.70171,-5.721173
18.100252152,-66.6116800000002,35.49691,78.1753500000001,-0.1627173,-1.010162,-0.03720769,-13.77601,56.70171,-5.721173
18.110249043,-74.9801900000002,34.54728,84.27242,-0.167063,-1.119337,-0.169259,-10.13293,58.27094,-3.315431
18.120247364,-79.7797900000002,32.11383,92.0766799999999,-0.1305313,-1.199446,-0.2932533,-10.13293,58.27094,-3.315431
18.130244732,-80.27206,28.43398,99.8199600000001,-0.07628676,-1.183438,-0.3603526,-10.13293,58.27094,-3.315431
18.1402421,-77.62612,24.99154,106.7706,-0.0353867,-1.103146,-0.3302943,-10.13293,58.27094,-3.315431
18.150238991,-73.6879999999999,20.48076,107.9291,-0.03166839,-1.015528,-0.3221875,-10.13293,58.27094,-3.315431
18.160237312,-65.3810100000001,15.25776,106.2829,-0.02681983,-0.9617636,-0.2987595,-5.281559,58.71183,-0.4432964
18.17023468,-50.7361,12.23079,101.0394,0.005404051,-0.9906027,-0.2806225,-5.281559,58.71183,-0.4432964
18.180232048,-33.876,10.62827,95.8568599999999,0.01100547,-0.9244645,-0.2342273,-5.281559,58.71183,-0.4432964
18.190228939,-24.09221,10.92503,91.9547300000003,0.0001738433,-0.8397825,-0.1969014,-5.281559,58.71183,-0.4432964
18.200226307,-23.66148,10.86568,88.4794,-0.03263465,-0.7798766,-0.2174384,-0.4318771,59.156,2.815838
18.210224628,-30.12247,8.43223400000003,84.6382400000003,-0.07605681,-0.82957,-0.2436716,-0.4318771,59.156,2.815838
18.22022152,-31.96847,4.099511,82.0774800000003,-0.1249558,-0.9251157,-0.277062,-0.4318771,59.156,2.815838
18.230218887,-24.76908,-0.9454404,78.0534100000002,-0.1522494,-0.9774281,-0.3057155,-0.4318771,59.156,2.815838
18.240216255,-10.49337,-8.42383900000002,72.2611800000002,-0.1501241,-0.9872802,-0.3248597,-0.4318771,59.156,2.815838
18.250213623,9.50493299999999,-15.60548,65.5544,-0.1017208,-0.9953595,-0.3034061,4.371958,59.20245,4.077029
18.260211468,32.82603,-20.41302,57.7501400000001,-0.03688203,-0.9434343,-0.2389248,4.371958,59.20245,4.077029
18.270208836,52.82433,-22.72776,48.78743,0.0176561,-0.8357154,-0.1619968,4.371958,59.20245,4.077029
18.280206204,66.0539700000001,-22.431,39.76376,0.04404304,-0.734647,-0.1137327,4.371958,59.20245,4.077029
18.290203571,69.8074999999999,-20.17561,31.77659,0.01167789,-0.6450583,-0.0778061,4.371958,59.20245,4.077029
18.300201416,69.3152300000001,-17.08928,23.30166,-0.02660362,-0.5780538,-0.0543064,7.759553,58.83377,2.491575
18.310198784,65.5617099999999,-14.18102,15.13157,-0.07038788,-0.5818126,-0.05183623,7.759553,58.83377,2.491575
18.320196152,61.3159100000002,-13.58749,7.022464,-0.1188957,-0.6198078,-0.0632277,7.759553,58.83377,2.491575
18.33019352,62.3619799999998,-13.76555,-1.147618,-0.1682018,-0.6677393,-0.09662973,7.759553,58.83377,2.491575
18.340191364,67.7768999999997,-16.0803,-9.50061200000003,-0.1785845,-0.7381044,-0.1166937,7.759553,58.83377,2.491575
18.350188732,77.3145499999999,-20.35367,-18.52429,-0.1742892,-0.7851382,-0.1147748,9.639508,59.20096,-0.7215652
18.3601861,91.8364,-24.50833,-27.48699,-0.1661813,-0.8006062,-0.07027736,9.639508,59.20096,-0.7215652
18.370183468,106.8505,-28.24753,-36.57163,-0.1706812,-0.7935234,-0.03007095,9.639508,59.20096,-0.7215652
18.380180836,118.3572,-31.33385,-46.14404,-0.1838194,-0.7669368,0.0359886,9.639508,59.20096,-0.7215652
18.390178681,127.0334,-31.2745,-54.37509,-0.1779798,-0.7646882,0.1096786,9.639508,59.20096,-0.7215652
18.400176048,130.91,-29.9094,-61.3257600000001,-0.1688283,-0.7320756,0.1488975,9.299957,58.39984,-5.170812
18.410173416,130.2331,-27.77271,-66.9960399999999,-0.1542942,-0.6993644,0.2402717,9.299957,58.39984,-5.170812
18.420170784,126.7257,-21.60007,-72.97117,-0.1552236,-0.6761935,0.2254315,9.299957,58.39984,-5.170812
18.430168629,118.4187,-16.31771,-77.6659199999997,-0.1671675,-0.662753,0.2331061,9.299957,58.39984,-5.170812
18.440165997,107.0351,-11.51016,-81.9338799999999,-0.1851498,-0.6913367,0.228359,9.299957,58.39984,-5.170812
18.450163365,96.5129200000002,-6.88067700000001,-86.0189100000003,-0.2075178,-0.746476,0.1987405,5.965044,57.93642,-12.03084
18.460160732,87.0368,-3.497592,-89.73813,-0.235652,-0.8061948,0.1590831,5.965044,57.93642,-12.03084
18.4701581,79.5912799999999,0.1229023,-92.3598699999997,-0.2195451,-0.8856544,0.1499826,5.965044,57.93642,-12.03084
18.480155945,72.5149600000002,6.65166300000002,-93.2134599999998,-0.1997383,-0.9542316,0.1537943,5.965044,57.93642,-12.03084
18.490153313,65.7463099999998,13.35848,-91.07949,-0.2028579,-1.021958,0.1408956,5.965044,57.93642,-12.03084
18.500150681,59.59298,19.59048,-87.6041600000002,-0.2203903,-1.075027,0.1146182,1.943913,57.10111,-17.28144
18.510148049,53.56273,24.87284,-83.3362000000001,-0.2500465,-1.079216,0.09265645,1.943913,57.10111,-17.28144
18.520145893,45.5634,28.84945,-78.7633999999999,-0.2744046,-1.079781,0.08360611,1.943913,57.10111,-17.28144
18.530143261,36.14882,29.62103,-72.7272900000002,-0.2908156,-1.088506,0.06832253,1.943913,57.10111,-17.28144
18.540140629,28.58023,29.0275,-66.0814700000002,-0.2790665,-1.117488,0.06208802,1.943913,57.10111,-17.28144
18.550137997,25.31897,29.38362,-61.50867,-0.2418437,-1.153798,0.0495895,-2.136084,55.52805,-19.75492
18.560134888,27.28804,29.91779,-59.19178,-0.2334621,-1.186152,0.0007684623,-2.136084,55.52805,-19.75492
18.570133209,34.24129,28.73074,-58.58208,-0.228622,-1.211125,-0.03034099,-2.136084,55.52805,-19.75492
18.580130577,41.56374,24.87284,-57.4236299999999,-0.2171867,-1.223704,-0.04902215,-2.136084,55.52805,-19.75492
18.590127945,47.47094,19.41242,-55.04577,-0.2171918,-1.223862,-0.06625083,-2.136084,55.52805,-19.75492
18.600124836,51.03986,12.46819,-51.75335,-0.2396266,-1.19722,-0.0800973,-5.119106,55.11157,-21.38765
18.610123158,53.13199,5.464615,-49.68034,-0.2465323,-1.192339,-0.06285777,-5.119106,55.11157,-21.38765
18.620120525,54.60879,1.428654,-47.11957,-0.2340438,-1.233467,-0.01740423,-5.119106,55.11157,-21.38765
18.630117893,57.8700499999997,-0.886087999999999,-43.27842,-0.2247212,-1.287856,0.01944388,-5.119106,55.11157,-21.38765
18.640114784,65.25404,-0.5299737,-39.19337,-0.216526,-1.308304,0.0505423,-5.119106,55.11157,-21.38765
18.650112152,75.0993600000001,0.4790165,-35.77901,-0.1980882,-1.276843,0.1031454,-7.32567,53.55311,-23.78273
18.660110474,82.1756700000001,2.437645,-32.79144,-0.1756318,-1.199466,0.1729585,-7.32567,53.55311,-23.78273
18.670107365,83.7139999999998,4.277568,-30.5965,-0.1417409,-1.108275,0.2408337,-7.32567,53.55311,-23.78273
18.680104732,78.7298199999999,7.12648200000003,-28.76737,-0.1112508,-1.044057,0.2891002,-7.32567,53.55311,-23.78273
18.6901021,70.1151699999999,9.559929,-26.32854,-0.08841581,-1.013639,0.3244672,-7.32567,53.55311,-23.78273
18.700100422,60.4544399999999,10.62827,-24.19457,-0.08197981,-1.019527,0.3043573,-8.788639,52.37682,-26.62578
18.710097313,54.05499,10.33151,-22.97515,-0.07170146,-1.048831,0.2660608,-8.788639,52.37682,-26.62578
18.720094681,56.33172,10.45021,-23.34098,-0.08587716,-1.073992,0.2024414,-8.788639,52.37682,-26.62578
18.730092049,63.3465099999998,7.72000599999998,-24.56039,-0.09588187,-1.112864,0.1713614,-8.788639,52.37682,-26.62578
18.740089893,75.2224199999998,6.948425,-25.35301,-0.08775493,-1.130048,0.1876233,-8.788639,52.37682,-26.62578
18.750087261,90.6057299999999,7.66065299999999,-26.02369,-0.07811497,-1.123798,0.2124908,-10.97581,50.05057,-29.85531
18.760084629,104.3276,9.02575799999998,-26.51146,-0.08731116,-1.100352,0.2455226,-10.97581,50.05057,-29.85531
18.770081997,110.3579,8.610291,-25.47495,-0.08772802,-1.051503,0.2742252,-10.97581,50.05057,-29.85531
18.780079365,106.912,7.24518699999998,-23.21903,-0.05976258,-0.9824101,0.3296735,-10.97581,50.05057,-29.85531
18.790077209,95.5899200000001,5.702025,-19.7437,-0.0343798,-0.905628,0.3812957,-11.31117,48.87618,-33.46403
18.800074577,78.4836799999998,4.218216,-16.8171,-0.003877494,-0.8417993,0.440091,-11.31117,48.87618,-33.46403
18.810071945,61.86971,5.88008199999999,-14.07342,0.01091081,-0.8242711,0.4649466,-11.31117,48.87618,-33.46403
18.820069313,57.3777799999999,6.05813900000001,-14.13439,-0.03592648,-0.8221414,0.4272202,-11.31117,48.87618,-33.46403
18.830067158,59.2853199999997,5.642673,-19.49982,-0.07051238,-0.8236353,0.3918663,-11.31117,48.87618,-33.46403
18.840064526,74.2378899999998,4.752387,-26.81631,-0.08230209,-0.9241442,0.3201263,-11.97239,45.41359,-37.45036
18.850061893,94.91306,3.149873,-34.43765,-0.07138595,-0.985165,0.3722878,-11.97239,45.41359,-37.45036
18.860059261,119.5264,3.209226,-38.82755,-0.01497836,-1.080401,0.4636219,-11.97239,45.41359,-37.45036
18.870057106,148.9392,2.022178,-40.53473,0.03578329,-1.160067,0.5693193,-11.97239,45.41359,-37.45036
18.880054474,175.9523,2.259588,-39.92502,0.03431054,-1.106081,0.6305656,-11.97239,45.41359,-37.45036
18.890051842,197.612,3.624692,-38.21784,0.01031478,-0.9427962,0.6832088,-12.59159,42.78209,-40.66661
18.90004921,209.9187,7.12648200000003,-40.41279,-0.0002071292,-0.7441127,0.7516124,-12.59159,42.78209,-40.66661
18.910046577,213.8568,12.17143,-47.30249,-0.04749054,-0.6668639,0.6928101,-12.59159,42.78209,-40.66661
18.920044422,224.5636,12.52755,-56.63101,-0.1329192,-0.5563307,0.6364586,-12.59159,42.78209,-40.66661
18.93004179,230.4092,11.2218,-68.2154500000002,-0.1100275,-0.6344266,0.6024598,-12.59159,42.78209,-40.66661
18.940039158,247.6385,2.912464,-74.19059,-0.13917,-0.6144446,0.5656552,-13.5618,36.63348,-47.09254
18.950036526,271.0827,-10.79793,-81.81194,-0.1600949,-0.5349643,0.693451,-13.5618,36.63348,-47.09254
