Time (s),Gyroscope X (deg/s),Gyroscope Y (deg/s),Gyroscope Z (deg/s),Accelerometer X (g),Accelerometer Y (g),Accelerometer Z (g),Magnetometer X (uT),Magnetometer Y (uT),Magnetometer Z (uT)
18.048798561,-3.478579,-6.34650599999999,-2.91577,0.1237294,-0.1093921,0.5459238,-33.86407,-17.97223,-30.89944
18.058796406,-0.4634504,-12.4598,-4.927805,0.1403189,-0.110509,0.5473309,-33.86407,-17.97223,-30.89944
18.068794251,1.44408,-18.15763,-6.87886999999998,0.1481739,-0.08742242,0.5573614,-33.12245,-17.58625,-30.8959
18.078792095,1.874812,-24.09286,-8.098285,0.1513368,-0.07425266,0.5559167,-33.12245,-17.58625,-30.8959
18.088790417,1.567146,-30.38422,-9.13478800000001,0.1664664,-0.07535455,0.5621121,-33.12245,-17.58625,-30.8959
18.098788261,1.936346,-36.67556,-10.41517,0.1832566,-0.08715822,0.5635216,-33.12245,-17.58625,-30.8959
18.108786106,2.920877,-42.31404,-11.75653,0.2106953,-0.09470164,0.5826188,-33.20261,-16.82219,-30.44892
18.118784428,3.105477,-47.65575,-12.67109,0.2258864,-0.09850303,0.612265,-33.20261,-16.82219,-30.44892
18.128782272,4.643808,-52.87876,-13.95148,0.2561309,-0.09962118,0.6370985,-33.20261,-16.82219,-30.44892
18.138780117,6.12060500000003,-57.5082500000001,-14.92701,0.273542,-0.1180271,0.6590874,-33.20261,-16.82219,-30.44892
18.148778915,8.21273500000003,-61.95968,-16.08545,0.3025446,-0.1308148,0.6858404,-33.20261,-16.82219,-30.44892
18.15877676,11.59706,-65.81758,-17.00002,0.3239483,-0.1282157,0.7111669,-34.62679,-17.58714,-29.68152
18.168774605,14.67372,-69.3193699999999,-17.97555,0.3347973,-0.134651,0.7278998,-34.62679,-17.58714,-29.68152
18.178772926,16.82739,-73.1179199999999,-18.52429,0.3595372,-0.128116,0.7513052,-34.62679,-17.58714,-29.68152
18.188770771,18.79645,-76.3229500000002,-19.01205,0.3810707,-0.1066109,0.7713624,-34.62679,-17.58714,-29.68152
18.198768616,19.16565,-79.3499200000001,-19.49982,0.3964156,-0.09306883,0.7842537,-34.62679,-17.58714,-29.68152
18.208766937,18.79645,-83.32653,-19.37788,0.4019246,-0.1005815,0.8009962,-35.74432,-18.33886,-27.62179
18.218764782,18.48878,-88.6088900000001,-19.62176,0.4254813,-0.1092832,0.808136,-35.74432,-18.33886,-27.62179
18.228762627,19.90405,-94.2473700000001,-19.92661,0.4495796,-0.1208942,0.814797,-35.74432,-18.33886,-27.62179
18.238760471,21.38085,-98.8175000000002,-20.29244,0.5103362,-0.1122512,0.831439,-35.74432,-18.33886,-27.62179
18.24875927,24.76517,-100.242,-20.47535,0.5459828,-0.09009972,0.8385498,-35.74432,-18.33886,-27.62179
18.258757114,23.90371,-101.9038,-20.35341,0.5565579,-0.08196659,0.8548009,-37.61839,-19.08258,-23.95512
18.268755436,23.22684,-105.465,-20.35341,0.5513501,-0.09047962,0.8385406,-37.61839,-19.08258,-23.95512
18.278753281,23.78064,-109.4416,-20.35341,0.6042932,-0.1082503,0.8001668,-37.61839,-19.08258,-23.95512
18.288751125,26.48811,-110.866,-20.29244,0.6459256,-0.09392669,0.7886047,-37.61839,-19.08258,-23.95512
18.298749447,27.7803,-109.3822,-19.62176,0.6570409,-0.06311032,0.7866631,-37.61839,-19.08258,-23.95512
18.308747292,25.99584,-107.8391,-18.46332,0.6511748,-0.03591699,0.797195,-39.11742,-19.82403,-20.35017
18.318745136,22.91918,-107.3049,-17.12196,0.6562183,-0.01943569,0.7818674,-39.11742,-19.82403,-20.35017
18.328742981,18.73492,-108.1358,-16.2074,0.6735502,-0.008507825,0.7703486,-39.11742,-19.82403,-20.35017
18.338741303,14.61219,-108.9074,-15.41478,0.714546,-0.01217662,0.7587923,-39.11742,-19.82403,-20.35017
18.348739624,12.08933,-109.6196,-14.80507,0.7340857,-0.01545535,0.7300445,-39.11742,-19.82403,-20.35017
18.358737946,8.397335,-111.3409,-14.43924,0.7536165,-0.01747287,0.7328824,-41.72694,-21.33082,-16.29801
18.36873579,6.98206999999997,-113.4182,-13.70759,0.7783567,-0.01247119,0.6950306,-41.72694,-21.33082,-16.29801
18.378733635,4.028476,-115.7329,-13.21983,0.798539,0.002426852,0.6863772,-41.72694,-21.33082,-16.29801
18.388731957,0.767214200000001,-118.2851,-12.854,0.8220405,-0.00414449,0.6609733,-41.72694,-21.33082,-16.29801
18.398729801,-1.755648,-120.3031,-12.54915,0.832202,-0.0006605694,0.6480332,-41.72694,-21.33082,-16.29801
18.408727646,-4.46311,-121.2527,-12.48818,0.8626039,-0.01073748,0.6494185,-43.21422,-22.82536,-11.786
18.418725491,-5.693775,-120.4811,-11.75653,0.8725638,0.003402472,0.6331259,-43.21422,-22.82536,-11.786
18.428723812,-8.58583600000001,-118.2851,-11.08585,0.8615192,0.02068693,0.6340978,-43.21422,-22.82536,-11.786
18.438722134,-13.38543,-117.3354,-10.41517,0.8646854,0.03318219,0.6120746,-43.21422,-22.82536,-11.786
18.448720455,-18.12349,-117.5728,-9.62255399999997,0.8615804,0.04207301,0.5814489,-43.21422,-22.82536,-11.786
18.4587183,-23.96914,-118.4631,-9.62255399999997,0.864123,0.03544632,0.5422029,-44.35791,-22.7962,-7.343815
18.468716145,-28.7072,-119.6502,-10.17129,0.8733853,0.008670047,0.5168291,-44.35791,-22.7962,-7.343815
18.478713989,-31.107,-120.8372,-10.90294,0.8882622,-0.03157534,0.4943205,-44.35791,-22.7962,-7.343815
18.488712311,-29.01487,-121.2527,-11.63459,0.8984729,-0.05682241,0.4746876,-44.35791,-22.7962,-7.343815
18.498710156,-26.36894,-121.7275,-12.73206,0.9055603,-0.07144485,0.4545788,-44.35791,-22.7962,-7.343815
18.508708,-22.43081,-122.4991,-14.07342,0.9329029,-0.07428431,0.4569247,-46.23367,-23.53665,-3.290143
18.518706322,-17.56969,-122.3804,-15.41478,0.9611861,-0.07506929,0.4693186,-46.23367,-23.53665,-3.290143
18.528704643,-12.09323,-121.2527,-16.08545,0.9746625,-0.06600785,0.4745571,-46.23367,-23.53665,-3.290143
18.538702965,-8.27817099999997,-119.4721,-16.32934,0.9902936,-0.04177384,0.4869666,-46.23367,-23.53665,-3.290143
18.54870081,-5.570708,-117.3354,-16.39031,1.001953,-0.01380095,0.4917248,-46.23367,-23.53665,-3.290143
18.558698654,-5.201509,-115.911,-17.00002,1.006869,0.009498553,0.4783102,-46.59054,-25.39984,1.61924
18.568696499,-7.17057299999998,-115.4955,-18.2804,1.013742,0.006670439,0.4730346,-46.59054,-25.39984,1.61924
18.578694821,-8.955036,-114.6646,-19.31691,1.033187,-0.01673459,0.4753996,-46.59054,-25.39984,1.61924
18.588692665,-7.47823899999999,-113.1214,-19.98759,1.056515,-0.0397261,0.4614861,-46.59054,-25.39984,1.61924
18.59869051,-4.278511,-110.6286,-20.04856,1.07276,-0.04870821,0.4538029,-46.59054,-25.39984,1.61924
18.608688831,-1.017249,-107.8391,-20.41438,1.077066,-0.04490668,0.43513,-46.62573,-24.60153,6.065705
18.618686676,0.951813900000003,-105.5243,-20.71923,1.094226,-0.05032875,0.4427586,-46.62573,-24.60153,6.065705
18.628685474,2.982411,-102.4973,-21.02409,1.121811,-0.04002108,0.4474936,-46.62573,-24.60153,6.065705
18.638683319,5.382206,-98.4613799999997,-20.7802,1.138663,-0.02884827,0.463733,-46.62573,-24.60153,6.065705
18.648681164,6.48980500000002,-94.2473700000001,-19.7437,1.138415,-0.01578099,0.4584657,-46.62573,-24.60153,6.065705
18.658679008,6.612871,-89.9146399999998,-18.95108,1.117666,-0.001372387,0.4316979,-46.23901,-26.08255,10.52712
18.66867733,4.951474,-86.4128499999999,-18.21943,1.08784,0.002993299,0.3891555,-46.23901,-26.08255,10.52712
18.678675175,1.997879,-84.1574600000002,-18.34137,1.082583,-0.00320066,0.3609303,-46.23901,-26.08255,10.52712
18.688673019,-0.03271778,-81.9020800000002,-18.64623,1.083688,-0.0106434,0.3417872,-46.23901,-26.08255,10.52712
18.698671341,-1.140316,-79.3499200000001,-18.40234,1.088794,-0.02325596,0.3331672,-45.12299,-26.42342,14.21401
18.708669186,-0.2788507,-76.0261900000001,-18.09749,1.092345,-0.03109245,0.3188058,-45.12299,-26.42342,14.21401
18.718667984,0.3364816,-72.2869900000002,-17.79264,1.090307,-0.026247,0.3216795,-45.12299,-26.42342,14.21401
18.728665829,1.505613,-68.6665000000002,-17.00002,1.08782,-0.0232796,0.3326904,-45.12299,-26.42342,14.21401
18.738663673,2.367078,-64.3931300000002,-16.02448,1.07614,0.001705974,0.3269614,-45.12299,-26.42342,14.21401
18.748661518,1.44408,-60.2978099999999,-15.10992,1.066783,0.006809439,0.3207549,-43.97775,-27.91624,16.61697
18.75865984,0.02881546,-56.49926,-14.13439,1.059462,0.007005998,0.3049746,-43.97775,-27.91624,16.61697
18.768657684,-1.817181,-52.81941,-13.34177,1.052184,0.004664025,0.2772305,-43.97775,-27.91624,16.61697
18.778655529,-2.678647,-49.25827,-12.61012,1.049796,0.001468713,0.2518709,-43.97775,-27.91624,16.61697
18.788653851,-2.617113,-46.35,-12.18333,1.047543,-0.009052522,0.2222058,-43.97775,-27.91624,16.61697
18.798651695,-1.571049,-43.97591,-12.12236,1.042729,-0.01277733,0.1973292,-43.22497,-28.64736,19.4646
18.808650494,0.02881546,-41.95792,-12.12236,1.047172,-0.01624905,0.1800936,-43.22497,-28.64736,19.4646
18.818648338,1.936346,-39.64318,-11.93944,1.064498,-0.004730084,0.1800605,-43.22497,-28.64736,19.4646
18.828646183,3.659276,-37.56585,-11.39071,1.065196,0.009787385,0.1719197,-43.22497,-28.64736,19.4646
18.838644028,4.582274,-35.31046,-10.96391,1.060113,0.0208066,0.1657043,-43.22497,-28.64736,19.4646
18.848642349,4.582274,-33.23313,-10.47614,1.05367,0.02646673,0.1609283,-42.48084,-28.63138,20.69567
18.858640194,4.213075,-30.56227,-9.98837900000002,1.047115,0.03789017,0.1489724,-42.48084,-28.63138,20.69567
18.868638039,3.720809,-28.48494,-9.31770000000002,1.039319,0.03768352,0.1432431,-42.48084,-28.63138,20.69567
18.87863636,3.16701,-26.22955,-8.76896300000003,1.032635,0.03021408,0.1379923,-42.48084,-28.63138,20.69567
18.888634205,2.982411,-23.91481,-8.22022599999998,1.02628,0.03091126,0.1217316,-42.48084,-28.63138,20.69567
18.89863205,2.920877,-21.83747,-7.30566500000003,1.028757,0.02841207,0.1088064,-41.72099,-29.37612,21.93079
18.908630848,3.290077,-20.11626,-6.45207400000002,1.025688,0.03612211,0.1083312,-41.72099,-29.37612,21.93079
18.918628693,3.35161,-17.97957,-5.659454,1.025567,0.04235362,0.09923685,-41.72099,-29.37612,21.93079
18.928626537,3.105477,-16.49576,-5.049747,1.024575,0.04333222,0.1021098,-41.72099,-29.37612,21.93079
18.938624859,2.490145,-15.01195,-4.074214,1.028397,0.0472163,0.09348775,-41.72099,-29.37612,21.93079
18.948622704,2.305545,-13.58749,-3.403537,1.022119,0.04416346,0.09206376,-40.96731,-29.74376,22.77689
18.958620548,1.505613,-12.34109,-2.671887,1.019055,0.05127363,0.07914571,-40.96731,-29.74376,22.77689
18.96861887,0.890280700000001,-11.03534,-2.06218,1.021566,0.04749271,0.08536381,-40.96731,-29.74376,22.77689
18.978616714,0.5826145,-9.78894299999998,-1.513443,1.020555,0.04939895,0.08345078,-40.96731,-29.74376,22.77689
18.988614559,0.3980148,-8.48319099999998,-1.086647,1.021106,0.04603459,0.08632214,-40.96731,-29.74376,22.77689
18.998613358,0.3980148,-7.53355299999998,-0.720822899999998,1.022775,0.03479438,0.07579345,-40.59007,-30.11095,24.0072
19.008611202,0.8287475,-6.34650599999999,-0.4769399,1.025688,0.03535106,0.07722396,-40.59007,-30.11095,24.0072
19.018609047,0.890280700000001,-5.100106,-0.2940276,1.029574,0.03584797,0.07003841,-40.59007,-30.11095,24.0072
19.028607368,1.136414,-3.675649,-0.3549984,1.031588,0.03252564,0.07434294,-40.59007,-30.11095,24.0072
19.038605213,1.321013,-2.369897,-0.3549984,1.029953,0.04172184,0.07386485,-40.59007,-30.11095,24.0072
19.048603058,1.197947,-1.420259,-0.1720861,1.028841,0.0489539,0.07003631,-40.5822,-30.49131,24.00923
19.058601379,1.013347,-0.5299737,0.0717969800000001,1.028924,0.04463033,0.07530162,-40.5822,-30.49131,24.00923
19.068599224,0.5826145,0.3603118,0.31568,1.030401,0.0435999,0.06572779,-40.5822,-30.49131,24.00923
19.078597069,0.2749484,1.07254,0.681504599999997,1.029437,0.04312561,0.06907962,-40.5822,-30.49131,24.00923
19.088595867,0.1518819,1.666064,1.291212,1.027487,0.04305639,0.06573301,-40.5822,-30.49131,24.00923
19.098593712,0.2134152,2.615702,1.596066,1.024499,0.0463507,0.06047303,-40.20576,-30.49177,23.62501
19.108591557,-0.0942510000000003,3.268578,1.90092,1.027818,0.05127129,0.0599874,-40.20576,-30.49177,23.62501
19.118589878,0.02881546,4.455625,2.083832,1.028431,0.0444188,0.05328803,-40.20576,-30.49177,23.62501
19.128587723,-0.1557842,4.989797,2.266744,1.025427,0.04876364,0.05664217,-40.20576,-30.49177,23.62501
19.138585568,-0.0942510000000003,5.88008199999999,2.75451,1.024966,0.04724845,0.05137904,-40.20576,-30.49177,23.62501
19.148583889,-0.0942510000000003,6.59230999999998,2.632569,1.01819,0.04462786,0.04517004,-40.59426,-29.73768,23.16667
19.158581734,0.02881546,7.66065299999999,2.815481,1.017738,0.04263129,0.04038557,-40.59426,-29.73768,23.16667
19.168580532,0.0903486900000002,7.89806300000001,2.937423,1.016123,0.05089986,0.04469345,-40.59426,-29.73768,23.16667
19.178578377,0.02881546,8.66964300000001,2.998394,1.015148,0.05085428,0.0418237,-40.59426,-29.73768,23.16667
19.188576222,0.2749484,9.14446299999999,3.242276,1.01524,0.04601862,0.04421766,-40.59426,-29.73768,23.16667
19.198574066,0.2749484,9.559929,3.181306,1.021534,0.04805166,0.04037756,-40.59624,-29.73387,23.61817
19.208572388,-0.03271778,9.44122399999999,3.48616,1.015608,0.05235191,0.04517255,-40.59624,-29.73387,23.61817
19.218570232,-0.1557842,9.73798600000003,3.48616,1.016591,0.05187223,0.04373522,-40.59624,-29.73387,23.61817
19.228568077,-0.4019172,9.916043,3.425189,1.010826,0.04732345,0.03704638,-40.59624,-29.73387,23.61817
19.238566399,-0.4634504,10.03475,3.425189,1.010891,0.04395824,0.04087575,-40.59624,-29.73387,23.61817
19.248564243,-0.5249836,10.15345,3.364218,1.006921,0.04774539,0.03848881,-40.59257,-29.74095,22.77967
19.258562565,-0.586516899999998,10.27216,3.364218,1.003512,0.04769557,0.04040907,-40.59257,-29.74095,22.77967
19.268560886,-0.709583300000001,10.39086,2.937423,1.002498,0.04954476,0.03227457,-40.59257,-29.74095,22.77967
19.278558731,-0.4634504,10.39086,2.998394,1.006039,0.04289925,0.04184163,-40.59257,-29.74095,22.77967
19.288556576,-0.5249836,10.27216,2.876452,1.004853,0.05399545,0.03561935,-40.96731,-29.74376,22.77689
19.298554897,-0.709583300000001,10.2128,2.815481,1.002968,0.05055224,0.03514495,-40.96731,-29.74376,22.77689
19.308552742,-0.709583300000001,10.0941,2.815481,1.000894,0.05736707,0.04088972,-40.96731,-29.74376,22.77689
19.318550587,-1.140316,9.79733799999999,2.69354,1.002021,0.04905815,0.03323268,-40.96731,-29.74376,22.77689
19.328548431,-1.140316,9.50057699999998,2.327715,0.9980686,0.05188256,0.03180311,-40.96731,-29.74376,22.77689
19.338546753,-1.017249,9.20381500000001,2.266744,0.999091,0.049552,0.0404163,-41.34624,-29.3733,21.93357
19.348545075,-1.078783,8.78834800000002,1.96189,0.9995325,0.05199043,0.0404149,-41.34624,-29.3733,21.93357
19.358543396,-1.201849,8.72899499999998,1.657037,1.001554,0.04814284,0.04041237,-41.34624,-29.3733,21.93357
19.368541241,-1.078783,8.254177,1.474125,1.000957,0.05393602,0.03754046,-41.34624,-29.3733,21.93357
19.378539085,-1.386449,7.72000599999998,1.169271,1.003412,0.05305212,0.0418436,-41.34624,-29.3733,21.93357
19.388537407,-1.447982,7.304539,0.986358399999998,1.001453,0.05346427,0.03801829,-41.35242,-28.99622,21.54454
19.398535252,-1.571049,6.88907200000001,0.681504599999997,1.004771,0.05838486,0.03753267,-41.35242,-28.99622,21.54454
19.408533096,-1.447982,6.53295800000002,0.620533899999998,0.9984961,0.05542419,0.04615873,-41.35242,-28.99622,21.54454
19.418530941,-1.571049,5.93943499999998,0.3766508,1.003835,0.05648402,0.04423485,-41.35242,-28.99622,21.54454
19.428529739,-2.063314,5.049149,0.2547093,0.9990557,0.05153017,0.04424446,-41.35242,-28.99622,21.54454
19.438527584,-2.186381,4.693035,0.01082622,0.9980726,0.05200546,0.04520321,-41.72716,-28.99903,21.54176
19.448525906,-2.494047,4.099511,-0.1720861,0.9970345,0.05538654,0.04520414,-41.72716,-28.99903,21.54176
19.45852375,-2.801713,3.446635,-0.2940276,0.9926994,0.05297646,0.05669814,-41.72716,-28.99903,21.54176
19.468521595,-2.801713,3.149873,-0.4159691,0.997708,0.04580383,0.05860557,-41.72716,-28.99903,21.54176
19.478519917,-2.986313,2.853111,-0.1720861,1.001019,0.05126725,0.06434131,-41.72716,-28.99903,21.54176
19.488517761,-3.478579,2.55635,-0.2940276,1.002979,0.05088582,0.07151663,-42.09823,-29.00892,20.70048
19.498515606,-4.032378,2.496997,-0.2330568,1.011812,0.04769822,0.07580923,-42.09823,-29.00892,20.70048
19.508513451,-4.216978,2.31894,-0.2940276,1.013813,0.04475192,0.06814928,-42.09823,-29.00892,20.70048
19.518512249,-4.401577,2.437645,-0.2940276,1.018666,0.04584602,0.07101199,-42.09823,-29.00892,20.70048
19.528510094,-4.64771,2.259588,-0.5379106,1.018318,0.03860264,0.07675739,-42.09823,-29.00892,20.70048
19.538508415,-4.401577,2.31894,-0.4159691,1.018814,0.03813967,0.07819237,-41.34456,-29.37657,21.54657
19.54850626,-4.278511,2.31894,-0.4769399,1.020341,0.0348121,0.08297633,-41.34456,-29.37657,21.54657
19.558504105,-4.586177,2.437645,-0.2330568,1.017512,0.02995381,0.089204,-41.34456,-29.37657,21.54657
19.568502426,-4.709243,2.853111,-0.05014454,1.015125,0.02758661,0.1011732,-41.34456,-29.37657,21.54657
19.578500271,-4.770776,3.090521,0.2547093,1.010362,0.02162174,0.09687582,-41.34456,-29.37657,21.54657
19.588498116,-4.401577,3.209226,0.5595631,1.017295,0.01605901,0.1112224,-41.7193,-29.37938,21.54379
19.598496914,-3.909311,3.56534,1.169271,1.014933,0.01213358,0.1121847,-41.7193,-29.37938,21.54379
19.608494759,-3.540112,4.336921,1.90092,1.016342,0.01515163,0.1203173,-41.7193,-29.37938,21.54379
19.618492603,-3.293979,5.167854,2.75451,1.014892,0.01471601,0.1289343,-41.7193,-29.37938,21.54379
19.628490925,-3.355512,6.17684400000002,3.608101,1.015427,0.01234072,0.1337197,-41.7193,-29.37938,21.54379
19.638488769,-3.478579,6.948425,4.705575,1.012106,0.007358674,0.1275053,-41.72179,-29.00938,20.31626
19.648486614,-3.724712,7.66065299999999,6.04693200000002,1.013671,0.002140735,0.1380326,-41.72179,-29.00938,20.31626
19.658484936,-3.724712,8.66964300000001,7.754113,1.017929,0.009098233,0.1456806,-41.72179,-29.00938,20.31626
19.66848278,-4.340044,9.38187199999997,9.46129399999998,1.016984,0.007656815,0.1495112,-41.72179,-29.00938,20.31626
19.678481579,-5.693775,10.27216,11.71721,1.025337,0.003929937,0.1490191,-41.72179,-29.00938,20.31626
19.688479423,-7.232106,10.98439,13.91216,1.023493,-0.001346592,0.1605095,-41.71394,-29.38974,20.31829
19.698477268,-9.01656900000002,11.93402,16.16808,1.037252,-0.00733496,0.1667085,-41.71394,-29.38974,20.31829
19.708475113,-10.67797,12.64625,18.60691,1.048571,-0.01276718,0.1858332,-41.71394,-29.38974,20.31829
19.718473434,-12.70856,13.71459,21.22865,1.067655,-0.01659692,0.2039868,-41.71394,-29.38974,20.31829
19.728471279,-14.73916,15.13905,23.97233,1.089791,-0.02716079,0.223094,-41.71394,-29.38974,20.31829
19.738469124,-17.07742,16.62286,26.10631,1.116004,-0.04741557,0.2364536,-41.34367,-29.0131,19.54503
19.748467445,-18.67729,18.46278,27.81349,1.138923,-0.07414039,0.2402492,-41.34367,-29.0131,19.54503
19.75846529,-18.67729,19.94659,29.39873,1.147718,-0.1010785,0.2512481,-41.34367,-29.0131,19.54503
19.768464088,-16.83129,21.72716,30.61815,1.146803,-0.1302881,0.2474285,-41.34367,-29.0131,19.54503
19.778461933,-13.57003,23.32968,31.3498,1.121883,-0.1526829,0.2436491,-41.34367,-29.0131,19.54503
19.788459778,-9.26270200000001,24.21996,31.71562,1.111225,-0.1564574,0.2259614,-43.23114,-28.27027,19.07557
19.798457622,-5.75530800000001,25.70377,31.59368,1.100459,-0.1543457,0.2144938,-43.23114,-28.27027,19.07557
19.808455944,-3.047846,26.53471,31.22786,1.095332,-0.1408581,0.2125849,-43.23114,-28.27027,19.07557
19.818453789,-1.263382,27.30629,30.49621,1.101274,-0.1197838,0.2192692,-43.23114,-28.27027,19.07557
19.828451633,-1.324916,27.30629,29.15485,1.137683,-0.1121604,0.230211,-43.61035,-27.89927,18.29676
19.838449955,-2.494047,26.77212,27.93543,1.150945,-0.117721,0.2311465,-43.61035,-27.89927,18.29676
19.848448276,-1.694115,25.70377,26.35019,1.152577,-0.1526238,0.2368956,-43.61035,-27.89927,18.29676
19.858446598,1.813279,24.04191,24.76495,1.137799,-0.1962524,0.227361,-43.61035,-27.89927,18.29676
19.868444443,7.47433699999998,22.6768,22.9968,1.12491,-0.2106739,0.2192514,-43.61035,-27.89927,18.29676
19.878442287,13.87379,21.78652,21.41156,1.11288,-0.1929756,0.2144821,-44.0092,-26.39482,16.60886
19.888440132,18.79645,20.89623,19.27759,1.090332,-0.159856,0.2183415,-44.0092,-26.39482,16.60886
19.898438454,20.82705,19.94659,17.38749,1.067948,-0.1354801,0.2222028,-44.0092,-26.39482,16.60886
19.908436298,21.50391,19.53113,14.82672,1.033996,-0.1182807,0.2102932,-44.0092,-26.39482,16.60886
19.918434143,20.51938,18.70019,12.5708,0.9998772,-0.09166315,0.2189602,-44.0092,-26.39482,16.60886
19.928432941,19.35025,17.86926,10.80265,0.9694657,-0.08111804,0.2156604,-44.78059,-25.26265,16.21021
19.938430786,17.75039,17.15703,9.09546899999999,0.9464975,-0.07771938,0.211871,-44.78059,-25.26265,16.21021
19.948428631,16.58125,16.08869,7.32731800000001,0.9279668,-0.07718818,0.2037674,-44.78059,-25.26265,16.21021
19.958426952,16.08899,14.78294,5.193341,0.9094456,-0.07712957,0.1970996,-44.78059,-25.26265,16.21021
19.968424797,15.71979,13.23978,2.266744,0.9108711,-0.07513572,0.1994894,-44.78059,-25.26265,16.21021
19.978422642,16.39665,11.4592,-1.086647,0.8903498,-0.07210447,0.203353,-45.18678,-23.74404,16.19932
19.988420963,18.11959,9.916043,-4.379068,0.8618186,-0.08389745,0.1976629,-45.18678,-23.74404,16.19932
19.998418808,21.50391,8.72899499999998,-7.54954800000001,0.8436185,-0.1007878,0.1967418,-45.18678,-23.74404,16.19932
20.008417606,25.99584,7.66065299999999,-10.29323,0.8188382,-0.1047316,0.1910431,-45.18678,-23.74404,16.19932
20.018415451,31.1031,7.36389100000001,-13.03692,0.8113022,-0.09277146,0.186746,-45.18678,-23.74404,16.19932
20.028413296,35.41042,7.06713000000001,-15.53672,0.8002385,-0.07454181,0.1848463,-45.1632,-24.88511,16.2054
20.03841114,38.85628,7.24518699999998,-17.60972,0.780936,-0.05901869,0.1705187,-45.1632,-24.88511,16.2054
20.048409462,41.37915,6.59230999999998,-19.13399,0.7638479,-0.03185941,0.148527,-45.1632,-24.88511,16.2054
20.058407307,41.44068,6.53295800000002,-20.1705,0.7322585,-0.01073897,0.1351765,-45.1632,-24.88511,16.2054
20.068405151,40.21001,5.642673,-21.14603,0.7268301,0.01877428,0.1327854,-45.1632,-24.88511,16.2054
20.078403473,36.45649,4.871092,-22.2435,0.755967,0.024262,0.1384762,-44.41005,-24.88656,15.37246
20.088401794,34.11823,3.862102,-22.42641,0.7790045,0.01685874,0.129345,-44.41005,-24.88656,15.37246
20.098400116,32.76449,2.734407,-22.97515,0.7812806,-0.0006121169,0.1269526,-44.41005,-24.88656,15.37246
20.108397961,32.82603,1.666064,-23.82874,0.7627698,-0.02741607,0.1054559,-44.41005,-24.88656,15.37246
20.118395805,35.10276,0.657073599999999,-25.71884,0.7274874,-0.04337472,0.08398556,-44.41005,-24.88656,15.37246
20.12839365,39.28701,-0.4706214,-27.91378,0.7217994,-0.05245337,0.06006901,-43.3288,-22.96926,16.20917
20.138391972,44.27121,-1.895078,-30.1697,0.7376533,-0.04053018,0.05429538,-43.3288,-22.96926,16.20917
20.150889874,48.3324,-3.853706,-31.51106,0.7827395,-0.002975424,0.02501397,-43.3288,-22.96926,16.20917
20.158387661,48.517,-5.278163,-31.75494,0.8032495,0.02082956,0.03310788,-43.3288,-22.96926,16.20917
20.168386459,47.7786,-7.47420100000002,-31.51106,0.8100864,0.04560728,0.01777515,-43.3288,-22.96926,16.20917
20.178384304,47.0402,-9.90764799999999,-31.08426,0.803023,0.03225081,0.007262229,-43.32094,-23.34962,16.21119
20.188382626,47.10173,-12.51915,-30.90135,0.8197978,0.02150647,0.018243,-43.32094,-23.34962,16.21119
20.19838047,48.517,-15.24936,-30.35261,0.8237619,0.01751741,-0.001384499,-43.32094,-23.34962,16.21119
20.208378315,49.8092,-17.5641,-29.62096,0.8243527,0.03793424,-0.001869363,-43.32094,-23.34962,16.21119
20.21837616,49.74767,-20.23496,-28.46252,0.8144147,0.04781107,-0.01621186,-43.32094,-23.34962,16.21119
20.228374481,49.13233,-23.38064,-27.48699,0.8033751,0.06447811,-0.02959704,-42.56109,-24.09435,17.44632
20.238372326,48.27087,-26.34826,-27.12116,0.7984999,0.06425019,-0.04394576,-42.56109,-24.09435,17.44632
20.248371124,47.84013,-29.43458,-26.93825,0.7965922,0.06162927,-0.06069192,-42.56109,-24.09435,17.44632
20.258368969,48.1478,-32.10543,-26.51146,0.7976106,0.05917582,-0.06547882,-42.56109,-24.09435,17.44632
20.268366814,48.57853,-34.12341,-25.71884,0.7911663,0.06480522,-0.07360484,-42.56109,-24.09435,17.44632
20.278365135,48.7016,-35.96334,-24.62136,0.8030421,0.08104961,-0.07650118,-41.81079,-24.45546,19.06642
20.28836298,48.3324,-37.56585,-23.88971,0.8308901,0.07725265,-0.07367729,-41.81079,-24.45546,19.06642
20.298360825,49.44,-38.27808,-23.40195,0.8482071,0.08925737,-0.07371057,-41.81079,-24.45546,19.06642
20.308358669,49.44,-38.7529,-22.85321,0.8560095,0.08891243,-0.0751598,-41.81079,-24.45546,19.06642
20.318357468,49.6246,-39.28707,-22.36544,0.8341213,0.08638269,-0.09187116,-41.81079,-24.45546,19.06642
20.328355312,50.67066,-39.88059,-21.75574,0.8161204,0.08440692,-0.1095466,-40.69362,-24.43341,20.68727
20.338353634,52.57819,-41.00829,-21.45088,0.7985842,0.08327624,-0.1420589,-40.69362,-24.43341,20.68727
20.348351479,54.97799,-42.25469,-21.08506,0.8107207,0.1109603,-0.1698446,-40.69362,-24.43341,20.68727
20.358349323,54.67032,-44.09461,-21.51185,0.864399,0.1329646,-0.1646795,-40.69362,-24.43341,20.68727
20.368347645,54.05499,-45.40036,-20.71923,0.9202437,0.1433227,-0.1623866,-40.69362,-24.43341,20.68727
20.37834549,53.56273,-46.4687,-19.25594,0.9487466,0.1565423,-0.1600468,-39.59583,-23.64355,23.14256
20.388343334,52.82433,-46.52806,-17.54875,0.9561737,0.1504332,-0.1533581,-39.59583,-23.64355,23.14256
20.398342133,52.57819,-46.82482,-16.08545,0.9649424,0.1506283,-0.1509806,-39.59583,-23.64355,23.14256
20.408339977,53.99346,-47.41834,-14.68313,0.9561252,0.1527698,-0.1634088,-39.59583,-23.64355,23.14256
20.418337822,55.22412,-48.66474,-13.34177,0.914375,0.1696616,-0.1920549,-38.46491,-24.3784,25.21897
20.428336144,55.40872,-49.91114,-12.854,0.9292936,0.2053423,-0.2016616,-38.46491,-24.3784,25.21897
20.438333988,52.02439,-51.86977,-11.87847,0.9604024,0.2092884,-0.2093741,-38.46491,-24.3784,25.21897
20.448331833,49.00927,-53.65034,-10.3542,0.9740573,0.2341526,-0.2299831,-38.46491,-24.3784,25.21897
20.458330155,45.62494,-55.01545,-9.19575899999999,1.014514,0.2334853,-0.2310106,-38.46491,-24.3784,25.21897
20.468327999,42.24061,-56.73666,-7.48857699999998,1.045511,0.217523,-0.2368034,-37.35927,-23.9689,27.6763
20.478326798,41.37915,-58.0424200000002,-5.720425,1.051168,0.2015461,-0.2425521,-37.35927,-23.9689,27.6763
20.488324642,41.13301,-59.5262299999998,-4.074214,1.046975,0.1912409,-0.2444564,-37.35927,-23.9689,27.6763
20.498322487,41.25608,-60.59457,-2.123151,1.030869,0.1930024,-0.2295929,-37.35927,-23.9689,27.6763
20.508320332,41.87141,-60.8913300000001,0.2547093,1.013087,0.2057935,-0.2271723,-37.35927,-23.9689,27.6763
20.518318653,40.39462,-61.1287499999998,2.75451,1.021822,0.2336691,-0.2267162,-36.26148,-23.17904,30.13159
20.528316498,36.45649,-62.19709,5.13237,1.054721,0.2465729,-0.215291,-36.26148,-23.17904,30.13159
20.538314343,32.27223,-63.2654300000002,7.937025,1.063813,0.2547679,-0.2421092,-36.26148,-23.17904,30.13159
20.548312664,27.47264,-64.86794,11.1075,1.073789,0.242234,-0.2526521,-36.26148,-23.17904,30.13159
20.558310986,23.84218,-66.1736999999999,14.0341,1.104839,0.2497208,-0.2450509,-36.26148,-23.17904,30.13159
20.56830883,20.27325,-66.2924000000001,16.16808,1.140669,0.2365645,-0.220224,-34.46684,-22.76821,32.14252
20.578307152,18.30419,-66.5891600000002,18.05817,1.143267,0.228561,-0.1977334,-34.46684,-22.76821,32.14252
20.588304997,17.01199,-65.8769300000001,19.88729,1.113783,0.2158694,-0.1933716,-34.46684,-22.76821,32.14252
20.598302841,15.10446,-64.9866499999998,21.5335,1.079822,0.2079269,-0.191396,-34.46684,-22.76821,32.14252
20.608301163,13.07386,-63.5621899999997,23.36263,1.069989,0.1869468,-0.1794091,-34.46684,-22.76821,32.14252
20.618299484,11.78166,-61.6629100000002,25.25272,1.072326,0.1923997,-0.1727145,-33.35753,-22.36579,33.76134
20.628297806,10.05873,-58.9920499999999,26.10631,1.091041,0.2086354,-0.1382938,-33.35753,-22.36579,33.76134
20.63829565,8.95113399999999,-55.31221,26.59408,1.104945,0.2212254,-0.1201354,-33.35753,-22.36579,33.76134
20.648293495,8.82806800000001,-50.80143,26.04534,1.119987,0.2507404,-0.1134692,-33.35753,-22.36579,33.76134
20.65829134,7.59740300000001,-46.29065,23.97233,1.150892,0.2396358,-0.1192631,-33.35753,-22.36579,33.76134
20.668289661,5.99753899999999,-43.26368,21.35059,1.158635,0.2164197,-0.1240564,-31.5049,-21.58067,34.99669
20.678287506,6.12060500000003,-40.59282,18.36302,1.171708,0.1955071,-0.1011021,-31.5049,-21.58067,34.99669
20.688285351,9.44340000000003,-37.09103,15.4974,1.166349,0.14408,-0.08050078,-31.5049,-21.58067,34.99669
20.698283672,17.25812,-32.40219,13.36342,1.139117,0.1155066,-0.06417437,-31.5049,-21.58067,34.99669
20.708281994,25.81124,-26.82307,10.92459,1.103042,0.1169569,-0.04018305,-31.5049,-21.58067,34.99669
20.718280315,32.45683,-21.3033,8.60770299999997,1.009256,0.1269972,-0.1209015,-30.76695,-21.1876,35.83873
20.72827816,29.56477,-23.55869,8.72964499999998,0.8892444,0.1032759,-0.3293453,-30.76695,-21.1876,35.83873
20.738276005,24.14984,-21.3033,6.53469799999998,1.168032,0.2405124,0.0984589,-30.76695,-21.1876,35.83873
20.748273849,30.3647,-1.598316,4.27878,1.330534,0.2608761,0.3790945,-30.76695,-21.1876,35.83873
20.758272171,33.87209,16.26675,3.608101,0.9937409,0.2043345,0.02650707,-30.76695,-21.1876,35.83873
20.768270016,22.54998,17.51315,5.86401899999998,0.8408001,0.1690746,-0.2034123,-30.03068,-20.79127,37.06776
20.778268814,7.720469,14.84229,8.54673300000003,0.9578908,0.188931,-0.1452353,-30.03068,-20.79127,37.06776
20.788266659,2.859344,17.86926,9.46129399999998,1.098088,0.1701923,-0.1593536,-30.03068,-20.79127,37.06776
20.798264503,-1.201849,18.8189,14.09507,1.087938,0.03113586,-0.3579091,-30.03068,-20.79127,37.06776
20.808262825,6.05907200000001,15.67322,12.93663,1.047538,0.2612993,-0.3957055,-30.03068,-20.79127,37.06776
20.81826067,-8.77043599999998,12.82431,6.71760999999998,1.081085,0.3694824,-0.3819131,-30.04105,-20.04091,35.8382
20.828258514,-29.4456,5.167854,9.15644099999999,1.145791,-0.01560316,-0.4393559,-30.04105,-20.04091,35.8382
20.838256359,-17.63122,-0.2925643,14.21701,1.220969,-0.1254633,-0.3935153,-30.04105,-20.04091,35.8382
20.848254681,-1.078783,2.615702,13.72925,1.126957,0.03272359,-0.2158405,-30.04105,-20.04091,35.8382
20.858253002,0.0903486900000002,7.36389100000001,15.55837,0.9198309,0.009706928,-0.1594801,-30.04105,-20.04091,35.8382
20.868251324,-4.401577,6.948425,19.52147,0.9581702,0.01912896,-0.1155203,-29.68203,-19.27739,35.83693
20.878249168,-0.0942510000000003,12.64625,21.22865,1.30027,-0.00740527,-0.09026676,-29.68203,-19.27739,35.83693
20.888247013,7.65893599999998,22.26134,21.16768,1.47649,-0.04871709,-0.0470129,-29.68203,-19.27739,35.83693
20.898245335,11.90473,26.89082,17.44846,1.428777,3.69178e-05,-0.08570693,-29.68203,-19.27739,35.83693
20.908243179,11.78166,26.47535,9.82711900000002,1.703781,0.1509933,0.097548,-29.68203,-19.27739,35.83693
20.918241024,31.71843,36.03109,-5.78139599999999,2.085149,-0.0160046,0.300321,-30.79053,-20.04654,35.83264
20.928239822,52.39359,22.85486,-5.29363,1.406211,0.009297718,-0.03398377,-30.79053,-20.04654,35.83264
20.938237667,57.8085199999999,11.75597,-3.464507,1.002285,0.103412,-0.3462926,-30.79053,-20.04654,35.83264
20.948235512,54.54726,8.610291,-2.8548,0.7729065,0.2776146,-0.3559877,-30.79053,-20.04654,35.83264
20.958233833,38.24095,7.779358,-1.696355,0.8210766,0.3887199,-0.2139632,-31.53466,-20.06251,34.60158
20.968231678,16.33512,8.96640499999999,4.217809,0.9325858,0.3174162,-0.1222526,-31.53466,-20.06251,34.60158
20.978229523,0.644147799999998,11.39985,10.071,1.006354,0.2029519,-0.1515449,-31.53466,-20.06251,34.60158
20.988227844,-6.92443900000002,12.7056,12.5708,1.027194,0.1029122,-0.2424849,-31.53466,-20.06251,34.60158
20.998226166,-7.232106,13.47719,11.90012,1.066224,0.021703,-0.2798609,-31.53466,-20.06251,34.60158
21.008224487,-2.801713,13.41783,10.74168,1.077473,-0.08385649,-0.2631032,-32.30773,-18.92707,34.58993
21.018222332,4.459208,12.40884,9.339353,1.053817,-0.1467033,-0.2295455,-32.30773,-18.92707,34.58993
21.028220177,11.72013,11.51856,7.32731800000001,1.023964,-0.08724592,-0.1993584,-32.30773,-18.92707,34.58993
21.038218021,17.25812,11.16244,4.827517,0.976579,-0.02879635,-0.1882836,-32.30773,-18.92707,34.58993
21.048216343,20.02711,10.2128,3.242276,0.9394711,0.02595901,-0.2313049,-32.30773,-18.92707,34.58993
21.058214188,20.15018,10.50957,1.535095,0.9463004,0.07768709,-0.2222372,-32.68864,-18.5528,34.19812
21.068212032,18.79645,9.559929,1.1083,1.009594,0.0554335,-0.1888414,-32.68864,-18.5528,34.19812
21.078210831,21.44238,9.14446299999999,2.022861,1.053939,0.003284974,-0.1951268,-32.68864,-18.5528,34.19812
21.088208675,26.54964,8.96640499999999,3.303247,1.060439,-0.005254613,-0.1865216,-32.68864,-18.5528,34.19812
21.09820652,32.33376,8.13547199999999,3.791013,1.03368,-0.007096367,-0.1706814,-32.68864,-18.5528,34.19812
21.108204842,36.82569,7.304539,3.791013,0.9925436,0.003753506,-0.1706125,-32.33132,-17.78601,34.58385
21.118202686,38.11789,5.93943499999998,3.242276,0.970879,0.06818379,-0.1457054,-32.33132,-17.78601,34.58385
21.128200531,34.24129,4.989797,3.730042,0.9762736,0.1184038,-0.1390277,-32.33132,-17.78601,34.58385
21.138198853,25.68817,3.624692,4.705575,0.9960024,0.1576733,-0.1385936,-32.33132,-17.78601,34.58385
21.148197174,15.04292,2.615702,6.41275599999997,1.002976,0.1495281,-0.1409965,-32.33132,-17.78601,34.58385
21.158195496,4.336142,2.437645,8.05896700000001,1.010228,0.1005299,-0.1476966,-33.45724,-17.79117,34.96251
21.16819334,-0.955716300000001,2.140883,8.97352800000002,1.01603,0.02467533,-0.1653945,-33.45724,-17.79117,34.96251
21.178191185,-0.2788507,1.725416,8.97352800000002,1.011459,-0.01713139,-0.15724,-33.45724,-17.79117,34.96251
21.18818903,3.228544,2.081531,8.36382100000002,1.010206,-0.05402629,-0.1505283,-33.45724,-17.79117,34.96251
21.198187351,9.44340000000003,2.55635,7.022464,0.9771938,-0.0619993,-0.2069406,-33.45724,-17.79117,34.96251
21.208185196,14.42759,1.903473,5.437224,0.9778386,-0.04375231,-0.179189,-33.11225,-16.27021,34.57018
21.218183994,16.82739,1.131893,4.461692,1.001107,-0.01039677,-0.1423878,-33.11225,-16.27021,34.57018
21.228181839,16.88892,0.8351307,4.034896,1.007603,0.007392164,-0.1242178,-33.11225,-16.27021,34.57018
21.238179684,15.59672,0.3009594,3.973926,0.9849178,0.02138624,-0.1390178,-33.11225,-16.27021,34.57018
21.248178005,11.04326,-1.301555,3.669072,0.9784858,0.02662645,-0.136615,-33.11225,-16.27021,34.57018
21.25817585,7.41280299999999,-2.42925,4.217809,0.9840273,0.04269305,-0.1452432,-33.50272,-15.51231,34.56334
21.268173695,2.059412,-3.43824,4.888487,0.9914747,0.06131475,-0.1443038,-33.50272,-15.51231,34.56334
21.278171539,-3.663178,-4.684639,5.315282,1.008249,0.05054406,-0.1361945,-33.50272,-15.51231,34.56334
21.288170338,-7.66283799999999,-4.862697,5.92499000000001,0.9916414,0.02623374,-0.1548237,-33.50272,-15.51231,34.56334
21.298168182,-11.35483,-5.100106,6.473727,0.9805284,0.02035739,-0.1887818,-33.50272,-15.51231,34.56334
21.308166504,-13.44696,-6.10909600000003,6.96149300000002,0.9899298,0.01278123,-0.1873605,-33.51425,-15.12487,35.39981
21.318164349,-14.73916,-6.287153,7.44925899999998,1.005497,0.01398171,-0.1960023,-33.51425,-15.12487,35.39981
21.328162193,-15.10836,-6.58391499999997,8.18090799999998,0.999934,0.02521954,-0.177331,-33.51425,-15.12487,35.39981
21.338160515,-15.96982,-6.405858,8.79061600000001,0.9840594,0.0398385,-0.1916644,-33.51425,-15.12487,35.39981
21.34815836,-17.20049,-7.11808599999999,9.03449899999999,0.9920189,0.03129706,-0.1864117,-33.51425,-15.12487,35.39981
21.358157158,-18.06195,-7.11808599999999,8.91255800000001,1.000655,-0.0139135,-0.2069939,-33.50442,-15.50904,34.95034
21.368155003,-16.89282,-7.05873399999998,8.85158600000001,0.9990789,-0.03392965,-0.2136861,-33.50442,-15.50904,34.95034
21.378152847,-15.96982,-6.82132499999999,8.48576300000002,1.001926,-0.03005166,-0.2208707,-33.50442,-15.50904,34.95034
21.388150692,-15.84676,-6.70261999999998,8.30284999999999,1.002849,-0.001371648,-0.2218368,-33.50442,-15.50904,34.95034
21.398149014,-17.44662,-6.287153,8.24187900000002,0.9929895,0.03043113,-0.2299636,-33.50442,-15.50904,34.95034
21.408146858,-20.83095,-6.04974400000001,8.24187900000002,0.9993516,0.02916918,-0.2223172,-33.12968,-15.50623,34.95312
21.418144703,-22.80001,-5.337515,8.72964499999998,0.9948911,-0.01842717,-0.2098542,-33.12968,-15.50623,34.95312
21.428143501,-21.56935,-4.862697,8.79061600000001,0.9786595,-0.03619351,-0.204557,-33.12968,-15.50623,34.95312
21.438141346,-19.78489,-4.387877,8.05896700000001,0.9891807,-0.05230682,-0.2356786,-33.12968,-15.50623,34.95312
21.448139668,-17.81582,-3.616297,6.96149300000002,1.001959,-0.0585339,-0.2534066,-33.12968,-15.50623,34.95312
21.458137512,-15.90829,-2.666659,6.10790299999999,0.9986302,-0.06300823,-0.2572283,-33.12181,-15.88658,34.95515
21.468135357,-15.23143,-1.479612,5.498195,1.002834,-0.05314494,-0.250538,-33.12181,-15.88658,34.95515
21.478133202,-14.36996,-0.648678499999998,5.315282,0.9952046,-0.009967919,-0.2419215,-33.12181,-15.88658,34.95515
21.488131523,-15.66216,-0.1738595,5.010429,0.9943916,0.03323411,-0.2452812,-33.12181,-15.88658,34.95515
21.498129845,-18.55422,0.597721199999998,4.827517,1.010411,-0.01559966,-0.2529538,-33.12181,-15.88658,34.95515
21.508128166,-16.46209,2.378292,4.644604,1.024923,-0.06205107,-0.2625386,-32.74707,-15.88377,34.95793
21.518126011,-12.64703,3.209226,4.461692,0.9888844,-0.03689853,-0.2505179,-32.74707,-15.88377,34.95793
21.528123856,-12.27783,2.793759,3.608101,0.981765,0.006223723,-0.1959589,-32.74707,-15.88377,34.95793
21.538122177,-14.98529,2.022178,3.242276,0.9884626,0.01411013,-0.1452436,-32.74707,-15.88377,34.95793
21.548120022,-17.38509,1.369302,2.815481,1.002131,-0.03909095,-0.147168,-32.72964,-16.64775,34.57498
21.558117867,-17.81582,0.2416071,2.632569,0.9929556,-0.07011902,-0.1725085,-32.72964,-16.64775,34.57498
21.568116665,-18.00042,-1.301555,1.474125,0.9942816,-0.06275544,-0.1672484,-32.72964,-16.64775,34.57498
21.57811451,-18.43115,-3.378887,0.681504599999997,0.9781209,-0.03164111,-0.1308565,-32.72964,-16.64775,34.57498
21.588112354,-21.13862,-5.574925,0.31568,0.9808992,-0.02299184,-0.09449176,-32.72964,-16.64775,34.57498
21.598110676,-23.35381,-8.18642900000001,-0.05014454,0.970647,-0.04801251,-0.09829605,-33.47913,-16.65337,34.56942
21.608108521,-22.12315,-10.67923,-0.8427644,0.9800162,-0.07992586,-0.1011756,-33.47913,-16.65337,34.56942
21.618106365,-19.29262,-13.40944,-2.306063,0.9791837,-0.08784897,-0.1155294,-33.47913,-16.65337,34.56942
21.628104687,-16.58516,-16.43641,-3.403537,0.9838662,-0.05181433,-0.1174612,-33.47913,-16.65337,34.56942
21.638103008,-17.38509,-19.04791,-3.830332,0.9750519,0.02811732,-0.1256022,-33.47913,-16.65337,34.56942
21.648100853,-23.47688,-21.24395,-4.318098,0.9775895,0.04851998,-0.1318333,-33.10609,-16.64729,34.95921
21.658099174,-28.95334,-23.32128,-4.561981,0.9893022,-0.00492589,-0.1562474,-33.10609,-16.64729,34.95921
21.668097019,-30.24553,-25.10185,-5.110718,0.9935293,-0.02305469,-0.1816146,-33.10609,-16.64729,34.95921
21.678094864,-30.61473,-26.88243,-5.84236700000003,0.9848475,-0.02747249,-0.1677196,-33.10609,-16.64729,34.95921
21.688093185,-30.43013,-28.84105,-7.12275300000002,0.9886093,-0.02005202,-0.1615066,-33.10609,-16.64729,34.95921
21.69809103,-29.93787,-30.68097,-7.79343099999999,0.9683656,-0.005829863,-0.1566892,-31.95827,-17.77992,34.97363
21.708089828,-30.12247,-32.99572,-8.829934,0.9635566,-0.00938349,-0.1629014,-31.95827,-17.77992,34.97363
21.718087673,-28.64567,-35.07305,-9.98837900000002,0.9729266,-0.04204595,-0.1944953,-31.95827,-17.77992,34.97363
21.728085518,-25.19981,-36.55686,-11.08585,0.969648,-0.02393445,-0.2260803,-31.95827,-17.77992,34.97363
21.738083363,-24.33834,-38.51549,-12.67109,0.9682605,-0.002177835,-0.2351764,-31.95827,-17.77992,34.97363
21.748081684,-24.52294,-40.41476,-14.13439,0.9862009,0.002536929,-0.2366447,-30.8203,-18.52838,35.43753
21.758079529,-24.70754,-41.42376,-15.10992,0.9826872,0.007698819,-0.2490828,-30.8203,-18.52838,35.43753
21.768077373,-26.98427,-43.32303,-16.8171,0.9932144,-0.008230155,-0.2601043,-30.8203,-18.52838,35.43753
21.778076172,-25.56901,-45.45972,-18.03652,1.005537,-0.04067104,-0.2208742,-30.8203,-18.52838,35.43753
21.788074017,-25.07674,-47.5964,-18.95108,0.9892443,-0.00288333,-0.1983625,-30.8203,-18.52838,35.43753
21.798072338,-26.61507,-50.86078,-20.04856,0.9906597,0.02597748,-0.1806651,-30.03488,-20.418,36.22723
21.808070183,-27.72267,-53.76905,-20.1705,0.9930087,0.08231854,-0.1888195,-30.03488,-20.418,36.22723
21.818068027,-31.78387,-57.3301900000001,-20.23147,1.006455,0.1183904,-0.2056023,-30.03488,-20.418,36.22723
21.828065872,-37.07573,-60.7132799999998,-19.13399,1.034739,0.116865,-0.2209657,-30.03488,-20.418,36.22723
21.838064671,-42.30605,-63.8589499999998,-17.91458,1.033857,0.1112434,-0.2491987,-30.03488,-20.418,36.22723
21.848062515,-43.29058,-67.3013900000002,-16.51225,1.07454,0.124787,-0.2377873,-27.77437,-21.15475,37.08648
21.858060837,-45.01351,-69.4380700000001,-18.03652,1.12807,0.1024404,-0.2464892,-27.77437,-21.15475,37.08648
21.868058681,-42.92138,-71.4560499999998,-18.7072,1.205889,0.1887642,-0.2212826,-27.77437,-21.15475,37.08648
21.878056526,-46.42878,-73.4740399999997,-17.06099,1.228675,0.1966536,-0.1519308,-27.77437,-21.15475,37.08648
21.888054848,-44.89045,-74.4830200000002,-14.68313,1.264384,0.1896893,-0.1405054,-27.77437,-21.15475,37.08648
21.898052692,-45.13658,-78.2815799999998,-12.54915,1.22453,0.2080667,-0.2232343,-24.74865,-22.64659,37.95534
21.908051491,-43.29058,-80.4776200000001,-10.72003,1.190083,0.1993698,-0.2494937,-24.74865,-22.64659,37.95534
21.918049335,-41.62918,-81.7240099999999,-8.64702100000002,1.152254,0.2147628,-0.2910679,-24.74865,-22.64659,37.95534
21.92804718,-43.10598,-80.7150300000001,-6.63498599999997,1.112478,0.2037712,-0.3441176,-24.74865,-22.64659,37.95534
21.938045025,-46.18264,-78.7563999999999,-4.50101,1.038471,0.1474669,-0.3894388,-24.74865,-22.64659,37.95534
21.948043346,-46.85951,-74.77979,-2.06218,0.9887379,0.04393215,-0.4443617,-22.84687,-24.14742,38.75136
21.958041191,-44.33665,-70.1503099999998,0.7424754,0.95333,-0.01875928,-0.5275562,-22.84687,-24.14742,38.75136
21.968039036,-48.95164,-63.3247799999997,6.59566799999998,0.8843663,-0.03374321,-0.6351117,-22.84687,-24.14742,38.75136
21.978037834,-58.1816199999998,-60.0010499999998,9.94906,0.7695236,0.03062383,-0.8402372,-22.84687,-24.14742,38.75136
21.988035679,-74.1187300000002,-54.77804,15.19255,0.8888066,0.06682476,-0.6471097,-22.84687,-24.14742,38.75136
21.998034,-90.8557700000001,-43.73849,21.71642,0.8179959,0.05112041,-0.5641885,-19.46213,-24.87573,39.61894
22.008031845,-102.424,-28.36624,27.32573,0.7972469,-0.008313706,-0.4296572,-19.46213,-24.87573,39.61894
22.01802969,-107.9005,-6.10909600000003,31.71562,0.774303,-0.05312865,-0.2329109,-19.46213,-24.87573,39.61894
22.028027534,-108.9465,16.91962,35.19096,0.6581678,-0.04636226,-0.3044966,-19.46213,-24.87573,39.61894
22.038026333,-112.7001,35.08145,37.26396,0.6604301,0.04062211,-0.3093087,-19.46213,-24.87573,39.61894
22.048024178,-115.0383,53.89615,40.19056,0.8129794,0.01446733,-0.2578817,-17.92635,-26.39626,38.41267
22.058022499,-112.9462,72.7702000000001,43.05618,0.8174505,0.008022538,-0.33446,-17.92635,-26.39626,38.41267
22.068020344,-104.7623,87.1334699999998,43.97075,0.7878086,0.054796,-0.3631349,-17.92635,-26.39626,38.41267
22.078018188,-93.8093600000001,98.8258900000001,43.66589,0.8210448,0.07537185,-0.3636767,-17.92635,-26.39626,38.41267
22.08801651,-82.0565200000001,109.8654,42.8123,0.8564769,0.08136367,-0.4226049,-18.98115,-29.09497,35.12901
22.098014355,-66.4886100000002,118.2935,41.83677,0.847726,0.07863729,-0.489111,-18.98115,-29.09497,35.12901
22.108012676,-48.58244,121.6172,39.94667,0.8030844,0.1190068,-0.5479084,-18.98115,-29.09497,35.12901
22.118010998,-30.67627,123.1604,35.67872,0.771522,0.1371146,-0.6249089,-18.98115,-29.09497,35.12901
22.128008842,-12.9547,123.5758,30.37426,0.7854892,0.1455332,-0.637857,-18.98115,-29.09497,35.12901
22.138006687,5.197607,123.8132,24.64301,0.8500785,0.1568737,-0.6532869,-22.67935,-30.67884,31.0458
22.148005009,20.02711,123.9913,19.21662,0.8697849,0.1713421,-0.6547607,-22.67935,-30.67884,31.0458
22.158002853,31.77996,122.1514,14.70478,0.8611749,0.2407055,-0.6499777,-22.67935,-30.67884,31.0458
22.168000698,34.24129,118.1154,11.71721,0.8684723,0.2941595,-0.6126754,-22.67935,-30.67884,31.0458
22.177999497,31.4723,112.2989,10.74168,0.8769863,0.3351697,-0.5571859,-22.67935,-30.67884,31.0458
22.187997341,25.87277,106.5417,11.16848,0.9383647,0.3380122,-0.4855072,-27.18941,-29.59168,28.61983
22.197995186,19.22718,101.0813,10.31489,1.056238,0.3175694,-0.3722849,-27.18941,-29.59168,28.61983
22.207993507,25.81124,89.9823800000003,7.754113,0.9268679,0.3261083,-0.5400417,-27.18941,-29.59168,28.61983
22.217991352,27.5957,72.2953800000001,5.376253,0.8199933,0.3068124,-0.6121155,-27.18941,-29.59168,28.61983
22.227989197,27.16497,55.79543,3.608101,0.6758062,0.278222,-0.6104211,-27.18941,-29.59168,28.61983
22.237987995,14.55066,29.44297,3.425189,0.6986969,0.2762514,-0.7157472,-29.05409,-29.62318,26.54192
22.24798584,18.36572,7.06713000000001,-9.62255399999997,0.9900244,0.7742537,-0.6646971,-29.05409,-29.62318,26.54192
22.257984161,-1.817181,18.22537,-11.8175,1.413142,0.6811964,0.0926538,-29.05409,-29.62318,26.54192
22.267982006,-12.70856,38.40518,-0.1111153,1.111927,0.03384,-0.008591116,-29.05409,-29.62318,26.54192
22.277979851,-1.140316,38.52388,8.54673300000003,0.9592839,0.03527725,-0.2117202,-29.05409,-29.62318,26.54192
22.287977696,0.3980148,34.19116,11.5343,1.036454,0.18018,-0.2621425,-30.19235,-28.87417,26.14252
22.297976017,2.859344,32.11383,8.79061600000001,1.01653,0.1276478,-0.1716434,-30.19235,-28.87417,26.14252
22.307974339,7.41280299999999,29.14621,4.522663,0.9814627,0.02221434,-0.2002697,-30.19235,-28.87417,26.14252
22.31797266,18.42725,30.09585,2.327715,0.9741902,-0.005592917,-0.1964212,-30.19235,-28.87417,26.14252
22.327970505,28.39564,31.2829,2.69354,0.9656334,0.03593345,-0.1538237,-30.19235,-28.87417,26.14252
22.33796835,31.22616,31.52031,3.364218,0.9636599,0.0630677,-0.1581345,-31.67979,-29.27286,25.29492
22.347966671,31.90303,30.09585,3.912955,0.968923,0.06791268,-0.1710664,-31.67979,-29.27286,25.29492
22.357964516,34.61049,29.85844,6.10790299999999,1.002748,0.08394779,-0.1381078,-31.67979,-29.27286,25.29492
22.367963314,35.47195,30.68937,7.022464,1.007239,0.1309808,-0.1060631,-31.67979,-29.27286,25.29492
22.377961159,33.13369,30.0365,7.44925899999998,1.015982,0.1590847,-0.08072108,-31.67979,-29.27286,25.29492
22.387959004,28.94943,29.08686,6.83955100000002,1.004974,0.1488028,-0.06538482,-32.44133,-28.52486,24.4468
22.397956848,25.38051,27.18758,6.29081499999999,1.010194,0.1048607,-0.04623956,-32.44133,-28.52486,24.4468
22.40795517,25.19591,25.58507,6.65663900000001,1.012142,0.05359555,-0.02373669,-32.44133,-28.52486,24.4468
22.417953014,27.84184,23.27032,6.16887299999999,0.999846,0.05967863,-0.02275966,-32.44133,-28.52486,24.4468
22.427950859,28.21103,20.00595,5.498195,0.9903594,0.09872183,0.01601148,-32.44133,-28.52486,24.4468
22.437949658,25.25744,16.20739,4.400721,0.975392,0.09178524,0.03374667,-32.82591,-28.1435,24.89349
22.447947502,22.91918,11.51856,3.364218,0.9699617,0.04430569,0.06104721,-32.82591,-28.1435,24.89349
22.457945824,23.41144,7.60130100000003,2.998394,0.9747136,0.02505403,0.07109397,-32.82591,-28.1435,24.89349
22.467943668,24.02678,4.040159,2.205774,0.9751162,0.003715649,0.07492737,-32.82591,-28.1435,24.89349
22.477941513,25.25744,0.2416071,1.352183,0.9527609,0.02590707,0.05246755,-32.82591,-28.1435,24.89349
22.487939358,23.53451,-4.269173,0.01082622,0.9659243,0.051401,0.04860944,-33.59899,-27.00806,24.88185
22.497938156,20.70398,-7.17743899999998,-0.5379106,0.9826256,0.06939938,0.01459679,-33.59899,-27.00806,24.88185
22.507936001,17.07352,-9.61088600000001,-0.598881400000002,0.9914394,0.09202237,-0.02801767,-33.59899,-27.00806,24.88185
22.517934322,13.01233,-11.74757,-0.7817937,0.9881926,0.1088171,-0.04428792,-33.59899,-27.00806,24.88185
22.527932167,9.62799900000003,-13.46879,-1.208589,0.9893659,0.1237421,-0.06200113,-33.59899,-27.00806,24.88185
22.537930012,7.04360400000002,-14.24037,-1.147618,1.018963,0.1043112,-0.07209782,-33.98328,-26.62725,25.26404
22.547928333,7.65893599999998,-13.7062,-0.4159691,1.011642,0.0780607,-0.1103644,-33.98328,-26.62725,25.26404
22.557926655,9.13573400000002,-12.22239,0.01082622,1.008766,0.07483821,-0.1376374,-33.98328,-26.62725,25.26404
22.5679245,12.27393,-10.73858,0.01082622,1.000927,0.07633758,-0.1692101,-33.98328,-26.62725,25.26404
22.577922821,15.10446,-9.848295,-0.2940276,1.005658,0.08361929,-0.1802275,-33.98328,-26.62725,25.26404
22.587920666,18.36572,-7.94901899999999,-0.4159691,1.037466,0.07647705,-0.1798025,-33.99481,-26.23981,26.10052
22.597918511,21.99618,-5.931039,0.31568,1.035134,0.09684053,-0.1798037,-33.99481,-26.23981,26.10052
22.607916832,23.53451,-3.675649,0.925387699999998,1.024351,0.1263533,-0.1706996,-33.99481,-26.23981,26.10052
22.617914677,21.81158,-2.369897,1.413154,1.005314,0.1542407,-0.1620592,-33.99481,-26.23981,26.10052
22.627913475,18.91952,-1.242202,1.839949,1.01405,0.1564711,-0.149632,-33.99481,-26.23981,26.10052
22.63791132,16.45819,-0.3519166,2.388686,1.025054,0.1417735,-0.1333758,-33.25319,-25.85383,26.10405
22.647909164,14.73526,0.2416071,2.998394,1.025929,0.1215435,-0.1156648,-33.25319,-25.85383,26.10405
22.657907009,13.38153,0.775778400000001,3.242276,1.016438,0.1083847,-0.0993733,-33.25319,-25.85383,26.10405
22.667905331,11.72013,0.775778400000001,3.669072,1.003045,0.09498212,-0.1012608,-33.25319,-25.85383,26.10405
22.677903175,9.87413200000002,0.657073599999999,3.912955,1.004028,0.09450246,-0.1026981,-33.64704,-25.08939,26.87122
22.687901974,8.08966899999999,0.4790165,3.608101,1.007668,0.08250479,-0.094087,-33.64704,-25.08939,26.87122
22.697899818,7.04360400000002,0.3603118,3.54713,1.007704,0.08055736,-0.09456515,-33.64704,-25.08939,26.87122
22.707897663,5.25914,0.2416071,3.973926,1.005208,0.08399297,-0.08546873,-33.64704,-25.08939,26.87122
22.717895985,3.474676,0.5383689,4.034896,1.005505,0.0942738,-0.07781468,-33.64704,-25.08939,26.87122
22.727893829,1.013347,0.3009594,4.400721,0.9840317,0.09565733,-0.09261346,-33.27847,-24.70949,26.48497
22.737891674,-1.386449,-0.2332119,4.27878,0.9838824,0.07767893,-0.09213,-33.27847,-24.70949,26.48497
22.747889519,-1.940248,-0.1738595,4.095867,1.004486,0.07029779,-0.09359974,-33.27847,-24.70949,26.48497
22.757888317,-1.694115,0.3009594,4.27878,1.0094,0.06786866,-0.1041364,-33.27847,-24.70949,26.48497
22.767886162,-1.201849,0.4790165,4.034896,1.012643,0.07659194,-0.1137158,-33.27847,-24.70949,26.48497
22.777884483,-2.001781,0.3009594,4.034896,1.006062,0.08952094,-0.1204077,-33.28214,-24.70241,27.32347
22.787882328,-3.109379,0.004197581,3.669072,1.008309,0.09985343,-0.1113213,-33.28214,-24.70241,27.32347
22.797880173,-3.601645,0.3009594,3.48616,1.018885,0.08162294,-0.1084636,-33.28214,-24.70241,27.32347
22.807878494,-3.355512,0.4790165,3.669072,1.008774,0.07509278,-0.10988,-33.28214,-24.70241,27.32347
22.817876816,-2.617113,0.775778400000001,3.54713,1.010924,0.06444452,-0.109881,-33.28214,-24.70241,27.32347
22.827875137,-2.186381,1.131893,3.425189,1.010445,0.06393597,-0.1113158,-33.64704,-25.08939,26.87122
22.837872982,-1.509515,1.013188,3.181306,1.007935,0.0677081,-0.118491,-33.64704,-25.08939,26.87122
22.847870827,-1.571049,1.013188,2.876452,1.00735,0.07312964,-0.1089199,-33.64704,-25.08939,26.87122
22.857868671,-2.001781,1.07254,2.937423,1.012648,0.07674117,-0.09744424,-33.64704,-25.08939,26.87122
22.867866993,-2.801713,1.191245,3.059364,1.007297,0.07611443,-0.1012634,-33.64704,-25.08939,26.87122
22.877865314,-3.909311,1.013188,2.876452,0.9970944,0.07441993,-0.1050737,-33.29,-24.32205,27.32145
22.887863636,-4.340044,0.716426,2.75451,1.008006,0.06453162,-0.09408297,-33.29,-24.32205,27.32145
22.897861481,-4.093911,0.716426,2.449656,1.003641,0.06349982,-0.09120364,-33.29,-24.32205,27.32145
22.907859325,-4.278511,0.716426,2.571598,0.998732,0.06531152,-0.09502415,-33.29,-24.32205,27.32145
22.917857647,-4.64771,0.894483100000001,2.510627,0.9993382,0.05901941,-0.09358786,-33.29,-24.32205,27.32145
22.927855492,-5.324575,0.716426,2.205774,0.9930726,0.05481948,-0.1141546,-34.02965,-24.71185,26.86641
22.937853813,-5.386109,-0.1145072,1.90092,1.004039,0.06766184,-0.1151342,-34.02965,-24.71185,26.86641
22.947852135,-5.693775,-0.1738595,1.596066,1.017314,0.06174285,-0.10032,-34.02965,-24.71185,26.86641
22.957849979,-5.632242,0.06354995,1.596066,1.014409,0.06069603,-0.1022289,-34.02965,-24.71185,26.86641
22.967847824,-5.632242,-0.1145072,1.596066,1.009916,0.06646489,-0.09935113,-34.02965,-24.71185,26.86641
22.977846146,-6.001441,-0.1738595,1.352183,0.9997225,0.0642978,-0.1017257,-33.30206,-23.56842,26.47889
22.98784399,-5.93990799999998,-0.589326100000003,1.291212,1.002093,0.06772429,-0.1041236,-33.30206,-23.56842,26.47889
22.997841835,-6.12450699999998,-0.826735599999998,1.047329,1.013163,0.07532424,-0.09409473,-33.30206,-23.56842,26.47889
23.007840633,-6.862906,-1.18285,0.864416900000002,1.01163,0.07922535,-0.08930732,-33.30206,-23.56842,26.47889
23.017838478,-7.724371,-1.360907,1.1083,1.004581,0.06552795,-0.08402716,-33.30206,-23.56842,26.47889
23.027836323,-7.66283799999999,-1.123497,1.291212,1.00287,0.052886,-0.08114947,-32.90542,-24.70341,26.87475
23.037834644,-7.17057299999998,-0.826735599999998,1.230241,1.00464,0.03634193,-0.08736977,-32.90542,-24.70341,26.87475
23.047832489,-5.693775,-1.004793,0.864416900000002,0.9883645,0.04594003,-0.1184513,-32.90542,-24.70341,26.87475
23.057830334,-5.632242,-2.42925,-0.1111153,0.9985982,0.07192344,-0.1156044,-32.90542,-24.70341,26.87475
23.067829132,-6.370641,-2.666659,-0.4159691,1.019045,0.07350984,-0.09266879,-32.90542,-24.70341,26.87475
23.077826977,-6.43217400000002,-2.607306,-0.3549984,1.013427,0.06121083,-0.09696301,-34.02009,-25.09547,26.48144
23.087825298,-6.73984000000002,-2.785364,-0.2940276,1.001627,0.06681337,-0.09646532,-34.02009,-25.09547,26.48144
23.097823143,-7.90897099999997,-3.20083,-0.4159691,0.9982005,0.06777021,-0.09071667,-34.02009,-25.09547,26.48144
23.107820988,-8.70890300000002,-3.675649,-0.5379106,1.001562,0.07017419,-0.1007732,-34.02009,-25.09547,26.48144
23.117818832,-8.89350299999999,-3.853706,-0.1720861,1.010412,0.06599314,-0.0988733,-34.02009,-25.09547,26.48144
23.127817631,-9.508835,-3.794354,-0.1720861,1.01331,0.06756961,-0.09217869,-33.27847,-24.70949,26.48497
23.137815475,-10.1857,-3.556944,0.1937385,1.012343,0.06700754,-0.09839835,-33.27847,-24.70949,26.48497
23.147813797,-11.04717,-3.141478,0.7424754,1.020408,0.05251407,-0.1065445,-33.27847,-24.70949,26.48497
23.157811642,-10.98563,-2.310545,1.230241,1.011009,0.03377049,-0.1165734,-33.27847,-24.70949,26.48497
23.167809486,-11.1087,-1.95443,1.230241,1.0011,0.04222954,-0.1266084,-33.27847,-24.70949,26.48497
23.177807808,-11.78556,-1.95443,0.925387699999998,1.009043,0.06036632,-0.1266269,-33.6358,-25.47628,26.09924
23.187806129,-12.7701,-1.95443,0.4985923,1.007905,0.06909955,-0.12567,-33.6358,-25.47628,26.09924
23.197804451,-13.57003,-1.776374,0.1327677,1.005701,0.08264921,-0.1271054,-33.6358,-25.47628,26.09924
23.207802296,-13.93923,-1.776374,0.1937385,1.004438,0.09828406,-0.1151428,-33.6358,-25.47628,26.09924
23.21780014,-13.8777,-1.835726,0.1937385,0.9932621,0.0966098,-0.1146443,-33.64535,-25.09266,26.48422
23.227797985,-13.1393,-1.95443,0.3766508,1.004559,0.09203061,-0.1084413,-33.64535,-25.09266,26.48422
23.237796307,-11.90863,-2.547954,0.0717969800000001,1.003795,0.0808564,-0.1065228,-33.64535,-25.09266,26.48422
23.247794628,-9.63190200000001,-2.844716,-0.1111153,1.010347,0.06933641,-0.1050955,-33.64535,-25.09266,26.48422
23.25779295,-6.49370699999998,-2.785364,-0.2330568,1.011898,0.06448133,-0.1079684,-33.64535,-25.09266,26.48422
23.267790794,-3.478579,-2.607306,-0.598881400000002,1.015517,0.05334985,-0.1108433,-33.26105,-25.47347,26.10202
23.277788639,-2.92478,-2.42925,-0.659852100000001,1.007713,0.05363335,-0.1160941,-33.26105,-25.47347,26.10202
23.287786961,-3.970845,-2.547954,-0.4159691,1.000196,0.06465711,-0.1165625,-33.26105,-25.47347,26.10202
23.297784805,-4.340044,-2.726011,-0.1720861,1.00597,0.06872453,-0.1093949,-33.26105,-25.47347,26.10202
23.307783604,-5.693775,-2.666659,-0.1111153,1.003811,0.07982343,-0.1132226,-33.26105,-25.47347,26.10202
23.317781448,-6.80137299999998,-2.607306,-0.05014454,0.9965035,0.07964835,-0.1165599,-33.24533,-26.23418,26.10608
23.327779293,-7.17057299999998,-3.20083,0.0717969800000001,0.9949811,0.08310759,-0.1069866,-33.24533,-26.23418,26.10608
23.337777138,-6.92443900000002,-3.378887,0.1937385,1.001893,0.0784286,-0.1022117,-33.24533,-26.23418,26.10608
23.347775459,-6.001441,-3.43824,0.2547093,1.005522,0.06684209,-0.1017364,-33.24533,-26.23418,26.10608
23.357773304,-3.417045,-3.43824,0.31568,1.0021,0.06716391,-0.1122592,-33.24533,-26.23418,26.10608
23.367772102,-1.509515,-3.556944,0.1327677,1.000223,0.06319106,-0.1175193,-33.62962,-25.85337,26.48827
23.377769947,-0.7711166,-3.616297,0.2547093,0.9991839,0.06653263,-0.1218255,-33.62962,-25.85337,26.48827
23.387767792,-0.2788507,-3.556944,-0.2330568,1.00559,0.06280237,-0.1184857,-33.62962,-25.85337,26.48827
23.397765637,0.1518819,-3.497592,0.0717969800000001,1.013356,0.06437853,-0.1223282,-33.62962,-25.85337,26.48827
23.407763958,0.5826145,-3.141478,0.01082622,1.012373,0.06486259,-0.1204124,-33.62962,-25.85337,26.48827
23.417761803,0.5826145,-3.141478,0.1937385,1.004251,0.08220041,-0.1199241,-33.24335,-26.238,25.65458
23.427760601,-0.955716300000001,-3.022773,0.1327677,1.00514,0.08650373,-0.1294983,-33.24335,-26.238,25.65458
23.437758446,-1.447982,-2.904068,0.1937385,1.002182,0.08843292,-0.1247078,-33.24335,-26.238,25.65458
23.447756291,-1.817181,-2.963421,0.4376215,1.001409,0.07773131,-0.1242252,-33.24335,-26.238,25.65458
23.457754612,-1.509515,-2.904068,0.5595631,1.00435,0.0768307,-0.1227943,-33.24335,-26.238,25.65458
23.467752457,-1.140316,-2.726011,0.681504599999997,1.000969,0.07533239,-0.1199166,-33.25319,-25.85383,26.10405
23.477750301,-0.7711166,-2.785364,0.4376215,1.002041,0.06993803,-0.1275743,-33.25319,-25.85383,26.10405
23.4877491,-0.3403839,-2.607306,0.5595631,1.00261,0.0655802,-0.1270956,-33.25319,-25.85383,26.10405
23.497746945,0.0903486900000002,-2.666659,0.4376215,1.006499,0.06618245,-0.1227953,-33.25319,-25.85383,26.10405
23.507744789,0.1518819,-2.42925,0.1937385,1.003028,0.06957247,-0.1165687,-33.25319,-25.85383,26.10405
23.517743111,-0.2788507,-2.42925,0.31568,1.000013,0.07434162,-0.1199147,-33.26274,-25.4702,26.48903
23.527740955,-0.586516899999998,-2.488602,0.4985923,1.003026,0.06951541,-0.1227901,-33.26274,-25.4702,26.48903
23.5377388,-1.078783,-2.726011,0.31568,1.007393,0.07061305,-0.1184908,-33.26274,-25.4702,26.48903
23.547737599,-0.832649800000001,-2.844716,0.1937385,1.004128,0.06274278,-0.1218332,-33.26274,-25.4702,26.48903
23.557735443,-0.894183000000003,-2.844716,0.1937385,1.00162,0.06659392,-0.1203941,-33.26274,-25.4702,26.48903
23.567733765,-0.2788507,-2.785364,0.3766508,1.000123,0.0685432,-0.1165633,-32.49584,-26.22856,26.11164
23.577731609,0.2134152,-3.20083,0.2547093,1.002603,0.06610985,-0.1223099,-32.49584,-26.22856,26.11164
23.587729454,0.767214200000001,-3.260183,0.2547093,0.9997514,0.06211773,-0.1275683,-32.49584,-26.22856,26.11164
23.597727299,1.874812,-3.141478,-0.1720861,0.9968382,0.061583,-0.1266059,-32.49584,-26.22856,26.11164
23.607726097,2.613211,-3.556944,-0.1111153,1.001728,0.06072089,-0.1251785,-32.49584,-26.22856,26.11164
23.617723942,2.797811,-3.378887,-0.1720861,1.007977,0.06516957,-0.1304549,-32.88014,-25.84775,26.49383
23.627722263,2.367078,-3.319535,0.0717969800000001,1.004357,0.07628349,-0.1294942,-32.88014,-25.84775,26.49383
23.637720108,1.382547,-3.378887,0.0717969800000001,1.003265,0.08258352,-0.1290154,-32.88014,-25.84775,26.49383
23.647717953,0.644147799999998,-3.260183,0.1937385,0.9994672,0.07713244,-0.1323574,-32.88014,-25.84775,26.49383
23.657716274,0.1518819,-3.082125,0.0717969800000001,1.001065,0.06986172,-0.1337941,-32.88014,-25.84775,26.49383
23.667714596,0.4595481,-3.378887,0.1937385,1.001661,0.06402466,-0.1357079,-33.25488,-25.85056,26.49105
23.677712917,1.07488,-3.319535,0.1937385,1.000147,0.06697619,-0.1285274,-33.25488,-25.85056,26.49105
23.687710762,1.567146,-3.20083,0.1937385,1.005044,0.06558003,-0.1323642,-33.25488,-25.85056,26.49105
23.697708607,2.244012,-3.141478,-0.1111153,1.004484,0.06946088,-0.1318856,-33.25488,-25.85056,26.49105
23.707706451,2.182479,-2.785364,0.0717969800000001,1.006495,0.06605516,-0.136674,-33.25488,-25.85056,26.49105
23.717704773,2.120945,-2.607306,0.01082622,1.010869,0.06659681,-0.1400318,-32.87059,-26.23137,26.10886
23.727703094,1.936346,-2.310545,0.1327677,1.002967,0.07231147,-0.1357123,-32.87059,-26.23137,26.10886
23.737701416,1.07488,-2.310545,0.2547093,1.006339,0.07428677,-0.1395473,-32.87059,-26.23137,26.10886
23.747699261,0.8287475,-2.132488,0.1937385,1.002095,0.06699274,-0.1309236,-32.87059,-26.23137,26.10886
23.757697105,0.705681,-1.895078,0.31568,0.9996393,0.06786347,-0.1366625,-32.87059,-26.23137,26.10886
23.767695427,1.07488,-1.895078,0.4376215,0.9947782,0.0673122,-0.1333039,-32.88184,-25.84448,26.88084
23.777693272,0.705681,-1.835726,0.1937385,0.9976635,0.06928226,-0.1366594,-32.88184,-25.84448,26.88084
23.787691593,1.321013,-1.95443,0.2547093,1.004087,0.06454536,-0.137148,-32.88184,-25.84448,26.88084
23.797689915,1.321013,-1.835726,0.31568,1.00305,0.06796157,-0.1333185,-32.88184,-25.84448,26.88084
23.807687759,1.567146,-1.776374,0.1327677,1.001624,0.06595454,-0.1371441,-33.24702,-26.23092,26.49308
23.817685604,1.567146,-1.895078,0.1327677,1.005943,0.06941954,-0.1395454,-33.24702,-26.23092,26.49308
23.827683926,1.25948,-1.538964,0.0717969800000001,1.004023,0.0679457,-0.1371488,-33.24702,-26.23092,26.49308
23.83768177,1.382547,-1.598316,0.01082622,1.001008,0.07271923,-0.1400162,-33.24702,-26.23092,26.49308
23.847680569,0.767214200000001,-1.598316,0.01082622,1.006864,0.07239724,-0.134762,-33.24702,-26.23092,26.49308
23.857678413,0.5210813,-1.538964,0.0717969800000001,1.008278,0.07477592,-0.1433794,-32.14021,-25.4585,26.88437
23.867676258,-0.0942510000000003,-1.360907,0.31568,1.005466,0.06894609,-0.1371515,-32.14021,-25.4585,26.88437
23.877674103,0.02881546,-1.301555,0.1937385,1.002212,0.06063835,-0.1352294,-32.14021,-25.4585,26.88437
23.887672424,0.2134152,-1.18285,0.31568,1.005172,0.05876182,-0.1342769,-32.14021,-25.4585,26.88437
23.897670746,0.3364816,-1.598316,-0.05014454,0.998305,0.061012,-0.1390513,-32.14021,-25.4585,26.88437
23.907669067,0.5210813,-1.301555,0.01082622,1.000164,0.06596517,-0.1328343,-32.88969,-25.46412,26.87881
23.917666912,0.5210813,-1.479612,0.01082622,0.9976456,0.07026257,-0.1357025,-32.88969,-25.46412,26.87881
23.927664757,0.1518819,-1.360907,-0.05014454,1.003012,0.06987388,-0.1366689,-32.88969,-25.46412,26.87881
23.937663078,0.1518819,-1.301555,-0.2330568,1.003546,0.06746349,-0.1357121,-32.88969,-25.46412,26.87881
23.947660923,0.1518819,-1.538964,-0.2330568,1.000641,0.066443,-0.1347496,-32.88969,-25.46412,26.87881
23.957659721,0.644147799999998,-1.598316,-0.1720861,1.000116,0.06832813,-0.1400135,-33.25658,-25.84729,26.87806
23.967657566,0.767214200000001,-1.657669,-0.3549984,1.003627,0.06306091,-0.1390611,-33.25658,-25.84729,26.87806
23.977655411,0.8287475,-1.538964,-0.3549984,1.00415,0.0611187,-0.1400187,-33.25658,-25.84729,26.87806
23.987653255,1.07488,-1.657669,-0.3549984,1.003102,0.06495921,-0.1428893,-33.25658,-25.84729,26.87806
23.997651577,0.951813900000003,-1.123497,-0.2940276,1.005922,0.0702901,-0.1505528,-33.25658,-25.84729,26.87806
24.007649422,0.4595481,-1.242202,-0.4159691,1.000583,0.06925222,-0.146236,-32.50709,-25.84166,26.88362
24.01764822,0.4595481,-1.242202,-0.3549984,1.006338,0.07424727,-0.1438545,-32.50709,-25.84166,26.88362
24.027646065,0.0903486900000002,-1.004793,-0.2330568,1.0021,0.06637091,-0.1457594,-32.50709,-25.84166,26.88362
24.037643909,0.0903486900000002,-0.886087999999999,-0.4159691,1.003093,0.06544059,-0.143368,-32.50709,-25.84166,26.88362
24.047642231,-0.0942510000000003,-0.767383199999997,-0.3549984,1.003076,0.066456,-0.1385824,-32.50709,-25.84166,26.88362
24.057640076,-0.0942510000000003,-0.826735599999998,-0.5379106,1.005473,0.0683945,-0.14433,-32.14021,-25.4585,26.88437
24.06763792,-0.3403839,-0.826735599999998,-0.4769399,0.9995742,0.07122869,-0.1404919,-32.14021,-25.4585,26.88437
24.077636719,-0.7711166,-1.004793,-0.598881400000002,0.9966703,0.07021259,-0.1390508,-32.14021,-25.4585,26.88437
24.087634563,-1.017249,-1.004793,-0.598881400000002,1.000549,0.07125233,-0.140015,-32.14021,-25.4585,26.88437
24.097632408,-1.017249,-1.123497,-0.598881400000002,1.002176,0.06259455,-0.1337941,-32.14021,-25.4585,26.88437
24.10763073,-0.832649800000001,-1.064145,-0.7817937,0.9971189,0.07210381,-0.1457521,-31.76744,-25.45187,27.33865
24.117628574,-1.078783,-1.123497,-0.720822899999998,0.9981682,0.0683028,-0.1385744,-31.76744,-25.45187,27.33865
24.127627373,-1.509515,-1.004793,-0.903735200000002,0.9976973,0.06725582,-0.1457519,-31.76744,-25.45187,27.33865
24.137625217,-1.632582,-0.886087999999999,-0.964705900000002,1.006081,0.06216383,-0.1361937,-31.76744,-25.45187,27.33865
24.147623062,-1.694115,-0.826735599999998,-1.086647,1.006079,0.06210677,-0.1424152,-31.76744,-25.45187,27.33865
24.157621384,-1.447982,-0.767383199999997,-0.964705900000002,1.005122,0.06107651,-0.1467204,-32.14388,-25.45142,27.72287
24.167619228,-1.201849,-0.826735599999998,-1.147618,1.001272,0.0586146,-0.1419273,-32.14388,-25.45142,27.72287
24.177617073,-1.201849,-0.767383199999997,-1.391501,1.003111,0.06448223,-0.141932,-32.14388,-25.45142,27.72287
24.187615871,-1.386449,-0.708030899999999,-1.391501,0.9967154,0.06776623,-0.1409646,-32.14388,-25.45142,27.72287
24.197613716,-1.694115,-0.886087999999999,-1.452472,0.9946671,0.07308866,-0.1390481,-32.14388,-25.45142,27.72287
24.207611561,-1.632582,-1.004793,-1.513443,0.999115,0.06977495,-0.139055,-32.52112,-25.08422,26.49256
24.217609882,-1.571049,-0.9454404,-1.757326,1.004047,0.06638747,-0.1481556,-32.52112,-25.08422,26.49256
24.227607727,-1.694115,-0.9454404,-1.696355,1.002082,0.0673556,-0.1443239,-32.52112,-25.08422,26.49256
24.237605572,-1.694115,-0.9454404,-2.06218,1.005529,0.06552382,-0.1395436,-32.52112,-25.08422,26.49256
24.24760437,-1.755648,-0.826735599999998,-1.940238,1.008515,0.06213734,-0.1443337,-32.52112,-25.08422,26.49256
24.257602215,-2.063314,-0.826735599999998,-2.245092,1.005564,0.06352811,-0.1452861,-32.88184,-25.84448,26.88084
24.26760006,-1.817181,-0.767383199999997,-2.367033,1.004075,0.06494773,-0.146241,-32.88184,-25.84448,26.88084
24.277598381,-1.447982,-0.886087999999999,-2.428004,1.005518,0.06592619,-0.1486367,-32.88184,-25.84448,26.88084
24.287596226,-0.955716300000001,-0.826735599999998,-2.610917,1.005051,0.06501966,-0.1404998,-32.88184,-25.84448,26.88084
24.297594071,-0.7711166,-1.004793,-2.671887,0.9981859,0.06731373,-0.1404884,-32.88184,-25.84448,26.88084
24.307592869,-0.4019172,-1.123497,-2.91577,0.9953081,0.06480523,-0.1428757,-32.13432,-25.83504,27.3379
24.317590714,0.0903486900000002,-1.004793,-2.91577,0.9937924,0.06769971,-0.1419166,-32.13432,-25.83504,27.3379
24.327589035,0.3364816,-1.360907,-3.098683,0.9947387,0.06915868,-0.143833,-32.13432,-25.83504,27.3379
24.33758688,0.1518819,-1.360907,-3.220624,0.9993359,0.08382337,-0.1443233,-32.13432,-25.83504,27.3379
24.347584725,-0.2788507,-1.360907,-3.220624,0.9964319,0.08280727,-0.1428823,-32.13432,-25.83504,27.3379
24.357583523,-0.832649800000001,-1.360907,-3.281595,0.998343,0.08475809,-0.1462361,-32.49503,-26.59529,27.72618
24.367581368,-1.509515,-1.18285,-3.281595,1.000869,0.07993542,-0.147675,-32.49503,-26.59529,27.72618
24.377579212,-1.817181,-1.123497,-3.342566,1.00585,0.07420253,-0.1476822,-32.49503,-26.59529,27.72618
24.387577534,-1.632582,-1.360907,-3.403537,1.000484,0.07462193,-0.1433658,-32.49503,-26.59529,27.72618
24.397575379,-2.001781,-1.360907,-3.159653,0.9935637,0.07982618,-0.1438337,-32.50121,-26.21821,27.33715
24.407573223,-1.940248,-1.479612,-3.403537,0.9964123,0.0837349,-0.1476682,-32.50121,-26.21821,27.33715
24.417572022,-2.370981,-1.598316,-3.403537,0.9924805,0.08564924,-0.1423975,-32.50121,-26.21821,27.33715
24.427569866,-2.55558,-1.538964,-3.342566,0.9905136,0.08657788,-0.1428729,-32.50121,-26.21821,27.33715
24.437568188,-2.55558,-1.598316,-3.647419,1.000944,0.07609762,-0.1424098,-32.50121,-26.21821,27.33715
24.447566033,-2.063314,-1.835726,-3.769361,1.003434,0.07323556,-0.1419348,-32.12646,-26.2154,27.33993
24.457563877,-1.447982,-1.95443,-3.891303,1.002057,0.06888751,-0.1361884,-32.12646,-26.2154,27.33993
24.467562676,-0.4019172,-1.95443,-4.257127,1.010473,0.06172519,-0.1405084,-32.12646,-26.2154,27.33993
24.47756052,0.3980148,-1.895078,-4.379068,1.00881,0.07234795,-0.1443369,-32.12646,-26.2154,27.33993
24.487558365,0.644147799999998,-1.95443,-4.622952,1.002441,0.07414833,-0.1462405,-32.12646,-26.2154,27.33993
24.497556687,0.2749484,-2.013783,-4.744893,1.001283,0.0838092,-0.1500696,-31.37698,-26.20977,27.34549
24.507554531,0.3364816,-2.310545,-4.866835,0.9923425,0.09290054,-0.1462278,-31.37698,-26.20977,27.34549
24.517552376,-0.2173175,-2.369897,-4.683922,0.9896333,0.1074297,-0.1457482,-31.37698,-26.20977,27.34549
24.527551174,-1.386449,-2.547954,-4.805864,0.9896507,0.1064318,-0.1486194,-31.37698,-26.20977,27.34549
24.537549019,-2.247914,-2.785364,-4.805864,0.9878573,0.09813096,-0.1490927,-31.37698,-26.20977,27.34549
24.547546864,-2.986313,-2.963421,-4.805864,0.9877841,0.1020127,-0.1495722,-31.36125,-26.97048,27.34955
24.557545185,-4.709243,-3.556944,-4.866835,0.9851126,0.1146338,-0.1452636,-31.36125,-26.97048,27.34955
24.56754303,-6.18604100000003,-3.735002,-4.744893,0.9986636,0.1198575,-0.1347599,-31.36125,-26.97048,27.34955
24.577541828,-6.92443900000002,-3.794354,-4.805864,0.9955155,0.1056109,-0.1448008,-31.36125,-26.97048,27.34955
24.587539673,-6.678307,-4.20982,-4.683922,0.9971874,0.09448917,-0.142408,-31.36125,-26.97048,27.34955
24.597537518,-5.509175,-4.922049,-5.29363,0.9884768,0.09148478,-0.1332991,-31.36912,-26.59013,27.34752
24.607535839,-4.340044,-5.45622,-5.964308,0.9904437,0.09056053,-0.1323451,-31.36912,-26.59013,27.34752
24.617533684,-3.786245,-6.70261999999998,-5.90333699999997,0.9947276,0.0959993,-0.1313969,-31.36912,-26.59013,27.34752
24.627531528,-5.263042,-7.35549600000001,-6.57401600000003,0.9865045,0.1186585,-0.1333027,-31.36912,-26.59013,27.34752
24.637530327,-7.66283799999999,-8.18642900000001,-7.06178199999999,0.99255,0.1080697,-0.1352248,-31.36912,-26.59013,27.34752
24.647528171,-9.57036899999999,-9.19541899999997,-7.366636,0.9915391,0.1099891,-0.1357021,-30.98453,-26.97148,26.90082
24.657526016,-12.09323,-9.96700000000001,-7.48857699999998,0.994565,0.1304365,-0.1381055,-30.98453,-26.97148,26.90082
24.667524338,-15.23143,-10.61988,-7.54954800000001,1.003157,0.1140974,-0.1366805,-30.98453,-26.97148,26.90082
24.677522182,-16.64669,-11.15405,-7.79343099999999,1.00133,0.08143307,-0.1443262,-30.98453,-26.97148,26.90082
24.687520027,-16.52362,-11.80692,-8.40313799999999,0.9982848,0.06192208,-0.1457516,-30.98453,-26.97148,26.90082
24.697518825,-14.86223,-12.93462,-9.25672899999999,0.9985731,0.07267989,-0.1390548,-30.97864,-27.34803,27.35435
24.70751667,-14.00076,-13.76555,-9.80546599999998,0.9923385,0.0935487,-0.1285206,-30.97864,-27.34803,27.35435
24.717514992,-14.43149,-15.24936,-10.90294,0.9845071,0.09530265,-0.132336,-30.97864,-27.34803,27.35435
24.727512836,-14.98529,-17.02993,-11.87847,0.9899956,0.08868686,-0.1237295,-30.97864,-27.34803,27.35435
24.737510681,-15.16989,-19.04791,-12.79303,0.9795126,0.1021388,-0.1179718,-30.97864,-27.34803,27.35435
24.747509479,-16.83129,-21.42201,-13.76857,0.982024,0.09838856,-0.1084037,-31.34553,-27.73119,27.3536
24.757507324,-17.56969,-23.91481,-14.50021,0.9924128,0.09047318,-0.09310531,-31.34553,-27.73119,27.3536
24.767505169,-16.83129,-25.39862,-15.59769,1.015301,0.06510907,-0.09983875,-31.34553,-27.73119,27.3536
24.77750349,-16.89282,-27.35724,-16.69516,1.012422,0.08818876,-0.1204185,-31.34553,-27.73119,27.3536
24.787501335,-19.04649,-29.37523,-17.79264,1.009503,0.1138772,-0.1213771,-31.34553,-27.73119,27.3536
24.797500133,-20.83095,-31.45256,-19.07302,1.016542,0.1023844,-0.1180364,-30.19771,-28.86382,27.36803
24.807497978,-22.24621,-33.58924,-19.98759,1.01942,0.1049017,-0.114692,-30.19771,-28.86382,27.36803
24.817495823,-23.23075,-35.54787,-20.59729,1.018886,0.1072901,-0.1180417,-30.19771,-28.86382,27.36803
24.827494144,-24.39988,-38.63419,-21.32894,1.029828,0.1216863,-0.108493,-30.19771,-28.86382,27.36803
24.837491989,-25.63054,-41.30505,-21.45088,1.082861,0.1269726,-0.07030074,-30.19771,-28.86382,27.36803
24.847489834,-24.95368,-44.21331,-21.08506,1.055899,0.1093266,-0.08173501,-28.69427,-29.22639,28.15518
24.857488632,-23.78455,-49.37697,-19.56079,1.060864,0.1310781,-0.05207756,-28.69427,-29.22639,28.15518
24.867486477,-24.58448,-52.7007,-19.07302,1.164885,0.0950168,0.03054405,-28.69427,-29.22639,28.15518
24.877484322,-18.61575,-55.96508,-18.7072,1.14521,0.1297158,-0.01154528,-28.69427,-29.22639,28.15518
24.887482643,-15.16989,-62.19709,-19.49982,1.120043,0.223771,-0.0340187,-28.69427,-29.22639,28.15518
24.897480488,-14.86223,-66.88593,-20.96312,1.150581,0.2584605,-0.02642366,-27.54842,-30.35521,28.62111
24.907478332,-13.93923,-70.09095,-23.28,1.154239,0.2447027,-0.05083387,-27.54842,-30.35521,28.62111
24.917477131,-8.77043599999998,-72.7618100000003,-25.35301,1.178279,0.2094802,-0.07527408,-27.54842,-30.35521,28.62111
24.927474976,-0.3403839,-73.4740399999997,-27.36505,1.226463,0.1602135,-0.09353128,-27.54842,-30.35521,28.62111
24.93747282,8.82806800000001,-72.4650500000002,-28.40155,1.240551,0.0839095,-0.1251222,-25.6739,-30.70788,30.24955
24.947471142,19.96558,-71.7528200000001,-28.76737,1.155975,0.04297091,-0.2738014,-25.6739,-30.70788,30.24955
24.957468987,27.10344,-75.4326600000002,-28.64543,1.122745,0.02104606,-0.3144168,-25.6739,-30.70788,30.24955
24.967467785,32.39529,-75.3139600000001,-27.2431,1.135889,0.02028027,-0.3733044,-25.6739,-30.70788,30.24955
24.97746563,34.24129,-71.0999499999999,-24.25554,1.175333,0.07506583,-0.3130866,-25.6739,-30.70788,30.24955
24.987463474,31.4723,-60.7132799999998,-18.7072,1.173754,0.0852203,-0.1561136,-22.66729,-31.43247,31.88836
24.997461796,29.01097,-46.17194,-12.61012,1.081313,0.1303952,-0.1176779,-22.66729,-31.43247,31.88836
25.007459641,21.31931,-32.10543,-7.85440200000002,1.058666,0.117616,-0.08461343,-22.66729,-31.43247,31.88836
25.017458439,16.39665,-11.92563,-3.464507,1.093193,0.0985826,0.04406824,-22.66729,-31.43247,31.88836
25.027456284,11.72013,9.559929,1.90092,1.044519,0.09723247,0.1078041,-22.66729,-31.43247,31.88836
25.037454128,4.766874,31.63901,7.99799599999998,1.018247,0.09615384,0.1528363,-20.82789,-30.25664,34.34719
25.047451973,-2.309447,54.54903,14.15604,1.006572,0.09564779,0.1758284,-20.82789,-30.25664,34.34719
25.057450295,-7.60130500000002,76.1532800000002,18.72885,1.008313,0.1061492,0.1514153,-20.82789,-30.25664,34.34719
25.067448139,-12.2163,96.92661,22.38709,1.02028,0.1167825,0.1193271,-20.82789,-30.25664,34.34719
25.077446938,-16.03136,115.9194,24.52107,1.058173,0.1220703,0.08432363,-20.82789,-30.25664,34.34719
25.087444782,-18.24655,133.3096,26.10631,1.09625,0.1176912,0.05458666,-20.47137,-29.12311,33.11838
25.097442627,-18.18502,148.6819,27.50864,1.141566,0.1167471,0.01287179,-20.47137,-29.12311,33.11838
25.107440949,-16.33902,162.3923,28.60611,1.163377,0.1222602,-0.01588222,-20.47137,-29.12311,33.11838
25.11743927,-14.12383,173.966,29.58164,1.182336,0.1237548,-0.05276601,-20.47137,-29.12311,33.11838
25.127437592,-11.17023,182.5127,30.923,1.194792,0.1079946,-0.1025556,-20.47137,-29.12311,33.11838
25.137435436,-6.61677399999998,188.8041,32.08144,1.207452,0.1073333,-0.1489993,-23.4569,-29.16958,30.25812
25.147433281,-1.263382,193.0181,33.11795,1.225816,0.1147133,-0.178705,-23.4569,-29.16958,30.25812
25.157431126,3.290077,195.689,34.33736,1.239137,0.1320063,-0.1763398,-23.4569,-29.16958,30.25812
25.167429447,7.35127000000003,198.063,35.86163,1.236696,0.1582209,-0.1739494,-23.4569,-29.16958,30.25812
25.177427292,9.50493299999999,198.4192,37.56881,1.242041,0.1850972,-0.1691799,-23.4569,-29.16958,30.25812
25.18742609,9.812599,197.9444,38.66629,1.235124,0.1903936,-0.1595977,-29.07401,-28.48919,25.69733
25.197423935,9.935666,195.3328,39.276,1.240187,0.2059473,-0.1701391,-29.07401,-28.48919,25.69733
25.20742178,9.074201,191.3562,38.60532,1.224323,0.1944791,-0.1677157,-29.07401,-28.48919,25.69733
25.217420101,10.12027,185.5991,37.20299,1.196683,0.1870421,-0.1772371,-29.07401,-28.48919,25.69733
25.227417946,9.935666,178.18,34.33736,1.130431,0.1855665,-0.1953071,-29.07401,-28.48919,25.69733
25.237416267,9.812599,168.0901,31.77659,1.068799,0.198678,-0.1693599,-34.34276,-26.29438,19.97021
25.247414589,5.751406,158.1783,29.15485,1.038378,0.1848478,-0.1281458,-34.34276,-26.29438,19.97021
25.257412434,1.751746,148.3258,26.47214,1.041562,0.1722465,-0.07837619,-34.34276,-26.29438,19.97021
25.267410278,-0.894183000000003,139.0668,24.52107,1.016554,0.1548102,-0.07114946,-34.34276,-26.29438,19.97021
25.2774086,-2.432514,128.7988,24.27719,0.954848,0.1446205,-0.09544665,-34.34276,-26.29438,19.97021
25.287406921,-5.816842,116.7503,24.76495,0.8963672,0.1449053,-0.09725908,-38.0439,-24.46493,14.6437
25.297405243,-11.17023,104.2863,24.70398,0.8814622,0.1601698,-0.09627987,-38.0439,-24.46493,14.6437
25.307403088,-16.76976,93.4841799999998,24.64301,0.8727147,0.1590909,-0.08908571,-38.0439,-24.46493,14.6437
25.317400932,-20.95402,82.3259300000003,23.72845,0.8388655,0.1453675,-0.08184452,-38.0439,-24.46493,14.6437
25.327398777,-24.27681,71.5238,22.81389,0.8172711,0.1273504,-0.09233091,-38.0439,-24.46493,14.6437
25.337397575,-25.99974,61.0184299999998,21.47253,0.814087,0.1158355,-0.06935075,-40.67094,-23.38169,10.10313
25.34739542,-25.75361,52.11558,20.55797,0.8104492,0.1022713,-0.05689794,-40.67094,-23.38169,10.10313
25.357393742,-23.84608,44.75588,19.88729,0.7969949,0.09235682,-0.04921471,-40.67094,-23.38169,10.10313
25.367391586,-21.56935,38.34583,19.09467,0.7881965,0.09431537,-0.02862111,-40.67094,-23.38169,10.10313
25.377389431,-18.61575,33.30088,17.93623,0.8030881,0.08017609,-0.01285042,-40.67094,-23.38169,10.10313
25.387388229,-13.63156,28.96815,16.59487,0.7922075,0.06306282,-0.0008626429,-41.41446,-23.03365,6.935026
25.397386074,-7.41670600000002,24.87284,14.94866,0.7816761,0.05321488,0.007772621,-41.41446,-23.03365,6.935026
25.407384396,-0.7711166,21.54911,13.66828,0.7782038,0.05659173,0.01256356,-41.41446,-23.03365,6.935026
25.41738224,4.520741,17.51315,12.26595,0.7771187,0.06312879,0.03888546,-41.41446,-23.03365,6.935026
25.427380085,9.01266799999998,14.30812,10.74168,0.8052856,0.04308368,0.07090612,-41.41446,-23.03365,6.935026
25.43737793,15.78132,11.4592,9.58323599999998,0.8127032,0.03744718,0.07615897,-43.3047,-21.92027,5.302531
25.447376728,21.01165,8.19482400000001,8.24187900000002,0.8082278,0.04298485,0.1067942,-43.3047,-21.92027,5.302531
25.457374573,24.27291,5.58332,7.08343500000003,0.8035387,0.05957213,0.1240269,-43.3047,-21.92027,5.302531
25.467372894,25.44204,3.031168,6.77858100000002,0.8032855,0.07324368,0.131681,-43.3047,-21.92027,5.302531
25.477370739,24.27291,0.4790165,6.77858100000002,0.7949772,0.1009493,0.1503528,-43.3047,-21.92027,5.302531
25.487368584,20.64245,-1.895078,6.65663900000001,0.8062288,0.09882081,0.1589481,-42.92996,-21.91746,5.305312
25.497367382,17.01199,-4.20982,7.38828800000001,0.7938672,0.1082472,0.1537029,-42.92996,-21.91746,5.305312
25.507365227,12.88926,-6.64326800000002,7.81508400000003,0.7954401,0.1025127,0.1608803,-42.92996,-21.91746,5.305312
25.517363548,9.44340000000003,-9.848295,7.754113,0.8170469,0.09449971,0.194345,-42.92996,-21.91746,5.305312
25.527361393,7.78200200000001,-12.5785,7.69314200000002,0.8485419,0.07814033,0.1971658,-42.92996,-21.91746,5.305312
25.537359238,8.08966899999999,-15.54612,7.63217200000002,0.8491126,0.073822,0.2019516,-42.92996,-21.91746,5.305312
25.547357082,8.705001,-18.6918,7.32731800000001,0.8243171,0.07094628,0.2067814,-42.92996,-21.91746,5.305312
25.557355881,9.44340000000003,-21.83747,6.65663900000001,0.8166207,0.06535674,0.1967461,-42.92996,-21.91746,5.305312
25.567353726,9.99719900000002,-24.62704,6.04693200000002,0.8343431,0.08252718,0.229254,-42.92996,-21.91746,5.305312
25.577352047,9.68953300000002,-25.87344,5.80304899999998,0.8481193,0.1019353,0.2493252,-42.96678,-20.38568,6.522706
25.587349892,7.59740300000001,-27.89142,5.86401899999998,0.8514331,0.1074865,0.2646324,-42.96678,-20.38568,6.522706
25.597347736,5.013007,-29.96875,5.681107,0.8614472,0.09304907,0.2583971,-42.96678,-20.38568,6.522706
25.607346535,4.459208,-32.10543,5.0714,0.8623168,0.07263476,0.2560081,-42.96678,-20.38568,6.522706
25.61734438,4.889941,-33.94535,4.705575,0.8811342,0.08280872,0.2650656,-42.96678,-20.38568,6.522706
25.627342224,4.090009,-34.95435,4.705575,0.9132611,0.08506357,0.2827163,-43.71965,-20.38477,7.291148
25.637340546,3.659276,-35.25111,5.437224,0.9165624,0.0909908,0.286059,-43.71965,-20.38477,7.291148
25.64733839,2.797811,-36.31945,5.92499000000001,0.9020369,0.0865058,0.3052286,-43.71965,-20.38477,7.291148
25.657337189,2.859344,-36.14139,5.559165,0.9173179,0.07703186,0.2989828,-43.71965,-20.38477,7.291148
25.667335033,5.197607,-36.08204,5.315282,0.9130388,0.07174671,0.3147847,-43.71965,-20.38477,7.291148
25.677332878,7.41280299999999,-36.14139,4.888487,0.9197677,0.07675661,0.316686,-43.35027,-20.3716,8.519435
25.6873312,9.25880099999997,-37.26909,4.400721,0.9301918,0.09250391,0.3157066,-43.35027,-20.3716,8.519435
25.697329044,10.98173,-38.57484,3.730042,0.9464579,0.08261613,0.3152022,-43.35027,-20.3716,8.519435
25.707327843,13.56613,-40.23671,2.815481,0.9511802,0.09039676,0.3056205,-43.35027,-20.3716,8.519435
25.717325687,15.41212,-43.20433,2.083832,0.942849,0.09251273,0.2893628,-43.35027,-20.3716,8.519435
25.727323532,16.70432,-46.76547,1.352183,0.9468657,0.08554327,0.2625574,-43.74947,-19.59682,10.51211
25.737321377,18.36572,-50.97948,0.681504599999997,0.9508139,0.08260035,0.2510654,-43.74947,-19.59682,10.51211
25.747319698,20.39631,-56.3212,0.01082622,0.9670129,0.07601633,0.2400316,-43.74947,-19.59682,10.51211
25.75731802,23.22684,-62.8499600000003,-0.598881400000002,0.9847101,0.06752691,0.2299529,-43.74947,-19.59682,10.51211
25.767316341,27.5957,-69.6754800000001,-1.147618,0.9899686,0.04581073,0.1820917,-43.74947,-19.59682,10.51211
25.777314186,12.15086,-42.6108,-5.78139599999999,2.336486,0.03723943,2.227095,-43.0166,-19.19395,12.51515
25.787312031,50.5476,44.57783,7.51023000000002,2.50397,0.09700975,2.236838,-43.0166,-19.19395,12.51515
25.797310352,44.39427,32.648,22.9968,0.7109099,-0.05750184,0.5401011,-43.0166,-19.19395,12.51515
25.807308674,36.02575,7.00777700000002,21.59447,0.6147593,-0.03354013,0.12773,-43.0166,-19.19395,12.51515
25.817306995,32.51836,-21.54071,11.29042,0.3575098,0.4786523,-0.05859814,-43.0166,-19.19395,12.51515
25.82730484,-0.586516899999998,-49.61438,-2.06218,0.5461859,0.414667,-0.3422276,-42.65508,-18.80043,13.74141
25.837302685,-10.86257,-65.4614600000002,-6.20819099999998,1.123795,0.1049668,0.09139229,-42.65508,-18.80043,13.74141
25.847300529,-4.770776,-66.23305,-4.622952,1.660642,0.06984004,0.455619,-42.65508,-18.80043,13.74141
25.857298851,8.08966899999999,-59.8229899999999,4.461692,1.302849,0.07253975,0.3026191,-42.65508,-18.80043,13.74141
25.867297173,9.19726699999998,-62.7312600000001,10.98556,0.9852071,0.1704204,0.2150896,-42.65508,-18.80043,13.74141
25.877295494,1.997879,-65.0459999999999,13.48536,0.8763925,0.1785411,0.2224559,-43.05878,-17.65182,14.95805
25.887293339,-9.07810300000001,-67.8355599999997,9.46129399999998,0.7892718,0.04081132,0.1226208,-43.05878,-17.65182,14.95805
25.897291183,-12.46243,-73.8895,7.32731800000001,0.8655803,-0.2365125,0.02732257,-43.05878,-17.65182,14.95805
25.907289505,3.16701,-79.52798,6.53469799999998,1.108939,-0.480375,0.04131841,-43.05878,-17.65182,14.95805
25.917287827,36.21035,-79.1718699999998,6.71760999999998,1.181164,-0.4350519,0.005766202,-43.05878,-17.65182,14.95805
25.927285671,63.5926400000002,-78.6970400000001,5.559165,1.066659,-0.25273,0.05090502,-42.3217,-17.62222,17.80162
25.937283993,71.5304300000001,-79.4686299999999,6.10790299999999,0.9846874,-0.1173184,0.05053448,-42.3217,-17.62222,17.80162
25.947281837,68.4537700000001,-80.7150300000001,5.0714,0.9482906,0.002873269,-0.01212649,-42.3217,-17.62222,17.80162
25.957279682,59.3468500000002,-83.80135,4.400721,0.9893729,0.04548812,-0.06389529,-42.3217,-17.62222,17.80162
25.967278481,55.03952,-87.2437899999998,4.583633,1.062717,0.1101885,-0.05542545,-42.3217,-17.62222,17.80162
25.977276325,51.22446,-88.31213,6.96149300000002,1.09555,0.1543853,0.03017106,-41.22758,-16.82529,21.09543
25.987274647,38.36402,-86.5315599999998,12.5708,0.9930988,-0.04770739,-0.007405817,-41.22758,-16.82529,21.09543
25.997272491,29.50323,-93.4757800000003,18.54594,0.9632888,-0.2828749,-0.2580672,-41.22758,-16.82529,21.09543
26.007270336,43.77894,-95.5531199999998,13.05857,1.080658,0.1110612,-0.2109942,-41.22758,-16.82529,21.09543
26.017269135,43.47128,-89.7959400000002,11.71721,0.9519876,0.1139268,-0.1509486,-41.22758,-16.82529,21.09543
26.027266979,25.56511,-90.5081599999999,15.19255,0.9049472,0.07537811,-0.1728711,-40.51777,-15.64754,24.77142
26.037264824,16.58125,-89.20242,14.52187,1.119976,-0.009883311,-0.1837527,-40.51777,-15.64754,24.77142
26.047263145,19.78098,-84.51358,14.39993,1.127815,0.1137417,-0.3383783,-40.51777,-15.64754,24.77142
26.05726099,16.64279,-84.7509799999998,11.9611,1.04545,0.269235,-0.3736894,-40.51777,-15.64754,24.77142
26.067259789,6.67440499999999,-84.8696900000002,12.26595,1.126726,0.2529953,-0.2001038,-38.69747,-13.70446,28.0002
26.077257633,4.889941,-77.6286999999999,14.21701,1.12536,0.1184765,-0.1876238,-38.69747,-13.70446,28.0002
26.087255478,4.213075,-73.8301499999999,15.68031,1.071556,0.1289928,-0.1966256,-38.69747,-13.70446,28.0002
26.097253799,-1.878715,-69.37872,16.35099,1.087315,0.1689608,-0.3234861,-38.69747,-13.70446,28.0002
26.107251644,-10.0011,-65.3427700000003,15.86322,1.114258,0.1090829,-0.3402677,-38.69747,-13.70446,28.0002
26.117250443,-12.2163,-59.7636399999998,14.64381,1.146806,0.06338257,-0.3068124,-37.29358,-12.53518,30.06878
26.127248287,-10.67797,-54.06581,13.91216,1.18436,-0.01443037,-0.23555,-37.29358,-12.53518,30.06878
26.137246132,-7.78590499999999,-50.97948,14.0341,1.2668,-0.06961194,-0.1777718,-37.29358,-12.53518,30.06878
26.147243977,-1.694115,-48.07122,15.19255,1.308661,-0.04023182,-0.137652,-37.29358,-12.53518,30.06878
26.157242298,-7.29363900000002,-44.56943,14.33895,1.20611,0.1515441,-0.200216,-37.29358,-12.53518,30.06878
26.16724062,-17.01589,-40.71152,13.18051,1.149383,0.1363178,-0.2015489,-35.80167,-12.51031,31.69242
26.177238941,-23.96914,-37.26909,12.87566,1.086879,0.06414333,-0.2535862,-35.80167,-12.51031,31.69242
26.187236786,-27.66114,-36.08204,13.24148,1.078034,0.01642963,-0.2444656,-35.80167,-12.51031,31.69242
26.197234631,-29.261,-33.41119,13.18051,1.072145,-0.03324397,-0.2434853,-35.80167,-12.51031,31.69242
26.207232952,-28.09187,-29.43458,11.9611,1.050628,-0.05502421,-0.2405708,-35.80167,-12.51031,31.69242
26.217231274,-26.55354,-27.00113,11.04653,0.9991941,-0.1188233,-0.2509933,-35.44015,-12.11679,32.91867
26.227229118,-23.72301,-25.51732,10.43683,0.9540594,-0.1291673,-0.2748408,-35.44015,-12.11679,32.91867
26.23722744,-22.55388,-24.86444,9.40032399999997,0.935211,-0.08593652,-0.2891763,-35.44015,-12.11679,32.91867
26.247225285,-23.78455,-23.61805,8.36382100000002,0.9429576,-0.05698572,-0.2753186,-35.44015,-12.11679,32.91867
26.257223129,-23.78455,-21.3033,7.205376,0.9376128,-0.08385757,-0.2796096,-35.44015,-12.11679,32.91867
26.267221928,-21.56935,-18.39504,6.35178600000003,0.9458201,-0.131887,-0.2887044,-34.68647,-12.48444,33.76477
26.277219772,-15.78522,-17.08928,5.98596099999998,0.9420551,-0.1650493,-0.2934751,-34.68647,-12.48444,33.76477
26.287218094,-11.90863,-15.90224,5.437224,0.9386097,-0.137502,-0.3025691,-34.68647,-12.48444,33.76477
26.297215939,-10.3703,-15.42742,4.583633,0.9363747,-0.07053886,-0.3083254,-34.68647,-12.48444,33.76477
26.307213783,-12.0317,-14.41843,3.912955,0.9197824,-0.04309783,-0.3006463,-34.68647,-12.48444,33.76477
26.317212582,-14.61609,-13.88426,3.851984,0.9009849,-0.02854977,-0.3164103,-34.31172,-12.48162,33.76755
26.327210426,-17.56969,-14.06231,4.156838,0.882582,-0.008398536,-0.3048976,-34.31172,-12.48162,33.76755
26.337208271,-19.78489,-14.24037,3.851984,0.8675196,-0.03701232,-0.3192213,-34.31172,-12.48162,33.76755
26.347206593,-19.96948,-14.47778,3.425189,0.8621206,-0.06095206,-0.3215985,-34.31172,-12.48162,33.76755
26.357204437,-19.23109,-15.0713,2.937423,0.869279,-0.07875099,-0.3172992,-34.31172,-12.48162,33.76755
26.367203236,-18.67729,-15.24936,2.632569,0.8778453,-0.06791735,-0.3201884,-33.93501,-12.48263,33.31882
26.37720108,-18.18502,-16.49576,1.90092,0.8958871,-0.04210332,-0.2996477,-33.93501,-12.48263,33.31882
26.387198925,-18.55422,-16.97058,1.352183,0.8868813,-0.03043538,-0.3326568,-33.93501,-12.48263,33.31882
26.397197247,-17.32355,-17.80151,0.3766508,0.9046118,-0.03942668,-0.2915279,-33.93501,-12.48263,33.31882
26.407195091,-14.43149,-17.62346,0.3766508,0.9304452,-0.1176388,-0.2915528,-33.93501,-12.48263,33.31882
26.41719389,-9.878035,-17.50475,1.413154,0.921093,-0.1131484,-0.3116378,-33.91928,-13.24334,33.32288
26.427191734,-15.53909,-19.28532,3.48616,0.9244834,0.04403123,-0.294934,-33.91928,-13.24334,33.32288
26.437189579,-25.87667,-20.35367,3.791013,0.8932161,0.04823781,-0.2987092,-33.91928,-13.24334,33.32288
26.447187424,-29.13794,-20.94719,1.596066,0.874148,-0.1307777,-0.3311731,-33.91928,-13.24334,33.32288
26.457185745,-15.41603,-21.00654,-0.05014454,0.9201296,-0.2985061,-0.4388897,-33.91928,-13.24334,33.32288
26.467184067,2.859344,-20.88784,-1.330531,0.9099478,-0.09284252,-0.4049459,-33.91508,-13.61661,34.16341
26.477182388,-0.7711166,-21.65942,-2.610917,0.9110942,-0.04848858,-0.339873,-33.91508,-13.61661,34.16341
26.487180233,-6.61677399999998,-21.48136,1.352183,0.894055,0.05404964,-0.3556627,-33.91508,-13.61661,34.16341
26.497178078,-18.36962,-21.36266,2.998394,0.8996049,0.07037082,-0.3365336,-33.91508,-13.61661,34.16341
26.507176399,-24.15374,-21.65942,2.69354,0.9192985,0.03238273,-0.3882443,-33.91508,-13.61661,34.16341
26.517174721,-27.23041,-22.37165,2.266744,0.9180413,0.02177245,-0.3767536,-32.78299,-13.98853,34.17378
26.527172566,-29.32254,-21.42201,2.75451,0.9247091,0.003854166,-0.3844178,-32.78299,-13.98853,34.17378
26.537170887,-31.6608,-21.12525,3.364218,0.9156365,-0.006043911,-0.3843994,-32.78299,-13.98853,34.17378
26.547168732,-34.2452,-21.1846,4.33975,0.9076438,-0.02187039,-0.397303,-32.78299,-13.98853,34.17378
26.557166577,-34.9836,-21.00654,4.095867,0.8873504,-0.05740386,-0.4130515,-32.78299,-13.98853,34.17378
26.567165375,-31.90693,-22.13424,3.730042,0.8580031,-0.1037982,-0.4278242,-32.03718,-13.97582,35.01785
26.57716322,-25.99974,-24.09286,3.242276,0.7925134,-0.1197887,-0.4406275,-32.03718,-13.97582,35.01785
26.587161541,-22.43081,-27.77271,3.120335,0.7305791,-0.03937857,-0.4410188,-32.03718,-13.97582,35.01785
26.597159386,-25.01521,-31.74932,3.364218,0.7009094,0.009610055,-0.4400225,-32.03718,-13.97582,35.01785
26.607157231,-32.15306,-36.91298,4.27878,0.641848,0.06672984,-0.4428057,-32.03718,-13.97582,35.01785
26.617156029,-43.65978,-42.78886,5.010429,0.6142269,0.08476396,-0.4303193,-32.01528,-15.11362,35.41093
26.627153873,-52.82823,-49.37697,4.827517,0.6112558,0.06140639,-0.4274366,-32.01528,-15.11362,35.41093
26.637151718,-54.9819,-54.59998,3.912955,0.6516657,0.01337564,-0.3470939,-32.01528,-15.11362,35.41093
26.64715004,-55.1665,-56.4399,3.730042,0.7638909,-0.1500562,-0.341026,-32.01528,-15.11362,35.41093
26.657147884,-43.47518,-57.8643600000002,3.364218,0.8783023,-0.2506725,-0.4316504,-30.87702,-15.86262,35.81033
26.667146683,-25.81514,-56.38055,3.48616,0.9626255,-0.199129,-0.3978318,-30.87702,-15.86262,35.81033
26.677144527,-20.40022,-57.5082500000001,5.13237,0.9343513,-0.2003719,-0.47244,-30.87702,-15.86262,35.81033
26.687142372,-11.04717,-60.2978099999999,3.425189,0.845647,-0.1742118,-0.5019639,-30.87702,-15.86262,35.81033
26.697140694,-5.632242,-64.1557200000002,0.5595631,0.7952322,-0.1860721,-0.414772,-30.87702,-15.86262,35.81033
26.707138538,0.8287475,-66.5298100000001,-0.7817937,0.6767908,-0.1861063,-0.4810877,-30.10145,-17.36807,37.04951
26.717137337,9.68953300000002,-69.7941899999999,-4.50101,0.5858971,-0.09386969,-0.4541527,-30.10145,-17.36807,37.04951
26.727135181,5.93600600000003,-69.2006699999997,-5.537513,0.6955001,-0.03875761,-0.4036289,-30.10145,-17.36807,37.04951
26.737133026,5.25914,-64.5118299999998,-1.879267,0.9140601,-0.1830114,-0.443216,-30.10145,-17.36807,37.04951
26.747130871,15.84286,-59.7636399999998,0.925387699999998,1.032768,-0.0975237,-0.5444245,-30.10145,-17.36807,37.04951
26.757129192,15.28906,-57.6269500000002,1.169271,1.156608,0.1572442,-0.5849064,-27.4853,-17.33476,38.68149
26.767127514,9.87413200000002,-55.31221,0.803446099999999,1.137286,0.1985559,-0.6485339,-27.4853,-17.33476,38.68149
26.777125835,3.782343,-54.42192,0.803446099999999,0.9451951,0.20487,-0.6056075,-27.4853,-17.33476,38.68149
26.78712368,-6.80137299999998,-56.49926,0.864416900000002,0.7515092,0.1687855,-0.4664734,-27.4853,-17.33476,38.68149
26.797121525,-12.9547,-58.8733499999998,-1.818297,0.6474954,0.05506324,-0.2963683,-27.4853,-17.33476,38.68149
26.807119846,-14.43149,-57.5676000000001,-4.988776,0.8503146,-0.2124895,-0.3938039,-25.62679,-16.92618,40.37037
26.817118168,5.689873,-51.81042,-7.30566500000003,1.28203,-0.4792456,-0.7390627,-25.62679,-16.92618,40.37037
26.827116489,28.8879,-46.35,-8.46410900000001,1.541639,-0.05590754,-0.6539591,-25.62679,-16.92618,40.37037
26.837114334,21.68851,-43.32303,-7.91537200000002,1.53371,0.2636293,-0.6071271,-25.62679,-16.92618,40.37037
26.847112179,3.413143,-39.76189,-4.927805,1.380586,0.3219248,-0.5968251,-25.62679,-16.92618,40.37037
26.857110977,-4.340044,-37.03168,-4.927805,1.173048,0.2158601,-0.587343,-23.39156,-16.5186,41.61053
26.867108822,-1.201849,-34.77629,-6.93983999999998,1.017723,0.2093415,-0.5923349,-23.39156,-16.5186,41.61053
26.877106667,0.2134152,-34.42017,-9.25672899999999,0.9984188,0.3032722,-0.5880182,-23.39156,-16.5186,41.61053
26.887104988,-10.5549,-34.30147,-9.01284600000001,1.133681,0.2893665,-0.54135,-23.39156,-16.5186,41.61053
26.897102833,-20.95402,-31.80867,-6.63498599999997,1.239746,0.03806711,-0.565399,-23.39156,-16.5186,41.61053
26.907101631,-23.66148,-30.0281,-6.14722099999998,1.275599,-0.05516477,-0.5821877,-21.88223,-17.25771,42.85121
26.917099476,-28.1534,-29.96875,-7.48857699999998,1.239095,-0.00370068,-0.5084366,-21.88223,-17.25771,42.85121
26.927097321,-31.23007,-29.61263,-8.15925599999997,1.216948,-0.04400298,-0.5103019,-21.88223,-17.25771,42.85121
26.937095165,-29.50714,-28.84105,-9.62255399999997,1.116225,-0.02467639,-0.4641879,-21.88223,-17.25771,42.85121
26.947093487,-27.72267,-29.01911,-11.87847,1.066537,0.0006617229,-0.4554935,-21.88223,-17.25771,42.85121
26.957091808,-27.415,-28.36624,-13.76857,1.077437,0.09529448,-0.4397439,-20.39112,-16.8661,42.86031
26.96709013,-33.6914,-27.11983,-20.29244,1.27098,-0.06587905,-0.4687543,-20.39112,-16.8661,42.86031
26.977087975,-25.87667,-25.57667,-22.6703,1.337188,-0.08755841,-0.4320138,-20.39112,-16.8661,42.86031
26.987085819,-24.95368,-27.71336,-19.56079,1.194173,0.006701916,-0.2839088,-20.39112,-16.8661,42.86031
26.997084141,-31.90693,-31.3932,-16.51225,1.125235,-0.007487583,-0.3048422,-20.39112,-16.8661,42.86031
27.007082462,-32.82993,-36.08204,-15.23186,1.091563,-0.05675139,-0.3052494,-19.98493,-18.38471,42.8712
27.017080784,-29.01487,-42.07663,-16.14643,1.047054,-0.07428873,-0.3200032,-19.98493,-18.38471,42.8712
27.027078629,-22.98461,-49.85179,-15.53672,0.9497702,-0.05938361,-0.392581,-19.98493,-18.38471,42.8712
27.037076473,-20.21562,-56.91472,-16.69516,0.9767722,-0.01638804,-0.319417,-19.98493,-18.38471,42.8712
27.047074318,-19.10802,-60.0010499999998,-14.68313,0.8774405,0.001548283,-0.4810072,-19.98493,-18.38471,42.8712
27.057073116,-22.92308,-67.12334,-12.48818,0.8281989,0.07691364,-0.6350423,-18.82925,-19.8977,42.88766
27.067070961,-26.79967,-74.6610899999998,-10.53712,0.9347209,0.1137087,-0.6146587,-18.82925,-19.8977,42.88766
27.077069283,-35.5374,-78.6970400000001,-3.220624,0.9570125,-0.1133111,-0.6189462,-18.82925,-19.8977,42.88766
27.087067127,-30.49167,-84.69164,0.0717969800000001,0.8785095,-0.03421861,-0.6743446,-18.82925,-19.8977,42.88766
27.097064972,-32.2146,-89.5585300000001,1.474125,0.8965473,-0.006214308,-0.5738822,-18.82925,-19.8977,42.88766
27.10706377,-33.01453,-93.4757800000003,3.669072,0.8426383,0.009482924,-0.6005926,-16.93981,-20.64435,42.90562
27.117061615,-35.5374,-99.1736099999998,7.754113,0.8221329,0.03711328,-0.6168355,-16.93981,-20.64435,42.90562
27.127059937,-37.07573,-102.9722,10.071,0.8300708,0.05662537,-0.5728254,-16.93981,-20.64435,42.90562
27.137057781,-38.42945,-102.4973,12.63177,0.8317263,0.0985938,-0.5570461,-16.93981,-20.64435,42.90562
27.147056103,-42.73678,-99.7671400000003,16.59487,0.7958195,0.1668257,-0.6168231,-16.93981,-20.64435,42.90562
27.157054424,-53.38203,-97.33369,21.28962,0.7000908,0.2282848,-0.7032943,-14.67115,-21.762,43.70238
27.167052269,-67.7192800000003,-94.9002399999998,23.97233,0.6453212,0.2103069,-0.7969951,-14.67115,-21.762,43.70238
27.177050114,-80.8258500000001,-90.5081599999999,26.04534,0.6343737,0.1428981,-0.8644379,-14.67115,-21.762,43.70238
27.187048435,-86.3638499999997,-88.6088900000001,26.53311,0.5374095,0.1913386,-0.9901468,-14.67115,-21.762,43.70238
27.197046757,-92.0864299999999,-92.34809,22.50904,0.4871881,0.2967807,-0.9886506,-12.76878,-22.89881,42.56137
27.207045078,-94.5477599999998,-91.9919700000001,17.75332,0.5330133,0.247558,-0.8379664,-12.76878,-22.89881,42.56137
27.217042923,-89.4405099999998,-86.6502599999999,15.13157,0.4788792,0.1752324,-0.7124665,-12.76878,-22.89881,42.56137
27.227040768,-78.6106600000003,-80.2995600000001,15.68031,0.4045322,0.1398802,-0.6448486,-12.76878,-22.89881,42.56137
27.237038612,-73.2572599999999,-70.8625300000001,18.66788,0.4350113,0.1516985,-0.6405975,-12.76878,-22.89881,42.56137
27.247037411,-71.7189300000002,-60.7132799999998,22.63098,0.4616406,0.1859247,-0.6751102,-10.43606,-26.69639,41.30833
27.257035255,-70.6113399999998,-53.76905,25.13078,0.4595307,0.2195875,-0.7090942,-10.43606,-26.69639,41.30833
27.267033577,-66.73474,-48.30863,25.74049,0.4525824,0.2510924,-0.7559906,-10.43606,-26.69639,41.30833
27.277031422,-64.0888100000002,-44.62878,24.52107,0.4091514,0.3060124,-0.7674149,-10.43606,-26.69639,41.30833
27.28703022,-65.0118099999997,-41.2457,22.02127,0.4362575,0.3406945,-0.8062357,-10.43606,-26.69639,41.30833
27.297028065,-67.6577400000001,-36.73492,19.64341,0.5053107,0.3476839,-0.828851,-8.523838,-28.21737,39.71783
27.307025909,-69.8114,-32.87701,17.93623,0.5399923,0.3429185,-0.840396,-8.523838,-28.21737,39.71783
27.317024231,-72.51887,-30.38422,16.5339,0.5377828,0.3306605,-0.8475677,-8.523838,-28.21737,39.71783
27.327022076,-71.8420000000002,-29.55328,15.68031,0.5248945,0.2898666,-0.8700278,-8.523838,-28.21737,39.71783
27.337020874,-66.4886100000002,-29.07846,15.74128,0.5166836,0.2593084,-0.8991987,-8.523838,-28.21737,39.71783
27.347018719,-60.33529,-29.19717,15.31449,0.5248134,0.2414409,-0.9044726,-8.852215,-30.13558,38.11269
27.357016563,-53.62816,-28.95976,14.27798,0.554221,0.2579089,-0.9207997,-8.852215,-30.13558,38.11269
27.367014408,-46.92104,-29.13782,12.81469,0.5625767,0.2798843,-0.9270415,-8.852215,-30.13558,38.11269
27.37701273,-40.15239,-29.25652,11.16848,0.5690247,0.2992476,-0.9490721,-8.852215,-30.13558,38.11269
27.387011051,-33.07607,-29.55328,9.339353,0.584803,0.3149734,-0.9639395,-8.852215,-30.13558,38.11269
27.397009373,-25.38441,-29.55328,7.57120099999999,0.5870366,0.3248978,-0.9993606,-8.783951,-33.18878,36.9034
27.407007218,-18.86189,-30.38422,5.98596099999998,0.5683143,0.3620462,-0.9883302,-8.783951,-33.18878,36.9034
27.417005062,-16.21596,-32.16478,4.766546,0.550482,0.4042911,-0.9533741,-8.783951,-33.18878,36.9034
27.427003384,-16.89282,-32.81766,3.912955,0.502971,0.4447241,-0.8930011,-8.783951,-33.18878,36.9034
27.437001705,-22.18468,-32.34284,3.730042,0.4740188,0.4575499,-0.8096817,-8.783951,-33.18878,36.9034
27.44699955,-24.64601,-28.84105,4.522663,0.4877442,0.4799999,-0.7757325,-8.764561,-33.95657,36.06895
27.456997872,-29.38407,-24.33027,6.71760999999998,0.4658046,0.4820322,-0.7187442,-8.764561,-33.95657,36.06895
27.466995716,-35.29126,-20.65043,7.754113,0.4401909,0.3939742,-0.6746479,-8.764561,-33.95657,36.06895
27.476994515,-38.86019,-16.91123,8.54673300000003,0.4246425,0.339745,-0.6726925,-8.764561,-33.95657,36.06895
27.486992359,-39.59859,-12.34109,9.03449899999999,0.4313597,0.2938756,-0.6549851,-8.764561,-33.95657,36.06895
27.496990204,-35.96813,-6.94003,10.43683,0.4377194,0.241253,-0.6310539,-8.389818,-33.95376,36.07174
27.506988526,-29.6302,-2.251192,10.68071,0.4105554,0.2086134,-0.6343481,-8.389818,-33.95376,36.07174
27.51698637,-22.55388,1.428654,11.04653,0.3873489,0.1989615,-0.629998,-8.389818,-33.95376,36.07174
27.526985169,-17.75429,5.108501,10.98556,0.4018663,0.1790932,-0.6022608,-8.389818,-33.95376,36.07174
27.536983013,-13.63156,10.15345,11.16848,0.4514398,0.1609683,-0.5659707,-8.389818,-33.95376,36.07174
27.546980858,-8.33970399999999,19.17501,12.44886,0.5241987,0.1285049,-0.5005243,-8.349621,-35.49208,34.08034
27.556978703,-2.494047,30.21455,14.27798,0.5733638,0.08101904,-0.4326399,-8.349621,-35.49208,34.08034
27.566977024,6.305205,41.78827,16.22905,0.5965672,0.0657002,-0.4044404,-8.349621,-35.49208,34.08034
27.576975346,14.18146,54.01485,17.50943,0.6158299,0.05201479,-0.401599,-8.349621,-35.49208,34.08034
27.586973667,21.25778,65.3511499999999,18.36302,0.6342154,0.05850666,-0.4222116,-8.349621,-35.49208,34.08034
27.596971512,26.73424,76.4500400000002,18.424,0.6382466,0.07686347,-0.4428021,-10.20394,-36.27393,33.23199
27.606969357,29.19557,85.7683599999998,18.72885,0.6605498,0.0825442,-0.4543282,-10.20394,-36.27393,33.23199
27.616967678,29.38017,95.3834500000003,19.39953,0.7032733,0.06487425,-0.4596625,-10.20394,-36.27393,33.23199
27.626966,31.71843,106.3043,20.74088,0.7623289,0.03398203,-0.4583218,-10.20394,-36.27393,33.23199
27.636964321,35.65656,118.0561,22.20418,0.823762,0.006722604,-0.436886,-10.20394,-36.27393,33.23199
27.646962166,41.37915,131.4697,23.85039,0.8621493,0.01301938,-0.4158971,-12.09168,-35.53055,32.82703
27.65696001,43.22514,144.9427,25.61855,0.8554131,0.0598384,-0.4359976,-12.09168,-35.53055,32.82703
27.666958809,40.27155,155.9229,27.56961,0.8560802,0.1021153,-0.4374454,-12.09168,-35.53055,32.82703
27.676956654,33.56443,166.9031,30.43524,0.879783,0.1112911,-0.4417962,-12.09168,-35.53055,32.82703
27.686954498,26.54964,177.4678,34.15445,0.9036097,0.08790246,-0.4470961,-12.09168,-35.53055,32.82703
27.69695282,23.10378,187.4983,38.17852,0.928265,0.04590211,-0.4701,-16.23038,-34.43404,31.17785
27.706950664,22.67304,196.8167,41.89774,0.9464772,0.009566288,-0.4974012,-16.23038,-34.43404,31.17785
27.716949463,24.39598,204.8292,44.51948,0.9646727,-0.0001044888,-0.5314093,-16.23038,-34.43404,31.17785
27.726947308,26.24197,211.358,46.59249,0.9888732,0.008643422,-0.5304967,-16.23038,-34.43404,31.17785
27.736945152,27.10344,217.8867,48.42161,1.009158,-0.007394489,-0.5214349,-22.24949,-32.60832,27.4467
27.746942997,29.87243,223.8813,50.12879,1.038741,-0.02571786,-0.516696,-22.24949,-32.60832,27.4467
27.756941318,32.27223,230.8256,53.05539,1.056006,-0.03714903,-0.5286875,-22.24949,-32.60832,27.4467
27.76693964,34.42589,237.3543,55.25034,1.096039,-0.04123066,-0.530192,-22.24949,-32.60832,27.4467
27.776937962,35.53349,242.3399,57.6281899999999,1.111581,-0.0128662,-0.5441051,-22.24949,-32.60832,27.4467
27.786935806,33.93362,246.6726,59.2744099999999,1.15616,-4.745973e-05,-0.5671577,-28.25369,-31.17657,22.10507
27.796933651,29.87243,250.946,61.1644999999999,1.183529,-0.03001138,-0.5552334,-28.25369,-31.17657,22.10507
27.806932449,27.2265,253.6762,64.4569199999998,1.163879,-0.04733738,-0.5475374,-28.25369,-31.17657,22.10507
27.816930294,25.01131,256.2877,66.8347899999999,1.186786,-0.07366423,-0.5533136,-28.25369,-31.17657,22.10507
27.826928616,23.96524,258.0089,69.6394299999997,1.176294,-0.08536304,-0.5346277,-28.25369,-31.17657,22.10507
27.83692646,21.50391,257.5935,72.9318599999999,1.147327,-0.07302015,-0.5039515,-33.88815,-29.002,14.31116
27.846924305,15.22752,255.3974,76.4071999999999,1.139857,-0.06361901,-0.4694835,-33.88815,-29.002,14.31116
27.856923103,5.93600600000003,251.0647,81.7726200000003,1.129636,-0.03790375,-0.4517649,-33.88815,-29.002,14.31116
27.866920948,-5.447642,246.6133,87.8087200000003,1.154904,-0.03394592,-0.4455885,-33.88815,-29.002,14.31116
27.876918793,-16.40056,240.9155,94.5764800000002,1.145122,-0.03153402,-0.4264291,-33.88815,-29.002,14.31116
27.886917114,-26.30741,233.6745,100.2468,1.131497,-0.03213124,-0.4091764,-38.02641,-26.44563,5.365333
27.896915436,-34.36826,225.3651,104.7586,1.130597,-0.03597513,-0.4024737,-38.02641,-26.44563,5.365333
27.906913757,-39.90625,217.1152,106.5267,1.107885,-0.0469269,-0.4349745,-38.02641,-26.44563,5.365333
27.916911602,-41.50612,208.9839,105.4293,1.09907,0.00655333,-0.4660804,-38.02641,-26.44563,5.365333
27.926909447,-49.56697,200.9713,99.7589999999998,1.080923,0.09158988,-0.427306,-38.02641,-26.44563,5.365333
27.936907768,-53.93583,190.1098,93.6009399999999,1.011707,0.1446873,-0.4228918,-39.85938,-23.49592,-4.081376
27.94690609,-56.70483,179.189,89.69882,0.9019308,0.07547263,-0.3681249,-39.85938,-23.49592,-4.081376
27.956904411,-48.82857,164.6477,87.9916399999998,0.8183545,-0.0400415,-0.3315777,-39.85938,-23.49592,-4.081376
27.966902256,-32.5838,146.9607,86.8331899999997,0.777944,-0.09306278,-0.3032576,-39.85938,-23.49592,-4.081376
27.976900101,-13.38543,125.5938,86.16251,0.7188511,-0.08589908,-0.2954993,-39.85938,-23.49592,-4.081376
27.986897945,-0.7711166,102.3277,84.7601899999999,0.6373068,0.0009926124,-0.2886794,-39.8921,-20.51137,-10.99913
27.996896744,0.8287475,77.7558000000002,78.7240800000001,0.6275666,0.1313922,-0.2494528,-39.8921,-20.51137,-10.99913
28.006894588,-4.093911,55.49866,70.7978799999998,0.687722,0.2498286,-0.2347523,-39.8921,-20.51137,-10.99913
28.01689291,-16.89282,36.74331,64.21304,0.7183512,0.3317044,-0.2219052,-39.8921,-20.51137,-10.99913
28.026890755,-34.9836,21.60846,59.0305199999998,0.7745453,0.2452136,-0.2363382,-39.8921,-20.51137,-10.99913
28.036889553,-41.07539,9.97539500000001,56.7746,0.8285533,0.09436511,-0.2162933,-39.57034,-17.11968,-15.07813
28.046887398,-35.47586,1.547359,54.45771,0.8806924,0.0167341,-0.2096641,-39.57034,-17.11968,-15.07813
28.056885242,-24.89214,-5.278163,50.00685,0.9403625,0.05674447,-0.2145642,-39.57034,-17.11968,-15.07813
28.066883087,-17.01589,-12.99397,43.36104,0.9687539,0.1285599,-0.1811319,-39.57034,-17.11968,-15.07813
28.076881409,-11.60097,-20.53172,36.16648,0.9994703,0.1285195,-0.1457708,-39.57034,-17.11968,-15.07813
28.08687973,-3.786245,-29.07846,28.97194,1.002313,0.07942443,-0.2065422,-38.93835,-14.45203,-15.08722
28.096878052,8.27426799999999,-39.82124,20.98477,0.9876523,0.07995657,-0.2759103,-38.93835,-14.45203,-15.08722
28.106875896,19.22718,-52.52265,12.63177,0.976448,0.130995,-0.3031828,-38.93835,-14.45203,-15.08722
28.116873741,26.42657,-66.1143400000001,3.791013,0.9209762,0.2032621,-0.3576624,-38.93835,-14.45203,-15.08722
28.12687254,31.84149,-80.2401999999998,-3.891303,0.8317493,0.2562605,-0.426914,-38.93835,-14.45203,-15.08722
28.136870384,38.05635,-96.38405,-11.39071,0.7748947,0.2727267,-0.4694124,-39.64449,-13.68994,-14.32237
28.146868706,50.1784,-109.6196,-19.56079,0.7789711,0.235809,-0.5297107,-39.64449,-13.68994,-14.32237
28.15686655,69.3767599999999,-119.5315,-28.03572,0.8179507,0.234608,-0.5857717,-39.64449,-13.68994,-14.32237
28.166864395,31.04156,-42.43274,-37.79105,4.450363,-0.5267476,4.633185,-39.64449,-13.68994,-14.32237
28.176863194,135.525,117.6406,39.51988,5.242484,-2.037278,2.900227,-39.64449,-13.68994,-14.32237
28.186861038,233.1782,98.11366,52.2018,0.4969342,-0.9773765,-0.05703055,-40.04149,-13.28461,-11.03766
28.196858883,229.6093,-32.5209,21.83836,-0.7652723,0.9236903,-1.091915,-40.04149,-13.28461,-11.03766
28.206857204,219.0871,-110.1538,-47.60734,1.202953,-0.5382195,-0.2694265,-40.04149,-13.28461,-11.03766
28.216855526,264.191,-83.2671700000002,-33.76698,2.014706,0.2651817,0.5923028,-40.04149,-13.28461,-11.03766
28.226853848,217.1181,-81.9614300000002,-17.54875,1.489962,2.023837,0.5080567,-40.04149,-13.28461,-11.03766
28.236851692,107.0966,-85.5225700000002,-12.73206,1.124231,1.463077,0.3446871,-40.04435,-13.64426,-8.584625
28.246849537,46.671,-94.9595899999999,-7.73246000000002,0.87187,0.3877528,-0.00491373,-40.04435,-13.64426,-8.584625
28.256847858,25.93431,-97.9272199999999,-7.67149000000001,0.8756561,0.05407593,-0.1010282,-40.04435,-13.64426,-8.584625
28.26684618,17.25812,-98.7581500000001,-9.01284600000001,1.090956,-0.04507506,-0.09037074,-40.04435,-13.64426,-8.584625
28.276844025,-3.909311,-95.9092299999999,-7.48857699999998,0.987404,0.04712198,-0.04044206,-40.04435,-13.64426,-8.584625
28.286842346,-38.24486,-92.0513299999999,-4.196156,0.9450501,-0.1106695,-0.03984901,-40.00091,-16.64952,-4.11788
28.296840191,-57.93549,-82.85171,-1.940238,0.9525745,-0.3319981,-0.133606,-40.00091,-16.64952,-4.11788
28.306838989,-58.4277599999999,-71.9308800000001,0.31568,0.9234569,-0.4168957,-0.1612908,-40.00091,-16.64952,-4.11788
28.316836834,-50.3669,-62.3751400000002,0.5595631,0.9179399,-0.277556,-0.1101095,-40.00091,-16.64952,-4.11788
28.326834679,-45.01351,-53.23487,-1.147618,0.9286502,-0.09417422,-0.06040344,-40.00377,-17.00917,-1.664841
28.336833,-47.65944,-50.02985,-3.098683,0.9494174,0.02020082,-0.03271169,-40.00377,-17.00917,-1.664841
28.346830845,-50.1823,-49.67373,-4.135185,1.043693,0.03434793,-0.01804382,-40.00377,-17.00917,-1.664841
28.356829643,-50.9207,-49.9705,-3.220624,1.070457,-0.04135471,-0.01137092,-40.00377,-17.00917,-1.664841
28.366827488,-45.99804,-48.48669,-2.976741,1.018011,-0.1025029,0.004529266,-40.00377,-17.00917,-1.664841
28.376825333,-44.33665,-49.73309,-2.367033,0.8986436,-0.05206466,-0.0139401,-39.69853,-16.99321,-0.05001545
28.386823177,-48.27477,-56.26184,-2.549946,0.9960558,-0.02324662,0.004068555,-39.69853,-16.99321,-0.05001545
28.396821976,-52.7667,-58.8139999999997,-3.403537,1.106958,0.01428318,0.04215164,-39.69853,-16.99321,-0.05001545
28.40681982,-58.0585600000001,-59.5262299999998,-3.159653,1.025248,0.005747213,0.02937473,-39.69853,-16.99321,-0.05001545
28.416818142,-64.0272800000003,-60.2978099999999,-3.281595,1.009597,-0.04166229,0.08636478,-39.69853,-16.99321,-0.05001545
28.426815987,-63.7196099999998,-56.91472,-4.805864,0.9843321,-0.0447525,0.1218242,-39.32327,-17.35658,1.631801
28.436813831,-64.2734100000001,-54.24387,-6.39110400000002,0.9438086,-0.09205877,0.1377001,-39.32327,-17.35658,1.631801
28.44681263,-64.1503400000001,-51.39495,-7.61051899999998,0.9384549,-0.1969095,0.1085433,-39.32327,-17.35658,1.631801
28.456810475,-57.07402,-49.91114,-9.378671,0.9887878,-0.1775844,0.1467366,-39.32327,-17.35658,1.631801
28.466808796,-81.4411800000003,-53.17552,-2.245092,0.9887105,-0.8054817,-0.2306981,-39.32327,-17.35658,1.631801
28.476806641,-47.29024,-56.3212,4.888487,1.011226,-1.160475,-0.7312365,-39.6997,-17.35613,2.016022
28.486805439,17.93499,-70.26901,-9.68352500000001,0.8738641,-0.04730456,-0.7135764,-39.6997,-17.35613,2.016022
28.496803284,3.043944,-80.2995600000001,-19.80467,1.318139,0.365644,-0.03966491,-39.6997,-17.35613,2.016022
28.506801129,-17.81582,-69.0226099999998,-13.58565,1.310314,0.2355227,-0.1166685,-39.6997,-17.35613,2.016022
28.516798973,-18.00042,-61.8409700000001,-8.76896300000003,1.053898,-0.0439073,-0.0950922,-39.6997,-17.35613,2.016022
28.526797295,-9.57036899999999,-60.9506899999998,-6.63498599999997,0.9911825,-0.157799,-0.1916259,-39.63055,-18.09894,4.084552
28.536795616,5.87447300000001,-58.8733499999998,-10.29323,0.9928862,-0.2253833,-0.3055126,-39.63055,-18.09894,4.084552
28.546793938,8.82806800000001,-58.4578900000001,-10.04935,1.10851,-0.1031722,-0.3167529,-39.63055,-18.09894,4.084552
28.556791783,0.644147799999998,-54.12516,-6.45207400000002,1.175035,0.06630515,-0.2609191,-39.63055,-18.09894,4.084552
28.566789627,-18.00042,-49.02086,-5.232659,1.162724,0.2024536,-0.2781614,-39.63055,-18.09894,4.084552
28.576788426,-38.61406,-45.51907,-3.159653,1.238378,0.1707342,-0.2438276,-38.58119,-18.067,6.930444
28.58678627,-42.67525,-36.61621,-3.342566,1.324013,0.05123645,-0.1056377,-38.58119,-18.067,6.930444
28.596784115,-38.49099,-32.5209,-1.330531,1.307244,-0.1732772,-0.1763799,-38.58119,-18.067,6.930444
28.606782437,-18.98495,-30.85903,0.7424754,1.279781,-0.1890234,-0.1385204,-38.58119,-18.067,6.930444
28.616780281,-10.61643,-33.35183,-2.123151,1.243938,0.05837846,-0.1610147,-38.58119,-18.067,6.930444
28.626779079,-11.04717,-31.92738,-4.135185,1.159053,0.06503792,-0.09961075,-38.19241,-18.82162,7.324282
28.636776924,-12.52396,-28.84105,-5.049747,1.094916,0.0269645,-0.1918543,-38.19241,-18.82162,7.324282
28.646774769,-17.93889,-27.4166,-4.074214,1.052899,0.005811604,-0.235326,-38.19241,-18.82162,7.324282
28.65677309,-23.10768,-25.93279,-4.196156,1.042478,-0.03624228,-0.2415185,-38.19241,-18.82162,7.324282
28.666771412,-24.21528,-23.7961,-4.683922,0.9986113,-0.08924163,-0.3093862,-38.19241,-18.82162,7.324282
28.676769733,-21.69242,-21.71877,-5.537513,0.967037,-0.1204798,-0.3093231,-38.57252,-18.81409,8.547008
28.686767578,-18.36962,-18.86986,-5.476542,0.9201487,-0.1409578,-0.3216791,-38.57252,-18.81409,8.547008
28.696765423,-15.60063,-15.90224,-5.537513,0.8708275,-0.1357642,-0.337866,-38.57252,-18.81409,8.547008
28.706763267,-16.15442,-13.46879,-5.537513,0.8372718,-0.06164039,-0.343091,-38.57252,-18.81409,8.547008
28.716762066,-21.56935,-12.28174,-5.171688,0.8326055,-0.07229609,-0.3292014,-38.57252,-18.81409,8.547008
28.726759911,-24.70754,-10.61988,-4.257127,0.8516818,-0.1020344,-0.3277913,-37.81856,-19.18228,9.3286
28.736758232,-25.75361,-8.60189500000002,-2.306063,0.8294338,-0.08496692,-0.3263211,-37.81856,-19.18228,9.3286
28.746756077,-31.35313,-7.35549600000001,0.31568,0.8032123,-0.06420883,-0.3377666,-37.81856,-19.18228,9.3286
28.756754875,-36.64499,-7.17743899999998,1.90092,0.799582,-0.07831144,-0.3310566,-37.81856,-19.18228,9.3286
28.76675272,-40.52159,-8.30513400000001,1.718008,0.7932773,-0.07988505,-0.330088,-37.81856,-19.18228,9.3286
28.776750565,-42.79832,-9.848295,1.474125,0.8314334,-0.1128269,-0.29521,-37.44212,-19.18274,8.944379
28.786748886,-41.13692,-10.38247,2.205774,0.8539282,-0.1694087,-0.3138991,-37.44212,-19.18274,8.944379
28.796746731,-39.29092,-11.45081,2.75451,0.8739834,-0.1725622,-0.2770829,-37.44212,-19.18274,8.944379
28.806745052,-38.67559,-11.2134,3.851984,0.9029622,-0.2109703,-0.2886094,-37.44212,-19.18274,8.944379
28.816743374,-36.89112,-11.3321,4.400721,0.9002828,-0.2242402,-0.2991299,-37.44212,-19.18274,8.944379
28.826741219,-34.73746,-12.51915,4.034896,0.9295314,-0.1732253,-0.3102013,-37.44212,-19.18274,8.944379
28.836739063,-31.78387,-12.04433,3.425189,0.9523463,-0.1426637,-0.3121633,-37.44212,-19.18274,8.944379
28.846737862,-29.69173,-11.0947,4.156838,0.9539373,-0.1237332,-0.3179138,-37.44212,-19.18274,8.944379
28.856735706,-28.1534,-11.51016,4.583633,0.931268,-0.05872808,-0.3341627,-37.44212,-19.18274,8.944379
28.866734028,-29.8148,-11.39146,4.888487,0.9422499,-0.04616079,-0.3121705,-37.80114,-19.94626,8.945655
28.876731873,-29.56867,-10.73858,4.400721,0.9441903,-0.07201773,-0.3274817,-37.80114,-19.94626,8.945655
28.886730671,-28.21494,-10.61988,3.973926,0.9392788,-0.09593467,-0.3284241,-37.80114,-19.94626,8.945655
28.896728516,-27.35347,-10.61988,3.608101,0.9402485,-0.09528921,-0.3131115,-37.80114,-19.94626,8.945655
28.90672636,-27.47654,-10.50117,3.48616,0.9279213,-0.08786736,-0.3250563,-37.80114,-19.94626,8.945655
28.916724205,-29.75327,-10.73858,3.791013,0.9258397,-0.08050532,-0.3126116,-37.0421,-20.32426,8.566242
28.926722527,-32.27613,-10.61988,4.827517,0.9437389,-0.09963758,-0.3179023,-37.0421,-20.32426,8.566242
28.939220428,-33.93753,-10.85729,5.80304899999998,0.9613363,-0.07634977,-0.3069317,-37.0421,-20.32426,8.566242
28.94671917,-35.5374,-11.0947,6.22984400000002,0.9545479,-0.05218243,-0.3064475,-37.0421,-20.32426,8.566242
28.956717014,-39.04479,-12.22239,7.022464,0.9318863,-0.01335223,-0.3155109,-37.0421,-20.32426,8.566242
28.966714859,-45.56731,-13.88426,8.36382100000002,0.9081048,0.007594438,-0.3116463,-37.40729,-20.7107,8.178488
28.976713657,-51.53603,-14.83389,9.27838200000003,0.8978411,-0.01701947,-0.324065,-37.40729,-20.7107,8.178488
28.986711502,-55.78183,-15.48677,10.55877,0.860992,-0.05423354,-0.3814203,-37.40729,-20.7107,8.178488
28.999208927,-56.08949,-17.14864,10.80265,0.8480798,-0.09346047,-0.3919164,-37.40729,-20.7107,8.178488
29.006707668,-55.65876,-18.27633,11.1075,0.8302298,-0.1030592,-0.3933185,-37.40729,-20.7107,8.178488
29.016705513,-55.04343,-21.00654,11.5343,0.7966768,-0.08090915,-0.3961372,-37.04041,-20.32753,8.17924
29.026704311,-58.1200899999999,-24.62704,11.16848,0.7857158,-0.04153635,-0.3712423,-37.04041,-20.32753,8.17924
29.039201736,-62.3658799999999,-27.59465,11.35139,0.8663493,-0.1046734,-0.3292519,-37.04041,-20.32753,8.17924
29.046700001,-62.3043500000001,-28.12883,12.69274,0.869599,-0.1485589,-0.3526964,-37.04041,-20.32753,8.17924
29.056698322,-62.5504799999999,-31.21515,13.42439,0.8407339,-0.09097851,-0.3703683,-37.04041,-20.32753,8.17924
29.069196224,-66.73474,-35.48852,13.85119,0.8219445,-0.04975959,-0.3392387,-37.4247,-19.94672,8.561433
29.079194069,-69.5652700000003,-37.80326,14.39993,0.8165503,-0.07355008,-0.3253444,-37.4247,-19.94672,8.561433
29.089191914,-73.2572599999999,-41.2457,14.88769,0.809484,-0.08699873,-0.3459075,-37.4247,-19.94672,8.561433
29.096690655,-74.1802600000001,-43.79785,15.43643,0.8098912,-0.08409353,-0.4009452,-37.4247,-19.94672,8.561433
29.109188557,-73.7495299999998,-48.24928,15.37546,0.7758501,-0.009926697,-0.4004264,-37.4247,-19.94672,8.561433
29.119186878,-78.6106600000003,-50.68272,16.5339,0.8017694,-0.03955958,-0.3492563,-37.41345,-20.33361,7.789457
29.126685143,-75.9031899999997,-50.50467,17.26555,0.8281021,-0.1702128,-0.3459185,-37.41345,-20.33361,7.789457
29.139183521,-62.2428200000002,-51.75107,16.41196,0.8364583,-0.2538763,-0.4258337,-37.41345,-20.33361,7.789457
29.149181366,-49.93617,-53.65034,16.65584,0.890036,-0.3050065,-0.4469713,-37.41345,-20.33361,7.789457
29.156680107,-42.30605,-53.88775,17.93623,0.9079491,-0.378079,-0.50537,-37.41345,-20.33361,7.789457
29.166677952,-33.44526,-55.0748,20.25312,0.8938621,-0.3514882,-0.383794,-37.4247,-19.94672,8.561433
29.179175377,-34.0606,-57.5676000000001,28.84999,0.9234824,-0.5271595,-0.3684859,-37.4247,-19.94672,8.561433
29.189173698,-28.21494,-60.41651,33.78863,0.8846535,-0.5615399,-0.3775023,-37.4247,-19.94672,8.561433
29.19917202,-33.99906,-62.7906100000002,36.04454,0.8772744,-0.4280211,-0.3741738,-37.4247,-19.94672,8.561433
29.209169865,-42.85985,-62.67191,37.93464,0.879129,-0.3478191,-0.4818773,-37.4247,-19.94672,8.561433
29.216668606,-53.93583,-62.6125500000003,40.80027,0.8696822,-0.1287969,-0.4235309,-37.42191,-20.31727,9.724466
29.229166508,-93.0709700000002,-63.8589499999998,49.09229,0.9088699,0.01880814,-0.3092576,-37.42191,-20.31727,9.724466
29.239164352,-113.5,-61.6035600000001,55.37228,1.030646,-0.2149993,-0.4204393,-37.42191,-20.31727,9.724466
29.249162674,-110.4849,-59.0514099999997,56.04295,1.078942,-0.1666641,-0.4468577,-37.42191,-20.31727,9.724466
29.259160519,-106.1775,-57.27084,53.78704,1.09871,-0.1051687,-0.5134301,-37.42191,-20.31727,9.724466
29.269159317,-98.1782200000002,-53.94711,50.61656,1.09285,-0.05444135,-0.5861765,-37.45087,-19.16585,10.94389
29.279157162,-97.4398300000002,-52.22588,47.99482,1.109649,0.2215003,-0.4714185,-37.45087,-19.16585,10.94389
29.289155006,-110.7925,-50.38596,47.32413,1.216853,0.222564,-0.4275767,-37.45087,-19.16585,10.94389
29.299152851,-116.8843,-46.88417,46.89734,1.247078,0.1944239,-0.4879227,-37.45087,-19.16585,10.94389
29.309151173,-117.2535,-46.17194,43.60492,1.309929,0.1953376,-0.4708038,-37.8492,-18.02759,10.93502
29.319149494,-114.2999,-45.40036,40.19056,1.331793,0.1730137,-0.4617432,-37.8492,-18.02759,10.93502
29.329147816,-108.9465,-45.34101,36.53231,1.339906,0.1817981,-0.4751597,-37.8492,-18.02759,10.93502
29.33914566,-105.9929,-45.40036,32.63018,1.338648,0.2752801,-0.4526885,-37.8492,-18.02759,10.93502
29.349143505,-108.2697,-45.34101,28.91097,1.324877,0.2816753,-0.467502,-37.8492,-18.02759,10.93502
