Time (s),Gyroscope X (deg/s),Gyroscope Y (deg/s),Gyroscope Z (deg/s),Accelerometer X (g),Accelerometer Y (g),Accelerometer Z (g),Magnetometer X (uT),Magnetometer Y (uT),Magnetometer Z (uT)
8.681824684,-24.71437,-34.48342,-4.264508,0.0380435,-0.06746622,0.6751817,-4.348766,-13.32407,-54.55954
8.691732883,-28.24484,-42.46394,-4.448596,0.05132371,-0.04726013,0.7064039,-3.594022,-13.69703,-54.17681
8.701640606,-33.8812,-49.04641,-6.596298,0.04426888,-0.009893803,0.7297656,-3.594022,-13.69703,-54.17681
8.711548805,-41.49958,-55.57063,-9.48035400000003,0.0383833,0.003194074,0.7433516,-3.594022,-13.69703,-54.17681
8.721456528,-49.79928,-62.38611,-11.62806,0.03331338,-0.001590712,0.7678547,-3.594022,-13.69703,-54.17681
8.731364727,-58.22285,-68.1530499999999,-13.16213,0.0479437,-0.02947144,0.7790574,-3.594022,-13.69703,-54.17681
8.741273403,-65.9031800000002,-72.6967100000002,-14.32802,0.07114572,-0.0927229,0.7741001,-5.102702,-13.01353,-54.94207
8.751181126,-71.1059699999999,-76.7160900000002,-13.46894,0.1342654,-0.1380035,0.7727345,-5.102702,-13.01353,-54.94207
8.761089325,-75.9990799999999,-80.3859599999999,-11.25988,0.1788668,-0.1412935,0.7790223,-5.102702,-13.01353,-54.94207
8.770997047,-82.2548199999999,-84.6966099999997,-11.62806,0.1837733,-0.1456138,0.775587,-5.102702,-13.01353,-54.94207
8.780905247,-88.4486200000002,-91.8033500000002,-13.95985,0.1638471,-0.1697043,0.7592854,-5.102702,-13.01353,-54.94207
8.790812969,-92.2887900000001,-99.8421199999999,-18.07116,0.1744643,-0.2274429,0.7256717,-6.934484,-11.13913,-54.55297
8.800721168,-90.49258,-105.2013,-21.07795,0.2122259,-0.2886163,0.7124308,-6.934484,-11.13913,-54.55297
8.810628891,-85.1039700000001,-109.8032,-22.85747,0.2584969,-0.3117825,0.7152097,-6.934484,-11.13913,-54.55297
8.82053709,-79.9011799999998,-112.8323,-24.45291,0.3007266,-0.3038457,0.7417608,-6.934484,-11.13913,-54.55297
8.832922459,-76.9281500000002,-116.1527,-26.35516,0.3541551,-0.2845731,0.7769268,-6.934484,-11.13913,-54.55297
8.842830181,-78.7862899999998,-118.4827,-26.90742,0.4135248,-0.2847009,0.7965435,-12.15918,-7.455764,-54.47315
8.85273838,-81.0779999999999,-119.939,-28.31877,0.3827483,-0.2682472,0.7710093,-12.15918,-7.455764,-54.47315
8.862646103,-81.5734999999998,-124.8322,-32.98235,0.3547821,-0.2649918,0.717992,-12.15918,-7.455764,-54.47315
8.872554302,-78.3527199999999,-130.8322,-40.03909,0.3620894,-0.2829629,0.694277,-12.15918,-7.455764,-54.47315
8.882462025,-71.78729,-133.2787,-45.37766,0.4571328,-0.3014304,0.7379297,-12.15918,-7.455764,-54.47315
8.892370224,-67.4516299999999,-129.9001,-48.99807,0.5495978,-0.2921932,0.8009971,-16.99891,-4.076947,-52.53122
8.902277946,-67.2658199999999,-125.2982,-51.39122,0.601115,-0.3151127,0.8387806,-16.99891,-4.076947,-52.53122
8.912186146,-67.0800000000002,-121.5701,-51.32986,0.6258494,-0.3768482,0.8419819,-16.99891,-4.076947,-52.53122
8.922094822,-62.99208,-119.24,-51.51395,0.6161213,-0.4405983,0.82004,-16.99891,-4.076947,-52.53122
8.932002544,-53.63944,-119.8225,-54.58209,0.5653335,-0.4473037,0.7710088,-16.99891,-4.076947,-52.53122
8.941910744,-39.88919,-120.8128,-59.1229499999999,0.5784124,-0.4696415,0.7328064,-23.3268,-1.131619,-49.68073
8.951818466,-28.61647,-121.6866,-61.7615499999998,0.6240314,-0.420464,0.7567201,-23.3268,-1.131619,-49.68073
8.961726665,-27.93515,-119.2983,-61.7615499999998,0.7142511,-0.3948165,0.8107947,-23.3268,-1.131619,-49.68073
8.971634388,-31.83724,-115.5702,-58.3865900000002,0.8011174,-0.3960051,0.8402334,-23.3268,-1.131619,-49.68073
8.981542587,-34.68639,-110.7935,-54.76618,0.8696488,-0.4097421,0.8313454,-23.3268,-1.131619,-49.68073
8.99145031,-31.65143,-105.9003,-54.33664,0.8838309,-0.4049336,0.7894724,-27.38108,-0.3715112,-46.89943
9.001358509,-25.39569,-104.211,-58.1411400000002,0.8118986,-0.3746517,0.7245578,-27.38108,-0.3715112,-46.89943
9.011266232,-16.35273,-106.5993,-66.1183200000002,0.6792656,-0.3139456,0.6887364,-27.38108,-0.3715112,-46.89943
9.021174431,-8.61047599999998,-107.9391,-72.74551,0.6454194,-0.2605262,0.6932466,-27.38108,-0.3715112,-46.89943
9.031082153,-8.11497100000001,-107.8226,-75.5068400000003,0.7012682,-0.2234353,0.6992193,-27.38108,-0.3715112,-46.89943
9.040990829,-12.94614,-103.1625,-73.8500399999998,0.8229058,-0.2446483,0.7104371,-32.5406,-0.7318811,-43.27366
9.050899029,-17.65343,-95.6479800000002,-70.0455400000001,0.9428214,-0.3230768,0.725131,-32.5406,-0.7318811,-43.27366
9.060806751,-18.76832,-87.2597000000002,-65.93423,1.022222,-0.3900313,0.7124268,-32.5406,-0.7318811,-43.27366
9.070714951,-11.21187,-80.6189699999998,-63.1729000000002,1.059988,-0.4275482,0.6796571,-32.5406,-0.7318811,-43.27366
9.080622673,2.042869,-74.0947599999998,-66.1183200000002,1.01178,-0.3646447,0.677641,-32.5406,-0.7318811,-43.27366
9.093007565,18.14676,-67.9782900000002,-76.3659200000001,0.9524326,-0.2576847,0.6899461,-35.8062,-2.966908,-40.10155
9.102916241,28.92398,-62.0365999999998,-82.4408500000002,0.9415413,-0.2161863,0.6778391,-35.8062,-2.966908,-40.10155
9.112823963,38.02888,-55.68713,-85.1408200000001,0.9595678,-0.2145302,0.673362,-35.8062,-2.966908,-40.10155
9.122732163,42.73617,-50.91047,-82.4408500000002,0.9224272,-0.2140094,0.6761097,-35.8062,-2.966908,-40.10155
9.132639885,47.5054,-46.83283,-77.7158999999999,0.9114809,-0.2803356,0.6277533,-35.8062,-2.966908,-40.10155
9.142548084,53.94696,-45.43478,-73.6659500000002,0.8637006,-0.2820879,0.5916916,-38.77156,-4.391594,-37.2548
9.152455807,60.7601400000001,-44.85226,-74.4023099999999,0.8181242,-0.2649105,0.5542949,-38.77156,-4.391594,-37.2548
9.162364006,69.9889099999997,-46.30856,-78.75907,0.802267,-0.2615619,0.4901227,-38.77156,-4.391594,-37.2548
9.172271729,81.5713300000002,-50.32795,-84.8953599999998,0.8143069,-0.2271187,0.4647924,-38.77156,-4.391594,-37.2548
9.182179928,88.3845099999998,-52.42502,-88.2089600000002,0.9074332,-0.1982823,0.472286,-38.77156,-4.391594,-37.2548
9.19208765,87.76513,-49.33767,-87.7794199999999,0.9837881,-0.1699701,0.5125819,-39.44451,-9.563883,-34.85789
9.20199585,81.1377599999998,-46.54157,-82.1340300000001,1.001752,-0.1846832,0.5305638,-39.44451,-9.563883,-34.85789
9.211904526,70.4844100000002,-46.42507,-74.2182200000002,0.9784514,-0.176357,0.5092276,-39.44451,-9.563883,-34.85789
9.221812248,61.0079000000001,-50.09494,-65.6274099999999,0.9165164,-0.1590099,0.4503763,-39.44451,-9.563883,-34.85789
9.231720448,53.88502,-56.2114,-57.8956900000002,0.837049,-0.140871,0.399375,-39.44451,-9.563883,-34.85789
9.24162817,48.62029,-62.2695999999999,-54.70482,0.7913839,-0.1100812,0.3692724,-39.7515,-13.98538,-32.07977
9.251536369,44.03687,-66.6384999999999,-53.78437,0.7843688,-0.06562546,0.3571492,-39.7515,-13.98538,-32.07977
9.261444092,40.13477,-69.8423600000002,-52.92529,0.8278083,-0.03854018,0.3334002,-39.7515,-13.98538,-32.07977
9.271352291,32.51639,-72.2306899999998,-49.73442,0.9151633,0.002467994,0.364556,-39.7515,-13.98538,-32.07977
9.281260014,23.03987,-72.81321,-44.88675,0.9946878,0.03215488,0.3817841,-39.7515,-13.98538,-32.07977
9.291168213,12.13877,-72.6967100000002,-39.36409,1.036293,0.02660472,0.4269774,-40.36877,-18.40508,-28.85032
9.301075935,2.042869,-70.3083700000003,-36.72549,1.037663,0.03169919,0.4711733,-40.36877,-18.40508,-28.85032
9.310984135,-5.947139,-68.3860599999998,-34.3937,1.017836,0.02278255,0.4823408,-40.36877,-18.40508,-28.85032
9.320892811,-9.78729900000003,-66.3472399999999,-36.0505,0.9685003,0.04291692,0.4632447,-40.36877,-18.40508,-28.85032
9.330800533,-9.04404300000003,-65.2987100000002,-39.54818,0.9494837,0.03660367,0.4134421,-40.36877,-18.40508,-28.85032
9.340708733,-4.212874,-65.41521,-41.69588,0.9458686,0.0503587,0.3631506,-40.33327,-20.26524,-25.69656
9.350616455,1.671241,-65.1239499999999,-41.94133,1.002929,0.008807154,0.3474612,-40.33327,-20.26524,-25.69656
9.363001347,8.17473599999999,-63.5511499999998,-39.79363,1.062133,-0.02871946,0.3548263,-40.33327,-20.26524,-25.69656
9.372910023,10.77613,-62.8521200000001,-34.3937,1.048545,-0.04639808,0.3442707,-40.33327,-20.26524,-25.69656
9.382817745,11.2097,-62.7938699999999,-28.07332,1.021361,-0.0263988,0.3393736,-40.33327,-20.26524,-25.69656
9.392725945,9.47543500000001,-63.3763900000001,-24.45291,0.9838849,-0.0006866032,0.3389312,-41.04881,-22.12835,-23.24561
9.402633667,6.56434699999999,-64.1336699999999,-22.48929,0.965869,0.01790234,0.3204955,-41.04881,-22.12835,-23.24561
9.412541866,3.343568,-63.5511499999998,-21.50749,0.9636887,0.05702495,0.2967683,-41.04881,-22.12835,-23.24561
9.422449589,-3.407679,-63.2016400000001,-21.26203,0.9886007,0.09171006,0.2871659,-41.04881,-22.12835,-23.24561
9.432357788,-9.72536099999999,-61.9200900000003,-20.58704,1.017857,0.09301088,0.2806619,-41.04881,-22.12835,-23.24561
9.442265511,-18.39669,-60.5220499999998,-19.48251,1.038188,0.1282831,0.3018358,-42.13342,-24.30233,-20.47052
9.45217371,-27.25383,-57.4346899999999,-17.88707,1.075801,0.124593,0.3413165,-42.13342,-24.30233,-20.47052
9.462081432,-35.05802,-51.49299,-16.23028,1.09588,0.1163287,0.3823694,-42.13342,-24.30233,-20.47052
9.471989632,-38.65043,-43.74548,-15.06438,1.08199,0.05362355,0.384961,-42.13342,-24.30233,-20.47052
9.481898308,-35.98709,-37.80378,-14.88029,1.048463,0.01379874,0.3590772,-42.13342,-24.30233,-20.47052
9.49180603,-28.55453,-34.59992,-15.24847,1.008311,-0.01795272,0.316503,-42.12283,-24.67039,-18.86325
9.50171423,-17.52956,-33.20187,-15.80074,0.9812292,-0.03253425,0.2811246,-42.12283,-24.67039,-18.86325
9.511621952,-5.575511,-33.31838,-15.43256,0.9788305,-0.02059413,0.2519366,-42.12283,-24.67039,-18.86325
9.521530151,4.458453,-33.49313,-15.24847,0.9847809,0.005127872,0.2424498,-42.12283,-24.67039,-18.86325
9.531437874,12.5104,-32.61935,-14.2053,1.003448,-0.01166772,0.2311216,-42.12283,-24.67039,-18.86325
9.541346073,17.21769,-32.21159,-12.36441,1.012056,0.004927093,0.2316328,-42.49295,-24.66572,-17.7049
9.551253796,18.33258,-32.5611,-9.84853300000002,1.020624,0.02394078,0.2312,-42.49295,-24.66572,-17.7049
9.561161995,16.16475,-33.20187,-7.57810399999998,1.009978,0.05190831,0.2271634,-42.49295,-24.66572,-17.7049
9.571069717,12.26265,-34.25041,-6.16675799999997,1.019006,0.07383937,0.227226,-42.49295,-24.66572,-17.7049
9.580978393,6.93597599999999,-34.71642,-4.019056,1.035377,0.09342735,0.2252845,-42.49295,-24.66572,-17.7049
9.590886593,0.866046300000002,-33.60964,-2.791798,1.036171,0.1050516,0.2210331,-42.48098,-25.03221,-15.71216
9.600794315,-4.64644,-31.45431,-1.687266,1.027415,0.09472088,0.2133628,-42.48098,-25.03221,-15.71216
9.610702515,-9.35373199999999,-30.11452,-1.073637,1.004925,0.111265,0.1853516,-42.48098,-25.03221,-15.71216
9.620610237,-13.62746,-29.82326,-0.5213705,0.9794636,0.1267777,0.1525595,-42.48098,-25.03221,-15.71216
9.632995605,-18.39669,-30.63879,1.012702,0.9709513,0.1324232,0.1397116,-42.48098,-25.03221,-15.71216
9.642903328,-22.42266,-31.33781,2.362686,0.9753342,0.1256398,0.1300227,-42.47039,-25.40027,-14.10489
9.652811527,-26.69639,-30.87179,3.71267,0.9966923,0.1104665,0.144609,-42.47039,-25.40027,-14.10489
9.66271925,-29.9791,-29.29899,5.062654,1.007564,0.1057828,0.1502391,-42.47039,-25.40027,-14.10489
9.672627449,-32.95213,-28.0757,6.22854899999998,1.013113,0.08740194,0.1452638,-42.47039,-25.40027,-14.10489
9.682535171,-36.29678,-27.9592,6.84217800000002,1.010256,0.08301512,0.1476618,-42.47039,-25.40027,-14.10489
9.692443371,-38.65043,-29.76501,7.33308200000001,1.006744,0.08146217,0.1371204,-43.20782,-26.14795,-13.71322
9.702351093,-40.075,-31.68732,7.578534,1.003553,0.09641355,0.129567,-43.20782,-26.14795,-13.71322
9.712259293,-42.1809,-33.55138,7.45580799999998,1.01469,0.1013757,0.1246955,-43.20782,-26.14795,-13.71322
9.722167492,-45.58749,-34.19216,7.21035599999999,1.028694,0.1209741,0.1304585,-43.20782,-26.14795,-13.71322
9.732075691,-48.56052,-33.72614,7.148993,1.033056,0.1175944,0.1227131,-43.20782,-26.14795,-13.71322
9.74198389,-50.41866,-32.38634,7.148993,1.040916,0.1181993,0.1269658,-43.59502,-25.02236,-13.26503
9.751891613,-51.65742,-30.34753,7.026268,1.040487,0.1201757,0.1351456,-43.59502,-25.02236,-13.26503
9.761799812,-51.65742,-27.08542,6.16718700000003,1.03683,0.1046494,0.1417983,-43.59502,-25.02236,-13.26503
9.771707535,-49.1799,-23.88156,4.878565,1.027326,0.07588952,0.1349723,-43.59502,-25.02236,-13.26503
9.781615734,-45.52555,-21.26022,3.344493,1.018182,0.06658091,0.138356,-43.59502,-25.02236,-13.26503
9.791523457,-41.18989,-19.68742,1.871783,1.022402,0.07337171,0.128759,-43.97898,-24.2732,-13.26539
9.801431656,-37.53555,-17.88161,0.2763473,1.033485,0.07586654,0.1157089,-43.97898,-24.2732,-13.26539
9.811339378,-34.43864,-16.1923,-0.766822200000002,1.0397,0.09343371,0.1224907,-43.97898,-24.2732,-13.26539
9.821248054,-34.43864,-14.26999,-1.196362,1.046378,0.1070904,0.1220397,-43.97898,-24.2732,-13.26539
9.831156254,-36.42066,-12.34767,-0.766822200000002,1.052897,0.09749894,0.1267171,-43.97898,-24.2732,-13.26539
9.841063976,-39.82725,-10.60011,-0.1531931,1.050972,0.0970026,0.1291324,-45.0477,-23.52253,-12.87671
9.850972176,-42.6764,-9.14381400000001,0.6445247,1.036067,0.07304166,0.1257495,-45.0477,-23.52253,-12.87671
9.860879898,-45.15392,-7.97877500000003,1.258154,1.027004,0.05694595,0.1290872,-45.0477,-23.52253,-12.87671
9.870788097,-45.52555,-7.221499,1.933146,1.016918,0.03349741,0.1194211,-45.0477,-23.52253,-12.87671
9.88069582,-43.17191,-6.75548299999999,2.23996,1.013668,0.01159336,0.1106624,-45.0477,-23.52253,-12.87671
9.890604019,-38.96012,-6.23121499999997,1.994509,1.012315,-0.00495113,0.102402,-43.99353,-23.14942,-13.26885
9.902989387,-31.83724,-5.590444,1.749057,1.019343,-0.02525799,0.0964398,-43.99353,-23.14942,-13.26885
9.91289711,-25.70538,-5.124428,1.81042,1.017834,-0.02871307,0.08826806,-43.99353,-23.14942,-13.26885
9.922805309,-20.25483,-4.658412,2.23996,1.016762,-0.01999385,0.08929638,-43.99353,-23.14942,-13.26885
9.932713032,-15.85723,-4.483657,3.037678,1.018182,-0.01073144,0.09558701,-44.68266,-23.15287,-14.10046
9.942621231,-12.94614,-3.668129,3.835396,1.027892,-0.000401315,0.1008478,-44.68266,-23.15287,-14.10046
9.952528954,-10.40668,-2.910854,4.633114,1.03224,0.003529134,0.1003536,-44.68266,-23.15287,-14.10046
9.962437153,-8.73435200000001,-2.444838,4.817203,1.021276,0.02426201,0.1044344,-44.68266,-23.15287,-14.10046
9.972345829,-8.36272300000002,-2.619594,4.939929,1.01821,0.03781506,0.107434,-44.68266,-23.15287,-14.10046
9.982253551,-8.48660000000001,-3.08561,5.246743,1.013185,0.04500075,0.1027267,-44.69639,-22.09152,-14.10373
9.992161751,-8.176909,-3.37687,5.308106,1.019854,0.04694596,0.0877931,-44.69639,-22.09152,-14.10373
10.002069473,-7.74334299999998,-3.668129,5.492195,1.025688,0.04651365,0.08389501,-44.69639,-22.09152,-14.10373
10.011977673,-7.062024,-4.075893,5.369469,1.021765,0.04450807,0.08055681,-44.69639,-22.09152,-14.10373
10.021885395,-6.25683000000001,-4.425405,5.124017,1.024699,0.0445445,0.08052992,-44.69639,-22.09152,-14.10373
10.031793594,-5.451635,-4.541909,4.878565,1.024218,0.0455182,0.08246148,-45.06442,-22.46457,-13.71516
10.041701317,-4.832254,-4.483657,4.694477,1.033917,0.04803814,0.077587,-45.06442,-22.46457,-13.71516
10.051609516,-4.33675,-4.367153,4.510388,1.034208,0.06501452,0.07817756,-45.06442,-22.46457,-13.71516
10.061518192,-4.708378,-4.250649,4.264936,1.039954,0.0747807,0.07770933,-45.06442,-22.46457,-13.71516
10.071425915,-5.76132499999998,-3.551625,3.896759,1.039345,0.08934644,0.08309373,-45.06442,-22.46457,-13.71516
10.081334114,-7.49559099999998,-2.736098,3.344493,1.036441,0.08981263,0.0864848,-45.06442,-22.46457,-13.71516
10.091241837,-8.67241400000003,-1.454555,2.914952,1.030364,0.07670797,0.09845766,-45.06442,-22.46457,-13.71516
10.101150036,-9.04404300000003,-0.1730116,2.362686,1.019794,0.05862175,0.09555398,-45.06442,-22.46457,-13.71516
10.111057758,-7.929157,0.5842639,1.503605,1.02145,0.04361649,0.09639901,-45.06442,-22.46457,-13.71516
10.120965958,-6.38070599999998,0.875523700000001,0.767250500000003,1.026519,0.02816129,0.09576902,-45.06442,-22.46457,-13.71516
10.13087368,-4.522564,1.516295,0.0922585699999997,1.026415,0.02859513,0.08616969,-45.0755,-21.71695,-14.10294
10.140781879,-2.788299,1.865807,-0.644096300000003,1.033314,0.02822083,0.09090498,-45.0755,-21.71695,-14.10294
10.150690556,-1.735352,2.331823,-1.073637,1.030443,0.02626561,0.09475977,-45.0755,-21.71695,-14.10294
10.160598278,-1.115971,2.448327,-1.135,1.025977,0.02471326,0.08662803,-45.0755,-21.71695,-14.10294
10.17298317,-1.363724,2.157067,-0.889547900000002,1.017505,0.03818423,0.08679613,-45.0755,-21.71695,-14.10294
10.182890892,-1.983104,1.574547,-0.766822200000002,1.007129,0.03897533,0.07729421,-44.38798,-21.71533,-13.72104
10.192799568,-3.097989,1.341539,-0.4600076,1.001692,0.04180455,0.07496253,-44.38798,-21.71533,-13.72104
10.202707768,-4.522564,0.5842639,-0.1531931,1.002263,0.03453618,0.07442868,-44.38798,-21.71533,-13.72104
10.21261549,-5.88520100000001,-0.05650773,0.3377102,1.000773,0.03109129,0.06817745,-44.38798,-21.71533,-13.72104
10.222523689,-7.681405,-0.930287099999998,0.6445247,0.9968935,0.03544916,0.07640505,-44.38798,-21.71533,-13.72104
10.232431412,-9.35373199999999,-1.629311,1.074065,0.9963918,0.03446076,0.07400233,-44.70124,-21.71692,-14.10488
10.242339611,-11.14994,-2.21183,1.442243,0.9930124,0.03248927,0.07594107,-44.70124,-21.71692,-14.10488
10.252247334,-12.8842,-2.910854,1.687694,0.9930307,0.03054755,0.07544781,-44.70124,-21.71692,-14.10488
10.262155533,-14.12296,-3.493374,2.485412,0.9940035,0.03055715,0.07495871,-44.70124,-21.71692,-14.10488
10.272064209,-14.9901,-3.784633,2.669501,0.9935,0.03054343,0.07352281,-44.70124,-21.71692,-14.10488
10.281971932,-15.79529,-4.192397,2.914952,0.9921606,0.02522562,0.07974182,-44.70124,-21.71692,-14.10488
10.291880131,-16.41467,-4.250649,2.730864,0.9975288,0.02772657,0.08162947,-44.70124,-21.71692,-14.10488
10.301787853,-16.53855,-4.483657,2.669501,0.9969853,0.02817982,0.07683594,-44.70124,-21.71692,-14.10488
10.311696053,-16.66242,-4.89142,2.608138,0.9932426,0.02187734,0.08595157,-44.70124,-21.71692,-14.10488
10.321603775,-16.16692,-5.007925,2.669501,0.9937947,0.01411144,0.08301378,-44.70124,-21.71692,-14.10488
10.331511974,-15.54754,-5.124428,3.099041,1.000164,0.01468536,0.08487933,-44.70609,-21.34233,-14.10604
10.341419697,-14.12296,-4.833169,3.28313,1.00456,0.008884285,0.07759766,-44.70609,-21.34233,-14.10604
10.351327896,-12.69839,-4.541909,3.528581,1.009946,0.007004269,0.07609484,-44.70609,-21.34233,-14.10604
10.361236572,-10.96412,-4.425405,3.344493,1.011493,0.0002353873,0.07603543,-44.70609,-21.34233,-14.10604
10.371144295,-8.85822799999998,-3.901137,3.099041,1.016845,0.009069222,0.08372733,-44.70609,-21.34233,-14.10604
10.381052494,-6.75233400000001,-3.551625,2.914952,1.025963,0.01641318,0.07552923,-44.40876,-20.21852,-14.11112
10.390960217,-5.141944,-2.79435,2.914952,1.026444,0.01300022,0.07070047,-44.40876,-20.21852,-14.11112
10.400868416,-3.283803,-2.153579,2.853589,1.030352,0.01987667,0.07839267,-44.40876,-20.21852,-14.11112
10.410776138,-1.79729,-1.338051,2.792227,1.021038,0.01779664,0.07366338,-44.40876,-20.21852,-14.11112
10.420684338,-0.3727147,-0.639027300000002,2.730864,1.024843,0.02218033,0.06837565,-44.40876,-20.21852,-14.11112
10.43059206,0.3705419,0.001744238,2.608138,1.024675,0.02794689,0.05881245,-45.45599,-21.34395,-14.48761
10.442977429,0.680232200000002,0.875523700000001,2.669501,1.02069,0.03371328,0.05840757,-45.45599,-21.34395,-14.48761
10.452885151,0.804108299999999,1.05028,2.301323,1.019241,0.03711918,0.06420554,-45.45599,-21.34395,-14.48761
10.46279335,0.3705419,1.166783,2.178597,1.016826,0.0400307,0.07048933,-45.45599,-21.34395,-14.48761
10.472701073,-0.1249625,1.166783,1.871783,1.01821,0.0448841,0.06810807,-45.45599,-21.34395,-14.48761
10.482609272,-1.177909,1.05028,1.564968,1.020684,0.0424905,0.06806926,-44.71717,-20.5947,-14.49381
10.492517948,-1.859228,0.875523700000001,1.012702,1.027537,0.04794646,0.07524459,-44.71717,-20.5947,-14.49381
10.502425671,-2.664423,0.817271699999998,0.5217989,1.031541,0.04316495,0.07853682,-44.71717,-20.5947,-14.49381
10.51233387,-3.159927,0.817271699999998,0.5217989,1.035342,0.04705875,0.07228556,-44.71717,-20.5947,-14.49381
10.522241593,-3.593493,0.875523700000001,0.0922585699999997,1.034966,0.04125809,0.07657181,-44.71717,-20.5947,-14.49381
10.532149792,-3.965122,0.933775699999999,-0.3372818,1.031487,0.04313692,0.0732554,-45.46568,-20.59476,-14.48992
10.542057514,-4.584502,0.9920276,-0.4600076,1.02957,0.03776717,0.07083655,-45.46568,-20.59476,-14.48992
10.551965713,-5.203883,0.875523700000001,-0.828185100000001,1.029549,0.03629241,0.06698566,-45.46568,-20.59476,-14.48992
10.561873436,-5.451635,0.875523700000001,-1.257725,1.024273,0.03140061,0.07132329,-45.46568,-20.59476,-14.48992
10.571782112,-5.947139,0.759019800000003,-1.196362,1.022254,0.0313432,0.06509952,-45.46568,-20.59476,-14.48992
10.581690311,-5.82326300000003,0.5842639,-1.257725,1.015505,0.02740532,0.06993728,-44.72202,-20.22011,-14.49497
10.591598034,-5.76132499999998,0.5260119,-1.196362,1.012676,0.02108186,0.07280227,-44.72202,-20.22011,-14.49497
10.601506233,-5.513573,0.5260119,-1.135,1.015083,0.0206045,0.06845541,-44.72202,-20.22011,-14.49497
10.611413956,-5.141944,0.817271699999998,-1.319088,1.013625,0.02107872,0.06991252,-44.72202,-20.22011,-14.49497
10.621322155,-4.956131,0.9920276,-1.135,1.012693,0.02011482,0.07327583,-44.72202,-20.22011,-14.49497
10.631229877,-4.956131,0.875523700000001,-1.012274,1.015648,0.02162602,0.07709984,-45.47401,-19.844,-14.10676
10.641138077,-4.770316,0.642515800000001,-0.582733500000001,1.016169,0.01238026,0.06935089,-45.47401,-19.844,-14.10676
10.651046753,-4.708378,0.700767799999999,-0.3372818,1.013795,0.01092355,0.07464487,-45.47401,-19.844,-14.10676
10.660954475,-4.460626,0.642515800000001,0.1536215,1.011428,0.00654279,0.07703838,-45.47401,-19.844,-14.10676
10.670862675,-4.088998,0.351256,0.3377102,1.016829,0.004183074,0.07649255,-45.47401,-19.844,-14.10676
10.680770397,-3.159927,0.409508,0.460436,1.020727,0.006175924,0.0774301,-45.47191,-20.22174,-14.87654
10.690678596,-2.478608,0.1182482,0.6445247,1.014783,0.01094079,0.07559617,-45.47191,-20.22174,-14.87654
10.700586319,-1.549538,0.2347521,0.705887599999999,1.014775,0.0128876,0.0770497,-45.47191,-20.22174,-14.87654
10.712971687,-0.4965908,0.001744238,0.767250500000003,1.019193,0.01587904,0.0823105,-45.47191,-20.22174,-14.87654
10.722879887,-0.1869005,-0.1147597,0.460436,1.013128,0.02009287,0.06798992,-45.47191,-20.22174,-14.87654
10.732787609,0.1847278,-0.1147597,0.460436,1.012204,0.02010875,0.07328031,-44.79547,-19.47249,-14.88242
10.742695808,0.494418,-0.3477675,0.3990731,1.014091,0.02253662,0.06943776,-44.79547,-19.47249,-14.88242
10.752603531,0.680232200000002,-0.3477675,0.0922585699999997,1.014572,0.02692876,0.07378401,-44.79547,-19.47249,-14.88242
10.76251173,1.113798,-0.2312636,0.1536215,1.014025,0.02396552,0.06464632,-44.79547,-19.47249,-14.88242
10.772420406,1.299613,-0.5225234,0.2149844,1.015101,0.02402863,0.07423995,-44.79547,-19.47249,-14.88242
10.782328129,1.423489,-0.5225234,0.03089567,1.016412,0.03420966,0.07093455,-44.78577,-20.22168,-14.88011
10.792236328,1.361551,-0.5225234,0.1536215,1.014577,0.02693131,0.07426412,-44.78577,-20.22168,-14.88011
10.802144051,1.237675,-0.639027300000002,0.2149844,1.020144,0.03562854,0.05506427,-44.78577,-20.22168,-14.88011
10.81205225,1.113798,-0.580775400000001,0.583161800000002,1.016783,0.03708118,0.06278756,-44.78577,-20.22168,-14.88011
10.821959972,0.680232200000002,-0.639027300000002,0.583161800000002,1.023586,0.0351939,0.05647,-44.78577,-20.22168,-14.88011
10.831868172,0.2466658,-0.580775400000001,0.583161800000002,1.018742,0.03466876,0.06035257,-44.41498,-19.84549,-14.49774
10.841776848,-0.1869005,-0.813783199999999,0.828613499999998,1.017365,0.03176982,0.06562775,-44.41498,-19.84549,-14.49774
10.85168457,-0.8682191,-1.163295,0.889976299999999,1.018241,0.03611961,0.06084703,-44.41498,-19.84549,-14.49774
10.86159277,-1.735352,-1.338051,1.074065,1.01723,0.03804155,0.05990886,-44.41498,-19.84549,-14.49774
10.871500492,-2.602484,-1.338051,1.012702,1.015326,0.03706805,0.06376126,-44.41498,-19.84549,-14.49774
10.881408691,-3.221865,-1.454555,1.012702,1.011879,0.03457355,0.05849478,-45.46706,-20.59633,-14.87539
10.891316414,-3.779308,-1.629311,1.442243,1.01094,0.02921595,0.05606697,-45.46706,-20.59633,-14.87539
10.901224613,-3.903184,-1.454555,1.442243,1.006117,0.02821366,0.06138664,-45.46706,-20.59633,-14.87539
10.911132336,-3.841246,-1.512807,1.626331,0.9992974,0.02814139,0.06385002,-45.46706,-20.59633,-14.87539
10.921041012,-3.655432,-1.687563,1.626331,1.002694,0.02865849,0.06190142,-45.46706,-20.59633,-14.87539
10.930949211,-3.531555,-1.512807,1.503605,0.9987573,0.03201111,0.06340064,-45.84479,-20.2202,-14.48913
10.940856934,-3.159927,-1.279799,1.196791,1.005591,0.02965178,0.05948046,-45.84479,-20.2202,-14.48913
10.950765133,-2.788299,-0.988539100000001,1.258154,1.008092,0.02824815,0.06328924,-45.84479,-20.2202,-14.48913
10.960672855,-2.478608,-1.046791,1.258154,1.001232,0.02620357,0.0594978,-45.84479,-20.2202,-14.48913
10.970581055,-2.168918,-0.580775400000001,1.258154,1.009709,0.02102759,0.06946824,-45.84479,-20.2202,-14.48913
10.982965946,-1.859228,-0.813783199999999,1.258154,1.009732,0.01372258,0.0631773,-45.83994,-20.59479,-14.48798
10.992874146,-1.549538,-0.930287099999998,1.258154,1.00475,0.01410078,0.05458306,-45.83994,-20.59479,-14.48798
11.002782345,-1.735352,-1.454555,1.38088,1.006183,0.02141892,0.05990029,-45.83994,-20.59479,-14.48798
11.012690067,-1.673414,-1.978823,1.442243,1.006118,0.01943389,0.05124482,-45.83994,-20.59479,-14.48798
11.044891357,-2.168918,-2.619594,2.117234,1.01996,0.01334238,0.05875876,-45.10112,-19.84554,-14.49417
11.052322388,-2.045042,-2.619594,1.994509,1.024422,0.01147824,0.06254634,-45.10112,-19.84554,-14.49417
11.062230587,-1.363724,-2.561342,1.994509,1.019079,0.01142928,0.06595654,-45.10112,-19.84554,-14.49417
11.072138309,-0.682404900000003,-2.386586,1.871783,1.015622,0.006490431,0.0568326,-45.10112,-19.84554,-14.49417
11.082046509,-0.1869005,-2.736098,2.055871,1.014162,0.01086592,0.06263715,-45.10112,-19.84554,-14.49417
11.091954231,0.2466658,-3.37687,2.117234,1.020987,0.01581925,0.06644829,-45.10112,-19.84554,-14.49417
11.101862431,-0.06302445,-3.959389,2.301323,1.030187,0.02418121,0.06737923,-45.10112,-19.84554,-14.49417
11.111771107,-0.4965908,-4.308901,2.23996,1.035521,0.02959092,0.06928658,-45.10112,-19.84554,-14.49417
11.121678829,-1.549538,-4.658412,2.055871,1.03148,0.03337737,0.06118648,-45.10112,-19.84554,-14.49417
11.131587029,-2.354732,-5.007925,2.301323,1.03299,0.03097926,0.06259701,-45.47191,-20.22174,-14.87654
11.141494751,-3.097989,-5.240932,2.669501,1.030542,0.02216658,0.05199746,-45.47191,-20.22174,-14.87654
11.15140295,-3.345741,-5.532192,2.914952,1.026176,0.01725125,0.0496043,-45.47191,-20.22174,-14.87654
11.161310673,-3.903184,-5.82345200000001,3.405856,1.022257,0.02158874,0.05399087,-45.47191,-20.22174,-14.87654
11.171218872,-4.212874,-6.75548299999999,3.528581,1.014971,0.01713197,0.0535484,-45.47191,-20.22174,-14.87654
11.181127548,-4.64644,-7.51275900000002,3.71267,1.017865,0.01470877,0.04678328,-45.47401,-19.844,-14.10676
11.191035271,-5.080007,-7.454507,4.019485,1.017796,0.02540479,0.05261707,-45.47401,-19.844,-14.10676
11.20094347,-5.82326300000003,-6.988491,4.019485,1.015797,0.03316266,0.05748882,-45.47401,-19.844,-14.10676
11.210851193,-6.69039600000003,-6.40597199999999,3.896759,1.012697,0.03840544,0.04746909,-45.47401,-19.844,-14.10676
11.220759392,-7.681405,-5.590444,3.774033,1.018107,0.03702551,0.04885035,-45.47401,-19.844,-14.10676
11.230667114,-8.548538,-4.600161,3.221767,1.02107,0.03415064,0.04832364,-45.85796,-19.09484,-14.10712
11.240575314,-9.10597999999999,-3.668129,2.608138,1.018227,0.02489294,0.04636762,-45.85796,-19.09484,-14.10712
11.252960682,-8.92016599999997,-3.027358,1.994509,1.021389,0.007487028,0.04814306,-45.85796,-19.09484,-14.10712
11.262868404,-8.053034,-2.153579,1.81042,1.026469,-0.0006453163,0.0571649,-45.85796,-19.09484,-14.10712
11.272776604,-6.75233400000001,-1.279799,1.687694,1.028034,-0.006429325,0.05999284,-45.85796,-19.09484,-14.10712
11.282684326,-5.141944,-0.5225234,1.749057,1.038025,-0.01839202,0.06654297,-45.85796,-19.09484,-14.10712
11.292593002,-2.41667,0.933775699999999,2.055871,1.035914,-0.01410669,0.05650771,-45.85796,-19.09484,-14.10712
11.302501202,-0.06302445,1.691051,2.055871,1.032352,-0.007392668,0.05082348,-45.85796,-19.09484,-14.10712
11.312408924,1.671241,2.157067,1.871783,1.026834,0.002710992,0.0490212,-45.85796,-19.09484,-14.10712
11.322317123,2.600312,1.749303,2.362686,1.023822,0.005560384,0.04474661,-46.2239,-19.84563,-14.48834
11.332224846,2.476436,2.040563,2.608138,1.032059,0.02172293,0.0563019,-46.2239,-19.84563,-14.48834
11.342133045,1.547365,3.43861,2.853589,1.043316,0.01747908,0.05232827,-46.2239,-19.84563,-14.48834
11.352040768,0.3705419,4.778405,2.853589,1.041274,0.02716594,0.05529263,-46.2239,-19.84563,-14.48834
11.361949444,-0.992095199999997,6.05994799999998,2.608138,1.036226,0.03921739,0.05397913,-46.2239,-19.84563,-14.48834
11.371857643,-2.912175,6.40946000000002,2.117234,1.015501,0.0422769,0.03930627,-46.2336,-19.09644,-14.49064
11.381765366,-5.141944,4.60365,1.503605,0.9914017,0.06165555,0.0007654326,-46.2336,-19.09644,-14.49064
11.391673565,-9.04404300000003,1.458043,0.5217989,0.9768568,0.08567832,-0.006622545,-46.2336,-19.09644,-14.49064
11.401581287,-14.43265,-0.755531299999998,0.03089567,0.9855527,0.102319,0.002530901,-46.2336,-19.09644,-14.49064
11.411489487,-21.06002,-0.580775400000001,0.3377102,1.011682,0.1056821,0.02727988,-46.2336,-19.09644,-14.49064
11.421397209,-27.6874,0.5842639,0.2763473,1.021659,0.1015168,0.04156461,-45.85449,-19.47101,-14.49144
11.431305885,-33.69538,1.924059,0.6445247,1.025444,0.08760227,0.06064323,-45.85449,-19.47101,-14.49144
11.441214085,-39.02206,3.496862,1.012702,1.036052,0.05912702,0.06035542,-45.85449,-19.47101,-14.49144
11.451121807,-42.80028,5.127917,1.933146,1.032306,0.03867637,0.0525713,-45.85449,-19.47101,-14.49144
11.461030007,-45.03005,5.76868899999999,2.23996,1.012611,0.0005600449,0.04241619,-45.85449,-19.47101,-14.49144
11.470937729,-45.95912,5.011413,2.178597,1.007378,-0.02723677,0.02403339,-45.49914,-18.35216,-15.71749
11.480845928,-46.083,3.72987,2.976315,0.9996405,-0.03607039,0.02212546,-45.49914,-18.35216,-15.71749
11.490753651,-46.14493,2.448327,4.510388,1.002883,-0.04709247,0.03930774,-45.49914,-18.35216,-15.71749
11.500662327,-46.02106,2.448327,6.71945300000003,1.022212,-0.04330412,0.06892403,-45.49914,-18.35216,-15.71749
11.510570526,-45.2778,2.448327,8.49897699999999,1.024578,-0.02185114,0.08633077,-45.49914,-18.35216,-15.71749
11.522954941,-40.26082,4.953161,5.79900900000001,1.046885,-0.01678758,0.07415424,-46.2517,-18.04006,-15.71456
11.532863617,-36.66841,6.05994799999998,4.203574,1.038697,0.009266053,0.0691218,-46.2517,-18.04006,-15.71456
11.542771339,-35.11996,6.29295599999999,3.221767,1.026851,0.0119883,0.06156696,-46.2517,-18.04006,-15.71456
11.552679539,-34.74833,5.535681,2.730864,1.01519,-0.0003154796,0.05439047,-46.2517,-18.04006,-15.71456
11.562587261,-35.1819,5.593933,3.71267,1.022346,-0.02640928,0.05415044,-46.2517,-18.04006,-15.71456
11.57249546,-34.99608,5.88519199999999,4.14221,1.015532,-0.02696635,0.05661053,-45.51702,-17.29551,-16.87716
11.582403183,-34.19089,5.82694100000001,4.326299,1.012536,-0.02167006,0.05667353,-45.51702,-17.29551,-16.87716
11.592311382,-34.68639,5.593933,3.651307,1.023831,-0.006869405,0.07875495,-45.51702,-17.29551,-16.87716
11.602220058,-35.24384,5.76868899999999,2.730864,1.032214,-0.008679863,0.08346695,-45.51702,-17.29551,-16.87716
11.612127781,-35.30577,6.46771199999997,2.178597,1.025039,-0.02576163,0.07909808,-45.51702,-17.29551,-16.87716
11.62203598,-34.43864,6.40946000000002,1.81042,1.016669,-0.02248151,0.07727671,-46.65248,-16.54981,-17.70881
11.631943703,-33.19988,6.23470400000003,1.442243,1.010401,-0.0273931,0.08018291,-46.65248,-16.54981,-17.70881
11.641851902,-32.02306,5.593933,1.503605,1.023269,-0.03056761,0.09156655,-46.65248,-16.54981,-17.70881
11.651759624,-31.21786,5.535681,1.074065,1.022341,-0.03104161,0.09589339,-46.65248,-16.54981,-17.70881
11.661667824,-30.41267,6.00169699999999,0.705887599999999,1.033173,-0.02989257,0.1044437,-46.65248,-16.54981,-17.70881
11.6715765,-29.11197,6.52596399999999,-0.3986447,1.023939,-0.01754504,0.07676221,-45.53593,-16.17669,-18.10127
11.681484222,-28.86422,6.17645200000001,-1.99408,1.008635,-0.0007375125,0.08229744,-45.53593,-16.17669,-18.10127
11.691392422,-29.54554,5.302673,-2.669072,1.013425,0.01049128,0.08568906,-45.53593,-16.17669,-18.10127
11.701300144,-30.66042,4.894909,-3.159976,1.026311,0.005862392,0.09706285,-45.53593,-16.17669,-18.10127
11.711208343,-31.7753,5.76868899999999,-4.080419,1.032349,-0.007633842,0.09787741,-45.53593,-16.17669,-18.10127
11.721116066,-32.45662,5.710437,-4.755411,1.028935,-0.01450167,0.09066086,-45.92265,-15.43067,-18.87257
11.731024265,-32.27081,5.710437,-4.9395,1.019504,-0.04322335,0.0910369,-45.92265,-15.43067,-18.87257
11.740932941,-30.72236,5.94344499999998,-5.491766,1.023245,-0.06203936,0.09999995,-45.92265,-15.43067,-18.87257
11.750840664,-28.80228,6.584216,-5.859943,1.014077,-0.0694088,0.1033967,-45.92265,-15.43067,-18.87257
11.760748863,-26.20088,5.360925,-6.10539499999999,0.9883074,-0.05575985,0.08596015,-45.92265,-15.43067,-18.87257
11.770656586,-24.09499,4.312389,-6.35084600000001,0.9939489,-0.04799908,0.07299541,-45.92563,-15.43407,-19.70775
11.780564785,-23.22786,3.030846,-6.41221000000002,0.973332,-0.01879035,0.05177354,-45.92563,-15.43407,-19.70775
11.792950153,-22.36072,0.1182482,-8.06900800000002,0.9777826,-0.0196849,0.05556769,-45.92563,-15.43407,-19.70775
11.802857876,-22.17491,-1.046791,-9.05081500000002,1.01825,-0.003139392,0.06346634,-45.92563,-15.43407,-19.70775
11.812766075,-23.66142,-1.396303,-8.98945100000001,1.036343,-0.002912158,0.06378069,-45.92563,-15.43407,-19.70775
11.822673798,-26.07701,-1.978823,-7.88491900000001,1.038914,-0.007694053,0.07044728,-45.56107,-14.68485,-19.71201
11.832582474,-27.12995,-2.444838,-8.49854900000003,1.019296,-0.01870177,0.05182921,-45.56107,-14.68485,-19.71201
11.842490673,-26.63445,-3.260366,-9.66444299999998,1.014082,-0.02258576,0.06337534,-45.56107,-14.68485,-19.71201
11.852398396,-26.07701,-3.668129,-11.07579,1.037382,-0.02993729,0.08567832,-45.56107,-14.68485,-19.71201
11.862306595,-26.01507,-3.37687,-9.97125800000001,1.040108,-0.03951615,0.1019147,-45.56107,-14.68485,-19.71201
11.872214317,-24.83825,-3.668129,-10.03262,1.012989,-0.03899521,0.08056183,-44.87631,-14.68636,-20.10104
11.882122517,-21.80328,-5.532192,-10.64625,0.9976915,-0.03633076,0.07015758,-44.87631,-14.68636,-20.10104
11.892030239,-19.20188,-6.69723099999998,-11.07579,1.005503,-0.01721457,0.09133965,-44.87631,-14.68636,-20.10104
11.901938915,-17.52956,-6.75548299999999,-12.67123,1.019465,-0.006418881,0.0826396,-44.87631,-14.68636,-20.10104
11.911847115,-16.10498,-6.93023899999998,-13.46894,1.004578,-0.006228375,0.06165159,-44.87631,-14.68636,-20.10104
11.921754837,-15.54754,-8.561295,-13.65303,1.011383,-0.001285236,0.0635422,-45.55969,-14.68328,-19.32654
11.931663036,-16.53855,-7.68751500000001,-12.30305,1.034286,-0.0003019885,0.1046306,-45.55969,-14.68328,-19.32654
11.941570759,-17.96312,-5.532192,-11.32124,1.031496,0.009243757,0.08215252,-45.55969,-14.68328,-19.32654
11.951478958,-18.83025,-6.11471200000003,-11.25988,0.9984448,0.03672655,0.03846672,-45.55969,-14.68328,-19.32654
11.961386681,-19.82126,-7.74576700000002,-12.36441,1.009789,0.03545516,0.04651602,-45.55969,-14.68328,-19.32654
11.971295357,-19.57351,-8.79430199999998,-14.94165,0.9857526,0.05535426,0.01470029,-44.48799,-15.43056,-18.88003
11.981203556,-19.13994,-11.76515,-16.59845,0.9966537,0.0399541,0.01065561,-44.48799,-15.43056,-18.88003
11.991111279,-19.94514,-13.51271,-17.76435,1.03501,0.02200819,0.01066148,-44.48799,-15.43056,-18.88003
12.001019478,-20.19289,-16.25055,-17.15072,1.042976,0.01583871,0.01726893,-44.48799,-15.43056,-18.88003
12.0109272,-21.30778,-18.46413,-14.88029,1.037038,-0.008900973,0.02916298,-44.48799,-15.43056,-18.88003
12.0208354,-20.81227,-20.38644,-13.22349,1.011227,0.0217998,0.02768558,-44.8574,-15.80518,-18.87693
12.030744076,-19.44963,-22.25051,-15.98482,0.9660811,0.04675777,-0.006302019,-44.8574,-15.80518,-18.87693
12.040651798,-18.70638,-26.03688,-17.88707,0.988254,0.05102404,0.01512846,-44.8574,-15.80518,-18.87693
12.050559998,-19.26382,-27.08542,-19.54387,0.9985251,0.04578827,0.009236695,-44.8574,-15.80518,-18.87693
12.062944889,-15.91917,-33.60964,-19.72796,1.016643,0.01090658,-0.02909575,-44.8574,-15.80518,-18.87693
12.072853088,-12.76033,-35.00768,-16.78254,1.07493,-0.01903513,0.04074899,-44.1096,-15.42582,-17.72557
12.082760811,-8.11497100000001,-33.37663,-16.04619,1.023617,-0.03185882,0.028654,-44.1096,-15.42582,-17.72557
12.09266901,-0.992095199999997,-34.19216,-16.65982,1.018435,-0.0003646944,0.03707442,-44.1096,-15.42582,-17.72557
12.102576733,2.910002,-31.27956,-15.8621,1.055791,-0.01613487,0.08511986,-44.1096,-15.42582,-17.72557
12.112484932,5.94496599999999,-27.84269,-13.40758,1.034424,0.00439914,0.07585111,-44.1096,-15.42582,-17.72557
12.122392654,8.17473599999999,-25.62912,-11.25988,1.012231,0.01085437,0.06505572,-44.09415,-16.16847,-16.11715
12.132301331,10.09482,-22.83302,-10.09398,1.026302,0.009999744,0.0533961,-44.09415,-16.16847,-16.11715
12.14220953,10.96195,-19.16315,-7.148564,1.051447,0.001151887,0.06318793,-44.09415,-16.16847,-16.11715
12.152117252,13.93497,-15.78454,-5.675855,1.00927,-0.003342969,0.04578219,-44.09415,-16.16847,-16.11715
12.162025452,15.73118,-11.8234,-3.773605,1.032135,0.01493328,0.05577581,-44.09415,-16.16847,-16.11715
12.171933174,14.92598,-6.81373500000001,-1.135,1.023808,0.0128705,0.05199781,-43.32971,-17.29063,-15.73211
12.181841373,14.49242,-4.192397,0.767250500000003,0.9921492,0.02009331,0.0249697,-43.32971,-17.29063,-15.73211
12.19175005,13.99691,-2.561342,2.055871,0.9893458,0.03158332,0.003465055,-43.32971,-17.29063,-15.73211
12.201657772,12.26265,-1.105043,3.71267,0.9977576,0.02198305,0.00188283,-43.32971,-17.29063,-15.73211
12.211565971,11.33358,-0.1147597,5.18538,0.9937625,0.01701265,-0.01203792,-43.32971,-17.29063,-15.73211
12.221473694,10.7142,-0.4642715,5.98309800000002,0.9863797,0.01738343,-0.0162886,-43.69614,-17.66186,-14.89384
12.231381893,9.72318700000001,-0.4060195,7.026268,0.9989148,0.03305978,-0.01533978,-43.69614,-17.66186,-14.89384
12.241289616,8.05085899999999,0.351256,8.13079899999997,1.019339,0.04691706,-0.0101546,-43.69614,-17.66186,-14.89384
12.251198292,5.88302899999997,2.85609,10.15578,1.048303,0.04782638,0.002067697,-43.69614,-17.66186,-14.89384
12.261106491,4.768144,4.254138,10.89213,1.00379,0.07432888,-0.01607025,-43.69614,-17.66186,-14.89384
12.271014214,3.839073,3.322106,9.54214699999998,0.9966693,0.09166073,-0.02261114,-43.69476,-17.66029,-14.50837
12.280922413,2.228683,2.972594,8.37625100000002,1.026893,0.1017484,-0.0199425,-43.69476,-17.66029,-14.50837
12.290830135,0.742170199999999,3.089098,7.701259,1.029047,0.0838277,-0.02152229,-43.69476,-17.66029,-14.50837
12.300738335,-1.4876,3.613366,7.76262199999999,1.056637,0.06964436,-0.01803067,-43.69476,-17.66029,-14.50837
12.310647011,-3.036051,4.02113,7.45580799999998,1.053932,0.05460482,-0.01330426,-43.69476,-17.66029,-14.50837
12.320554733,-4.088998,4.487145,7.82398500000003,1.039435,0.04231556,-0.01085127,-43.6996,-17.28569,-14.50952
12.332939625,-3.593493,4.312389,7.21035599999999,1.010853,0.04867401,-0.02494933,-43.6996,-17.28569,-14.50952
12.342848301,-3.345741,3.380358,6.84217800000002,0.9951938,0.05969107,-0.01320731,-43.6996,-17.28569,-14.50952
12.352756023,-3.841246,3.846374,7.148993,1.052751,0.05132044,0.01069269,-43.6996,-17.28569,-14.50952
12.362664223,-4.274812,6.00169699999999,7.27171900000003,1.009731,0.04785946,0.007706382,-44.45782,-16.53656,-14.50794
12.372571945,-4.584502,5.419177,7.45580799999998,0.9637694,0.04386961,0.003303284,-44.45782,-16.53656,-14.50794
12.382480145,-4.150936,3.671618,7.88534800000001,1.015695,0.006279936,0.01601708,-44.45782,-16.53656,-14.50794
12.392387867,-2.540546,4.953161,8.43761400000001,1.041015,-0.02101298,0.02136298,-44.45782,-16.53656,-14.50794
12.402296543,0.742170199999999,5.593933,7.701259,0.9874456,-0.01938342,-0.00309897,-44.45782,-16.53656,-14.50794
12.412204743,4.644268,2.739586,5.86037199999999,0.9365205,0.006034883,-0.02790705,-44.45782,-16.53656,-14.50794
12.422112465,7.369542,-1.629311,4.817203,0.9713429,0.008963889,-0.014285,-45.13862,-17.29078,-15.72271
12.432020664,9.16574500000002,-4.716664,3.037678,0.9753171,0.02733366,-0.03436602,-45.13862,-17.29078,-15.72271
12.441928387,9.53737299999999,-7.221499,3.28313,1.021918,-0.004441601,-0.009560291,-45.13862,-17.29078,-15.72271
12.451836586,10.15675,-6.40597199999999,5.001291,1.070984,-0.04788267,0.003621118,-45.13862,-17.29078,-15.72271
12.461744785,10.96195,-3.202114,7.33308200000001,1.106423,-0.1077994,0.05139019,-45.13862,-17.29078,-15.72271
12.471652985,13.0059,2.040563,11.13758,1.070959,-0.06569614,0.02799075,-45.14209,-16.91461,-15.33839
12.481560707,16.84606,0.817271699999998,11.26031,0.9340478,0.005501891,-0.03124884,-45.14209,-16.91461,-15.33839
12.491468907,19.19971,-4.541909,9.66487199999998,0.9315107,0.05005307,-0.03573016,-45.14209,-16.91461,-15.33839
12.501376629,18.51839,-7.39625499999999,8.43761400000001,0.9948898,0.06782555,-0.03331695,-45.14209,-16.91461,-15.33839
12.511284828,16.84606,-6.52247499999999,7.88534800000001,1.058449,0.04154968,-0.01727428,-45.14209,-16.91461,-15.33839
12.521193504,15.42149,-3.668129,7.45580799999998,1.114904,-0.0003077104,0.003051721,-45.52743,-16.16702,-15.72422
12.531101227,15.6073,-0.639027300000002,8.37625100000002,1.139367,-0.02901365,0.01847946,-45.52743,-16.16702,-15.72422
12.541009426,16.53637,4.428894,11.99666,1.130177,-0.07589855,0.06866872,-45.52743,-16.16702,-15.72422
12.550917148,16.16475,11.30262,17.33524,1.134514,-0.1439122,0.1257945,-45.52743,-16.16702,-15.72422
12.560825348,16.96994,18.23461,23.10335,1.056373,-0.116072,0.07244475,-45.52743,-16.16702,-15.72422
12.57073307,23.72119,15.32201,21.13973,0.8724591,-0.0211127,-0.06014622,-46.27457,-16.16551,-15.33486
12.580641746,29.79111,6.584216,15.18753,0.8640249,0.05285742,-0.08070239,-46.27457,-16.16551,-15.33486
12.590549946,31.89701,0.351256,8.98988099999998,0.954132,0.1045394,-0.05478271,-46.27457,-16.16551,-15.33486
12.60293436,29.97693,-0.1147597,2.669501,1.072375,0.09256632,-0.03002746,-46.27457,-16.16551,-15.33486
12.612843037,26.26065,2.390074,1.074065,1.120505,0.05840314,-0.001890685,-46.27594,-16.16708,-15.72033
12.622751236,21.42948,6.05994799999998,2.730864,1.144808,0.02693525,0.04232963,-46.27594,-16.16708,-15.72033
12.632658958,16.47443,11.12787,5.92173499999998,1.129217,-0.02200344,0.08584218,-46.27594,-16.16708,-15.72033
12.642567158,12.44846,16.13754,10.2785,1.106725,-0.09324707,0.1455953,-46.27594,-16.16708,-15.72033
12.65247488,10.65226,24.93358,16.29206,1.085352,-0.164166,0.1717293,-46.27594,-16.16708,-15.72033
12.662383079,15.48343,30.00151,19.36021,0.9578533,-0.1652228,0.08743318,-45.91277,-15.41943,-16.11005
12.672291756,27.06584,26.7394,16.66024,0.8554052,-0.1164002,0.02484486,-45.91277,-15.41943,-16.11005
12.682199478,39.08183,19.92392,11.32167,0.8799905,-0.06383637,0.004320868,-45.91277,-15.41943,-16.11005
12.692107677,44.904,16.72006,5.308106,0.9688859,-0.0203325,0.04556233,-45.91277,-15.41943,-16.11005
12.7020154,44.904,18.81713,3.651307,1.062073,-0.02389924,0.06868467,-45.91277,-15.41943,-16.11005
12.711923599,41.74516,23.9433,6.84217800000002,1.119191,-0.05420119,0.07179582,-46.66266,-15.42106,-16.49163
12.721832275,36.1088,29.7685,14.5739,1.151598,-0.08518551,0.09625793,-46.66266,-15.42106,-16.49163
12.731739998,29.23367,35.53544,22.91926,1.141622,-0.07614176,0.08776758,-46.66266,-15.42106,-16.49163
12.741648197,23.72119,37.45776,28.07374,1.06307,-0.04241369,0.04886561,-46.66266,-15.42106,-16.49163
12.75155592,21.80111,33.67138,28.38056,0.9979731,-0.03619307,0.002453582,-46.66266,-15.42106,-16.49163
12.761464119,22.66824,27.67143,26.23286,0.9459127,-0.03110843,-0.01383662,-46.29415,-15.42756,-18.09969
12.771371841,25.64127,21.43847,21.87609,0.9446812,-0.05246772,-0.01588816,-46.29415,-15.42756,-18.09969
12.781280518,30.906,16.48705,19.36021,0.9753087,-0.05436486,0.01214529,-46.29415,-15.42756,-18.09969
12.791188717,35.61329,14.68124,16.72161,1.000893,-0.05786628,0.02340915,-46.29415,-15.42756,-18.09969
12.801096439,39.39151,12.23466,16.2307,1.003997,-0.02872091,0.02645556,-46.29415,-15.42756,-18.09969
12.811004639,40.87803,9.72982099999999,16.53752,1.009877,-0.01156818,0.04764242,-45.93581,-14.30532,-18.49057
12.820912361,40.5064,8.27352199999998,16.10798,1.014181,-0.01009992,0.03992986,-45.93581,-14.30532,-18.49057
12.83082056,38.46244,8.15701899999998,15.18753,1.033547,-0.01897479,0.05841781,-45.93581,-14.30532,-18.49057
12.840729237,35.48942,8.215271,14.38982,1.034351,-0.03051202,0.0756192,-45.93581,-14.30532,-18.49057
12.850636959,33.32159,7.92401099999998,14.69663,1.020218,-0.07822173,0.07207096,-45.93581,-14.30532,-18.49057
12.860545158,32.64027,7.10848400000002,15.37162,1.00192,-0.09635671,0.07836143,-46.68433,-14.30538,-18.48667
12.87293005,35.24166,5.76868899999999,14.94208,0.9924878,-0.1245911,0.07922088,-46.68433,-14.30538,-18.48667
12.882838249,38.46244,4.312389,14.14436,0.9944245,-0.1250643,0.07679903,-46.68433,-14.30538,-18.48667
12.892745972,43.29361,2.215319,13.03983,1.000131,-0.1236109,0.06283133,-46.68433,-14.30538,-18.48667
12.902654171,45.77113,0.700767799999999,12.91711,1.009294,-0.1216099,0.05267661,-46.68433,-14.30538,-18.48667
12.912561893,45.83307,-0.4642715,12.79438,1.007495,-0.1061912,0.03839121,-46.31492,-13.93075,-18.48977
12.92247057,42.3026,-1.920571,12.54893,1.001562,-0.05679125,0.0421363,-46.31492,-13.93075,-18.48977
12.932378769,35.86105,-3.318618,12.11939,1.008867,-0.007694343,0.04911803,-46.31492,-13.93075,-18.48977
12.942286491,27.56135,-3.842885,10.15578,1.037363,0.06101562,0.04739161,-46.31492,-13.93075,-18.48977
12.952194691,17.7132,-3.493374,6.84217800000002,1.054771,0.1277155,0.05871862,-46.31492,-13.93075,-18.48977
12.962102413,6.87403699999997,-2.561342,3.71267,1.043725,0.1659672,0.07540098,-46.68157,-14.30224,-17.71574
12.972010612,-2.726361,-1.745815,0.3377102,1.042961,0.1902084,0.07701001,-46.68157,-14.30224,-17.71574
12.981919289,-10.96412,-3.202114,-3.712242,1.031012,0.1482472,0.0547537,-46.68157,-14.30224,-17.71574
12.991827011,-18.087,-6.40597199999999,-6.71902399999997,1.032847,0.1026032,0.03714696,-46.68157,-14.30224,-17.71574
13.00173521,-23.35173,-9.085562,-8.43718500000001,1.034117,0.0400888,0.04007985,-46.68157,-14.30224,-17.71574
13.011642933,-26.8822,-9.72633399999999,-8.74399900000002,1.020261,-0.02259854,0.04603242,-47.42871,-14.30073,-17.32638
13.021551132,-27.81127,-9.60983000000002,-8.55991099999998,1.018695,-0.07924521,0.06535602,-47.42871,-14.30073,-17.32638
13.031458855,-26.3867,-8.73605099999999,-7.08720199999999,1.014762,-0.1122276,0.07237503,-47.42871,-14.30073,-17.32638
13.041367531,-23.72336,-7.33800299999997,-5.73721700000003,1.013358,-0.122457,0.06655796,-47.42871,-14.30073,-17.32638
13.05127573,-20.75033,-6.69723099999998,-3.773605,1.001432,-0.1051426,0.06822408,-47.42871,-14.30073,-17.32638
13.061183453,-18.39669,-6.05646000000001,-2.669072,1.00452,-0.07795674,0.06741632,-47.05445,-14.3007,-17.32832
13.071091652,-17.09599,-6.23121499999997,-2.116806,0.9984267,-0.06644045,0.05890656,-47.05445,-14.3007,-17.32832
13.080999374,-16.53855,-7.27975100000002,-1.56454,0.9929748,-0.07142396,0.0459595,-47.05445,-14.3007,-17.32832
13.090908051,-16.66242,-7.97877500000003,-1.135,0.9902301,-0.0806307,0.05360608,-47.05445,-14.3007,-17.32832
13.10081625,-15.79529,-8.38653900000002,-0.3986447,0.9885703,-0.09757434,0.06263155,-47.05445,-14.3007,-17.32832
13.110723972,-12.94614,-8.38653900000002,1.012702,1.001718,-0.1249936,0.07289077,-46.31078,-13.92604,-17.33337
13.120632172,-8.79629,-7.39625499999999,2.178597,1.017622,-0.1353959,0.08563866,-46.31078,-13.92604,-17.33337
13.130539894,-4.150936,-5.706948,2.23996,1.026099,-0.1120395,0.08139443,-46.31078,-13.92604,-17.33337
13.142925262,-0.806281,-3.551625,2.669501,1.018857,-0.08452697,0.07492249,-46.31078,-13.92604,-17.33337
13.152833462,-0.3107767,-2.969106,2.914952,1.00421,-0.05567921,0.06324618,-46.31078,-13.92604,-17.33337
13.162741184,-1.549538,-3.784633,1.994509,1.009315,-0.03819298,0.0570734,-46.69474,-13.17688,-17.33373
13.17264986,-4.33675,-5.299184,2.301323,1.01361,-0.03136396,0.05467839,-46.69474,-13.17688,-17.33373
13.182557583,-7.24783800000001,-6.34771999999997,2.424049,1.015077,-0.03427235,0.05128434,-46.69474,-13.17688,-17.33373
13.192465782,-9.16791799999997,-6.87198700000002,1.994509,1.017126,-0.03761358,0.05652486,-46.69474,-13.17688,-17.33373
13.202373505,-9.97311299999999,-6.75548299999999,1.319517,1.0237,-0.04961623,0.06358647,-46.69474,-13.17688,-17.33373
13.212281704,-9.84923700000002,-5.88170400000003,0.583161800000002,1.0308,-0.0611051,0.07496807,-46.68504,-13.92607,-17.33142
13.222189903,-9.53954700000003,-4.658412,0.0922585699999997,1.027427,-0.05819554,0.08318135,-46.68504,-13.92607,-17.33142
13.232098103,-9.911175,-2.910854,0.2763473,1.021577,-0.05679619,0.08660587,-46.68504,-13.92607,-17.33142
13.242006302,-9.97311299999999,-1.396303,0.5217989,1.019189,-0.0606998,0.08756227,-46.68504,-13.92607,-17.33142
13.251914024,-8.85822799999998,-0.2895156,0.6445247,1.018647,-0.06658709,0.0755241,-46.68504,-13.92607,-17.33142
13.261822224,-8.11497100000001,0.293004,0.583161800000002,1.013674,-0.07156962,0.06161231,-47.07143,-12.86292,-16.88303
13.271729946,-8.053034,0.933775699999999,0.583161800000002,1.003357,-0.06782136,0.06125254,-47.07143,-12.86292,-16.88303
13.281638622,-8.79629,1.924059,0.889976299999999,1.007275,-0.06337907,0.0670078,-47.07143,-12.86292,-16.88303
13.291546822,-9.41567000000003,3.43861,1.135428,1.017764,-0.03606649,0.07285465,-47.07143,-12.86292,-16.88303
13.301454544,-10.15893,4.836657,0.03089567,1.021074,-0.02827749,0.0709553,-47.07143,-12.86292,-16.88303
13.311362743,-10.84025,5.76868899999999,-1.012274,1.021335,-0.01326832,0.0662513,-47.07927,-12.49172,-17.71937
13.321270466,-12.32676,6.99197999999999,-2.116806,1.022006,0.007072004,0.06013854,-47.07927,-12.49172,-17.71937
13.331179142,-15.05203,7.34149200000003,-4.019056,1.013838,0.0189902,0.04060698,-47.07927,-12.49172,-17.71937
13.341087341,-18.89219,5.186169,-5.79858000000001,1.003914,0.02171891,0.02967331,-47.07927,-12.49172,-17.71937
13.350995064,-22.9801,3.263854,-6.71902399999997,1.014757,0.01116668,0.02566146,-47.07927,-12.49172,-17.71937
13.360903263,-27.25383,2.331823,-7.70083,1.016581,-0.01009249,0.03558629,-46.69531,-13.24089,-17.71901
13.370810986,-30.72236,1.399791,-8.92808800000003,1.015674,-0.02177533,0.02879464,-46.69531,-13.24089,-17.71901
13.380719185,-33.57151,0.1182482,-9.48035400000003,1.019003,-0.04543515,0.03964986,-46.69531,-13.24089,-17.71901
13.390627861,-35.73934,-0.1730116,-9.66444299999998,1.04133,-0.07182039,0.04022791,-46.69531,-13.24089,-17.71901
13.400535584,-36.54454,0.001744238,-9.54171799999998,1.037582,-0.09129636,0.03341061,-46.69531,-13.24089,-17.71901
13.412920952,-36.04903,-1.221547,-9.35762899999997,1.031312,-0.1084042,0.02183083,-46.70154,-12.86786,-18.10563
13.422829151,-34.93415,-2.270082,-8.92808800000003,1.031443,-0.1073607,0.03576116,-46.70154,-12.86786,-18.10563
13.432736874,-33.63345,-2.736098,-8.25309699999997,1.038453,-0.1071891,0.05202285,-46.70154,-12.86786,-18.10563
13.442645073,-32.76632,-3.143862,-7.63946799999999,1.032321,-0.1169078,0.06257828,-46.70154,-12.86786,-18.10563
13.452552796,-30.84624,-3.493374,-7.394016,1.024761,-0.1339422,0.06829663,-46.70154,-12.86786,-18.10563
13.462460995,-27.62546,-3.37687,-7.02583799999998,1.01462,-0.1383946,0.07556313,-46.33213,-12.49323,-18.10873
13.472369671,-23.97111,-3.318618,-6.596298,1.019069,-0.1407537,0.0774269,-46.33213,-12.49323,-18.10873
13.482277393,-20.37871,-2.910854,-5.98266900000002,1.029392,-0.1371817,0.08695839,-46.33213,-12.49323,-18.10873
13.492185593,-16.66242,-1.512807,-5.553129,1.042645,-0.1233314,0.1080551,-46.33213,-12.49323,-18.10873
13.502093315,-13.19389,0.700767799999999,-5.36904,1.050812,-0.1115957,0.1075775,-46.33213,-12.49323,-18.10873
13.512001515,-10.46862,3.089098,-4.632685,1.041892,-0.1078649,0.1004825,-45.95302,-12.8678,-18.10952
13.521910191,-8.300786,4.079382,-3.773605,1.019099,-0.09903509,0.08154581,-45.95302,-12.8678,-18.10952
13.531817913,-7.12396199999998,4.60365,-2.791798,1.012163,-0.09429001,0.07828047,-45.95302,-12.8678,-18.10952
13.541726112,-6.25683000000001,5.477429,-2.484983,1.018791,-0.08602467,0.06675044,-45.95302,-12.8678,-18.10952
13.551633835,-5.575511,6.00169699999999,-2.423621,1.022032,-0.07046624,0.06730426,-45.95302,-12.8678,-18.10952
13.561542034,-5.575511,6.52596399999999,-2.423621,1.025395,-0.06216187,0.07116976,-46.32381,-13.24399,-18.49189
13.571450233,-5.947139,6.93372799999998,-2.178169,1.035804,-0.07025289,0.07534101,-46.32381,-13.24399,-18.49189
13.581358433,-6.194891,7.92401099999998,-1.56454,1.036372,-0.07849849,0.0733602,-46.32381,-13.24399,-18.49189
13.591266155,-5.575511,8.39002600000001,-1.135,1.022184,-0.08355819,0.06673548,-46.32381,-13.24399,-18.49189
13.601174354,-4.708378,7.63275100000002,-0.5213705,1.018316,-0.08553576,0.06867872,-46.32381,-13.24399,-18.49189
13.611082077,-3.779308,6.99197999999999,-0.1531931,1.016261,-0.07975782,0.06585526,-46.32519,-13.24556,-18.87736
13.620990753,-3.283803,6.17645200000001,-0.2759189,1.013304,-0.07444115,0.0697593,-46.32519,-13.24556,-18.87736
13.630898952,-2.726361,5.477429,-0.644096300000003,1.005229,-0.06247455,0.05935021,-46.32519,-13.24556,-18.87736
13.640806675,-2.726361,4.254138,-0.828185100000001,1.00367,-0.05180948,0.0627968,-46.32519,-13.24556,-18.87736
13.650714874,-3.345741,3.555114,-0.5213705,1.009513,-0.04687084,0.06613678,-46.32519,-13.24556,-18.87736
13.660622597,-4.088998,3.322106,-0.705459200000001,1.014405,-0.04095438,0.07333332,-46.33303,-12.87436,-19.71369
13.673007965,-4.770316,3.089098,-1.073637,1.018885,-0.04183365,0.08000824,-46.33303,-12.87436,-19.71369
13.682916164,-5.389697,3.089098,-1.012274,1.027722,-0.04902172,0.07507703,-46.33303,-12.87436,-19.71369
13.692823887,-5.327759,3.43861,-1.257725,1.025797,-0.04415222,0.08377013,-46.33303,-12.87436,-19.71369
13.702732563,-5.575511,2.914342,-1.56454,1.004108,-0.04012252,0.07151345,-46.33303,-12.87436,-19.71369
13.712640762,-6.25683000000001,1.749303,-1.809992,0.9916396,-0.04479288,0.042308,-45.95877,-12.87433,-19.71564
13.722548485,-6.814272,-0.1730116,-1.99408,0.9839919,-0.05699458,0.04517838,-45.95877,-12.87433,-19.71564
13.732456684,-7.74334299999998,-1.629311,-2.239532,1.004754,-0.06442487,0.05838131,-45.95877,-12.87433,-19.71564
13.74236536,-7.681405,-1.629311,-2.484983,1.019558,-0.07002455,0.06492931,-45.95877,-12.87433,-19.71564
13.752273083,-7.309776,-1.978823,-2.914524,1.019019,-0.06127632,0.07027431,-45.95877,-12.87433,-19.71564
13.762181282,-6.814272,-2.270082,-3.344064,1.020379,-0.05155715,0.0712868,-46.33788,-12.49977,-19.71484
13.772089004,-6.44264400000003,-2.561342,-3.405427,1.026209,-0.04760084,0.07221955,-46.33788,-12.49977,-19.71484
13.781997204,-7.12396199999998,-1.629311,-3.589516,1.040684,-0.06044025,0.08592473,-46.33788,-12.49977,-19.71484
13.791904926,-6.93814800000003,-1.396303,-3.405427,1.016393,-0.05066926,0.06508752,-46.33788,-12.49977,-19.71484
13.801813602,-7.00008600000001,-2.153579,-2.607709,0.9967749,-0.05094529,0.05902506,-46.33788,-12.49977,-19.71484
13.811721802,-7.681405,-3.027358,-2.055443,1.000215,-0.04991791,0.06188104,-46.32276,-13.55955,-19.32611
13.821629524,-8.48660000000001,-2.852602,-2.730435,0.9981091,-0.04026418,0.05860372,-46.32276,-13.55955,-19.32611
13.831537724,-9.22985600000001,-3.726381,-3.405427,0.9837077,-0.03031314,0.04871987,-46.32276,-13.55955,-19.32611
13.841445446,-9.60148500000001,-5.357436,-4.878137,0.989624,-0.03606797,0.04670618,-46.32276,-13.55955,-19.32611
13.851354122,-10.15893,-5.415688,-5.062225,1.03275,-0.04742508,0.09040624,-46.32276,-13.55955,-19.32611
13.861262321,-11.14994,-3.551625,-4.694048,1.047407,-0.06090627,0.07337534,-45.95739,-12.87277,-19.33017
13.871170044,-10.77831,-2.852602,-3.957693,1.037796,-0.07411204,0.07433657,-45.95739,-12.87277,-19.33017
13.881078243,-9.97311299999999,-1.862319,-2.669072,1.036494,-0.08380064,0.07908564,-45.95739,-12.87277,-19.33017
13.890985966,-8.48660000000001,-1.512807,-1.809992,1.009418,-0.07740358,0.06881519,-45.95739,-12.87277,-19.33017
13.900894642,-6.62845799999998,-2.619594,-2.116806,0.9998255,-0.05084771,0.07052129,-45.95739,-12.87277,-19.33017
13.910802364,-5.76132499999998,-2.910854,-3.46679,1.016466,-0.03160692,0.09450348,-45.95254,-13.24736,-19.32902
13.920710564,-6.56652,-1.512807,-4.571322,1.031025,-0.02367571,0.0929812,-45.95254,-13.24736,-19.32902
13.930618763,-8.11497100000001,-0.1730116,-5.062225,1.050266,-0.03115224,0.1009161,-45.95254,-13.24736,-19.32902
13.943003654,-10.59249,2.739586,-4.509959,1.047346,-0.04386463,0.08741402,-45.95254,-13.24736,-19.32902
13.952911854,-11.27381,3.263854,-3.650879,1.013492,-0.05507903,0.06316432,-45.57668,-13.2455,-18.88125
13.962819576,-10.46862,1.458043,-3.589516,0.9789625,-0.05517729,0.03371321,-45.57668,-13.2455,-18.88125
13.972728252,-9.97311299999999,-0.6972793,-4.448596,1.009454,-0.04153557,0.06665301,-45.57668,-13.2455,-18.88125
13.982636452,-11.088,0.5260119,-5.123589,1.047161,-0.03079051,0.08462188,-45.57668,-13.2455,-18.88125
13.992544174,-12.94614,0.875523700000001,-4.448596,1.036762,-0.03635268,0.06547467,-45.57668,-13.2455,-18.88125
14.002452374,-14.43265,0.409508,-3.712242,1.014374,-0.06389762,0.04341094,-45.94689,-13.55769,-18.87834
14.012360096,-14.37072,-1.338051,-4.019056,0.9918007,-0.04714806,0.05525509,-45.94689,-13.55769,-18.87834
14.022268772,-14.12296,-1.454555,-5.062225,1.016827,-0.03947219,0.07284063,-45.94689,-13.55769,-18.87834
14.032176971,-14.55653,-0.988539100000001,-4.816774,1.008395,-0.04256571,0.05753294,-45.94689,-13.55769,-18.87834
14.042084694,-14.37072,-2.50309,-5.123589,0.9970353,-0.03593612,0.05432105,-45.94689,-13.55769,-18.87834
14.051992893,-14.92816,-1.978823,-5.36904,1.047462,-0.05356049,0.08734836,-45.57909,-13.1849,-19.33115
14.061900616,-14.80428,0.351256,-5.062225,1.050343,-0.05403943,0.08155663,-45.57909,-13.1849,-19.33115
14.071809292,-13.75133,1.865807,-5.491766,1.02859,-0.04223775,0.07223327,-45.57909,-13.1849,-19.33115
14.081717491,-12.57451,1.05028,-5.491766,1.002942,-0.02852511,0.06679991,-45.57909,-13.1849,-19.33115
14.091625214,-13.31777,0.759019800000003,-6.35084600000001,1.02457,-0.02575752,0.08102307,-45.57909,-13.1849,-19.33115
14.101533413,-13.87521,1.691051,-6.22812100000001,1.032595,-0.02482738,0.0540662,-45.57668,-13.2455,-18.88125
14.111441135,-13.13195,0.0599961999999999,-7.02583799999998,0.9971934,-0.02390704,0.03615372,-45.57668,-13.2455,-18.88125
14.121349812,-12.69839,-1.221547,-7.51674200000002,0.9987814,-0.02333779,0.04862694,-45.57668,-13.2455,-18.88125
14.131258011,-13.62746,-0.6972793,-8.00764499999998,1.028229,-0.02486419,0.05746743,-45.57668,-13.2455,-18.88125
14.141165733,-13.56552,-2.50309,-8.37582199999997,0.9925407,-0.008971335,0.02909388,-45.57668,-13.2455,-18.88125
14.151073933,-14.43265,-4.774917,-8.92808800000003,0.988177,-0.009982836,0.03152828,-44.894,-12.86928,-18.5005
14.160981655,-15.11397,-7.74576700000002,-10.09398,0.9976417,-0.03123911,0.02361661,-44.894,-12.86928,-18.5005
14.170890331,-16.29079,-9.78458600000001,-10.46216,0.9995933,-0.02633886,0.02891295,-44.894,-12.86928,-18.5005
14.180798531,-15.79529,-12.63893,-9.60308100000002,1.005487,-0.03600771,0.02015118,-44.894,-12.86928,-18.5005
14.190706253,-14.30878,-13.51271,-9.35762899999997,1.010282,-0.04306443,0.05030978,-44.894,-12.86928,-18.5005
14.200614452,-12.07901,-12.75544,-9.90989499999997,0.9914376,-0.04148342,0.02648669,-44.51352,-13.24228,-18.11583
14.210522175,-7.12396199999998,-15.31852,-10.64625,0.9954,-0.04823723,0.0235241,-44.51352,-13.24228,-18.11583
14.222907543,-2.850237,-15.20202,-10.46216,1.025851,-0.0365678,0.05020909,-44.51352,-13.24228,-18.11583
14.232815266,-1.673414,-13.10495,-9.60308100000002,1.042066,-0.03583676,0.05870685,-44.51352,-13.24228,-18.11583
14.242723942,-1.549538,-10.83312,-7.45537899999998,1.043004,-0.0329184,0.05823746,-44.51352,-13.24228,-18.11583
14.252632141,-1.859228,-9.14381400000001,-6.10539499999999,1.020004,-0.03419124,0.05508057,-44.13926,-13.24225,-18.11777
14.262539864,-2.045042,-8.095279,-5.062225,1.016498,-0.02013143,0.06336936,-44.13926,-13.24225,-18.11777
14.272448063,-2.912175,-6.63897900000002,-3.46679,1.017418,-0.02600305,0.05083762,-44.13926,-13.24225,-18.11777
14.282355785,-2.788299,-5.240932,-2.116806,1.010045,-0.02318793,0.0504444,-44.13926,-13.24225,-18.11777
14.292264462,-2.540546,-4.308901,-1.073637,1.010058,-0.02513219,0.04947101,-44.13926,-13.24225,-18.11777
14.302172661,-2.045042,-3.551625,0.1536215,1.006164,-0.03151366,0.04370261,-43.00808,-13.54935,-16.902
14.312080383,-1.549538,-2.386586,1.564968,1.024066,-0.04430801,0.05785656,-43.00808,-13.54935,-16.902
14.321988583,-0.9301572,-0.580775400000001,3.160404,1.008864,-0.04256983,0.05560794,-43.00808,-13.54935,-16.902
14.331896305,-0.3727147,0.351256,4.449025,1.007841,-0.04211757,0.05177915,-43.00808,-13.54935,-16.902
14.341804981,0.3086039,1.749303,5.79900900000001,1.033375,-0.04174319,0.06258914,-43.00808,-13.54935,-16.902
14.351713181,1.299613,4.894909,7.08763000000002,1.040607,-0.02950935,0.06692518,-43.00808,-13.54935,-16.902
14.361620903,2.848064,6.40946000000002,7.45580799999998,1.007981,-0.01741509,0.04666068,-43.00808,-13.54935,-16.902
14.371529102,3.777135,6.584216,6.53536400000002,1.028932,-0.005970608,0.05278522,-43.00808,-13.54935,-16.902
14.381436825,4.768144,8.04051500000001,6.10582399999999,1.050781,0.001541432,0.04639114,-43.00808,-13.54935,-16.902
14.391345501,5.449462,8.97254599999999,5.430832,1.039423,0.002317842,0.03641804,-43.00808,-13.54935,-16.902
14.4012537,5.387524,8.97254599999999,4.264936,1.049011,0.01209693,0.02919214,-43.75821,-13.55124,-17.34782
14.411161423,4.706205,8.97254599999999,3.896759,1.047322,-0.002422734,0.03823404,-43.75821,-13.55124,-17.34782
14.421069622,3.839073,9.14730199999998,3.896759,1.040509,-0.01127224,0.03103572,-43.75821,-13.55124,-17.34782
14.430977345,3.405506,8.39002600000001,3.71267,1.015427,-0.007269764,0.02169118,-43.75821,-13.55124,-17.34782
14.440886021,3.467444,6.00169699999999,3.344493,0.9840577,-0.008676404,0.01284891,-43.75821,-13.55124,-17.34782
14.45079422,2.786126,3.671618,3.467218,1.016999,-0.03231398,0.05031929,-44.13926,-13.24225,-18.11777
14.460701943,1.918993,5.652184,4.878565,1.058911,-0.0718506,0.08568015,-44.13926,-13.24225,-18.11777
14.470610142,3.715197,7.63275100000002,4.817203,0.9699466,-0.03881383,0.03198497,-44.13926,-13.24225,-18.11777
14.480518818,5.75915199999997,2.273571,2.23996,0.8992301,0.008677333,0.01038792,-44.13926,-13.24225,-18.11777
14.492903233,4.706205,-4.716664,-0.3986447,0.9481123,0.03025808,0.03408753,-44.13926,-13.24225,-18.11777
14.502811909,2.538374,-7.862271,-1.748629,0.9499272,0.03216039,0.02255962,-44.51837,-12.86768,-18.11698
14.512719631,0.2466658,-10.71662,-2.669072,0.9968193,0.003703219,0.03201969,-44.51837,-12.86768,-18.11698
14.522627831,-1.054033,-10.77487,-1.871354,1.049384,-0.03331406,0.06009644,-44.51837,-12.86768,-18.11698
14.532535553,-1.549538,-7.62926299999999,-0.3372818,1.118493,-0.0913803,0.103245,-44.51837,-12.86768,-18.11698
14.542443752,0.618294100000002,-1.338051,2.117234,1.09613,-0.1062289,0.09855134,-44.51837,-12.86768,-18.11698
14.552352428,5.015896,0.1182482,2.055871,0.9682094,-0.05091972,0.03912276,-45.56988,-13.55453,-18.10935
14.562260151,7.98892199999997,-4.600161,1.012702,0.9277338,-0.02381505,0.03391576,-45.56988,-13.55453,-18.10935
14.57216835,9.10380600000001,-8.85255399999999,-0.3986447,0.9539993,-0.006971054,0.04002712,-45.56988,-13.55453,-18.10935
14.582076073,9.90900100000002,-9.26031799999999,-0.950910899999997,1.038098,-0.02908549,0.06118931,-45.56988,-13.55453,-18.10935
14.591984272,10.65226,-7.27975100000002,-0.4600076,1.087333,-0.04732146,0.07261644,-45.56988,-13.55453,-18.10935
14.601892948,10.65226,-2.444838,1.687694,1.118517,-0.07307949,0.07935882,-45.25937,-13.55607,-18.49644
14.611800671,11.7052,0.9920276,4.080848,1.052924,-0.05711303,0.04357978,-45.25937,-13.55607,-18.49644
14.62170887,12.69621,0.700767799999999,4.571751,1.013699,-0.04009788,0.0531789,-45.25937,-13.55607,-18.49644
14.631616592,11.58133,2.215319,5.73764600000002,1.057879,-0.05286665,0.1026217,-45.25937,-13.55607,-18.49644
14.641525268,9.53737299999999,7.05023200000001,7.026268,1.064266,-0.05911294,0.09819961,-45.25937,-13.55607,-18.49644
14.651433468,9.59931099999998,8.15701899999998,6.71945300000003,1.004421,-0.04606135,0.04746307,-45.55671,-14.67988,-18.49136
14.66134119,10.90001,4.661901,4.633114,0.9652677,-0.02828202,0.0172135,-45.55671,-14.67988,-18.49136
14.67124939,12.13877,0.46776,3.344493,0.9813614,-0.02566276,0.01612179,-45.55671,-14.67988,-18.49136
14.681157112,13.62528,-2.444838,1.012702,0.9948987,-0.0206932,0.006906699,-45.55671,-14.67988,-18.49136
14.691065788,14.36854,-4.017641,-0.3372818,1.024852,-0.01244889,0.02877188,-45.55671,-14.67988,-18.49136
14.700973988,13.93497,-2.444838,-0.644096300000003,1.074591,-0.01506095,0.05998493,-45.57125,-13.55609,-18.49482
14.71088171,11.39551,2.390074,0.460436,1.114362,-0.0332553,0.10223,-45.57125,-13.55609,-18.49482
14.720789909,7.49341799999997,8.39002600000001,3.774033,1.092011,-0.0334633,0.1158798,-45.57125,-13.55609,-18.49482
14.730698585,4.334577,10.54535,5.92173499999998,1.015691,0.006038761,0.06307101,-45.57125,-13.55609,-18.49482
14.740606308,2.786126,7.45799500000003,5.18538,0.9566831,0.03756539,0.02013236,-45.57125,-13.55609,-18.49482
14.752991676,1.980931,2.739586,2.117234,0.9664136,0.03912593,0.01717182,-46.30821,-14.68334,-19.32265
14.762899399,2.042869,1.516295,-0.4600076,1.026716,0.0002105921,0.03460088,-46.30821,-14.68334,-19.32265
14.772807598,3.467444,1.865807,-2.300895,1.071505,-0.04858728,0.05354806,-46.30821,-14.68334,-19.32265
14.782715321,6.62628499999997,3.496862,-2.730435,1.101547,-0.09370683,0.06929502,-46.30821,-14.68334,-19.32265
14.79262352,11.02389,6.29295599999999,-1.871354,1.107485,-0.1240801,0.08824408,-46.30821,-14.68334,-19.32265
14.802532196,14.55436,9.38030999999998,-0.582733500000001,1.103739,-0.164522,0.1523505,-45.57562,-13.56106,-19.71547
14.812439918,16.28862,17.12782,3.160404,1.120963,-0.1437621,0.1873811,-45.57562,-13.56106,-19.71547
14.822348118,18.89002,21.96273,3.896759,1.022583,-0.09480947,0.1401211,-45.57562,-13.56106,-19.71547
14.83225584,22.6063,18.17636,2.914952,0.9410123,-0.0340933,0.07693873,-45.57562,-13.56106,-19.71547
14.84216404,25.26964,11.9434,-0.214556,0.9403911,0.03948154,0.05486719,-45.57562,-13.56106,-19.71547
14.852072716,24.95995,7.69100299999997,-4.755411,0.966507,0.08917014,0.03719084,-45.57424,-13.55949,-19.33
14.861980438,22.23467,5.477429,-8.55991099999998,1.005089,0.08621555,0.0291318,-45.57424,-13.55949,-19.33
14.871888638,17.03188,4.953161,-10.4008,1.027737,0.06072443,0.01434778,-45.57424,-13.55949,-19.33
14.88179636,10.28063,4.254138,-10.03262,1.027196,0.0228908,0.01266026,-45.57424,-13.55949,-19.33
14.891705036,4.334577,2.390074,-8.31446000000002,0.9999076,-0.006671876,-0.0127327,-45.57424,-13.55949,-19.33
14.901613235,0.804108299999999,-0.580775400000001,-6.90311299999998,0.9703248,-0.03521125,-0.02225241,-45.57077,-13.93566,-19.71431
14.911520958,-0.4965908,-4.017641,-5.675855,0.9564545,-0.06108138,-0.02229648,-45.57077,-13.93566,-19.71431
14.921429157,-0.3727147,-7.862271,-4.509959,0.9468469,-0.07623651,-0.02326891,-45.57077,-13.93566,-19.71431
14.93133688,1.175737,-11.88166,-3.221339,0.9567795,-0.07798543,-0.01040814,-45.57077,-13.93566,-19.71431
14.941245556,3.653259,-13.92048,-1.871354,0.9957483,-0.07781214,0.0228437,-45.57077,-13.93566,-19.71431
14.951153755,6.31659499999999,-13.68747,-1.073637,1.026213,-0.05784264,0.06062748,-45.25889,-13.93563,-19.71593
14.961061478,8.42248799999999,-12.17292,-0.766822200000002,1.035881,-0.02216824,0.09150586,-45.25889,-13.93563,-19.71593
14.970969677,9.35155899999998,-10.77487,-0.766822200000002,1.031583,0.004411114,0.08500046,-45.25889,-13.93563,-19.71593
14.980878353,9.72318700000001,-9.90108999999998,-1.56454,1.026019,0.01253993,0.07646324,-45.25889,-13.93563,-19.71593
14.990786076,8.85605400000001,-9.90108999999998,-1.319088,1.014835,0.006577653,0.07556662,-45.25889,-13.93563,-19.71593
15.000694275,8.05085899999999,-9.72633399999999,-1.135,1.01493,-0.01873859,0.05523045,-45.9388,-14.30871,-19.32575
15.010601997,8.17473599999999,-10.2506,-0.2759189,1.00398,-0.0533597,0.04357727,-45.9388,-14.30871,-19.32575
15.022987366,9.84706299999998,-11.64865,0.889976299999999,0.9960648,-0.09813522,0.02990775,-45.9388,-14.30871,-19.32575
15.032895565,12.44846,-13.68747,2.23996,0.9942319,-0.1141933,0.0230955,-45.9388,-14.30871,-19.32575
15.042803288,15.73118,-15.31852,3.160404,0.9962123,-0.1170829,0.02209762,-45.9388,-14.30871,-19.32575
15.052711964,19.44746,-15.95929,4.387662,1.001536,-0.09850734,0.03849752,-45.93234,-14.68148,-18.87488
15.062619686,22.48243,-15.60978,5.308106,1.012101,-0.06920465,0.05396009,-45.93234,-14.68148,-18.87488
15.072527885,24.52638,-14.44474,6.84217800000002,1.019539,-0.02833138,0.06424692,-45.93234,-14.68148,-18.87488
15.082435608,25.2077,-12.75544,8.00807399999998,1.019633,0.005127948,0.06494912,-45.93234,-14.68148,-18.87488
15.092344284,24.09282,-10.65837,8.31488799999999,1.019075,0.05069083,0.06381734,-45.93234,-14.68148,-18.87488
15.102252483,21.42948,-8.27003499999999,7.148993,1.025527,0.09057218,0.07218605,-45.92198,-15.0498,-17.33186
15.112160206,17.7132,-5.47394,5.062654,1.025528,0.1132514,0.05121017,-45.92198,-15.0498,-17.33186
15.122068405,13.12978,-3.609878,2.055871,1.037938,0.122521,0.03243098,-45.92198,-15.0498,-17.33186
15.131976128,6.56434699999999,-2.50309,0.2763473,1.038784,0.1063668,0.0006251009,-45.92198,-15.0498,-17.33186
15.141884804,-0.06302445,-1.396303,-1.319088,1.031669,0.06443831,-0.02695745,-45.92198,-15.0498,-17.33186
15.151793003,-6.07101500000003,-1.571059,-1.748629,1.008556,0.03262256,-0.02935644,-46.68019,-14.30067,-17.33027
15.161700726,-10.59249,-3.435122,-2.178169,0.9957376,0.006315447,-0.02269094,-46.68019,-14.30067,-17.33027
15.171608925,-13.07002,-6.34771999999997,-3.098613,1.008923,-0.02010874,-0.007623856,-46.68019,-14.30067,-17.33027
15.181517601,-13.50358,-8.38653900000002,-4.325871,1.034702,-0.02789941,0.01753422,-46.68019,-14.30067,-17.33027
15.191425324,-11.14994,-8.38653900000002,-5.73721700000003,1.051978,-0.03247875,0.02790742,-46.68019,-14.30067,-17.33027
15.201333523,-7.61946700000001,-8.15353100000001,-7.45537899999998,1.057247,-0.02417556,0.02695369,-46.65781,-15.79565,-16.49047
15.211241245,-4.088998,-8.96905800000002,-8.80536299999997,1.054981,-0.01216666,0.01072928,-46.65781,-15.79565,-16.49047
15.221149445,-1.301785,-10.2506,-9.48035400000003,1.051737,-0.00309649,-0.008866785,-46.65781,-15.79565,-16.49047
15.231058121,-1.549538,-11.8234,-9.54171799999998,1.053618,0.002742765,-0.009325437,-46.65781,-15.79565,-16.49047
15.240965843,-3.593493,-12.63893,-8.80536299999997,1.052527,0.002672018,-0.02035946,-46.65781,-15.79565,-16.49047
15.250874043,-5.947139,-12.58068,-8.31446000000002,1.055125,-0.0006325672,-0.009361862,-46.29463,-15.048,-16.8802
15.260781765,-8.11497100000001,-10.89137,-7.394016,1.049393,-0.007464511,-0.00407263,-46.29463,-15.048,-16.8802
15.270690441,-9.41567000000003,-8.91080699999998,-6.22812100000001,1.034268,-0.01592991,-0.01071136,-46.29463,-15.048,-16.8802
15.280598641,-9.78729900000003,-7.68751500000001,-4.264508,1.011444,-0.03223387,-0.01445016,-46.29463,-15.048,-16.8802
15.292983532,-9.41567000000003,-7.221499,-1.687266,0.9938996,-0.03583839,-0.01287145,-47.03554,-15.41952,-16.10421
15.302891731,-8.98210400000001,-6.58072700000001,-0.582733500000001,0.9980096,-0.03471067,0.00774486,-47.03554,-15.41952,-16.10421
15.312799454,-7.681405,-5.18268,-0.2759189,1.016411,-0.03724951,0.03492678,-47.03554,-15.41952,-16.10421
15.322707653,-5.699387,-3.551625,-0.5213705,1.025764,-0.03466176,0.04398053,-47.03554,-15.41952,-16.10421
15.332616329,-2.912175,-2.270082,-1.012274,1.034507,-0.03604505,0.03668808,-47.03554,-15.41952,-16.10421
15.342524052,0.804108299999999,-1.571059,-0.950910899999997,1.039016,-0.06081165,0.01823537,-46.66128,-15.41949,-16.10616
15.352432251,4.458453,-1.279799,-0.5213705,1.028894,-0.08037675,0.009555802,-46.66128,-15.41949,-16.10616
15.362339974,7.30760400000002,-1.163295,0.951339199999998,1.034325,-0.08808702,0.005612942,-46.66128,-15.41949,-16.10616
15.37224865,8.85605400000001,-0.1730116,3.221767,1.023457,-0.07754753,0.007224137,-46.66128,-15.41949,-16.10616
15.382156849,10.03288,1.166783,5.001291,1.024202,-0.05229049,0.01410772,-46.66128,-15.41949,-16.10616
15.392064571,11.27164,2.098815,5.92173499999998,1.019774,-0.01358366,0.0091248,-46.2981,-14.67184,-16.49588
15.401972771,12.13877,2.797838,5.001291,1.020671,0.03004044,0.004605548,-46.2981,-14.67184,-16.49588
15.411880493,11.45745,2.331823,3.099041,1.011445,0.05946528,-0.002315471,-46.2981,-14.67184,-16.49588
15.421789169,9.53737299999999,1.865807,1.38088,1.019037,0.07554022,-0.006119855,-46.2981,-14.67184,-16.49588
15.431697369,6.254657,1.166783,-0.09183015,1.018507,0.07112261,-0.01526739,-46.2981,-14.67184,-16.49588
15.441605091,2.724188,0.46776,-1.319088,1.019578,0.05996413,-0.01919291,-46.6599,-15.41792,-15.72069
15.451513291,-0.4346527,0.700767799999999,-1.871354,1.020901,0.03478998,-0.01505143,-46.6599,-15.41792,-15.72069
15.461421967,-2.478608,0.5260119,-1.809992,1.024276,0.01066575,-0.0003584456,-46.6599,-15.41792,-15.72069
15.471329689,-2.726361,1.05028,-1.380451,1.027128,-0.01153047,0.01339189,-46.6599,-15.41792,-15.72069
15.481237888,-1.673414,1.982311,-1.135,1.027228,-0.02074663,0.01236925,-46.6599,-15.41792,-15.72069
15.491145611,0.2466658,2.797838,-1.319088,1.027757,-0.02120752,0.0157224,-46.29049,-15.0433,-15.72379
15.501054287,2.476436,3.43861,-1.196362,1.026187,-0.01835265,0.009033718,-46.29049,-15.0433,-15.72379
15.510962486,4.024887,4.02113,-0.5213705,1.017392,-0.01797206,0.01007791,-46.29049,-15.0433,-15.72379
15.520870209,4.768144,4.487145,0.3990731,1.008963,-0.01228326,0.005392184,-46.29049,-15.0433,-15.72379
15.530778408,4.396515,4.836657,1.503605,1.004917,-0.0002069247,0.006470369,-46.29049,-15.0433,-15.72379
15.540686131,3.095816,4.778405,1.933146,1.007684,0.01047457,0.002674677,-47.03554,-15.41952,-16.10421
15.550594807,2.042869,5.419177,1.994509,1.017191,0.03484586,0.004669745,-47.03554,-15.41952,-16.10421
15.562980175,-0.3107767,6.40946000000002,0.705887599999999,1.018856,0.05715788,0.002402202,-47.03554,-15.41952,-16.10421
15.572887897,-2.41667,6.87547600000002,-0.705459200000001,1.017444,0.0591196,0.01011086,-47.03554,-15.41952,-16.10421
15.582796097,-4.708378,7.34149200000003,-1.56454,1.027249,0.05486518,0.007591045,-47.03554,-15.41952,-16.10421
15.592703819,-7.18590000000003,7.39974399999998,-2.300895,1.018465,0.04354449,-0.003926937,-46.2884,-15.42103,-16.49357
15.602612018,-9.60148500000001,6.87547600000002,-2.791798,1.015219,0.02798351,-0.004960895,-46.2884,-15.42103,-16.49357
15.612520695,-11.76932,6.81722400000001,-2.607709,1.016309,0.01195672,-0.01276028,-46.2884,-15.42103,-16.49357
15.622428417,-13.75133,6.351208,-3.46679,1.001055,0.01220486,-0.02174057,-46.2884,-15.42103,-16.49357
15.632336616,-15.54754,4.661901,-3.834968,0.9883558,0.0008330356,-0.03370283,-46.2884,-15.42103,-16.49357
15.642244339,-17.52956,2.506578,-3.712242,0.996819,0.005893757,-0.01310058,-46.28493,-15.79719,-16.87789
15.652153015,-18.64444,1.691051,-3.589516,1.014521,0.003726624,-0.006076355,-46.28493,-15.79719,-16.87789
15.662061214,-19.26382,1.865807,-3.46679,1.022011,-0.001953939,0.002459374,-46.28493,-15.79719,-16.87789
15.671968937,-19.69739,2.273571,-3.405427,1.028556,-0.009093383,0.01243461,-46.28493,-15.79719,-16.87789
15.681877136,-19.51157,2.390074,-2.975887,1.022052,-0.01363993,-0.007222022,-46.28493,-15.79719,-16.87789
15.691785812,-19.07801,1.458043,-2.484983,1.006463,-0.02209866,-0.01145562,-46.65296,-16.17024,-16.48932
15.701693535,-18.27281,-0.8720351,-2.239532,0.9897618,-0.0242978,-0.02139914,-46.65296,-16.17024,-16.48932
15.711601734,-17.40568,-2.969106,-2.055443,0.9955965,-0.02033895,-0.01998626,-46.65296,-16.17024,-16.48932
15.721509457,-16.84824,-4.483657,-2.853161,1.009171,0.007089047,0.0007177321,-46.65296,-16.17024,-16.48932
15.731418133,-16.66242,-4.425405,-3.650879,1.035191,0.01966321,0.02552909,-46.65296,-16.17024,-16.48932
15.741326332,-16.60048,-2.328334,-4.755411,1.06777,0.01193462,0.04630327,-46.29139,-15.42443,-17.32875
15.751234055,-15.54754,1.108532,-5.062225,1.080571,-0.01541682,0.07049073,-46.29139,-15.42443,-17.32875
15.761142254,-12.45063,4.312389,-4.816774,1.074042,-0.04070342,0.07182313,-46.29139,-15.42443,-17.32875
15.77105093,-7.49559099999998,6.05994799999998,-3.89633,1.054634,-0.06477251,0.05839784,-46.29139,-15.42443,-17.32875
15.780958652,-2.10698,6.46771199999997,-2.116806,1.031742,-0.07867289,0.05083442,-46.29139,-15.42443,-17.32875
15.790866852,3.219692,6.1182,0.0922585699999997,1.020631,-0.08752354,0.05375916,-46.29139,-15.42443,-17.32875
15.800774574,7.80310800000002,6.52596399999999,1.687694,1.018283,-0.09189411,0.05807319,-46.29139,-15.42443,-17.32875
15.81068325,12.07683,6.93372799999998,2.23996,1.019997,-0.07492246,0.05432913,-46.29139,-15.42443,-17.32875
15.82059145,15.1118,7.807507,2.976315,1.033623,-0.06746779,0.05665357,-46.29139,-15.42443,-17.32875
15.832976341,17.34157,9.61331700000002,4.019485,1.039893,-0.0557258,0.06195555,-46.29139,-15.42443,-17.32875
15.842884541,18.51839,11.06962,5.369469,1.03778,-0.04217333,0.06254553,-46.28307,-16.17518,-17.71191
15.852792263,19.32359,11.88514,7.27171900000003,1.032261,-0.03450892,0.05784605,-46.28307,-16.17518,-17.71191
15.862700462,19.57134,12.11815,9.48078300000003,1.028707,-0.03462023,0.04491391,-46.28307,-16.17518,-17.71191
15.872609138,19.44746,13.10844,11.19895,1.030663,-0.03508328,0.04441257,-46.28307,-16.17518,-17.71191
15.882516861,19.38552,14.38998,12.91711,1.02717,-0.02589433,0.04834736,-46.28307,-16.17518,-17.71191
15.89242506,18.89002,15.32201,13.89891,1.024455,-0.01435846,0.03548505,-45.92336,-15.05137,-17.71732
15.902332783,18.95196,15.49677,13.1012,1.013356,0.004841056,0.02467197,-45.92336,-15.05137,-17.71732
15.912240982,18.02289,14.73949,12.97847,1.02115,0.006874842,0.02413328,-45.92336,-15.05137,-17.71732
15.922149658,16.35056,14.50648,12.48757,1.022097,0.01565148,0.03138536,-45.92336,-15.05137,-17.71732
15.932057381,14.49242,14.50648,12.11939,1.026568,0.008426592,0.0298554,-45.92336,-15.05137,-17.71732
15.94196558,12.20071,14.50648,12.05803,1.026738,-0.001241238,0.03507116,-46.30037,-15.05454,-18.48631
15.951873302,9.35155899999998,14.21522,12.36484,1.020499,-0.01101604,0.03506375,-46.30037,-15.05454,-18.48631
15.961781979,7.369542,12.64242,12.36484,0.9993073,-0.004048582,0.02714346,-46.30037,-15.05454,-18.48631
15.971690178,5.635276,10.13759,11.87394,0.9917985,-0.001792143,0.01282319,-46.30037,-15.05454,-18.48631
15.9815979,4.644268,7.69100299999997,10.21714,0.9908546,0.01187183,0.03212927,-46.30037,-15.05454,-18.48631
15.9915061,3.653259,7.05023200000001,7.946711,1.011472,0.01656135,0.04541428,-45.56155,-14.30528,-18.49251
16.001414776,2.476436,7.16673599999998,5.92173499999998,1.025682,0.02016923,0.05250927,-45.56155,-14.30528,-18.49251
16.011322498,0.43248,7.16673599999998,5.246743,1.036125,0.01209604,0.06004144,-45.56155,-14.30528,-18.49251
16.021230698,-2.045042,7.574499,5.124017,1.022422,0.006552518,0.0524487,-45.56155,-14.30528,-18.49251
16.03113842,-4.770316,6.99197999999999,4.571751,1.009901,-0.003263008,0.05970148,-45.56155,-14.30528,-18.49251
16.041047096,-6.93814800000003,6.46771199999997,3.467218,1.004824,0.005846563,0.05212659,-45.9388,-14.30871,-19.32575
16.050955296,-7.681405,4.836657,0.5217989,0.9800274,0.008286079,0.02116188,-45.9388,-14.30871,-19.32575
16.060863018,-8.42466199999997,1.225035,-1.748629,0.9794429,0.00969362,0.01349413,-45.9388,-14.30871,-19.32575
16.070771217,-10.09699,-1.745815,-3.344064,1.005717,0.006302736,0.04443884,-45.9388,-14.30871,-19.32575
16.080679894,-11.95513,-2.328334,-4.325871,1.033788,0.001390039,0.05807109,-45.9388,-14.30871,-19.32575
16.090587616,-14.1849,-1.629311,-4.264508,1.051702,-0.004081468,0.08187687,-45.56316,-14.30711,-18.94222
16.102972984,-16.47661,-0.2895156,-3.03725,1.030755,-0.02088924,0.06995467,-45.56316,-14.30711,-18.94222
16.112880707,-17.83924,-1.105043,-2.484983,1.001752,-0.02230629,0.05340792,-45.56316,-14.30711,-18.94222
16.122788906,-19.20188,-2.153579,-2.791798,0.9969302,-0.02135666,0.06114137,-45.56316,-14.30711,-18.94222
16.132696629,-20.6884,-2.736098,-3.098613,1.00121,-0.04062846,0.07441783,-45.56316,-14.30711,-18.94222
16.142605305,-20.93615,-1.804067,-3.098613,1.014151,-0.0540091,0.08093122,-45.57286,-13.55792,-18.94453
16.152513504,-20.06902,-1.512807,-3.589516,1.005945,-0.04259862,0.05707521,-45.57286,-13.55792,-18.94453
16.162421227,-18.70638,-3.726381,-3.589516,0.9987721,-0.03163532,0.03800827,-45.57286,-13.55792,-18.94453
16.172329426,-17.96312,-3.609878,-4.325871,1.027457,-0.02720858,0.07474465,-45.57286,-13.55792,-18.94453
16.182238102,-17.21987,-1.978823,-4.694048,1.030789,-0.01794482,0.07669619,-45.57286,-13.55792,-18.94453
16.192145824,-16.97211,-1.629311,-5.184951,1.022817,-0.01129055,0.07009202,-45.94227,-13.93255,-18.94143
16.202054024,-17.65343,-1.804067,-5.859943,1.008806,-0.003336302,0.04818732,-45.94227,-13.93255,-18.94143
16.211961746,-18.27281,-3.959389,-6.47357199999998,0.9892953,-0.001117025,0.05558492,-45.94227,-13.93255,-18.94143
16.221870422,-19.8832,-3.260366,-7.27128999999997,1.052638,-0.03993988,0.08354996,-45.94227,-13.93255,-18.94143
16.231778622,-20.50258,-1.105043,-6.96447600000002,1.037359,-0.03629055,0.07603306,-45.94227,-13.93255,-18.94143
16.241686344,-20.19289,-2.21183,-7.08720199999999,0.9976871,-0.04462575,0.06001903,-45.56316,-14.30711,-18.94222
16.251594544,-20.75033,-3.260366,-7.08720199999999,1.029559,-0.04027879,0.07367782,-45.56316,-14.30711,-18.94222
16.26150322,-19.63545,-3.901137,-7.70083,1.001276,-0.02669588,0.04954181,-45.56316,-14.30711,-18.94222
16.271410942,-18.45863,-5.82345200000001,-8.55991099999998,0.9751896,-0.01881702,0.04215302,-45.56316,-14.30711,-18.94222
16.281319141,-19.26382,-7.39625499999999,-8.92808800000003,1.025303,-0.02294617,0.06038823,-45.56316,-14.30711,-18.94222
16.291226864,-19.01607,-7.39625499999999,-7.76219299999999,1.038987,-0.0447294,0.034188,-44.87541,-14.30523,-18.49608
16.30113554,-18.95413,-6.58072700000001,-7.08720199999999,1.017584,-0.03372151,0.05798704,-44.87541,-14.30523,-18.49608
16.311043739,-19.26382,-6.46422299999998,-6.596298,1.04757,-0.03521637,0.07162435,-44.87541,-14.30523,-18.49608
16.320951462,-19.20188,-5.590444,-6.84175,1.003199,-0.01400582,0.06113237,-44.87541,-14.30523,-18.49608
16.330859661,-18.52057,-8.32828599999997,-7.148564,0.9661683,-0.004895354,0.03704746,-44.87541,-14.30523,-18.49608
16.34076786,-18.45863,-11.06613,-7.946282,0.98184,-0.006637656,0.03737107,-45.25314,-13.9291,-18.10982
16.35067606,-17.46762,-13.10495,-8.43718500000001,1.000545,-0.01219384,0.04292297,-45.25314,-13.9291,-18.10982
16.360583782,-15.54754,-14.21173,-9.17354000000002,1.012321,-0.02763535,0.0287866,-45.25314,-13.9291,-18.10982
16.372969151,-11.76932,-16.48356,-9.41899200000002,1.032287,-0.04327596,0.05010487,-45.25314,-13.9291,-18.10982
16.38287735,-9.10597999999999,-16.1923,-8.74399900000002,1.025345,-0.03560684,0.04974,-45.25314,-13.9291,-18.10982
16.392786026,-7.37171500000001,-15.55153,-7.63946799999999,1.022061,-0.04094385,0.0569372,-44.49702,-14.30049,-17.34162
16.402693749,-5.947139,-13.2797,-6.16675799999997,1.021852,-0.065682,0.05533385,-44.49702,-14.30049,-17.34162
16.412601948,-3.593493,-11.00788,-4.387233,1.005252,-0.06685296,0.05643988,-44.49702,-14.30049,-17.34162
16.42250967,-1.549538,-9.02730999999998,-3.282701,1.005987,-0.04647952,0.05656882,-44.49702,-14.30049,-17.34162
16.432418347,-0.1249625,-7.68751500000001,-2.546346,0.9915826,-0.0404323,0.04185741,-44.49702,-14.30049,-17.34162
16.442326546,0.3705419,-6.23121499999997,-1.441814,0.99344,-0.03509312,0.0385147,-44.12115,-14.29863,-16.89386
16.452234268,0.742170199999999,-4.425405,-0.2759189,1.004612,-0.03303976,0.03362348,-44.12115,-14.29863,-16.89386
16.462142468,0.2466658,-2.677846,1.258154,1.026096,-0.02107893,0.04454811,-44.12115,-14.29863,-16.89386
16.472051144,-1.301785,0.001744238,3.651307,1.055545,-0.02358002,0.05242178,-44.12115,-14.29863,-16.89386
16.481958866,-2.292794,3.14735,6.47400099999998,1.048171,-0.03052191,0.04043978,-44.12115,-14.29863,-16.89386
16.491867066,-1.983104,4.720153,7.578534,1.042385,-0.03445529,0.04382819,-43.74067,-14.67163,-16.50918
16.501774788,-0.806281,7.05023200000001,8.31488799999999,1.061378,-0.03474402,0.03596808,-43.74067,-14.67163,-16.50918
16.511683464,0.43248,8.098766,7.51716999999999,1.018285,-0.00141836,0.02122357,-43.74067,-14.67163,-16.50918
16.521591663,1.113798,6.00169699999999,5.614921,1.006621,0.02456473,0.01094106,-43.74067,-14.67163,-16.50918
16.531499386,0.494418,5.535681,4.817203,1.05721,0.02238591,0.03014518,-43.74067,-14.67163,-16.50918
16.541407585,-0.5585288,7.39974399999998,4.387662,1.081915,0.01063087,0.04136218,-44.48732,-15.04969,-17.33932
16.551315784,-1.735352,9.205554,3.528581,1.082433,0.002847134,0.03506348,-44.48732,-15.04969,-17.33932
16.561223984,-2.41667,8.91429399999998,2.117234,1.039333,-0.002119182,0.02246473,-44.48732,-15.04969,-17.33932
16.571132183,-2.045042,7.74925499999999,1.503605,1.035801,-0.01904379,0.03967033,-44.48732,-15.04969,-17.33932
16.581039905,-1.425662,7.574499,1.258154,1.010421,-0.02811895,0.03360254,-44.48732,-15.04969,-17.33932
16.590948582,-0.4965908,6.05994799999998,0.583161800000002,0.9845185,-0.02746103,0.0357671,-45.24692,-14.30212,-17.7232
16.600856304,0.0608516599999998,3.14735,-0.950910899999997,0.9454401,-0.005252318,0.01803045,-45.24692,-14.30212,-17.7232
16.610764503,-0.5585288,-0.1730116,-2.669072,0.946709,0.01710204,0.02488985,-45.24692,-14.30212,-17.7232
16.620672226,-1.735352,-3.318618,-4.571322,0.9377345,0.02958461,0.02265522,-45.24692,-14.30212,-17.7232
16.630580902,-3.469617,-7.04674300000001,-6.044032,0.9400862,0.03200582,0.01640755,-45.24692,-14.30212,-17.7232
16.64296627,-5.513573,-6.93023899999998,-5.614491,1.084514,-0.01681497,0.07188544,-44.49631,-14.6798,-18.49687
16.65287447,-5.637449,-2.21183,-5.430403,1.028979,-0.01521479,0.04648115,-44.49631,-14.6798,-18.49687
16.662782192,-3.593493,-2.677846,-6.41221000000002,0.9565736,0.001659165,0.01509258,-44.49631,-14.6798,-18.49687
16.672690391,-3.71737,-6.46422299999998,-6.47357199999998,1.007596,-0.01541574,0.05916168,-44.49631,-14.6798,-18.49687
16.682599068,-7.12396199999998,-4.541909,-2.055443,1.080946,-0.03278273,0.08669695,-45.24692,-14.30212,-17.7232
16.69250679,-8.42466199999997,-2.095326,0.3377102,1.060714,-0.02703672,0.02786288,-45.24692,-14.30212,-17.7232
16.702414989,-8.11497100000001,-2.153579,1.074065,1.040366,-0.01378538,0.01421476,-45.24692,-14.30212,-17.7232
16.712322712,-8.79629,-1.629311,1.196791,1.03873,0.00366933,0.01818743,-45.24692,-14.30212,-17.7232
16.722231388,-10.46862,-2.444838,0.951339199999998,1.005425,0.01054103,0.02094202,-45.24692,-14.30212,-17.7232
16.732139587,-11.5835,-4.017641,1.135428,1.007644,-0.01027313,0.0222233,-45.56155,-14.30528,-18.49251
16.74204731,-13.44164,-3.202114,2.608138,1.058246,-0.0641433,0.07757495,-45.56155,-14.30528,-18.49251
16.751955509,-15.42366,2.215319,7.88534800000001,1.090326,-0.1111472,0.09905241,-45.56155,-14.30528,-18.49251
16.761864185,-13.13195,4.778405,11.19895,1.025622,-0.1166778,0.02951086,-45.56155,-14.30528,-18.49251
16.771771908,-7.24783800000001,1.807555,11.99666,0.9677707,-0.1050461,-0.01933292,-45.56155,-14.30528,-18.49251
16.781680107,-0.744343000000003,-2.037075,11.19895,0.9486412,-0.0999502,-0.01912206,-45.93096,-14.67991,-18.48941
16.79158783,5.139772,-5.066176,10.15578,0.9681575,-0.08411749,-0.004792322,-45.93096,-14.67991,-18.48941
16.801496506,9.66124900000002,-6.05646000000001,8.43761400000001,1.008201,-0.05973984,0.01852751,-45.93096,-14.67991,-18.48941
16.811404228,12.07683,-5.124428,7.63989600000002,1.046152,-0.0537459,0.05470849,-45.93096,-14.67991,-18.48941
16.821312427,13.93497,-3.08561,8.31488799999999,1.076365,-0.04585388,0.1015371,-45.93096,-14.67991,-18.48941
16.831221104,13.56335,0.817271699999998,9.787598,1.105262,-0.0976539,0.140778,-45.5664,-13.93069,-18.49367
16.841128826,12.75815,6.87547600000002,14.75799,1.086841,-0.1212184,0.1287874,-45.5664,-13.93069,-18.49367
16.851037025,16.28862,7.69100299999997,16.16934,1.001544,-0.08386929,0.05636081,-45.5664,-13.93069,-18.49367
16.860944748,22.54436,4.370642,13.16256,0.9437853,-0.03292509,0.01498045,-45.5664,-13.93069,-18.49367
16.870853424,28.11879,0.9920276,8.25352600000003,0.9442683,-0.0009752142,0.004145193,-45.5664,-13.93069,-18.49367
16.880761623,30.53437,-1.105043,3.099041,0.9731278,0.03524088,-0.0002018558,-46.69564,-13.55801,-18.93869
16.890669346,28.3046,-2.386586,-1.073637,1.018865,0.06252882,0.009640267,-46.69564,-13.55801,-18.93869
16.900577545,22.91599,-2.736098,-2.914524,1.050392,0.05523722,0.02370487,-46.69564,-13.55801,-18.93869
16.912962913,14.3066,-2.561342,-2.239532,1.073234,0.03862779,0.03826787,-46.69564,-13.55801,-18.93869
16.92287159,8.17473599999999,-2.561342,-0.705459200000001,1.065208,0.01184311,0.03480256,-46.69564,-13.55801,-18.93869
16.932779312,4.582329,-2.270082,0.1536215,1.043861,-0.002485625,0.03442436,-46.32381,-13.24399,-18.49189
16.942687511,3.157754,-2.095326,0.3377102,1.025617,-0.02156725,0.04502944,-46.32381,-13.24399,-18.49189
16.952595234,4.396515,-1.629311,0.0922585699999997,1.022859,-0.02882972,0.05364941,-46.32381,-13.24399,-18.49189
16.96250391,6.68822300000002,-0.5225234,-1.073637,1.025237,-0.02980971,0.04593836,-46.32381,-13.24399,-18.49189
16.972412109,9.10380600000001,-0.639027300000002,-1.503177,1.023255,-0.0313113,0.04162527,-46.32381,-13.24399,-18.49189
16.982319832,10.7142,-0.1730116,-1.871354,1.02388,-0.03903899,0.04588942,-46.32866,-12.8694,-18.49304
16.992228031,11.64327,-0.05650773,-1.319088,1.032981,-0.06169966,0.04853524,-46.32866,-12.8694,-18.49304
17.00213623,12.57234,0.933775699999999,0.3377102,1.034253,-0.08055877,0.05512005,-46.32866,-12.8694,-18.49304
17.01204443,14.43048,2.040563,2.301323,1.021428,-0.08516642,0.03888258,-46.32866,-12.8694,-18.49304
17.021952152,17.34157,2.448327,2.914952,0.9957527,-0.074883,0.02670443,-46.32866,-12.8694,-18.49304
17.031860352,19.57134,2.098815,3.835396,0.9879332,-0.07351559,0.02870649,-46.69078,-13.93261,-18.93754
17.041769028,21.55335,2.215319,4.326299,0.9907115,-0.06916952,0.01862643,-46.69078,-13.93261,-18.93754
17.05167675,23.10181,1.691051,4.939929,0.9848178,-0.06242727,0.02400759,-46.69078,-13.93261,-18.93754
17.06158495,24.03088,0.642515800000001,5.18538,0.9986503,-0.06608462,0.03345846,-46.69078,-13.93261,-18.93754
17.071493626,24.40251,0.001744238,5.79900900000001,1.018271,-0.06190477,0.04434849,-46.69078,-13.93261,-18.93754
17.081401348,24.77413,0.293004,6.35127500000001,1.027948,-0.05500641,0.04238432,-46.69265,-13.55462,-18.10351
17.091309547,25.64127,0.642515800000001,6.044461,1.02062,-0.03192838,0.02243919,-46.69265,-13.55462,-18.10351
17.10121727,25.64127,0.001744238,5.553557,1.014317,-0.007350702,0.008736638,-46.69265,-13.55462,-18.10351
17.111125946,24.58832,-1.221547,4.878565,1.014458,0.01393785,-0.0002458487,-46.69265,-13.55462,-18.10351
17.121034145,22.29661,-2.50309,4.080848,1.008375,0.02789849,-0.004898167,-46.69265,-13.55462,-18.10351
17.130941868,19.13777,-3.202114,3.467218,1.024137,0.03303247,0.01227596,-46.69265,-13.55462,-18.10351
17.140850067,15.97893,-3.202114,3.28313,1.035024,0.01957658,0.009204677,-46.69265,-13.55462,-18.10351
17.150758743,13.0059,-2.50309,3.28313,1.035703,0.004071826,0.009575264,-46.69265,-13.55462,-18.10351
17.160666466,10.65226,-2.270082,3.71267,1.031523,-0.0246493,-0.00258137,-46.69265,-13.55462,-18.10351
17.170574665,9.28962000000002,-3.08561,4.449025,1.013813,-0.0680919,-0.01615143,-46.69265,-13.55462,-18.10351
17.182960033,7.49341799999997,-5.706948,4.571751,1.002201,-0.1023209,-0.04412126,-46.69127,-13.55305,-17.71804
17.192867756,5.139772,-6.63897900000002,5.124017,1.040759,-0.109918,-0.01235786,-46.69127,-13.55305,-17.71804
17.202776432,4.953958,-2.677846,5.430832,1.072462,-0.1163819,0.06749231,-46.69127,-13.55305,-17.71804
17.212684155,9.28962000000002,3.72987,6.16718700000003,1.077857,-0.1538582,0.1204903,-46.69127,-13.55305,-17.71804
17.222592354,18.39451,8.85604200000002,7.701259,1.060162,-0.1841222,0.1238134,-46.69127,-13.55305,-17.71804
17.232500076,30.16274,11.71039,9.60350899999999,1.041601,-0.1955644,0.1123851,-46.68157,-14.30224,-17.71574
17.242408752,41.49741,12.40941,10.21714,1.020187,-0.1455462,0.08554731,-46.68157,-14.30224,-17.71574
17.252316952,48.86804,11.01136,8.43761400000001,1.017664,-0.03758202,0.06132168,-46.68157,-14.30224,-17.71574
17.262224674,49.05385,9.32205800000003,4.878565,1.032858,0.09138924,0.02506819,-46.68157,-14.30224,-17.71574
17.27213335,40.81609,7.86575900000002,1.012702,1.049047,0.1686838,0.0254334,-46.68157,-14.30224,-17.71574
17.28204155,27.87104,7.63275100000002,-1.441814,1.069167,0.2014073,0.02306454,-47.05769,-13.92427,-16.87976
17.291949272,12.75815,7.807507,-2.362258,1.039792,0.1690736,0.02936286,-47.05769,-13.92427,-16.87976
17.301857472,1.175737,7.74925499999999,-2.791798,1.010617,0.1105026,0.02444089,-47.05769,-13.92427,-16.87976
17.311766148,-5.699387,6.17645200000001,-4.080419,0.9826801,0.05914776,0.005630967,-47.05769,-13.92427,-16.87976
17.32167387,-9.10597999999999,3.671618,-6.22812100000001,0.9784223,0.01161045,0.01159571,-47.05769,-13.92427,-16.87976
17.331582069,-10.03505,2.331823,-8.06900800000002,0.9812394,-0.007189668,0.02584915,-46.31078,-13.92604,-17.33337
17.341489792,-10.15893,1.341539,-9.66444299999998,0.9902443,-0.02014429,0.03048115,-46.31078,-13.92604,-17.33337
17.351398468,-9.53954700000003,0.1765001,-10.21671,0.9928871,-0.03220572,0.0356581,-46.31078,-13.92604,-17.33337
17.361306667,-9.22985600000001,-0.930287099999998,-9.97125800000001,0.9983751,-0.04427658,0.03216582,-46.31078,-13.92604,-17.33337
17.37121439,-9.10597999999999,-1.105043,-9.29626599999999,1.007875,-0.05283142,0.04258445,-46.31078,-13.92604,-17.33337
17.381123066,-8.548538,-0.580775400000001,-8.74399900000002,1.018912,-0.07011215,0.04956962,-47.06068,-13.92767,-17.71494
17.391031265,-7.61946700000001,0.5260119,-8.06900800000002,1.014979,-0.06626965,0.05203239,-47.06068,-13.92767,-17.71494
17.400938988,-6.00907800000001,0.2347521,-7.51674200000002,1.012332,-0.05713735,0.0429947,-47.06068,-13.92767,-17.71494
17.410847187,-4.708378,-0.6972793,-7.394016,1.029467,-0.05447283,0.04813573,-47.06068,-13.92767,-17.71494
17.420755863,-4.212874,-1.338051,-6.96447600000002,1.024572,-0.05356142,0.04866723,-47.06068,-13.92767,-17.71494
17.430663586,-4.274812,-1.978823,-6.289484,1.020564,-0.04585586,0.04827547,-46.31354,-13.92918,-18.10431
17.440571785,-4.832254,-2.736098,-5.98266900000002,1.01912,-0.04781325,0.04827578,-46.31354,-13.92918,-18.10431
17.452956677,-4.02706,-3.027358,-5.859943,1.020331,-0.06280166,0.05344647,-46.31354,-13.92918,-18.10431
17.462864876,-3.036051,-2.037075,-6.22812100000001,1.024768,-0.06419118,0.05531681,-46.31354,-13.92918,-18.10431
17.472773552,-1.859228,-1.920571,-6.16675799999997,1.022608,-0.04627305,0.05641647,-46.31354,-13.92918,-18.10431
17.482681275,-1.301785,-2.21183,-6.84175,1.013799,-0.02029429,0.03842501,-45.92821,-14.67677,-17.71848
17.492589474,-1.735352,-3.959389,-8.06900800000002,1.011029,-0.002933253,0.02704249,-45.92821,-14.67677,-17.71848
17.502497196,-2.354732,-5.532192,-10.27807,1.004649,0.010146,0.04015289,-45.92821,-14.67677,-17.71848
17.512405872,-3.531555,-7.57101099999998,-11.44397,0.9917762,0.01039138,0.02490851,-45.92821,-14.67677,-17.71848
17.522314072,-4.770316,-9.90108999999998,-11.19852,0.9860364,-0.01059128,0.01281786,-45.92821,-14.67677,-17.71848
17.532221794,-5.575511,-11.18263,-10.83034,0.998327,-0.01869624,0.009769247,-45.93306,-14.30218,-17.71963
17.54213047,-5.82326300000003,-11.53214,-10.46216,1.011584,-0.009721925,0.02555165,-45.93306,-14.30218,-17.71963
17.552038669,-6.56652,-10.48361,-9.84853300000002,1.013443,0.0107401,0.04007553,-45.93306,-14.30218,-17.71963
17.561946392,-8.11497100000001,-8.79430199999998,-8.68263700000001,1.022203,0.0322924,0.06126505,-45.93306,-14.30218,-17.71963
17.571854591,-9.84923700000002,-6.52247499999999,-7.33265300000001,1.028175,0.02559091,0.06356596,-45.93306,-14.30218,-17.71963
17.581763267,-10.90218,-4.425405,-5.675855,1.01999,0.005065227,0.05198113,-46.28978,-15.4226,-16.87904
17.59167099,-10.77831,-2.270082,-3.589516,1.016716,-0.0222174,0.03454395,-46.28978,-15.4226,-16.87904
17.601579189,-8.92016599999997,-1.745815,-1.809992,1.015768,-0.04367764,0.01232248,-46.28978,-15.4226,-16.87904
17.611487865,-6.318768,-0.988539100000001,-0.3986447,1.01344,-0.04559876,0.02145421,-46.28978,-15.4226,-16.87904
17.621395588,-3.841246,-0.2895156,0.828613499999998,1.026755,-0.008061461,0.02878351,-46.28978,-15.4226,-16.87904
17.631303787,-3.407679,0.1765001,1.319517,1.034334,0.012397,0.02884972,-45.91068,-15.79716,-16.87983
17.64121151,-4.33675,0.759019800000003,1.994509,1.040484,-0.008358386,0.03201568,-45.91068,-15.79716,-16.87983
17.651120186,-4.832254,2.215319,3.528581,1.033919,-0.02195645,0.04350959,-45.91068,-15.79716,-16.87983
17.661027908,-4.33675,2.85609,4.939929,1.028919,-0.01719728,0.0383058,-45.91068,-15.79716,-16.87983
17.670936108,-3.71737,3.030846,5.553557,1.022733,-0.003290139,0.02357076,-45.91068,-15.79716,-16.87983
17.680844784,-3.036051,1.749303,5.92173499999998,1.013963,-0.009237343,0.01977097,-46.28792,-15.80059,-17.71307
17.690752506,-2.974113,0.817271699999998,6.84217800000002,1.003606,-0.005022116,0.01605358,-46.28792,-15.80059,-17.71307
17.700660705,-3.469617,0.1182482,7.946711,0.9957383,0.01193,0.03160433,-46.28792,-15.80059,-17.71307
17.710568428,-4.64644,-1.279799,8.37625100000002,0.9918959,0.03801026,0.02125014,-46.28792,-15.80059,-17.71307
17.722953796,-7.00008600000001,-4.774917,8.19216299999999,0.9909596,0.05484454,-0.002636962,-46.28792,-15.80059,-17.71307
17.732862472,-9.47760899999999,-6.988491,5.92173499999998,1.019087,0.02996107,-0.006904127,-46.29277,-15.426,-17.71422
17.742770672,-11.64544,-6.40597199999999,4.326299,1.033975,0.01855153,0.001044863,-46.29277,-15.426,-17.71422
17.752678394,-13.37971,-5.706948,3.528581,1.007025,0.009404641,-0.01509222,-46.29277,-15.426,-17.71422
17.762586594,-14.74234,-6.58072700000001,3.344493,1.003618,0.009369778,-0.01362046,-46.29277,-15.426,-17.71422
17.77249527,-15.85723,-7.862271,2.976315,1.005979,0.02252777,-0.006352268,-46.29277,-15.426,-17.71422
17.782402992,-17.34374,-8.15353100000001,3.037678,1.005205,0.00749978,-0.004044437,-45.24069,-14.67515,-17.33658
17.792311192,-19.94514,-8.03702600000001,4.571751,1.007053,0.002102173,-0.02090302,-45.24069,-14.67515,-17.33658
17.802219868,-22.54654,-8.15353100000001,4.939929,1.021054,-0.02390661,-0.02120578,-45.24069,-14.67515,-17.33658
17.81212759,-24.40468,-7.97877500000003,4.939929,1.025108,-0.04280826,-0.02953188,-45.24069,-14.67515,-17.33658
17.822035789,-24.96212,-7.92052300000001,3.099041,1.029678,-0.05583538,-0.02822046,-45.24069,-14.67515,-17.33658
17.831943512,-25.02406,-8.561295,2.117234,1.021009,-0.06026705,-0.02048728,-46.30593,-14.30064,-17.33222
17.841852188,-24.59049,-9.26031799999999,2.546775,1.014236,-0.05348598,-0.005494555,-46.30593,-14.30064,-17.33222
17.851759911,-24.09499,-10.2506,4.264936,1.020552,-0.05098817,-0.006496649,-46.30593,-14.30064,-17.33222
17.86166811,-23.59948,-10.19235,4.571751,1.041592,-0.0626644,0.0287627,-46.30593,-14.30064,-17.33222
17.871576786,-21.86522,-8.38653900000002,4.878565,1.054183,-0.0774418,0.04727397,-46.30593,-14.30064,-17.33222
17.881484508,-18.45863,-5.93995599999998,5.001291,1.055868,-0.08950519,0.05438039,-46.68019,-14.30067,-17.33027
17.891392708,-14.06102,-4.483657,4.449025,1.049323,-0.1084589,0.06151702,-46.68019,-14.30067,-17.33027
17.90130043,-8.98210400000001,-2.910854,3.835396,1.053605,-0.09480713,0.06588979,-46.68019,-14.30067,-17.33027
17.911209106,-4.522564,-1.279799,2.792227,1.063866,-0.08395046,0.07787118,-46.68019,-14.30067,-17.33027
17.921117306,-0.1869005,1.749303,1.994509,1.070734,-0.07799952,0.08697032,-46.68019,-14.30067,-17.33027
17.931025028,3.157754,4.195886,1.564968,1.059989,-0.08349387,0.08175135,-47.06415,-13.55151,-17.33063
17.940933704,5.88302899999997,6.351208,1.38088,1.053536,-0.08362376,0.072207,-47.06415,-13.55151,-17.33063
17.950841904,7.92698399999999,8.098766,1.074065,1.047014,-0.08622859,0.05304364,-47.06415,-13.55151,-17.33063
17.960749626,9.28962000000002,8.68128599999997,1.074065,1.034476,-0.08215486,0.02725818,-47.06415,-13.55151,-17.33063
17.970657825,10.03288,8.44827800000003,1.687694,1.032281,-0.08035208,0.006163528,-47.06415,-13.55151,-17.33063
17.980566502,10.09482,8.564782,2.730864,1.028822,-0.07065796,0.01394264,-46.69878,-12.86472,-17.33469
17.99295187,10.65226,8.85604200000002,3.344493,1.021215,-0.0469891,0.01513098,-46.69878,-12.86472,-17.33469
18.002859592,10.77613,8.39002600000001,3.160404,1.013085,-0.0209049,0.0158601,-46.69878,-12.86472,-17.33469
18.012767792,10.15675,7.574499,2.546775,1.007001,0.00183552,0.02134961,-46.69878,-12.86472,-17.33469
18.022675514,8.732179,7.574499,1.871783,1.017655,0.01411187,0.02565428,-46.69127,-13.55305,-17.71804
18.03258419,6.56434699999999,7.574499,0.6445247,1.017095,0.02382459,0.0300456,-46.69127,-13.55305,-17.71804
18.042491913,4.086825,7.34149200000003,-0.3986447,1.015463,0.02567165,0.01614841,-46.69127,-13.55305,-17.71804
18.052400112,0.742170199999999,7.28324000000001,-1.380451,1.017283,0.03782086,0.01717282,-46.69127,-13.55305,-17.71804
18.062308788,-2.850237,6.93372799999998,-2.300895,1.0077,0.04925898,0.001972595,-46.69127,-13.55305,-17.71804
18.072216511,-7.00008600000001,6.1182,-3.589516,1.009729,0.04395564,0.002878817,-47.06068,-13.92767,-17.71494
18.08212471,-10.65443,5.186169,-4.141782,1.015211,0.03188224,-0.00109359,-47.06068,-13.92767,-17.71494
18.092032433,-13.99909,4.894909,-4.203145,1.022321,0.01015412,-0.0008239346,-47.06068,-13.92767,-17.71494
18.101941109,-16.47661,3.962878,-3.89633,1.009856,-0.02255878,-0.01485118,-47.06068,-13.92767,-17.71494
18.111849308,-17.96312,2.506578,-3.282701,1.000929,-0.03760847,0.002896979,-47.06068,-13.92767,-17.71494
18.121757031,-18.21087,1.225035,-2.730435,1.009423,-0.04667808,0.009960372,-46.32106,-13.24086,-17.72095
18.131665707,-17.96312,0.642515800000001,-2.546346,1.004109,-0.04671175,0.01625135,-46.32106,-13.24086,-17.72095
18.141573906,-17.2818,-0.580775400000001,-3.221339,0.9803005,-0.03108406,0.001690743,-46.32106,-13.24086,-17.72095
18.151481628,-16.66242,-3.318618,-4.141782,0.9718348,-0.01078013,0.01054715,-46.32106,-13.24086,-17.72095
18.161389828,-16.35273,-4.367153,-5.36904,1.009698,-0.002392789,0.04098298,-46.32106,-13.24086,-17.72095
18.171298504,-16.29079,-3.842885,-5.98266900000002,1.023465,-0.01827952,0.02970619,-47.06691,-13.55465,-18.10157
18.181206226,-16.16692,-3.551625,-6.22812100000001,1.028569,-0.03664348,0.02905649,-47.06691,-13.55465,-18.10157
18.191114426,-15.9811,-3.260366,-5.36904,1.047111,-0.06252372,0.04263718,-47.06691,-13.55465,-18.10157
18.201023102,-15.67141,-1.629311,-3.89633,1.040902,-0.07033132,0.04792432,-47.06691,-13.55465,-18.10157
18.210930824,-14.74234,-1.454555,-2.853161,1.007619,-0.04369679,0.02824293,-47.06691,-13.55465,-18.10157
18.220839024,-13.07002,-2.677846,-3.159976,1.00655,-0.03985353,0.02395699,-46.31839,-13.55459,-18.10546
18.2307477,-11.5835,-2.677846,-4.203145,1.026864,-0.04239101,0.04679982,-46.31839,-13.55459,-18.10546
18.240655422,-10.03505,-1.338051,-4.387233,1.039316,-0.05577773,0.05331769,-46.31839,-13.55459,-18.10546
18.250563622,-8.85822799999998,-0.05650773,-3.89633,1.045956,-0.06433078,0.07096515,-46.31839,-13.55459,-18.10546
18.262948513,-8.42466199999997,4.487145,-2.484983,1.069939,-0.05279891,0.0866654,-46.31839,-13.55459,-18.10546
18.272856712,-8.053034,7.69100299999997,-2.116806,1.044844,-0.02612485,0.05490459,-46.69265,-13.55462,-18.10351
18.282765389,-7.49559099999998,7.34149200000003,-3.589516,1.016482,-0.004290261,0.03274491,-46.69265,-13.55462,-18.10351
18.292673111,-8.36272300000002,5.88519199999999,-5.123589,1.025155,0.008923743,0.03563368,-46.69265,-13.55462,-18.10351
18.30258131,-9.663423,5.535681,-6.596298,1.025545,0.01473204,0.03278782,-46.69265,-13.55462,-18.10351
18.312489033,-11.45963,4.60365,-7.51674200000002,0.9999151,0.01333203,0.01140841,-46.69265,-13.55462,-18.10351
18.322397709,-13.25583,1.691051,-7.70083,0.9957139,-0.009546109,0.004092473,-45.94413,-13.55456,-18.10741
18.332305908,-14.9901,0.817271699999998,-8.92808800000003,0.9925523,-0.02603845,0.0102539,-45.94413,-13.55456,-18.10741
18.342213631,-15.9811,-0.2895156,-10.27807,0.9960017,-0.03817692,-0.001382668,-45.94413,-13.55456,-18.10741
18.352122307,-16.16692,-2.095326,-10.70761,0.988037,-0.04322647,-0.02102914,-45.94413,-13.55456,-18.10741
18.362030506,-15.42366,-5.76519999999999,-10.95306,0.963625,-0.01839633,-0.03600301,-45.94413,-13.55456,-18.10741
18.371938229,-16.29079,-9.085562,-11.75078,0.9944628,0.0112751,0.001841964,-45.94276,-13.55299,-17.72194
18.381846905,-18.76832,-8.67779800000001,-11.25988,1.049257,0.02953772,0.02594495,-45.94276,-13.55299,-17.72194
18.391755104,-21.1839,-7.51275900000002,-10.09398,1.047781,0.02902706,0.02451472,-45.94276,-13.55299,-17.72194
18.401662827,-22.79429,-5.76519999999999,-9.48035400000003,1.037834,0.02832909,0.007316371,-45.94276,-13.55299,-17.72194
18.411571026,-22.17491,-6.23121499999997,-9.97125800000001,1.013335,0.01287459,-0.01560761,-45.94276,-13.55299,-17.72194
18.421479702,-22.23685,-6.988491,-10.46216,1.027945,-0.003797309,0.006713644,-46.31354,-13.92918,-18.10431
18.431387425,-22.60847,-6.988491,-8.62127400000002,1.046557,-0.03842165,0.01687432,-46.31354,-13.92918,-18.10431
18.441295624,-21.36971,-7.221499,-7.33265300000001,1.036587,-0.04303364,-0.007072108,-46.31354,-13.92918,-18.10431
18.451203823,-18.45863,-8.79430199999998,-8.62127400000002,1.011993,-0.009269276,0.01834851,-46.31354,-13.92918,-18.10431
18.461112023,-17.52956,-8.50304200000002,-10.33944,1.038804,-0.003848834,0.06423186,-46.31354,-13.92918,-18.10431
18.471019745,-16.10498,-5.88170400000003,-11.19852,1.04568,-0.01301565,0.05642466,-45.62117,-14.30215,-17.72125
18.480928421,-13.6894,-3.901137,-11.3826,1.023853,-0.0007648537,0.04038276,-45.62117,-14.30215,-17.72125
18.49083662,-11.14994,-4.774917,-12.11896,1.024577,0.003993305,0.02120144,-45.62117,-14.30215,-17.72125
18.500744343,-8.92016599999997,-5.590444,-12.67123,1.023988,0.0102768,0.01884795,-45.62117,-14.30215,-17.72125
18.510653019,-7.681405,-5.18268,-12.79395,1.029293,-0.007982689,0.03788358,-45.62117,-14.30215,-17.72125
18.520561218,-7.24783800000001,-3.318618,-11.75078,1.012473,-0.03048296,0.04029002,-44.88098,-13.55133,-17.34198
18.532946587,-3.655432,-4.716664,-10.95306,0.9814581,-0.04902709,-0.001800609,-44.88098,-13.55133,-17.34198
18.542854309,0.2466658,-5.47394,-10.76898,1.005132,-0.04472477,0.02297734,-44.88098,-13.55133,-17.34198
18.552762508,3.405506,-4.89142,-10.03262,1.010368,-0.03692676,0.01817929,-44.88098,-13.55133,-17.34198
18.562671184,5.573338,-3.901137,-8.62127400000002,1.020635,-0.02655489,0.03015739,-44.88098,-13.55133,-17.34198
18.572578907,6.62628499999997,-2.21183,-6.90311299999998,1.005766,-0.01513516,0.02412891,-44.4908,-14.67352,-16.955
18.582487106,6.502409,-1.105043,-5.491766,0.9943982,-0.008998002,0.01947336,-44.4908,-14.67352,-16.955
18.592395306,6.13078099999997,-0.3477675,-3.528153,0.9875039,-0.01106041,0.012321,-44.4908,-14.67352,-16.955
18.602303505,5.573338,0.409508,-1.380451,0.9848596,0.004414957,0.01100808,-44.4908,-14.67352,-16.955
18.612211704,3.653259,2.215319,1.81042,1.023383,-0.005639238,0.03651337,-44.4908,-14.67352,-16.955
18.622119427,2.35256,6.05994799999998,6.22854899999998,1.035736,-0.01566298,0.03729266,-44.10684,-15.42268,-16.95464
18.632028103,2.66225,8.73953799999999,9.11260599999998,1.022388,-0.02566038,0.01142096,-44.10684,-15.42268,-16.95464
18.641935825,4.272639,10.72011,11.13758,1.020449,-0.02665171,0.01191245,-44.10684,-15.42268,-16.95464
18.651844025,6.81209899999999,12.0599,11.9353,1.016193,-0.009806429,-0.00186056,-44.10684,-15.42268,-16.95464
18.661752701,9.28962000000002,11.71039,11.32167,1.014922,0.003199494,-0.01520659,-44.10684,-15.42268,-16.95464
18.671660423,11.27164,10.6036,9.97168700000001,1.017779,0.01002558,-0.01470738,-44.11791,-14.67506,-17.34241
18.681568623,12.5104,9.49681400000001,8.68306499999997,1.019595,-0.001481674,0.00584597,-44.11791,-14.67506,-17.34241
18.691477299,13.93497,9.08905000000002,7.946711,1.040343,-0.01721205,0.007950087,-44.11791,-14.67506,-17.34241
18.701385021,16.10281,8.97254599999999,6.84217800000002,1.027303,-0.0187565,0.02198498,-44.11791,-14.67506,-17.34241
18.71129322,17.77513,8.44827800000003,5.73764600000002,0.9876673,0.01414215,0.0100866,-44.11791,-14.67506,-17.34241
18.721200943,18.27064,5.069665,2.853589,0.9363632,0.06716818,-0.01933564,-44.49355,-14.67666,-17.72594
18.731109619,16.22668,-1.221547,-0.1531931,0.9211714,0.09988312,-0.03194147,-44.49355,-14.67666,-17.72594
18.741017818,11.39551,-6.28946699999999,-1.687266,0.9709874,0.09535991,0.004539875,-44.49355,-14.67666,-17.72594
18.750925541,5.94496599999999,-7.39625499999999,-1.441814,1.02882,0.06469391,0.02924911,-44.49355,-14.67666,-17.72594
18.760834217,2.35256,-6.58072700000001,-0.705459200000001,1.044713,0.0357497,0.01930614,-44.49355,-14.67666,-17.72594
18.770742416,1.857055,-5.76519999999999,-1.503177,1.031476,0.04044386,0.02138047,-45.23931,-14.67358,-16.95111
18.780650139,1.795117,-6.69723099999998,-3.589516,1.005219,0.02945814,0.02299058,-45.23931,-14.67358,-16.95111
18.790558815,2.414498,-8.32828599999997,-4.387233,0.9905738,0.01270128,0.005728696,-45.23931,-14.67358,-16.95111
18.802943706,4.644268,-10.94963,-5.246314,0.9820982,0.02226843,0.001069233,-45.23931,-14.67358,-16.95111
18.812851906,6.44047100000002,-13.0467,-5.92130599999998,1.036034,0.01570274,0.007729059,-45.23931,-14.67358,-16.95111
18.822760105,7.43147999999999,-11.88166,-5.000863,1.107924,-0.008507791,0.02802987,-45.62117,-14.30215,-17.72125
18.832667828,7.05985200000002,-7.62926299999999,-2.484983,1.14317,-0.0460858,0.08315192,-45.62117,-14.30215,-17.72125
18.842576504,5.94496599999999,0.875523700000001,3.405856,1.144888,-0.1122696,0.1254292,-45.62117,-14.30215,-17.72125
18.852484703,7.05985200000002,9.84632599999999,10.03305,1.030709,-0.0513965,0.07743438,-45.62117,-14.30215,-17.72125
18.862392426,10.46644,8.15701899999998,9.72623500000002,0.8863924,0.02381468,-0.03164643,-45.62117,-14.30215,-17.72125
18.872301102,12.63428,-0.05650773,5.73764600000002,0.8705426,0.06326479,-0.05284416,-45.92821,-14.67677,-17.71848
18.882209301,12.44846,-5.88170400000003,1.564968,0.9311015,0.08349869,-0.03646388,-45.92821,-14.67677,-17.71848
18.892117023,10.21869,-7.221499,-2.239532,1.007274,0.05928166,-0.02772651,-45.92821,-14.67677,-17.71848
18.9020257,6.997913,-6.05646000000001,-2.546346,1.078402,0.02200016,-0.001743828,-45.92821,-14.67677,-17.71848
18.911933899,3.777135,-3.901137,0.2763473,1.100123,-0.01444794,0.02326086,-45.92821,-14.67677,-17.71848
18.921841621,1.609303,-1.221547,3.958122,1.093474,-0.04003687,0.06012406,-45.93306,-14.30218,-17.71963
18.931750298,2.104807,2.623082,6.84217800000002,1.067303,-0.0495147,0.07182676,-45.93306,-14.30218,-17.71963
18.941658497,5.263648,4.778405,8.13079899999997,1.022507,-0.04437464,0.04874753,-45.93306,-14.30218,-17.71963
18.951566219,11.08582,4.487145,7.701259,1.005456,-0.05821489,0.0387297,-45.93306,-14.30218,-17.71963
18.961474419,17.89901,5.535681,6.47400099999998,1.046853,-0.07606833,0.04927154,-45.93306,-14.30218,-17.71963
18.971383095,24.52638,9.38030999999998,5.18538,1.092128,-0.084134,0.06800542,-45.91504,-15.80213,-18.10048
18.981290817,30.59631,13.92396,5.001291,1.129431,-0.1160297,0.09193602,-45.91504,-15.80213,-18.10048
18.991199017,35.98492,21.20546,5.001291,1.150264,-0.1509795,0.1275224,-45.91504,-15.80213,-18.10048
19.001107216,40.69221,29.59374,7.21035599999999,1.144226,-0.1582106,0.1500975,-45.91504,-15.80213,-18.10048
19.011015415,45.7092,36.17621,10.2785,1.097008,-0.1306501,0.1555194,-45.91504,-15.80213,-18.10048
19.020923138,51.34556,39.03056,13.83755,1.045512,-0.08479253,0.1466979,-45.92474,-15.05294,-18.10279
19.030831814,55.8051,38.97231,17.08978,1.022476,-0.04779632,0.1370741,-45.92474,-15.05294,-18.10279
19.040740013,56.54836,40.83637,20.0352,1.041124,-0.01460632,0.134722,-45.92474,-15.05294,-18.10279
19.050647736,54.44246,42.9917,21.44655,1.027045,-0.01058901,0.101748,-45.92474,-15.05294,-18.10279
19.060556412,52.15075,42.23442,19.60566,0.9944431,-0.02482389,0.05297858,-45.92474,-15.05294,-18.10279
19.072941303,50.91199,39.08881,14.88072,0.9242353,-0.01487738,-0.01064706,-46.30198,-15.05637,-18.93602
19.082849979,52.83207,32.38984,10.33986,0.8800759,0.005219333,-0.04947775,-46.30198,-15.05637,-18.93602
19.092757702,55.8051,23.24428,5.308106,0.8879352,0.02703888,-0.06813125,-46.30198,-15.05637,-18.93602
19.102665901,57.9109899999999,14.33173,0.828613499999998,0.9242395,0.03169695,-0.09868594,-46.30198,-15.05637,-18.93602
19.112574577,57.5393599999997,6.1182,-1.871354,0.9429958,0.04299229,-0.1160698,-46.30198,-15.05637,-18.93602
19.1224823,52.95595,-2.677846,-2.546346,0.9347523,0.06706598,-0.1287975,-45.62345,-14.68485,-19.71168
19.132390499,44.16074,-11.7069,-2.055443,0.9398963,0.09286502,-0.1214708,-45.62345,-14.68485,-19.71168
19.142299175,34.18872,-19.51266,-0.705459200000001,0.9641467,0.1208732,-0.1080641,-45.62345,-14.68485,-19.71168
19.152206898,23.34956,-24.63884,-0.889547900000002,0.9978136,0.1593073,-0.07018689,-45.62345,-14.68485,-19.71168
19.162115097,11.08582,-27.02717,-1.135,1.024248,0.1991659,-0.02070952,-45.62345,-14.68485,-19.71168
19.172023296,-2.292794,-27.31843,-1.073637,1.050957,0.2172164,0.0300605,-44.85762,-15.80544,-18.94118
19.181931496,-14.80428,-25.86213,-1.257725,1.057427,0.1873595,0.05380966,-44.85762,-15.80544,-18.94118
19.191839218,-24.15693,-24.17282,-1.687266,1.051226,0.1359017,0.05640514,-44.85762,-15.80544,-18.94118
19.201747894,-29.66941,-23.06603,-1.809992,1.026102,0.08598424,0.02749546,-44.85762,-15.80544,-18.94118
19.211656094,-31.15593,-23.35729,-2.484983,1.014769,0.03043707,0.001781821,-44.85762,-15.80544,-18.94118
19.221563816,-29.42166,-23.88156,-3.650879,1.006394,-0.008476048,-0.002241226,-45.59346,-16.55129,-18.0998
19.231472492,-26.94414,-24.52233,-4.9395,1.007669,-0.03172377,-0.0004872633,-45.59346,-16.55129,-18.0998
19.241380692,-25.64344,-24.87184,-6.41221000000002,1.028888,-0.03526201,0.01417783,-45.59346,-16.55129,-18.0998
19.251288414,-24.15693,-23.88156,-8.06900800000002,1.049857,-0.04843848,0.04078499,-45.59346,-16.55129,-18.0998
19.261196613,-22.42266,-21.31847,-8.74399900000002,1.052127,-0.08605065,0.07508481,-45.59346,-16.55129,-18.0998
19.27110529,-20.62646,-17.5321,-6.78038700000001,1.050173,-0.1363094,0.1117402,-45.60663,-15.42594,-17.71779
19.281013012,-17.09599,-14.15348,-1.932717,1.04687,-0.1765295,0.123987,-45.60663,-15.42594,-17.71779
19.290921211,-8.36272300000002,-12.17292,3.774033,1.043627,-0.1964791,0.1181222,-45.60663,-15.42594,-17.71779
19.300829887,5.015896,-10.42536,5.492195,1.044896,-0.187783,0.1090453,-45.60663,-15.42594,-17.71779
19.31073761,19.5094,-8.96905800000002,3.221767,1.041154,-0.1370207,0.08973163,-45.60663,-15.42594,-17.71779
19.320645809,30.28662,-7.33800299999997,-1.012274,1.049982,-0.07885656,0.06506925,-45.9206,-15.04823,-16.94639
19.330554485,35.36554,-6.23121499999997,-3.098613,1.044526,-0.02141195,0.02949054,-45.9206,-15.04823,-16.94639
19.342939377,32.26864,-5.706948,-0.582733500000001,1.025471,0.02761605,-0.006978792,-45.9206,-15.04823,-16.94639
19.352847576,24.34057,-7.04674300000001,1.503605,1.027074,0.0774527,-0.03066952,-45.9206,-15.04823,-16.94639
19.362755299,13.68722,-7.454507,2.117234,1.040991,0.1494403,-0.01975516,-46.65781,-15.79565,-16.49047
19.372663975,2.414498,-7.04674300000001,0.3377102,1.053574,0.2156252,-0.002625074,-46.65781,-15.79565,-16.49047
19.382572174,-7.61946700000001,-5.706948,-2.730435,1.068185,0.2538276,0.03638712,-46.65781,-15.79565,-16.49047
19.392479897,-15.9811,-2.561342,-6.10539499999999,1.068702,0.2233647,0.05106431,-46.65781,-15.79565,-16.49047
19.402388096,-22.4846,-0.1147597,-8.62127400000002,1.039625,0.1541129,0.04318933,-46.65781,-15.79565,-16.49047
19.412296772,-26.32476,1.108532,-10.4008,1.012192,0.06545957,0.02988815,-45.96059,-16.54322,-16.10627
19.422204495,-26.57251,1.574547,-11.68942,0.9934962,-0.0128732,0.02233683,-45.96059,-16.54322,-16.10627
19.432112694,-22.9801,1.283287,-12.42577,0.986423,-0.08184917,0.01474035,-45.96059,-16.54322,-16.10627
19.44202137,-16.97211,1.516295,-12.0576,0.9944158,-0.1262928,0.02685446,-45.96059,-16.54322,-16.10627
19.451929093,-9.41567000000003,2.215319,-11.01443,1.022486,-0.1307181,0.04097013,-45.96059,-16.54322,-16.10627
19.461837292,-2.10698,4.079382,-10.70761,1.034638,-0.1140171,0.05345312,-46.28703,-15.41946,-16.10811
19.471745968,3.839073,6.46771199999997,-9.78716900000001,1.045045,-0.0794301,0.05982934,-46.28703,-15.41946,-16.10811
19.48165369,6.006905,8.73953799999999,-8.55991099999998,1.043064,-0.03630176,0.06013499,-46.28703,-15.41946,-16.10811
19.49156189,5.697214,9.26380600000001,-7.02583799999998,1.027198,-0.007103638,0.02542468,-46.28703,-15.41946,-16.10811
19.501470566,4.272639,8.15701899999998,-5.73721700000003,1.007626,0.0153225,0.002707509,-46.28703,-15.41946,-16.10811
19.511378288,2.600312,6.46771199999997,-5.062225,1.002937,0.03365431,-0.003849221,-45.89822,-16.54321,-16.10659
19.521286488,1.237675,6.1182,-5.36904,1.014976,0.0590765,0.00773261,-45.89822,-16.54321,-16.10659
19.531194687,0.0608516599999998,5.76868899999999,-6.96447600000002,1.023131,0.08251349,0.01981728,-45.89822,-16.54321,-16.10659
19.541102886,-1.054033,6.1182,-8.25309699999997,1.023146,0.07666795,0.01449645,-45.89822,-16.54321,-16.10659
19.551011085,-1.239847,5.419177,-9.17354000000002,1.006989,0.06572313,-0.0003119437,-45.89822,-16.54321,-16.10659
19.560919285,-0.8682191,3.43861,-9.60308100000002,0.997392,0.03691481,-0.01626033,-46.26577,-17.29583,-16.93752
19.570827484,0.804108299999999,0.2347521,-11.01443,0.9942968,0.00826188,-0.01786306,-46.26577,-17.29583,-16.93752
19.580735207,2.910002,-2.270082,-12.42577,1.002189,-0.0003850649,-0.02135476,-46.26577,-17.29583,-16.93752
19.590643883,4.458453,-2.619594,-12.85531,1.006685,0.006061071,-0.004547859,-46.26577,-17.29583,-16.93752
19.600552082,3.715197,-2.328334,-12.11896,1.020588,0.03780222,0.005618339,-46.26577,-17.29583,-16.93752
19.61293745,-0.2488386,-0.639027300000002,-9.35762899999997,1.039137,0.06679882,0.0363701,-45.57801,-17.29395,-16.49137
19.622845173,-3.593493,0.1765001,-6.596298,1.034014,0.04247454,0.03289431,-45.57801,-17.29395,-16.49137
19.632753849,-6.69039600000003,0.9920276,-3.650879,1.017349,0.02858686,0.01278927,-45.57801,-17.29395,-16.49137
19.642662048,-8.48660000000001,1.225035,-0.889547900000002,1.004557,0.02204514,-0.00250107,-45.57801,-17.29395,-16.49137
19.652569771,-9.04404300000003,1.166783,1.196791,0.9890422,0.01069803,-0.002913333,-45.57801,-17.29395,-16.49137
19.66247797,-8.92016599999997,1.05028,2.546775,1.002157,0.01959845,-0.001054693,-45.19891,-17.66851,-16.49216
19.672386646,-8.79629,1.166783,3.467218,1.010445,0.0270067,0.005160073,-45.19891,-17.66851,-16.49216
19.682294369,-8.11497100000001,1.399791,4.264936,1.010917,0.03334566,0.01095983,-45.19891,-17.66851,-16.49216
19.692203045,-7.37171500000001,1.283287,4.939929,1.010141,0.0246582,0.02051229,-45.19891,-17.66851,-16.49216
19.702110767,-6.69039600000003,1.225035,5.79900900000001,1.00691,0.01154412,0.02381592,-45.19891,-17.66851,-16.49216
19.712018967,-6.25683000000001,1.108532,6.96490399999999,1.008865,0.01693425,0.0300758,-45.20537,-17.29575,-16.94303
19.721926689,-5.76132499999998,0.875523700000001,7.88534800000001,1.01332,0.01116375,0.02855569,-45.20537,-17.29575,-16.94303
