Time (s),Gyroscope X (deg/s),Gyroscope Y (deg/s),Gyroscope Z (deg/s),Accelerometer X (g),Accelerometer Y (g),Accelerometer Z (g),Magnetometer X (uT),Magnetometer Y (uT),Magnetometer Z (uT)
128.65,-0.590690900000002,-0.3829598,0.1393622,1.001401,-0.0507925,-0.08960129,-48.95256,-26.64152,20.58063
128.66,-0.4657073,-0.3824521,0.1390472,1.001445,-0.055662,-0.09060142,-48.95256,-26.64152,20.58063
128.67,-0.2789307,-0.2035197,-0.1674306,1.00581,-0.05465753,-0.09257194,-48.95256,-26.64152,20.58063
128.68,0.0939785300000002,-0.0842835799999999,-0.4123168,1.00593,-0.05706443,-0.08588517,-48.95256,-26.64152,20.58063
128.69,0.4043425,0.03487753,-0.4118182,1.005461,-0.0560863,-0.08347425,-50.06496,-27.72766,20.98182
128.7,0.3416602,0.0944734700000002,-0.4725076,1.004962,-0.05414057,-0.08249231,-50.06496,-27.72766,20.98182
128.71,0.4033665,0.1539385,-0.5944431,1.004839,-0.05368742,-0.09111233,-50.06496,-27.72766,20.98182
128.72,0.3408024,0.3322532,-0.655076499999998,1.000499,-0.05175571,-0.08480457,-50.06496,-27.72766,20.98182
128.73,-0.1563188,0.1533839,-0.4704409,1.00244,-0.05369594,-0.08772379,-50.06496,-27.72766,20.98182
128.74,-0.2181798,0.3316059,-0.4085663,0.9990889,-0.05712284,-0.08530898,-50.06496,-27.72766,20.98182
128.75,-0.5284268,0.3906796,-0.4693561,1.006361,-0.05219435,-0.08585022,-49.32228,-27.3735,20.5901
128.76,-0.5279192,0.3307734,-0.2236701,1.001466,-0.05467956,-0.08819743,-49.32228,-27.3735,20.5901
128.77,-0.4030828,0.3304327,-0.1621054,1.004089,-0.06241915,-0.08207053,-49.32228,-27.3735,20.5901
128.78,-0.3404411,0.2705461,-0.1006181,1.002536,-0.05855058,-0.08489095,-49.32228,-27.3735,20.5901
128.79,-0.02953147,0.3296779,0.1446433,1.002039,-0.05513956,-0.08245908,-49.32228,-27.3735,20.5901
128.8,0.03266057,0.4482256,-0.1005386,1.003049,-0.05609854,-0.08104397,-48.95055,-27.00966,20.5844
128.81,0.1567929,0.1501927,0.02217446,0.9985434,-0.05567854,-0.0881642,-48.95055,-27.00966,20.5844
128.82,0.3428266,0.4474179,0.02218511,0.9994767,-0.0551945,-0.09104862,-48.95055,-27.00966,20.5844
128.83,0.3422495,0.387244,0.02224656,1.003451,-0.05318961,-0.08485875,-48.95055,-27.00966,20.5844
128.84,0.03137656,0.565303,0.02221863,1.005381,-0.05317982,-0.08680297,-49.32153,-27,20.97042
128.85,-0.154913,0.5051588,0.02220997,1.005315,-0.0497812,-0.08869014,-49.32153,-27,20.97042
128.86,-0.3409297,0.623504799999998,0.1447303,1.010824,-0.05506764,-0.08402127,-49.32153,-27,20.97042
128.87,-0.5267321,0.801155000000002,0.1445485,1.002413,-0.05858586,-0.09399428,-49.32153,-27,20.97042
128.88,-0.4639156,0.800279500000002,0.02179947,1.00343,-0.05856611,-0.09113342,-49.32153,-27,20.97042
128.89,-0.1530069,0.680200300000001,-0.1620984,1.003796,-0.05371459,-0.09588969,-49.32353,-26.63186,20.96664
128.9,0.03339643,0.857685899999998,-0.2232363,1.00091,-0.0605618,-0.09830233,-49.32353,-26.63186,20.96664
128.91,0.2817206,0.9160801,-0.2230329,0.9984566,-0.05277393,-0.09197205,-49.32353,-26.63186,20.96664
128.92,0.3434631,0.736421299999999,-0.4065847,1.002396,-0.05663769,-0.0934984,-49.32353,-26.63186,20.96664
128.93,0.156723,0.794968000000001,-0.2223383,0.9975776,-0.05177782,-0.08380472,-49.32353,-26.63186,20.96664
128.94,0.2186421,0.675044999999999,-0.4058911,0.9984205,-0.05083133,-0.09291353,-49.32353,-26.63186,20.96664
128.95,0.4668311,0.4362922,-0.28291,0.9999463,-0.05519577,-0.09249292,-48.95055,-27.00966,20.5844
128.96,0.0316479,0.1382743,-0.3439924,0.9971254,-0.05323629,-0.08237299,-48.95055,-27.00966,20.5844
128.97,-0.0926821899999998,-0.0999163799999999,-0.1599209,0.9955497,-0.0474214,-0.08517666,-48.95055,-27.00966,20.5844
128.98,-0.03062545,-0.3378266,0.0852994300000002,0.9941221,-0.0513288,-0.08566848,-48.95055,-27.00966,20.5844
128.99,-0.2788946,-0.4564762,0.2077213,0.9954846,-0.04743997,-0.08996788,-48.95055,-27.00966,20.5844
129,-0.2783983,-0.574702699999999,0.3300205,0.9975704,-0.05226811,-0.08476715,-48.95256,-26.64152,20.58063
129.01,-0.0917203699999999,-0.811867100000003,0.26838,0.9975147,-0.05472514,-0.09101669,-48.95256,-26.64152,20.58063
129.02,-0.2157394,-0.929865200000002,0.3294806,0.9999478,-0.0542189,-0.0915263,-48.95256,-26.64152,20.58063
129.03,-0.2155855,-0.988206099999998,0.0839317899999999,1.000508,-0.0546826,-0.08674619,-48.95256,-26.64152,20.58063
129.04,0.03305138,-0.927530799999999,0.02242712,1.006798,-0.04829927,-0.08630277,-49.70203,-26.26474,20.58072
129.05,-0.02908655,-0.866987600000001,0.2061347,1.008799,-0.04875748,-0.08345996,-49.70203,-26.26474,20.58072
129.06,-0.02908901,-0.806427100000002,0.0834815400000002,1.013061,-0.05022304,-0.09503387,-49.70203,-26.26474,20.58072
129.07,-0.2153612,-0.4485849,0.08347295,1.008257,-0.05317071,-0.09115668,-49.70203,-26.26474,20.58072
129.08,-0.2150907,-0.2696068,-0.1616321,1.006436,-0.0541258,-0.08203399,-49.70203,-26.26474,20.58072
129.09,-0.0905496899999998,0.0877481000000002,-0.1613906,1.004824,-0.05515644,-0.09352051,-49.32629,-26.6372,20.58256
129.1,-0.2144727,0.2067492,-0.2223369,1.00976,-0.05558883,-0.0907193,-49.32629,-26.6372,20.58256
129.11,-0.2141838,0.4444318,-0.4057933,1.008316,-0.05754805,-0.09071526,-49.32629,-26.6372,20.58256
129.12,0.03445133,0.5628914,-0.589134800000001,1.005362,-0.05709102,-0.09162771,-49.32629,-26.6372,20.58256
129.13,0.1586399,0.5026942,-0.833491299999999,1.002003,-0.05759101,-0.08727125,-49.32629,-26.6372,20.58256
129.14,0.4688836,0.680402600000002,-0.709838399999999,1.003008,-0.05708655,-0.08488532,-48.94855,-27.37781,20.58817
129.15,0.7167193,0.679510699999998,-0.770230500000001,1.004527,-0.05754721,-0.08155645,-48.94855,-27.37781,20.58817
129.16,0.715994699999998,0.5001116,-0.891772800000001,1.002016,-0.05319324,-0.08244233,-48.94855,-27.37781,20.58817
129.17,0.3427705,0.737481799999999,-0.706897800000002,0.9981311,-0.05224339,-0.07950374,-48.94855,-27.37781,20.58817
129.18,0.03184795,0.260589,-0.3382782,0.9985854,-0.0493196,-0.07948555,-48.94855,-27.37781,20.58817
129.19,-0.2786546,0.2602991,-0.1540213,0.9932169,-0.05473417,-0.08328832,-48.95055,-27.00966,20.5844
129.2,-0.4643987,-0.0969692800000002,0.0913456500000001,0.9972476,-0.05417788,-0.07423629,-48.95055,-27.00966,20.5844
129.21,-0.4638154,-0.2159027,0.2137599,0.9943124,-0.05469214,-0.074678,-48.95055,-27.00966,20.5844
129.22,-0.276885,-0.3345933,0.2135492,0.992762,-0.05375232,-0.07991916,-48.95055,-27.00966,20.5844
129.23,-0.1522664,-0.3936446,0.5196611,0.9932235,-0.05473232,-0.0828092,-48.95055,-27.00966,20.5844
129.24,-0.08995927,-0.5716956,0.641479599999999,0.9957688,-0.05761169,-0.07807778,-49.32153,-27,20.97042
129.25,-0.0897487400000003,-0.5115808,0.763145100000001,1.003562,-0.05706367,-0.08010104,-49.32153,-27,20.97042
129.26,0.0345373,-0.3920886,0.762147999999997,1.006355,-0.05170777,-0.08584604,-49.32153,-27,20.97042
129.27,-0.0896598599999998,-0.3915774,0.761152200000001,1.007292,-0.04926997,-0.0867972,-49.32153,-27,20.97042
129.28,0.0968200100000003,-0.03418151,0.8214415,1.008271,-0.04877293,-0.08632776,-49.32153,-27,20.97042
129.29,-0.1515702,0.2038037,0.636596999999998,1.011301,-0.05409018,-0.08401983,-49.69923,-27.37542,20.14394
129.3,-0.2134567,0.203473,0.4519269,1.013634,-0.05068304,-0.08929553,-49.69923,-27.37542,20.14394
129.31,-0.2131886,0.738461400000003,0.2675466,1.007768,-0.04926938,-0.08776237,-49.69923,-27.37542,20.14394
129.32,-0.3370161,0.856402200000001,0.0833785500000001,1.012046,-0.04926592,-0.09692811,-49.69923,-27.37542,20.14394
129.33,-0.2123805,1.271609,-0.1005581,1.008327,-0.05412715,-0.08685295,-49.69923,-27.37542,20.14394
129.34,-0.0879403900000002,1.567313,-0.1617348,1.008641,-0.04538485,-0.09205484,-48.95256,-26.64152,20.58063
129.35,-0.1498012,1.921701,-0.651731600000001,1.007718,-0.05221299,-0.0940161,-48.95256,-26.64152,20.58063
129.36,-0.0875361499999998,2.097795,-0.896067199999998,1.00967,-0.05073233,-0.09307303,-48.95256,-26.64152,20.58063
129.37,-0.02540782,1.916727,-0.956186999999999,1.010064,-0.05319619,-0.1022042,-48.95256,-26.64152,20.58063
129.38,0.2851256,1.914263,-1.200044,1.001935,-0.05956332,-0.09399572,-48.95256,-26.64152,20.58063
129.39,0.657365399999998,1.792766,-1.505052,0.9980485,-0.05959033,-0.09202376,-49.32429,-27.00535,20.58633
129.4,1.153194,1.433555,-1.441935,0.9897442,-0.05721948,-0.08901019,-49.32429,-27.00535,20.58633
129.41,1.213725,1.312717,-1.317557,0.9931837,-0.05523189,-0.08616725,-49.32429,-27.00535,20.58633
129.42,1.025892,0.716371500000002,-1.438411,0.9961154,-0.05276575,-0.08427142,-49.32429,-27.00535,20.58633
129.43,1.024486,0.3585864,-1.130244,0.988282,-0.05381334,-0.08560622,-49.32429,-27.00535,20.58633
129.44,0.774813599999998,-0.0583330700000001,-0.883746900000001,0.9908113,-0.05425612,-0.07989561,-50.07375,-26.62857,20.58643
129.45,0.587570699999997,-0.355655,-0.576237400000002,0.9902218,-0.05184796,-0.08513808,-50.07375,-26.62857,20.58643
129.46,0.4006995,-1.128525,-0.0852822699999997,0.9883747,-0.05281048,-0.07793187,-50.07375,-26.62857,20.58643
129.47,-0.0965944999999999,-1.424746,0.3437918,0.9902862,-0.05231782,-0.08083016,-50.07375,-26.62857,20.58643
129.48,-0.4069747,-1.839332,0.8336107,0.991302,-0.05327494,-0.07893591,-50.07375,-26.62857,20.58643
129.49,-0.778983499999997,-1.896661,0.955188799999999,0.9917729,-0.05229934,-0.0794136,-49.32228,-27.3735,20.5901
129.5,-1.02641,-1.953769,1.137821,0.995203,-0.05666141,-0.0828537,-49.32228,-27.3735,20.5901
129.51,-0.963082999999997,-2.010712,1.442772,0.9976368,-0.06006079,-0.08675066,-49.32228,-27.3735,20.5901
129.52,-0.7133026,-1.947972,1.379281,1.001522,-0.05661659,-0.08581857,-49.32228,-27.3735,20.5901
129.53,-0.464021,-1.886091,1.377529,1.009348,-0.06045335,-0.08931689,-49.32228,-27.3735,20.5901
129.54,-0.214994,-1.526855,1.375818,1.01268,-0.05214953,-0.0888151,-48.95055,-27.00966,20.5844
129.55,-0.02849326,-1.286977,1.006388,1.016539,-0.04920119,-0.09028281,-48.95055,-27.00966,20.5844
129.56,0.1577732,-0.809569099999998,0.760046700000001,1.018553,-0.05404976,-0.09035244,-48.95055,-27.00966,20.5844
129.57,-0.2149644,-0.630137599999999,0.5140342,1.014118,-0.05409778,-0.09268564,-48.95055,-27.00966,20.5844
129.58,-0.02856122,-0.0939339100000002,0.0844215500000001,1.014068,-0.05313576,-0.095552,-48.95055,-27.00966,20.5844
129.59,-0.02862289,0.1441824,-0.0994972100000002,1.016094,-0.05407499,-0.09127601,-49.32429,-27.00535,20.58633
129.6,0.1577023,0.3820371,-0.344488,1.015118,-0.05310673,-0.09029552,-49.32429,-27.00535,20.58633
129.61,-0.02880453,0.5600653,-0.650512499999999,1.011715,-0.05215442,-0.08784299,-49.32429,-27.00535,20.58633
129.62,-0.0907867299999999,0.678342299999998,-0.833585100000001,1.008307,-0.05510959,-0.08925695,-49.32429,-27.00535,20.58633
129.63,-0.02853726,0.855886299999997,-0.955201800000001,1.007347,-0.05560106,-0.08828902,-49.32429,-27.00535,20.58633
129.64,-0.3388859,1.092679,-0.892699000000002,1.001938,-0.04882146,-0.08432111,-49.32429,-27.00535,20.58633
129.65,-0.1523271,1.031685,-0.768991100000002,0.9994789,-0.05812325,-0.09346936,-49.32429,-27.00535,20.58633
129.66,0.03409497,1.030296,-1.012987,0.9980595,-0.05226381,-0.08477408,-49.32429,-27.00535,20.58633
129.67,0.2824573,0.8504937,-1.011772,0.9956234,-0.05472378,-0.08619773,-49.32429,-27.00535,20.58633
129.68,0.3442184,0.849500199999998,-0.887991699999998,0.9976485,-0.05663989,-0.08288836,-49.32429,-27.00535,20.58633
129.69,0.840351800000001,0.610598100000001,-0.702707999999999,0.9912673,-0.05035547,-0.07891078,-49.69801,-27.00103,20.58826
129.7,0.5288143,0.3125856,-0.579277099999997,0.9927424,-0.05375789,-0.08135652,-49.69801,-27.00103,20.58826
129.71,0.590129399999999,-0.04459897,-0.2108856,0.9961495,-0.05177959,-0.08090919,-49.69801,-27.00103,20.58826
129.72,0.4651173,-0.2230136,0.0959135599999999,0.9972527,-0.0551529,-0.07472379,-49.69801,-27.00103,20.58826
129.73,0.2782439,-0.4606945,0.0958123199999998,0.995664,-0.04934172,-0.07848569,-49.69801,-27.00103,20.58826
129.74,-0.0946450100000001,-0.579115000000002,0.3406344,0.9971659,-0.05224828,-0.07853163,-48.58005,-27.02022,20.13437
129.75,-0.15672,-0.637728300000003,0.646471299999999,0.9967397,-0.05369932,-0.07518341,-48.58005,-27.02022,20.13437
129.76,-0.2185416,-0.696417600000002,1.013381,0.99804,-0.05226938,-0.08621146,-48.58005,-27.02022,20.13437
129.77,-0.5286126,-0.576375399999999,0.8895599,1.001992,-0.05173537,-0.08290889,-48.58005,-27.02022,20.13437
129.78,-0.590044999999998,-0.754122299999998,0.949687700000003,0.9989899,-0.04933944,-0.08572107,-48.58005,-27.02022,20.13437
129.79,-0.713477200000001,-0.5151954,0.8871727,1.002932,-0.0517379,-0.08579749,-48.94779,-27.00432,20.96848
129.8,-0.588329700000001,-0.4551702,1.008606,1.004408,-0.05025782,-0.08388924,-48.94779,-27.00432,20.96848
129.81,-0.4633784,-0.1572593,0.884849300000002,1.008728,-0.04828947,-0.088247,-48.94779,-27.00432,20.96848
129.82,-0.587047699999999,0.0807496500000001,0.8837956,1.010748,-0.05362462,-0.08832081,-48.94779,-27.00432,20.96848
129.83,-0.2137514,0.02102714,0.5151178,1.008231,-0.05317813,-0.09307317,-48.94779,-27.00432,20.96848
129.84,-0.151289,0.4372829,0.0855423699999999,1.00731,-0.0541469,-0.08971382,-49.69525,-26.99569,20.97235
129.85,-0.02694518,0.49628,-0.1596808,1.012183,-0.05313256,-0.09025391,-49.69525,-26.99569,20.97235
129.86,0.34555,0.614581000000002,-0.2820285,1.011881,-0.05845395,-0.08118973,-49.69525,-26.99569,20.97235
129.87,0.779604400000001,0.791937599999997,-0.587908100000001,1.004944,-0.05756333,-0.08683374,-49.69525,-26.99569,20.97235
129.88,0.716665299999999,0.791017700000003,-0.832266199999998,1.002938,-0.05173604,-0.08531837,-49.69525,-26.99569,20.97235
129.89,0.5294564,0.849514300000002,-0.953788299999998,0.9995643,-0.05321662,-0.08288679,-48.95055,-27.00966,20.5844
129.9,0.2183484,0.729429399999998,-0.6460368,1.000993,-0.04833235,-0.08142833,-48.95055,-27.00966,20.5844
129.91,0.3422669,0.787909999999999,-0.767619600000002,1.002421,-0.05272464,-0.08819455,-48.95055,-27.00966,20.5844
129.92,0.03127698,0.786920400000001,-0.766616899999999,1.000524,-0.05223671,-0.08337139,-48.95055,-27.00966,20.5844
129.93,-0.3413993,0.5481392,-0.4593701,0.9990239,-0.05274735,-0.08622952,-48.95055,-27.00966,20.5844
129.94,-0.5272596,0.4285449,-0.3976442,0.9975421,-0.05374084,-0.08813358,-49.32228,-27.3735,20.5901
129.95,-0.712945200000001,0.3090262,0.03176448,0.9946198,-0.05425139,-0.08761703,-49.32228,-27.3735,20.5901
129.96,-0.712010599999998,0.0707331700000001,0.2156336,0.9965987,-0.05227486,-0.08427416,-49.32228,-27.3735,20.5901
129.97,-0.5248271,-0.1673727,0.2768005,0.9913011,-0.05815743,-0.08328991,-49.32228,-27.3735,20.5901
129.98,-0.3999751,-0.3456332,0.399001,0.9965914,-0.05715922,-0.08910728,-49.32228,-27.3735,20.5901
129.99,0.0971424799999999,-0.4047267,0.3985192,0.996587,-0.05569576,-0.08813646,-49.32429,-27.00535,20.58633
130,0.1589803,-0.4042371,0.2141289,1.002017,-0.06149293,-0.08970037,-49.32429,-27.00535,20.58633
130.01,0.903761899999998,-0.5226724,0.3364467,1.000648,-0.06098955,-0.08200943,-49.32429,-27.00535,20.58633
130.02,0.902665700000001,-0.581375300000001,0.3361203,1.000061,-0.05662765,-0.08531865,-49.32429,-27.00535,20.58633
130.03,1.025705,-0.5211174,0.2745684,0.9999883,-0.05323089,-0.08768494,-49.32429,-27.00535,20.58633
130.04,0.713671600000002,-0.758241700000001,0.2742337,0.9999891,-0.05274245,-0.08720163,-50.07697,-26.6348,20.13833
130.05,0.2781589,-0.4599876,0.0900572200000001,1.004354,-0.05124955,-0.08868884,-50.07697,-26.6348,20.13833
130.06,-0.1567873,-0.5189936,-0.03270038,1.002974,-0.04928458,-0.0805062,-50.07697,-26.6348,20.13833
130.07,-0.653244599999997,-0.2209278,0.2736054,1.007872,-0.04923967,-0.08009642,-50.07697,-26.6348,20.13833
130.08,-0.900731600000003,-0.2801406,0.08948751,1.006393,-0.05267349,-0.08393792,-50.07697,-26.6348,20.13833
130.09,-1.147888,-0.1608456,0.3345678,1.007874,-0.05607406,-0.08590454,-48.57683,-27.01398,20.58247
130.1,-1.146369,-0.1606623,0.02786368,1.009775,-0.05021418,-0.08492376,-48.57683,-27.01398,20.58247
130.11,-0.8345637,-0.101045,0.02784795,1.001565,-0.05855734,-0.08439796,-48.57683,-27.01398,20.58247
130.12,-0.3988211,0.01809977,-0.03337449,1.005997,-0.05997461,-0.08351469,-48.57683,-27.01398,20.58247
130.13,0.0983340100000001,-0.1009221,-0.03314004,1.002597,-0.05706857,-0.07912891,-48.57683,-27.01398,20.58247
130.14,0.408634,0.01812905,-0.2168341,1.003512,-0.05610166,-0.08296739,-48.95256,-26.64152,20.58063
130.15,0.4701586,0.1966517,-0.155278,0.999055,-0.05371493,-0.08480052,-48.95256,-26.64152,20.58063
130.16,0.593780399999998,0.3153104,-0.0938762799999999,1.000003,-0.04785624,-0.08188939,-48.95256,-26.64152,20.58063
130.17,0.2206512,0.3744047,-0.0937583700000003,1.000535,-0.04979268,-0.08047572,-48.95256,-26.64152,20.58063
130.18,-0.02795302,0.3142946,0.1514174,1.002532,-0.05269307,-0.08004947,-48.95256,-26.64152,20.58063
130.19,-0.2142461,0.670803900000001,0.02871747,1.003041,-0.0526832,-0.07861903,-49.32429,-27.00535,20.58633
130.2,0.2206003,0.4319256,0.1512489,1.00409,-0.06144229,-0.08110391,-49.32429,-27.00535,20.58633
130.21,0.3444662,0.728493200000003,0.08992019,1.004526,-0.05803565,-0.08203977,-49.32429,-27.00535,20.58633
130.22,0.406208,0.4301831,-0.0940439699999999,1.004038,-0.05266902,-0.07719553,-49.32429,-27.00535,20.58633
130.23,0.03315839,0.667528900000001,-0.0939066099999999,1.002918,-0.05223005,-0.08723905,-49.32429,-27.00535,20.58633
130.24,0.0951546400000002,0.666671799999998,-0.2776976,1.008316,-0.04875993,-0.0829739,-49.32353,-26.63186,20.96664
130.25,-0.09131263,0.844342499999999,-0.0322331,1.006822,-0.04926871,-0.08535291,-49.32353,-26.63186,20.96664
130.26,-0.4016604,0.605451900000002,-0.1547408,1.005394,-0.04878205,-0.08197404,-49.32353,-26.63186,20.96664
130.27,-0.4633109,0.783105999999999,-0.0932820100000002,1.002542,-0.0546431,-0.08102447,-49.32353,-26.63186,20.96664
130.28,-0.586902299999999,0.722744300000003,-0.0932226200000002,1.001895,-0.05127478,-0.08961241,-49.32353,-26.63186,20.96664
130.29,-0.4620308,0.662364900000001,-0.0930862600000002,0.9975443,-0.05227554,-0.08668365,-48.58205,-26.65207,20.1306
130.3,-0.2130064,0.721172699999999,-0.1542146,0.9965321,-0.0532703,-0.09003201,-48.58205,-26.65207,20.1306
130.31,-0.0264301,0.482362,-0.1540016,0.997126,-0.05714191,-0.08576035,-48.58205,-26.65207,20.1306
130.32,0.2218131,0.660357700000002,-0.1537504,0.9999226,-0.04934382,-0.0890888,-48.58205,-26.65207,20.1306
130.33,0.2835529,0.1836624,-0.2147063,0.995023,-0.05085404,-0.09094851,-48.58205,-26.65207,20.1306
130.34,0.2830797,0.3618837,-0.3982686,1.000976,-0.05566074,-0.08915712,-49.70324,-26.63912,20.1364
130.35,0.4070145,0.3617095,-0.3978069,1.000008,-0.05761937,-0.09011824,-49.70324,-26.63912,20.1364
130.36,0.5308326,0.004463267,-0.4586872,0.9980689,-0.05470226,-0.0862324,-49.70324,-26.63912,20.1364
130.37,0.468089,-0.174013,-0.3356976,1.000483,-0.05371316,-0.08769605,-49.70324,-26.63912,20.1364
130.38,0.03276768,-0.35234,-0.3965789,1.002414,-0.05321493,-0.08915698,-49.70324,-26.63912,20.1364
130.39,-0.0295947,-0.3518243,-0.2122976,1.002486,-0.05710013,-0.087274,-48.57804,-27.38836,20.13814
130.4,-0.3400006,-0.4703254,-0.0895405100000001,0.9975313,-0.05227925,-0.08764188,-48.57804,-27.38836,20.13814
130.41,-0.5258822,-0.469716,0.03313944,1.000966,-0.05371071,-0.08818212,-48.57804,-27.38836,20.13814
130.42,-0.587279099999998,-0.588087799999999,0.1558193,0.9999551,-0.0537286,-0.09056386,-48.57804,-27.38836,20.13814
130.43,-0.4002718,-0.587367800000003,0.1557199,1.000537,-0.05662706,-0.08628383,-48.57804,-27.38836,20.13814
130.44,-0.2134408,-0.646064199999997,0.03293754,0.9995273,-0.05615652,-0.08818226,-48.95256,-26.64152,20.58063
130.45,-0.2131922,-0.585613000000003,0.2167667,1.003979,-0.05756823,-0.08586162,-48.95256,-26.64152,20.58063
130.46,-0.02669374,-0.7038206,0.09394613,1.004914,-0.05610731,-0.08777941,-48.95256,-26.64152,20.58063
130.47,0.0973180100000002,-0.643427600000002,0.1550349,1.001128,-0.05805835,-0.08007474,-48.95256,-26.64152,20.58063
130.48,0.2834069,-0.761450399999998,0.2161817,1.007415,-0.05802282,-0.08543524,-48.95256,-26.64152,20.58063
130.49,0.283051,-0.819965500000002,0.1546649,1.003465,-0.05269746,-0.08341718,-48.95055,-27.00966,20.5844
130.5,0.2826369,-0.3429576,0.2158506,1.001934,-0.05175208,-0.08722099,-48.95055,-27.00966,20.5844
130.51,0.1579331,-0.639809799999999,0.2156565,1.002485,-0.05368294,-0.08436994,-48.95055,-27.00966,20.5844
130.52,0.03352237,-0.758042800000002,0.03141893,1.008378,-0.05508917,-0.0839866,-48.95055,-27.00966,20.5844
130.53,-0.02863564,-0.4598076,0.2764375,1.005468,-0.05169038,-0.07912444,-48.95055,-27.00966,20.5844
130.54,-0.4633525,-0.4591927,0.2147295,1.006477,-0.05313779,-0.07819264,-49.32629,-26.6372,20.58256
130.55,-0.2145995,-0.4586346,0.398311,1.003978,-0.04975697,-0.07908688,-49.32629,-26.6372,20.58256
130.56,-0.4624726,-0.2200658,0.3364212,1.009406,-0.04774289,-0.07387607,-49.32629,-26.6372,20.58256
130.57,-0.896488500000001,0.01819024,0.581056699999998,1.012131,-0.04435929,-0.08634554,-49.32629,-26.6372,20.58256
130.58,-1.019614,0.0777510900000001,0.7641587,1.014701,-0.04381406,-0.07679357,-49.32629,-26.6372,20.58256
130.59,-1.390911,0.1371624,0.763198900000003,1.007933,-0.04726923,-0.07385108,-50.07174,-26.99671,20.59019
130.6,-1.575298,0.3154421,0.8235048,1.004511,-0.05071655,-0.07670659,-50.07174,-26.99671,20.59019
130.61,-1.635376,0.3744801,0.945018600000001,1.010759,-0.05020371,-0.0844585,-50.07174,-26.99671,20.59019
130.62,-1.757515,0.3145755,1.372722,1.015165,-0.04332874,-0.07823368,-50.07174,-26.99671,20.59019
130.63,-2.686734,0.4331796,1.616171,1.009779,-0.03849545,-0.07428254,-50.07174,-26.99671,20.59019
130.64,-3.676765,0.670559000000003,1.981863,1.016574,-0.03454442,-0.07482523,-49.32429,-27.00535,20.58633
130.65,-5.10015,1.026677,2.592191,1.023856,-0.03596001,-0.08021217,-49.32429,-27.00535,20.58633
130.66,-6.21823599999999,1.44324,3.327827,1.024309,-0.03840717,-0.08503126,-49.32429,-27.00535,20.58633
130.67,-7.21209099999998,1.681275,3.940858,1.024238,-0.03745072,-0.08933499,-49.32429,-27.00535,20.58633
130.68,-7.46055500000003,1.97882,3.818251,1.015934,-0.03947392,-0.09019209,-49.32429,-27.00535,20.58633
130.69,-7.27420699999999,1.97882,3.634342,1.002205,-0.0405806,-0.09336017,-49.32429,-27.00535,20.58633
130.7,-6.52881599999999,1.859802,3.327827,0.9896559,-0.05529173,-0.09378466,-49.32429,-27.00535,20.58633
130.71,-4.665339,1.859802,2.653494,0.9833636,-0.05923474,-0.09229066,-49.32429,-27.00535,20.58633
130.72,-2.553397,1.621766,1.672646,0.9761826,-0.06413724,-0.0850417,-49.32429,-27.00535,20.58633
130.73,-0.4414563,1.324222,0.753101500000001,0.97473,-0.05877551,-0.07922535,-49.32429,-27.00535,20.58633
130.74,1.297789,1.026677,-0.595564399999999,0.9727708,-0.04756429,-0.06951883,-49.32826,-27.38508,19.75792
130.75,2.105296,0.669623299999997,-1.3312,0.9752937,-0.04800893,-0.06428733,-49.32826,-27.38508,19.75792
130.76,1.359905,0.4910965,-1.821624,0.9838755,-0.03090677,-0.06570292,-49.32826,-27.38508,19.75792
130.77,0.3660506,0.3720787,-2.373351,0.9950109,-0.03279307,-0.07594073,-49.32826,-27.38508,19.75792
130.78,-1.186847,0.1935519,-2.741169,1.004324,-0.03221729,-0.07415181,-49.32826,-27.38508,19.75792
130.79,-2.553397,-0.04448388,-3.047684,1.008199,-0.03561118,-0.07998607,-49.33027,-27.01693,19.75415
130.8,-4.044179,-0.1635017,-3.17029,1.004301,-0.03027097,-0.07413506,-49.33027,-27.01693,19.75415
130.81,-5.286498,-0.1039928,-3.415502,1.003822,-0.03613093,-0.07849048,-49.33027,-27.01693,19.75415
130.82,-6.21823599999999,-0.4015375,-3.78332,1.000922,-0.04347028,-0.08234469,-49.33027,-27.01693,19.75415
130.83,-6.96362699999999,-0.4015375,-4.151138,0.9980617,-0.04640444,-0.07945348,-49.33027,-27.01693,19.75415
130.84,-7.025743,-0.3420286,-4.518956,0.9888462,-0.06013455,-0.0856676,-49.33027,-27.01693,19.75415
130.85,-6.094005,-0.2230107,-5.00938,0.9919571,-0.06835829,-0.08003096,-49.33027,-27.01693,19.75415
130.86,-4.168411,-0.6395732,-5.377198,0.9944163,-0.07223867,-0.08249474,-49.33027,-27.01693,19.75415
130.87,-2.242818,-0.6990822,-5.80631900000002,0.9968524,-0.06538463,-0.07720043,-49.33027,-27.01693,19.75415
130.88,-0.752035899999999,-0.818099999999999,-6.35804599999998,1.002579,-0.06049133,-0.08347034,-49.33027,-27.01693,19.75415
130.89,0.117587,-0.818099999999999,-6.35804599999998,1.008947,-0.05408571,-0.07727744,-48.95453,-27.38939,19.75599
130.9,0.614514300000001,-0.937117900000002,-6.23543999999999,1.014845,-0.05597852,-0.07689829,-48.95453,-27.38939,19.75599
130.91,0.05547104,-0.996626799999999,-5.99022800000001,1.012261,-0.04432216,-0.07676309,-48.95453,-27.38939,19.75599
130.92,-0.4414563,-0.580064299999998,-5.80631900000002,1.010756,-0.04825183,-0.08300439,-48.95453,-27.38939,19.75599
130.93,-0.814151800000002,-0.5205554,-5.438501,1.002912,-0.05174347,-0.08723485,-48.95453,-27.38939,19.75599
130.94,-0.814151800000002,-0.4015375,-5.193289,0.9990911,-0.05565753,-0.08385903,-48.94976,-27.7522,20.14384
130.95,-0.5656881,-0.3420286,-4.641562,1.001435,-0.04541229,-0.08236837,-48.94976,-27.7522,20.14384
130.96,-0.814151800000002,-0.1039928,-4.028532,1.002885,-0.03905715,-0.07802262,-48.94976,-27.7522,20.14384
130.97,-1.870122,0.1340429,-3.538108,1.000491,-0.03955225,-0.07463828,-48.94976,-27.7522,20.14384
130.98,-2.615513,0.1340429,-2.863775,0.9990479,-0.04102305,-0.07415093,-48.94976,-27.7522,20.14384
130.99,-3.42302,0.0745339900000001,-1.94423,1.011784,-0.0365115,-0.06902318,-48.95052,-28.12569,19.76353
131,-4.478991,0.2530608,-0.902079399999998,1.017995,-0.02575639,-0.07045854,-48.95052,-28.12569,19.76353
131.01,-6.15612100000001,0.4315876,-0.2277464,1.021711,-0.01796641,-0.07811294,-48.95052,-28.12569,19.76353
131.02,-8.20594600000002,0.907659100000002,0.753101500000001,1.02463,-0.02429209,-0.08491672,-48.95052,-28.12569,19.76353
131.03,-9.19979999999998,1.205204,1.488737,1.019611,-0.01851291,-0.08910921,-48.95052,-28.12569,19.76353
131.04,-10.13154,1.383731,2.040464,1.010255,-0.01763639,-0.09280206,-48.20306,-28.13432,19.75967
131.05,-10.44212,1.740784,2.408283,1.006335,-0.02255518,-0.0975797,-48.20306,-28.13432,19.75967
131.06,-10.06942,2.573909,3.205221,1.004757,-0.005023419,-0.09022126,-48.20306,-28.13432,19.75967
131.07,-11.06328,2.633418,3.756948,0.9948331,0.02170243,-0.07691589,-48.20306,-28.13432,19.75967
131.08,-14.41754,4.061633,4.737796,0.9716624,0.0380475,-0.0754893,-48.20306,-28.13432,19.75967
131.09,-17.08852,5.013776,4.983008,0.9565134,0.02912966,-0.08205745,-48.57754,-28.5035,19.38129
131.1,-18.952,5.251812,4.799099,0.942022,0.01098784,-0.08440001,-48.57754,-28.5035,19.38129
131.11,-18.51719,5.192302,4.002161,0.9374094,-0.01192253,-0.08404843,-48.57754,-28.5035,19.38129
131.12,-15.90832,5.013776,2.592191,0.9409942,-0.02161097,-0.08082688,-48.57754,-28.5035,19.38129
131.13,-13.05099,4.716231,0.3239805,0.9497883,-0.02348908,-0.08336406,-48.57754,-28.5035,19.38129
131.14,-10.62847,4.418686,-1.94423,0.9656351,-0.03598938,-0.08034103,-48.58076,-28.50974,18.93319
131.15,-8.26806199999998,4.299668,-4.028532,0.979669,-0.02711914,-0.08382057,-48.58076,-28.50974,18.93319
131.16,-5.410729,4.24016,-5.377198,1.016583,-0.006847858,-0.08561322,-48.58076,-28.50974,18.93319
131.17,-5.721309,4.299668,-5.86762200000002,1.034699,0.05762761,-0.06376331,-48.58076,-28.50974,18.93319
131.18,-10.06942,4.537704,-6.41934899999997,1.054751,0.1089325,-0.05499052,-48.58076,-28.50974,18.93319
131.19,-17.7718,5.370829,-4.580259,1.066469,0.147465,-0.05866595,-48.58277,-28.14159,18.92942
131.2,-28.20727,6.02542699999998,-1.821624,1.056634,0.1590809,-0.05219814,-48.58277,-28.14159,18.92942
131.21,-39.13967,5.90640999999998,1.488737,1.036262,0.142349,-0.0539658,-48.58277,-28.14159,18.92942
131.22,-47.77378,5.668374,2.592191,1.009028,0.07686505,-0.06371428,-48.58277,-28.14159,18.92942
131.23,-50.38265,5.84689999999997,2.7761,0.9874321,0.005154884,-0.06017807,-48.58277,-28.14159,18.92942
131.24,-46.96628,5.073285,1.427434,0.9642071,-0.06563774,-0.0676325,-48.21698,-28.90536,17.27067
131.25,-35.78541,4.359177,-1.3312,0.9567618,-0.1372324,-0.066693,-48.21698,-28.90536,17.27067
131.26,-24.72878,3.704579,-3.905926,0.9652013,-0.1493292,-0.06835297,-48.21698,-28.90536,17.27067
131.27,-14.29331,3.526052,-6.90977299999999,0.9932789,-0.1592797,-0.06308673,-48.21698,-28.90536,17.27067
131.28,-5.90765700000002,3.168999,-8.626258,1.015031,-0.1347478,-0.06079373,-48.21698,-28.90536,17.27067
131.29,-0.5656881,2.276365,-10.22014,1.039252,-0.1214173,-0.06677683,-47.84598,-30.03105,16.06379
131.3,3.099151,2.038329,-10.83317,1.06864,-0.08905909,-0.07171458,-47.84598,-30.03105,16.06379
131.31,3.596078,1.562257,-10.64926,1.087438,-0.06016454,-0.06694666,-47.84598,-30.03105,16.06379
131.32,1.111442,0.967167999999999,-10.71056,1.101863,-0.03471847,-0.0631039,-47.84598,-30.03105,16.06379
131.33,-2.863977,0.967167999999999,-10.22014,1.114699,-0.0497072,-0.06772615,-47.84598,-30.03105,16.06379
131.34,-5.534961,1.086186,-9.54580200000001,1.115941,-0.07794055,-0.07325331,-47.10651,-29.68312,15.22398
131.35,-5.162266,1.086186,-9.72971200000003,1.100421,-0.1247756,-0.06863537,-47.10651,-29.68312,15.22398
131.36,-1.683775,1.324222,-10.09753,1.083412,-0.1730943,-0.06688394,-47.10651,-29.68312,15.22398
131.37,5.521671,0.848150100000002,-11.38489,1.059553,-0.1937806,-0.07678165,-47.10651,-29.68312,15.22398
131.38,14.2179,0.907659100000002,-12.12053,1.047427,-0.2046003,-0.07861693,-47.10651,-29.68312,15.22398
131.39,22.29297,1.383731,-12.61095,1.031959,-0.170157,-0.07043861,-46.35704,-30.0599,15.22388
131.4,27.38647,1.919311,-12.30444,1.024014,-0.1162021,-0.06747402,-46.35704,-30.0599,15.22388
131.41,27.82129,2.692927,-11.32359,1.011739,-0.0612886,-0.05821006,-46.35704,-30.0599,15.22388
131.42,24.40491,3.883106,-9.79101500000002,0.9986935,-0.02927149,-0.05392032,-46.35704,-30.0599,15.22388
131.43,17.94485,5.132793,-7.09368199999998,0.9812929,-0.009485426,-0.05685974,-46.35704,-30.0599,15.22388
131.44,12.04384,5.78739200000002,-4.457653,0.9730824,-0.01392296,-0.05294657,-46.34901,-31.53249,15.23897
131.45,7.26091699999999,6.85855199999999,-2.128139,0.9747911,-0.03092914,-0.05023925,-46.34901,-31.53249,15.23897
131.46,3.844542,7.45364199999999,-0.04383745,0.9602434,-0.0432283,-0.05157331,-46.34901,-31.53249,15.23897
131.47,1.546253,7.63216899999999,1.304829,0.9549971,-0.05397852,-0.05111005,-46.34901,-31.53249,15.23897
131.48,-0.0687607899999999,7.92971299999999,2.714797,0.9501175,-0.06378284,-0.05879045,-46.34901,-31.53249,15.23897
131.49,-0.689919899999999,7.63216899999999,3.38913,0.9374031,-0.08000569,-0.07264293,-45.97131,-31.15707,16.06544
131.5,0.3039347,6.918062,3.756948,0.9375498,-0.0950989,-0.07516839,-45.97131,-31.15707,16.06544
131.51,2.105296,6.44199000000003,4.124766,0.9413114,-0.09168997,-0.08333962,-45.97131,-31.15707,16.06544
131.52,4.217237,5.727883,4.002161,0.9501367,-0.09014162,-0.08057714,-45.97131,-31.15707,16.06544
131.53,5.770135,5.073285,3.879555,0.9591802,-0.07401946,-0.08488277,-45.97131,-31.15707,16.06544
131.54,6.32917800000002,4.180651,3.511736,0.9678197,-0.0617831,-0.08634023,-45.9693,-31.52522,16.06922
131.55,6.76398999999999,3.049981,3.327827,0.9794869,-0.06121178,-0.0912937,-45.9693,-31.52522,16.06922
131.56,6.95033699999999,2.216856,3.021312,0.9869151,-0.06502684,-0.08807737,-45.9693,-31.52522,16.06922
131.57,7.81996000000001,0.7886412,2.530888,0.990819,-0.07085363,-0.09393257,-45.9693,-31.52522,16.06922
131.58,8.62746700000002,-0.877608999999999,2.16307,1.002167,-0.0746324,-0.0902926,-45.9693,-31.52522,16.06922
131.59,9.43497399999997,-2.127296,1.733949,1.001658,-0.07024821,-0.08785234,-45.97256,-30.41543,16.44199
131.6,9.86978500000003,-3.853055,0.937010400000001,0.9997465,-0.06195275,-0.07721271,-45.97256,-30.41543,16.44199
131.61,10.24248,-4.507654,0.5078895,1.000356,-0.07265503,-0.07779092,-45.97256,-30.41543,16.44199
131.62,10.18037,-5.697833,1.059616,0.9801751,-0.05431554,-0.07063972,-45.97256,-30.41543,16.44199
131.63,10.05613,-7.066538,0.875707499999998,0.9811468,-0.04991472,-0.06726204,-45.97256,-30.41543,16.44199
131.64,9.12439399999997,-7.066538,1.243526,0.9844533,-0.04552396,-0.07206411,-46.72279,-30.41215,16.06177
131.65,8.25477199999998,-7.84015400000003,2.101768,0.9794505,-0.03339326,-0.06949443,-46.72279,-30.41215,16.06177
131.66,6.45340999999999,-8.43524400000002,2.530888,0.9802783,-0.02952173,-0.07714074,-46.72279,-30.41215,16.06177
131.67,5.521671,-8.79229599999998,3.38913,0.9816971,-0.02268744,-0.07470729,-46.72279,-30.41215,16.06177
131.68,4.527817,-9.14934999999999,4.124766,0.9836701,-0.02461839,-0.07523091,-46.72279,-30.41215,16.06177
131.69,3.72031,-9.20885900000003,5.22822,0.9905276,-0.02211409,-0.07243232,-46.34232,-30.03139,17.27233
131.7,3.347615,-9.38738599999998,6.08646199999999,0.9880779,-0.01627811,-0.06755615,-46.34232,-30.03139,17.27233
131.71,3.223383,-9.506404,6.760795,0.9899879,-0.02115638,-0.07529174,-46.34232,-30.03139,17.27233
131.72,3.471847,-9.44689500000002,7.80294599999997,0.9968193,-0.01426546,-0.07053895,-46.34232,-30.03139,17.27233
131.73,3.72031,-9.74443999999999,8.04815800000001,1.001729,-0.01470528,-0.06965424,-46.34232,-30.03139,17.27233
131.74,4.652049,-9.74443999999999,8.66118800000002,1.008484,-0.0195535,-0.08081302,-47.08777,-30.3909,17.27996
131.75,5.708019,-9.86345800000001,9.33552100000003,1.006958,-0.01128344,-0.07784627,-47.08777,-30.3909,17.27996
131.76,6.26706299999998,-10.22051,9.58073199999998,1.014634,-0.002469161,-0.08123568,-47.08777,-30.3909,17.27996
131.77,6.45340999999999,-10.04198,9.82594499999999,1.019006,0.003908095,-0.07788978,-47.08777,-30.3909,17.27996
131.78,5.95648299999998,-9.982475,10.25507,1.024242,0.01660834,-0.07737803,-47.08777,-30.3909,17.27996
131.79,4.838397,-10.04198,10.43897,1.02079,0.01510548,-0.08069591,-47.45953,-29.63871,18.10653
131.8,3.844542,-9.62542200000002,10.31637,1.018324,0.01458995,-0.08258191,-47.45953,-29.63871,18.10653
131.81,3.347615,-9.74443999999999,10.19376,1.016441,0.002387847,-0.08792925,-47.45953,-29.63871,18.10653
131.82,3.968773,-9.56591299999998,9.94855000000001,1.017999,-0.00245574,-0.08559632,-47.45953,-29.63871,18.10653
131.83,4.341469,-9.74443999999999,9.51942899999998,1.017528,-0.003431344,-0.08511865,-47.45953,-29.63871,18.10653
131.84,5.148976,-9.56591299999998,8.967703,1.021302,0.004375349,-0.08846095,-47.83727,-28.8981,18.10092
131.85,5.08686,-9.38738599999998,8.29336900000002,1.012219,0.004841415,-0.07251398,-47.83727,-28.8981,18.10092
131.86,5.024744,-9.26836800000001,7.496431,1.011145,0.00627026,-0.078237,-47.83727,-28.8981,18.10092
131.87,4.838397,-8.91131499999997,6.760795,1.003727,0.003741237,-0.08629902,-47.83727,-28.8981,18.10092
131.88,4.527817,-9.030333,6.20906799999998,0.9997946,0.00809529,-0.08381023,-47.83727,-28.8981,18.10092
131.89,3.968773,-8.79229599999998,5.596038,0.9992782,0.01150075,-0.08281572,-47.83209,-28.14398,19.37366
131.9,3.099151,-8.37573400000002,4.983008,0.9929121,0.01486012,-0.08030065,-47.83209,-28.14398,19.37366
131.91,2.415876,-8.01868099999998,4.737796,0.9953539,0.01243947,-0.08275187,-47.83209,-28.14398,19.37366
131.92,1.297789,-7.78064499999999,4.063463,0.9959701,0.006133107,-0.07898029,-47.83209,-28.14398,19.37366
131.93,0.738746100000001,-7.36408300000002,3.695645,1.000333,0.001766648,-0.08578811,-47.83209,-28.14398,19.37366
131.94,0.117587,-7.00702900000001,3.082615,0.9968746,0.004655987,-0.08571444,-48.5808,-27.39371,19.75406
131.95,-0.5035722,-6.41193999999999,2.530888,0.9959209,-0.0007161245,-0.08862138,-48.5808,-27.39371,19.75406
131.96,-0.814151800000002,-6.23341299999998,1.733949,0.9925001,-0.003186574,-0.09051027,-48.5808,-27.39371,19.75406
131.97,-0.2551085,-6.29292200000002,0.814404500000002,0.9974706,-0.006538436,-0.0877342,-48.5808,-27.39371,19.75406
131.98,0.4281665,-6.41193999999999,0.2013745,1.003839,-0.004038446,-0.08492868,-48.5808,-27.39371,19.75406
131.99,0.5523984,-6.41193999999999,-0.3503525,1.017528,0.00145115,-0.08076466,-48.95177,-27.38405,20.14008
132,0.4281665,-5.87635899999997,-0.4116554,1.018858,0.009724755,-0.08358898,-48.95177,-27.38405,20.14008
132.01,-0.627804000000001,-5.519306,-0.902079399999998,1.016483,0.008746787,-0.07925059,-48.95177,-27.38405,20.14008
132.02,-1.311079,-5.162252,-0.779473400000002,1.022635,0.01411426,-0.08983535,-48.95177,-27.38405,20.14008
132.03,-2.553397,-4.924216,-0.6568674,1.014238,0.02036474,-0.09014213,-48.95177,-27.38405,20.14008
132.04,-4.416875,-4.567163,-0.718170499999998,1.013122,0.02373433,-0.09728578,-48.57403,-28.12466,20.14569
132.05,-6.21823599999999,-3.734038,-1.147291,1.0098,0.004692369,-0.1065039,-48.57403,-28.12466,20.14569
132.06,-7.14997500000002,-3.436493,-1.576412,0.9992193,-0.01048626,-0.1064812,-48.57403,-28.12466,20.14569
132.07,-6.40458399999997,-3.317475,-2.495957,0.9882426,-0.03296601,-0.1060353,-48.57403,-28.12466,20.14569
132.08,-4.478991,-3.138948,-3.844623,0.9863867,-0.03539569,-0.1007582,-48.57403,-28.12466,20.14569
132.09,-2.553397,-3.376984,-5.561107,0.9830318,-0.03735914,-0.09737251,-48.57081,-28.11842,20.59378
132.1,-0.876267699999999,-3.436493,-7.21628800000003,0.9895036,-0.03971193,-0.09125501,-48.57081,-28.11842,20.59378
132.11,0.5523984,-3.436493,-8.68756000000002,0.9904079,-0.036795,-0.09411848,-48.57081,-28.11842,20.59378
132.12,1.049326,-3.317475,-10.03623,0.9991213,-0.0230729,-0.08885567,-48.57081,-28.11842,20.59378
132.13,0.05547104,-2.781895,-11.20098,1.007857,-0.02496773,-0.09570496,-48.19707,-28.12274,20.59185
132.14,-1.062615,-2.365332,-11.99792,1.013165,-0.03372892,-0.1087929,-48.19707,-28.12274,20.59185
132.15,-1.311079,-1.94877,-12.73356,1.008373,-0.04204379,-0.1087948,-48.19707,-28.12274,20.59185
132.16,-1.621659,-1.829752,-13.40789,1.011233,-0.0435037,-0.1155567,-48.19707,-28.12274,20.59185
132.17,-1.559543,-1.829752,-13.95962,1.00936,-0.04447365,-0.110267,-48.19707,-28.12274,20.59185
132.18,-1.74589,-1.472698,-14.14353,1.019177,-0.04242453,-0.1060768,-47.4456,-28.86767,20.59553
132.19,-2.491281,-1.175154,-13.95962,1.016353,-0.04290723,-0.09837344,-47.4456,-28.86767,20.59553
132.2,-3.112441,-0.6395732,-13.83701,1.018783,-0.05314285,-0.1085576,-47.4456,-28.86767,20.59553
132.21,-2.553397,-0.4015375,-13.46919,1.010193,-0.06243561,-0.1008465,-47.4456,-28.86767,20.59553
132.22,-1.808006,-0.04448388,-12.79486,1.008238,-0.06587002,-0.1037228,-47.4456,-28.86767,20.59553
132.23,-0.627804000000001,-0.2230107,-12.30444,1.000852,-0.06448413,-0.1060018,-47.4456,-28.86767,20.59553
132.24,0.05547104,-0.04448388,-11.75271,1.002403,-0.06054146,-0.09640664,-47.4456,-28.86767,20.59553
132.25,0.4281665,0.2530608,-10.58795,1.000817,-0.05717061,-0.102106,-47.4456,-28.86767,20.59553
132.26,0.5523984,0.669623299999997,-9.668408,1.006294,-0.06246633,-0.09983273,-47.4456,-28.86767,20.59553
132.27,0.614514300000001,1.026677,-8.564955,1.008708,-0.06587128,-0.1051671,-47.4456,-28.86767,20.59553
132.28,0.614514300000001,1.44324,-7.27759100000002,1.006686,-0.06590706,-0.1099306,-47.4456,-28.86767,20.59553
132.29,0.862977999999999,2.038329,-6.54195500000002,1.005296,-0.0707802,-0.1085143,-47.4428,-29.97835,20.15874
132.3,1.235673,2.276365,-5.438501,0.9940522,-0.08064232,-0.1165836,-47.4428,-29.97835,20.15874
132.31,2.540108,2.038329,-5.193289,0.9970416,-0.08743603,-0.1186004,-47.4428,-29.97835,20.15874
132.32,4.093006,1.681275,-4.948077,0.9928635,-0.08594632,-0.1007979,-47.4428,-29.97835,20.15874
132.33,5.521671,1.562257,-4.457653,0.996868,-0.08979153,-0.097533,-46.69534,-29.98698,20.15488
132.34,6.826106,1.740784,-3.599411,1.00066,-0.07465645,-0.09314652,-46.69534,-29.98698,20.15488
132.35,6.88822200000001,1.621766,-2.802472,1.009316,-0.05167451,-0.08397115,-46.69534,-29.98698,20.15488
132.36,5.83225100000001,2.038329,-1.453806,1.007513,-0.032254,-0.09144875,-46.69534,-29.98698,20.15488
132.37,3.409731,2.276365,0.01746555,1.005359,-0.02109848,-0.09611589,-46.69534,-29.98698,20.15488
132.38,1.049326,2.752436,1.611344,1.023244,-0.01855831,-0.1097669,-46.69534,-29.98698,20.15488
132.39,-0.876267699999999,3.347525,3.327827,1.013338,-0.02307374,-0.1226023,-46.69534,-29.98698,20.15488
132.4,-2.180702,3.585561,4.553887,1.011297,-0.01920947,-0.1254157,-46.69534,-29.98698,20.15488
132.41,-2.739745,3.764088,5.289523,1.001113,-0.02171605,-0.120979,-46.69534,-29.98698,20.15488
132.42,-2.367049,4.24016,5.473432,0.9914369,-0.03397773,-0.1238197,-46.69534,-29.98698,20.15488
132.43,-0.627804000000001,4.299668,5.473432,0.9871737,-0.05448247,-0.1315992,-46.69534,-29.98698,20.15488
132.44,1.856833,3.585561,5.718644,0.9838319,-0.04765408,-0.119514,-46.31834,-31.10108,19.78018
132.45,4.03089,3.10949,5.534735,0.988739,-0.03247141,-0.1050798,-46.31834,-31.10108,19.78018
132.46,5.211092,3.228508,5.473432,0.989613,-0.02809845,-0.1088889,-46.31834,-31.10108,19.78018
132.47,5.397439,2.990472,5.534735,0.9939215,-0.01636884,-0.105497,-46.31834,-31.10108,19.78018
132.48,4.962628,2.752436,5.412129,0.9924716,-0.02223554,-0.1093594,-47.07581,-30.36774,18.94432
132.49,4.962628,2.335874,5.473432,0.9938909,-0.02809499,-0.1180547,-47.07581,-30.36774,18.94432
132.5,5.148976,1.97882,5.105614,0.9952687,-0.0271312,-0.1238166,-47.07581,-30.36774,18.94432
132.51,4.900512,1.800293,4.676493,1.000122,-0.02172837,-0.1219233,-47.07581,-30.36774,18.94432
132.52,4.465701,1.502748,4.247372,1.003059,-0.02023724,-0.120515,-47.07581,-30.36774,18.94432
132.53,3.533962,0.7886412,4.002161,1.0045,-0.02462581,-0.126323,-47.06907,-29.98266,20.15681
132.54,2.229528,1.026677,4.431281,1.010965,-0.01868078,-0.1134266,-47.06907,-29.98266,20.15681
132.55,0.925093900000002,0.7886412,4.063463,1.002754,-0.0231183,-0.1095134,-47.06907,-29.98266,20.15681
132.56,0.05547104,0.4910965,4.002161,0.9988471,-0.02803338,-0.1133328,-47.06907,-29.98266,20.15681
132.57,-0.1929926,0.2530608,4.124766,0.9970122,-0.02948062,-0.1056517,-47.06907,-29.98266,20.15681
132.58,-0.3793404,0.1340429,4.615191,1.007273,-0.02304614,-0.1009516,-47.44757,-29.61555,19.77089
132.59,-0.4414563,0.0745339900000001,4.799099,1.003746,-0.0270116,-0.1119564,-47.44757,-29.61555,19.77089
132.6,-0.938383600000002,-0.04448388,5.412129,1.00382,-0.02552588,-0.1052361,-47.44757,-29.61555,19.77089
132.61,-1.373195,-0.4015375,5.534735,0.997427,-0.02266236,-0.1051208,-47.44757,-29.61555,19.77089
132.62,-1.870122,-0.1039928,6.08646199999999,0.9984195,-0.02606723,-0.1070805,-47.44757,-29.61555,19.77089
132.63,-2.304934,-0.3420286,6.39297700000003,0.9925359,-0.02709947,-0.1089222,-47.07785,-28.88357,19.76142
132.64,-2.118586,-0.4610464,6.51558300000002,0.9877353,-0.04078713,-0.1142405,-47.07785,-28.88357,19.76142
132.65,-1.124731,-0.6395732,6.39297700000003,0.9872419,-0.03932799,-0.1132627,-47.07785,-28.88357,19.76142
132.66,-0.1308767,-0.6395732,6.39297700000003,0.9887497,-0.033933,-0.1055715,-47.07785,-28.88357,19.76142
132.67,0.862977999999999,-0.6990822,6.39297700000003,0.9911793,-0.03147488,-0.104627,-47.07785,-28.88357,19.76142
132.68,1.422021,-0.758591100000003,6.08646199999999,0.9940603,-0.02365265,-0.1017268,-47.44882,-28.8739,20.14743
132.69,1.235673,-0.4015375,6.08646199999999,0.9935085,-0.02221022,-0.1050612,-47.44882,-28.8739,20.14743
132.7,0.676630199999998,-0.3420286,5.77994700000002,0.9960853,-0.02996281,-0.1022881,-47.44882,-28.8739,20.14743
132.71,0.676630199999998,-0.2230107,5.596038,0.9974102,-0.02510825,-0.1084956,-47.44882,-28.8739,20.14743
132.72,0.800861999999998,-0.4015375,5.166917,1.00192,-0.02699169,-0.1023462,-47.44882,-28.8739,20.14743
132.73,0.862977999999999,-0.2230107,4.860402,1.007184,-0.02600089,-0.1100801,-47.82732,-28.50679,19.76151
132.74,0.4281665,-0.4015375,4.369978,1.003774,-0.02553887,-0.10859,-47.82732,-28.50679,19.76151
132.75,0.4902825,-0.3420286,3.940858,1.009681,-0.02645295,-0.1067651,-47.82732,-28.50679,19.76151
132.76,0.2418188,-0.1039928,3.940858,1.009779,-0.03033072,-0.1029656,-47.82732,-28.50679,19.76151
132.77,0.05547104,-0.2825196,3.573039,1.011763,-0.02932921,-0.1001102,-47.82732,-28.50679,19.76151
132.78,-0.00664487499999999,-0.580064299999998,3.082615,1.005362,-0.02305036,-0.09757002,-47.45083,-28.50576,20.14366
132.79,-0.2551085,-0.4015375,3.021312,1.005232,-0.01869344,-0.1032818,-47.45083,-28.50576,20.14366
132.8,-0.3793404,-0.4610464,2.7761,1.003434,-0.03038296,-0.1019172,-47.45083,-28.50576,20.14366
132.81,0.4902825,-0.6990822,2.285676,0.9990373,-0.02700266,-0.09847162,-47.45083,-28.50576,20.14366
132.82,0.987209900000002,-0.758591100000003,2.16307,0.9936444,-0.02705372,-0.09935358,-47.45083,-28.50576,20.14366
132.83,1.484137,-0.818099999999999,1.979162,0.9975629,-0.02750587,-0.09941325,-47.45083,-28.50576,20.14366
132.84,1.235673,-0.818099999999999,1.917858,1.000057,-0.02942323,-0.09754819,-47.45083,-28.50576,20.14366
132.85,1.422021,-0.758591100000003,1.979162,0.9922155,-0.02314987,-0.09307069,-47.45083,-28.50576,20.14366
132.86,1.235673,-0.6395732,1.917858,0.9966035,-0.02360328,-0.09457465,-47.45083,-28.50576,20.14366
132.87,0.800861999999998,-0.5205554,1.795252,0.9969798,-0.02070179,-0.1003059,-47.45083,-28.50576,20.14366
132.88,0.2418188,-0.4610464,1.856555,0.9999222,-0.02409129,-0.1027725,-48.57081,-28.11842,20.59378
132.89,-0.00664487499999999,-0.1039928,1.979162,1.003474,-0.02988339,-0.09855916,-48.57081,-28.11842,20.59378
132.9,-0.4414563,0.0745339900000001,2.101768,1.003995,-0.03035824,-0.0966538,-48.57081,-28.11842,20.59378
132.91,-0.5656881,0.1340429,2.040464,1.010176,-0.02254117,-0.1029055,-48.57081,-28.11842,20.59378
132.92,-1.311079,0.4315876,1.917858,1.01228,-0.02834061,-0.09723406,-48.57081,-28.11842,20.59378
132.93,-1.497427,0.7291322,1.733949,1.013107,-0.02886314,-0.108751,-48.20029,-28.12897,20.14375
132.94,-1.74589,0.907659100000002,1.427434,1.01272,-0.0346971,-0.1063988,-48.20029,-28.12897,20.14375
132.95,-1.311079,1.145695,1.366131,1.008839,-0.03569912,-0.1049143,-48.20029,-28.12897,20.14375
132.96,-1.000499,1.086186,0.875707499999998,1.007962,-0.04202582,-0.1030384,-48.20029,-28.12897,20.14375
132.97,-0.5656881,1.145695,0.3852835,1.00742,-0.04204497,-0.1068644,-48.20029,-28.12897,20.14375
132.98,-0.0687607899999999,1.383731,-0.3503525,1.006995,-0.04300759,-0.1030329,-48.94453,-28.11411,20.59571
132.99,0.862977999999999,1.383731,-0.902079399999998,1.005052,-0.04692671,-0.1054343,-48.94453,-28.11411,20.59571
133,1.546253,1.44324,-1.637715,1.00319,-0.04935825,-0.1006363,-48.94453,-28.11411,20.59571
133.01,2.04318,1.383731,-1.94423,1.002202,-0.05132246,-0.1030348,-48.94453,-28.11411,20.59571
133.02,2.602224,1.740784,-2.495957,1.002704,-0.04740882,-0.0986961,-48.94453,-28.11411,20.59571
133.03,2.477992,1.740784,-2.55726,1.007531,-0.04201341,-0.09871936,-48.20306,-28.13432,19.75967
133.04,1.732601,1.621766,-2.495957,1.001065,-0.03575313,-0.1009704,-48.20306,-28.13432,19.75967
133.05,0.676630199999998,2.097838,-2.434654,1.002595,-0.0376754,-0.09813319,-48.20306,-28.13432,19.75967
133.06,-0.1308767,1.97882,-2.434654,0.9977514,-0.04942231,-0.1048721,-48.20306,-28.13432,19.75967
133.07,-0.0687607899999999,2.097838,-2.434654,0.9953463,-0.05724395,-0.1087374,-48.20306,-28.13432,19.75967
133.08,0.3039347,1.97882,-2.250745,0.9980094,-0.06399553,-0.09876917,-48.20306,-28.13432,19.75967
133.09,1.049326,1.859802,-2.434654,0.9959056,-0.05819608,-0.1044406,-48.20306,-28.13432,19.75967
133.1,1.297789,1.800293,-2.312048,0.989015,-0.05240999,-0.1023768,-48.20306,-28.13432,19.75967
133.11,1.173558,1.502748,-2.250745,0.9875673,-0.04802327,-0.09704795,-48.20306,-28.13432,19.75967
133.12,1.297789,1.502748,-2.066836,0.9914612,-0.04750597,-0.09805748,-48.20306,-28.13432,19.75967
133.13,1.049326,1.205204,-1.882927,0.9905271,-0.05287251,-0.09952705,-48.19828,-28.49712,20.14752
133.14,0.676630199999998,1.026677,-1.760321,0.9963846,-0.04745364,-0.09573121,-48.19828,-28.49712,20.14752
133.15,0.862977999999999,0.907659100000002,-1.453806,0.9962999,-0.04747777,-0.1019598,-48.19828,-28.49712,20.14752
133.16,0.987209900000002,0.7291322,-1.024685,1.004135,-0.04984736,-0.1035291,-48.19828,-28.49712,20.14752
133.17,0.925093900000002,0.669623299999997,-0.840776400000003,1.002132,-0.04597195,-0.1034678,-48.19828,-28.49712,20.14752
133.18,0.676630199999998,0.610114400000001,-0.4116554,1.003568,-0.04108584,-0.1015302,-47.82933,-28.13864,19.75774
133.19,0.2418188,0.3720787,-0.2890494,0.9996833,-0.03964754,-0.09810834,-47.82933,-28.13864,19.75774
133.2,-0.3793404,0.3720787,-0.2890494,0.9996789,-0.04257815,-0.1010082,-47.82933,-28.13864,19.75774
133.21,-0.4414563,0.3125697,0.01746555,1.001249,-0.04790645,-0.09820035,-47.82933,-28.13864,19.75774
133.22,-0.1929926,0.3720787,0.2626776,1.002205,-0.04985715,-0.1015848,-47.82933,-28.13864,19.75774
133.23,-0.1308767,0.1935519,0.2013745,1.004192,-0.05080753,-0.1001836,-48.57603,-27.75651,20.14191
133.24,0.3660506,0.2530608,0.2013745,1.00809,-0.05224212,-0.1026472,-48.57603,-27.75651,20.14191
133.25,0.862977999999999,0.2530608,0.3852835,1.012982,-0.05073376,-0.1012667,-48.57603,-27.75651,20.14191
133.26,0.614514300000001,0.4910965,0.2013745,1.007958,-0.04007394,-0.1015843,-48.57603,-27.75651,20.14191
133.27,0.1797029,0.4910965,0.5691925,1.010422,-0.04541777,-0.1050189,-48.57603,-27.75651,20.14191
133.28,-0.2551085,0.7291322,0.5078895,1.004957,-0.03670114,-0.1034298,-48.19506,-28.49089,20.59562
133.29,-0.689919899999999,0.7291322,0.3852835,1.004023,-0.04206768,-0.1048994,-48.19506,-28.49089,20.59562
133.3,-0.3793404,0.848150100000002,0.5691925,0.9987006,-0.04698082,-0.104865,-48.19506,-28.49089,20.59562
133.31,0.117587,0.907659100000002,0.4465865,0.9971929,-0.04358768,-0.1048149,-48.19506,-28.49089,20.59562
133.32,0.800861999999998,0.907659100000002,0.1400715,0.9982179,-0.04698326,-0.104379,-48.19506,-28.49089,20.59562
133.33,1.297789,1.026677,0.01746555,0.9991196,-0.041626,-0.105305,-47.4556,-28.14295,19.75581
133.34,1.608369,1.205204,-0.3503525,0.9952301,-0.0392127,-0.1013956,-47.4556,-28.14295,19.75581
133.35,1.981064,0.907659100000002,-0.4116554,0.9897786,-0.03488641,-0.102719,-47.4556,-28.14295,19.75581
133.36,2.105296,0.848150100000002,-0.3503525,0.9899238,-0.04216837,-0.09846972,-47.4556,-28.14295,19.75581
133.37,2.04318,0.5506055,-0.595564399999999,0.9947302,-0.03336135,-0.0970263,-47.4556,-28.14295,19.75581
133.38,1.484137,0.3720787,-0.4729584,1.000115,-0.03038339,-0.09420271,-48.57679,-28.13,19.7616
133.39,0.676630199999998,0.01502506,-0.3503525,0.9985786,-0.02406893,-0.09364833,-48.57679,-28.13,19.7616
133.4,-0.1929926,-0.04448388,-0.2890494,0.9941478,-0.03046289,-0.1013063,-48.57679,-28.13,19.7616
133.41,-0.876267699999999,-0.2825196,-0.3503525,0.9913145,-0.03680681,-0.09940269,-48.57679,-28.13,19.7616
133.42,-0.689919899999999,-0.580064299999998,-0.3503525,0.9968723,-0.04403215,-0.09283409,-48.57679,-28.13,19.7616
133.43,-0.752035899999999,-0.818099999999999,-0.4729584,0.9929132,-0.04456802,-0.09661578,-48.9485,-28.49384,19.7673
133.44,-0.0687607899999999,-0.996626799999999,-0.718170499999998,0.9959513,-0.04939497,-0.09334542,-48.9485,-28.49384,19.7673
133.45,0.3039347,-0.996626799999999,-0.779473400000002,0.9953957,-0.04600065,-0.09522565,-48.9485,-28.49384,19.7673
133.46,0.4281665,-1.175154,-1.085988,0.998307,-0.04402851,-0.0952505,-48.9485,-28.49384,19.7673
133.47,0.925093900000002,-1.175154,-1.637715,1.005128,-0.04397568,-0.09726408,-48.9485,-28.49384,19.7673
133.48,1.111442,-1.175154,-1.699018,1.002609,-0.04548293,-0.1039497,-48.95052,-28.12569,19.76353
133.49,1.111442,-1.056136,-1.760321,1.008574,-0.04686873,-0.09829599,-48.95052,-28.12569,19.76353
133.5,0.925093900000002,-0.937117900000002,-1.637715,1.012931,-0.04147206,-0.09687496,-48.95052,-28.12569,19.76353
133.51,0.862977999999999,-0.580064299999998,-1.699018,1.018746,-0.03850651,-0.0983704,-48.95052,-28.12569,19.76353
133.52,0.676630199999998,-0.3420286,-1.760321,1.010046,-0.04343677,-0.09493362,-48.95052,-28.12569,19.76353
133.53,0.862977999999999,-0.04448388,-1.576412,1.011507,-0.04293728,-0.09495023,-47.83209,-28.14398,19.37366
133.54,0.987209900000002,0.1340429,-1.453806,1.006186,-0.05175604,-0.09830321,-47.83209,-28.14398,19.37366
133.55,1.235673,0.3125697,-1.576412,1.004192,-0.04641346,-0.0963129,-47.83209,-28.14398,19.37366
133.56,1.484137,0.5506055,-1.453806,1.003738,-0.04006069,-0.08810645,-47.83209,-28.14398,19.37366
133.57,1.794717,0.4910965,-1.208594,1.000132,-0.03623718,-0.09808595,-47.83209,-28.14398,19.37366
133.58,1.484137,0.610114400000001,-1.147291,0.9973325,-0.04159494,-0.09282008,-48.20029,-28.12897,20.14375
133.59,1.359905,0.7291322,-0.963382399999999,0.9987947,-0.04060702,-0.09235339,-48.20029,-28.12897,20.14375
133.6,1.297789,0.7291322,-0.718170499999998,0.9933591,-0.03432328,-0.09078529,-48.20029,-28.12897,20.14375
133.61,1.049326,0.669623299999997,-0.6568674,0.9929279,-0.03479931,-0.08694956,-48.20029,-28.12897,20.14375
133.62,1.173558,0.5506055,-0.595564399999999,0.997889,-0.04010677,-0.08658586,-48.20029,-28.12897,20.14375
133.63,1.173558,0.7291322,-0.4729584,0.99888,-0.04888257,-0.09338284,-47.82732,-28.50679,19.76151
133.64,1.173558,0.610114400000001,-0.5342614,1.000732,-0.04059538,-0.09381849,-47.82732,-28.50679,19.76151
133.65,1.049326,0.3720787,-0.840776400000003,0.9976799,-0.04065463,-0.1024011,-47.82732,-28.50679,19.76151
133.66,1.359905,0.1340429,-1.147291,1.000601,-0.04112095,-0.1038842,-47.82732,-28.50679,19.76151
133.67,1.856833,0.01502506,-1.515109,1.00158,-0.0406239,-0.1034148,-47.82732,-28.50679,19.76151
133.68,2.415876,0.1935519,-1.637715,1.00645,-0.03716924,-0.1020175,-47.82531,-28.87493,19.76528
133.69,2.477992,0.3125697,-1.882927,1.004425,-0.03085908,-0.1014561,-47.82531,-28.87493,19.76528
133.7,2.291644,0.1935519,-1.882927,1.004524,-0.03375999,-0.09669006,-47.82531,-28.87493,19.76528
133.71,1.856833,0.4315876,-2.128139,0.9951557,-0.03239874,-0.1008578,-47.82531,-28.87493,19.76528
133.72,1.484137,0.5506055,-2.005533,0.9970636,-0.0299542,-0.102302,-47.82531,-28.87493,19.76528
133.73,1.359905,0.669623299999997,-2.128139,0.9985691,-0.03481264,-0.1038021,-47.45359,-28.5111,19.75958
133.74,1.359905,0.5506055,-2.128139,0.9980077,-0.03532581,-0.1095488,-47.45359,-28.5111,19.75958
133.75,1.546253,0.5506055,-2.250745,0.9991131,-0.04162786,-0.1057841,-47.45359,-28.5111,19.75958
133.76,1.856833,0.3720787,-2.189442,1.002499,-0.03623794,-0.1038701,-47.45359,-28.5111,19.75958
133.77,2.229528,0.3125697,-2.066836,1.00261,-0.03620638,-0.09572502,-47.45359,-28.5111,19.75958
133.78,2.105296,0.1935519,-1.882927,1.009275,-0.03180404,-0.1053668,-48.57001,-28.86095,20.15322
133.79,1.546253,0.2530608,-1.269897,1.006869,-0.02742037,-0.09858676,-48.57001,-28.86095,20.15322
133.8,0.987209900000002,0.0745339900000001,-0.902079399999998,1.002343,-0.02310033,-0.103757,-48.57001,-28.86095,20.15322
133.81,0.3660506,0.1340429,-0.4116554,1.000544,-0.03088423,-0.09900505,-48.57001,-28.86095,20.15322
133.82,-0.0687607899999999,-0.1039928,-0.04383745,1.000572,-0.03429399,-0.09999263,-48.57001,-28.86095,20.15322
133.83,-0.1929926,-0.3420286,0.3239805,0.9981321,-0.03480209,-0.09996214,-47.82732,-28.50679,19.76151
133.84,0.117587,-0.4610464,0.5078895,0.9978339,-0.04207537,-0.09235208,-47.82732,-28.50679,19.76151
133.85,0.2418188,-0.818099999999999,0.998313400000002,0.9971815,-0.03382641,-0.09706517,-47.82732,-28.50679,19.76151
133.86,0.117587,-0.818099999999999,1.120919,0.9966028,-0.02409172,-0.09505796,-47.82732,-28.50679,19.76151
133.87,-0.5035722,-0.996626799999999,1.427434,0.9967069,-0.02845607,-0.09126268,-47.82732,-28.50679,19.76151
133.88,-0.938383600000002,-0.996626799999999,1.733949,0.996251,-0.02796265,-0.08837682,-47.44761,-28.49952,20.59176
133.89,-1.000499,-1.056136,1.856555,0.998593,-0.03187646,-0.09946482,-47.44761,-28.49952,20.59176
133.9,-1.248963,-0.818099999999999,2.224373,1.000486,-0.02650689,-0.09944648,-47.44761,-28.49952,20.59176
133.91,-1.435311,-0.818099999999999,2.16307,1.006808,-0.02450833,-0.1004781,-47.44761,-28.49952,20.59176
133.92,-1.870122,-0.5205554,2.16307,0.9975781,-0.02603685,-0.09700508,-47.44761,-28.49952,20.59176
133.93,-2.242818,-0.5205554,1.979162,0.9985886,-0.03480707,-0.1023647,-47.82531,-28.87493,19.76528
133.94,-1.994354,-0.1039928,1.55004,0.9937137,-0.03728672,-0.1032745,-47.82531,-28.87493,19.76528
133.95,-1.248963,-0.1039928,1.120919,0.9977899,-0.04111149,-0.09473931,-47.82531,-28.87493,19.76528
133.96,-0.2551085,-0.2825196,0.6304955,0.995728,-0.03774123,-0.09947348,-47.82531,-28.87493,19.76528
133.97,0.4281665,-0.1039928,0.1400715,1.004076,-0.03717034,-0.09671244,-47.82531,-28.87493,19.76528
133.98,0.800861999999998,-0.1039928,-0.595564399999999,1.011434,-0.04002895,-0.09779984,-47.82657,-28.13329,20.14182
133.99,1.173558,-0.1635017,-1.024685,1.010562,-0.0429366,-0.09254076,-47.82657,-28.13329,20.14182
134,1.173558,0.0745339900000001,-1.024685,1.011062,-0.03560578,-0.08529803,-47.82657,-28.13329,20.14182
134.01,0.800861999999998,0.1340429,-1.085988,1.014368,-0.03170344,-0.0905834,-47.82657,-28.13329,20.14182
134.02,0.117587,0.1340429,-1.085988,1.01379,-0.03026843,-0.09583425,-47.82657,-28.13329,20.14182
134.03,-0.876267699999999,0.1935519,-1.269897,1.006979,-0.03178287,-0.09431236,-47.83209,-28.14398,19.37366
134.04,-1.000499,0.1340429,-1.085988,1.009,-0.04102363,-0.09777354,-47.83209,-28.14398,19.37366
134.05,-1.124731,0.2530608,-0.779473400000002,1.005651,-0.04298522,-0.09390878,-47.83209,-28.14398,19.37366
134.06,-1.186847,0.1935519,-0.5342614,1.002615,-0.04157545,-0.1000832,-47.83209,-28.14398,19.37366
134.07,-1.062615,0.3720787,-0.4116554,0.9947939,-0.03431965,-0.0932017,-47.83209,-28.14398,19.37366
134.08,-1.311079,0.7886412,-0.2890494,0.9914577,-0.04116002,-0.09273268,-48.19828,-28.49712,20.14752
134.09,-1.186847,0.669623299999997,-0.2277464,0.9899672,-0.04362068,-0.0965658,-48.19828,-28.49712,20.14752
134.1,-0.5035722,0.4910965,-0.2890494,0.9886294,-0.04847896,-0.09131654,-48.19828,-28.49712,20.14752
134.11,0.1797029,0.3720787,-0.2277464,0.9915949,-0.05381478,-0.09379983,-48.19828,-28.49712,20.14752
134.12,1.422021,0.4315876,-0.5342614,0.9970146,-0.05766191,-0.09438875,-48.19828,-28.49712,20.14752
134.13,2.105296,0.3125697,-0.4116554,0.9994181,-0.05521121,-0.09536072,-48.2018,-28.87596,19.38313
134.14,2.788571,0.1935519,-0.779473400000002,0.9998901,-0.04935311,-0.09148441,-48.2018,-28.87596,19.38313
134.15,2.788571,0.01502506,-0.902079399999998,0.9999421,-0.04933826,-0.08765142,-48.2018,-28.87596,19.38313
134.16,2.415876,-0.04448388,-0.595564399999999,1.003168,-0.03764695,-0.09191154,-48.2018,-28.87596,19.38313
134.17,1.359905,0.1340429,-0.3503525,0.9997917,-0.04108128,-0.0914132,-48.2018,-28.87596,19.38313
134.18,0.3660506,0.2530608,-0.1664434,0.9963074,-0.03819937,-0.09325601,-47.82732,-28.50679,19.76151
134.19,-0.4414563,0.01502506,0.1400715,0.9942237,-0.03629998,-0.1008775,-47.82732,-28.50679,19.76151
134.2,-0.627804000000001,0.0745339900000001,0.5691925,0.9987245,-0.04404464,-0.1005278,-47.82732,-28.50679,19.76151
134.21,-1.062615,-0.1635017,1.120919,1.000554,-0.03283426,-0.09998006,-47.82732,-28.50679,19.76151
134.22,-1.497427,0.01502506,1.795252,1.003485,-0.02646249,-0.09469686,-47.82732,-28.50679,19.76151
134.23,-2.304934,0.1935519,2.469585,1.000788,-0.01239738,-0.1007693,-47.45083,-28.50576,20.14366
134.24,-3.42302,0.4315876,3.082615,1.004053,-0.005088995,-0.1060254,-47.45083,-28.50576,20.14366
134.25,-4.416875,0.7886412,3.38913,0.992929,-0.01735803,-0.107408,-47.45083,-28.50576,20.14366
134.26,-4.665339,0.848150100000002,3.450433,0.9865373,-0.02669982,-0.1179381,-47.45083,-28.50576,20.14366
134.27,-3.112441,0.4910965,2.714797,0.9842227,-0.03937795,-0.1194497,-47.45083,-28.50576,20.14366
134.28,-0.5035722,0.1340429,1.733949,0.9804176,-0.05012268,-0.1209237,-48.2038,-28.50781,19.37936
134.29,2.477992,-0.758591100000003,0.6917985,0.9803918,-0.03694793,-0.1112282,-48.2038,-28.50781,19.37936
134.3,4.279353,-1.175154,-0.4116554,0.9892159,-0.01880021,-0.09394963,-48.2038,-28.50781,19.37936
134.31,4.589933,-1.35368,-1.269897,0.9875701,-0.01202888,-0.101057,-48.2038,-28.50781,19.37936
134.32,4.589933,-1.532207,-1.576412,0.9905388,-0.002228778,-0.08999503,-48.2038,-28.50781,19.37936
134.33,2.788571,-1.94877,-1.760321,0.9992356,0.01344149,-0.08423634,-47.82255,-28.86959,20.14936
134.34,0.800861999999998,-1.591716,-1.882927,1.00002,0.01876533,-0.09378658,-47.82255,-28.86959,20.14936
134.35,-1.683775,-1.115645,-1.576412,1.00186,0.01923756,-0.1019552,-47.82255,-28.86959,20.14936
134.36,-3.982063,-1.234663,-2.312048,0.9984555,0.00603082,-0.1120813,-47.82255,-28.86959,20.14936
134.37,-5.038034,-1.591716,-2.679866,1.00395,-0.009024325,-0.1170787,-47.82255,-28.86959,20.14936
134.38,-4.416875,-1.829752,-3.231593,1.010821,-0.014816,-0.1205799,-48.57478,-28.49815,19.76537
134.39,-3.671484,-2.008279,-3.967229,1.01544,-0.01715631,-0.1067687,-48.57478,-28.49815,19.76537
134.4,-3.360904,-2.722386,-4.580259,1.009133,-0.004992106,-0.09220016,-48.57478,-28.49815,19.76537
134.41,-3.236672,-2.841404,-5.131986,1.004392,-0.009386503,-0.08498169,-48.57478,-28.49815,19.76537
134.42,-3.236672,-2.841404,-5.377198,1.008826,-0.0181266,-0.09038983,-48.57478,-28.49815,19.76537
134.43,-2.739745,-2.543859,-5.499804,1.006911,-0.020573,-0.08942479,-48.20702,-28.51405,18.93126
134.44,-1.870122,-2.48435,-5.62241,1.01507,-0.01615032,-0.09717094,-48.20702,-28.51405,18.93126
134.45,-1.062615,-2.781895,-5.62241,1.022436,-0.01754178,-0.09632927,-48.20702,-28.51405,18.93126
134.46,-0.752035899999999,-2.543859,-6.29674299999998,1.031233,-0.0267427,-0.1051579,-48.20702,-28.51405,18.93126
134.47,-0.2551085,-2.127296,-6.29674299999998,1.021025,-0.0277914,-0.1011877,-48.20702,-28.51405,18.93126
134.48,0.3660506,-3.019931,-7.584106,1.018211,-0.04291787,-0.105588,-47.45359,-28.5111,19.75958
134.49,1.856833,-2.543859,-9.05537900000002,1.011182,-0.06437702,-0.1018353,-47.45359,-28.5111,19.75958
134.5,5.024744,-2.246315,-10.34274,1.00118,-0.08880191,-0.1033365,-47.45359,-28.5111,19.75958
134.51,8.31688799999999,-2.424841,-11.69141,0.9847558,-0.09133102,-0.09018537,-47.45359,-28.5111,19.75958
134.52,11.23634,-2.900913,-13.5305,0.9854386,-0.09664194,-0.08065594,-47.45359,-28.5111,19.75958
134.53,14.83906,-2.305823,-15.00177,0.9938304,-0.101429,-0.07937834,-48.19427,-29.23342,20.15507
134.54,18.06909,-2.662877,-15.86001,0.9893712,-0.07463164,-0.05992066,-48.19427,-29.23342,20.15507
134.55,18.44178,-3.019931,-15.98262,1.013569,-0.04568416,-0.05379166,-48.19427,-29.23342,20.15507
134.56,15.21175,-2.662877,-15.6761,1.027964,-0.01829364,-0.05041126,-48.19427,-29.23342,20.15507
134.57,11.04999,-1.710734,-14.81786,1.03954,-0.02214238,-0.06594311,-48.19427,-29.23342,20.15507
134.58,6.95033699999999,-1.056136,-13.40789,1.033359,-0.03874757,-0.06743275,-46.69413,-29.61259,20.59921
134.59,5.024744,-0.3420286,-12.18183,1.02636,-0.04910396,-0.08754677,-46.69413,-29.61259,20.59921
134.6,4.589933,0.1935519,-10.83317,1.019491,-0.05454072,-0.09372435,-46.69413,-29.61259,20.59921
134.61,4.962628,0.967167999999999,-9.361894,1.016456,-0.04824845,-0.09554478,-46.69413,-29.61259,20.59921
134.62,4.527817,1.740784,-7.33889400000002,1.010004,-0.02831385,-0.0847422,-46.69413,-29.61259,20.59921
134.63,3.844542,2.752436,-5.131986,1.000453,-0.0006402496,-0.07910134,-46.69413,-29.61259,20.59921
134.64,1.918949,4.121141,-2.189442,1.003635,0.01640899,-0.08187801,-46.69413,-29.61259,20.59921
134.65,-0.814151800000002,5.608865,1.059616,1.005461,0.02908281,-0.08035947,-46.69413,-29.61259,20.59921
134.66,-3.609368,6.85855199999999,4.676493,1.005571,0.04557879,-0.09363941,-46.69413,-29.61259,20.59921
134.67,-6.52881599999999,7.51315099999997,7.80294599999997,1.00685,0.05432598,-0.0998134,-46.69413,-29.61259,20.59921
134.68,-9.69672800000002,8.70333,10.37767,1.005275,0.05623524,-0.1060044,-46.69212,-29.98074,20.60298
134.69,-11.43597,9.53645500000001,12.27806,0.9994247,0.03421886,-0.1238372,-46.69212,-29.98074,20.60298
134.7,-10.93905,9.23891100000001,13.62673,0.9876269,0.007869438,-0.1152659,-46.69212,-29.98074,20.60298
134.71,-7.83325000000001,8.58431199999997,13.74934,0.9814673,-0.01165894,-0.1177389,-46.69212,-29.98074,20.60298
134.72,-4.168411,7.810696,13.32022,0.9854277,-0.01454026,-0.1168613,-46.69212,-29.98074,20.60298
134.73,0.614514300000001,6.50149900000001,12.76849,1.001077,0.001708415,-0.1030504,-46.6961,-30.36047,19.77457
134.74,1.422021,5.489847,11.84894,1.006387,0.02907656,-0.08420631,-46.6961,-30.36047,19.77457
134.75,0.925093900000002,5.668374,11.11331,1.009227,0.03102828,-0.08950151,-46.6961,-30.36047,19.77457
134.76,-1.186847,5.132793,9.88724799999998,1.001425,0.03340716,-0.08553664,-46.6961,-30.36047,19.77457
134.77,-2.429165,4.77574,8.29336900000002,0.9946449,0.01334891,-0.09806848,-46.6961,-30.36047,19.77457
134.78,-3.42302,3.704579,6.82209799999999,0.9956583,0.002138361,-0.1053655,-46.70011,-29.62418,19.76703
134.79,-3.919947,2.990472,4.921705,0.9888921,-0.0003399389,-0.1014564,-46.70011,-29.62418,19.76703
134.8,-4.230527,2.454891,2.653494,0.9823136,-0.02082906,-0.09961876,-46.70011,-29.62418,19.76703
134.81,-3.42302,1.919311,1.243526,0.9907879,-0.03145133,-0.09743319,-46.70011,-29.62418,19.76703
134.82,-2.801861,1.205204,-0.1664434,1.005271,-0.005988557,-0.08927833,-46.70011,-29.62418,19.76703
134.83,-3.547252,1.145695,-1.147291,1.021236,0.01656209,-0.08260677,-47.45234,-29.25274,19.38304
134.84,-5.90765700000002,1.681275,-1.699018,1.022596,0.01898561,-0.08835609,-47.45234,-29.25274,19.38304
134.85,-8.88922100000001,2.157347,-2.189442,1.018751,-0.001046811,-0.1009295,-47.45234,-29.25274,19.38304
134.86,-10.06942,2.038329,-3.354199,1.001911,-0.04164102,-0.1158873,-47.45234,-29.25274,19.38304
134.87,-7.646903,1.621766,-4.948077,0.9938974,-0.07971002,-0.1271159,-47.45234,-29.25274,19.38304
134.88,-2.242818,0.967167999999999,-6.41934899999997,0.9931381,-0.09869705,-0.1277446,-47.82607,-29.24843,19.38497
134.89,4.589933,-0.1039928,-7.70671199999999,0.9864023,-0.09823731,-0.1190191,-47.82607,-29.24843,19.38497
134.9,10.24248,-0.580064299999998,-8.93277299999997,0.9964892,-0.06451173,-0.1030647,-47.82607,-29.24843,19.38497
134.91,11.29845,0.3125697,-8.68756000000002,0.990502,-0.03481526,-0.08547752,-47.82607,-29.24843,19.38497
134.92,9.49708999999998,-0.04448388,-8.13583399999998,0.9844075,-0.01589036,-0.08523095,-47.82607,-29.24843,19.38497
134.93,6.20494700000002,0.4315876,-6.90977299999999,0.9808531,-0.007657944,-0.08750681,-46.32638,-29.62849,19.76509
134.94,2.912803,0.4315876,-5.070683,0.9758869,-0.005769529,-0.09125368,-46.32638,-29.62849,19.76509
134.95,-0.1929926,-0.04448388,-3.415502,0.9943812,-0.005631955,-0.09822491,-46.32638,-29.62849,19.76509
134.96,-3.547252,0.5506055,-2.005533,1.014024,-0.0225253,-0.1077522,-46.32638,-29.62849,19.76509
134.97,-5.534961,1.621766,0.0787685399999998,1.00576,-0.02795455,-0.1086387,-46.32638,-29.62849,19.76509
134.98,-7.39843900000002,0.3720787,0.814404500000002,1.01468,-0.04541988,-0.115622,-46.32914,-29.63384,19.38101
134.99,-7.46055500000003,0.3720787,0.6917985,1.01106,-0.08442886,-0.1283588,-46.32914,-29.63384,19.38101
135,-4.478991,-0.1635017,0.875707499999998,0.9939733,-0.08994116,-0.1305578,-46.32914,-29.63384,19.38101
135.01,-0.938383600000002,-2.424841,0.2626776,0.9730628,-0.07056285,-0.1042194,-46.32914,-29.63384,19.38101
135.02,1.359905,-3.555511,-0.04383745,0.9792745,-0.04662557,-0.09404276,-46.32914,-29.63384,19.38101
135.03,1.918949,-4.091092,0.753101500000001,0.9887248,-0.007087641,-0.08378059,-46.32914,-29.63384,19.38101
135.04,0.05547104,-4.210109,2.040464,0.9938281,0.02559202,-0.07543114,-46.32914,-29.63384,19.38101
135.05,-4.168411,-3.793547,3.818251,1.003021,0.02857471,-0.08032899,-46.32914,-29.63384,19.38101
135.06,-7.39843900000002,-3.674529,5.166917,0.9989079,0.01627741,-0.1057717,-46.32914,-29.63384,19.38101
135.07,-9.57249500000002,-4.210109,6.57688600000001,1.001252,0.009434845,-0.1192805,-46.32914,-29.63384,19.38101
135.08,-10.06942,-4.329127,6.57688600000001,0.9980198,-0.001769879,-0.1150162,-47.0766,-29.62521,19.38488
135.09,-9.137685,-5.28127,6.33167399999997,0.9947761,-0.01639551,-0.1146142,-47.0766,-29.62521,19.38488
135.1,-6.96362699999999,-5.81685100000002,5.412129,1.00382,-0.03431399,-0.1129775,-47.0766,-29.62521,19.38488
135.11,-3.7336,-6.23341299999998,4.676493,1.004492,-0.04255738,-0.106827,-47.0766,-29.62521,19.38488
135.12,-0.3172244,-6.59046600000002,3.756948,1.009106,-0.035623,-0.08527029,-47.0766,-29.62521,19.38488
135.13,2.35376,-6.59046600000002,2.714797,1.019921,-0.03307126,-0.0791733,-46.33115,-29.26569,19.37724
135.14,3.347615,-6.173904,2.040464,1.016436,-0.01310156,-0.06601673,-46.33115,-29.26569,19.37724
135.15,3.347615,-5.578815,0.937010400000001,1.00802,-0.01613319,-0.07598554,-46.33115,-29.26569,19.37724
135.16,3.037035,-5.162252,-0.1051404,0.9950988,-0.01386235,-0.0887206,-46.33115,-29.26569,19.37724
135.17,3.285499,-4.507654,-1.3312,0.9751993,-0.02473613,-0.08661196,-46.33115,-29.26569,19.37724
135.18,4.465701,-4.626672,-2.373351,0.9693526,-0.02722253,-0.0870288,-47.81653,-29.97403,20.16068
135.19,6.45340999999999,-5.459797,-2.189442,0.9831524,-0.004613566,-0.05972032,-47.81653,-29.97403,20.16068
135.2,5.211092,-6.23341299999998,-1.269897,1.014712,0.04588777,-0.03290876,-47.81653,-29.97403,20.16068
135.21,-0.3793404,-4.448145,-0.04383745,1.041533,0.06270161,-0.02452353,-47.81653,-29.97403,20.16068
135.22,-6.96362699999999,-2.186805,1.979162,1.042931,0.05146566,-0.03949347,-47.81653,-29.97403,20.16068
135.23,-11.56021,-1.35368,3.511736,1.035187,0.01870877,-0.06218192,-47.06986,-29.24013,20.59737
135.24,-13.05099,-0.758591100000003,4.492584,1.027315,-0.008225893,-0.0891322,-47.06986,-29.24013,20.59737
135.25,-10.38,-0.1635017,3.818251,0.997876,-0.02755169,-0.1123565,-47.06986,-29.24013,20.59737
135.26,-6.34246800000002,0.2530608,2.530888,0.9805362,-0.05350645,-0.1152036,-47.06986,-29.24013,20.59737
135.27,-1.559543,-0.1635017,0.998313400000002,0.9596891,-0.05266268,-0.1005234,-47.06986,-29.24013,20.59737
135.28,4.652049,-1.115645,0.2013745,0.9573445,-0.02433825,-0.06814454,-47.81657,-28.85801,20.98154
135.29,8.87593100000001,-1.532207,0.1400715,0.9749119,0.009981165,-0.04127012,-47.81657,-28.85801,20.98154
135.3,8.75169899999999,-0.758591100000003,0.998313400000002,0.9933545,0.04525636,-0.0211089,-47.81657,-28.85801,20.98154
135.31,4.714165,0.967167999999999,2.040464,1.00924,0.07510754,-0.01389538,-47.81657,-28.85801,20.98154
135.32,-0.0687607899999999,2.871454,3.266524,1.014407,0.05898268,-0.04381547,-47.81657,-28.85801,20.98154
135.33,-3.485136,3.942615,4.002161,1.011659,0.03544015,-0.08662375,-47.4436,-29.23582,20.5993
135.34,-4.665339,4.299668,3.634342,1.00841,-0.004574818,-0.1089583,-47.4436,-29.23582,20.5993
135.35,-3.112441,4.299668,2.469585,1.008721,-0.0450091,-0.1217632,-47.4436,-29.23582,20.5993
135.36,0.987209900000002,3.407034,0.814404500000002,1.013397,-0.06149174,-0.1162185,-47.4436,-29.23582,20.5993
135.37,5.148976,2.871454,-1.147291,1.027302,-0.05545243,-0.09576017,-47.4436,-29.23582,20.5993
135.38,7.50938099999998,3.585561,-2.679866,1.033154,-0.04075887,-0.08421878,-47.07308,-29.24637,20.14927
135.39,8.44111899999999,4.478195,-4.089835,1.032679,-0.03148291,-0.07502894,-47.07308,-29.24637,20.14927
135.4,7.57149600000002,5.549356,-4.641562,1.018421,-0.02039972,-0.0704194,-47.07308,-29.24637,20.14927
135.41,6.01859899999999,6.44199000000003,-5.00938,1.004537,-0.01666847,-0.08073241,-47.07308,-29.24637,20.14927
135.42,4.279353,6.02542699999998,-5.315895,0.9877458,-0.01637281,-0.09199139,-47.06786,-29.60828,20.60114
135.43,3.782426,5.370829,-5.254592,0.9896414,-0.01344354,-0.09391049,-47.06786,-29.60828,20.60114
135.44,1.670485,5.013776,-5.254592,1.00579,-0.003046216,-0.0844689,-47.06786,-29.60828,20.60114
135.45,-0.5035722,5.370829,-4.641562,1.006732,-0.009883124,-0.09316562,-47.06786,-29.60828,20.60114
135.46,-2.553397,5.84689999999997,-4.028532,1.007458,-0.03031696,-0.09382761,-47.06786,-29.60828,20.60114
135.47,-3.050325,6.02542699999998,-3.599411,0.9982367,-0.05186019,-0.1072956,-47.06786,-29.60828,20.60114
135.48,-1.621659,5.31132,-2.986381,0.9826712,-0.05587941,-0.1042325,-47.07986,-28.51542,19.75765
135.49,0.5523984,4.299668,-3.108987,0.9684333,-0.06187847,-0.113185,-47.07986,-28.51542,19.75765
135.5,3.037035,3.526052,-3.231593,0.9610247,-0.05366377,-0.1110932,-47.07986,-28.51542,19.75765
135.51,5.024744,2.395382,-3.292896,0.9513152,-0.04884694,-0.1013302,-47.07986,-28.51542,19.75765
135.52,6.57764200000001,1.205204,-3.415502,0.962859,-0.03512872,-0.103775,-47.07986,-28.51542,19.75765
135.53,7.07456900000002,0.1340429,-3.231593,0.9746661,-0.02817062,-0.09286293,-46.70488,-29.26138,19.37917
135.54,7.13668500000003,-0.4015375,-2.925078,0.9776612,-0.03984495,-0.09875453,-46.70488,-29.26138,19.37917
135.55,6.76398999999999,-1.35368,-1.94423,0.9909809,-0.04164905,-0.09225081,-46.70488,-29.26138,19.37917
135.56,6.826106,-1.829752,-0.779473400000002,1.008337,-0.03131308,-0.1019949,-46.70488,-29.26138,19.37917
135.57,5.89436700000002,-1.829752,-0.4116554,1.013013,-0.02254319,-0.110134,-46.70488,-29.26138,19.37917
135.58,4.900512,-2.246315,-0.2277464,1.010328,-0.02165654,-0.1268602,-47.0766,-29.62521,19.38488
135.59,3.533962,-2.781895,-0.2890494,0.9958769,-0.03881034,-0.1253614,-47.0766,-29.62521,19.38488
135.6,3.533962,-3.496002,-0.5342614,0.9792014,-0.04824625,-0.1367041,-47.0766,-29.62521,19.38488
135.61,4.652049,-4.091092,-0.779473400000002,0.9783983,-0.0442991,-0.1203666,-47.0766,-29.62521,19.38488
135.62,5.83225100000001,-4.686181,-1.515109,0.9785649,-0.03741645,-0.1021013,-47.07384,-29.61986,19.76896
135.63,6.515526,-5.400288,-1.637715,0.9839886,-0.02124517,-0.08479097,-47.07384,-29.61986,19.76896
135.64,6.01859899999999,-5.340779,-1.3312,0.9962071,-0.01821066,-0.0830227,-47.07384,-29.61986,19.76896
135.65,5.273208,-4.686181,-0.6568674,1.014556,-0.006397066,-0.09037252,-47.07384,-29.61986,19.76896
135.66,3.968773,-3.61502,0.3852835,1.02372,-0.00146992,-0.09573273,-47.07384,-29.61986,19.76896
135.67,2.167412,-3.317475,1.243526,1.033668,0.009269494,-0.1101599,-47.07384,-29.61986,19.76896
135.68,0.800861999999998,-3.436493,1.427434,1.04025,0.005836442,-0.132805,-47.43958,-29.97211,20.60684
135.69,-0.4414563,-3.734038,1.304829,1.034893,-0.009339397,-0.1443575,-47.43958,-29.97211,20.60684
135.7,-0.5656881,-4.1506,0.875707499999998,1.024349,-0.01718407,-0.1351687,-47.43958,-29.97211,20.60684
135.71,0.4281665,-5.162252,0.6304955,1.003597,-0.02656588,-0.1224929,-47.43958,-29.97211,20.60684
135.72,1.918949,-5.75734100000001,0.5691925,0.9930772,-0.01829219,-0.09735477,-47.43958,-29.97211,20.60684
135.73,2.726455,-5.75734100000001,1.304829,0.9921125,0.008067267,-0.07315859,-47.07308,-29.24637,20.14927
135.74,1.359905,-5.162252,2.346979,0.9943542,0.03293028,-0.06627192,-47.07308,-29.24637,20.14927
135.75,-1.932238,-4.329127,3.756948,0.9816948,0.05711074,-0.07642981,-47.07308,-29.24637,20.14927
135.76,-5.10015,-3.496002,5.412129,0.9762497,0.05265076,-0.08501543,-47.07308,-29.24637,20.14927
135.77,-9.26191599999999,-3.496002,6.94470399999998,0.9898854,0.0395724,-0.1011337,-47.43958,-29.97211,20.60684
135.78,-11.49809,-2.48435,7.61903699999999,0.9906781,0.0243931,-0.1281083,-47.43958,-29.97211,20.60684
135.79,-11.99502,-2.008279,7.00600699999998,1.002147,-0.00718005,-0.140039,-47.43958,-29.97211,20.60684
135.8,-9.94519099999998,-2.067788,5.289523,1.003623,-0.05243437,-0.1433172,-47.43958,-29.97211,20.60684
135.81,-4.851686,-2.900913,2.714797,0.9903899,-0.08366991,-0.1366834,-47.43958,-29.97211,20.60684
135.82,2.477992,-4.74569,-0.718170499999998,0.99203,-0.08995467,-0.1295718,-47.4436,-29.23582,20.5993
135.83,9.86978500000003,-6.41193999999999,-4.273744,1.006504,-0.08730597,-0.106275,-47.4436,-29.23582,20.5993
135.84,16.14349,-7.18555600000002,-5.561107,1.012703,-0.05409584,-0.08883186,-47.4436,-29.23582,20.5993
135.85,18.00697,-7.066538,-5.99022800000001,1.021655,0.005452482,-0.06162173,-47.4436,-29.23582,20.5993
135.86,14.52848,-5.81685100000002,-6.112834,1.027038,0.04539985,-0.06231971,-47.4436,-29.23582,20.5993
135.87,9.06227899999999,-4.448145,-5.070683,1.010898,0.05781659,-0.08690324,-47.44159,-29.60396,20.60307
135.88,3.409731,-4.448145,-3.231593,1.004425,0.0504044,-0.1017287,-47.44159,-29.60396,20.60307
135.89,-2.367049,-3.376984,-1.147291,1.002734,0.04935149,-0.1189647,-47.44159,-29.60396,20.60307
135.9,-6.52881599999999,-2.603368,0.2013745,0.9940287,0.02782,-0.1305231,-47.44159,-29.60396,20.60307
135.91,-8.827105,-1.829752,0.753101500000001,0.9951715,0.007370035,-0.1364624,-47.44159,-29.60396,20.60307
135.92,-8.88922100000001,-2.305823,1.366131,0.9940801,-0.01548235,-0.1289725,-47.44159,-29.60396,20.60307
135.93,-6.46669999999998,-2.900913,1.55004,1.001563,-0.01732882,-0.11999,-47.43682,-29.96676,20.99092
135.94,-4.106296,-3.198457,2.469585,1.013852,-0.002557018,-0.1027893,-47.43682,-29.96676,20.99092
135.95,-3.7336,-2.543859,3.266524,1.022637,0.00727988,-0.09564346,-47.43682,-29.96676,20.99092
135.96,-3.174556,-1.829752,3.205221,1.017848,-0.003475315,-0.09758276,-47.43682,-29.96676,20.99092
135.97,-1.559543,-2.127296,2.653494,0.9992878,-0.02120769,-0.1108855,-47.4436,-29.23582,20.5993
135.98,1.173558,-3.019931,1.366131,0.9909759,-0.04129742,-0.1281877,-47.4436,-29.23582,20.5993
135.99,5.397439,-2.960422,-0.2277464,0.9899628,-0.05156874,-0.1397608,-47.4436,-29.23582,20.5993
136,9.31074200000001,-3.555511,-2.250745,0.9895129,-0.04716784,-0.1330084,-47.4436,-29.23582,20.5993
136.01,12.60289,-4.1506,-4.028532,0.9967815,-0.02710529,-0.1204835,-47.4436,-29.23582,20.5993
136.02,13.65886,-4.626672,-5.561107,1.003871,-0.0007469249,-0.1155701,-47.81732,-29.2315,20.60123
136.03,11.79538,-4.329127,-6.23543999999999,1.012932,0.03149173,-0.1044056,-47.81732,-29.2315,20.60123
136.04,6.76398999999999,-3.734038,-6.54195500000002,1.010058,0.04173604,-0.0908606,-47.81732,-29.2315,20.60123
136.05,0.925093900000002,-3.317475,-6.29674299999998,0.9964684,0.02895148,-0.09412919,-47.81732,-29.2315,20.60123
136.06,-3.112441,-2.960422,-6.29674299999998,1.001514,0.002186302,-0.106407,-47.81732,-29.2315,20.60123
136.07,-4.665339,-3.019931,-6.60325800000002,0.9920121,-0.02857836,-0.1127608,-47.43761,-29.22423,21.43148
136.08,-3.609368,-3.257966,-6.97107599999999,0.9868677,-0.04955229,-0.1138229,-47.43761,-29.22423,21.43148
136.09,-1.497427,-3.376984,-7.522803,0.9976175,-0.05190163,-0.1168711,-47.43761,-29.22423,21.43148
136.1,0.800861999999998,-3.61502,-8.25844000000003,1.001033,-0.04845617,-0.1144947,-47.43761,-29.22423,21.43148
136.11,2.912803,-3.61502,-9.17798399999999,0.9989265,-0.04461046,-0.1220994,-47.43761,-29.22423,21.43148
136.12,5.708019,-3.912564,-9.668408,1.003713,-0.03190338,-0.118706,-47.05911,-29.59135,21.8174
136.13,6.95033699999999,-3.853055,-9.97492299999998,0.9967577,-0.02125335,-0.1170794,-47.05911,-29.59135,21.8174
136.14,7.88207600000003,-3.793547,-9.85231800000002,0.9911624,-0.008668232,-0.1216854,-47.05911,-29.59135,21.8174
136.15,8.13054000000001,-3.793547,-9.60710500000001,0.9925342,-0.002823806,-0.1235725,-47.05911,-29.59135,21.8174
136.16,7.88207600000003,-3.257966,-9.17798399999999,0.9999566,-0.001758232,-0.1164813,-47.05911,-29.59135,21.8174
136.17,7.57149600000002,-2.960422,-8.50365200000001,0.9936792,-0.01302035,-0.1203204,-47.05911,-29.59135,21.8174
136.18,8.068424,-2.424841,-8.25844000000003,1.005033,-0.01679726,-0.1162013,-47.05911,-29.59135,21.8174
136.19,8.379004,-1.829752,-7.584106,1.00439,-0.01098676,-0.1223727,-47.05911,-29.59135,21.8174
136.2,7.94419199999998,-1.591716,-6.54195500000002,1.002784,0.0006782071,-0.1222514,-47.05911,-29.59135,21.8174
136.21,7.01245399999998,-1.651225,-5.92892500000001,1.005245,0.002168748,-0.1198779,-47.05911,-29.59135,21.8174
136.22,5.89436700000002,-1.294171,-5.00938,1.008232,0.01148598,-0.1078618,-46.68338,-29.96381,21.81924
136.23,4.155121,-1.294171,-3.844623,1.009978,0.02706628,-0.109672,-46.68338,-29.96381,21.81924
136.24,1.608369,-1.115645,-2.373351,1.014356,0.03344539,-0.105847,-46.68338,-29.96381,21.81924
136.25,-0.627804000000001,-0.5205554,-1.147291,1.011832,0.03291316,-0.1120451,-46.68338,-29.96381,21.81924
136.26,-2.180702,-0.1635017,0.1400715,1.008447,0.02361761,-0.1173465,-46.68338,-29.96381,21.81924
136.27,-3.857831,0.1340429,1.488737,1.002984,0.02940549,-0.1181782,-46.67815,-30.32573,22.27111
136.28,-5.472846,0.4315876,2.101768,1.013301,0.01242108,-0.1299694,-46.67815,-30.32573,22.27111
136.29,-5.162266,1.97882,3.327827,1.004107,-0.004720658,-0.1376502,-46.67815,-30.32573,22.27111
136.3,-3.485136,1.324222,3.573039,0.9861267,-0.01412305,-0.1369941,-46.67815,-30.32573,22.27111
136.31,-1.559543,1.026677,3.450433,0.9861167,-0.003384908,-0.1282777,-46.67815,-30.32573,22.27111
136.32,-0.3172244,1.026677,3.511736,0.9785932,0.01065573,-0.1294896,-47.04987,-30.68956,22.27681
136.33,-0.2551085,1.324222,4.063463,0.9732727,0.01990164,-0.1168766,-47.04987,-30.68956,22.27681
136.34,-1.062615,1.324222,4.308675,0.9840081,0.02096578,-0.117979,-47.04987,-30.68956,22.27681
136.35,-1.683775,1.740784,5.044312,0.9825459,0.01997786,-0.1184457,-47.04987,-30.68956,22.27681
136.36,-1.932238,1.264713,5.105614,0.990432,0.01713468,-0.1166653,-47.04987,-30.68956,22.27681
136.37,-3.050325,1.026677,5.718644,0.9962373,0.01375058,-0.1244438,-47.42883,-30.32333,21.82687
136.38,-3.42302,1.026677,6.025159,0.9966434,0.01470762,-0.1297127,-47.42883,-30.32333,21.82687
136.39,-3.7336,0.1935519,6.33167399999997,0.9942103,0.02298949,-0.1214617,-47.42883,-30.32333,21.82687
136.4,-4.665339,-0.4610464,6.27037099999998,0.9937132,0.02200646,-0.1229005,-47.42883,-30.32333,21.82687
136.41,-5.162266,-0.937117900000002,6.20906799999998,0.9904464,0.01372121,-0.1186111,-47.42883,-30.32333,21.82687
136.42,-5.410729,-1.35368,6.20906799999998,0.990455,0.01079431,-0.1205527,-47.79934,-30.31278,22.2769
136.43,-4.727455,-2.127296,5.657341,0.9936388,-0.005220237,-0.1164204,-47.79934,-30.31278,22.2769
136.44,-3.795716,-2.543859,5.596038,0.9951106,-0.006670772,-0.117412,-47.79934,-30.31278,22.2769
136.45,-3.236672,-2.841404,5.534735,1.003525,-0.009498498,-0.1127638,-47.79934,-30.31278,22.2769
136.46,-2.615513,-2.781895,5.412129,1.018476,-0.002101664,-0.1220193,-47.79934,-30.31278,22.2769
136.47,-2.677629,-2.543859,5.105614,1.008123,-0.0007508905,-0.1266523,-47.79934,-30.31278,22.2769
136.48,-2.367049,-2.246315,4.676493,0.9967747,-0.001854613,-0.1346463,-47.79934,-30.31278,22.2769
136.49,-2.801861,-1.770243,4.186069,0.9903261,-0.00144813,-0.1407805,-47.79934,-30.31278,22.2769
136.5,-2.677629,-1.175154,4.124766,0.9838929,0.00921549,-0.1367653,-47.79934,-30.31278,22.2769
136.51,-3.298788,-1.234663,3.818251,0.9810162,0.008717938,-0.1328949,-47.79934,-30.31278,22.2769
136.52,-3.671484,-0.818099999999999,3.021312,0.9835448,0.003392669,-0.1315383,-47.06112,-29.2232,21.81363
136.53,-4.168411,-0.6990822,2.285676,0.992386,0.006898478,-0.1258843,-47.06112,-29.2232,21.81363
136.54,-3.7336,-0.1635017,1.917858,1.006853,-0.01681903,-0.1262906,-47.06112,-29.2232,21.81363
136.55,-3.298788,-0.2230107,1.979162,1.018292,-0.02887149,-0.123201,-47.06112,-29.2232,21.81363
136.56,-1.683775,0.2530608,1.856555,1.035788,-0.02923653,-0.132079,-47.06112,-29.2232,21.81363
136.57,-0.5656881,0.01502506,1.243526,1.03381,-0.03072462,-0.1349386,-47.05911,-29.59135,21.8174
136.58,0.4902825,-0.1635017,0.4465865,1.022788,-0.009900165,-0.1355642,-47.05911,-29.59135,21.8174
136.59,1.049326,-1.115645,-0.1051404,1.009492,0.003139798,-0.1304726,-47.05911,-29.59135,21.8174
136.6,0.987209900000002,-1.115645,-0.779473400000002,0.9976466,0.00984116,-0.132164,-47.05911,-29.59135,21.8174
136.61,1.049326,-0.937117900000002,-1.269897,0.987592,0.002000791,-0.1229821,-47.05911,-29.59135,21.8174
136.62,1.546253,-1.294171,-1.760321,0.9942691,-0.002246331,-0.1034659,-47.06187,-29.5967,21.43332
136.63,2.291644,-0.6395732,-2.373351,1.009509,-0.01087873,-0.1056728,-47.06187,-29.5967,21.43332
136.64,3.533962,0.4315876,-2.679866,1.01683,-0.0210713,-0.1159263,-47.06187,-29.5967,21.43332
136.65,4.714165,0.967167999999999,-3.17029,1.005122,-0.02263063,-0.1148142,-47.06187,-29.5967,21.43332
136.66,6.45340999999999,1.502748,-4.089835,0.9976614,-0.01443079,-0.1165555,-47.06187,-29.5967,21.43332
136.67,7.19880099999998,1.562257,-4.764168,0.9837763,0.00589983,-0.1123524,-47.80657,-29.58272,21.82126
136.68,6.88822200000001,1.859802,-4.948077,0.9880099,0.02834903,-0.1050353,-47.80657,-29.58272,21.82126
136.69,4.714165,2.633418,-4.764168,0.9913802,0.04056961,-0.09827141,-47.80657,-29.58272,21.82126
136.7,2.35376,3.466543,-4.028532,1.015032,0.03203824,-0.09340933,-47.80657,-29.58272,21.82126
136.71,0.862977999999999,4.180651,-3.047684,1.038682,0.02643562,-0.08612649,-47.80657,-29.58272,21.82126
136.72,-0.1308767,4.77574,-2.189442,1.053289,0.02605775,-0.09160906,-47.80657,-29.58272,21.82126
136.73,-1.062615,5.84689999999997,-2.066836,1.057988,0.02848727,-0.1036355,-47.80657,-29.58272,21.82126
136.74,-1.870122,6.79904399999998,-1.699018,1.045789,0.01227615,-0.1155784,-47.80657,-29.58272,21.82126
136.75,-1.062615,7.39413300000001,-1.576412,1.02531,-0.00253355,-0.1235579,-47.80657,-29.58272,21.82126
136.76,0.3039347,7.51315099999997,-1.392503,1.007162,-0.002219233,-0.126651,-47.80657,-29.58272,21.82126
136.77,1.608369,7.57266000000001,-1.821624,0.9992708,0.00599301,-0.1240733,-46.68739,-29.22752,21.8117
136.78,1.918949,8.16774899999998,-2.066836,0.9871262,0.00883829,-0.1152506,-46.68739,-29.22752,21.8117
136.79,1.546253,8.70333,-2.618563,0.9735395,0.01118965,-0.1049739,-46.68739,-29.22752,21.8117
136.8,0.987209900000002,9.29841900000002,-2.741169,0.9747315,-0.006805141,-0.1051427,-46.68739,-29.22752,21.8117
136.81,1.422021,9.71498200000002,-3.17029,0.9734045,-0.01751906,-0.1042558,-46.68739,-29.22752,21.8117
136.82,2.105296,10.07204,-3.722017,0.9807674,-0.03453487,-0.1174428,-47.43481,-30.33491,20.99469
136.83,3.223383,10.13154,-4.151138,0.9871125,-0.03448262,-0.1184912,-47.43481,-30.33491,20.99469
136.84,4.093006,9.357928,-4.948077,0.9990135,-0.02616817,-0.1353626,-47.43481,-30.33491,20.99469
136.85,4.403585,8.881857,-5.193289,1.005469,-0.03096685,-0.1326199,-47.43481,-30.33491,20.99469
136.86,3.906658,7.75118599999999,-5.74501600000003,1.001947,-0.02272515,-0.1325002,-47.43481,-30.33491,20.99469
136.87,2.66434,6.68002600000001,-5.80631900000002,1.003983,-0.02122035,-0.1253285,-47.06309,-29.97108,20.98899
136.88,1.484137,5.31132,-5.74501600000003,0.9941892,-0.02521578,-0.1295354,-47.06309,-29.97108,20.98899
136.89,1.484137,4.299668,-5.438501,0.980224,-0.03601933,-0.1227188,-47.06309,-29.97108,20.98899
136.9,1.794717,3.049981,-5.00938,0.972028,-0.03947628,-0.1168807,-47.06309,-29.97108,20.98899
136.91,2.540108,2.395382,-3.967229,0.9703771,-0.03172993,-0.1235006,-47.06309,-29.97108,20.98899
136.92,3.161267,1.859802,-2.802472,0.9726931,-0.02686305,-0.1287637,-47.43682,-29.96676,20.99092
136.93,2.850687,1.264713,-1.515109,0.971477,-0.02059256,-0.1406735,-47.43682,-29.96676,20.99092
136.94,2.291644,0.3720787,-0.5342614,0.9704107,-0.01427936,-0.1415634,-47.43682,-29.96676,20.99092
136.95,1.608369,-0.3420286,0.4465865,0.9691729,-0.005085689,-0.1524898,-47.43682,-29.96676,20.99092
136.96,1.173558,-1.35368,1.304829,0.9696476,-0.001667908,-0.1505509,-47.43682,-29.96676,20.99092
136.97,0.676630199999998,-2.365332,1.795252,0.9638313,-0.001216274,-0.1461514,-47.06585,-29.97643,20.60491
136.98,1.546253,-3.853055,2.040464,0.9685873,-0.02548788,-0.141632,-47.06585,-29.97643,20.60491
136.99,3.161267,-5.043234,2.224373,0.9747942,-0.02582812,-0.1172842,-47.06585,-29.97643,20.60491
137,4.77628,-5.459797,2.530888,0.9918293,-0.01593661,-0.1150475,-47.06585,-29.97643,20.60491
137.01,5.645903,-5.340779,3.327827,1.006834,-0.007548048,-0.1195033,-47.06585,-29.97643,20.60491
137.02,5.335324,-5.459797,4.124766,1.030513,0.00576335,-0.1293125,-46.3104,-30.34163,21.437
137.03,3.906658,-5.697833,4.676493,1.039584,0.01847575,-0.1346057,-46.3104,-30.34163,21.437
137.04,1.856833,-6.05488599999998,4.921705,1.031535,0.02517813,-0.1449768,-46.3104,-30.34163,21.437
137.05,-0.1308767,-6.82850200000001,4.921705,1.019366,0.02508722,-0.1404913,-46.3104,-30.34163,21.437
137.06,-1.808006,-7.78064499999999,4.553887,1.004249,0.02008429,-0.1412765,-46.3104,-30.34163,21.437
137.07,-2.242818,-8.13769800000003,4.369978,0.9878976,0.01855247,-0.1218884,-47.05786,-30.33299,21.44086
137.08,-2.05647,-8.43524400000002,3.695645,0.9812723,0.01025566,-0.1127592,-47.05786,-30.33299,21.44086
137.09,-1.186847,-8.49475199999998,3.38913,0.9863398,0.01523133,-0.09553822,-47.05786,-30.33299,21.44086
137.1,-0.3793404,-7.95917199999999,3.327827,0.992172,0.0211312,-0.09317556,-47.05786,-30.33299,21.44086
137.11,-0.5656881,-7.66162700000002,3.573039,1.000423,0.02655674,-0.09324737,-47.05786,-30.33299,21.44086
137.12,-0.5656881,-7.00702900000001,4.124766,1.014424,0.0354177,-0.09912253,-48.18105,-29.95189,21.44288
137.13,-1.497427,-6.76899300000003,4.676493,1.018613,0.0407661,-0.1101587,-48.18105,-29.95189,21.44288
137.14,-2.367049,-6.05488599999998,5.166917,1.030106,0.04665821,-0.1232111,-48.18105,-29.95189,21.44288
137.15,-3.982063,-5.81685100000002,5.22822,1.038926,0.04478753,-0.1238318,-48.18105,-29.95189,21.44288
137.16,-4.541107,-5.102743,5.22822,1.027132,0.03783313,-0.1337856,-48.18105,-29.95189,21.44288
137.17,-4.541107,-5.340779,4.615191,1.018641,0.02466259,-0.122275,-47.80657,-29.58272,21.82126
137.18,-3.360904,-4.686181,4.124766,1.01447,0.0134604,-0.1151221,-47.80657,-29.58272,21.82126
137.19,-1.932238,-4.329127,3.205221,0.9989512,0.01043104,-0.1077385,-47.80657,-29.58272,21.82126
137.2,-0.1308767,-2.960422,2.408283,0.9995096,0.008990463,-0.103925,-47.80657,-29.58272,21.82126
137.21,1.173558,-2.127296,1.488737,0.9903501,0.006505495,-0.09614822,-47.80657,-29.58272,21.82126
137.22,2.66434,-1.294171,0.2013745,0.9893422,-0.0003467747,-0.1043381,-47.42963,-29.5808,22.26743
137.23,3.409731,-0.758591100000003,-0.840776400000003,0.9959537,0.01185195,-0.1110382,-47.42963,-29.5808,22.26743
137.24,3.844542,-0.580064299999998,-1.821624,0.9875959,0.01762514,-0.1089535,-47.42963,-29.5808,22.26743
137.25,3.037035,-0.2230107,-2.863775,0.9967065,0.03083712,-0.1108887,-47.42963,-29.5808,22.26743
137.26,1.297789,0.3125697,-3.538108,0.9993045,0.02846102,-0.1018409,-47.42963,-29.5808,22.26743
137.27,-0.627804000000001,0.4315876,-3.967229,0.9968663,0.0289298,-0.1008438,-47.8026,-29.20299,22.64967
137.28,-2.367049,0.610114400000001,-4.273744,1.007822,0.01638645,-0.09775145,-47.8026,-29.20299,22.64967
137.29,-3.485136,0.967167999999999,-3.967229,1.006996,0.0007980525,-0.1002672,-47.8026,-29.20299,22.64967
137.3,-3.360904,1.086186,-3.722017,1.009042,-0.0050181,-0.09890787,-47.8026,-29.20299,22.64967
137.31,-2.926093,1.324222,-3.538108,1.014367,-0.002545287,-0.1008797,-47.8026,-29.20299,22.64967
137.32,-2.801861,1.44324,-3.108987,1.009232,0.008571408,-0.1088591,-47.43285,-29.58703,21.81933
137.33,-2.677629,1.502748,-2.863775,0.995565,0.00504112,-0.1096525,-47.43285,-29.58703,21.81933
137.34,-1.994354,1.383731,-2.618563,0.9872224,0.003495213,-0.112901,-47.43285,-29.58703,21.81933
137.35,-1.124731,1.562257,-2.312048,0.9857493,0.008362937,-0.1090054,-47.43285,-29.58703,21.81933
137.36,-0.5035722,1.740784,-1.94423,0.9886274,0.009837358,-0.1119091,-47.43285,-29.58703,21.81933
137.37,-0.5656881,2.097838,-1.515109,0.9904768,0.01665924,-0.1137947,-47.0579,-29.21697,22.26173
137.38,-0.938383600000002,3.10949,-0.2277464,0.9904689,0.01568052,-0.1152405,-47.0579,-29.21697,22.26173
137.39,-1.373195,3.585561,0.2013745,0.9925004,0.01376628,-0.111452,-47.0579,-29.21697,22.26173
137.4,-1.870122,3.823597,0.5078895,0.9914168,0.01714515,-0.1162,-47.0579,-29.21697,22.26173
137.41,-2.491281,4.002124,0.6917985,0.9898944,0.01516364,-0.1219454,-47.0579,-29.21697,22.26173
137.42,-3.298788,4.478195,0.937010400000001,1.001206,0.008933413,-0.1231176,-47.05389,-29.95326,22.26927
137.43,-3.857831,4.597213,0.6917985,1.001344,-0.003232903,-0.1237015,-47.05389,-29.95326,22.26927
137.44,-3.671484,4.359177,0.3852835,1.000498,-0.01052719,-0.1203966,-47.05389,-29.95326,22.26927
137.45,-3.112441,3.942615,0.4465865,1.008734,-0.0104763,-0.1262639,-47.05389,-29.95326,22.26927
137.46,-2.553397,3.883106,-0.04383745,1.005307,-0.008554543,-0.1247613,-47.05389,-29.95326,22.26927
137.47,-2.615513,3.883106,-0.4116554,1.00041,0.008976791,-0.1096883,-46.68212,-30.70546,21.4427
137.48,-3.112441,3.764088,-0.840776400000003,0.9948959,0.006450133,-0.1216111,-46.68212,-30.70546,21.4427
137.49,-3.671484,3.228508,-1.269897,0.9850591,0.008789509,-0.1233679,-46.68212,-30.70546,21.4427
137.5,-3.42302,2.752436,-1.453806,0.9801387,0.01508498,-0.1198903,-46.68212,-30.70546,21.4427
137.51,-4.168411,2.633418,-1.392503,0.9830133,0.01851129,-0.1213399,-46.68212,-30.70546,21.4427
137.52,-4.603223,3.347525,-1.208594,0.989919,0.0141942,-0.1209956,-47.05987,-29.96484,21.43709
137.53,-5.224382,3.64507,-1.269897,0.9891056,0.002515137,-0.1191657,-47.05987,-29.96484,21.43709
137.54,-4.727455,3.585561,-1.699018,0.9949904,-0.008657934,-0.1279695,-47.05987,-29.96484,21.43709
137.55,-3.547252,3.526052,-2.312048,1.001918,-0.02419789,-0.1358666,-47.05987,-29.96484,21.43709
137.56,-1.435311,3.049981,-2.863775,1.004442,-0.01976002,-0.1262811,-47.05987,-29.96484,21.43709
137.57,-0.3172244,2.216856,-3.292896,1.006793,-0.004630436,-0.1199573,-46.68936,-29.9754,20.98706
137.58,-0.1308767,2.157347,-3.599411,1.006819,0.008070733,-0.1069121,-46.68936,-29.9754,20.98706
137.59,-0.752035899999999,2.157347,-3.844623,1.011776,0.004715157,-0.1050943,-46.68936,-29.9754,20.98706
137.6,-1.497427,2.335874,-4.028532,1.02115,0.002867338,-0.1009307,-46.68936,-29.9754,20.98706
137.61,-1.932238,2.633418,-4.212441,1.011478,-0.0108578,-0.1047423,-46.68936,-29.9754,20.98706
137.62,-1.74589,2.454891,-4.335047,1.00327,-0.01383002,-0.09937917,-46.6881,-30.71704,20.61052
137.63,-1.062615,2.276365,-4.39635,0.9987779,-0.01340632,-0.1055412,-46.6881,-30.71704,20.61052
137.64,-1.186847,2.5144,-4.764168,0.9993075,-0.01241401,-0.1017068,-46.6881,-30.71704,20.61052
137.65,-1.124731,2.871454,-4.39635,0.9958854,-0.002679148,-0.09295022,-46.6881,-30.71704,20.61052
137.66,-2.304934,2.633418,-4.702865,0.9989212,-0.004577354,-0.08725912,-46.6881,-30.71704,20.61052
137.67,-2.739745,3.10949,-4.39635,0.998016,-0.007982727,-0.08487897,-45.94266,-30.35752,20.60288
137.68,-2.863977,3.168999,-4.028532,1.006486,-0.01714154,-0.08172258,-45.94266,-30.35752,20.60288
137.69,-2.863977,3.228508,-3.231593,1.014903,-0.02240959,-0.07901181,-45.94266,-30.35752,20.60288
137.7,-2.615513,3.883106,-2.373351,1.020147,-0.01361311,-0.0814083,-45.94266,-30.35752,20.60288
137.71,-2.553397,3.942615,-1.3312,1.018582,0.003922358,-0.07309163,-45.94266,-30.35752,20.60288
137.72,-4.106296,4.478195,-0.595564399999999,1.01648,0.002398988,-0.08505452,-45.94064,-30.72567,20.60666
137.73,-5.162266,5.31132,0.753101500000001,1.010507,-0.002076433,-0.09650793,-45.94064,-30.72567,20.60666
137.74,-6.15612100000001,5.370829,1.427434,1.005252,-0.02308193,-0.1057151,-45.94064,-30.72567,20.60666
137.75,-5.90765700000002,5.132793,2.224373,1.011204,-0.04107081,-0.1155357,-45.94064,-30.72567,20.60666
137.76,-4.851686,4.478195,2.898706,1.028402,-0.04870912,-0.1168037,-45.94064,-30.72567,20.60666
137.77,-3.609368,3.942615,2.040464,1.039586,-0.06181086,-0.1333665,-47.06258,-31.08621,20.23214
137.78,-2.429165,3.883106,0.998313400000002,1.031064,-0.08231349,-0.1305428,-47.06258,-31.08621,20.23214
137.79,0.614514300000001,3.407034,-0.1051404,0.9867062,-0.1002387,-0.1343747,-47.06258,-31.08621,20.23214
137.8,5.397439,1.97882,-0.718170499999998,0.93942,-0.1054942,-0.1265571,-47.06258,-31.08621,20.23214
137.81,9.68343699999999,0.3125697,-0.963382399999999,0.9098812,-0.07407288,-0.1124533,-47.06258,-31.08621,20.23214
137.82,10.80152,-0.758591100000003,0.01746555,0.9050087,-0.01028816,-0.09076083,-46.69208,-31.09677,19.78211
137.83,7.26091699999999,-0.996626799999999,1.611344,0.9060766,0.04038646,-0.0754932,-46.69208,-31.09677,19.78211
137.84,0.5523984,-0.6395732,3.695645,0.928256,0.06246379,-0.07993579,-46.69208,-31.09677,19.78211
137.85,-6.34246800000002,0.1340429,7.68033999999998,0.9569457,0.04704698,-0.1063516,-46.69208,-31.09677,19.78211
137.86,-10.69058,0.1340429,10.9907,0.9952922,0.03949223,-0.1352346,-46.69208,-31.09677,19.78211
137.87,-13.05099,0.4910965,13.81064,1.020633,0.02162539,-0.1582689,-46.31512,-31.09485,20.22827
137.88,-13.61003,-0.4015375,15.64973,1.035635,0.02366615,-0.1685287,-46.31512,-31.09485,20.22827
137.89,-12.86464,-1.829752,15.89494,1.037784,0.004697528,-0.1711154,-46.31512,-31.09485,20.22827
137.9,-10.19366,-3.079439,15.71103,1.030734,-0.0167672,-0.1688001,-46.31512,-31.09485,20.22827
137.91,-6.21823599999999,-4.329127,15.40452,1.012609,-0.03535205,-0.1509683,-46.31512,-31.09485,20.22827
137.92,-1.124731,-4.924216,14.60758,0.9962553,-0.0388376,-0.1335134,-46.69408,-30.72862,19.77834
137.93,4.093006,-5.519306,13.13631,0.991401,-0.01885296,-0.1131492,-46.69408,-30.72862,19.77834
137.94,8.379004,-5.578815,11.60373,0.98352,-0.003802621,-0.1038051,-46.69408,-30.72862,19.77834
137.95,9.99401800000002,-5.578815,10.50028,0.9871894,0.02057373,-0.1002972,-46.69408,-30.72862,19.77834
137.96,9.37285800000002,-5.340779,9.09030800000002,0.9947705,0.03570797,-0.1050696,-46.69408,-30.72862,19.77834
137.97,7.57149600000002,-4.74569,8.232067,1.00966,0.04943404,-0.1133123,-47.44556,-29.98369,19.77466
137.98,5.211092,-4.567163,6.94470399999998,1.028241,0.04666699,-0.1164757,-47.44556,-29.98369,19.77466
137.99,2.66434,-4.031582,5.718644,1.036018,0.04916319,-0.1180031,-47.44556,-29.98369,19.77466
138,-0.0687607899999999,-4.091092,4.369978,1.040582,0.03606616,-0.1176995,-47.44556,-29.98369,19.77466
138.01,-2.491281,-3.734038,2.898706,1.049684,0.02207001,-0.1083633,-47.44556,-29.98369,19.77466
138.02,-4.354759,-3.019931,1.243526,1.055937,-0.003644713,-0.102919,-47.43958,-29.97211,20.60684
138.03,-4.168411,-2.365332,-0.4116554,1.052467,-0.0343113,-0.097378,-47.43958,-29.97211,20.60684
138.04,-2.05647,-2.008279,-2.434654,1.039565,-0.05777586,-0.09547535,-47.43958,-29.97211,20.60684
138.05,1.856833,-1.94877,-4.886774,1.019052,-0.06868922,-0.1024631,-47.43958,-29.97211,20.60684
138.06,6.45340999999999,-2.008279,-6.48065200000002,1.001722,-0.07071808,-0.08354443,-47.43958,-29.97211,20.60684
138.07,10.05613,-1.94877,-8.25844000000003,0.9844388,-0.0508986,-0.07785964,-48.18904,-29.59533,20.60693
138.08,11.85749,-1.829752,-8.68756000000002,0.9690307,-0.01985575,-0.06827328,-48.18904,-29.59533,20.60693
138.09,11.42268,-1.710734,-8.93277299999997,0.9649903,0.003508285,-0.05699693,-48.18904,-29.59533,20.60693
138.1,9.62132200000001,-1.175154,-8.564955,0.9678072,0.01619443,-0.05453401,-48.18904,-29.59533,20.60693
138.11,6.95033699999999,-0.2825196,-7.64540899999999,0.9819135,0.02557353,-0.05225991,-48.18904,-29.59533,20.60693
138.12,4.77628,0.4910965,-6.29674299999998,0.9857718,0.01533969,-0.06533965,-47.43682,-29.96676,20.99092
138.13,2.788571,1.086186,-4.764168,0.999477,0.005210507,-0.07376686,-47.43682,-29.96676,20.99092
138.14,1.918949,1.562257,-3.476805,1.00832,-0.003000555,-0.07827499,-47.43682,-29.96676,20.99092
138.15,1.794717,2.097838,-2.434654,1.017156,-0.0165844,-0.08809955,-47.43682,-29.96676,20.99092
138.16,3.037035,2.5144,-2.250745,1.013384,-0.03561953,-0.09443602,-47.43682,-29.96676,20.99092
138.17,5.708019,2.633418,-1.699018,1.002837,-0.04541794,-0.08718041,-47.44159,-29.60396,20.60307
138.18,8.379004,2.454891,-1.392503,1.000841,-0.03665819,-0.08228604,-47.44159,-29.60396,20.60307
138.19,9.93190099999998,2.871454,-1.3312,0.9958441,-0.007926266,-0.06472116,-47.44159,-29.60396,20.60307
138.2,9.86978500000003,3.228508,-1.024685,1.001925,0.01109139,-0.06848092,-47.44159,-29.60396,20.60307
138.21,7.94419199999998,3.288017,-0.6568674,1.000541,0.0194023,-0.05497348,-47.44159,-29.60396,20.60307
138.22,5.89436700000002,3.466543,0.1400715,0.9980699,0.01937335,-0.0568553,-47.81055,-29.96245,20.99286
138.23,4.093006,3.168999,0.814404500000002,0.9946327,0.02324513,-0.05437764,-47.81055,-29.96245,20.99286
138.24,2.726455,3.407034,2.101768,1.011882,0.02001573,-0.04794195,-47.81055,-29.96245,20.99286
138.25,0.925093900000002,3.823597,3.450433,1.049899,0.02714872,-0.05225717,-47.81055,-29.96245,20.99286
138.26,-1.808006,5.192302,5.105614,1.078903,0.04293294,-0.06403814,-47.81055,-29.96245,20.99286
138.27,-5.162266,7.33462400000002,6.63818900000001,1.078232,0.03457696,-0.08470466,-47.81732,-29.2315,20.60123
138.28,-7.771134,8.70333,7.496431,1.065274,0.02560823,-0.1099932,-47.81732,-29.2315,20.60123
138.29,-8.64075799999999,9.47694600000003,7.92555200000002,1.045272,0.006893491,-0.1223253,-47.81732,-29.2315,20.60123
138.3,-7.46055500000003,9.71498200000002,7.435128,1.012805,-0.01332605,-0.1172412,-47.81732,-29.2315,20.60123
138.31,-5.038034,10.07204,6.39297700000003,0.9855146,-0.01305082,-0.1091827,-47.81732,-29.2315,20.60123
138.32,-2.615513,10.42909,4.369978,0.9769779,-0.01305217,-0.0894139,-47.81607,-29.97314,20.22469
138.33,0.117587,11.61927,2.346979,0.9626659,-0.03309574,-0.08027428,-47.81607,-29.97314,20.22469
138.34,3.906658,12.63092,0.3239805,0.9656596,-0.04135288,-0.08326183,-47.81607,-29.97314,20.22469
138.35,7.81996000000001,13.64257,-1.453806,0.9650781,-0.02917787,-0.0793172,-47.81607,-29.97314,20.22469
138.36,10.05613,14.11864,-2.925078,0.98646,-0.02121622,-0.08290914,-47.81607,-29.97314,20.22469
138.37,9.06227899999999,15.13029,-4.028532,0.9942526,0.004095898,-0.09909937,-47.07262,-29.24548,20.21328
138.38,6.826106,15.13029,-4.702865,1.010187,0.01931445,-0.1011148,-47.07262,-29.24548,20.21328
138.39,3.782426,14.83275,-5.499804,1.013956,0.0188196,-0.1121943,-47.07262,-29.24548,20.21328
138.4,1.049326,14.05913,-5.86762200000002,1.004782,0.01535405,-0.1063424,-47.07262,-29.24548,20.21328
138.41,-1.062615,13.1665,-6.41934899999997,1.005078,0.0003035401,-0.09784807,-47.07262,-29.24548,20.21328
138.42,-2.180702,12.21436,-6.66456100000001,0.9985564,-0.008452004,-0.08153623,-46.32838,-29.26035,19.76132
138.43,-2.926093,10.84565,-6.60325800000002,0.9957768,-0.009410138,-0.07096232,-46.32838,-29.26035,19.76132
138.44,-2.801861,9.71498200000002,-6.35804599999998,0.9963163,-0.01915597,-0.07584424,-46.32838,-29.26035,19.76132
138.45,-1.994354,8.881857,-5.377198,0.9963755,-0.02304488,-0.07491951,-46.32838,-29.26035,19.76132
138.46,-0.5035722,7.92971299999999,-4.580259,1.005555,-0.01616029,-0.07738823,-46.32838,-29.26035,19.76132
138.47,0.2418188,6.85855199999999,-3.599411,0.9994219,-0.001152146,-0.08340376,-47.8213,-29.61123,19.77282
138.48,-0.1308767,5.727883,-3.108987,1.004069,0.01005064,-0.09152184,-47.8213,-29.61123,19.77282
138.49,-0.876267699999999,5.132793,-2.863775,0.9966727,0.004598428,-0.1005672,-47.8213,-29.61123,19.77282
138.5,-0.689919899999999,4.180651,-2.434654,0.9870079,-0.008636416,-0.1034164,-47.8213,-29.61123,19.77282
138.51,0.4281665,3.168999,-2.250745,0.9964532,-0.01534631,-0.09833642,-47.8213,-29.61123,19.77282
138.52,1.856833,2.871454,-2.373351,0.9937652,-0.02457813,-0.08831283,-47.45832,-29.26433,18.55086
138.53,3.161267,2.276365,-2.495957,0.9992087,-0.02988314,-0.08843519,-47.45832,-29.26433,18.55086
138.54,3.72031,1.919311,-2.495957,0.991672,-0.02840501,-0.06579292,-47.45832,-29.26433,18.55086
138.55,3.782426,1.562257,-2.55726,0.9870785,-0.02605728,-0.07768762,-47.45832,-29.26433,18.55086
138.56,4.03089,1.621766,-2.802472,0.9885104,-0.02361333,-0.0781666,-47.45832,-29.26433,18.55086
138.57,3.72031,1.562257,-2.495957,0.9899763,-0.02018323,-0.07528336,-47.07982,-29.63144,18.93678
138.58,2.540108,1.264713,-2.434654,0.9912302,-0.01486066,-0.08627789,-47.07982,-29.63144,18.93678
138.59,0.862977999999999,0.967167999999999,-2.250745,0.992597,-0.003647158,-0.08380674,-47.07982,-29.63144,18.93678
138.6,-0.814151800000002,0.7886412,-1.94423,1.002472,-0.006463827,-0.07965847,-47.07982,-29.63144,18.93678
138.61,-2.367049,0.610114400000001,-1.3312,1.01358,-0.009334426,-0.09277938,-47.07982,-29.63144,18.93678
138.62,-2.801861,0.3125697,-0.779473400000002,1.010348,-0.01175103,-0.08077374,-47.08057,-30.00494,18.55647
138.63,-3.42302,-0.2825196,-0.2890494,1.012833,-0.01122993,-0.07745036,-47.08057,-30.00494,18.55647
138.64,-3.795716,-0.6395732,0.1400715,1.010875,-0.01710652,-0.08274324,-47.08057,-30.00494,18.55647
138.65,-3.671484,-1.175154,0.753101500000001,1.008945,-0.01662787,-0.08031569,-47.08057,-30.00494,18.55647
138.66,-3.112441,-1.710734,0.998313400000002,0.9974001,-0.02253484,-0.07109622,-47.08057,-30.00494,18.55647
138.67,-1.994354,-2.543859,0.998313400000002,0.9940516,-0.02889049,-0.07110213,-47.08057,-30.00494,18.55647
138.68,-0.3793404,-3.317475,0.937010400000001,0.9867065,-0.03481628,-0.07679784,-47.08057,-30.00494,18.55647
138.69,1.794717,-3.853055,0.814404500000002,0.9880626,-0.02214119,-0.07383501,-47.08057,-30.00494,18.55647
138.7,3.533962,-3.972073,0.814404500000002,0.9851151,-0.01338261,-0.06701029,-47.08057,-30.00494,18.55647
138.71,3.968773,-4.1506,1.366131,0.9849057,0.0075514,-0.06395544,-47.45552,-30.37501,18.11407
138.72,3.161267,-3.853055,1.917858,0.9847336,0.01873156,-0.06673383,-47.45552,-30.37501,18.11407
138.73,1.856833,-3.734038,2.469585,0.9871075,0.02312672,-0.06816817,-47.45552,-30.37501,18.11407
138.74,0.3660506,-4.031582,3.143918,1.000387,0.02033461,-0.0655058,-47.45552,-30.37501,18.11407
138.75,-1.062615,-3.853055,3.818251,0.9973524,0.02760375,-0.0663596,-47.45552,-30.37501,18.11407
138.76,-1.994354,-3.674529,4.983008,1.011568,0.03164348,-0.06077772,-47.45552,-30.37501,18.11407
138.77,-3.795716,-3.257966,6.025159,1.017727,0.05117186,-0.05830471,-47.45155,-29.99527,18.94248
138.78,-6.96362699999999,-2.067788,7.31252200000001,1.021378,0.06724295,-0.0634923,-47.45155,-29.99527,18.94248
138.79,-10.13154,-1.056136,7.68033999999998,1.014497,0.0535028,-0.07788616,-47.45155,-29.99527,18.94248
138.8,-11.87078,-0.758591100000003,7.80294599999997,1.008866,0.01690206,-0.09249078,-47.45155,-29.99527,18.94248
138.81,-11.06328,-1.35368,7.06730999999997,1.004342,-0.01672417,-0.09510608,-47.45155,-29.99527,18.94248
138.82,-7.70901799999999,-2.246315,6.20906799999998,0.997654,-0.03187393,-0.09657621,-47.07459,-29.99335,19.38865
138.83,-3.795716,-2.900913,4.737796,1.000153,-0.01767851,-0.08019926,-47.07459,-29.99335,19.38865
138.84,-1.186847,-3.079439,3.511736,1.011528,0.001497313,-0.05432278,-47.07459,-29.99335,19.38865
138.85,-0.627804000000001,-2.841404,2.653494,1.001604,0.02334067,-0.0453714,-47.07459,-29.99335,19.38865
138.86,-1.994354,-2.722386,2.16307,0.9971274,0.03011588,-0.04477122,-47.07459,-29.99335,19.38865
138.87,-4.727455,-2.841404,1.672646,0.9902807,0.02175594,-0.05193219,-47.45631,-29.63247,18.55463
138.88,-5.96977299999997,-3.019931,0.814404500000002,0.9816367,-0.002199158,-0.06111594,-47.45631,-29.63247,18.55463
138.89,-4.913802,-4.210109,-0.595564399999999,0.9765442,-0.03194635,-0.0660864,-47.45631,-29.63247,18.55463
138.9,-2.304934,-4.805199,-0.840776400000003,0.9941552,-0.0205611,-0.05617813,-47.45631,-29.63247,18.55463
138.91,-1.311079,-5.75734100000001,-0.718170499999998,1.015048,0.0137606,-0.03653908,-47.07982,-29.63144,18.93678
138.92,-2.367049,-4.74569,0.4465865,1.052426,0.04281688,-0.03251379,-47.07982,-29.63144,18.93678
138.93,-7.27420699999999,-3.376984,3.205221,1.068302,0.07510652,-0.02384196,-47.07982,-29.63144,18.93678
138.94,-15.47351,-1.94877,5.963856,1.068477,0.07453326,-0.04733008,-47.07982,-29.63144,18.93678
138.95,-22.8653,-0.3420286,7.31252200000001,1.052946,0.02804803,-0.07912818,-47.07982,-29.63144,18.93678
138.96,-25.47417,0.1340429,7.37382500000001,1.020297,-0.04823444,-0.1008706,-47.07982,-29.63144,18.93678
138.97,-22.43049,-0.2825196,6.82209799999999,1.000993,-0.1175255,-0.1064514,-47.07982,-29.63144,18.93678
138.98,-15.8462,-1.294171,4.860402,0.9721564,-0.1474205,-0.09479196,-47.07982,-29.63144,18.93678
138.99,-6.96362699999999,-2.186805,1.488737,0.9554165,-0.1557631,-0.07401821,-47.07982,-29.63144,18.93678
139,1.608369,-3.496002,-2.189442,0.9548703,-0.1497898,-0.03706165,-47.07982,-29.63144,18.93678
139.01,9.18650999999998,-4.269618,-5.254592,0.9569826,-0.1282462,-0.00672038,-47.07982,-29.63144,18.93678
139.02,14.15578,-5.28127,-6.84847,0.9689631,-0.07548041,0.02134775,-47.45631,-29.63247,18.55463
139.03,15.08752,-4.983726,-7.522803,1.001295,-0.006476771,0.04926286,-47.45631,-29.63247,18.55463
139.04,10.05613,-3.436493,-8.50365200000001,1.039,0.03669644,0.05388181,-47.45631,-29.63247,18.55463
139.05,3.161267,0.2530608,-8.564955,1.059194,0.03482508,0.02626383,-47.45631,-29.63247,18.55463
139.06,-3.174556,2.097838,-8.50365200000001,1.070289,0.009980469,-0.007168726,-47.45631,-29.63247,18.55463
139.07,-6.46669999999998,4.716231,-7.70671199999999,1.075233,-0.01486068,-0.02517923,-47.82406,-29.61657,19.38874
139.08,-7.89536600000002,6.50149900000001,-6.84847,1.066976,-0.02028808,-0.02558654,-47.82406,-29.61657,19.38874
139.09,-7.58478600000002,8.52480299999999,-5.254592,1.057971,-0.01101161,0.003851263,-47.82406,-29.61657,19.38874
139.1,-7.89536600000002,10.42909,-3.844623,1.049224,0.0143151,0.03054563,-47.82406,-29.61657,19.38874
139.11,-9.19979999999998,13.40454,-2.128139,1.045802,0.02795558,0.04268952,-47.45631,-29.63247,18.55463
139.12,-11.37386,16.43949,0.0787685399999998,1.044539,0.03434803,0.06336704,-47.45631,-29.63247,18.55463
139.13,-14.79023,17.68918,2.16307,1.05536,0.04861849,0.08010523,-47.45631,-29.63247,18.55463
139.14,-19.07623,18.22476,2.592191,1.079081,0.03864224,0.08878775,-47.45631,-29.63247,18.55463
139.15,-22.11991,21.20021,4.186069,1.099236,0.002719079,0.06423734,-47.45631,-29.63247,18.55463
139.16,-22.18203,24.17565,5.534735,1.084992,-0.04562216,0.05348999,-47.45631,-29.63247,18.55463
139.17,-18.70354,26.31797,5.596038,1.058768,-0.06874792,0.04743899,-46.70806,-30.38364,18.11021
139.18,-12.80252,27.68668,4.308675,1.040909,-0.04602813,0.04932287,-46.70806,-30.38364,18.11021
139.19,-8.20594600000002,29.23391,2.960009,1.040818,0.01435088,0.05989692,-46.70806,-30.38364,18.11021
139.2,-8.081714,31.7928,1.366131,1.03646,0.06008267,0.06753297,-46.70806,-30.38364,18.11021
139.21,-11.43597,35.42284,0.2013745,1.028313,0.08433343,0.06545775,-46.70806,-30.38364,18.11021
139.22,-15.65986,38.27927,-0.2277464,1.030617,0.08529098,0.05584901,-46.7168,-30.40057,16.89395
139.23,-17.89603,40.60012,-0.595564399999999,1.028687,0.07698149,0.05053519,-46.7168,-30.40057,16.89395
139.24,-17.15064,42.4449,-1.515109,1.020989,0.03642636,0.02442586,-46.7168,-30.40057,16.89395
139.25,-13.85849,43.63507,-2.373351,1.018515,0.008702702,0.03381115,-46.7168,-30.40057,16.89395
139.26,-8.95133700000002,44.11115,-4.028532,1.022956,-0.01649995,0.05030714,-46.73273,-30.80346,14.40118
139.27,-2.491281,44.40869,-6.48065200000002,1.036175,-0.03675005,0.06911581,-46.73273,-30.80346,14.40118
139.28,4.527817,45.18231,-8.93277299999997,1.049853,-0.06432796,0.07923051,-46.73273,-30.80346,14.40118
139.29,12.91347,46.432,-10.58795,1.044889,-0.0647449,0.1094873,-46.73273,-30.80346,14.40118
139.3,19.12506,46.61052,-12.18183,1.038208,-0.04522877,0.1389784,-46.73273,-30.80346,14.40118
139.31,23.34894,47.62217,-13.10138,1.046877,-0.009060943,0.1607241,-46.36574,-31.19285,13.18676
139.32,24.40491,49.58597,-13.28528,1.041327,0.01671935,0.1710839,-46.36574,-31.19285,13.18676
139.33,22.85201,52.08534,-11.99792,1.049299,0.03964129,0.1658926,-46.36574,-31.19285,13.18676
139.34,18.44178,54.52521,-9.48449999999999,1.086141,0.05110403,0.1510882,-46.36574,-31.19285,13.18676
139.35,12.54077,57.44115,-6.35804599999998,1.131295,0.06459183,0.1376201,-46.36574,-31.19285,13.18676
139.36,5.521671,59.8215099999998,-4.580259,1.142572,0.05298138,0.129215,-46.00352,-31.21944,11.58448
139.37,-0.3172244,61.0711900000002,-4.089835,1.111486,0.0361678,0.1309538,-46.00352,-31.21944,11.58448
139.38,-4.541107,61.3092299999998,-5.193289,1.07509,0.009562309,0.1293312,-46.00352,-31.21944,11.58448
139.39,-6.21823599999999,61.9638300000001,-5.80631900000002,1.036859,-0.01897886,0.1349064,-46.00352,-31.21944,11.58448
139.4,-5.162266,62.2613699999999,-7.584106,1.003471,-0.06102565,0.1609041,-46.00352,-31.21944,11.58448
139.41,1.794717,61.9638300000001,-10.89447,0.9999636,-0.1153557,0.2146452,-46.01624,-31.6161,9.539807
139.42,9.43497399999997,61.6662800000001,-13.5305,1.013055,-0.1120723,0.2806158,-46.01624,-31.6161,9.539807
139.43,15.27387,53.15651,-15.12438,1.056781,-0.05779302,0.3777282,-46.01624,-31.6161,9.539807
139.44,20.74007,66.7245400000002,-14.69525,1.11597,-0.007470371,0.4213957,-46.01624,-31.6161,9.539807
139.45,18.19332,69.93803,-12.79486,1.088758,0.08713786,0.4106019,-46.01624,-31.6161,9.539807
139.46,8.62746700000002,73.0920000000003,-9.668408,1.102133,0.1382958,0.3959879,-45.28751,-30.91695,7.47996
139.47,-2.553397,77.7932100000001,-5.92892500000001,1.110603,0.1669484,0.3606482,-45.28751,-30.91695,7.47996
139.48,-12.05713,81.00668,-3.78332,1.099143,0.1559131,0.2998601,-45.28751,-30.91695,7.47996
139.49,-17.58545,82.5539200000002,-2.373351,1.092736,0.09286205,0.2409569,-45.28751,-30.91695,7.47996
139.5,-17.02641,82.4944100000003,-1.3312,1.073232,0.03216662,0.1923235,-45.28751,-30.91695,7.47996
139.51,-11.37386,81.5422700000002,-1.882927,1.061434,-0.00798836,0.1528584,-43.87003,-32.07891,4.539232
139.52,-3.112441,81.00668,-2.250745,1.055811,-0.009569713,0.1337573,-43.87003,-32.07891,4.539232
139.53,4.714165,79.8760100000002,-4.089835,1.042927,0.01321726,0.1418004,-43.87003,-32.07891,4.539232
139.54,11.73326,78.6858400000003,-7.09368199999998,1.020022,0.02413258,0.1220926,-43.87003,-32.07891,4.539232
139.55,17.01311,76.6030299999999,-9.48449999999999,0.9719915,0.04747012,0.1004517,-43.87003,-32.07891,4.539232
139.56,19.55987,73.4490499999999,-11.69141,0.9194427,0.05475952,0.09215741,-43.51901,-31.75518,1.652909
139.57,19.06294,69.5809700000001,-13.95962,0.8595822,0.06540897,0.08878765,-43.51901,-31.75518,1.652909
139.58,16.82677,63.51106,-15.43089,0.819669,0.04997579,0.09018466,-43.51901,-31.75518,1.652909
139.59,14.52848,58.5718200000003,-16.10522,0.8022951,0.031823,0.09171668,-43.51901,-31.75518,1.652909
139.6,12.41654,53.097,-15.92131,0.7860203,0.007366296,0.09653424,-43.51901,-31.75518,1.652909
139.61,11.98173,47.68168,-15.30828,0.7736924,-0.03755167,0.08578847,-42.78548,-32.53485,-0.8399515
139.62,12.29231,41.61177,-13.83701,0.7661171,-0.05317249,0.09055659,-42.78548,-32.53485,-0.8399515
139.63,13.16193,35.54186,-12.54965,0.7603306,-0.04587719,0.1031598,-42.78548,-32.53485,-0.8399515
139.64,13.59674,29.35293,-10.89447,0.7647963,-0.02922052,0.1224047,-42.78548,-32.53485,-0.8399515
139.65,12.72712,23.75909,-10.03623,0.7709392,-0.007743971,0.1253736,-42.78548,-32.53485,-0.8399515
139.66,11.4848,18.58181,-9.11668099999999,0.7750822,0.006379547,0.118725,-42.04476,-32.92856,-2.056306
139.67,9.80766999999999,12.69043,-8.01322700000002,0.7694801,0.001386575,0.09815711,-42.04476,-32.92856,-2.056306
139.68,9.06227899999999,6.50149900000001,-6.54195500000002,0.772434,-0.007370146,0.0918115,-42.04476,-32.92856,-2.056306
139.69,8.56535100000001,0.0745339900000001,-5.254592,0.7795628,-0.002482501,0.08072957,-42.04476,-32.92856,-2.056306
139.7,7.81996000000001,-5.93586800000001,-4.089835,0.8021951,0.01714766,0.07146787,-42.04476,-32.92856,-2.056306
139.71,6.39129399999997,-11.94627,-3.17029,0.8060818,0.01717467,0.06949591,-41.30006,-32.94254,-2.444252
139.72,5.95648299999998,-18.49225,-2.495957,0.7928648,0.01803161,0.06969152,-41.30006,-32.94254,-2.444252
139.73,6.76398999999999,-25.09774,-2.189442,0.7848504,0.009744161,0.08459099,-41.30006,-32.94254,-2.444252
139.74,8.00630799999999,-31.28667,-1.453806,0.7997543,0.03386232,0.1224389,-41.30006,-32.94254,-2.444252
139.75,6.88822200000001,-36.40444,-0.963382399999999,0.8152729,0.05069724,0.1630917,-41.30006,-32.94254,-2.444252
139.76,4.279353,-40.62958,0.998313400000002,0.8480228,0.03513904,0.2190392,-41.66936,-33.23967,-2.055096
139.77,3.037035,-43.4265,2.408283,0.8752536,0.009241072,0.2558101,-41.66936,-33.23967,-2.055096
139.78,2.788571,-44.85471,3.634342,0.9057245,-0.009490889,0.2494673,-41.66936,-33.23967,-2.055096
139.79,3.471847,-46.16391,5.77994700000002,0.9291508,-0.01662194,0.2390101,-41.66936,-33.23967,-2.055096
139.8,4.900512,-47.83016,7.25121900000002,0.9505568,0.01122874,0.2188136,-41.66936,-33.23967,-2.055096
139.81,5.273208,-50.21051,7.98685500000002,0.9813701,0.04602901,0.2129178,-41.27965,-33.95711,-0.3851271
139.82,3.533962,-52.1148,9.02900599999999,1.008372,0.09582366,0.1918684,-41.27965,-33.95711,-0.3851271
139.83,-1.373195,-54.25712,9.703339,1.017532,0.1372318,0.1825033,-41.27965,-33.95711,-0.3851271
139.84,-8.33017700000002,-57.11355,10.80679,1.016769,0.1493548,0.1730325,-41.27965,-33.95711,-0.3851271
139.85,-15.59774,-59.49391,11.97155,1.005035,0.1438824,0.1688408,-41.27965,-33.95711,-0.3851271
139.86,-21.56087,-61.9337799999998,12.27806,0.9822771,0.1139635,0.1598078,-42.3849,-33.54127,2.113436
139.87,-24.54243,-64.1356000000003,12.89109,0.9570781,0.07048935,0.1751345,-42.3849,-33.54127,2.113436
139.88,-23.92127,-66.4564500000002,11.91025,0.9597501,0.03116428,0.1929741,-42.3849,-33.54127,2.113436
139.89,-19.63527,-67.2300699999998,11.48113,0.9726279,0.001322536,0.2500426,-42.3849,-33.54127,2.113436
139.9,-14.29331,-67.5871300000003,9.82594499999999,0.994232,-0.0242049,0.2691664,-42.3849,-33.54127,2.113436
139.91,-7.46055500000003,-65.92088,8.66118800000002,1.00012,-0.04598302,0.2871083,-42.7539,-32.78373,3.324088
139.92,-0.00664487499999999,-64.7902100000003,7.61903699999999,0.9886065,-0.04420441,0.2695571,-42.7539,-32.78373,3.324088
139.93,7.63361300000001,-64.7902100000003,6.760795,0.9862987,0.01106567,0.2206988,-42.7539,-32.78373,3.324088
139.94,10.67729,-64.7306999999998,6.33167399999997,1.014206,0.05547758,0.1895279,-42.7539,-32.78373,3.324088
139.95,11.04999,-65.08775,5.657341,1.040013,0.09983142,0.1478441,-42.7539,-32.78373,3.324088
139.96,8.50323600000003,-66.8730200000001,5.90255300000001,1.060359,0.1339972,0.1272369,-43.48341,-32.74035,5.82449
139.97,2.850687,-69.2533700000003,6.63818900000001,1.059299,0.1567766,0.105401,-43.48341,-32.74035,5.82449
139.98,-5.410729,-71.6337300000001,7.68033999999998,1.059461,0.168405,0.09160009,-43.48341,-32.74035,5.82449
139.99,-14.79023,-72.8834200000003,9.27421799999997,1.054808,0.1664769,0.1074637,-43.48341,-32.74035,5.82449
140,-23.238,-73.4190000000002,10.07116,1.03549,0.1264752,0.1265694,-43.48341,-32.74035,5.82449
140.01,-28.45573,-73.8355599999997,10.56158,1.021612,0.05285049,0.1203955,-44.52282,-33.06241,8.266258
140.02,-27.77246,-73.5975299999999,10.8681,1.008777,-0.004282664,0.09757388,-44.52282,-33.06241,8.266258
140.03,-22.74107,-72.8834200000003,11.052,1.00142,-0.05206406,0.0900875,-44.52282,-33.06241,8.266258
140.04,-16.34313,-73.53802,10.9294,0.9947608,-0.0531823,0.06717139,-44.52282,-33.06241,8.266258
140.05,-10.56635,-74.2521300000002,11.29722,1.008933,-0.03073741,0.04990765,-44.52282,-33.06241,8.266258
140.06,-6.65304800000002,-74.8472099999997,12.15546,1.03616,0.01277443,0.03982361,-44.50655,-32.72088,10.75965
140.07,-6.28035299999998,-74.9067200000002,13.13631,1.065053,0.04512645,0.03441367,-44.50655,-32.72088,10.75965
140.08,-9.38614800000002,-75.5018199999997,14.42367,1.087659,0.07402574,0.03146015,-44.50655,-32.72088,10.75965
140.09,-15.10081,-76.2159200000002,14.54628,1.101639,0.08092738,0.02221438,-44.50655,-32.72088,10.75965
140.1,-19.69739,-76.2754300000001,14.54628,1.105945,0.0521336,-0.01019637,-44.50655,-32.72088,10.75965
140.11,-22.61684,-74.6686899999997,13.93325,1.08518,0.007595605,-0.02944426,-45.61548,-32.31216,12.74611
140.12,-22.24414,-76.81101,13.56543,1.056961,-0.03264632,-0.05334166,-45.61548,-32.31216,12.74611
140.13,-19.32469,-77.7631500000001,11.97155,1.045909,-0.06637678,-0.06832399,-45.61548,-32.31216,12.74611
140.14,-14.10696,-77.82266,10.43897,1.044808,-0.06153818,-0.07305946,-45.61548,-32.31216,12.74611
140.15,-8.88922100000001,-78.12021,8.72248999999999,1.052188,-0.04597306,-0.09220126,-45.61548,-32.31216,12.74611
140.16,-5.410729,-77.7631500000001,7.80294599999997,1.06211,-0.01375922,-0.08967481,-45.59557,-31.52954,16.06728
140.17,-3.919947,-77.9416799999998,7.12861300000003,1.086513,0.01218212,-0.1070549,-45.59557,-31.52954,16.06728
140.18,-3.857831,-78.0011900000002,7.435128,1.112621,0.02746321,-0.1164028,-45.59557,-31.52954,16.06728
140.19,-5.286498,-77.7631500000001,8.66118800000002,1.129109,0.05100432,-0.1063759,-45.59557,-31.52954,16.06728
140.2,-8.76498899999999,-78.1797199999999,9.09030800000002,1.12658,0.06023521,-0.1043452,-45.59557,-31.52954,16.06728
140.21,-12.36771,-77.82266,9.15161100000001,1.104151,0.03662203,-0.1195592,-46.70208,-30.37206,18.94239
140.22,-14.666,-77.1680600000003,9.21291400000001,1.072461,0.02123603,-0.1249878,-46.70208,-30.37206,18.94239
140.23,-14.666,-76.5134700000002,8.72248999999999,1.031573,-0.009339821,-0.136643,-46.70208,-30.37206,18.94239
140.24,-13.17522,-76.33494,7.98685500000002,1.00973,-0.02901522,-0.1412897,-46.70208,-30.37206,18.94239
140.25,-9.82095999999998,-75.97788,7.06730999999997,0.9936068,-0.02231732,-0.1338154,-46.70208,-30.37206,18.94239
