Time (s),Gyroscope X (deg/s),Gyroscope Y (deg/s),Gyroscope Z (deg/s),Accelerometer X (g),Accelerometer Y (g),Accelerometer Z (g),Magnetometer X (uT),Magnetometer Y (uT),Magnetometer Z (uT)
192.48,-0.2679876,-2.299534,0.0744947300000003,0.9714789,0.1339882,-0.1839345,-61.15221,-30.51112,10.31276
192.49,-0.5164512,-2.240025,0.01319174,0.9700667,0.1359439,-0.1781475,-61.15221,-30.51112,10.31276
192.5,-0.951262700000002,-2.418552,0.2584037,0.9684893,0.1319938,-0.1896591,-61.52193,-31.2431,10.32224
192.51,-0.889146700000002,-2.478061,0.3810097,0.9621709,0.1280433,-0.1900816,-61.52193,-31.2431,10.32224
192.52,-0.5164512,-2.418552,0.5649188,0.9616659,0.1260816,-0.1929661,-61.52193,-31.2431,10.32224
192.53,-0.3301035,-2.53757,0.4423127,0.9581983,0.1358034,-0.1875635,-61.52193,-31.2431,10.32224
192.54,-0.5164512,-2.478061,0.3810097,0.9586201,0.1387179,-0.1899409,-61.52193,-31.2431,10.32224
192.55,-0.951262700000002,-2.478061,0.5649188,0.9591309,0.1357991,-0.1909312,-61.52917,-30.51304,9.866598
192.56,-1.572422,-2.478061,0.5649188,0.9654441,0.1275423,-0.2016333,-61.52917,-30.51304,9.866598
192.57,-1.510306,-2.299534,0.5649188,0.9644631,0.1299741,-0.199682,-61.52917,-30.51304,9.866598
192.58,-1.323958,-2.001989,0.5036157,0.9670126,0.1256312,-0.1959213,-61.52917,-30.51304,9.866598
192.59,-1.323958,-1.704445,0.2584037,0.9654505,0.1231501,-0.2050248,-61.52917,-30.51304,9.866598
192.6,-1.572422,-1.525918,0.2584037,0.9713095,0.1295459,-0.2002623,-61.14941,-31.6218,9.875978
192.61,-2.193581,-1.049846,0.1971007,0.9654969,0.1280456,-0.197317,-61.14941,-31.6218,9.875978
192.62,-3.311667,-0.871319499999998,0.3810097,0.964296,0.1401792,-0.2029478,-61.14941,-31.6218,9.875978
192.63,-3.994943,-0.811810600000001,0.1971007,0.9639992,0.1207006,-0.2059832,-61.14941,-31.6218,9.875978
192.64,-3.373783,-0.1572123,0.0744947300000003,0.9590945,0.1245595,-0.2034847,-61.14941,-31.6218,9.875978
192.65,-2.938972,0.0808234400000002,0.0744947300000003,0.9594398,0.1328226,-0.2067743,-61.15544,-30.51736,9.864666
192.66,-3.001088,0.497386,-0.1094143,0.9669028,0.1348762,-0.1958418,-61.15544,-30.51736,9.864666
192.67,-2.938972,1.092475,-0.1707173,0.9737565,0.1305443,-0.1993304,-61.15544,-30.51736,9.864666
192.68,-2.193581,1.449529,-0.3546263,0.9772467,0.1315698,-0.1936211,-61.15544,-30.51736,9.864666
192.69,-1.75877,1.866091,-0.3546263,0.9705721,0.1208178,-0.1902623,-61.15544,-30.51736,9.864666
192.7,-1.44819,2.044618,-0.4772322,0.968053,0.1280987,-0.1892066,-61.52394,-30.87495,10.31847
192.71,-1.323958,2.342163,-0.2933232,0.965565,0.134412,-0.1867218,-61.52394,-30.87495,10.31847
192.72,-1.75877,2.282654,-0.04811126,0.9621269,0.1377953,-0.1847275,-61.52394,-30.87495,10.31847
192.73,-1.696654,2.163636,-0.1707173,0.9689654,0.1319944,-0.1906243,-61.52394,-30.87495,10.31847
192.74,-1.386074,2.044618,-0.1707173,0.9705896,0.1281462,-0.1825335,-61.52394,-30.87495,10.31847
192.75,-0.889146700000002,2.104127,0.1971007,0.9641007,0.1363528,-0.1847678,-61.52193,-31.2431,10.32224
192.76,-0.764914900000002,1.806582,0.2584037,0.9607081,0.1353551,-0.1832902,-61.52193,-31.2431,10.32224
192.77,-0.5164512,1.568547,0.2584037,0.9578372,0.134371,-0.179424,-61.52193,-31.2431,10.32224
192.78,-0.5164512,1.211493,0.3810097,0.9607515,0.1339028,-0.1813863,-61.52193,-31.2431,10.32224
192.79,-0.4543353,0.735421700000001,0.5036157,0.9686434,0.126179,-0.1834808,-61.52193,-31.2431,10.32224
192.8,-0.3301035,0.3188592,0.5036157,0.9651237,0.135886,-0.1819111,-61.15544,-30.51736,9.864666
192.81,-0.640683100000001,0.02131451,0.626221700000002,0.9676117,0.1339668,-0.1805252,-61.15544,-30.51736,9.864666
192.82,-0.3301035,-0.1572123,0.4423127,0.9710802,0.1291274,-0.1815738,-61.15544,-30.51736,9.864666
192.83,-0.0816398499999998,-0.03819444,0.5036157,0.970615,0.1276652,-0.1811003,-61.15544,-30.51736,9.864666
192.84,0.3531716,-0.3952481,0.1357977,0.9676551,0.1281204,-0.1824919,-61.15544,-30.51736,9.864666
192.85,0.725867000000001,-0.514266,0.1971007,0.9636137,0.1334198,-0.1871816,-61.15143,-31.25365,9.872208
192.86,0.663751099999998,-0.752301600000002,0.1357977,0.9645782,0.1373303,-0.1847663,-61.15143,-31.25365,9.872208
192.87,0.2910556,-0.930828499999998,0.2584037,0.9593428,0.1339066,-0.1770534,-61.15143,-31.25365,9.872208
192.88,0.04259199,-1.109355,0.2584037,0.9558352,0.1299467,-0.1866208,-61.15143,-31.25365,9.872208
192.89,-0.01952393,-1.168864,0.0744947300000003,0.9667194,0.121777,-0.1849281,-61.15143,-31.25365,9.872208
192.9,-0.01952393,-1.347391,0.0744947300000003,0.9635962,0.1260914,-0.1949104,-61.52717,-30.88119,9.870369
192.91,0.04259199,-1.168864,-0.04811126,0.9689682,0.12516,-0.1964324,-61.52717,-30.88119,9.870369
192.92,0.5395193,-0.871319499999998,-0.2320202,0.971486,0.1256904,-0.1907134,-61.52717,-30.88119,9.870369
192.93,0.787982899999999,-0.692792699999999,-0.3546263,0.9620553,0.1333808,-0.1938685,-61.52717,-30.88119,9.870369
192.94,1.036447,-0.514266,-0.599838199999997,0.9684004,0.1334331,-0.1949169,-61.52717,-30.88119,9.870369
192.95,1.222794,-0.3357391,-0.599838199999997,0.9685377,0.1295665,-0.1882427,-61.52717,-30.88119,9.870369
192.96,1.471258,-0.1572123,-0.661141199999998,0.9691143,0.1227605,-0.1878291,-61.52717,-30.88119,9.870369
192.97,2.340881,0.02131451,-0.661141199999998,0.9651249,0.1236807,-0.1925565,-61.52717,-30.88119,9.870369
192.98,3.086272,0.0808234400000002,-0.906353200000002,0.9665227,0.1251385,-0.1963977,-61.52717,-30.88119,9.870369
192.99,3.396852,0.2593502,-0.845050200000001,0.9704349,0.1334726,-0.1891952,-61.52717,-30.88119,9.870369
193,3.334736,0.0808234400000002,-0.967656200000003,0.9652393,0.1305485,-0.1781242,-61.52717,-30.88119,9.870369
193.01,3.334736,0.1403324,-0.7837472,0.9625241,0.1328911,-0.1957961,-61.52717,-30.88119,9.870369
193.02,3.086272,-0.2167212,-0.661141199999998,0.9647191,0.1271177,-0.1834169,-61.52717,-30.88119,9.870369
193.03,3.148388,-0.454757,-0.661141199999998,0.9627259,0.1285547,-0.184814,-61.52717,-30.88119,9.870369
193.04,2.96204,-0.752301600000002,-0.2933232,0.9680365,0.1344409,-0.18484,-61.52717,-30.88119,9.870369
193.05,2.465113,-0.871319499999998,-0.4159293,0.9679953,0.1417526,-0.1814233,-61.52516,-31.24934,9.874139
193.06,1.968185,-1.287882,-0.1094143,0.9660491,0.1397854,-0.1823706,-61.52516,-31.24934,9.874139
193.07,1.59549,-2.061498,0.1357977,0.9646469,0.135397,-0.1814292,-61.52516,-31.24934,9.874139
193.08,2.402997,-2.240025,0.2584037,0.9745726,0.1360123,-0.1705439,-61.52516,-31.24934,9.874139
193.09,1.968185,-2.53757,0.4423127,0.9749417,0.1428176,-0.1733669,-61.52516,-31.24934,9.874139
193.1,1.657606,-2.954132,0.5036157,0.9694697,0.1334677,-0.188223,-61.52193,-31.2431,10.32224
193.11,3.396852,-3.370695,0.932736599999998,0.9980028,0.110465,-0.1610303,-61.52193,-31.2431,10.32224
193.12,3.521083,-3.251677,1.116646,0.9829279,0.1458616,-0.1590791,-61.52193,-31.2431,10.32224
193.13,2.899924,-4.679891,1.545767,0.9760624,0.1379845,-0.1671941,-61.52193,-31.2431,10.32224
193.14,3.334736,-5.334489,2.342705,0.9782724,0.124892,-0.1601481,-61.52193,-31.2431,10.32224
193.15,4.32859,-7.59582899999998,2.465312,0.9780508,0.1550989,-0.1498268,-61.52595,-30.5068,10.31469
193.16,5.198213,-8.19091899999998,2.220099,0.9792883,0.1661403,-0.1928792,-61.52595,-30.5068,10.31469
193.17,6.31629899999998,-7.35779299999999,3.017039,0.9814392,0.1222726,-0.2172401,-61.52595,-30.5068,10.31469
193.18,9.60844299999997,-7.53632,3.017039,0.9625382,0.1119014,-0.2132246,-61.52595,-30.5068,10.31469
193.19,11.09923,-8.607481,2.64922,0.965218,0.1548186,-0.1942118,-61.52595,-30.5068,10.31469
193.2,9.79479100000001,-8.42895399999999,1.913585,0.9603013,0.1679503,-0.1844469,-61.5155,-31.23063,11.21843
193.21,6.129951,-7.65533800000002,2.036191,0.9610645,0.1584861,-0.2444376,-61.5155,-31.23063,11.21843
193.22,3.210504,-6.643686,2.526614,0.9524986,0.1389474,-0.2440013,-61.5155,-31.23063,11.21843
193.23,1.222794,-5.334489,3.078341,0.9470668,0.1136326,-0.2340743,-61.5155,-31.23063,11.21843
193.24,0.4152875,-4.20382,2.955735,0.9465081,0.1062851,-0.2456291,-61.5155,-31.23063,11.21843
193.25,0.5395193,-2.954132,2.64922,0.9501076,0.1019713,-0.236612,-61.51629,-30.48809,11.65898
193.26,0.663751099999998,-2.001989,2.158797,0.9540441,0.1005478,-0.2362009,-61.51629,-30.48809,11.65898
193.27,0.663751099999998,-1.109355,1.60707,0.9573303,0.1044446,-0.2429237,-61.51629,-30.48809,11.65898
193.28,0.5395193,-0.3357391,1.300555,0.9573267,0.1063965,-0.2414696,-61.51629,-30.48809,11.65898
193.29,0.663751099999998,0.3188592,1.668373,0.9550563,0.09275448,-0.2405939,-61.51629,-30.48809,11.65898
193.3,1.222794,0.675912799999998,1.361858,0.9527554,0.08935662,-0.2329226,-61.51152,-30.8509,12.04684
193.31,1.59549,0.854439599999998,1.423161,0.9482337,0.104907,-0.227935,-61.51152,-30.8509,12.04684
193.32,1.533374,1.032966,1.300555,0.9467883,0.115153,-0.2172855,-61.51152,-30.8509,12.04684
193.33,1.036447,1.151984,1.60707,0.9516366,0.1215309,-0.2149048,-61.51152,-30.8509,12.04684
193.34,0.850098800000002,1.032966,1.545767,0.9570247,0.126951,-0.2096646,-61.51152,-30.8509,12.04684
193.35,0.601635200000001,1.092475,1.484464,0.9605436,0.1211496,-0.2078469,-61.51629,-30.48809,11.65898
193.36,0.2289397,0.735421700000001,1.545767,0.9615529,0.1157966,-0.2103025,-61.51629,-30.48809,11.65898
193.37,0.3531716,1.032966,1.545767,0.9684601,0.1124564,-0.2089915,-61.51629,-30.48809,11.65898
193.38,0.1668238,1.092475,1.790979,0.9713687,0.1212629,-0.2032083,-61.51629,-30.48809,11.65898
193.39,-0.01952393,1.509038,1.545767,0.9717594,0.1207509,-0.2108854,-61.51629,-30.48809,11.65898
193.4,-0.3922194,1.628056,1.423161,0.9719004,0.1105383,-0.209536,-61.89001,-30.48378,11.66092
193.41,0.3531716,1.747074,1.668373,0.9695864,0.1027427,-0.2066936,-61.89001,-30.48378,11.66092
193.42,0.787982899999999,1.39002,1.484464,0.969,0.1246808,-0.1945201,-61.89001,-30.48378,11.66092
193.43,0.4774034,1.687565,1.177949,0.9694154,0.1275935,-0.1973766,-61.89001,-30.48378,11.66092
193.44,-0.01952393,1.39002,1.116646,0.9666441,0.1149203,-0.1964857,-61.89001,-30.48378,11.66092
193.45,0.3531716,1.092475,1.484464,0.9789981,0.121411,-0.1817518,-61.5183,-30.11995,11.65521
193.46,1.098563,1.092475,1.239252,0.9789423,0.1145599,-0.191872,-61.5183,-30.11995,11.65521
193.47,1.347026,0.2593502,1.239252,0.9733837,0.1212968,-0.1989239,-61.5183,-30.11995,11.65521
193.48,1.28491,-0.0977033699999999,1.668373,0.9723963,0.1281207,-0.1935811,-61.5183,-30.11995,11.65521
193.49,0.5395193,-1.4069,1.545767,0.9643678,0.1445937,-0.1938068,-61.5183,-30.11995,11.65521
193.5,-0.01952393,-0.811810600000001,1.484464,0.9675721,0.1416319,-0.2125663,-61.51353,-30.48275,12.04307
193.51,-0.578567100000001,-0.633283800000002,1.790979,0.9605848,0.118232,-0.207393,-61.51353,-30.48275,12.04307
193.52,-0.0816398499999998,-0.692792699999999,1.790979,0.9585944,0.1084405,-0.2184688,-61.51353,-30.48275,12.04307
193.53,0.5395193,-0.633283800000002,1.668373,0.960688,0.1001971,-0.215693,-61.51353,-30.48275,12.04307
193.54,1.036447,-0.454757,1.60707,0.9533684,0.1025784,-0.2122142,-61.51353,-30.48275,12.04307
193.55,1.471258,-0.633283800000002,1.60707,0.9515054,0.1040525,-0.2040288,-61.89403,-29.74748,11.65337
193.56,1.222794,-0.2167212,1.545767,0.954335,0.1035602,-0.2122197,-61.89403,-29.74748,11.65337
193.57,0.850098800000002,-0.514266,1.423161,0.9572269,0.1055267,-0.2136819,-61.89403,-29.74748,11.65337
193.58,0.663751099999998,-0.3357391,1.239252,0.9616923,0.1046072,-0.2099197,-61.89403,-29.74748,11.65337
193.59,-0.1437557,-0.2762302,1.300555,0.9622009,0.104617,-0.2084893,-61.89403,-29.74748,11.65337
193.6,-0.0816398499999998,-0.2167212,1.177949,0.9626474,0.1065621,-0.2099168,-61.90607,-27.5386,11.63075
193.61,0.04259199,-0.2167212,0.932736599999998,0.9701103,0.1042216,-0.202855,-61.90607,-27.5386,11.63075
193.62,-0.01952393,0.02131451,0.810130699999999,0.9689948,0.1124737,-0.2056446,-61.90607,-27.5386,11.63075
193.63,-0.1437557,-0.03819444,0.994039599999998,0.9660913,0.1070862,-0.2080447,-61.90607,-27.5386,11.63075
193.64,-0.01952393,0.2593502,0.748827699999998,0.9670449,0.1080643,-0.2090084,-61.90607,-27.5386,11.63075
193.65,0.1668238,0.2593502,0.687524700000002,0.9665355,0.107566,-0.2109222,-61.51754,-29.74645,12.03553
193.66,0.3531716,0.4378771,0.626221700000002,0.9656391,0.1100218,-0.2027423,-61.51754,-29.74645,12.03553
193.67,0.601635200000001,0.3188592,0.626221700000002,0.9588424,0.1046055,-0.2036495,-61.51754,-29.74645,12.03553
193.68,0.725867000000001,0.1998413,0.5649188,0.9568066,0.1123772,-0.2025965,-61.51754,-29.74645,12.03553
193.69,0.850098800000002,0.02131451,0.5036157,0.9552642,0.1099017,-0.2102626,-61.51754,-29.74645,12.03553
193.7,1.719722,-0.1572123,0.5036157,0.9617328,0.1055952,-0.2060784,-61.52553,-29.38989,11.19958
193.71,2.154533,-0.2167212,0.1357977,0.9627401,0.1075649,-0.2022425,-61.52553,-29.38989,11.19958
193.72,3.893779,1.39002,-0.661141199999998,0.9876608,0.127307,-0.1870967,-61.52553,-29.38989,11.19958
193.73,6.81322700000002,6.32926199999998,-2.929352,0.9971464,0.1222085,-0.141751,-61.52553,-29.38989,11.19958
193.74,10.91288,11.80408,-3.235867,0.9623454,0.09747002,-0.1682989,-61.5203,-29.7518,11.65144
193.75,12.21731,7.162387,-1.948504,0.9539599,0.09409418,-0.1404143,-61.5203,-29.7518,11.65144
193.76,15.6958,5.436628,1.423161,0.9338325,0.1121786,-0.2013124,-61.5203,-29.7518,11.65144
193.77,15.50945,-3.07315,3.26225,0.9509308,0.06195358,-0.139684,-61.5203,-29.7518,11.65144
193.78,17.55928,-11.99949,5.407856,0.9339983,0.1373958,-0.09519884,-61.5203,-29.7518,11.65144
193.79,17.6214,-19.61663,7.49215799999998,0.949985,0.1438411,-0.1011227,-62.27299,-29.38125,11.20344
193.8,17.99409,-30.56628,10.496,0.9340495,0.1231167,-0.1398856,-62.27299,-29.38125,11.20344
193.81,20.3545,-39.90918,11.72206,0.9592543,0.07729948,-0.08983638,-62.27299,-29.38125,11.20344
193.82,28.11898,-48.77601,12.70291,0.9746853,0.03991625,-0.1033102,-62.27299,-29.38125,11.20344
193.83,34.95174,-57.22628,14.72591,1.004697,0.01532991,-0.112571,-62.27299,-29.38125,11.20344
193.84,42.46777,-63.4152099999998,16.5037,1.031282,0.009129732,-0.1417542,-62.27299,-29.38125,11.20344
193.85,49.48686,-69.1875800000001,17.79106,1.066469,-0.01742057,-0.1678773,-61.51236,-28.99234,13.30826
193.86,55.13941,-71.9249900000002,18.71061,1.121144,-0.07200225,-0.1887644,-61.51236,-28.99234,13.30826
193.87,63.2144800000003,-73.05566,17.36194,1.153886,-0.08148626,-0.1998535,-61.51236,-28.99234,13.30826
193.88,68.6806800000001,-72.7581200000002,15.09373,1.15705,-0.1145942,-0.212158,-61.51236,-28.99234,13.30826
193.89,68.4943300000001,-69.7826699999999,13.49985,1.164708,-0.1338318,-0.1697807,-61.48186,-28.18922,18.10176
193.9,67.2520099999999,-62.4630699999997,10.25079,1.191384,-0.09907775,-0.04863017,-61.48186,-28.18922,18.10176
193.91,63.6492899999999,-53.77476,8.16649099999999,1.207005,-0.1934767,0.04523201,-61.48186,-28.18922,18.10176
193.92,62.71755,-43.3607,10.25079,1.151314,-0.3949105,0.05343056,-61.48186,-28.18922,18.10176
193.93,67.12778,-34.13681,11.96728,1.166387,-0.5304772,0.07076041,-61.48186,-28.18922,18.10176
193.94,70.6062799999999,-23.78226,14.23549,1.166985,-0.4841954,0.08360167,-61.46262,-25.91975,22.43207
193.95,68.5564500000002,-12.95163,15.52285,1.145091,-0.4342041,0.1006284,-61.46262,-25.91975,22.43207
193.96,62.0963899999999,-2.835114,17.11673,1.131796,-0.4201873,0.1066866,-61.46262,-25.91975,22.43207
193.97,52.71689,5.91269899999999,18.71061,1.124506,-0.4417207,0.09127435,-61.46262,-25.91975,22.43207
193.98,40.79063,16.08873,22.87921,1.163024,-0.4937378,0.1434775,-61.46262,-25.91975,22.43207
193.99,30.78997,26.26476,28.27387,1.156495,-0.4943306,0.1306272,-61.08002,-25.16283,24.21498
194,22.15586,36.44078,31.33902,1.1089,-0.4121988,0.08503713,-61.08002,-25.16283,24.21498
194.01,11.53404,45.36712,34.03635,1.073731,-0.3790785,0.04652353,-61.08002,-25.16283,24.21498
194.02,3.086272,53.51985,37.16281,1.07706,-0.4029984,0.01848064,-61.08002,-25.16283,24.21498
194.03,-1.883001,61.4345400000002,40.77968,1.086658,-0.405053,-0.03294783,-61.08002,-25.16283,24.21498
194.04,-4.80245,68.6946299999999,42.92529,1.093179,-0.3578627,-0.0513313,-61.47546,-22.96834,22.85
194.05,-8.032476,75.0620800000003,44.70308,1.073956,-0.3065913,-0.08848138,-61.47546,-22.96834,22.85
194.06,-10.88981,81.01297,45.74523,1.06129,-0.2659484,-0.1205434,-61.47546,-22.96834,22.85
194.07,-12.07001,84.28596,46.48086,1.045239,-0.2297184,-0.1535528,-61.47546,-22.96834,22.85
194.08,-12.44271,86.9638699999999,46.54216,1.040992,-0.188484,-0.1775835,-61.47546,-22.96834,22.85
194.09,-11.2625,88.7491300000003,45.68392,1.02813,-0.1687552,-0.2064649,-63.02016,-20.81524,17.58597
194.1,-8.15670899999999,90.0583299999997,44.58047,1.020977,-0.1518149,-0.2138871,-63.02016,-20.81524,17.58597
194.11,-2.379929,90.7724399999999,42.12835,1.002894,-0.1433173,-0.2408721,-63.02016,-20.81524,17.58597
194.12,5.446676,91.1294900000001,39.86014,0.9968655,-0.1238854,-0.235351,-63.02016,-20.81524,17.58597
194.13,13.83232,92.02213,37.16281,0.9784139,-0.0881524,-0.2654552,-63.02016,-20.81524,17.58597
194.14,20.47873,92.02213,35.32372,0.9537037,-0.05977031,-0.2945738,-65.6888,-18.65454,11.94366
194.15,26.13128,90.71293,32.01336,0.9371285,0.0008566851,-0.3086811,-65.6888,-18.65454,11.94366
194.16,29.54765,89.40373,28.58039,0.9243391,0.04697031,-0.3090681,-65.6888,-18.65454,11.94366
194.17,32.15652,87.7969900000002,25.76045,0.9213502,0.07950497,-0.3202516,-65.6888,-18.65454,11.94366
194.18,33.70942,84.3454699999999,23.55354,0.8795009,0.106754,-0.3515316,-65.6888,-18.65454,11.94366
194.19,33.89577,80.35838,20.48839,0.8542583,0.1372074,-0.3461229,-67.60479,-15.74837,7.57021
194.2,34.76539,76.4307900000002,17.36194,0.821303,0.1552833,-0.3790446,-67.60479,-15.74837,7.57021
194.21,34.08212,70.3608699999999,14.78721,0.7926116,0.1515237,-0.4055025,-67.60479,-15.74837,7.57021
194.22,34.51693,63.51735,11.10903,0.7986106,0.176865,-0.409687,-67.60479,-15.74837,7.57021
194.23,37.1258,56.91186,6.26609800000002,0.7910776,0.184556,-0.4171819,-67.60479,-15.74837,7.57021
194.24,41.22545,47.50945,0.626221700000002,0.7416654,0.1572647,-0.4411471,-68.76772,-15.07218,2.31933
194.25,46.69165,39.8923,-3.9102,0.730226,0.1517409,-0.4597195,-68.76772,-15.07218,2.31933
194.26,53.27594,31.68007,-7.46577399999999,0.7319357,0.1565701,-0.4735999,-68.76772,-15.07218,2.31933
194.27,60.2950300000002,22.81324,-10.77614,0.7227403,0.2158093,-0.4859073,-68.76772,-15.07218,2.31933
194.28,65.3885300000001,13.52984,-14.63822,0.6918628,0.2753012,-0.5094043,-68.76772,-15.07218,2.31933
194.29,68.3079800000002,4.246449,-18.00989,0.6601324,0.301756,-0.5168752,-69.53886,-13.62125,0.1316423
194.3,71.0410799999998,-6.22712300000001,-21.01373,0.6399907,0.3030188,-0.5218487,-69.53886,-13.62125,0.1316423
194.31,70.7926299999998,-19.14056,-23.22064,0.7673109,0.2965062,-0.4829863,-69.53886,-13.62125,0.1316423
194.32,67.8110600000002,-30.38775,-20.15549,0.7673659,0.1127308,-0.5688771,-69.53886,-13.62125,0.1316423
194.33,72.7182199999999,-48.12141,-21.38155,0.6232648,-0.02093218,-0.7059608,-69.53886,-13.62125,0.1316423
194.34,64.27045,-62.1655200000003,-13.16695,0.8166525,-0.215586,-0.2570371,-69.53363,-13.98316,0.5835094
194.35,49.11417,-49.66864,-2.68414,1.453554,-0.1774962,0.7390881,-69.53363,-13.98316,0.5835094
194.36,46.56742,-20.0927,-8.93704599999999,1.654989,0.3987649,1.200633,-69.53363,-13.98316,0.5835094
194.37,40.72852,-22.7111,-40.01767,1.385185,0.9506966,0.7002263,-69.53363,-13.98316,0.5835094
194.38,-19.15123,-71.3894099999997,-53.68824,1.138596,0.5225585,-0.2515625,-69.53363,-13.98316,0.5835094
194.39,-93.37974,-111.0224,-33.27434,1.511751,-0.1547288,-0.462423,-71.06796,-14.66494,3.223665
194.4,-90.58453,-110.1297,-8.875743,1.468116,-0.2844698,-0.4398944,-71.06796,-14.66494,3.223665
194.41,-80.3353999999999,-118.2824,-23.95628,0.9207591,-0.05696155,-0.3760237,-71.06796,-14.66494,3.223665
194.42,-73.8132200000001,-113.5812,-35.66515,1.01434,-0.2788064,-0.4535056,-71.06796,-14.66494,3.223665
194.43,-38.46927,-94.8359300000002,-43.63454,0.9802655,-0.489788,-0.4471333,-71.06796,-14.66494,3.223665
194.44,14.08079,-84.6599000000001,-50.01006,0.6537344,-0.3611356,-0.9234683,-70.58417,-16.43766,8.489397
194.45,57.4377000000002,-78.3519499999999,-55.0369,0.6997445,-0.2549108,-0.8642861,-70.58417,-16.43766,8.489397
194.46,72.2212900000003,-59.9041800000002,-50.13266,1.003655,0.01848038,-0.4374268,-70.58417,-16.43766,8.489397
194.47,66.1339299999998,-50.50177,-47.55793,0.9317827,0.3122855,-0.4267349,-70.58417,-16.43766,8.489397
194.48,34.51693,-43.3607,-41.42764,1.053032,0.309404,-0.1840956,-70.58417,-16.43766,8.489397
194.49,-2.131465,-40.0282,-33.15173,1.087698,0.390468,-0.1896559,-69.78015,-19.31307,14.14891
194.5,-43.00373,-38.77851,-25.91797,1.115454,0.3783378,-0.2457411,-69.78015,-19.31307,14.14891
194.51,-76.9811400000001,-35.62454,-19.48116,1.103416,0.2232984,-0.2962355,-69.78015,-19.31307,14.14891
194.52,-87.41661,-32.94664,-18.56161,1.077543,0.07569224,-0.2784237,-69.78015,-19.31307,14.14891
194.53,-83.5033100000002,-30.7448,-20.64592,1.054814,-0.05878147,-0.2696506,-69.78015,-19.31307,14.14891
194.54,-68.5954900000003,-30.26873,-22.05589,0.9869525,-0.1899195,-0.3028548,-69.00944,-21.88092,15.45172
194.55,-49.02898,-28.66199,-20.2781,0.9559971,-0.1985312,-0.3202167,-69.00944,-21.88092,15.45172
194.56,-30.82902,-26.40065,-20.58461,0.9752092,-0.0605615,-0.2968038,-69.00944,-21.88092,15.45172
194.57,-15.36215,-25.56753,-23.34325,0.9793356,-0.001661039,-0.3011575,-69.00944,-21.88092,15.45172
194.58,-2.255697,-25.21047,-24.87582,0.9697749,-0.01486618,-0.2963407,-69.00944,-21.88092,15.45172
194.59,4.701285,-24.49637,-23.71107,0.9647191,0.03142527,-0.2676052,-68.23952,-23.70623,17.19508
194.6,2.713576,-24.97244,-22.2398,0.9716482,0.08556687,-0.2499959,-68.23952,-23.70623,17.19508
194.61,-3.746479,-24.7344,-20.2781,0.9767492,0.1035991,-0.2547084,-68.23952,-23.70623,17.19508
194.62,-12.56694,-24.31784,-17.15165,0.9828064,0.1032161,-0.2413803,-68.23952,-23.70623,17.19508
194.63,-19.15123,-23.06815,-14.63822,0.9537918,0.109617,-0.2826031,-68.23952,-23.70623,17.19508
194.64,-24.74166,-22.53257,-12.79914,0.9315543,0.1220521,-0.2879317,-67.0934,-25.90312,19.0043
194.65,-26.8536,-20.33074,-10.53092,0.9271821,0.1112808,-0.2951482,-67.0934,-25.90312,19.0043
194.66,-25.98398,-17.05775,-9.42747000000001,0.9272425,0.08639843,-0.3126103,-67.0934,-25.90312,19.0043
194.67,-23.37511,-14.7369,-8.078804,0.9197066,0.09151229,-0.3584629,-67.0934,-25.90312,19.0043
194.68,-19.58604,-12.95163,-9.97919700000002,0.9435738,0.01935494,-0.3220344,-67.0934,-25.90312,19.0043
194.69,-12.19424,-11.70195,-8.078804,0.9594191,0.01027183,-0.3161074,-66.71445,-26.26935,19.45424
194.7,-5.050913,-9.20257099999999,-7.83359099999999,0.9442558,0.05261368,-0.2786355,-66.71445,-26.26935,19.45424
194.71,-2.876856,-11.22587,-8.875743,0.9364962,0.09588058,-0.271451,-66.71445,-26.26935,19.45424
194.72,-5.85841999999999,-13.24918,-8.01750100000001,0.9438198,0.1091236,-0.2609012,-66.71445,-26.26935,19.45424
194.73,-10.76558,-13.78476,-5.93319800000003,0.933267,0.1294584,-0.2634544,-66.71445,-26.26935,19.45424
194.74,-15.23792,-16.52217,-5.81059300000001,0.916205,0.1146769,-0.2719616,-66.70566,-27.36845,19.84963
194.75,-16.72871,-18.30744,-4.952351,0.9162238,0.06257719,-0.2805479,-66.70566,-27.36845,19.84963
194.76,-14.61676,-20.0927,-3.848897,0.9324722,0.06567955,-0.2702109,-66.70566,-27.36845,19.84963
194.77,-9.64749099999998,-21.75896,-4.032806,0.9461948,0.0969194,-0.2768517,-66.70566,-27.36845,19.84963
194.78,-8.77786699999999,-24.02029,-3.664988,0.9564079,0.1018756,-0.2769554,-66.70566,-27.36845,19.84963
194.79,-8.77786699999999,-25.50802,-2.990655,0.9624995,0.08099694,-0.2791352,-66.32026,-27.7222,21.19576
194.8,-6.47957900000002,-27.82887,-2.377625,0.973943,0.07187508,-0.2731457,-66.32026,-27.7222,21.19576
194.81,-4.181291,-30.56628,-1.825898,0.9626464,0.08787402,-0.2623073,-66.32026,-27.7222,21.19576
194.82,-2.690508,-33.06565,-1.641989,0.945012,0.1036876,-0.2858825,-66.32026,-27.7222,21.19576
194.83,-2.007233,-35.32699,-0.661141199999998,0.9462122,0.09923034,-0.309418,-66.32026,-27.7222,21.19576
194.84,-0.0816398499999998,-36.57668,0.626221700000002,0.9406167,0.09863329,-0.325636,-65.93533,-28.07685,22.47787
194.85,2.65146,-37.76686,0.687524700000002,0.9458224,0.1040014,-0.3338113,-65.93533,-28.07685,22.47787
194.86,7.12380599999999,-38.18342,0.5036157,0.9439337,0.07959216,-0.3502832,-65.93533,-28.07685,22.47787
194.87,11.65827,-37.76686,0.626221700000002,0.9399449,0.07221263,-0.3622686,-65.93533,-28.07685,22.47787
194.88,14.76406,-37.58833,0.810130699999999,0.9353898,0.07847713,-0.3679012,-65.93533,-28.07685,22.47787
194.89,16.37908,-38.00489,0.3810097,0.9295881,0.08430341,-0.3577061,-65.17097,-28.79683,24.27394
194.9,16.13061,-37.82637,0.5036157,0.9349999,0.08387161,-0.3558701,-65.17097,-28.79683,24.27394
194.91,14.08079,-38.30244,1.790979,0.9257316,0.112467,-0.3646015,-65.17097,-28.79683,24.27394
194.92,9.48421100000001,-39.01654,2.465312,0.9231082,0.1153241,-0.3750823,-65.17097,-28.79683,24.27394
194.93,5.446676,-39.61163,3.200948,0.9112803,0.06894881,-0.3863268,-65.17097,-28.79683,24.27394
194.94,2.465113,-40.86132,5.530462,0.9032513,0.05089266,-0.3810935,-64.40987,-28.40702,26.44277
194.95,0.725867000000001,-41.93248,6.81782499999998,0.9084985,0.07091943,-0.3733321,-64.40987,-28.40702,26.44277
194.96,-0.827030799999999,-43.06315,7.49215799999998,0.9117073,0.07088829,-0.3891917,-64.40987,-28.40702,26.44277
194.97,-2.193581,-44.49137,8.77952000000003,0.9111257,0.07866924,-0.3891177,-64.40987,-28.40702,26.44277
194.98,-3.187436,-45.56253,9.57645900000002,0.9167757,0.08891119,-0.3962998,-64.40987,-28.40702,26.44277
194.99,-4.367638,-46.6932,11.10903,0.907127,0.08579853,-0.4249405,-64.01653,-28.00131,29.44572
195,-3.684363,-48.24043,12.88682,0.9155203,0.08198836,-0.4226963,-64.01653,-28.00131,29.44572
195.01,-1.820885,-48.59748,14.4194,0.9280994,0.09475503,-0.4218094,-64.01653,-28.00131,29.44572
195.02,0.2289397,-49.3711,16.01328,0.9411964,0.0956816,-0.4651162,-64.01653,-28.00131,29.44572
195.03,3.955895,-49.90668,17.85237,0.9816977,0.06490098,-0.4640365,-64.01653,-28.00131,29.44572
195.04,10.29172,-50.0257,19.38494,1.034467,0.04839816,-0.4476767,-62.88325,-27.24678,31.67287
195.05,15.63369,-51.45391,22.14357,1.090912,0.06457322,-0.4200718,-62.88325,-27.24678,31.67287
195.06,18.11832,-53.29869,25.51524,1.14597,0.1029465,-0.4387423,-62.88325,-27.24678,31.67287
195.07,18.55313,-56.33364,30.48078,1.208876,0.1148132,-0.4074324,-62.88325,-27.24678,31.67287
195.08,20.10603,-59.4281100000002,35.07851,1.232512,0.1038359,-0.4059451,-62.88325,-27.24678,31.67287
195.09,24.51626,-63.7127500000002,38.45017,1.261336,0.01953485,-0.3754402,-61.74445,-26.48157,34.66818
195.1,32.15652,-69.6041400000002,42.49617,1.296855,-0.06168492,-0.3176903,-61.74445,-26.48157,34.66818
195.11,37.37426,-76.4476699999998,44.15135,1.345687,-0.07600597,-0.229376,-61.74445,-26.48157,34.66818
195.12,33.58519,-84.0648099999998,49.11689,1.352162,-0.04564661,-0.1942306,-61.74445,-26.48157,34.66818
195.13,25.26165,-92.6341,53.83722,1.360896,-0.1120706,-0.1503501,-61.74445,-26.48157,34.66818
195.14,17.74563,-96.1451300000002,60.2740399999998,1.347057,-0.1252792,-0.1363675,-60.97527,-24.58798,39.06242
195.15,10.66441,-99.8941899999998,63.5230899999997,1.314891,-0.1323661,-0.1335729,-60.97527,-24.58798,39.06242
195.16,10.78865,-101.977,64.4426299999998,1.253342,-0.1810859,-0.133586,-60.97527,-24.58798,39.06242
195.17,18.4289,-100.7868,64.1361200000002,1.255279,-0.1514277,-0.1448641,-60.97527,-24.58798,39.06242
195.18,33.77154,-101.6795,61.1935799999999,1.221832,-0.1567916,-0.1985822,-60.97527,-24.58798,39.06242
195.19,49.05205,-102.2745,60.7644599999998,1.245681,-0.1134319,-0.241205,-58.71848,-20.86559,43.81416
195.2,58.2452100000002,-102.9291,62.35834,1.287959,0.01220363,-0.1875561,-58.71848,-20.86559,43.81416
195.21,66.6308600000001,-103.7623,63.5843999999999,1.22684,0.1267871,-0.3711682,-58.71848,-20.86559,43.81416
195.22,66.32027,-104.0003,68.1208199999998,1.22126,0.1356888,-0.4496022,-58.71848,-20.86559,43.81416
195.23,57.3134699999997,-104.5359,76.5806300000003,1.281024,0.1474703,-0.4335826,-58.71848,-20.86559,43.81416
195.24,50.4186,-97.2162900000001,85.4082599999999,1.353103,0.1883249,-0.3499261,-56.46167,-17.14318,48.5659
195.25,42.71623,-80.6132999999997,91.4772600000001,1.191377,0.380232,-0.3091031,-56.46167,-17.14318,48.5659
195.26,28.42957,-83.94579,99.3240400000001,1.067745,0.3464927,-0.5793319,-56.46167,-17.14318,48.5659
195.27,10.72653,-81.0298500000002,105.7609,0.8951112,0.367466,-0.8071893,-56.46167,-17.14318,48.5659
195.28,-18.03314,-84.8384299999998,117.4697,0.9894932,0.2131422,-0.6588891,-56.46167,-17.14318,48.5659
195.29,-50.89246,-77.63785,128.1365,0.9599832,0.1388968,-0.6638871,-53.85844,-9.013568,52.82236
195.3,-94.2493700000001,-76.5071800000003,147.8147,0.727322,0.004422574,-1.196972,-53.85844,-9.013568,52.82236
195.31,-118.6609,-68.1164200000002,153.7611,0.750273,0.09327613,-0.6555327,-53.85844,-9.013568,52.82236
195.32,-129.3449,-41.51592,157.7458,0.7779119,0.2277681,-0.4118376,-53.85844,-9.013568,52.82236
195.33,-134.1278,-25.21047,156.7037,0.5259254,0.3693605,-0.4688679,-53.85844,-9.013568,52.82236
195.34,-151.8929,-10.0952,152.1672,0.469,0.3458298,-0.2511778,-50.50526,-3.057929,55.81668
195.35,-158.1045,15.73167,153.0255,0.5553785,0.3202781,-0.00248245,-50.50526,-3.057929,55.81668
195.36,-149.9052,38.22605,149.1021,0.4803075,0.3806096,-0.2165431,-50.50526,-3.057929,55.81668
195.37,-132.5749,55.66217,139.2323,0.5159768,0.2010812,-0.1625002,-50.50526,-3.057929,55.81668
195.38,-125.9285,74.7645300000002,146.65,0.502843,0.1809156,-0.318223,-50.50526,-3.057929,55.81668
195.39,-112.5736,91.4865399999998,146.5274,0.5860088,0.2412996,-0.3730483,-49.01235,-2.707047,55.80518
195.4,-102.1381,107.911,148.1212,0.5546852,0.2679531,-0.4581536,-49.01235,-2.707047,55.80518
195.41,-93.8145500000002,119.6343,148.7343,0.5133144,0.3054561,-0.4812075,-49.01235,-2.707047,55.80518
195.42,-89.2800899999998,131.298,147.9373,0.5048946,0.4157749,-0.4993244,-49.01235,-2.707047,55.80518
195.43,-88.2862400000001,143.0808,142.604,0.5427562,0.5402561,-0.4834791,-49.01235,-2.707047,55.80518
195.44,-91.2056799999999,154.0304,134.3281,0.6154596,0.6173651,-0.465655,-52.77972,-2.350084,51.91589
195.45,-93.8145500000002,164.3255,124.1518,0.6617457,0.6936164,-0.4843599,-52.77972,-2.350084,51.91589
195.46,-96.7339999999997,172.7758,111.7072,0.6506259,0.7699357,-0.4792446,-52.77972,-2.350084,51.91589
195.47,-103.8152,179.2622,94.97153,0.6471519,0.7828028,-0.5432991,-52.77972,-2.350084,51.91589
195.48,-108.3497,187.7125,74.7415399999998,0.6853631,0.7289631,-0.586947,-52.77972,-2.350084,51.91589
195.49,-106.8589,192.4137,59.1705800000002,0.7406238,0.6859956,-0.6264331,-59.2122,0.5464149,43.14867
195.5,-103.691,196.1628,45.00959,0.8048705,0.6419107,-0.7254775,-59.2122,0.5464149,43.14867
195.51,-98.9080599999998,201.2805,30.9099,0.9170728,0.6683414,-0.6899552,-59.2122,0.5464149,43.14867
195.52,-99.6534499999998,203.9584,16.01328,0.9244676,0.740898,-0.6937611,-59.2122,0.5464149,43.14867
195.53,-103.7531,205.5652,0.871433699999999,0.9420609,0.7789956,-0.697524,-59.2122,0.5464149,43.14867
195.54,-111.207,207.2909,-13.53477,0.9606077,0.7626836,-0.6792372,-66.39253,1.218605,32.67956
195.55,-117.3565,208.8977,-26.16319,0.9836605,0.7029878,-0.6915703,-66.39253,1.218605,32.67956
195.56,-123.0712,209.4928,-36.76861,1.034435,0.6605808,-0.7007982,-66.39253,1.218605,32.67956
195.57,-123.9408,210.921,-46.20927,1.058651,0.6709808,-0.7096812,-66.39253,1.218605,32.67956
195.58,-122.9469,211.8731,-58.1020499999999,1.064829,0.6856322,-0.7101248,-66.39253,1.218605,32.67956
195.59,-122.9469,212.9443,-70.3626599999998,1.083301,0.6842989,-0.7199833,-72.13459,-1.463134,20.50862
195.6,-122.1394,215.3246,-82.86846,1.125223,0.6701175,-0.7077621,-72.13459,-1.463134,20.50862
195.61,-120.7107,218.7762,-93.90301,1.164573,0.6286732,-0.6928591,-72.13459,-1.463134,20.50862
195.62,-117.2323,222.7038,-103.0985,1.182804,0.5713951,-0.6979151,-72.13459,-1.463134,20.50862
195.63,-110.2753,227.2264,-111.1292,1.218144,0.4919422,-0.6875886,-72.13459,-1.463134,20.50862
195.64,-97.72785,231.0945,-119.1598,1.261317,0.386684,-0.6996347,-75.95416,-7.221823,4.901737
195.65,-77.1674900000001,235.3196,-127.9875,1.314805,0.2590705,-0.7283091,-75.95416,-7.221823,4.901737
195.66,-42.50681,239.9613,-140.8611,1.362329,0.1246781,-0.7339542,-75.95416,-7.221823,4.901737
195.67,-10.70346,243.5914,-150.6696,1.341853,0.01409419,-0.7183029,-75.95416,-7.221823,4.901737
195.68,27.68417,241.1515,-154.3477,1.281177,-0.2207442,-0.7821951,-77.16282,-14.44691,-12.4966
195.69,75.6376599999998,238.1761,-154.8995,1.187773,-0.2956383,-0.8092895,-77.16282,-14.44691,-12.4966
195.7,109.3666,228.6546,-154.3477,1.265293,-0.319435,-0.8498895,-77.16282,-14.44691,-12.4966
195.71,126.0137,217.1099,-150.6083,1.199851,-0.1540398,-0.8394145,-77.16282,-14.44691,-12.4966
195.72,121.7898,200.864,-150.4244,1.109183,-0.1276837,-0.8637766,-77.16282,-14.44691,-12.4966
195.73,105.2048,178.8457,-143.8649,0.991946,-0.2012862,-0.8794989,-71.99035,-25.03998,-28.54954
195.74,82.2219499999999,148.0795,-132.0335,0.8519141,-0.2253722,-0.8729144,-71.99035,-25.03998,-28.54954
195.75,45.88414,109.8153,-114.2556,0.7779348,-0.2280112,-0.8829038,-71.99035,-25.03998,-28.54954
195.76,0.1047079,69.3492199999999,-91.4508799999999,0.7583777,-0.3276447,-0.9337819,-71.99035,-25.03998,-28.54954
195.77,-43.62489,28.40708,-64.96799,0.6740569,-0.5024678,-1.028458,-71.99035,-25.03998,-28.54954
195.78,-77.2917199999999,-12.89212,-36.89121,0.6091743,-0.6138204,-1.112812,-71.99035,-25.03998,-28.54954
195.79,-102.5729,-50.44226,-9.67268199999999,0.6123153,-0.5900829,-1.148596,-61.83293,-37.05379,-36.80315
195.8,-126.0527,-86.2666500000002,13.49985,0.6166232,-0.5404069,-1.147759,-61.83293,-37.05379,-36.80315
195.81,-145.2465,-116.0806,34.15896,0.6781877,-0.4985179,-1.152596,-61.83293,-37.05379,-36.80315
195.82,-156.8001,-141.1339,48.99429,0.7812604,-0.5023925,-1.131575,-61.83293,-37.05379,-36.80315
195.83,-152.9489,-128.756,54.20504,1.658987,0.04307186,0.678601,-58.088,-40.80248,-38.51313
195.84,-92.7585799999999,-78.7090099999999,32.07466,1.629891,0.7248244,1.656106,-58.088,-40.80248,-38.51313
195.85,-20.82836,25.19359,-16.66122,2.376868,1.451524,3.83195,-58.088,-40.80248,-38.51313
195.86,-74.6207399999998,21.56355,-63.1902,1.076155,0.07143501,0.4053778,-58.088,-40.80248,-38.51313
195.87,-73.25418,-40.98034,8.28909600000001,0.9895051,-1.022812,-0.7766606,-58.088,-40.80248,-38.51313
195.88,-42.81739,-78.2329399999999,65.6073899999999,1.334561,-1.65489,-1.322179,-63.34312,-34.83387,-37.26615
195.89,0.787982899999999,-84.1243200000002,34.03635,1.983704,-1.111802,-0.3833035,-63.34312,-34.83387,-37.26615
195.9,65.1400800000001,-88.4089699999999,23.24703,1.576839,0.2505949,-0.104364,-63.34312,-34.83387,-37.26615
195.91,22.15586,-99.7156600000001,13.74506,1.334523,0.5321447,0.02509919,-63.34312,-34.83387,-37.26615
195.92,-25.98398,-102.2745,25.94436,1.145609,0.5515763,0.07300043,-63.34312,-34.83387,-37.26615
195.93,-62.94294,-109.4156,29.31602,0.8663582,0.9515662,-0.1774532,-64.08576,-32.21168,-34.66411
195.94,-92.5722400000003,-112.5696,28.51909,0.6867263,0.9870005,-0.2958314,-64.08576,-32.21168,-34.66411
195.95,-105.6787,-110.1297,29.74515,0.5802107,0.6110212,-0.2577128,-64.08576,-32.21168,-34.66411
195.96,-88.1619999999999,-96.6212000000003,29.19342,0.6492273,0.1961327,-0.3690593,-64.08576,-32.21168,-34.66411
195.97,-41.07814,-91.8009700000001,24.7796,0.633663,-0.01774095,-0.6581621,-64.08576,-32.21168,-34.66411
195.98,17.86986,-84.1243200000002,6.87912799999997,0.8707896,-0.2970607,-0.6998391,-67.79257,-31.3654,-29.8513
195.99,67.5004799999999,-70.0207100000001,2.404009,1.082819,-0.2863667,-0.4253142,-67.79257,-31.3654,-29.8513
196,97.9372799999999,-60.0232,-6.23971399999997,1.072181,-0.06197745,-0.2545907,-67.79257,-31.3654,-29.8513
196.01,87.3154499999998,-57.10726,-8.140107,1.06174,0.2693369,-0.1189075,-67.79257,-31.3654,-29.8513
196.02,42.592,-55.56003,-2.622837,1.148134,0.5254743,-0.01590775,-67.79257,-31.3654,-29.8513
196.03,-19.39969,-56.27414,2.220099,1.120114,0.6086752,0.0474897,-70.07477,-29.06308,-25.06098
196.04,-69.8378099999999,-57.6428400000001,4.181796,1.015515,0.4010352,-0.05627894,-70.07477,-29.06308,-25.06098
196.05,-91.08145,-56.21463,5.95958299999999,0.9981518,0.1578655,-0.1083996,-70.07477,-29.06308,-25.06098
196.06,-80.95656,-53.00114,4.304402,0.9662924,0.05441506,-0.23964,-70.07477,-29.06308,-25.06098
196.07,-45.42625,-46.33614,-0.1094143,0.9989437,-0.06676336,-0.3197168,-70.07477,-29.06308,-25.06098
196.08,6.56476300000003,-39.61163,-5.258866,0.9878365,-0.1068565,-0.344336,-71.53756,-30.84378,-21.96174
196.09,52.03362,-33.06565,-10.77614,0.9741462,0.01627518,-0.3071618,-71.53756,-30.84378,-21.96174
196.1,81.9734900000002,-28.90003,-17.02904,0.9947825,0.01138279,-0.2332213,-71.53756,-30.84378,-21.96174
196.11,101.3537,-25.74605,-20.09419,1.039153,0.08106358,-0.1829496,-71.53756,-30.84378,-21.96174
196.12,108.8697,-25.21047,-20.58461,1.039392,0.1998536,-0.168533,-71.53756,-30.84378,-21.96174
196.13,99.5522900000003,-24.19882,-17.82598,1.046269,0.299926,0.02916454,-72.27097,-29.3198,-18.90029
196.14,57.00289,-27.29329,-4.829745,0.8195354,0.7975861,-0.1229774,-72.27097,-29.3198,-18.90029
196.15,18.55313,-31.57793,-9.18225799999997,0.9528454,0.4762233,-0.1012335,-72.27097,-29.3198,-18.90029
196.16,3.831663,-28.54297,-1.948504,0.8823639,0.2741385,-0.1019345,-72.27097,-29.3198,-18.90029
196.17,-12.19424,-32.35154,5.591765,0.7981054,0.675501,-0.1874358,-72.27097,-29.3198,-18.90029
196.18,-45.17779,-32.11351,7.79867199999999,0.9972129,0.426776,-0.1559535,-72.98027,-32.21358,-15.7936
196.19,-26.17032,-30.26873,0.3810097,0.9980975,-0.1810621,-0.3029389,-72.98027,-32.21358,-15.7936
196.2,15.57157,-26.51967,-0.4159293,1.034827,-0.1408263,-0.3007269,-72.98027,-32.21358,-15.7936
196.21,54.82883,-24.67489,-6.42362300000002,0.9559639,0.02892047,-0.266064,-72.98027,-32.21358,-15.7936
196.22,76.4451699999998,-25.62704,-9.67268199999999,0.8825749,0.1534714,-0.2285061,-72.98027,-32.21358,-15.7936
196.23,80.9796300000002,-27.4123,-9.79528799999998,0.896308,0.2991772,-0.205429,-73.3448,-32.19144,-14.51139
196.24,71.2895499999998,-31.51842,-8.140107,0.9095198,0.3805588,-0.2054097,-73.3448,-32.19144,-14.51139
196.25,54.82883,-32.53007,-5.074956,0.9329642,0.3768505,-0.2115255,-73.3448,-32.19144,-14.51139
196.26,39.23774,-35.32699,-2.07111,0.9257261,0.36412,-0.2153634,-73.3448,-32.19144,-14.51139
196.27,27.49783,-36.81472,0.3810097,0.9214715,0.3022537,-0.2230128,-73.3448,-32.19144,-14.51139
196.28,22.21797,-37.76686,1.790979,0.9151349,0.2476576,-0.2334465,-73.69243,-32.88066,-11.42926
196.29,22.09374,-37.64784,2.526614,0.914426,0.2057383,-0.2505621,-73.69243,-32.88066,-11.42926
196.3,25.448,-37.76686,1.116646,0.9214451,0.1814362,-0.2594928,-73.69243,-32.88066,-11.42926
196.31,30.85209,-37.58833,0.0744947300000003,0.9197769,0.1478135,-0.2678992,-73.69243,-32.88066,-11.42926
196.32,35.63501,-36.99324,-0.906353200000002,0.9166025,0.1745718,-0.2618778,-73.69243,-32.88066,-11.42926
196.33,36.69099,-37.58833,0.932736599999998,0.9209422,0.2237686,-0.2591284,-74.02926,-35.03712,-7.947955
196.34,36.50464,-36.10061,2.220099,0.9262016,0.2389165,-0.2547627,-74.02926,-35.03712,-7.947955
196.35,34.26846,-36.27914,4.304402,0.9020341,0.2682947,-0.2790888,-74.02926,-35.03712,-7.947955
196.36,34.33058,-38.30244,1.423161,0.8957034,0.2598115,-0.3202813,-74.02926,-35.03712,-7.947955
196.37,33.77154,-38.89753,0.5036157,0.9230785,0.2041728,-0.2990978,-74.02926,-35.03712,-7.947955
196.38,34.70328,-38.65949,0.1971007,0.9093006,0.1962169,-0.311907,-75.12794,-33.86449,-3.984615
196.39,34.08212,-39.67114,-0.2320202,0.9066592,0.2044394,-0.3189879,-75.12794,-33.86449,-3.984615
196.4,32.03229,-40.08771,-0.4772322,0.905771,0.2160387,-0.3380454,-75.12794,-33.86449,-3.984615
196.41,27.87052,-43.53923,-0.1707173,0.8593187,0.2361384,-0.3185249,-75.12794,-33.86449,-3.984615
196.42,23.52241,-45.68155,-0.4772322,0.895461,0.2543719,-0.3428461,-75.12794,-33.86449,-3.984615
196.43,18.36679,-44.49137,-0.661141199999998,0.9009676,0.2557848,-0.3683102,-73.98266,-34.20282,-0.9139776
196.44,14.82618,-43.89628,-1.335474,0.9160143,0.2013392,-0.3891105,-73.98266,-34.20282,-0.9139776
196.45,14.32925,-42.40855,-1.948504,0.9236619,0.1702461,-0.3937947,-73.98266,-34.20282,-0.9139776
196.46,14.76406,-42.52757,-2.07111,0.9051594,0.1515535,-0.403752,-73.98266,-34.20282,-0.9139776
196.47,16.37908,-43.00364,-2.500231,0.9092666,0.1423671,-0.3976584,-73.98266,-34.20282,-0.9139776
196.48,19.42276,-43.18217,-2.868049,0.912558,0.154077,-0.3971273,-75.08022,-34.51614,2.104237
196.49,23.83299,-43.18217,-3.542382,0.9198143,0.1696068,-0.4253725,-75.08022,-34.51614,2.104237
196.5,28.11898,-42.88463,-3.174564,0.922584,0.176909,-0.4311007,-75.08022,-34.51614,2.104237
196.51,33.46096,-42.94413,-2.377625,0.9424713,0.1926616,-0.4298136,-75.08022,-34.51614,2.104237
196.52,39.54832,-43.42021,-2.868049,0.9460029,0.2039517,-0.4120383,-75.08022,-34.51614,2.104237
196.53,44.76605,-45.02695,-2.622837,0.9228565,0.2445799,-0.4233455,-74.30946,-34.10763,5.617362
196.54,46.1326,-45.56253,-0.845050200000001,0.9243877,0.2649814,-0.4366127,-74.30946,-34.10763,5.617362
196.55,47.00223,-46.57418,0.4423127,0.9223114,0.2717651,-0.4394011,-74.30946,-34.10763,5.617362
196.56,48.92782,-47.88338,1.055343,0.9251916,0.2186939,-0.454266,-74.30946,-34.10763,5.617362
196.57,53.58651,-48.65699,0.687524700000002,0.921757,0.1729026,-0.4593955,-74.30946,-34.10763,5.617362
196.58,60.1707999999998,-49.90668,0.3810097,0.9160663,0.1528845,-0.4637961,-74.27692,-34.78868,9.59376
196.59,67.0656700000003,-50.73981,-0.845050200000001,0.9442747,0.1302774,-0.4600761,-74.27692,-34.78868,9.59376
196.6,74.02265,-51.81097,-1.764595,0.9304835,0.1387822,-0.4952686,-74.27692,-34.78868,9.59376
196.61,80.4205900000002,-53.17967,-2.009807,0.9457083,0.146257,-0.4844009,-74.27692,-34.78868,9.59376
196.62,85.94891,-54.25083,-1.825898,0.9975656,0.1900342,-0.4818953,-74.27692,-34.78868,9.59376
196.63,87.6881500000002,-55.08396,-1.948504,1.039669,0.2698621,-0.4454026,-74.99232,-34.34597,14.33087
196.64,89.0546999999998,-57.3452999999998,-3.419776,1.033141,0.2868456,-0.4427702,-74.99232,-34.34597,14.33087
196.65,90.4833699999999,-60.4397600000001,-4.278018,1.020471,0.1670485,-0.4368919,-74.99232,-34.34597,14.33087
196.66,93.5891600000002,-63.8912799999998,-2.438928,1.041792,0.1016762,-0.4018075,-74.99232,-34.34597,14.33087
196.67,97.9372799999999,-67.6998600000001,0.871433699999999,1.073095,0.1029285,-0.4012847,-74.99232,-34.34597,14.33087
196.68,98.2478600000002,-72.1630200000001,4.856129,1.129238,0.1527053,-0.366204,-73.82864,-34.64867,19.96207
196.69,97.6888099999999,-77.2807900000001,6.38870400000001,1.184968,0.1922467,-0.3345582,-73.82864,-34.64867,19.96207
196.7,100.7325,-83.2911999999999,6.45000700000001,1.245507,0.2119254,-0.2906894,-73.82864,-34.64867,19.96207
196.71,105.826,-88.7660200000002,5.162644,1.318777,0.2160972,-0.2595921,-73.82864,-34.64867,19.96207
196.72,114.5843,-96.3831600000001,1.116646,1.416405,0.2352388,-0.1870253,-73.82864,-34.64867,19.96207
196.73,119.4294,-101.977,-3.542382,1.447245,0.2201648,-0.1272129,-72.67412,-31.99282,26.5233
196.74,124.7714,-107.8089,-7.343168,1.369172,0.166176,-0.1955605,-72.67412,-31.99282,26.5233
196.75,132.9085,-115.426,-8.93704599999999,1.261328,0.1414016,-0.4482083,-72.67412,-31.99282,26.5233
196.76,138.0641,-124.7689,-11.20526,1.264961,0.218849,-0.4365849,-72.67412,-31.99282,26.5233
196.77,133.4055,-125.007,-15.61907,1.17151,0.3274927,-0.7002918,-72.67412,-31.99282,26.5233
196.78,141.6048,-130.0057,-23.22064,1.123497,0.2982421,-0.7310023,-70.3912,-28.96395,34.35524
196.79,149.7419,-131.1364,-29.22834,1.144482,0.1291345,-0.8477364,-70.3912,-28.96395,34.35524
196.8,161.4819,-123.6383,-35.54255,1.12756,0.05328199,-0.792069,-70.3912,-28.96395,34.35524
196.81,184.7753,-97.45432,-47.43533,1.09478,0.05947262,-0.7508177,-70.3912,-28.96395,34.35524
196.82,194.3412,-100.6083,-45.04451,0.9970743,-0.01849603,-0.8090246,-70.3912,-28.96395,34.35524
196.83,206.6401,-92.0390100000002,-46.69969,0.8487225,0.07300057,-0.844474,-67.73181,-25.93405,42.56934
196.84,206.8265,-87.0997699999999,-51.84914,0.6891121,0.0679969,-0.8935158,-67.73181,-25.93405,42.56934
196.85,190.8006,-87.7543599999999,-60.1863500000001,0.5445072,0.1738269,-0.7491978,-67.73181,-25.93405,42.56934
196.86,163.4074,-82.1010199999997,-71.8952299999998,0.568784,0.1006747,-0.7194924,-67.73181,-25.93405,42.56934
196.87,159.3699,-77.1022599999998,-80.3550399999997,0.4014968,0.1072268,-0.7831823,-67.73181,-25.93405,42.56934
196.88,146.5119,-65.61704,-96.04861,0.4647382,0.1298997,-0.4666623,-62.78172,-22.58579,49.10339
196.89,120.9823,-45.86007,-108.677,0.5402627,0.1501197,-0.1843612,-62.78172,-22.58579,49.10339
196.9,92.0362600000002,-24.0798,-131.1752,0.4983272,0.1901429,0.07630032,-62.78172,-22.58579,49.10339
196.91,65.1400800000001,-5.632034,-142.2098,0.4565255,0.1735175,0.1534277,-62.78172,-22.58579,49.10339
196.92,27.06301,8.47158300000001,-152.9378,0.4644043,0.1141731,0.1408346,-62.78172,-22.58579,49.10339
196.93,-5.485724,25.43163,-157.3516,0.5864457,-0.07503744,0.134144,-59.03883,-20.75792,51.24169
196.94,-23.87204,39.95181,-165.321,0.6672286,-0.2131778,0.08869886,-59.03883,-20.75792,51.24169
196.95,-37.28907,58.9351599999999,-167.4053,0.7697679,-0.4143956,0.04049452,-59.03883,-20.75792,51.24169
196.96,-43.81124,80.4178800000001,-160.7233,0.8420817,-0.6341871,-0.0879413,-59.03883,-20.75792,51.24169
196.97,-39.77371,96.9018599999999,-158.5164,0.8727906,-0.7032737,-0.1570083,-59.03883,-20.75792,51.24169
196.98,-23.93415,113.1478,-158.9455,0.8826999,-0.7347507,-0.1396848,-56.80892,-23.78424,47.29141
196.99,-8.032476,128.3226,-158.5777,0.9051584,-0.7262642,-0.1356205,-56.80892,-23.78424,47.29141
197,4.390706,142.9618,-158.7616,0.8984422,-0.6275826,-0.146672,-56.80892,-23.78424,47.29141
197.01,13.39751,155.6372,-159.6198,0.9058926,-0.561357,-0.1519697,-56.80892,-23.78424,47.29141
197.02,20.47873,168.4316,-160.2328,0.9486396,-0.5522736,-0.166399,-56.80892,-23.78424,47.29141
197.03,26.6282,179.8573,-159.0681,0.9868411,-0.577799,-0.1858477,-56.06702,-34.9647,38.24669
197.04,35.44867,190.3309,-157.842,1.030153,-0.6053068,-0.2269499,-56.06702,-34.9647,38.24669
197.05,43.89643,201.5781,-155.206,1.084146,-0.6057544,-0.2143056,-56.06702,-34.9647,38.24669
197.06,53.77286,211.3375,-152.6926,1.101255,-0.616971,-0.2611265,-56.06702,-34.9647,38.24669
197.07,67.12778,224.4295,-149.6274,1.177407,-0.5875356,-0.2475874,-56.06702,-34.9647,38.24669
197.08,78.8676900000002,236.6884,-146.6236,1.198347,-0.5741944,-0.2429813,-56.46803,-43.94204,27.84085
197.09,88.8062400000001,246.7454,-143.5584,1.215567,-0.5502267,-0.2506916,-56.46803,-43.94204,27.84085
197.1,97.00554,254.303,-139.3898,1.24621,-0.4994988,-0.290953,-56.46803,-43.94204,27.84085
197.11,102.099,260.968,-135.4051,1.297349,-0.4870377,-0.3327878,-56.46803,-43.94204,27.84085
197.12,110.7953,265.8477,-130.1944,1.326599,-0.4865888,-0.4117897,-56.46803,-43.94204,27.84085
197.13,123.2806,268.5851,-124.9223,1.340523,-0.477885,-0.4593554,-53.87966,-52.27274,17.86074
197.14,140.7351,268.5851,-122.225,1.404211,-0.5078356,-0.5510845,-53.87966,-52.27274,17.86074
197.15,157.6928,267.8115,-119.4664,1.453647,-0.4575081,-0.612702,-53.87966,-52.27274,17.86074
197.16,166.3269,266.7404,-115.2365,1.39816,-0.338006,-0.6660106,-53.87966,-52.27274,17.86074
197.17,165.0846,259.5993,-112.4165,1.273231,-0.1741957,-0.6781819,-53.87966,-52.27274,17.86074
197.18,150.0525,247.3405,-112.1713,1.143864,-0.08974507,-0.6909598,-50.91342,-57.18941,10.98082
197.19,136.8839,234.07,-108.9222,1.10536,-0.04868267,-0.6800013,-50.91342,-57.18941,10.98082
197.2,130.7345,220.2044,-104.3245,1.089726,-0.06346232,-0.691404,-50.91342,-57.18941,10.98082
197.21,134.3993,206.1008,-101.1981,1.086061,-0.1541012,-0.7170351,-50.91342,-57.18941,10.98082
197.22,143.5925,191.9971,-97.2746699999999,1.018312,-0.1728323,-0.7507299,-50.91342,-57.18941,10.98082
197.23,149.245,176.9414,-91.3282800000002,0.9355596,-0.1468697,-0.7689786,-47.18655,-61.71716,6.205715
197.24,147.2573,159.2672,-82.37804,0.9317341,-0.1668966,-0.7801146,-47.18655,-61.71716,6.205715
197.25,143.1577,135.7612,-67.6040200000002,0.8565094,-0.2003787,-0.836829,-47.18655,-61.71716,6.205715
197.26,138.7474,114.0404,-54.85299,0.7691765,-0.1978057,-0.8528137,-47.18655,-61.71716,6.205715
197.27,130.486,89.2847100000002,-41.05982,0.7269431,-0.1700429,-0.8759375,-47.18655,-61.71716,6.205715
197.28,111.8512,63.6363699999998,-25.61146,0.707256,-0.1614622,-0.8770221,-43.05624,-64.70359,6.662729
197.29,89.3652800000001,36.97636,-9.42747000000001,0.7499384,-0.03096404,-0.8252547,-43.05624,-64.70359,6.662729
197.3,66.5066199999999,16.14824,-0.2933232,0.7242635,0.2095215,-0.7385201,-43.05624,-64.70359,6.662729
197.31,36.62887,-18.66449,16.13588,0.5916741,-0.02258936,-0.9432074,-43.05624,-64.70359,6.662729
197.32,37.9333,-44.0153,26.43478,0.7848287,0.2259558,-0.9107981,-43.05624,-64.70359,6.662729
197.33,37.56061,-38.59998,25.57654,1.34242,0.508656,0.6194749,-40.78094,-67.26999,9.302099
197.34,61.9100500000003,-6.22712300000001,1.852282,1.742743,0.9144334,1.344619,-40.78094,-67.26999,9.302099
197.35,30.66574,-13.24918,-11.51177,1.668619,0.547649,0.6448652,-40.78094,-67.26999,9.302099
197.36,-7.721898,-45.20547,21.89836,1.285049,0.3682978,-0.3388117,-40.78094,-67.26999,9.302099
197.37,-54.55729,-81.2678899999997,48.62647,1.232194,0.05123474,-0.5472691,-40.78094,-67.26999,9.302099
197.38,-75.9251699999998,-93.5267300000002,63.0939700000002,1.32168,-0.002559121,-0.3108363,-41.88578,-65.73723,12.68554
197.39,-75.1797799999999,-100.7868,56.77977,1.092854,0.2774534,-0.2338112,-41.88578,-65.73723,12.68554
197.4,-81.1429099999999,-106.4402,51.69162,1.009635,0.4226802,-0.1096828,-41.88578,-65.73723,12.68554
197.41,-90.8329800000001,-102.8101,49.97513,0.9202171,0.5060272,0.007782085,-41.88578,-65.73723,12.68554
197.42,-93.0070400000002,-96.6212000000003,44.58047,0.771751,0.3280425,-0.1296134,-41.88578,-65.73723,12.68554
197.43,-61.63851,-85.8500799999998,31.40033,0.708183,-0.06797682,-0.4756356,-43.01374,-64.99333,12.29971
197.44,-11.32462,-77.6973599999999,24.7183,0.698843,-0.1401118,-0.6141207,-43.01374,-64.99333,12.29971
197.45,36.50464,-70.5562799999997,11.53816,0.806852,-0.01042654,-0.5441233,-43.01374,-64.99333,12.29971
197.46,64.7052600000002,-63.5342300000002,3.507463,0.9306652,0.07213456,-0.3611786,-43.01374,-64.99333,12.29971
197.47,75.7618900000002,-56.57168,-3.174564,0.9640691,0.1487674,-0.2479169,-43.01374,-64.99333,12.29971
197.48,72.6560999999999,-52.94164,-5.13626,0.9517782,0.2440637,-0.2402287,-44.12773,-64.59442,13.58202
197.49,55.94692,-51.03735,-4.339321,0.9726141,0.4040612,-0.1859842,-44.12773,-64.59442,13.58202
197.5,22.52855,-51.92999,0.0744947300000003,1.022799,0.5371125,-0.1199263,-44.12773,-64.59442,13.58202
197.51,-14.741,-53.29869,5.162644,1.070213,0.5454689,-0.07979956,-44.12773,-64.59442,13.58202
197.52,-42.81739,-54.6674,9.69906500000001,1.037917,0.3883767,-0.1108546,-44.12773,-64.59442,13.58202
197.53,-52.50747,-55.14347,12.3964,1.019545,0.2229004,-0.2044747,-43.34456,-64.16184,18.82351
197.54,-43.06585,-54.36985,11.35425,1.014251,0.07654471,-0.290932,-43.34456,-64.16184,18.82351
197.55,-19.15123,-49.07355,7.73737000000002,0.9969471,0.03044774,-0.3447447,-43.34456,-64.16184,18.82351
197.56,5.81937199999997,-44.25333,2.771827,0.9655064,0.07589079,-0.3501427,-43.34456,-64.16184,18.82351
197.57,27.06301,-38.54047,-2.806746,0.9226755,0.1661114,-0.3262485,-43.34456,-64.16184,18.82351
197.58,37.62272,-33.3632,-5.687987,0.9401267,0.2184621,-0.2920322,-43.71586,-63.40876,19.7141
197.59,37.62272,-29.07855,-6.36231899999999,0.9591686,0.2614495,-0.2928992,-43.71586,-63.40876,19.7141
197.6,33.58519,-25.26998,-6.79144000000002,0.9575461,0.2926388,-0.2767993,-43.71586,-63.40876,19.7141
197.61,27.37359,-21.4019,-7.343168,0.9551898,0.2527433,-0.2694352,-43.71586,-63.40876,19.7141
197.62,26.00704,-18.90252,-8.44662199999997,0.9918202,0.2063169,-0.2789747,-43.70022,-63.37847,21.89057
197.63,28.67803,-15.74855,-10.0405,0.999201,0.1839357,-0.2955615,-43.70022,-63.37847,21.89057
197.64,34.08212,-13.60623,-11.94089,0.966345,0.1733698,-0.3105168,-43.70022,-63.37847,21.89057
197.65,42.09507,-10.69029,-12.86044,0.9385134,0.186808,-0.2946723,-43.70022,-63.37847,21.89057
197.66,49.48686,-8.01239200000003,-13.96389,0.8909858,0.2414004,-0.2877839,-43.70022,-63.37847,21.89057
197.67,53.46228,-6.76270400000002,-14.94474,0.8793897,0.3045368,-0.2933153,-43.70022,-63.37847,21.89057
197.68,55.20153,-5.92957900000001,-15.43516,0.8787606,0.3240216,-0.2864331,-42.9359,-62.98242,24.5075
197.69,55.57422,-4.917927,-15.43516,0.9011766,0.3091964,-0.2701057,-42.9359,-62.98242,24.5075
197.7,56.81654,-3.906275,-14.69953,0.9121591,0.2883607,-0.2723549,-42.9359,-62.98242,24.5075
197.71,58.3694400000001,-4.20382,-13.16695,0.9004233,0.2941168,-0.2668679,-42.9359,-62.98242,24.5075
197.72,58.1830900000001,-5.036944,-11.45047,0.8950466,0.3179935,-0.245505,-42.9359,-62.98242,24.5075
197.73,54.95306,-5.215471,-9.48877300000001,0.9022523,0.3395028,-0.2363213,-41.79384,-63.32699,27.13004
197.74,50.54284,-6.76270400000002,-8.93704599999999,0.8980322,0.3471923,-0.2520099,-41.79384,-63.32699,27.13004
197.75,46.31895,-8.19091899999998,-7.15925799999999,0.9054272,0.3044448,-0.2496009,-41.79384,-63.32699,27.13004
197.76,43.64797,-9.50011499999999,-4.891047,0.8942251,0.3009417,-0.2489915,-41.79384,-63.32699,27.13004
197.77,43.39951,-10.57128,-4.584533,0.8892198,0.2896368,-0.2672252,-41.79384,-63.32699,27.13004
197.78,44.82817,-11.99949,-4.952351,0.9049254,0.2357321,-0.275092,-40.65382,-62.18739,30.56968
197.79,46.94011,-13.01114,-3.603685,0.9106128,0.2236615,-0.2632949,-40.65382,-62.18739,30.56968
197.8,49.42475,-15.15346,-3.542382,0.8860796,0.2827171,-0.2883236,-40.65382,-62.18739,30.56968
197.81,49.79744,-17.35529,-4.707139,0.9133787,0.2713503,-0.2696407,-40.65382,-62.18739,30.56968
197.82,47.6855,-19.85467,-3.726291,0.9052018,0.2761986,-0.2551072,-40.26846,-61.42511,32.73668
197.83,45.94625,-22.94913,-2.68414,0.8951901,0.2877644,-0.2615757,-40.26846,-61.42511,32.73668
197.84,43.71008,-25.389,-1.703292,0.8871918,0.2939932,-0.2685971,-40.26846,-61.42511,32.73668
197.85,40.91487,-29.31659,-0.7837472,0.8686831,0.292875,-0.2635508,-40.26846,-61.42511,32.73668
197.86,40.35582,-31.33989,-0.4159293,0.8761944,0.2786957,-0.2992383,-40.26846,-61.42511,32.73668
197.87,39.98313,-33.12516,-0.5385352,0.8751132,0.262058,-0.3214065,-40.24718,-60.63982,36.24989
197.88,40.60429,-35.32699,-0.1094143,0.88178,0.2421847,-0.316398,-40.24718,-60.63982,36.24989
197.89,39.11351,-37.3503,0.810130699999999,0.8853602,0.2680004,-0.3181479,-40.24718,-60.63982,36.24989
197.9,35.94559,-38.18342,1.484464,0.8934532,0.302051,-0.3404983,-40.24718,-60.63982,36.24989
197.91,31.78382,-39.43311,2.404009,0.8977888,0.2708244,-0.37293,-40.24718,-60.63982,36.24989
197.92,31.22478,-40.86132,3.568765,0.909553,0.2281064,-0.372979,-39.10516,-59.86836,39.6933
197.93,34.57904,-42.52757,3.507463,0.9135783,0.2164555,-0.3750515,-39.10516,-59.86836,39.6933
197.94,39.11351,-41.93248,2.036191,0.9051133,0.2114571,-0.3903074,-39.10516,-59.86836,39.6933
197.95,44.89029,-41.21838,1.60707,0.8989649,0.20742,-0.4142138,-39.10516,-59.86836,39.6933
197.96,50.85341,-40.56378,1.60707,0.8999051,0.2292528,-0.4336901,-39.10516,-59.86836,39.6933
197.97,55.57422,-39.25458,2.465312,0.9205128,0.2343346,-0.4248361,-37.22446,-58.00644,42.73745
197.98,59.11483,-39.61163,2.894433,0.9159534,0.2848914,-0.4276989,-37.22446,-58.00644,42.73745
197.99,60.85408,-39.25458,1.423161,0.9171143,0.2634701,-0.4331674,-37.22446,-58.00644,42.73745
198,62.5933200000002,-38.95704,0.810130699999999,0.9004713,0.2452554,-0.4498559,-37.22446,-58.00644,42.73745
198.01,65.5127700000003,-39.25458,0.01319174,0.8903871,0.2046954,-0.4716185,-37.22446,-58.00644,42.73745
198.02,69.0533799999999,-39.31409,-1.151565,0.8953021,0.178028,-0.4575376,-36.4545,-56.85539,46.69114
198.03,73.7120700000002,-39.19507,-2.009807,0.8697051,0.2152156,-0.4721933,-36.4545,-56.85539,46.69114
198.04,78.8055700000001,-40.14722,-4.032806,0.861908,0.2203902,-0.5012696,-36.4545,-56.85539,46.69114
198.05,85.2656299999999,-40.92083,-4.952351,0.9106473,0.1484319,-0.4704653,-36.4545,-56.85539,46.69114
198.06,91.04241,-41.69445,-3.29717,0.9497042,0.1497327,-0.4753237,-36.4545,-56.85539,46.69114
198.07,92.2847300000002,-43.47972,-3.051958,0.934473,0.2367017,-0.4753311,-34.94034,-54.60319,51.01372
198.08,88.4956600000003,-46.51467,-2.68414,0.9131452,0.2642609,-0.4723985,-34.94034,-54.60319,51.01372
198.09,86.0731399999999,-50.32324,-2.745443,0.940966,0.2056848,-0.4569966,-34.94034,-54.60319,51.01372
198.1,85.3898600000003,-52.94164,-1.45808,1.017586,0.1963306,-0.4073724,-34.94034,-54.60319,51.01372
198.11,83.1536899999998,-56.75021,2.158797,1.120236,0.1846591,-0.3883284,-34.94034,-54.60319,51.01372
198.12,81.7250200000002,-62.1655200000003,4.427008,1.133325,0.2274357,-0.4312819,-33.06049,-50.88271,55.3193
198.13,77.5632600000002,-68.9495500000002,6.14349199999997,1.194301,0.2130632,-0.3853107,-33.06049,-50.88271,55.3193
198.14,82.9052300000001,-75.9120899999999,3.691371,1.248559,0.1727916,-0.3524007,-33.06049,-50.88271,55.3193
198.15,88.3714299999999,-81.6249500000003,3.936584,1.32701,0.2129476,-0.3402416,-33.06049,-50.88271,55.3193
198.16,97.50246,-86.5046800000001,-0.5385352,1.399859,0.1712412,-0.344507,-33.06049,-50.88271,55.3193
198.17,111.1059,-90.4917799999997,-8.50792500000003,1.381473,0.1428171,-0.354548,-31.16976,-46.76913,61.41349
198.18,130.3618,-95.6690499999999,-17.02904,1.350368,0.06670474,-0.3346207,-31.16976,-46.76913,61.41349
198.19,154.2143,-99.8346799999998,-27.51185,1.272246,0.07128914,-0.3550325,-31.16976,-46.76913,61.41349
198.2,179.1849,-100.5488,-38.85291,1.228269,0.1751235,-0.3314862,-31.16976,-46.76913,61.41349
198.21,207.8824,-101.5604,-52.33957,1.123122,0.2100061,-0.5132267,-31.16976,-46.76913,61.41349
198.22,231.6107,-105.6666,-60.92199,1.063857,0.2762957,-0.6033496,-26.28998,-42.62962,67.42759
198.23,238.4435,-104.2979,-69.3205000000001,1.035764,0.3352822,-0.6383914,-26.28998,-42.62962,67.42759
198.24,251.5499,-102.0365,-77.6577100000003,0.9974034,0.2882344,-0.766188,-26.28998,-42.62962,67.42759
198.25,255.0284,-98.5254799999998,-80.6002599999997,0.9773772,0.1374738,-0.8246788,-26.28998,-42.62962,67.42759
198.26,262.2339,-93.3482100000002,-83.5428000000001,0.9764843,0.08698429,-0.791069,-26.28998,-42.62962,67.42759
198.27,275.0919,-78.2924499999997,-88.56964,0.8461493,0.1492412,-0.7508293,-21.80239,-32.63096,75.24032
198.28,275.9615,-82.5175799999999,-90.8991499999998,0.7861656,0.04205767,-0.9027851,-21.80239,-32.63096,75.24032
198.29,261.4885,-84.9574500000002,-87.7727099999999,0.7106994,0.1269279,-0.8013198,-21.80239,-32.63096,75.24032
198.3,244.096,-80.3752600000001,-94.0869100000001,0.6351511,0.2352096,-0.6852797,-21.80239,-32.63096,75.24032
198.31,226.4551,-75.85258,-103.3437,0.546346,0.2544204,-0.5434465,-21.80239,-32.63096,75.24032
198.32,201.9814,-69.6041400000002,-114.8073,0.5069065,0.144947,-0.4465308,-15.80544,-18.65055,79.41874
198.33,184.0299,-62.2845400000001,-125.2901,0.4747865,0.1049443,-0.3975322,-15.80544,-18.65055,79.41874
198.34,159.929,-47.88338,-141.1676,0.5945818,0.09939475,-0.08445242,-15.80544,-18.65055,79.41874
198.35,137.2566,-27.59083,-153.9186,0.6228955,0.1193459,0.1079506,-15.80544,-18.65055,79.41874
198.36,117.3174,-12.7136,-168.1409,0.5996883,0.0362699,0.1986281,-15.80544,-18.65055,79.41874
198.37,90.6075999999998,0.3783681,-177.1525,0.6217548,-0.1704757,0.1639833,-11.0164,-4.269723,80.52622
198.38,67.6868299999998,13.17279,-181.6276,0.6657202,-0.3475475,0.07512718,-11.0164,-4.269723,80.52622
198.39,56.00903,31.204,-177.8268,0.8082585,-0.5739132,0.1037708,-11.0164,-4.269723,80.52622
198.4,52.03362,48.22355,-175.3747,0.879589,-0.5685594,0.0654218,-11.0164,-4.269723,80.52622
198.41,44.82817,62.4461900000001,-175.3747,0.9483719,-0.5749738,0.009279413,-11.0164,-4.269723,80.52622
198.42,33.52308,75.5381499999997,-173.7195,0.9437909,-0.5309054,-0.03676573,-11.42225,1.624955,80.46783
198.43,19.23641,88.92766,-171.4513,0.9257908,-0.4337974,-0.05150324,-11.42225,1.624955,80.46783
198.44,5.446676,99.8772999999998,-170.1639,0.8910071,-0.3258685,0.004052911,-11.42225,1.624955,80.46783
198.45,-8.21882399999997,110.1128,-168.9379,0.9047836,-0.2672725,0.02543585,-11.42225,1.624955,80.46783
198.46,-23.80992,122.0741,-166.9149,0.968558,-0.2995044,-0.02606105,-11.42225,1.624955,80.46783
198.47,-29.89728,137.487,-164.8919,1.010128,-0.3528441,-0.07406524,-16.64964,0.2065558,80.06185
198.48,-20.57989,151.9476,-164.3401,1.073923,-0.5135567,-0.1295219,-16.64964,0.2065558,80.06185
198.49,1.409142,165.1586,-164.524,1.115758,-0.6628662,-0.2066126,-16.64964,0.2065558,80.06185
198.5,45.75991,183.3088,-163.5432,1.223101,-0.8352604,-0.2359533,-16.64964,0.2065558,80.06185
198.51,88.8683499999999,196.2818,-164.7693,1.225147,-0.8115649,-0.2803481,-16.64964,0.2065558,80.06185
198.52,127.1939,208.3026,-163.5432,1.236707,-0.7656193,-0.2532899,-26.42529,-4.944037,76.70907
198.53,155.5808,217.5265,-163.4206,1.209171,-0.609722,-0.2697914,-26.42529,-4.944037,76.70907
198.54,170.7371,223.8344,-162.0106,1.214806,-0.5235912,-0.2830416,-26.42529,-4.944037,76.70907
198.55,177.4456,228.5356,-159.4359,1.219582,-0.4364587,-0.2866871,-26.42529,-4.944037,76.70907
198.56,178.1289,231.2135,-156.7999,1.218293,-0.3367399,-0.2934943,-26.42529,-4.944037,76.70907
198.57,171.9173,233.3559,-152.3248,1.250165,-0.2569913,-0.2539812,-39.90765,-7.819364,70.66344
198.58,156.8232,232.2252,-152.2021,1.241813,-0.08038955,-0.2447046,-39.90765,-7.819364,70.66344
198.59,135.2689,232.7012,-148.2788,1.27822,0.0006303465,-0.2661037,-39.90765,-7.819364,70.66344
198.6,111.1059,232.3442,-140.9837,1.295914,-0.02799523,-0.2852862,-39.90765,-7.819364,70.66344
198.61,90.7318300000002,229.7853,-130.6235,1.288227,-0.1528757,-0.3490057,-39.90765,-7.819364,70.66344
198.62,84.5202399999999,225.0841,-120.3246,1.269465,-0.2701288,-0.4287958,-54.20286,-5.604156,59.38378
198.63,90.1106700000001,218.7762,-111.6196,1.271339,-0.3637394,-0.481366,-54.20286,-5.604156,59.38378
198.64,103.5898,213.5394,-102.9145,1.310913,-0.39172,-0.5099598,-54.20286,-5.604156,59.38378
198.65,122.9079,208.0646,-95.6194899999998,1.274025,-0.3609903,-0.5331347,-54.20286,-5.604156,59.38378
198.66,138.0641,200.0904,-87.95661,1.177858,-0.2972571,-0.5690829,-54.20286,-5.604156,59.38378
198.67,141.17,186.1653,-81.3971899999998,0.9846091,-0.1188709,-0.5557184,-66.67044,-9.693267,46.36649
198.68,129.4922,169.0862,-79.5581100000002,0.9215336,-0.05280461,-0.5667211,-66.67044,-9.693267,46.36649
198.69,121.0444,149.5673,-76.0638399999998,0.9094282,-0.1180295,-0.5431389,-66.67044,-9.693267,46.36649
198.7,114.7086,129.8103,-66.01014,0.8678914,-0.1895311,-0.5666311,-66.67044,-9.693267,46.36649
198.71,107.3168,108.9822,-54.79169,0.8450691,-0.1504104,-0.5913733,-66.67044,-9.693267,46.36649
198.72,93.0922400000002,86.4282799999997,-42.28588,0.8005626,-0.1553311,-0.6305541,-75.34527,-11.97928,33.75881
198.73,76.13459,64.8860500000002,-25.61146,0.765732,-0.2209539,-0.6593634,-75.34527,-11.97928,33.75881
198.74,64.5810299999998,42.21315,-9.18225799999997,0.7359248,-0.2806372,-0.6733391,-75.34527,-11.97928,33.75881
198.75,57.3134699999997,19.77828,5.95958299999999,0.7175742,-0.2215757,-0.7113943,-75.34527,-11.97928,33.75881
198.76,49.92168,0.675912799999998,15.70676,0.8418233,0.150253,-0.6007696,-75.34527,-11.97928,33.75881
198.77,39.29985,-26.16262,23.18573,0.5676147,0.08032393,-0.8231546,-79.49242,-13.48993,27.64981
198.78,41.28756,-50.91833,32.31987,0.810876,0.2169959,-0.7665266,-79.49242,-13.48993,27.64981
198.79,56.56808,-42.64659,28.15127,1.240556,0.4976354,0.3869844,-79.49242,-13.48993,27.64981
198.8,89.8622099999998,-18.42645,7.85997499999998,1.527002,0.864081,1.014225,-79.49242,-13.48993,27.64981
198.81,82.9052300000001,-24.19882,-4.52323,1.489206,0.6289039,0.546997,-79.49242,-13.48993,27.64981
198.82,53.21382,-48.89503,16.25849,1.229838,0.5521069,-0.2435088,-80.97848,-12.71142,29.44238
198.83,5.198213,-80.3752600000001,39.18581,1.127002,0.4775273,-0.4238099,-80.97848,-12.71142,29.44238
198.84,-42.63104,-103.4647,52.73377,1.093892,0.3617849,-0.585805,-80.97848,-12.71142,29.44238
198.85,-81.8261799999998,-103.2267,58.9866800000001,1.106953,0.132115,-0.2246963,-80.97848,-12.71142,29.44238
198.86,-86.11218,-99.0015600000002,51.56901,0.9671236,0.1167094,0.01964153,-80.97848,-12.71142,29.44238
198.87,-82.0746499999998,-86.4451700000002,42.31226,0.8198371,0.3167084,-0.02161615,-79.83926,-10.82928,33.32258
198.88,-82.9442700000002,-81.8034700000003,31.21642,0.6623385,0.3227555,-0.3724904,-79.83926,-10.82928,33.32258
198.89,-74.4965099999999,-78.8280300000003,22.6953,0.6829105,0.1156664,-0.6246734,-79.83926,-10.82928,33.32258
198.9,-51.69996,-70.3777599999997,16.01328,0.879026,-0.01557331,-0.529861,-79.83926,-10.82928,33.32258
198.91,-16.54236,-64.3673600000002,9.51515600000002,1.029519,-0.02302514,-0.4069977,-79.83926,-10.82928,33.32258
198.92,14.01867,-57.70235,3.630069,1.048431,0.03608924,-0.2596542,-78.67516,-10.01506,39.83865
198.93,30.47939,-51.81097,-1.887201,1.035117,0.007760165,-0.2563491,-78.67516,-10.01506,39.83865
198.94,45.57356,-48.12141,-5.626684,1.010472,0.02799609,-0.2519935,-78.67516,-10.01506,39.83865
198.95,53.02747,-47.82387,-7.95619800000001,0.9954249,0.180793,-0.2164663,-78.67516,-10.01506,39.83865
198.96,40.10736,-48.65699,-8.01750100000001,1.039697,0.3872319,-0.1607264,-78.67516,-10.01506,39.83865
198.97,12.77635,-49.31159,-5.258866,1.050813,0.4771268,-0.09160062,-76.41471,-9.261898,42.89218
198.98,-8.09459299999998,-51.92999,-4.768442,0.9950386,0.3259041,-0.1888802,-76.41471,-9.261898,42.89218
198.99,-18.2816,-50.0257,-2.009807,0.964967,0.2379634,-0.211237,-76.41471,-9.261898,42.89218
199,-18.6543,-53.12016,-2.255019,0.9270257,0.2453633,-0.2245305,-76.41471,-9.261898,42.89218
199.01,-10.0823,-49.3711,-2.132413,0.9274272,0.2761837,-0.3114904,-76.41471,-9.261898,42.89218
199.02,-1.572422,-46.33614,-4.891047,0.926914,0.2222497,-0.2889367,-74.15105,-8.502499,46.39381
199.03,16.31696,-43.65824,-7.09795600000002,0.9444558,0.2054332,-0.2730359,-74.15105,-8.502499,46.39381
199.04,21.34835,-38.65949,-7.64968299999998,0.9786626,0.2592959,-0.2644432,-74.15105,-8.502499,46.39381
199.05,20.54084,-35.86257,-7.52707699999999,0.9807423,0.2846009,-0.2690513,-74.15105,-8.502499,46.39381
199.06,16.62754,-31.81597,-7.64968299999998,0.9636315,0.2843172,-0.3042706,-74.15105,-8.502499,46.39381
199.07,11.65827,-30.50677,-7.03665300000003,0.9462829,0.2619127,-0.2687517,-73.3787,-9.579046,49.02583
199.08,10.47807,-28.36445,-8.63053100000002,0.9549785,0.2469595,-0.2541466,-73.3787,-9.579046,49.02583
199.09,13.58386,-23.72275,-11.38917,0.9570776,0.2156357,-0.3071528,-73.3787,-9.579046,49.02583
199.1,24.14357,-21.99699,-14.69953,0.969119,0.1275917,-0.3267563,-73.3787,-9.579046,49.02583
199.11,40.97698,-16.93873,-14.76083,0.9044358,0.2011988,-0.269626,-73.3787,-9.579046,49.02583
199.12,43.33739,-16.99824,-16.2321,0.8973745,0.3432341,-0.2678475,-71.86492,-9.559782,51.64267
199.13,37.74696,-16.7602,-17.09034,0.9352942,0.3475455,-0.2458292,-71.86492,-9.559782,51.64267
199.14,31.53536,-15.21297,-14.1478,0.9088263,0.3476498,-0.2852246,-71.86492,-9.559782,51.64267
199.15,31.10055,-15.98659,-14.1478,0.9003301,0.3007903,-0.3037086,-71.86492,-9.559782,51.64267
199.16,37.25003,-14.55837,-14.94474,0.8948476,0.2632554,-0.30826,-71.86492,-9.559782,51.64267
199.17,42.96469,-13.48721,-14.94474,0.8985329,0.3027713,-0.2902487,-70.74453,-8.830199,52.07743
199.18,41.41179,-13.78476,-15.00604,0.91393,0.3544536,-0.2996159,-70.74453,-8.830199,52.07743
199.19,37.18791,-13.18967,-13.77998,0.9089628,0.3345066,-0.2867751,-70.74453,-8.830199,52.07743
199.2,34.26846,-14.02279,-13.28956,0.9090638,0.2721776,-0.2983241,-70.74453,-8.830199,52.07743
199.21,31.90806,-14.49887,-11.87959,0.8951566,0.269067,-0.3163618,-70.74453,-8.830199,52.07743
199.22,30.78997,-14.55837,-10.89874,0.8921214,0.2670596,-0.3254402,-69.99109,-8.82725,52.90574
199.23,33.33673,-14.02279,-11.38917,0.8985379,0.249556,-0.336701,-69.99109,-8.82725,52.90574
199.24,39.4862,-13.60623,-13.41216,0.9052174,0.2077162,-0.3500877,-69.99109,-8.82725,52.90574
199.25,47.80973,-12.059,-14.63822,0.9181273,0.1849366,-0.3562143,-69.99109,-8.82725,52.90574
199.26,54.95306,-10.86882,-15.61907,0.9059104,0.1998318,-0.3779577,-69.99109,-8.82725,52.90574
199.27,60.5435000000002,-9.20257099999999,-17.33556,0.8981223,0.1289807,-0.4373861,-69.242,-7.344582,54.23108
199.28,70.97897,-8.905025,-20.82983,0.9176043,0.002596164,-0.447356,-69.242,-7.344582,54.23108
199.29,87.19122,-7.95288200000002,-22.73022,0.9487799,-0.04460499,-0.3911739,-69.242,-7.344582,54.23108
199.3,102.9065,-6.40565000000001,-21.25895,0.9378922,0.06937376,-0.3359073,-69.242,-7.344582,54.23108
199.31,108.2485,-7.83386500000002,-19.29725,0.839338,0.2989113,-0.401091,-69.242,-7.344582,54.23108
199.32,108.1864,-13.18967,-24.75322,0.83626,0.3769609,-0.3428845,-69.23957,-6.595814,55.11974
199.33,105.267,-15.33199,-22.97543,0.8330651,0.3862723,-0.3178421,-69.23957,-6.595814,55.11974
199.34,101.8506,-17.83137,-21.38155,0.8186727,0.4503986,-0.3123038,-69.23957,-6.595814,55.11974
199.35,96.9434199999999,-23.72275,-23.22064,0.7944645,0.4284186,-0.2771626,-69.23957,-6.595814,55.11974
199.36,92.9680000000001,-23.84177,-20.15549,0.8232174,0.3806617,-0.363273,-69.23957,-6.595814,55.11974
199.37,83.6506200000001,-25.80556,-17.09034,0.8030275,0.3925166,-0.3983459,-68.87948,-3.588245,55.4711
199.38,72.46975,-27.29329,-12.79914,0.7982928,0.3831066,-0.4309434,-68.87948,-3.588245,55.4711
199.39,67.8731799999997,-29.67364,-14.94474,0.8331627,0.3334364,-0.3930444,-68.87948,-3.588245,55.4711
199.4,61.16465,-28.00739,-14.45432,0.8266001,0.257647,-0.4745753,-68.87948,-3.588245,55.4711
199.41,59.0527200000002,-26.87672,-12.1861,0.8205301,0.2283797,-0.4790486,-68.87948,-3.588245,55.4711
199.42,57.9346299999999,-26.16262,-11.81829,0.8401784,0.228576,-0.4730974,-68.07137,-0.9965086,57.16889
199.43,56.19538,-24.7344,-11.63438,0.8409573,0.2947914,-0.4653616,-68.07137,-0.9965086,57.16889
199.44,52.09573,-25.03195,-11.81829,0.8348976,0.319585,-0.4573988,-68.07137,-0.9965086,57.16889
199.45,46.25684,-21.87797,-11.69568,0.8285601,0.3407465,-0.5088834,-68.07137,-0.9965086,57.16889
199.46,41.78449,-21.04485,-12.92174,0.8438138,0.2557369,-0.5055054,-68.07137,-0.9965086,57.16889
199.47,40.6664,-20.62828,-12.37001,0.8571829,0.2179532,-0.4911597,-66.21032,1.571416,58.02903
199.48,42.84046,-19.3786,-12.1861,0.8673634,0.2323116,-0.4494933,-66.21032,1.571416,58.02903
199.49,43.33739,-20.56878,-12.67653,0.8811651,0.2860325,-0.4305478,-66.21032,1.571416,58.02903
199.5,38.86504,-24.19882,-12.61523,0.8999957,0.3704588,-0.4104565,-66.21032,1.571416,58.02903
199.51,31.53536,-24.91293,-12.1248,0.9084635,0.3548173,-0.4490452,-66.21032,1.571416,58.02903
199.52,27.55994,-27.76936,-11.32786,0.8812709,0.247981,-0.456268,-65.90127,3.795414,59.34909
199.53,29.734,-29.55462,-10.34701,0.8859885,0.1813579,-0.4559392,-65.90127,3.795414,59.34909
199.54,35.01385,-32.47056,-9.550076,0.8836611,0.1906463,-0.4390556,-65.90127,3.795414,59.34909
199.55,39.98313,-35.14846,-9.24356100000002,0.8816119,0.2192728,-0.4565152,-65.90127,3.795414,59.34909
199.56,44.57971,-39.61163,-8.32401599999998,0.9085824,0.2405234,-0.4332395,-65.90127,3.795414,59.34909
199.57,49.42475,-42.34904,-8.69183299999998,0.9207093,0.2562257,-0.4270502,-64.34332,4.150924,59.72135
199.58,53.83498,-46.81222,-10.0405,0.9485748,0.2822083,-0.441604,-64.34332,4.150924,59.72135
199.59,55.94692,-49.19257,-9.48877300000001,1.008908,0.3036464,-0.447075,-64.34332,4.150924,59.72135
199.6,57.6240500000001,-50.79932,-10.65353,1.049251,0.3192021,-0.4168499,-64.34332,4.150924,59.72135
199.61,60.2329199999998,-53.83427,-9.97919700000002,1.082833,0.3212696,-0.4637935,-64.34332,4.150924,59.72135
199.62,60.9161899999997,-57.22628,-9.12095499999998,1.111115,0.3001482,-0.4533533,-63.21405,5.641748,61.94096
199.63,64.8294999999998,-59.7256499999999,-9.42747000000001,1.090537,0.2465225,-0.4309902,-63.21405,5.641748,61.94096
199.64,70.3578099999999,-63.5342300000002,-9.36616700000002,1.098052,0.2145502,-0.4102823,-63.21405,5.641748,61.94096
199.65,76.4451699999998,-67.3428000000002,-7.89489500000002,1.158234,0.196669,-0.389727,-63.21405,5.641748,61.94096
199.66,79.6752000000002,-70.73481,-4.094109,1.21736,0.2352562,-0.3610128,-63.21405,5.641748,61.94096
199.67,82.6567600000001,-74.9004399999999,-1.703292,1.269739,0.2840644,-0.3158235,-61.34382,8.227493,64.08138
199.68,86.3216000000002,-79.3041000000003,-1.274171,1.328975,0.2712013,-0.2525636,-61.34382,8.227493,64.08138
199.69,96.26015,-83.2911999999999,-0.661141199999998,1.392599,0.2364028,-0.2096777,-61.34382,8.227493,64.08138
199.7,107.441,-87.9328900000002,-3.664988,1.434983,0.265182,-0.1616398,-61.34382,8.227493,64.08138
199.71,118.1249,-94.4788700000003,-8.26271299999999,1.407842,0.2995407,-0.1485038,-61.34382,8.227493,64.08138
199.72,128.7468,-101.977,-15.43516,1.31686,0.2644258,-0.2141122,-58.72491,11.17899,66.66225
199.73,142.6607,-113.8788,-25.36625,1.179777,0.3056872,-0.4360755,-58.72491,11.17899,66.66225
199.74,144.7727,-123.5787,-33.39694,1.11021,0.2973966,-0.6656489,-58.72491,11.17899,66.66225
199.75,157.5064,-132.4456,-42.28588,1.103928,0.254346,-0.8413097,-58.72491,11.17899,66.66225
199.76,164.6498,-134.4689,-50.56178,1.168689,0.2337597,-0.7743602,-54.27112,18.50797,67.84394
199.77,183.2845,-130.6008,-61.3511100000001,1.134385,0.2881205,-0.7307637,-54.27112,18.50797,67.84394
199.78,208.8763,-126.0781,-74.5312600000001,1.054701,0.2971114,-0.6107106,-54.27112,18.50797,67.84394
199.79,229.623,-126.6137,-77.1059800000001,1.040061,0.0753367,-0.803095,-54.27112,18.50797,67.84394
199.8,251.1151,-117.1518,-76.0638399999998,1.028999,0.07808534,-0.8225613,-54.27112,18.50797,67.84394
199.81,254.1588,-131.4934,-68.0944400000001,1.001973,0.0903189,-0.9998559,-48.70528,24.69015,66.91869
199.82,240.8039,-136.7897,-63.3128099999999,0.9525331,0.2239469,-1.063674,-48.70528,24.69015,66.91869
199.83,205.5842,-139.3486,-62.3319599999997,0.9767106,0.2473526,-0.8486603,-48.70528,24.69015,66.91869
199.84,176.7003,-137.6228,-63.9871399999997,0.8420335,0.1822433,-1.023636,-48.70528,24.69015,66.91869
199.85,157.4443,-135.302,-68.27835,0.8346869,0.1444169,-0.8422337,-48.70528,24.69015,66.91869
199.86,118.684,-125.1855,-69.1365999999999,0.9222537,0.01526425,-0.4540241,-48.70528,24.69015,66.91869
199.87,93.7755100000001,-109.0586,-75.2055899999999,0.9048181,0.002652,-0.2727447,-45.03304,33.07785,64.18807
199.88,71.2895499999998,-92.15803,-76.0638399999998,0.8108082,-0.06552713,-0.1948291,-45.03304,33.07785,64.18807
199.89,44.51759,-72.87714,-74.9603800000002,0.8300617,-0.03512087,-0.04773267,-45.03304,33.07785,64.18807
199.9,17.00024,-54.42936,-76.1251400000002,0.753507,-0.0384419,-0.1036943,-45.03304,33.07785,64.18807
199.91,-16.23178,-38.18342,-75.2055899999999,0.6963699,-0.149478,-0.1220266,-45.03304,33.07785,64.18807
199.92,-40.82968,-10.7498,-78.7611600000002,0.6276052,-0.3209908,-0.1493292,-41.33185,37.86326,62.77482
199.93,-54.43306,15.13658,-69.1978999999998,0.6395954,-0.5660708,-0.131442,-41.33185,37.86326,62.77482
199.94,-50.76822,38.88065,-62.2706500000002,0.6080745,-0.6537489,-0.0804584,-41.33185,37.86326,62.77482
199.95,-35.8604,63.16029,-56.9986,0.6218292,-0.7773505,-0.1133247,-41.33185,37.86326,62.77482
199.96,-23.56146,85.6546699999999,-48.10966,0.6363636,-0.7303911,-0.0824668,-41.69361,34.48042,61.91512
199.97,-16.72871,107.3754,-41.30503,0.6340067,-0.6253359,-0.09113061,-41.69361,34.48042,61.91512
199.98,-16.72871,127.3109,-36.09428,0.6316419,-0.5640881,-0.1030392,-41.69361,34.48042,61.91512
199.99,-21.44951,144.5685,-31.37394,0.6247736,-0.4838674,-0.1056187,-41.69361,34.48042,61.91512
200,-30.26998,161.35,-26.89882,0.6432749,-0.4063701,-0.1157707,-41.69361,34.48042,61.91512
200.01,-41.26449,177.2984,-22.3011,0.6616666,-0.3536684,-0.1199009,-47.31114,28.57016,55.92312
200.02,-52.19689,192.7708,-18.80683,0.699428,-0.3383082,-0.1356438,-47.31114,28.57016,55.92312
200.03,-58.9675299999999,208.0051,-16.72253,0.7280641,-0.316282,-0.1689308,-47.31114,28.57016,55.92312
200.04,-64.0610299999998,219.6093,-14.69953,0.6680546,-0.3964852,-0.2631547,-47.31114,28.57016,55.92312
200.05,-72.5709100000001,228.4761,-9.36616700000002,0.695344,-0.6237862,-0.4710385,-47.31114,28.57016,55.92312
200.06,-61.63851,243.4724,1.668373,0.7831798,-0.5913641,-0.2079778,-55.9551,25.22781,46.78349
200.07,-43.06585,261.8606,-1.396777,0.913365,-0.2065529,-0.1529154,-55.9551,25.22781,46.78349
200.08,-47.5382,270.4894,-5.013654,0.7287937,-0.04651228,-0.3803875,-55.9551,25.22781,46.78349
200.09,-61.7627399999999,284.9501,-4.707139,0.8519537,-0.2231982,-0.2940237,-55.9551,25.22781,46.78349
200.1,-58.4084800000001,294.3525,-4.032806,0.9086471,-0.2588393,-0.3296348,-55.9551,25.22781,46.78349
200.11,-56.545,304.35,0.5036157,0.9701892,-0.2189095,-0.3378422,-65.38696,20.69966,31.19365
200.12,-59.1538700000001,312.9193,4.917432,1.050444,-0.1600093,-0.3921593,-65.38696,20.69966,31.19365
200.13,-60.33408,320.5364,12.27379,1.110587,-0.1457312,-0.4896942,-65.38696,20.69966,31.19365
200.14,-54.30883,325.1186,17.05543,1.172813,-0.09868845,-0.5491256,-65.38696,20.69966,31.19365
200.15,-50.70611,329.1652,14.6033,1.314899,-0.05494568,-0.6389542,-65.38696,20.69966,31.19365
200.16,-51.20303,333.3309,11.10903,1.510342,0.01111461,-0.7427725,-71.56415,19.39148,11.58395
200.17,-54.99211,337.1989,8.22779399999998,1.648222,0.05522782,-0.8536229,-71.56415,19.39148,11.58395
200.18,-60.1477300000001,335.2351,3.630069,1.709625,0.05725408,-0.977156,-71.56415,19.39148,11.58395
200.19,-70.3347400000002,326.1898,-2.68414,1.684012,0.08635495,-1.071906,-71.56415,19.39148,11.58395
200.2,-94.8084100000002,312.7408,-3.481079,1.655699,0.1770137,-1.095177,-71.56415,19.39148,11.58395
200.21,-125.2452,296.2568,-2.500231,1.551681,0.401162,-1.02759,-71.72021,21.3215,-8.474996
200.22,-156.4274,275.3692,-2.500231,1.406059,0.568166,-1.047585,-71.72021,21.3215,-8.474996
200.23,-179.5966,248.8877,-7.22056200000001,1.286238,0.6301771,-1.097587,-71.72021,21.3215,-8.474996
200.24,-189.1625,214.9081,-11.63438,1.227703,0.3703739,-1.205807,-71.72021,21.3215,-8.474996
200.25,-177.7332,180.75,-1.274171,0.9989887,0.207078,-1.259512,-71.72021,21.3215,-8.474996
200.26,-149.6568,142.0096,0.5036157,0.8487053,0.1300435,-1.333734,-66.90703,22.91653,-22.09021
200.27,-93.2555100000002,93.7478900000002,2.036191,0.613925,0.1288137,-1.366818,-66.90703,22.91653,-22.09021
200.28,-43.2522,50.5444,-1.212868,0.4105795,0.2155079,-1.385231,-66.90703,22.91653,-22.09021
200.29,-8.96421499999997,5.079574,-3.971503,0.2963818,0.3313406,-1.370167,-66.90703,22.91653,-22.09021
200.3,3.831663,-41.99199,-4.339321,0.6692823,0.3070404,-1.204612,-66.90703,22.91653,-22.09021
200.31,7.620733,-69.1875800000001,-1.641989,0.5082707,0.2785251,-1.161826,-62.84141,26.50153,-25.66993
200.32,13.21117,-99.6561500000002,2.833129,0.6584697,0.2609244,-0.8900133,-62.84141,26.50153,-25.66993
200.33,24.76472,-80.2562399999998,-1.028959,1.380678,0.3195828,1.106117,-62.84141,26.50153,-25.66993
200.34,39.05139,-34.43436,-2.377625,1.704713,0.5249546,1.513906,-62.84141,26.50153,-25.66993
200.35,36.38041,-39.25458,-33.88737,1.47883,0.2970818,0.713981,-62.84141,26.50153,-25.66993
200.36,42.46777,-55.14347,-29.59616,1.199165,-0.192656,0.1526913,-62.44759,26.90812,-22.60297
200.37,17.86986,-79.6611600000002,-9.85659099999998,1.14878,-0.1860711,-0.3075248,-62.44759,26.90812,-22.60297
200.38,11.47192,-98.28745,-4.339321,1.220928,-0.09566785,-0.2469319,-62.44759,26.90812,-22.60297
200.39,6.56476300000003,-116.6162,-1.274171,1.336243,-0.08950081,-0.4315775,-62.44759,26.90812,-22.60297
200.4,2.340881,-128.2204,3.017039,1.474125,-0.2050675,-0.4316428,-62.44759,26.90812,-22.60297
200.41,5.073981,-127.0303,-1.090262,1.286485,-0.183725,-0.3962028,-64.66307,25.49796,-19.95173
200.42,6.56476300000003,-127.4468,-8.38531899999998,1.08042,0.05847861,-0.3337179,-64.66307,25.49796,-19.95173
200.43,-4.181291,-123.9953,-12.92174,1.016922,0.2679628,-0.249581,-64.66307,25.49796,-19.95173
200.44,-37.91023,-110.6058,-16.47731,0.9286448,0.2387195,-0.1833985,-64.66307,25.49796,-19.95173
200.45,-63.19141,-96.9187400000001,-14.76083,0.6645322,-0.03665991,-0.4560604,-64.66307,25.49796,-19.95173
200.46,-40.20852,-92.6936099999999,-14.69953,0.6569723,-0.09111657,-0.5560857,-66.85006,25.25906,-12.51076
200.47,-13.25021,-80.6132999999997,-19.29725,0.8671907,-0.0543045,-0.3196507,-66.85006,25.25906,-12.51076
200.48,4.32859,-68.1759300000001,-21.19765,0.9819921,-0.01280854,-0.2955391,-66.85006,25.25906,-12.51076
200.49,13.52175,-60.3207399999998,-19.54246,0.9998274,0.0005935866,-0.2674074,-66.85006,25.25906,-12.51076
200.5,16.75177,-54.54838,-15.61907,1.124805,0.002523825,-0.1776453,-66.85006,25.25906,-12.51076
200.51,7.931313,-49.49012,-18.00989,1.234039,0.05932441,-0.08192446,-67.55699,24.23007,-7.694552
200.52,-9.27479499999997,-49.96619,-16.96774,1.315625,0.1716857,-0.02751026,-67.55699,24.23007,-7.694552
200.53,-35.67406,-51.81097,-6.91404699999998,1.162267,0.3754812,-0.08015015,-67.55699,24.23007,-7.694552
200.54,-62.0733200000002,-56.21463,-6.668835,0.9648512,0.3396167,-0.09441114,-67.55699,24.23007,-7.694552
200.55,-78.0371099999999,-56.6907,-2.806746,0.9173611,0.2137636,-0.06412765,-67.55699,24.23007,-7.694552
200.56,-82.1988800000002,-59.19007,-0.722444199999999,0.8417436,0.2347157,-0.1376282,-68.33942,23.92027,-4.165837
200.57,-81.0807899999998,-58.5949899999999,0.0744947300000003,0.8750647,0.2707496,-0.2096789,-68.33942,23.92027,-4.165837
200.58,-76.1115199999997,-57.5833300000002,-0.04811126,0.9331595,0.196803,-0.2120894,-68.33942,23.92027,-4.165837
200.59,-71.6391700000002,-57.04775,2.526614,0.9914548,0.07848494,-0.2388371,-68.33942,23.92027,-4.165837
200.6,-64.9927699999997,-56.92873,9.57645900000002,1.021544,0.04854995,-0.2471858,-68.33942,23.92027,-4.165837
200.61,-57.6630900000002,-49.84717,8.28909600000001,1.022033,0.05343675,-0.2428387,-68.97962,23.27118,1.542474
200.62,-54.74364,-48.47847,9.76036800000001,1.030307,-0.05510592,-0.2697495,-68.97962,23.27118,1.542474
200.63,-58.53271,-47.64534,12.4577,1.049145,-0.04754713,-0.2450358,-68.97962,23.27118,1.542474
200.64,-57.16616,-42.11101,9.63776200000002,1.017124,-0.01482812,-0.2682633,-68.97962,23.27118,1.542474
200.65,-60.3961899999998,-38.54047,9.20864099999999,1.020053,-0.009298271,-0.2280056,-68.97962,23.27118,1.542474
200.66,-57.10405,-36.87423,9.147338,0.9545985,-0.02916237,-0.3096626,-69.38515,24.07933,6.338223
200.67,-51.94843,-31.99449,7.49215799999998,0.9846751,-0.04041302,-0.2665791,-69.38515,24.07933,6.338223
200.68,-41.82353,-29.49512,5.346553,0.967371,-0.03866378,-0.2782977,-69.38515,24.07933,6.338223
200.69,-29.52458,-26.75771,3.630069,0.9685842,-0.04249395,-0.2644506,-69.38515,24.07933,6.338223
200.7,-19.46181,-25.56753,1.913585,0.9560751,0.01625829,-0.2690476,-69.38515,24.07933,6.338223
200.71,-14.05772,-24.31784,0.932736599999998,0.9611299,0.0381831,-0.2737266,-68.61681,23.73908,8.962696
200.72,-11.44885,-23.78226,1.361858,0.9786024,0.03159964,-0.2539048,-68.61681,23.73908,8.962696
200.73,-9.70960600000003,-23.78226,1.913585,0.9737775,0.04524578,-0.2369489,-68.61681,23.73908,8.962696
200.74,-9.08844800000002,-24.37735,2.894433,0.9845351,0.07414515,-0.21194,-68.61681,23.73908,8.962696
200.75,-9.64749099999998,-26.40065,3.446159,0.9734277,0.1071508,-0.2081487,-68.61681,23.73908,8.962696
200.76,-11.13827,-27.70985,4.243099,0.9505864,0.1429837,-0.2012912,-68.60318,24.13752,11.1354
200.77,-15.61062,-30.32824,5.591765,0.9415876,0.1516386,-0.2077987,-68.60318,24.13752,11.1354
200.78,-21.0147,-32.47056,7.73737000000002,0.9464647,0.1039667,-0.2149793,-68.60318,24.13752,11.1354
200.79,-23.80992,-34.55338,10.3121,0.9494475,0.08838303,-0.2252165,-68.60318,24.13752,11.1354
200.8,-23.12664,-36.33864,11.47685,0.9611077,0.1054169,-0.2520741,-68.60318,24.13752,11.1354
200.81,-20.82836,-36.93373,11.78337,0.9672329,0.1019888,-0.2723167,-67.77825,24.15757,13.24367
200.82,-19.46181,-36.27914,12.21249,0.9665149,0.07946081,-0.3089158,-67.77825,24.15757,13.24367
200.83,-17.16352,-36.51717,13.13203,0.951187,0.05158626,-0.3094118,-67.77825,24.15757,13.24367
200.84,-14.3683,-35.92208,12.3964,0.9520996,0.01704721,-0.3087578,-67.77825,24.15757,13.24367
200.85,-10.95192,-34.61288,12.21249,0.9513929,-0.0146187,-0.3166822,-67.77825,24.15757,13.24367
200.86,-8.52940399999997,-34.0178,12.64161,0.9478764,0.009600838,-0.3379917,-67.38766,24.55793,15.86253
200.87,-7.97036100000001,-32.64909,12.94812,0.9677079,0.03168449,-0.3352127,-67.38766,24.55793,15.86253
200.88,-6.35534800000002,-31.3994,12.4577,0.9653203,0.02240312,-0.3390906,-67.38766,24.55793,15.86253
200.89,-4.926682,-30.56628,12.58031,0.9602597,0.0009648921,-0.3344074,-67.38766,24.55793,15.86253
200.9,-3.373783,-30.32824,13.00943,0.9471036,0.01209196,-0.3207085,-67.38766,24.55793,15.86253
200.91,-2.938972,-31.57793,13.62246,0.9298488,0.01691976,-0.2902322,-67.0023,25.3202,18.02953
200.92,-4.057059,-33.54173,15.03243,0.9172606,0.01977373,-0.2780487,-67.0023,25.3202,18.02953
200.93,-6.41746300000001,-36.81472,17.60715,0.9026385,0.06151135,-0.2731753,-67.0023,25.3202,18.02953
200.94,-10.64135,-40.98034,19.99797,0.9097923,0.09618797,-0.2562126,-67.0023,25.3202,18.02953
200.95,-12.44271,-44.96744,22.20488,0.9193899,0.06511017,-0.2614037,-67.0023,25.3202,18.02953
200.96,-10.95192,-49.13306,24.90221,0.9309752,0.05882297,-0.2783938,-66.23799,25.71625,20.64646
200.97,-9.02633099999998,-52.7036,27.17042,0.9578042,0.09796245,-0.2856339,-66.23799,25.71625,20.64646
200.98,-6.665927,-56.39315,30.35818,0.9703614,0.09607606,-0.2992464,-66.23799,25.71625,20.64646
200.99,-5.609956,-59.6066399999998,32.38117,0.97344,0.1004018,-0.3208177,-66.23799,25.71625,20.64646
201,-4.49187,-61.7489600000001,35.32372,0.9901207,0.07419869,-0.3404446,-66.23799,25.71625,20.64646
201.01,-4.926682,-63.8317699999999,38.87929,0.9951788,0.08098944,-0.3581897,-65.09873,26.48236,23.70578
201.02,-4.988797,-65.0814699999998,41.76053,1.038425,0.09642676,-0.366343,-65.09873,26.48236,23.70578
201.03,-2.069349,-66.1526300000002,43.41571,1.053363,0.08673207,-0.3915561,-65.09873,26.48236,23.70578
201.04,3.27262,-67.4618199999999,44.82568,1.076536,0.02414104,-0.3976858,-65.09873,26.48236,23.70578
201.05,10.78865,-68.41396,46.90998,1.062266,-0.01981356,-0.406479,-65.09873,26.48236,23.70578
201.06,18.11832,-70.9728500000001,48.93298,1.073135,-0.03761702,-0.3785113,-62.84476,28.33908,26.68399
201.07,23.27394,-72.8176300000001,53.2855,1.098341,-0.002440653,-0.4006169,-62.84476,28.33908,26.68399
201.08,24.64049,-74.54338,58.3736500000001,1.188627,0.01649959,-0.3643663,-62.84476,28.33908,26.68399
201.09,23.77087,-76.5071800000003,64.3813299999999,1.257755,0.1052527,-0.3473514,-62.84476,28.33908,26.68399
201.1,17.37293,-78.7090099999999,67.6917000000003,1.294838,0.1301012,-0.296875,-62.84476,28.33908,26.68399
201.11,12.40366,-81.6249500000003,70.8181499999999,1.260275,0.02723163,-0.267061,-59.85214,31.28625,29.26294
201.12,7.31015400000003,-84.8384299999998,77.6227799999998,1.242027,0.01677623,-0.2870155,-59.85214,31.28625,29.26294
201.13,-1.323958,-88.9445499999999,83.5078700000002,1.341215,-0.04872391,-0.2103933,-59.85214,31.28625,29.26294
201.14,-7.41131799999999,-90.37276,88.3508099999999,1.410706,-0.06456596,-0.1870782,-59.85214,31.28625,29.26294
201.15,-7.162854,-94.3598600000002,91.6611699999999,1.445711,-0.08929808,-0.1173435,-59.85214,31.28625,29.26294
201.16,-2.442044,-97.5138299999999,93.8680699999998,1.442155,-0.08581321,-0.08803228,-56.47569,35.36475,34.06913
201.17,8.241893,-99.8941899999998,95.46195,1.449776,-0.09480855,-0.03933848,-56.47569,35.36475,34.06913
201.18,21.5347,-101.3224,98.5884099999998,1.466623,-0.02407745,-0.03323128,-56.47569,35.36475,34.06913
201.19,37.31215,-99.6561500000002,103.6766,1.43798,0.111404,-0.04126365,-56.47569,35.36475,34.06913
201.2,52.21996,-103.2267,106.4352,1.250469,0.2623589,-0.3487968,-56.47569,35.36475,34.06913
201.21,53.71075,-102.096,110.0521,1.247622,0.3526274,-0.4064568,-50.1251,39.81237,36.99906
201.22,38.55446,-102.3936,112.1977,1.230393,0.3593631,-0.5158911,-50.1251,39.81237,36.99906
201.23,22.46644,-101.3224,115.6306,1.186458,0.2447543,-0.609676,-50.1251,39.81237,36.99906
201.24,15.82003,-86.8022199999999,118.8184,1.145507,0.2382189,-0.5688947,-50.1251,39.81237,36.99906
201.25,9.11151600000002,-87.1592799999998,120.5962,1.083854,0.1695346,-0.7018131,-50.1251,39.81237,36.99906
201.26,-7.78401299999998,-81.3274000000002,119.7992,1.092423,0.1423922,-0.5636756,-43.78216,44.55521,39.09368
201.27,-37.35118,-72.5795899999999,121.577,1.01416,0.1099663,-0.5911066,-43.78216,44.55521,39.09368
201.28,-60.1477300000001,-70.73481,130.466,0.8361267,0.1162925,-0.6896269,-43.78216,44.55521,39.09368
201.29,-82.1988800000002,-62.1655200000003,132.5503,0.830257,0.04514721,-0.5727398,-43.78216,44.55521,39.09368
201.3,-97.9141999999999,-41.09936,133.4698,0.9147424,0.1151011,-0.4147386,-43.78216,44.55521,39.09368
201.31,-100.6473,-15.33199,131.1403,0.8653886,0.3132521,-0.2719574,-36.3148,49.29133,41.63059
201.32,-118.4125,6.745824,126.4813,0.7584429,0.4995651,-0.1653538,-36.3148,49.29133,41.63059
201.33,-149.5947,27.99051,121.1479,0.6120448,0.6495302,-0.1854824,-36.3148,49.29133,41.63059
201.34,-177.0499,47.2119,114.1594,0.5638089,0.6633151,-0.1588018,-36.3148,49.29133,41.63059
201.35,-195.3741,62.7437299999999,111.4007,0.536818,0.5339426,-0.2069497,-36.3148,49.29133,41.63059
201.36,-203.6355,79.8227899999997,108.9486,0.5129557,0.419381,-0.3355227,-29.93167,49.64758,46.01093
201.37,-201.6478,94.04543,109.0712,0.5222093,0.3143477,-0.4668832,-29.93167,49.64758,46.01093
201.38,-191.1502,113.0883,108.3969,0.5271192,0.2748498,-0.5003513,-29.93167,49.64758,46.01093
201.39,-176.7393,130.5244,108.4582,0.5825312,0.2038785,-0.4816136,-29.93167,49.64758,46.01093
201.4,-161.5209,149.7458,110.849,0.5883049,0.2141558,-0.4796924,-29.93167,49.64758,46.01093
201.41,-148.0417,166.3488,111.2781,0.607276,0.2626286,-0.4450513,-28.01446,47.11578,50.82871
201.42,-136.4261,182.9518,111.7685,0.6295087,0.3631904,-0.4124132,-28.01446,47.11578,50.82871
201.43,-131.7674,197.7695,110.2973,0.6277402,0.4301966,-0.4472832,-28.01446,47.11578,50.82871
201.44,-133.0718,212.6467,108.6421,0.6545231,0.4341705,-0.4888426,-28.01446,47.11578,50.82871
201.45,-134.9974,225.8577,105.8222,0.7002264,0.4397331,-0.5407214,-28.01446,47.11578,50.82871
201.46,-136.1155,238.3546,100.734,0.7532403,0.4761113,-0.5675259,-31.34314,41.26961,51.2905
201.47,-139.7803,249.8993,94.7263199999997,0.8245641,0.5551853,-0.5415191,-31.34314,41.26961,51.2905
201.48,-146.7373,258.2901,85.6534700000001,0.8949602,0.6660826,-0.5914233,-31.34314,41.26961,51.2905
201.49,-156.6138,266.3833,74.68024,0.9859142,0.707266,-0.5942888,-31.34314,41.26961,51.2905
201.5,-174.9379,271.3225,67.6303900000001,1.045006,0.69138,-0.6877506,-31.34314,41.26961,51.2905
201.51,-199.4737,275.9643,62.7261499999999,1.160285,0.6634136,-0.7615095,-36.96589,39.81365,47.87782
201.52,-210.8409,277.2139,59.4157899999999,1.222924,0.6092933,-0.8079038,-36.96589,39.81365,47.87782
201.53,-220.2826,276.2023,56.35065,1.241203,0.6049755,-0.8345567,-36.96589,39.81365,47.87782
201.54,-226.9911,272.0962,48.68777,1.278579,0.6664721,-0.8738648,-36.96589,39.81365,47.87782
201.55,-233.886,267.871,39.67623,1.315889,0.7654082,-0.9210023,-36.96589,39.81365,47.87782
201.56,-243.8866,264.4195,33.30072,1.336701,0.7938482,-0.9124334,-46.32925,37.21635,43.1521
201.57,-253.8873,261.087,27.66084,1.34644,0.7921043,-0.881439,-46.32925,37.21635,43.1521
201.58,-258.7323,258.7662,20.48839,1.33937,0.7619809,-0.8523612,-46.32925,37.21635,43.1521
201.59,-260.9685,253.8864,13.92897,1.325717,0.7343135,-0.801605,-46.32925,37.21635,43.1521
201.6,-258.2975,249.6613,5.346553,1.300232,0.712728,-0.7880063,-46.32925,37.21635,43.1521
201.61,-251.4648,244.1865,-6.17841099999998,1.278206,0.6843475,-0.7778687,-55.312,30.96966,36.66913
201.62,-239.2279,238.7117,-19.23595,1.272352,0.6385419,-0.7810471,-55.312,30.96966,36.66913
201.63,-221.8976,232.7608,-33.09043,1.255959,0.5878224,-0.7721367,-55.312,30.96966,36.66913
201.64,-199.6601,226.5123,-48.53878,1.261275,0.5031705,-0.7796357,-55.312,30.96966,36.66913
201.65,-170.7762,221.097,-64.47757,1.277943,0.3913061,-0.8038188,-55.312,30.96966,36.66913
201.66,-138.538,213.3013,-80.84547,1.254228,0.2941449,-0.8344904,-63.92981,21.72537,26.75766
201.67,-104.4985,204.0179,-98.2555200000001,1.213887,0.2279491,-0.8732892,-63.92981,21.72537,26.75766
201.68,-77.9749899999998,186.5223,-111.4357,1.088093,-0.03956912,-0.933654,-63.92981,21.72537,26.75766
201.69,-25.11436,170.9905,-101.0755,0.9295291,-0.3405231,-0.8793052,-63.92981,21.72537,26.75766
201.7,-0.827030799999999,155.1611,-82.37804,0.9459134,-0.2225661,-0.8656049,-69.64615,12.02477,12.92998
201.71,3.955895,133.6784,-67.66532,0.8336264,0.2340309,-0.9488029,-69.64615,12.02477,12.92998
201.72,-25.3007,99.1631999999999,-62.9449900000003,0.6100734,0.5337546,-1.077742,-69.64615,12.02477,12.92998
201.73,-73.1299500000002,58.4590899999999,-58.53117,0.4912068,0.5449919,-1.174189,-69.64615,12.02477,12.92998
201.74,-107.8528,15.2556,-47.74184,0.5031191,0.3042837,-1.158181,-69.64615,12.02477,12.92998
201.75,-132.7612,-20.62828,-32.90652,0.5563694,0.017275,-1.129256,-69.64615,12.02477,12.92998
201.76,-137.1094,-51.57293,-23.09804,0.6180508,-0.1334645,-1.115593,-71.53922,4.930375,4.305401
201.77,-124.9967,-78.9470399999998,-17.58077,0.6581838,-0.2133907,-1.113006,-71.53922,4.930375,4.305401
201.78,-105.5545,-99.5371400000001,-11.38917,0.6922868,-0.3089025,-1.099922,-71.53922,4.930375,4.305401
201.79,-79.4657699999998,-116.4377,-7.343168,0.9876946,-0.2517873,-0.8410493,-71.53922,4.930375,4.305401
201.8,-65.9866300000002,-118.7585,-4.216715,0.9974383,-0.3074002,-0.6418314,-71.53922,4.930375,4.305401
201.81,-52.81805,-77.2807900000001,-5.74929000000001,1.662183,-0.221703,1.433456,-70.7588,1.265212,6.131631
201.82,-85.4288999999998,-54.60789,5.95958299999999,1.7081,-0.1352737,1.145532,-70.7588,1.265212,6.131631
201.83,-110.4616,-56.63119,-4.400624,1.287604,-0.3888524,0.4382532,-70.7588,1.265212,6.131631
201.84,-117.9155,-77.5188300000002,5.714371,1.199601,-0.5914958,-0.05865338,-70.7588,1.265212,6.131631
201.85,-116.6111,-96.9782499999999,19.75276,1.193527,-0.778649,-0.3816891,-70.7588,1.265212,6.131631
201.86,-74.8692000000001,-111.6174,14.4807,1.392341,-0.7905547,-0.5221534,-71.4585,-0.4938369,11.40348
201.87,-27.16418,-115.9021,-0.845050200000001,1.522411,-0.4998692,-0.5225124,-71.4585,-0.4938369,11.40348
201.88,8.05554500000002,-113.4622,-9.97919700000002,1.300603,-0.04794457,-0.4254476,-71.4585,-0.4938369,11.40348
201.89,14.8883,-111.3199,-19.97158,0.9993696,0.3951459,-0.4202901,-71.4585,-0.4938369,11.40348
201.9,-2.690508,-113.8193,-26.4084,0.9337747,0.5881913,-0.4325812,-69.91953,-1.169886,16.9725
201.91,-25.3007,-109.1776,-35.17473,1.029146,0.2472937,-0.3400192,-69.91953,-1.169886,16.9725
201.92,-28.4065,-94.7169099999999,-27.63446,0.9798332,-0.2853967,-0.442527,-69.91953,-1.169886,16.9725
201.93,7.24803800000001,-81.6249500000003,-21.56546,0.767882,-0.3622796,-0.5901445,-69.91953,-1.169886,16.9725
201.94,53.40017,-71.7464599999999,-26.77622,0.7235979,-0.2155687,-0.5513768,-69.91953,-1.169886,16.9725
201.95,80.2963599999998,-62.1060099999998,-31.37394,0.8455195,-0.1033597,-0.3734261,-68.75337,-1.839836,22.67147
201.96,90.85606,-51.69195,-32.17088,0.9776558,-0.0721219,-0.2710595,-68.75337,-1.839836,22.67147
201.97,85.4519799999998,-44.84842,-26.16319,1.013304,0.08560341,-0.2088989,-68.75337,-1.839836,22.67147
201.98,46.81588,-41.03985,-24.87582,1.187963,0.3096517,-0.04752799,-68.75337,-1.839836,22.67147
201.99,-11.01404,-40.80182,-19.05204,1.321663,0.5112685,0.06823424,-68.75337,-1.839836,22.67147
202,-72.1360999999999,-49.31159,-9.91789399999997,1.113087,0.6564928,-0.03107452,-67.23114,-2.176247,26.18827
202.01,-117.3565,-54.72691,-7.343168,0.9565651,0.3970272,-0.07751575,-67.23114,-2.176247,26.18827
202.02,-141.209,-57.9403900000001,-2.316322,0.854368,0.2355599,-0.07215068,-67.23114,-2.176247,26.18827
202.03,-140.2151,-59.8446699999997,-2.868049,0.8192651,0.1494891,-0.1030455,-67.23114,-2.176247,26.18827
202.04,-112.0145,-58.5949899999999,-1.887201,0.8826376,0.05380838,-0.2039505,-67.23114,-2.176247,26.18827
202.05,-85.7394899999998,-57.4643200000001,-1.887201,0.990902,0.08006232,-0.2062304,-65.70934,-3.629574,28.8202
202.06,-58.9054099999998,-54.84592,-2.929352,1.054212,0.08906214,-0.2913959,-65.70934,-3.629574,28.8202
202.07,-44.18394,-53.77476,-1.764595,1.089304,0.07837825,-0.238795,-65.70934,-3.629574,28.8202
202.08,-37.84811,-51.63244,1.239252,1.064369,0.0960903,-0.2579373,-65.70934,-3.629574,28.8202
202.09,-41.20237,-48.77601,3.446159,0.9994169,0.07357536,-0.2691816,-65.70934,-3.629574,28.8202
202.1,-43.81124,-49.25208,4.67222,1.02377,0.04669141,-0.2290237,-64.54967,-6.606297,31.91786
202.11,-47.97301,-46.45516,7.00173400000002,0.9972709,0.03520454,-0.2450357,-64.54967,-6.606297,31.91786
202.12,-50.89246,-45.80056,8.65691500000001,0.9891546,0.01956457,-0.2440936,-64.54967,-6.606297,31.91786
202.13,-47.78666,-43.24168,8.65691500000001,0.9839092,0.02625564,-0.2640887,-64.54967,-6.606297,31.91786
202.14,-42.63104,-40.92083,6.81782499999998,0.9907711,0.03546122,-0.290944,-64.54967,-6.606297,31.91786
202.15,-34.80443,-36.0411,4.365705,0.9815658,0.02355175,-0.3306869,-62.96155,-8.796638,34.557
202.16,-23.25088,-31.33989,1.974888,0.9704203,-0.06768097,-0.367238,-62.96155,-8.796638,34.557
202.17,-10.64135,-27.82887,0.748827699999998,0.9568831,-0.09252103,-0.3413779,-62.96155,-8.796638,34.557
202.18,2.154533,-24.97244,-1.519383,0.9340881,-0.01712857,-0.2963304,-62.96155,-8.796638,34.557
202.19,7.931313,-22.83012,-3.29717,0.9363922,0.06181022,-0.2731746,-62.96155,-8.796638,34.557
202.2,4.142242,-22.7111,-2.929352,0.9368942,0.1052704,-0.2339998,-62.57017,-9.13881,36.73531
202.21,-4.429754,-22.94913,-0.722444199999999,0.9603584,0.123538,-0.2193249,-62.57017,-9.13881,36.73531
202.22,-16.23178,-25.56753,2.64922,0.9645258,0.1153451,-0.2079527,-62.57017,-9.13881,36.73531
202.23,-21.3874,-27.53132,4.365705,0.9627776,0.09718771,-0.2445002,-62.57017,-9.13881,36.73531
202.24,-23.18876,-28.84052,5.836977,0.9498442,0.1043373,-0.2538395,-62.57017,-9.13881,36.73531
202.25,-23.80992,-30.38775,6.572613,0.9407948,0.1095602,-0.267084,-61.81873,-8.767714,37.55985
202.26,-22.25702,-30.56628,7.12434000000001,0.9394162,0.09492582,-0.2734174,-61.81873,-8.767714,37.55985
202.27,-20.45566,-30.56628,8.10518700000002,0.9436263,0.09295698,-0.2893077,-61.81873,-8.767714,37.55985
202.28,-19.33757,-30.92333,8.84082300000002,0.9618208,0.08045035,-0.2935061,-61.81873,-8.767714,37.55985
202.29,-17.72256,-30.6853,9.26994399999999,0.9740717,0.0659179,-0.304825,-61.81873,-8.767714,37.55985
202.3,-16.29389,-30.44726,9.33124699999998,0.9631584,0.06333832,-0.3181088,-60.30893,-9.12818,39.34829
202.31,-16.91505,-30.92333,10.74122,0.9622806,0.05212913,-0.3205869,-60.30893,-9.12818,39.34829
202.32,-17.4741,-29.97119,11.66076,0.9570503,0.04773043,-0.3133615,-60.30893,-9.12818,39.34829
202.33,-15.48639,-30.32824,11.23164,0.9478285,0.04718063,-0.3084427,-60.30893,-9.12818,39.34829
202.34,-13.00175,-29.31659,10.98643,0.9340396,0.0703329,-0.3305731,-60.30893,-9.12818,39.34829
202.35,-12.13213,-28.90003,10.3734,0.9370592,0.05329508,-0.3393855,-59.17975,-9.497694,40.17844
202.36,-10.455,-27.82887,10.25079,0.9383422,0.02653815,-0.340588,-59.17975,-9.497694,40.17844
202.37,-7.53555000000002,-27.17427,10.12819,0.940805,0.02070588,-0.344506,-59.17975,-9.497694,40.17844
202.38,-5.299377,-26.28163,10.25079,0.9484223,0.03389752,-0.3483368,-59.17975,-9.497694,40.17844
202.39,-3.808595,-25.98409,10.3121,0.9536793,0.03879208,-0.3531624,-59.17975,-9.497694,40.17844
202.4,-1.44819,-26.16262,10.74122,0.9562067,0.007237408,-0.3390887,-58.04246,-9.47946,42.41313
202.41,0.974330699999999,-27.53132,11.35425,0.9415618,0.02566881,-0.3205149,-58.04246,-9.47946,42.41313
202.42,0.974330699999999,-29.67364,12.4577,0.9265406,0.07963342,-0.2982814,-58.04246,-9.47946,42.41313
202.43,-2.007233,-32.7086,13.92897,0.9118056,0.1204976,-0.2665786,-58.04246,-9.47946,42.41313
202.44,-6.665927,-36.81472,16.01328,0.9086654,0.1185954,-0.2473819,-58.04246,-9.47946,42.41313
202.45,-12.50482,-41.57543,19.26233,0.8997278,0.1500793,-0.2651983,-57.30106,-7.267624,43.21882
202.46,-20.2072,-46.15762,22.51139,0.9188606,0.1667282,-0.2825817,-57.30106,-7.267624,43.21882
202.47,-24.55531,-48.83552,25.33133,0.9343209,0.1098243,-0.3110758,-57.30106,-7.267624,43.21882
202.48,-24.18262,-51.81097,27.53824,0.937194,0.06442755,-0.3555863,-57.30106,-7.267624,43.21882
202.49,-21.88433,-53.65574,29.49994,0.9466092,0.03329776,-0.3741928,-57.30106,-7.267624,43.21882
202.5,-17.4741,-54.84592,31.64554,0.9588912,0.01340367,-0.3879533,-56.157,-7.98034,45.84513
202.51,-14.11984,-56.09561,34.40417,0.9305501,-0.02589666,-0.4199874,-56.157,-7.98034,45.84513
202.52,-10.70346,-58.53548,37.34672,0.9907876,0.01029598,-0.3836421,-56.157,-7.98034,45.84513
202.53,-7.53555000000002,-59.9636900000001,39.61493,0.9994949,0.04975719,-0.3920588,-56.157,-7.98034,45.84513
202.54,-4.305522,-61.4514199999998,40.84099,1.004375,0.09848466,-0.3859667,-56.157,-7.98034,45.84513
202.55,0.725867000000001,-62.82012,42.37356,1.00513,0.06230079,-0.4342028,-55.02419,-7.226701,48.00827
202.56,6.50264700000002,-64.0698100000001,44.51917,1.086816,0.1162386,-0.3879503,-55.02419,-7.226701,48.00827
202.57,15.75792,-63.8317699999999,47.03259,1.157704,0.1093957,-0.4335839,-55.02419,-7.226701,48.00827
202.58,16.81389,-66.0931199999997,50.83337,1.194792,0.1541278,-0.4011495,-55.02419,-7.226701,48.00827
202.59,15.38522,-67.8188700000002,53.59201,1.19573,0.1373073,-0.3471552,-55.02419,-7.226701,48.00827
202.6,14.82618,-71.03236,55.98283,1.156931,0.04895795,-0.3281799,-52.40561,-4.213848,50.58852
202.61,15.32311,-75.5550400000002,61.0096700000001,1.178345,0.01738235,-0.3642123,-52.40561,-4.213848,50.58852
202.62,12.1552,-78.8875400000002,67.2625699999999,1.255609,0.01087088,-0.3366165,-52.40561,-4.213848,50.58852
202.63,9.17363199999997,-82.27955,71.3085699999998,1.318152,0.002398485,-0.2781587,-52.40561,-4.213848,50.58852
202.64,8.61458900000001,-85.6120499999999,75.6610900000002,1.350025,0.01441928,-0.2622187,-52.40561,-4.213848,50.58852
202.65,9.98113800000001,-89.8966899999999,78.2971100000001,1.370738,-0.06501488,-0.2123891,-49.40251,-1.99049,54.0712
202.66,14.39137,-93.9433000000001,79.3392600000002,1.378993,-0.05603534,-0.1731367,-49.40251,-1.99049,54.0712
202.67,21.96951,-96.8592399999999,80.8718399999999,1.391755,-0.08102801,-0.1203383,-49.40251,-1.99049,54.0712
202.68,29.67188,-101.3819,83.0174500000002,1.371448,-0.1404351,-0.08317272,-49.40251,-1.99049,54.0712
202.69,37.00156,-104.2979,89.4542599999998,1.37969,-0.093648,-0.08337454,-49.40251,-1.99049,54.0712
202.7,49.92168,-106.0236,96.01368,1.371505,0.07212517,-0.1072564,-44.92019,1.301335,56.19056
202.71,56.94077,-102.5126,96.4428000000002,1.297357,0.2443887,-0.1910017,-44.92019,1.301335,56.19056
202.72,56.50596,-109.0586,98.9562199999998,1.294764,0.2735662,-0.3196232,-44.92019,1.301335,56.19056
202.73,43.58585,-111.2009,106.1287,1.196679,0.3382169,-0.4954626,-44.92019,1.301335,56.19056
202.74,28.11898,-107.5113,104.9026,1.152014,0.3393277,-0.6126997,-44.92019,1.301335,56.19056
202.75,5.570908,-103.5242,109.6842,1.17032,0.2197132,-0.6312213,-39.31505,6.071513,59.63332
202.76,4.080126,-96.0261099999999,106.19,1.098415,0.2416191,-0.7186635,-39.31505,6.071513,59.63332
202.77,-5.98265200000001,-94.3003499999997,108.3969,1.046842,0.188782,-0.6723712,-39.31505,6.071513,59.63332
202.78,-28.15803,-85.55254,111.6459,1.044901,0.2041743,-0.5859577,-39.31505,6.071513,59.63332
202.79,-45.73684,-75.9715999999998,112.872,0.9801712,0.2388453,-0.530593,-39.31505,6.071513,59.63332
202.8,-64.8064199999998,-69.9612000000002,113.3011,0.7901286,0.1305279,-0.6778297,-32.59437,10.07373,61.73354
202.81,-81.5156,-60.9158300000002,112.3203,0.8167648,0.01796155,-0.6532825,-32.59437,10.07373,61.73354
202.82,-84.37293,-37.29079,110.6038,0.912563,0.1071259,-0.3304357,-32.59437,10.07373,61.73354
202.83,-81.7019499999999,-12.89212,104.7187,0.8225963,0.2883147,-0.2030325,-32.59437,10.07373,61.73354
202.84,-92.6343500000001,5.139083,98.0366799999997,0.709554,0.4379769,-0.2528703,-32.59437,10.07373,61.73354
202.85,-115.4309,26.14574,93.8680699999998,0.6754785,0.5029259,-0.111431,-26.23456,11.12886,63.41777
202.86,-142.0786,47.15239,90.4964099999999,0.625356,0.4887494,-0.1400674,-26.23456,11.12886,63.41777
202.87,-158.912,66.4332800000001,88.2895100000001,0.5769283,0.3954228,-0.2575687,-26.23456,11.12886,63.41777
202.88,-170.0308,82.8577499999999,88.2895100000001,0.5501253,0.2605983,-0.3326005,-26.23456,11.12886,63.41777
202.89,-170.9625,99.8772999999998,90.3737999999999,0.5526233,0.1906833,-0.4261908,-26.23456,11.12886,63.41777
202.9,-168.2294,118.1465,91.7224699999998,0.5985079,0.1316337,-0.4498655,-24.7228,7.42388,62.99965
202.91,-158.912,137.3679,94.7263199999997,0.5933307,0.1402971,-0.4631362,-24.7228,7.42388,62.99965
202.92,-152.2656,154.209,94.7263199999997,0.5754037,0.191803,-0.440882,-24.7228,7.42388,62.99965
202.93,-147.4206,176.2273,93.0711400000003,0.5940188,0.2472799,-0.3544232,-24.7228,7.42388,62.99965
202.94,-144.9981,191.9376,91.9676800000001,0.6045507,0.3204083,-0.3429346,-24.7228,7.42388,62.99965
202.95,-147.0479,205.3867,89.6994700000001,0.6201584,0.38178,-0.364203,-29.9353,1.56989,61.35865
202.96,-153.3837,218.6572,86.6956299999999,0.6536068,0.3818566,-0.4226623,-29.9353,1.56989,61.35865
202.97,-159.5332,230.0829,84.3661099999998,0.6862915,0.3468334,-0.496262,-29.9353,1.56989,61.35865
202.98,-162.4527,239.1282,81.6074799999999,0.7291335,0.3237209,-0.5320492,-29.9353,1.56989,61.35865
202.99,-165.2479,248.5306,79.0327500000001,0.814354,0.3336449,-0.5523481,-29.9353,1.56989,61.35865
203,-168.54,257.457,75.6610900000002,0.8849117,0.3755304,-0.5793561,-39.6731,-3.194683,54.92848
203.01,-177.4847,265.9072,71.3698700000003,0.9534882,0.4058094,-0.5824739,-39.6731,-3.194683,54.92848
203.02,-189.1625,272.2747,67.44649,1.010519,0.4077226,-0.596209,-39.6731,-3.194683,54.92848
203.03,-201.8341,276.6188,65.9752100000001,1.084825,0.3926083,-0.6496284,-39.6731,-3.194683,54.92848
203.04,-212.2075,280.606,66.03651,1.155876,0.3397008,-0.652046,-39.6731,-3.194683,54.92848
203.05,-219.3508,282.8673,67.2625699999999,1.174664,0.2920757,-0.6795508,-52.4418,-8.066267,42.75315
203.06,-223.202,282.5102,65.79131,1.206054,0.2902885,-0.7111613,-52.4418,-8.066267,42.75315
203.07,-225.5624,283.2838,61.9292199999998,1.26183,0.3505664,-0.7296571,-52.4418,-8.066267,42.75315
203.08,-232.8921,283.4029,58.31234,1.314493,0.4302964,-0.7441108,-52.4418,-8.066267,42.75315
203.09,-244.9426,282.9863,54.87937,1.337615,0.4882306,-0.7913921,-52.4418,-8.066267,42.75315
203.1,-263.5774,278.9397,51.4464,1.392061,0.5396116,-0.8434881,-64.17873,-13.68471,26.29034
203.11,-289.5418,268.0496,51.07859,1.329416,0.652265,-0.8895644,-64.17873,-13.68471,26.29034
203.12,-309.2947,253.8864,45.74523,1.211352,0.7629238,-0.947327,-64.17873,-13.68471,26.29034
203.13,-326.9977,233.5939,36.48848,1.163613,0.8362266,-1.011199,-64.17873,-13.68471,26.29034
203.14,-340.7253,211.5161,24.47309,1.164882,0.7984542,-1.094917,-64.17873,-13.68471,26.29034
203.15,-339.2967,191.164,7.73737000000002,1.169045,0.558758,-1.1799,-71.80379,-13.88972,5.396457
203.16,-307.0585,171.407,-6.36231899999999,1.151249,0.05103346,-1.317149,-71.80379,-13.88972,5.396457
203.17,-230.0969,160.5169,-5.258866,1.031322,-0.3565849,-1.249875,-71.80379,-13.88972,5.396457
203.18,-142.8861,141.4146,-9.91789399999997,0.9444307,-0.5343423,-1.212759,-71.80379,-13.88972,5.396457
203.19,-44.37029,123.6214,-19.05204,0.8037788,-0.205016,-1.299502,-71.80379,-13.88972,5.396457
203.2,13.89444,96.9613600000001,-28.00228,0.5537839,0.3284096,-1.33217,-73.78922,-12.2341,-9.463941
203.21,33.15038,64.3504700000003,-32.72261,0.5372725,0.5347643,-1.285148,-73.78922,-12.2341,-9.463941
203.22,28.49168,29.35922,-32.78391,0.5389528,0.6504124,-1.20369,-73.78922,-12.2341,-9.463941
203.23,-2.379929,-3.727748,-31.25134,0.6375719,0.7735585,-1.038733,-73.78922,-12.2341,-9.463941
203.24,-36.73003,-34.61288,-25.18234,0.6141486,0.7454553,-0.9514219,-73.78922,-12.2341,-9.463941
203.25,-62.1354400000003,-69.42561,-19.60377,0.9069842,0.1551465,-0.8767174,-72.34248,-11.6006,-15.62454
203.26,-54.12248,-87.5163300000001,-13.22826,0.6747363,-0.2741068,-0.9929963,-72.34248,-11.6006,-15.62454
203.27,-29.15189,-88.05191,-11.51177,1.059479,-0.5341561,0.1206522,-72.34248,-11.6006,-15.62454
203.28,-1.883001,-64.8434300000002,-11.02135,1.580651,-0.5357087,0.8109255,-72.34248,-11.6006,-15.62454
203.29,13.70809,-46.93123,-22.17849,1.450787,-0.15618,0.5907556,-72.34248,-11.6006,-15.62454
203.3,10.10537,-55.32199,-28.67661,1.212384,-0.1945715,0.2593482,-73.43356,-13.01748,-12.531
203.31,-13.12598,-77.6973599999999,-19.17465,1.086276,-0.3620849,-0.3819161,-73.43356,-13.01748,-12.531
203.32,-24.80377,-97.8113799999999,-9.05965199999998,1.109727,-0.407208,-0.5316622,-73.43356,-13.01748,-12.531
203.33,-16.97717,-106.2021,-12.1248,1.180204,-0.1488956,-0.5894283,-73.43356,-13.01748,-12.531
203.34,-26.29456,-111.4984,-16.59992,1.15523,0.2100234,-0.4547426,-73.43356,-13.01748,-12.531
203.35,-48.15936,-111.0224,-21.99458,1.13526,0.3381388,-0.3714336,-74.1529,-14.07052,-9.443156
203.36,-75.1797799999999,-104.6549,-26.59231,1.099679,0.2163962,-0.1817118,-74.1529,-14.07052,-9.443156
203.37,-97.8520900000001,-94.8954400000001,-29.35094,0.9607418,0.06527797,-0.3142244,-74.1529,-14.07052,-9.443156
203.38,-91.4541499999999,-87.6353499999999,-30.94482,0.8122499,-0.1618071,-0.5684794,-74.1529,-14.07052,-9.443156
203.39,-59.4023400000001,-80.13722,-29.04443,0.8256087,-0.2964804,-0.5683687,-74.1529,-14.07052,-9.443156
203.4,-24.55531,-68.4734699999999,-28.67661,0.910129,-0.2219047,-0.4755001,-75.21992,-14.69676,-2.452315
203.41,-3.001088,-55.85757,-28.79922,0.9948215,-0.1459503,-0.4046654,-75.21992,-14.69676,-2.452315
203.42,9.54632799999999,-46.63369,-28.554,0.9855158,-0.1366243,-0.3613262,-75.21992,-14.69676,-2.452315
203.43,12.59001,-41.81347,-33.27434,1.068756,-0.1908474,-0.2244815,-75.21992,-14.69676,-2.452315
203.44,4.763402,-37.40981,-35.05212,1.179372,-0.1817693,-0.1411631,-75.21992,-14.69676,-2.452315
203.45,-12.50482,-36.6957,-30.88352,1.12691,0.006000937,-0.1637491,-75.55434,-16.10445,1.917637
203.46,-46.7928,-40.50427,-26.53101,1.025859,0.1137685,-0.124501,-75.55434,-16.10445,1.917637
203.47,-71.7012900000003,-42.28954,-21.25895,0.9418703,0.1076962,-0.118084,-75.55434,-16.10445,1.917637
203.48,-84.1865800000001,-45.08646,-17.45816,0.916842,0.1458872,-0.1260306,-75.55434,-16.10445,1.917637
203.49,-87.5408500000001,-46.99074,-14.27041,0.8785295,0.1834513,-0.1400227,-75.55434,-16.10445,1.917637
203.5,-82.4473399999999,-42.7061,-13.71868,0.9519935,0.1332149,-0.2143321,-75.89514,-18.64064,4.570529
203.51,-64.5579499999998,-38.30244,-12.86044,0.9973484,0.07694377,-0.2743949,-75.89514,-18.64064,4.570529
203.52,-44.86721,-35.32699,-12.0022,1.027035,0.07876389,-0.2484467,-75.89514,-18.64064,4.570529
203.53,-27.03995,-33.60123,-11.94089,1.028833,0.04700126,-0.2880347,-75.89514,-18.64064,4.570529
203.54,-15.73485,-31.99449,-11.02135,1.046172,0.02586814,-0.2549163,-75.89514,-18.64064,4.570529
203.55,-14.43042,-30.86382,-8.26271299999999,1.025027,0.04908523,-0.2424389,-74.75505,-19.73308,6.368433
203.56,-17.41198,-32.76811,-6.11710700000001,1.044197,0.08296812,-0.206007,-74.75505,-19.73308,6.368433
203.57,-26.17032,-32.054,-2.255019,1.008066,0.1092492,-0.2493566,-74.75505,-19.73308,6.368433
203.58,-35.79829,-31.69695,0.687524700000002,1.004542,0.0983144,-0.3021106,-74.75505,-19.73308,6.368433
203.59,-40.70544,-29.91168,2.894433,0.9936007,0.07278022,-0.3376309,-74.75505,-19.73308,6.368433
203.6,-41.07814,-28.18592,3.200948,0.9956027,0.02558761,-0.3399746,-74.7366,-20.81347,8.108118
203.61,-35.73617,-23.84177,2.404009,1.010746,-0.07263581,-0.3563537,-74.7366,-20.81347,8.108118
203.62,-18.84065,-17.11726,-2.377625,0.9585356,-0.09551983,-0.3663451,-74.7366,-20.81347,8.108118
203.63,-4.740334,-13.84427,-3.174564,0.9543309,-0.06816164,-0.3277183,-74.7366,-20.81347,8.108118
203.64,11.03711,-9.55962399999998,-6.73013700000002,0.9473368,-0.01846466,-0.2946137,-74.35443,-21.17346,9.00615
203.65,15.6958,-9.20257099999999,-7.343168,0.9289929,0.01596956,-0.2820816,-74.35443,-21.17346,9.00615
203.66,12.83847,-10.15471,-5.99450199999999,0.9338002,0.08567003,-0.2628732,-74.35443,-21.17346,9.00615
203.67,4.763402,-11.22587,-4.400624,0.9211307,0.1161946,-0.2681854,-74.35443,-21.17346,9.00615
203.68,-3.746479,-13.01114,-2.07111,0.9124356,0.1146834,-0.2613654,-74.35443,-21.17346,9.00615
203.69,-10.57923,-14.91543,-0.2933232,0.9045265,0.128261,-0.2553877,-74.35443,-21.17346,9.00615
203.7,-15.9212,-15.57003,0.748827699999998,0.9188889,0.1385544,-0.2694023,-74.34522,-21.15564,10.28643
203.71,-19.8345,-16.22462,1.852282,0.9229241,0.1029832,-0.2918032,-74.34522,-21.15564,10.28643
203.72,-20.64201,-16.7602,3.630069,0.9457928,0.06813456,-0.2957776,-74.34522,-21.15564,10.28643
203.73,-19.33757,-16.93873,4.181796,0.9565318,0.06724682,-0.2983342,-74.34522,-21.15564,10.28643
203.74,-18.40584,-16.52217,3.875281,0.9687112,0.06148206,-0.307182,-74.34522,-21.15564,10.28643
203.75,-18.21949,-15.33199,4.427008,0.9770746,0.033252,-0.3286242,-74.7085,-21.87515,11.19209
203.76,-19.15123,-14.85592,5.530462,0.9799976,0.0002103307,-0.3227151,-74.7085,-21.87515,11.19209
203.77,-19.39969,-13.60623,6.02088599999998,0.985513,-0.0006801982,-0.3136965,-74.7085,-21.87515,11.19209
203.78,-18.59218,-13.18967,6.08218899999998,0.9833419,0.01242349,-0.3178677,-74.7085,-21.87515,11.19209
203.79,-19.15123,-12.11851,5.591765,0.9865956,0.02070503,-0.3231154,-74.7085,-21.87515,11.19209
203.8,-20.26931,-11.28538,5.714371,0.9805154,0.02303428,-0.3364267,-74.70728,-21.50076,11.63642
203.81,-20.89047,-9.857169,5.95958299999999,0.9725145,0.002056801,-0.3316977,-74.70728,-21.50076,11.63642
203.82,-19.77239,-9.44060600000001,6.69521899999999,0.9688665,-0.003760874,-0.3173188,-74.70728,-21.50076,11.63642
203.83,-17.90891,-9.38109699999997,6.94043100000002,0.9700047,0.01191665,-0.2918051,-74.70728,-21.50076,11.63642
203.84,-16.54236,-10.57128,7.43085499999999,0.9423056,0.0312514,-0.2610576,-74.70377,-21.12193,12.40081
203.85,-16.85294,-14.14181,8.411702,0.9074001,0.07581126,-0.2343073,-74.70377,-21.12193,12.40081
203.86,-20.2072,-18.60498,9.88297500000002,0.8849543,0.09759842,-0.210802,-74.70377,-21.12193,12.40081
203.87,-24.18262,-23.00864,11.41555,0.8900167,0.05632626,-0.1987633,-74.70377,-21.12193,12.40081
203.88,-26.4809,-29.43561,15.03243,0.9028769,0.04817935,-0.1956609,-74.70377,-21.12193,12.40081
203.89,-28.09592,-35.68404,18.83321,0.9291874,0.1068352,-0.1878737,-74.32159,-21.48191,13.29885
203.9,-29.52458,-40.62329,21.59185,0.9515087,0.1317472,-0.2152959,-74.32159,-21.48191,13.29885
203.91,-30.08363,-45.50302,23.67615,0.9576539,0.1112369,-0.2491006,-74.32159,-21.48191,13.29885
203.92,-27.66111,-49.49012,26.06697,0.975919,0.08508005,-0.260124,-74.32159,-21.48191,13.29885
203.93,-23.49934,-52.28704,28.27387,0.9548365,0.06339824,-0.2825289,-74.32159,-21.48191,13.29885
203.94,-19.15123,-55.44101,31.09381,0.9541792,0.08078695,-0.3154376,-74.32159,-21.48191,13.29885
203.95,-16.97717,-56.27414,34.22026,0.9943866,0.08347499,-0.3423439,-74.30996,-20.71533,15.46777
203.96,-15.36215,-57.10726,37.89844,1.007167,0.06993487,-0.3498283,-74.30996,-20.71533,15.46777
203.97,-13.74714,-58.7735099999999,41.27011,1.004689,-0.006965367,-0.348046,-74.30996,-20.71533,15.46777
203.98,-13.49868,-60.5587799999999,46.90998,0.9878548,-0.009611453,-0.3650796,-74.30996,-20.71533,15.46777
203.99,-14.61676,-62.34405,49.11689,1.038456,0.1444172,-0.2859122,-74.30996,-20.71533,15.46777
204,-11.44885,-64.8434300000002,50.34295,1.042113,0.1240909,-0.3944349,-74.29791,-18.83183,18.52158
204.01,-7.78401299999998,-64.0103000000002,51.13989,1.088501,0.1270547,-0.3624855,-74.29791,-18.83183,18.52158
204.02,1.222794,-64.2483399999998,51.93683,1.073083,0.07314324,-0.428371,-74.29791,-18.83183,18.52158
204.03,7.99342900000001,-65.3195000000002,54.69547,1.104595,0.02834401,-0.3812783,-74.29791,-18.83183,18.52158
204.04,14.5156,-66.0336099999998,59.1705800000002,1.165503,0.08496298,-0.3495621,-73.53322,-16.20284,22.84426
204.05,15.38522,-69.1875800000001,62.0518200000001,1.189024,0.1149641,-0.320413,-73.53322,-16.20284,22.84426
204.06,14.57772,-72.3415499999998,63.89091,1.176972,0.0640481,-0.2444782,-73.53322,-16.20284,22.84426
204.07,17.2487,-78.11392,67.6917000000003,1.152307,0.02436188,-0.2583584,-73.53322,-16.20284,22.84426
204.08,15.38522,-83.2911999999999,74.0059100000002,1.238582,0.02970418,-0.2053934,-73.53322,-16.20284,22.84426
204.09,12.71424,-87.8733799999997,81.3622700000002,1.298268,0.02437552,-0.2101227,-72.40157,-12.84722,26.77339
204.1,10.6023,-91.6819500000003,86.9408299999999,1.324372,0.05053157,-0.174334,-72.40157,-12.84722,26.77339
204.11,10.47807,-96.9782499999999,90.3125000000001,1.381947,0.09068198,-0.1144366,-72.40157,-12.84722,26.77339
204.12,15.26099,-99.4181199999997,92.0902900000001,1.36435,0.06221265,-0.1383861,-72.40157,-12.84722,26.77339
204.13,19.6091,-104.2383,93.6841700000002,1.363573,0.04859098,-0.1356148,-72.40157,-12.84722,26.77339
204.14,23.14971,-108.2254,96.01368,1.371278,0.04401383,-0.07682168,-71.26278,-7.989613,32.79989
204.15,32.28075,-110.0702,100.8566,1.327779,0.1091442,-0.1240512,-71.26278,-7.989613,32.79989
204.16,45.20087,-110.0702,107.2321,1.237373,0.1933511,-0.2936054,-71.26278,-7.989613,32.79989
204.17,52.77901,-114.8309,111.0329,1.227424,0.2999513,-0.3912791,-71.26278,-7.989613,32.79989
204.18,40.85275,-113.5217,108.5195,1.293268,0.3679383,-0.4539396,-71.26278,-7.989613,32.79989
204.19,17.86986,-115.9021,116.3663,1.250213,0.3213916,-0.5668099,-67.89594,-1.635535,37.96691
204.2,0.912214800000002,-113.3432,121.5157,1.219454,0.3214887,-0.5979979,-67.89594,-1.635535,37.96691
204.21,-13.74714,-111.1414,119.7379,1.133527,0.3006223,-0.6391189,-67.89594,-1.635535,37.96691
204.22,-25.73551,-102.6316,115.0176,1.092535,0.2706402,-0.6220157,-67.89594,-1.635535,37.96691
204.23,-49.15321,-92.0985200000001,112.1977,1.070537,0.1681097,-0.5315195,-67.89594,-1.635535,37.96691
204.24,-67.9122199999998,-82.0415099999998,112.8107,0.9285057,0.1114181,-0.5208688,-64.46529,5.03085,43.57856
204.25,-80.5838600000001,-74.3053500000001,112.6881,0.728624,0.08710851,-0.5623116,-64.46529,5.03085,43.57856
204.26,-89.6527900000002,-68.5924900000003,105.393,0.6781102,-0.1196761,-0.8249797,-64.46529,5.03085,43.57856
204.27,-98.2868999999997,-50.50177,102.8183,0.8436797,-0.2051652,-0.5261653,-64.46529,5.03085,43.57856
204.28,-95.1810999999997,-25.389,94.97153,0.8635697,0.005172762,-0.2817195,-64.46529,5.03085,43.57856
204.29,-89.9633600000002,-4.382346,85.2856600000002,0.7479416,0.2014253,-0.2290577,-59.22467,9.823162,48.30353
204.3,-103.1941,15.85069,78.6649299999998,0.6479515,0.334748,-0.1253964,-59.22467,9.823162,48.30353
204.31,-125.68,38.22605,73.0250500000003,0.5922958,0.4262905,-0.108017,-59.22467,9.823162,48.30353
204.32,-143.88,57.3284200000001,66.03651,0.4830399,0.4108478,-0.2048261,-59.22467,9.823162,48.30353
204.33,-160.0922,71.07498,60.3353400000003,0.4282393,0.3033025,-0.3357741,-59.22467,9.823162,48.30353
204.34,-170.9004,85.11909,56.10543,0.4777088,0.194883,-0.4270044,-57.35561,10.9185,49.17876
204.35,-168.54,104.8165,50.22034,0.5653603,0.1175671,-0.4892853,-57.35561,10.9185,49.17876
204.36,-158.9742,121.1815,45.37741,0.5960634,0.09743663,-0.4798296,-57.35561,10.9185,49.17876
204.37,-146.551,137.1299,39.79884,0.5975001,0.09074084,-0.452113,-57.35561,10.9185,49.17876
204.38,-133.8793,151.9476,33.54593,0.5914326,0.1233438,-0.4378546,-57.35561,10.9185,49.17876
204.39,-123.8787,165.0991,26.37348,0.6108347,0.1635045,-0.4147906,-59.99221,9.420883,45.23851
204.4,-114.934,178.0721,17.97497,0.6080098,0.1788628,-0.4649367,-59.99221,9.420883,45.23851
204.41,-106.7968,190.5094,8.350399,0.6272991,0.1306224,-0.5279146,-59.99221,9.420883,45.23851
204.42,-98.9080599999998,199.9713,-0.3546263,0.6668618,0.07773904,-0.5792408,-59.99221,9.420883,45.23851
204.43,-89.2179700000003,206.9934,-9.30486400000002,0.7122626,0.08188588,-0.618668,-59.99221,9.420883,45.23851
