Time (s),Gyroscope X (deg/s),Gyroscope Y (deg/s),Gyroscope Z (deg/s),Accelerometer X (g),Accelerometer Y (g),Accelerometer Z (g),Magnetometer X (uT),Magnetometer Y (uT),Magnetometer Z (uT)
106.56671381,-0.2211769,0.832268099999999,-0.4156626,0.6348343,0.751415,0.06854916,-20.08633,-59.59977,-0.04172707
106.576573372,-0.3454087,0.891777000000002,-0.4769656,0.6313753,0.7538158,0.06813952,-20.08633,-59.59977,-0.04172707
106.58643198,-0.593872299999999,0.891777000000002,-0.783480600000001,0.629416,0.7518449,0.06623402,-20.08633,-59.59977,-0.04172707
106.596291065,-0.5317564,0.5942323,-0.967389599999998,0.6294088,0.7557487,0.06914227,-18.96313,-59.98087,-0.04375172
106.606149673,-0.718104200000002,0.4157055,-1.089996,0.631782,0.7596554,0.06722461,-18.96313,-59.98087,-0.04375172
106.616009235,-0.5317564,0.4157055,-1.028693,0.6313723,0.7562562,0.07007696,-18.96313,-59.98087,-0.04375172
106.625867844,-0.5317564,0.4752145,-0.967389599999998,0.6283741,0.7527946,0.06242328,-18.96313,-59.98087,-0.04375172
106.635726929,-0.2832928,0.4752145,-1.028693,0.630444,0.746009,0.06473251,-18.96313,-59.98087,-0.04375172
106.645585537,0.3999823,0.1181609,-0.660874599999999,0.6249108,0.756659,0.06298447,-19.7126,-59.60409,-0.04365921
106.655444622,0.2136345,-0.3579106,-0.4156626,0.6259005,0.7556944,0.06296222,-19.7126,-59.60409,-0.04365921
106.66530323,0.02728678,-0.714964199999998,-0.04784461,0.6230441,0.7556909,0.06875328,-19.7126,-59.60409,-0.04365921
106.675162792,-0.966567799999997,-1.429071,0.5038823,0.624497,0.7591173,0.07067829,-19.7126,-59.60409,-0.04365921
106.6850214,-1.836191,-1.905143,0.626488399999998,0.6215906,0.75617,0.07021564,-19.7126,-59.60409,-0.04365921
106.694880485,-2.208886,-2.202688,0.871700299999998,0.6191429,0.7546833,0.06880037,-20.08633,-59.59977,-0.04172707
106.704739094,-2.208886,-2.678759,0.933003400000002,0.6227263,0.744018,0.0710553,-20.08633,-59.59977,-0.04172707
106.714598656,-1.525611,-2.440723,1.178215,0.6276244,0.7401572,0.06807771,-20.08633,-59.59977,-0.04172707
106.724457741,-0.9044519,-1.964652,1.116912,0.6302625,0.7552335,0.05954176,-20.08633,-59.59977,-0.04172707
106.734316349,-0.4075246,-1.369562,0.933003400000002,0.6352974,0.7558059,0.07049642,-20.08633,-59.59977,-0.04172707
106.746640205,-0.718104200000002,-0.655455300000001,0.687791300000002,0.6309621,0.7523685,0.072446,-20.08432,-59.96792,-0.03795719
106.756498814,-0.4696405,0.0586519300000001,0.3199734,0.6338771,0.7523888,0.07096702,-20.08432,-59.96792,-0.03795719
106.766357899,-0.3454087,0.5347234,0.0747613899999998,0.6348567,0.7533742,0.07191978,-20.08432,-59.96792,-0.03795719
106.776216507,-0.2211769,1.129813,-0.599571599999998,0.6349146,0.7529025,0.07574856,-20.08432,-59.96792,-0.03795719
106.786076069,0.1515186,1.248831,-0.7221776,0.6274907,0.7552541,0.07156142,-19.7126,-59.60409,-0.04365921
106.795934677,0.5242141,1.189322,-0.7221776,0.6343077,0.7611645,0.07438934,-19.7126,-59.60409,-0.04365921
106.805793762,-0.03482913,1.070304,-0.783480600000001,0.6289076,0.7694113,0.08028629,-19.7126,-59.60409,-0.04365921
106.81565237,-0.4075246,0.713250200000002,-0.660874599999999,0.6352917,0.7650805,0.07824196,-19.7126,-59.60409,-0.04365921
106.825511932,-1.0908,0.3561966,-0.4769656,0.6327769,0.7665039,0.07445621,-19.7126,-59.60409,-0.04365921
106.835371017,-1.339263,0.0586519300000001,-0.1091476,0.6303234,0.7611096,0.06917448,-19.7126,-59.60409,-0.04365921
106.845229626,-1.401379,-0.3579106,0.0747613899999998,0.6313493,0.7582024,0.07009371,-20.08633,-59.59977,-0.04172707
106.855088711,-1.339263,-0.8339821,0.0747613899999998,0.629484,0.7538171,0.07295848,-20.08633,-59.59977,-0.04172707
106.864947319,-1.711959,-0.893491000000003,0.3199734,0.6286113,0.7460271,0.07386357,-20.08633,-59.59977,-0.04172707
106.874806881,-1.587727,-1.191036,0.0747613899999998,0.6276584,0.7455374,0.07531063,-20.08633,-59.59977,-0.04172707
106.884665489,-1.401379,-1.012509,0.01345839,0.6256406,0.7435498,0.06909302,-20.08633,-59.59977,-0.04172707
106.894524574,-1.774075,-1.072018,0.1973674,0.6262143,0.7435782,0.07531467,-20.08633,-59.59977,-0.04172707
106.904383183,-1.587727,-1.131527,0.4425794,0.6237392,0.7455011,0.07488698,-20.08633,-59.59977,-0.04172707
106.914242744,-1.711959,-1.131527,0.810397299999998,0.6251529,0.7445223,0.07006657,-20.08633,-59.59977,-0.04172707
106.926566601,-1.401379,-1.072018,0.9943063,0.6275572,0.7518556,0.07344859,-20.08633,-59.59977,-0.04172707
106.936425209,-1.463495,-1.131527,1.055609,0.6289928,0.7567417,0.07538617,-20.09035,-58.86348,-0.04926872
106.946284294,-1.711959,-1.250545,1.116912,0.6279083,0.7596321,0.07015482,-20.09035,-58.86348,-0.04926872
106.956142902,-2.14677,-1.667107,0.933003400000002,0.6231122,0.7576631,0.07547776,-20.09035,-58.86348,-0.04926872
106.966001987,-2.333118,-1.607598,0.810397299999998,0.6231743,0.755728,0.07833573,-20.09035,-58.86348,-0.04926872
106.975860596,-2.767929,-1.964652,1.055609,0.6284726,0.7577049,0.0739641,-20.09035,-58.86348,-0.04926872
106.985720158,-3.140625,-1.905143,1.055609,0.6300548,0.7518919,0.07724689,-20.46528,-59.23354,-0.4916639
106.995578766,-2.954277,-1.845634,1.239518,0.6339393,0.7504537,0.07382499,-20.46528,-59.23354,-0.4916639
107.005437851,-2.954277,-1.845634,0.9943063,0.6328664,0.7567649,0.07245596,-20.46528,-59.23354,-0.4916639
107.015296459,-3.078509,-2.024161,0.871700299999998,0.6260105,0.7552375,0.07062398,-20.46528,-59.23354,-0.4916639
107.025156021,-2.892161,-1.607598,0.687791300000002,0.6373073,0.7568148,0.07526828,-20.46528,-59.23354,-0.4916639
107.035014629,-2.954277,-1.429071,0.2586704,0.6347469,0.7582251,0.06812868,-20.08834,-59.23162,-0.04549789
107.044873714,-2.45735,-0.8339821,-0.1091476,0.6332984,0.7577294,0.06910355,-20.08834,-59.23162,-0.04549789
107.0547328,-1.898306,-0.8339821,-0.04784461,0.6329488,0.7509297,0.07336393,-20.08834,-59.23162,-0.04549789
107.064591408,-1.463495,-0.5364374,-0.1704506,0.6320285,0.7460554,0.07333592,-20.08834,-59.23162,-0.04549789
107.07445097,-1.028684,-0.1793838,-0.04784461,0.6275088,0.7498888,0.06816149,-20.08834,-59.23162,-0.04549789
107.084309578,-0.9044519,-0.000857003000000002,-0.1704506,0.6294312,0.7533139,0.06864219,-20.08834,-59.23162,-0.04549789
107.096633434,-0.4075246,0.2371787,-0.04784461,0.6285578,0.7494293,0.07293465,-19.71184,-59.23059,0.3366528
107.106492043,-0.2832928,0.2371787,-0.04784461,0.6233044,0.7425829,0.07630614,-19.71184,-59.23059,0.3366528
107.116351128,-0.2211769,0.2371787,-0.2317536,0.626673,0.7450385,0.07436205,-19.71184,-59.23059,0.3366528
107.126209736,-0.2832928,0.1776698,-0.2317536,0.6271961,0.746029,0.07771736,-19.71184,-59.23059,0.3366528
107.136069298,-0.2211769,0.1181609,-0.2317536,0.6310033,0.7450568,0.06902931,-19.71782,-59.24218,-0.4955273
107.145928383,-0.2832928,0.1181609,-0.2317536,0.6236951,0.7420709,0.06862906,-19.71782,-59.24218,-0.4955273
107.155786991,-0.718104200000002,-0.1198749,-0.04784461,0.625124,0.7469552,0.07008751,-19.71782,-59.24218,-0.4955273
107.165646076,-0.718104200000002,-0.1198749,0.0747613899999998,0.6202273,0.7430047,0.06629038,-19.71782,-59.24218,-0.4955273
107.175504684,-0.9044519,-0.4174196,0.3199734,0.6217849,0.7381611,0.06862329,-19.71782,-59.24218,-0.4955273
107.185364246,-0.4696405,-0.2984017,0.626488399999998,0.6232789,0.7342758,0.06713162,-19.71782,-59.24218,-0.4955273
107.195222855,-0.159061,-0.4174196,0.749094399999999,0.6274877,0.7401183,0.05801614,-19.71782,-59.24218,-0.4955273
107.20508194,0.0894026999999998,-0.3579106,0.933003400000002,0.6237703,0.7401395,0.07244529,-19.71782,-59.24218,-0.4955273
107.214940548,0.2757505,-0.4769285,0.933003400000002,0.6260386,0.7479221,0.06624905,-19.71782,-59.24218,-0.4955273
107.22480011,0.7105619,-0.5364374,0.9943063,0.6357596,0.7465262,0.06034832,-19.71782,-59.24218,-0.4955273
107.234658718,1.083257,-0.655455300000001,1.300821,0.635415,0.7387515,0.06412122,-20.46729,-58.8654,-0.4954338
107.244517803,1.455953,-0.5364374,1.178215,0.6315299,0.7397014,0.06705981,-20.46729,-58.8654,-0.4954338
107.254376411,1.95288,-0.595946399999998,1.116912,0.6343762,0.746049,0.06611441,-20.46729,-58.8654,-0.4954338
107.264235497,1.890764,-0.1793838,0.871700299999998,0.6333496,0.7484677,0.06471185,-20.46729,-58.8654,-0.4954338
107.276559353,2.077112,-0.2388927,0.3812764,0.6267258,0.7411477,0.07480767,-20.46729,-58.8654,-0.4954338
107.286417961,1.95288,-0.000857003000000002,0.3812764,0.6251754,0.7464817,0.07343718,-20.09035,-58.86348,-0.04926872
107.296277523,1.890764,0.2371787,0.5038823,0.6252499,0.7440618,0.0767701,-20.09035,-58.86348,-0.04926872
107.306136131,2.014996,0.1776698,0.5651854,0.6198879,0.7430431,0.07731712,-20.09035,-58.86348,-0.04926872
107.315995216,2.26346,0.2371787,0.810397299999998,0.6197217,0.7493426,0.07066386,-20.09035,-58.86348,-0.04926872
107.325853825,2.26346,0.2371787,0.933003400000002,0.6260857,0.753306,0.0744402,-20.09035,-58.86348,-0.04926872
107.335713387,2.325576,0.1776698,1.362124,0.6290181,0.7562607,0.07681935,-19.71184,-59.23059,0.3366528
107.345571995,2.201344,0.2371787,1.178215,0.6361795,0.7611576,0.06813301,-19.71184,-59.23059,0.3366528
107.35543108,2.139228,-0.1198749,1.116912,0.6352975,0.7602,0.07436709,-19.71184,-59.23059,0.3366528
107.365289688,1.642301,-0.2984017,1.239518,0.636314,0.7597313,0.07674465,-19.71184,-59.23059,0.3366528
107.375148773,1.269605,-0.2984017,0.933003400000002,0.6339516,0.7543629,0.07817061,-19.71184,-59.23059,0.3366528
107.385008335,0.959025599999998,-0.2388927,0.3812764,0.6320626,0.7514356,0.08056883,-20.09356,-58.86972,-0.497366
107.394866943,0.959025599999998,0.2966877,0.3199734,0.6311104,0.7470403,0.07862851,-20.09356,-58.86972,-0.497366
107.404726029,0.834793700000001,0.5942323,0.1360644,0.6273372,0.7402105,0.08293743,-20.09356,-58.86972,-0.497366
107.414584637,1.083257,1.010795,-0.04784461,0.6214276,0.7435649,0.08304998,-20.09356,-58.86972,-0.497366
107.424444199,1.083257,1.248831,-0.1091476,0.6208076,0.7518231,0.08073251,-20.09356,-58.86972,-0.497366
107.434302807,0.5863301,1.486866,-0.04784461,0.6178167,0.7532459,0.07791195,-20.46206,-59.22731,-0.0435667
107.446626663,0.2757505,1.724902,0.1360644,0.6183622,0.7518016,0.08076718,-20.46206,-59.22731,-0.0435667
107.456485748,0.0894026999999998,2.022447,-0.04784461,0.6249341,0.7635008,0.07070906,-20.46206,-59.22731,-0.0435667
107.466344357,0.02728678,2.319991,-0.04784461,0.6307973,0.7596449,0.06675936,-20.46206,-59.22731,-0.0435667
107.476203442,0.1515186,2.498518,-0.3543596,0.6277398,0.7644663,0.06205163,-20.46206,-59.22731,-0.0435667
107.48606205,0.7105619,2.677045,-0.2930566,0.6365977,0.7616298,0.06333904,-21.20751,-59.58682,-0.03593254
107.495921612,1.331721,2.736554,-0.4156626,0.6396052,0.7538648,0.06179305,-21.20751,-59.58682,-0.03593254
107.50578022,2.014996,2.3795,-0.599571599999998,0.6385417,0.7577378,0.05896569,-21.20751,-59.58682,-0.03593254
107.515639305,2.325576,2.200974,-0.906086600000003,0.6406355,0.7582824,0.06948283,-21.20751,-59.58682,-0.03593254
107.525497913,2.201344,1.605884,-0.967389599999998,0.6469966,0.7602922,0.07132594,-21.20751,-59.58682,-0.03593254
107.535357475,1.580185,1.546375,-1.212602,0.6431634,0.7568628,0.07422682,-20.08633,-59.59977,-0.04172707
107.545216084,0.834793700000001,1.189322,-1.151299,0.640809,0.7524732,0.07709853,-20.08633,-59.59977,-0.04172707
107.555075169,0.5863301,0.713250200000002,-1.396511,0.6354065,0.7504665,0.07380419,-20.08633,-59.59977,-0.04172707
107.564933777,0.648446000000003,0.4157055,-1.335208,0.6365337,0.7456353,0.08045615,-20.08633,-59.59977,-0.04172707
107.574792862,1.269605,-0.000857003000000002,-1.151299,0.6360236,0.7490427,0.08192977,-20.08633,-59.59977,-0.04172707
107.584652424,0.959025599999998,-0.1198749,-0.906086600000003,0.6344596,0.7582784,0.0829884,-20.45608,-59.21572,0.7886124
107.594511032,0.5242141,0.2371787,-0.660874599999999,0.6306626,0.7573005,0.09070147,-20.45608,-59.21572,0.7886124
107.604370117,-0.3454087,0.2371787,-0.1704506,0.6295903,0.7553122,0.08207437,-20.45608,-59.21572,0.7886124
107.614228725,-1.277147,0.2371787,0.1360644,0.6272461,0.7489727,0.08397108,-20.45608,-59.21572,0.7886124
107.626552582,-1.587727,0.3561966,0.2586704,0.6283175,0.7416844,0.0843735,-20.45608,-59.21572,0.7886124
107.63641119,-1.525611,0.3561966,0.4425794,0.6291453,0.7455559,0.07672719,-20.09155,-59.23786,-0.4935951
107.646270752,-1.587727,0.2966877,0.3199734,0.6295469,0.7479764,0.0724291,-20.09155,-59.23786,-0.4935951
107.65612936,-1.649843,0.2371787,0.3812764,0.6333562,0.7528636,0.06906166,-20.09155,-59.23786,-0.4935951
107.665988445,-1.587727,0.2371787,0.2586704,0.629822,0.7571959,0.06483579,-20.09155,-59.23786,-0.4935951
107.67584753,-1.711959,0.1181609,-0.04784461,0.6327253,0.7537953,0.05949452,-20.09155,-59.23786,-0.4935951
107.685706139,-1.711959,-0.1198749,-0.04784461,0.6267775,0.757627,0.05721562,-20.46528,-59.23354,-0.4916639
107.6955657,-1.463495,-0.2388927,0.0747613899999998,0.6317255,0.7567099,0.06049177,-20.46528,-59.23354,-0.4916639
107.705424309,-1.152915,-0.1198749,-0.3543596,0.6219372,0.7522279,0.05628065,-20.46528,-59.23354,-0.4916639
107.715283394,-0.655988299999999,0.0586519300000001,-0.599571599999998,0.6274212,0.7479109,0.05999966,-20.46528,-59.23354,-0.4916639
107.725142002,-0.159061,0.2371787,-0.5382686,0.6230389,0.7478778,0.06149943,-20.46528,-59.23354,-0.4916639
107.735001564,0.5242141,-0.1198749,-0.660874599999999,0.6255046,0.7439992,0.05951476,-19.71662,-58.86779,-0.05119991
107.744860172,0.959025599999998,-0.000857003000000002,-0.4769656,0.625972,0.7469267,0.0604912,-19.71662,-58.86779,-0.05119991
107.754719257,1.331721,-0.3579106,-0.1704506,0.624135,0.7440141,0.06672239,-19.71662,-58.86779,-0.05119991
107.764577866,1.207489,-0.4174196,-0.1091476,0.6241682,0.7401178,0.06573065,-19.71662,-58.86779,-0.05119991
107.774436951,0.896909700000001,-0.8339821,0.1360644,0.6223001,0.7381728,0.07053285,-19.71662,-58.86779,-0.05119991
107.784296513,0.896909700000001,-1.012509,0.4425794,0.6301675,0.7402066,0.07522988,-19.71461,-59.23594,-0.04743004
107.796619892,0.772677799999998,-1.369562,0.810397299999998,0.6325992,0.74413,0.07762433,-19.71461,-59.23594,-0.04743004
107.806478977,0.772677799999998,-1.250545,0.933003400000002,0.6339422,0.7524074,0.07575825,-19.71461,-59.23594,-0.04743004
107.816337585,0.772677799999998,-1.667107,1.055609,0.6397982,0.7480612,0.0708461,-19.71461,-59.23594,-0.04743004
107.82619667,0.7105619,-1.48858,1.239518,0.6367646,0.7514247,0.06660493,-19.71461,-59.23594,-0.04743004
107.836055279,0.772677799999998,-1.369562,1.300821,0.6402367,0.7490276,0.06797282,-19.70783,-59.96689,0.3441944
107.845914841,0.959025599999998,-1.191036,1.116912,0.6427082,0.7534506,0.07372531,-19.70783,-59.96689,0.3441944
107.855773926,1.021142,-1.131527,1.239518,0.6397324,0.7519482,0.06944225,-19.70783,-59.96689,0.3441944
107.865632534,1.021142,-1.012509,0.9943063,0.6416895,0.7524539,0.06989782,-19.70783,-59.96689,0.3441944
107.875491619,0.834793700000001,-0.8339821,0.687791300000002,0.6358646,0.7558325,0.07623895,-19.70783,-59.96689,0.3441944
107.885350227,0.5863301,-0.4769285,0.626488399999998,0.6340058,0.747055,0.07571217,-19.71385,-58.86245,0.3328829
107.895209789,0.7105619,-0.2984017,0.5651854,0.6335616,0.7465752,0.07858965,-19.71385,-58.86245,0.3328829
107.905068397,0.896909700000001,-0.2984017,0.3812764,0.6334828,0.7504585,0.07622755,-19.71385,-58.86245,0.3328829
107.914927483,0.5863301,-0.1793838,0.3812764,0.6285889,0.7528558,0.07823432,-19.71385,-58.86245,0.3328829
107.924786091,0.2136345,0.0586519300000001,0.3199734,0.6256652,0.7513685,0.07778424,-19.71385,-58.86245,0.3328829
107.934645653,0.1515186,0.3561966,0.3812764,0.6270791,0.7547837,0.07683451,-20.08357,-59.59443,0.3423557
107.944504261,0.02728678,0.4157055,0.5038823,0.6333179,0.757735,0.07054091,-20.08357,-59.59443,0.3423557
107.954363346,0.02728678,0.3561966,0.687791300000002,0.6328462,0.7562709,0.07053528,-20.08357,-59.59443,0.3423557
107.964222431,0.0894026999999998,0.3561966,0.749094399999999,0.6380953,0.7601869,0.06426392,-20.08357,-59.59443,0.3423557
107.976545811,0.3378664,0.4157055,0.626488399999998,0.6411888,0.7534227,0.06991313,-20.08357,-59.59443,0.3423557
107.986405373,0.3378664,0.5347234,0.626488399999998,0.63528,0.7528715,0.06663831,-20.46328,-59.60169,-0.4878931
107.996263981,0.5242141,0.5942323,0.5651854,0.6421735,0.7534332,0.07037839,-20.46328,-59.60169,-0.4878931
108.006123066,0.3999823,0.4752145,0.4425794,0.6359802,0.7417068,0.0722845,-20.46328,-59.60169,-0.4878931
108.015981674,0.3378664,0.1776698,0.4425794,0.6369056,0.7456062,0.07182501,-20.46328,-59.60169,-0.4878931
108.025840759,0.2757505,0.2371787,0.3199734,0.6310069,0.747499,0.07144586,-20.46328,-59.60169,-0.4878931
108.035699368,0.2757505,0.2371787,0.3812764,0.6286458,0.7387134,0.06996777,-20.4573,-59.59011,0.3442869
108.045558929,0.3378664,0.2966877,0.5651854,0.6306015,0.7382423,0.06945672,-20.4573,-59.59011,0.3442869
108.055418015,0.3999823,0.2966877,0.5038823,0.6242225,0.741598,0.07101355,-20.4573,-59.59011,0.3442869
108.065276623,0.648446000000003,0.4157055,0.5651854,0.6217025,0.7396023,0.06384464,-20.4573,-59.59011,0.3442869
108.075135708,0.7105619,0.5942323,0.687791300000002,0.6225947,0.7430039,0.06050623,-20.4573,-59.59011,0.3442869
108.084994316,0.896909700000001,0.4157055,0.933003400000002,0.6240309,0.7483785,0.06292712,-19.34088,-59.24026,-0.04936123
108.094853878,0.896909700000001,0.2371787,0.9943063,0.6225592,0.7498291,0.06391873,-19.34088,-59.24026,-0.04936123
108.104712486,1.083257,0.2371787,1.055609,0.6318498,0.7484455,0.06233704,-19.34088,-59.24026,-0.04936123
108.114571571,1.207489,-0.0603659200000003,1.055609,0.6308016,0.7537873,0.06191787,-19.34088,-59.24026,-0.04936123
108.12443018,1.145373,-0.1198749,0.933003400000002,0.6370845,0.7557749,0.05801149,-19.34088,-59.24026,-0.04936123
108.134289742,1.083257,-0.4174196,0.9943063,0.639598,0.7577686,0.06470129,-20.46206,-59.22731,-0.0435667
108.146613598,1.269605,-0.4174196,0.9943063,0.637719,0.7528912,0.06612451,-20.46206,-59.22731,-0.0435667
108.156472206,1.207489,-0.595946399999998,0.687791300000002,0.6392375,0.7524306,0.06945337,-20.46206,-59.22731,-0.0435667
108.166331291,0.834793700000001,-1.072018,0.5038823,0.6373094,0.753886,0.07284753,-20.46206,-59.22731,-0.0435667
108.176189899,0.5242141,-1.250545,0.5038823,0.6320661,0.7494836,0.0791147,-20.46206,-59.22731,-0.0435667
108.186049461,-0.159061,-1.548089,0.3812764,0.635497,0.7543981,0.08389927,-20.46131,-58.85382,0.3367462
108.19590807,-0.593872299999999,-1.786125,0.5651854,0.6341606,0.7417286,0.0823738,-20.46131,-58.85382,0.3367462
108.205767155,-1.028684,-2.202688,0.5038823,0.6307283,0.7490194,0.08823464,-20.46131,-58.85382,0.3367462
108.215625763,-1.836191,-2.738268,0.626488399999998,0.6301728,0.7568079,0.09022509,-20.46131,-58.85382,0.3367462
108.225484848,-3.078509,-3.511884,0.749094399999999,0.629236,0.7626697,0.0984343,-20.46131,-58.85382,0.3367462
108.23534441,-4.755639,-3.928447,1.055609,0.6333238,0.771054,0.1185732,-20.82981,-59.21141,0.7905445
108.245203018,-6.74334800000002,-4.047464,1.178215,0.6309111,0.7798299,0.1287448,-20.82981,-59.21141,0.7905445
108.255062103,-8.35836199999998,-3.690411,1.055609,0.6281227,0.7817986,0.1412603,-20.82981,-59.21141,0.7905445
108.264920712,-9.78702800000002,-3.511884,0.933003400000002,0.632191,0.7857832,0.1560912,-20.82981,-59.21141,0.7905445
108.274779797,-12.08532,-2.678759,0.5038823,0.6316458,0.8004096,0.164848,-20.82981,-59.21141,0.7905445
108.284638405,-14.50784,-1.548089,0.1973674,0.6370389,0.8092489,0.1734713,-20.4593,-59.22196,0.3405161
108.294497967,-16.18497,0.3561966,-0.4156626,0.6451023,0.8030387,0.185284,-20.4593,-59.22196,0.3405161
108.304356575,-16.86824,2.439009,-1.089996,0.6465651,0.795727,0.1784926,-20.4593,-59.22196,0.3405161
108.31421566,-16.86824,4.164769,-2.561268,0.6358645,0.8005313,0.1873112,-20.4593,-59.22196,0.3405161
108.326539517,-18.85595,5.295438,-3.664721,0.6322972,0.8219423,0.1956892,-20.4593,-59.22196,0.3405161
108.336398125,-21.83751,6.06905499999997,-4.890781,0.6373241,0.8215359,0.2051981,-20.46328,-59.60169,-0.4878931
108.346257687,-24.57062,6.84267100000001,-5.93293199999999,0.6364515,0.8269279,0.2177152,-20.46328,-59.60169,-0.4878931
108.356116295,-27.42795,7.25923300000003,-7.220295,0.6375775,0.834302,0.2350126,-20.46328,-59.60169,-0.4878931
108.36597538,-30.40951,7.37825099999999,-8.07853800000002,0.6456323,0.8354127,0.2526376,-20.46328,-59.60169,-0.4878931
108.375833988,-33.26684,7.97334099999999,-9.61111300000001,0.6410243,0.8417974,0.2791131,-20.46328,-59.60169,-0.4878931
108.38569355,-36.68322,8.68744799999998,-10.28545,0.6455572,0.8511498,0.2968577,-20.48323,-59.26829,-2.988202
108.395552158,-39.85113,10.53222,-11.51151,0.6522611,0.8517926,0.3226444,-20.48323,-59.26829,-2.988202
108.405411244,-43.01904,12.85307,-13.3506,0.6578135,0.8670241,0.3485706,-20.48323,-59.26829,-2.988202
108.415270329,-48.48524,16.42361,-14.02493,0.6574254,0.8481429,0.3752519,-20.48323,-59.26829,-2.988202
108.425128937,-50.10026,17.91133,-14.57666,0.6214006,0.8462725,0.3508312,-20.48323,-59.26829,-2.988202
108.434988499,-51.03199,20.47022,-18.00962,0.6510167,0.8918777,0.3742748,-19.36802,-59.29282,-3.826177
108.444847107,-55.25588,22.79107,-19.41959,0.6591772,0.9065539,0.3757199,-19.36802,-59.29282,-3.826177
108.454706192,-59.35553,25.0524,-19.78741,0.6440385,0.90008,0.3720475,-19.36802,-59.29282,-3.826177
108.4645648,-62.5234399999998,27.0162,-20.82956,0.6456627,0.8962319,0.3801382,-19.36802,-59.29282,-3.826177
108.474423885,-65.3186499999998,28.44441,-22.11692,0.6550416,0.8973147,0.3872017,-19.36802,-59.29282,-3.826177
108.484282494,-69.1698399999997,29.45607,-23.7108,0.6366344,0.9200134,0.3847804,-18.64495,-59.34867,-7.222772
108.496606827,-76.1889299999998,31.12232,-25.7951,0.6480601,0.9250451,0.4019112,-18.64495,-59.34867,-7.222772
108.506465912,-81.9036000000001,32.31249,-26.95986,0.6570098,0.9227231,0.4103897,-18.64495,-59.34867,-7.222772
108.51632452,-86.6865199999997,34.39531,-28.18592,0.6671118,0.9019067,0.4153412,-18.64495,-59.34867,-7.222772
108.526183605,-90.0407900000003,37.19223,-29.10546,0.6958376,0.8895648,0.430162,-18.64495,-59.34867,-7.222772
108.536042214,-92.64966,39.75111,-28.18592,0.6556111,0.8647659,0.4003365,-17.55292,-59.04604,-11.00915
108.545901775,-91.03464,42.3695,-29.22807,0.6428068,0.8797639,0.4073543,-17.55292,-59.04604,-11.00915
108.555760384,-89.6059699999998,44.69035,-32.10931,0.6564155,0.8964596,0.4154477,-17.55292,-59.04604,-11.00915
108.565619469,-89.4196199999999,46.89218,-34.50013,0.648065,0.9115112,0.4262361,-17.55292,-59.04604,-11.00915
108.575479031,-91.3452199999997,47.84433,-36.46182,0.6330429,0.9177647,0.4423165,-17.55292,-59.04604,-11.00915
108.585337639,-95.1342900000002,48.73696,-37.56528,0.6219813,0.9255307,0.4631453,-15.71941,-58.76362,-15.63158
108.595196724,-100.7868,50.04615,-37.32006,0.6286063,0.9124806,0.4710872,-15.71941,-58.76362,-15.63158
108.605055332,-105.5077,52.12897,-36.33922,0.628482,0.8823103,0.4713135,-15.71941,-58.76362,-15.63158
108.614914417,-107.4332,54.92589,-35.48098,0.630811,0.8443522,0.4652096,-15.71941,-58.76362,-15.63158
108.624773025,-105.5698,57.8418299999999,-34.62273,0.6188228,0.812578,0.4550491,-15.71941,-58.76362,-15.63158
108.634632587,-102.2155,60.28169,-33.58058,0.6083006,0.797416,0.4593839,-12.40144,-57.77465,-21.16546
108.644491196,-98.7991300000003,62.3645100000001,-33.15146,0.5908235,0.7929042,0.4653453,-12.40144,-57.77465,-21.16546
108.654350281,-96.6871900000002,64.38781,-32.53843,0.5850435,0.8002014,0.4784276,-12.40144,-57.77465,-21.16546
108.664208889,-96.0660300000001,66.6491500000001,-31.61889,0.5763608,0.8025994,0.4895932,-12.40144,-57.77465,-21.16546
108.676532745,-95.7554499999997,68.9699899999998,-30.57674,0.5677059,0.7888941,0.4886425,-12.40144,-57.77465,-21.16546
108.686392307,-94.8858299999999,70.9933,-30.02501,0.5628018,0.7756651,0.4761416,-9.525053,-55.6753,-26.64439
108.696250915,-93.2086899999998,71.7074100000002,-29.71849,0.5452292,0.7594085,0.464754,-9.525053,-55.6753,-26.64439
108.706110001,-91.09676,71.1718300000002,-29.53459,0.5232799,0.7470261,0.4587328,-9.525053,-55.6753,-26.64439
108.715968609,-89.9786700000002,69.6245999999998,-29.96371,0.5097662,0.7415867,0.4675051,-9.525053,-55.6753,-26.64439
108.725827694,-89.8544399999998,67.83932,-29.71849,0.4965685,0.7298904,0.4939505,-9.525053,-55.6753,-26.64439
108.735686302,-90.9725300000002,66.2325899999999,-29.59589,0.4889824,0.7201253,0.5030809,-6.203905,-53.56406,-30.90931
108.745545864,-91.5315700000002,64.9828900000001,-29.41198,0.4839523,0.7060192,0.5164512,-6.203905,-53.56406,-30.90931
108.755404949,-91.5315700000002,64.1497699999998,-29.41198,0.4828625,0.6929318,0.532649,-6.203905,-53.56406,-30.90931
108.765263557,-91.3452199999997,63.8522300000001,-29.59589,0.4771836,0.6851227,0.5398521,-6.203905,-53.56406,-30.90931
108.775123119,-90.1650200000001,63.0191000000001,-29.59589,0.4564875,0.6738039,0.5549067,-6.203905,-53.56406,-30.90931
108.784981251,-89.6059699999998,62.3050000000002,-29.28937,0.4514538,0.6572555,0.5658603,-3.250172,-51.49828,-34.33949
108.794840813,-89.9165599999999,61.1743299999998,-27.94071,0.4224199,0.6346277,0.5694376,-3.250172,-51.49828,-34.33949
108.804699421,-89.4817399999999,60.0436600000001,-27.63419,0.4095131,0.6297144,0.5873105,-3.250172,-51.49828,-34.33949
108.814558506,-90.4755999999999,58.25839,-27.20507,0.3953271,0.6155654,0.6108741,-3.250172,-51.49828,-34.33949
108.824417114,-90.84829,57.12772,-26.53074,0.3764572,0.6042267,0.6163185,-3.250172,-51.49828,-34.33949
108.834276676,-90.9104100000001,55.93754,-25.91771,0.3687538,0.5900341,0.6129541,0.4451637,-49.39047,-38.54233
108.846600532,-88.4257700000002,54.39031,-25.05947,0.352529,0.5766857,0.5953423,0.4451637,-49.39047,-38.54233
108.856459141,-86.3138399999999,53.20013,-24.32383,0.3552035,0.5601729,0.5975608,0.4451637,-49.39047,-38.54233
108.866318226,-84.6366999999997,51.47437,-22.79126,0.3029704,0.5392352,0.5875862,0.4451637,-49.39047,-38.54233
108.876176834,-81.1582100000002,49.51057,-22.66865,0.2849311,0.5293276,0.5834469,0.4451637,-49.39047,-38.54233
108.886036396,-78.2387600000001,47.60629,-23.09777,0.2799278,0.5157173,0.5992169,3.389738,-45.04822,-41.54766
108.895895004,-75.6920099999998,45.702,-22.66865,0.2665874,0.4912865,0.6039929,3.389738,-45.04822,-41.54766
108.905754089,-73.3315999999998,44.27379,-21.81041,0.2503413,0.4600028,0.6049188,3.389738,-45.04822,-41.54766
108.915613174,-70.1015800000002,43.20263,-20.89086,0.2500017,0.4380709,0.5965921,3.389738,-45.04822,-41.54766
108.925471783,-65.6292300000001,42.60754,-19.78741,0.2441057,0.4287353,0.5865342,3.389738,-45.04822,-41.54766
108.935331345,-60.9705399999998,41.77441,-18.56135,0.2268918,0.4124458,0.5655573,5.912308,-42.16193,-43.70348
108.945189953,-55.81492,40.76276,-17.09008,0.2106156,0.399571,0.5445959,5.912308,-42.16193,-43.70348
108.955049038,-50.96988,39.51307,-15.5575,0.2002693,0.3838359,0.5254425,5.912308,-42.16193,-43.70348
108.964907646,-45.1931,38.14437,-14.27014,0.1856304,0.3715107,0.5174007,5.912308,-42.16193,-43.70348
108.974766731,-40.34806,36.18057,-12.67626,0.1680539,0.3484178,0.499726,5.912308,-42.16193,-43.70348
108.98462534,-35.19244,33.74071,-10.77587,0.1588325,0.3263862,0.4857747,8.503942,-40.00731,-45.468
108.994484901,-29.35354,31.06281,-9.12068800000002,0.1398503,0.3052509,0.4743661,8.503942,-40.00731,-45.468
109.004343987,-22.45868,28.14687,-7.15899200000001,0.1285728,0.290497,0.4595471,8.503942,-40.00731,-45.468
109.014202595,-14.69419,24.87388,-5.197297,0.1166963,0.2761956,0.4370733,8.503942,-40.00731,-45.468
109.026526451,-3.8239,19.81562,-2.745177,0.1049966,0.2793857,0.4070774,8.503942,-40.00731,-45.468
109.036385059,4.002705,15.35245,-0.4156626,0.1025003,0.2715381,0.3965044,11.47897,-37.8383,-45.89016
109.046244621,11.33238,10.53222,1.729942,0.09951951,0.2710108,0.3927088,11.47897,-37.8383,-45.89016
109.05610323,17.79244,5.414456,3.630335,0.1040175,0.2701006,0.3988667,11.47897,-37.8383,-45.89016
109.065962315,22.82383,-0.3579106,5.285516,0.1127699,0.2794398,0.4031335,11.47897,-37.8383,-45.89016
109.075821877,25.74327,-6.427822,7.49242400000002,0.1132714,0.2877474,0.4113429,11.47897,-37.8383,-45.89016
109.085680485,28.29003,-12.61675,9.14760399999998,0.1166127,0.2980068,0.414257,12.22442,-37.47879,-45.89779
109.09553957,32.14122,-19.10322,10.55757,0.1293675,0.3020355,0.4203388,12.22442,-37.47879,-45.89779
109.105398178,37.1726,-25.64921,11.66103,0.1368683,0.3200763,0.4122378,12.22442,-37.47879,-45.89779
109.115257263,43.32208,-31.89765,13.1936,0.1524123,0.3270187,0.410158,12.22442,-37.47879,-45.89779
109.125115871,50.90022,-38.2651,14.97139,0.1565357,0.3367426,0.3982013,12.22442,-37.47879,-45.89779
109.134975433,58.9131700000001,-44.81108,16.50397,0.1652831,0.3514508,0.4068264,11.10524,-37.83399,-45.88823
109.144834042,65.249,-51.17854,18.15915,0.1758721,0.3807903,0.4198615,11.10524,-37.83399,-45.88823
109.154693127,70.2803900000001,-56.53435,19.87563,0.1897762,0.4159878,0.4300235,11.10524,-37.83399,-45.88823
109.164552212,74.7527400000002,-60.64046,21.3469,0.2045496,0.4268866,0.4466769,11.10524,-37.83399,-45.88823
109.17441082,78.9766199999998,-64.9251,22.81817,0.2257731,0.4383559,0.4704312,11.10524,-37.83399,-45.88823
109.184270382,82.1445300000001,-68.9717100000001,23.79902,0.2542768,0.4682911,0.4702776,10.00881,-39.63327,-43.81514
109.196593761,85.12609,-72.3637199999999,25.4542,0.2933031,0.4969239,0.4872142,10.00881,-39.63327,-43.81514
109.206452847,87.4865,-73.8514500000002,27.10938,0.3219106,0.5005245,0.4715025,10.00881,-39.63327,-43.81514
109.216311455,91.6482600000001,-74.7440799999998,28.88717,0.3471864,0.50838,0.4304766,10.00881,-39.63327,-43.81514
109.22617054,97.8598600000001,-74.5655500000001,30.54235,0.3677624,0.5177117,0.4048645,10.00881,-39.63327,-43.81514
109.236030102,104.382,-75.8747500000001,31.03278,0.3808858,0.5412393,0.419252,6.681727,-42.87211,-41.20327
109.24588871,107.9226,-78.0170699999999,31.27799,0.4082765,0.6072564,0.4409828,6.681727,-42.87211,-41.20327
109.255747795,108.109,-79.3262699999999,31.82971,0.4110442,0.6691042,0.4472156,6.681727,-42.87211,-41.20327
109.265606403,107.5499,-80.5164500000001,32.62666,0.4186125,0.6930229,0.4492264,6.681727,-42.87211,-41.20327
109.275465965,108.5438,-82.0041700000001,33.5462,0.4412381,0.699469,0.4278736,6.681727,-42.87211,-41.20327
109.285324574,111.4011,-83.2538600000002,34.46574,0.4685164,0.6996785,0.4193402,2.298502,-46.09338,-38.20184
109.295183659,116.4946,-84.38453,35.32399,0.495011,0.6906585,0.4169696,2.298502,-46.09338,-38.20184
109.305042267,122.6441,-85.9317599999999,35.5692,0.5124088,0.7117475,0.4197748,2.298502,-46.09338,-38.20184
109.314901352,126.7438,-87.2409599999999,36.61135,0.521328,0.7493163,0.425236,2.298502,-46.09338,-38.20184
109.324760914,128.4209,-88.7881899999998,37.89871,0.5373369,0.7879908,0.4492941,2.298502,-46.09338,-38.20184
109.334619522,126.4332,-90.0378799999999,40.35083,0.5711722,0.8204007,0.4476479,-1.385584,-49.66755,-33.53582
109.344478607,123.3274,-89.0262200000002,42.74165,0.6102531,0.8246377,0.4471266,-1.385584,-49.66755,-33.53582
109.354337216,122.6441,-86.82439,44.82595,0.6401696,0.8355294,0.4261866,-1.385584,-49.66755,-33.53582
109.364196301,124.8182,-85.5151999999997,45.37768,0.6476492,0.8394055,0.4040695,-1.385584,-49.66755,-33.53582
109.376520634,128.6072,-83.9679600000001,44.70335,0.6676072,0.8887306,0.4042013,-1.385584,-49.66755,-33.53582
109.386379242,130.1601,-82.06368,43.10947,0.6854351,0.9356832,0.4254283,-5.81102,-53.15925,-27.97038
109.396238327,129.6632,-80.2784099999999,41.20908,0.6879843,0.9528222,0.448059,-5.81102,-53.15925,-27.97038
109.406096935,126.9922,-80.0998800000003,39.6152,0.6969098,0.977834,0.4788116,-5.81102,-53.15925,-27.97038
109.41595602,121.4639,-78.9692200000002,38.20523,0.724551,1.007441,0.5227538,-5.81102,-53.15925,-27.97038
109.425814629,114.3206,-76.3508200000002,38.51174,0.7523702,0.9951105,0.5428589,-5.81102,-53.15925,-27.97038
109.435674191,109.165,-73.5539000000002,39.00217,0.7747862,0.9671031,0.5475742,-10.2334,-55.59094,-21.19935
109.445532799,105.8728,-69.32877,39.6152,0.7940871,0.9569475,0.5189406,-10.2334,-55.59094,-21.19935
109.455391884,104.0714,-64.9251,39.55389,0.7858603,0.9670171,0.4985373,-10.2334,-55.59094,-21.19935
109.465251446,102.4564,-61.7116199999998,37.71481,0.7568071,0.9657305,0.4836062,-10.2334,-55.59094,-21.19935
109.475110054,101.2762,-59.4502799999997,35.75311,0.7335271,0.9742327,0.4701129,-10.2334,-55.59094,-21.19935
109.484969139,98.4810200000002,-57.7840300000001,34.40444,0.7220063,0.9882148,0.4627279,-13.47828,-58.04788,-15.26662
109.494827747,92.0209599999999,-57.18895,33.30099,0.7114113,0.9940258,0.4801792,-13.47828,-58.04788,-15.26662
109.504686833,83.4489699999999,-57.4269799999998,31.70711,0.7033921,1.00429,0.5110489,-13.47828,-58.04788,-15.26662
109.514545441,73.7588800000003,-55.87975,29.19369,0.7202629,1.018175,0.5406359,-13.47828,-58.04788,-15.26662
109.524405003,65.5595799999998,-51.53559,26.18984,0.7365702,0.9872537,0.5612273,-13.47828,-58.04788,-15.26662
109.534263611,60.7766499999999,-45.88225,22.87948,0.7382495,0.9469395,0.5771559,-17.16923,-58.65905,-9.350495
109.546587467,58.6647099999999,-37.31296,18.58827,0.7337685,0.9294372,0.5919273,-17.16923,-58.65905,-9.350495
109.556446552,56.30431,-30.76698,15.2166,0.707332,0.9511676,0.6097386,-17.16923,-58.65905,-9.350495
109.56630516,51.83196,-25.41117,12.09015,0.6843278,0.9743953,0.6294305,-17.16923,-58.65905,-9.350495
109.576164722,43.32208,-21.06702,9.33151300000002,0.6766401,1.001218,0.6633104,-19.75297,-58.93818,-5.108293
109.586023331,32.45179,-17.49648,7.12460599999999,0.6772344,1.014923,0.6830648,-19.75297,-58.93818,-5.108293
109.595882416,21.08458,-13.6284,4.54988,0.6794057,1.02379,0.7065895,-19.75297,-58.93818,-5.108293
109.605741501,10.52488,-10.2959,1.300821,0.6739067,1.044214,0.7159449,-19.75297,-58.93818,-5.108293
109.615600109,-0.3454087,-7.08242000000001,-2.070843,0.6720483,1.061801,0.7386423,-19.75297,-58.93818,-5.108293
109.625459671,-11.09146,-3.452375,-6.17814400000003,0.6706007,1.074975,0.7517124,-19.75297,-58.93818,-5.108293
109.635318279,-22.14809,1.84392,-10.34675,0.6696799,1.095977,0.7744252,-19.73577,-59.27692,-2.992065
109.645177364,-34.38493,8.032849,-14.69926,0.6855632,1.107899,0.8016138,-19.73577,-59.27692,-2.992065
109.655035973,-46.87023,14.3408,-19.35829,0.6998799,1.10562,0.8090577,-19.73577,-59.27692,-2.992065
109.664895534,-57.24359,22.07696,-23.7108,0.7159132,1.087314,0.8206547,-19.73577,-59.27692,-2.992065
109.674754143,-66.2503900000002,29.21803,-28.67634,0.7218025,1.079072,0.8147508,-19.73577,-59.27692,-2.992065
109.684613228,-74.077,34.87138,-33.51928,0.719968,1.103366,0.8092316,-19.37246,-59.67345,-4.7186
109.694472313,-83.3322699999997,39.037,-37.56528,0.7340829,1.152647,0.8113631,-19.37246,-59.67345,-4.7186
109.704330921,-94.7616000000001,42.07196,-41.30476,0.7404281,1.204316,0.8198551,-19.37246,-59.67345,-4.7186
109.716654777,-111.3465,45.40446,-45.28946,0.7773488,1.254859,0.8451531,-19.37246,-59.67345,-4.7186
109.726513386,-125.509,50.04615,-47.74157,0.838088,1.269089,0.8630962,-17.90946,-59.38047,-8.890992
109.736372948,-141.1001,57.4252600000001,-47.55767,0.8420066,1.230202,0.8651082,-17.90946,-59.38047,-8.890992
109.746232033,-150.6038,64.8043700000001,-47.86418,0.8188826,1.234355,0.8592432,-17.90946,-59.38047,-8.890992
109.756090641,-159.1137,73.2546400000001,-49.88718,0.8581343,1.235223,0.868275,-17.90946,-59.38047,-8.890992
109.765950203,-168.7417,82.0619699999999,-49.94848,0.8759784,1.253863,0.8657821,-17.90946,-59.38047,-8.890992
109.775808811,-180.7921,89.5600900000001,-48.96763,0.9093612,1.272256,0.8903798,-15.34488,-59.51047,-16.07406
109.785667896,-197.1286,96.1060700000002,-45.59597,0.8613185,1.283384,0.8571354,-15.34488,-59.51047,-16.07406
109.795526504,-211.4774,101.1643,-43.81818,0.8355174,1.310261,0.8184355,-15.34488,-59.51047,-16.07406
109.80538559,-223.1552,106.9962,-45.28946,0.890456,1.304307,0.787892,-15.34488,-59.51047,-16.07406
109.815244198,-232.6589,111.6379,-45.41206,0.9048645,1.254696,0.7604328,-15.34488,-59.51047,-16.07406
109.82510376,-237.007,116.9342,-44.61512,0.8846019,1.197473,0.7310075,-15.34488,-59.51047,-16.07406
109.834962845,-237.3797,123.4207,-43.32776,0.8918834,1.161528,0.7310795,-11.32062,-57.12169,-26.23589
109.844821453,-233.8391,131.6924,-42.95994,0.8961074,1.134799,0.7303146,-11.32062,-57.12169,-26.23589
109.854681015,-230.3606,139.1906,-42.71473,0.8762664,1.106365,0.7212525,-11.32062,-57.12169,-26.23589
109.864539623,-228.1245,144.5464,-42.2243,0.8293135,1.088376,0.7064356,-11.32062,-57.12169,-26.23589
109.874398708,-230.1122,146.6887,-39.95609,0.8042386,1.070678,0.7176651,-11.32062,-57.12169,-26.23589
109.884257317,-235.1436,149.7831,-36.09401,0.805874,1.087339,0.7446176,-6.628124,-52.23138,-36.87511
109.896581173,-248.4985,156.4481,-32.17061,0.7827694,1.073921,0.7247074,-6.628124,-52.23138,-36.87511
109.906440258,-258.3749,159.6021,-26.95986,0.7299056,1.019874,0.7111079,-6.628124,-52.23138,-36.87511
109.916298866,-269.4937,158.7095,-21.6265,0.6801307,1.024214,0.6883731,-6.628124,-52.23138,-36.87511
109.926158428,-283.4076,155.258,-13.4732,0.6422675,0.9284025,0.6617482,0.3710461,-44.3255,-44.99649
109.936017036,-292.2902,152.5206,-5.442508,0.633158,0.9029853,0.653038,0.3710461,-44.3255,-44.99649
109.945876122,-299.123,150.6163,-0.1091476,0.5906805,0.86455,0.6255254,0.3710461,-44.3255,-44.99649
109.95573473,-305.9557,146.5101,4.672486,0.5668069,0.7754253,0.6620119,0.3710461,-44.3255,-44.99649
109.965594292,-310.6144,142.047,9.27021000000003,0.4948293,0.6620414,0.7013752,0.3710461,-44.3255,-44.99649
109.975453377,-311.981,136.8697,13.50012,0.4402202,0.5640146,0.7722477,7.675127,-33.52158,-51.86875
109.985311985,-313.2854,131.8114,19.93693,0.4036616,0.49201,0.8622506,7.675127,-33.52158,-51.86875
109.99517107,-316.1427,126.6937,27.4772,0.3619685,0.4267281,0.9404035,7.675127,-33.52158,-51.86875
110.005029678,-320.8014,122.8256,36.61135,0.3033424,0.3626778,0.9977232,7.675127,-33.52158,-51.86875
110.01488924,-324.4662,117.9458,46.29722,0.2402453,0.3081985,1.022602,7.675127,-33.52158,-51.86875
110.024747849,-325.7707,110.9238,55.18616,0.2136088,0.2243322,1.040483,14.68885,-20.44104,-54.15302
110.034606934,-323.286,104.4968,64.1363900000002,0.1805468,0.1855255,1.021459,14.68885,-20.44104,-54.15302
110.044466496,-319.8697,95.3919700000003,73.8835700000002,0.1262032,0.1528091,0.9898511,14.68885,-20.44104,-54.15302
110.054325104,-320.2424,85.6920100000002,82.5885899999998,0.07829442,0.1279823,0.9706772,14.68885,-20.44104,-54.15302
110.064184189,-323.3481,75.2779500000003,93.9296400000002,0.05758217,0.09650635,0.9309332,14.68885,-20.44104,-54.15302
110.076507568,-327.4478,68.19638,109.991,0.1537216,0.04811834,0.9066323,19.84832,-6.566978,-53.87462
110.086366653,-331.0505,65.6375000000001,120.7804,0.2055828,-0.01719576,0.8852155,19.84832,-6.566978,-53.87462
110.096225262,-327.6963,62.9595900000002,130.0984,0.1710487,-0.09911586,0.7920517,19.84832,-6.566978,-53.87462
110.106084347,-313.4717,63.37616,136.29,0.2158614,-0.1766181,0.7811749,19.84832,-6.566978,-53.87462
110.115943909,-288.5632,66.2325899999999,138.4969,0.237654,-0.2297029,0.7181203,19.84832,-6.566978,-53.87462
110.125802517,-256.6357,72.77857,137.8839,0.2695086,-0.3216797,0.6411766,23.47819,6.696459,-50.25254
110.135661602,-219.4904,80.2766999999999,135.0027,0.2461836,-0.3649423,0.5788481,23.47819,6.696459,-50.25254
110.14552021,-187.687,87.77482,133.1636,0.256066,-0.3250633,0.5493333,23.47819,6.696459,-50.25254
110.155379772,-171.7853,96.7606699999999,132.7345,0.2996661,-0.2653666,0.5343606,23.47819,6.696459,-50.25254
110.16523838,-169.487,104.7944,133.9605,0.23987,-0.2129817,0.5006734,23.47819,6.696459,-50.25254
110.175097466,-172.9655,109.198,136.5352,0.1349658,-0.2344765,0.4665264,29.07183,16.21882,-44.87374
110.184956551,-175.3259,108.6625,138.0065,0.03131757,-0.3008004,0.4132943,29.07183,16.21882,-44.87374
110.194815159,-168.8659,105.6275,139.4778,-0.08511814,-0.3843443,0.3399729,29.07183,16.21882,-44.87374
110.204674721,-150.6038,102.3545,137.8839,-0.07902239,-0.420492,0.2887858,29.07183,16.21882,-44.87374
110.214533329,-127.0619,103.1876,132.9184,-0.02877861,-0.3837397,0.2385431,29.07183,16.21882,-44.87374
110.224392414,-106.0667,105.3895,124.3359,-0.05989692,-0.3199225,0.2011892,35.82397,19.90991,-38.67286
110.234251022,-93.0844700000002,106.1036,114.834,-0.1151545,-0.2674598,0.1775012,35.82397,19.90991,-38.67286
110.246574879,-89.4196199999999,102.2355,104.9642,-0.242945,-0.2658285,0.1357291,35.82397,19.90991,-38.67286
110.256434441,-91.84215,94.0232599999998,97.4852200000002,-0.337054,-0.2978244,0.1305708,35.82397,19.90991,-38.67286
110.266293049,-94.69948,84.6803600000003,91.9066500000002,-0.3945125,-0.3329239,0.1195927,35.82397,19.90991,-38.67286
110.276152134,-95.5069900000001,76.5276300000001,87.2476199999997,-0.3930039,-0.3748867,0.08567311,42.14741,20.64393,-33.65582
110.286010742,-90.9104100000001,70.6362499999997,80.4429899999998,-0.4129249,-0.4218954,0.05441234,42.14741,20.64393,-33.65582
110.295869827,-83.9534299999998,67.7203099999999,73.5157499999999,-0.4068421,-0.4058065,0.04823183,42.14741,20.64393,-33.65582
110.305728436,-79.1083799999999,65.2209300000003,66.58851,-0.4820621,-0.371559,0.01556977,42.14741,20.64393,-33.65582
110.315587998,-78.3629899999999,60.57924,61.62297,-0.5631592,-0.3767765,-0.01638319,42.14741,20.64393,-33.65582
110.325447083,-78.0524100000002,54.9854,57.5769799999997,-0.6291007,-0.4071151,-0.03534658,47.41798,20.28574,-28.62201
110.335305691,-73.3315999999998,50.04615,53.46967,-0.6253063,-0.4717781,-0.02923758,47.41798,20.28574,-28.62201
110.345165253,-64.3248000000001,47.54678,49.9754,-0.5867281,-0.4636436,-0.02732277,47.41798,20.28574,-28.62201
110.355023861,-56.1255,47.18973,45.99071,-0.579684,-0.4153279,-0.006409836,47.41798,20.28574,-28.62201
110.364882946,-51.09411,47.42776,42.61905,-0.5907372,-0.3852361,-0.001206349,47.41798,20.28574,-28.62201
110.374741554,-49.35487,46.11856,39.7378,-0.6001998,-0.4205187,-0.0444972,50.06048,19.9346,-25.23902
110.384600639,-45.75214,44.39281,36.73396,-0.6082948,-0.4484933,-0.08870426,50.06048,19.9346,-25.23902
110.394460201,-41.46614,43.91674,32.87187,-0.602724,-0.464503,-0.08891877,50.06048,19.9346,-25.23902
110.40431881,-37.73919,43.61919,29.5002,-0.6061428,-0.4786904,-0.1009698,50.06048,19.9346,-25.23902
110.414177895,-32.21087,42.72656,27.29329,-0.6582075,-0.5176445,-0.1144532,50.06048,19.9346,-25.23902
110.426501274,-23.76311,39.81062,24.65726,-0.7145925,-0.5585669,-0.123579,52.64148,18.84165,-22.29628
110.436360359,-17.30305,37.13272,22.45036,-0.7382525,-0.5554083,-0.1337575,52.64148,18.84165,-22.29628
110.446219921,-14.38361,33.97874,20.05954,-0.7524737,-0.5589615,-0.1393352,52.64148,18.84165,-22.29628
110.456078529,-11.15358,31.41986,17.85263,-0.7987016,-0.5759029,-0.1359441,52.64148,18.84165,-22.29628
110.465937615,-8.60682599999997,27.6708,15.40051,-0.8036661,-0.5598555,-0.1271123,52.64148,18.84165,-22.29628
110.475796223,-6.86757999999999,24.51682,12.82578,-0.7889817,-0.5475174,-0.1157167,54.15359,18.48564,-20.18777
110.485655308,-6.619116,21.06531,11.1706,-0.7893146,-0.5556418,-0.07552776,54.15359,18.48564,-20.18777
110.495513916,-5.625261,17.31624,9.76063399999999,-0.7838529,-0.5575241,-0.07130869,54.15359,18.48564,-20.18777
110.505373478,-3.761784,13.32914,7.49242400000002,-0.7759211,-0.5515662,-0.05843307,54.15359,18.48564,-20.18777
110.515232086,-0.655988299999999,9.63958999999999,4.795092,-0.7566923,-0.5402602,-0.0734669,54.15359,18.48564,-20.18777
110.525091171,3.754242,7.91383200000001,1.178215,-0.7186581,-0.5253104,-0.06957001,54.53732,17.75661,-19.34999
110.534950733,6.86003699999999,7.25923300000003,-2.132147,-0.7203215,-0.5302616,-0.08827687,54.53732,17.75661,-19.34999
110.544809342,12.07777,7.556778,-7.15899200000001,-0.7160623,-0.5385634,-0.106138,54.53732,17.75661,-19.34999
110.554668427,16.11531,7.02119800000001,-11.3889,-0.7770623,-0.526992,-0.1205053,54.53732,17.75661,-19.34999
110.564527035,17.41974,4.164769,-13.10538,-0.8229601,-0.5371394,-0.122812,54.53732,17.75661,-19.34999
110.57438612,17.41974,-0.893491000000003,-13.5345,-0.8169472,-0.5415759,-0.1521663,54.91582,17.38949,-18.96407
110.584244728,20.83612,-6.30880399999998,-15.37359,-0.8188027,-0.5314468,-0.1717016,54.91582,17.38949,-18.96407
110.596569061,23.25864,-14.64005,-18.86786,-0.8211741,-0.5174237,-0.189759,54.91582,17.38949,-18.96407
110.606428146,24.00403,-21.84064,-21.74911,-0.7958056,-0.4997772,-0.2153692,54.91582,17.38949,-18.96407
110.616286755,26.30232,-28.9222,-26.28553,-0.7661536,-0.46992,-0.2390206,54.91582,17.38949,-18.96407
110.62614584,29.71869,-35.82524,-31.8028,-0.7380251,-0.425445,-0.2539014,54.5341,17.75037,-19.79808
110.636004448,33.56988,-41.71662,-37.74918,-0.6848345,-0.3841342,-0.2634156,54.5341,17.75037,-19.79808
110.64586401,38.66339,-46.41783,-44.55382,-0.6572328,-0.3430918,-0.2840682,54.5341,17.75037,-19.79808
110.655723095,45.37191,-51.41658,-52.3393,-0.652657,-0.3231213,-0.2897153,54.5341,17.75037,-19.79808
110.665581703,52.391,-56.71287,-58.9600200000002,-0.6485668,-0.3095011,-0.3006802,54.5341,17.75037,-19.79808
110.675440788,58.7889399999997,-62.0091699999999,-63.8029599999999,-0.626955,-0.3087973,-0.2937943,54.52013,18.09535,-21.46621
110.685299396,65.3111200000001,-67.06743,-68.3393900000001,-0.5927508,-0.3293637,-0.279121,54.52013,18.09535,-21.46621
110.695158958,71.95752,-71.7686300000001,-72.44669,-0.5624364,-0.3519109,-0.2644089,54.52013,18.09535,-21.46621
110.705017567,78.0448799999999,-75.5772000000001,-76.1248700000003,-0.4726214,-0.3596872,-0.2144803,54.52013,18.09535,-21.46621
110.714876652,84.0701200000003,-75.9937699999999,-79.4352300000003,-0.3520449,-0.3579307,-0.1605969,54.52013,18.09535,-21.46621
110.724736214,91.83461,-72.66127,-83.11341,-0.244432,-0.3475685,-0.1169984,51.17769,19.54192,-26.07323
110.734594822,100.593,-68.4956400000001,-88.5080700000001,-0.1848657,-0.3417022,-0.1206731,51.17769,19.54192,-26.07323
110.744453907,109.3513,-66.2938099999999,-95.7418299999999,-0.1611622,-0.2997136,-0.1393453,51.17769,19.54192,-26.07323
110.754312515,116.3704,-67.6625100000001,-105.0599,-0.1909917,-0.2625164,-0.1414815,51.17769,19.54192,-26.07323
110.766636372,126.9301,-75.6962199999999,-117.1366,-0.2937389,-0.2579257,-0.1021216,51.17769,19.54192,-26.07323
110.776495933,133.2659,-87.7170299999999,-122.1634,-0.355304,-0.2436689,-0.04793267,47.39401,21.35544,-31.12985
110.786354542,137.8004,-101.3446,-123.3895,-0.3354801,-0.2421757,0.04380369,47.39401,21.35544,-31.12985
110.796213627,138.9806,-112.6513,-121.7956,-0.222055,-0.2554308,0.1340815,47.39401,21.35544,-31.12985
110.806072235,139.4154,-118.7807,-118.6692,-0.08802464,-0.2738575,0.224022,47.39401,21.35544,-31.12985
110.81593132,141.1546,-120.3279,-117.2592,-0.005916962,-0.3152215,0.2891115,47.39401,21.35544,-31.12985
110.825789928,145.5649,-119.7923,-117.1366,0.01041813,-0.3653939,0.3665647,42.4932,21.32958,-36.99401
110.83564949,153.143,-119.1377,-117.1979,-0.01011992,-0.3959264,0.4480637,42.4932,21.32958,-36.99401
110.845508099,162.274,-119.3163,-115.1749,-0.01730101,-0.4033528,0.5607152,42.4932,21.32958,-36.99401
110.855367184,170.287,-118.7212,-109.7802,-0.008618178,-0.3906986,0.6704349,42.4932,21.32958,-36.99401
110.865226269,176.9334,-117.9476,-101.8108,0.03471433,-0.3637369,0.7505504,42.4932,21.32958,-36.99401
110.875084877,183.3935,-117.0549,-95.1287999999999,0.1265136,-0.3913702,0.8208887,36.46798,21.31044,-43.30048
110.884944439,188.6733,-113.7819,-86.4850800000001,0.2604409,-0.3508033,0.8116551,36.46798,21.31044,-43.30048
110.894803047,195.7545,-109.1998,-82.7455899999997,0.3672526,-0.3147936,0.8190622,36.46798,21.31044,-43.30048
110.904662132,203.3948,-104.2605,-82.7455899999997,0.3832125,-0.2616214,0.8164083,36.46798,21.31044,-43.30048
110.91452074,210.8487,-100.2139,-85.1364100000003,0.3785931,-0.2070408,0.848562,36.46798,21.31044,-43.30048
110.924380302,214.6999,-98.1310899999999,-87.3433199999998,0.3487961,-0.2120397,0.8834468,30.15663,17.25151,-49.11575
110.934239387,215.5074,-98.9642199999998,-87.0368,0.2669824,-0.2275268,0.9693004,30.15663,17.25151,-49.11575
110.946562767,208.1156,-103.7249,-83.4199299999998,0.2278776,-0.2290591,1.042204,30.15663,17.25151,-49.11575
110.956421852,199.5436,-107.236,-76.8604999999999,0.2798522,-0.1770838,1.024651,30.15663,17.25151,-49.11575
110.96628046,193.8911,-109.1402,-70.8528099999998,0.3187307,-0.1223993,0.9819093,30.15663,17.25151,-49.11575
110.976140022,193.9532,-109.0212,-66.00987,0.324829,-0.09290594,0.9169002,23.43528,10.64374,-53.23802
110.985999107,205.0098,-108.5452,-64.5385999999999,0.3346537,-0.04501386,0.8184493,23.43528,10.64374,-53.23802
110.995857716,224.2657,-106.5219,-64.2933900000002,0.397643,0.0113877,0.7873587,23.43528,10.64374,-53.23802
111.005716801,241.4718,-104.32,-66.3776899999997,0.4237898,0.0669848,0.8880872,23.43528,10.64374,-53.23802
111.015575409,252.6527,-101.1065,-67.0520200000001,0.4430256,0.1568972,0.9427213,23.43528,10.64374,-53.23802
111.025434971,257.4356,-98.1905999999998,-66.0711699999999,0.4947854,0.2188462,0.9899472,17.91229,2.997041,-56.07545
111.035293579,262.1565,-94.9176099999997,-65.4581500000002,0.4968061,0.2990336,0.9575303,17.91229,2.997041,-56.07545
111.045152664,267.1257,-93.25136,-62.2090799999998,0.5185239,0.3208441,0.8831291,17.91229,2.997041,-56.07545
111.055011749,282.4063,-94.26301,-60.6152000000002,0.5026593,0.374651,0.7357366,17.91229,2.997041,-56.07545
111.064870358,303.4014,-97.3574800000001,-58.65351,0.5160353,0.3991747,0.6260162,17.91229,2.997041,-56.07545
111.074729919,327.3782,-101.166,-54.91402,0.5344916,0.4639653,0.6013815,13.1117,-7.561771,-55.94162
111.084588528,347.7522,-106.2243,-48.53851,0.5600635,0.5348864,0.6375555,13.1117,-7.561771,-55.94162
111.094447613,362.5979,-108.7237,-39.77219,0.5813853,0.6281355,0.6687075,13.1117,-7.561771,-55.94162
111.104306221,374.462,-109.1402,-30.14762,0.6095029,0.7181477,0.7289663,13.1117,-7.561771,-55.94162
111.116630077,382.475,-106.2243,-13.4119,0.6366972,0.7672911,0.7932062,13.1117,-7.561771,-55.94162
111.126489639,385.4565,-104.439,2.649487,0.6356307,0.7648161,0.7845749,9.095338,-20.35224,-52.39567
111.136348248,386.2019,-104.7961,18.03654,0.6594243,0.7043553,0.825895,9.095338,-20.35224,-52.39567
111.146207333,389.7426,-107.6525,32.13623,0.6102858,0.6802893,0.7530748,9.095338,-20.35224,-52.39567
111.156065941,393.0347,-112.8893,44.76465,0.5955201,0.7428445,0.7298532,9.095338,-20.35224,-52.39567
111.165925503,387.9412,-117.9476,58.8030400000002,0.6109546,0.9270648,0.7680863,9.095338,-20.35224,-52.39567
111.175784588,366.0764,-122.0537,70.63451,0.6857617,1.217536,0.8408722,4.087675,-36.65794,-42.14973
111.185643196,330.1113,-120.2089,78.1747700000002,0.7729192,1.544849,0.8471843,4.087675,-36.65794,-42.14973
111.195502281,285.0772,-116.7574,80.0751599999999,0.8792444,1.740941,0.8521159,4.087675,-36.65794,-42.14973
111.205360889,238.6145,-110.0329,82.40468,0.9369683,1.769499,0.8050517,4.087675,-36.65794,-42.14973
111.215220451,203.2084,-101.9992,84.05986,0.9731702,1.620693,0.7457761,4.087675,-36.65794,-42.14973
111.22507906,187.5552,-94.1439900000002,83.8759500000001,0.9402486,1.437058,0.6455012,-1.720955,-49.96099,-28.47303
111.234938145,189.8535,-85.3961799999999,82.28207,0.9305482,1.23674,0.5830905,-1.720955,-49.96099,-28.47303
111.24479723,206.4385,-76.8864000000001,80.5655900000001,0.8911951,1.129544,0.5089501,-1.720955,-49.96099,-28.47303
111.254655838,227.4337,-70.4594300000001,75.6613499999999,0.8782668,1.126931,0.4913819,-1.720955,-49.96099,-28.47303
111.2645154,242.2172,-66.5913500000002,68.7341199999997,0.8616949,1.22027,0.5063025,-1.720955,-49.96099,-28.47303
111.274374008,243.708,-66.3533199999998,59.96779,0.8130428,1.35537,0.5733073,-9.091007,-56.67893,-19.08138
111.284233093,226.3777,-67.1269399999999,53.40837,0.7822983,1.457157,0.6685276,-9.091007,-56.67893,-19.08138
111.29655695,183.3313,-64.6275600000002,51.26277,0.7511833,1.516499,0.7351221,-9.091007,-56.67893,-19.08138
111.306415558,145.3164,-61.2355499999998,51.07886,0.7230687,1.481304,0.7591858,-9.091007,-56.67893,-19.08138
111.31627512,112.8298,-57.4269799999998,51.20146,0.7135384,1.376591,0.7574795,-9.091007,-56.67893,-19.08138
111.326133728,92.3315400000003,-51.65461,49.7915,0.7170087,1.261195,0.7310587,-14.53594,-59.02801,-7.24779
111.335992813,83.82166,-45.52519,45.92941,0.7088279,1.164138,0.691541,-14.53594,-59.02801,-7.24779
111.345851421,83.8837699999998,-39.87185,39.92171,0.7031301,1.104572,0.6518251,-14.53594,-59.02801,-7.24779
111.355710983,86.0578299999999,-34.69457,33.30099,0.648665,1.120508,0.6182335,-14.53594,-59.02801,-7.24779
111.365570068,83.07627,-31.42157,27.4772,0.5969684,1.16474,0.5973005,-14.53594,-59.02801,-7.24779
111.375428677,74.3800399999998,-29.39827,23.49251,0.5734338,1.18147,0.5723795,-17.47621,-59.64157,-0.8874292
111.385287762,61.0251199999999,-26.83939,21.71472,0.5590142,1.171513,0.5466242,-17.47621,-59.64157,-0.8874292
111.39514637,47.42173,-23.98296,19.99824,0.5666612,1.148096,0.5127736,-17.47621,-59.64157,-0.8874292
111.405005932,34.25315,-20.17439,18.77218,0.5734841,1.105674,0.4735032,-17.47621,-59.64157,-0.8874292
111.414865017,22.57536,-15.29465,18.15915,0.5956056,1.038171,0.4577631,-17.47621,-59.64157,-0.8874292
111.424723625,14.1276,-8.92719699999999,18.34306,0.6183671,0.9497225,0.4346491,-19.68942,-59.93126,2.904746
111.43458271,10.77334,-1.726616,18.28175,0.6336498,0.8660505,0.4054523,-19.68942,-59.93126,2.904746
111.444441319,11.64296,5.295438,17.3009,0.6429995,0.8085378,0.3588305,-19.68942,-59.93126,2.904746
111.454300881,14.87299,9.996644,14.48097,0.6357297,0.8044512,0.3243973,-19.68942,-59.93126,2.904746
111.46662426,16.98493,13.92423,9.82193800000001,0.6315854,0.8359503,0.2993246,-19.68942,-59.93126,2.904746
111.476483345,14.62453,14.75736,5.83724299999998,0.61066,0.8701891,0.2658887,-20.05918,-59.54721,3.735087
111.48634243,9.15832599999999,14.87638,2.772093,0.6302334,0.8936638,0.2509526,-20.05918,-59.54721,3.735087
111.496201038,1.766533,14.99539,0.1360644,0.6461701,0.8927714,0.2349044,-20.05918,-59.54721,3.735087
111.5060606,-5.81160899999999,15.59048,-2.070843,0.6421465,0.8795232,0.2152027,-20.05918,-59.54721,3.735087
111.515919209,-11.77474,16.18557,-3.664721,0.627514,0.8628058,0.2037694,-20.05918,-59.54721,3.735087
111.525778294,-16.74401,16.48312,-4.032539,0.6271555,0.8413568,0.1944887,-20.05842,-59.17371,4.115399
111.535637856,-20.53308,16.78066,-3.909934,0.6316396,0.8223781,0.1837223,-20.05842,-59.17371,4.115399
111.545496464,-22.08598,17.55428,-4.155146,0.63688,0.8248268,0.1755218,-20.05842,-59.17371,4.115399
111.555355549,-23.39041,18.3279,-4.890781,0.6416471,0.8248346,0.1663492,-20.05842,-59.17371,4.115399
111.565214157,-25.56447,19.45856,-6.17814400000003,0.6369129,0.846183,0.1608464,-20.05842,-59.17371,4.115399
111.575073242,-27.67641,19.75611,-7.95593200000003,0.6336631,0.8572965,0.1475689,-20.07039,-59.19688,2.45104
111.58493185,-30.09893,19.51807,-10.10154,0.6286963,0.8543025,0.1394681,-20.07039,-59.19688,2.45104
111.594791412,-32.45934,19.28004,-12.24714,0.6291663,0.8416074,0.126895,-20.07039,-59.19688,2.45104
111.604650497,-33.95012,18.86348,-14.02493,0.6243742,0.8249928,0.1196351,-20.07039,-59.19688,2.45104
111.614509106,-35.81359,18.3279,-14.94447,0.634755,0.8202323,0.1232806,-20.07039,-59.19688,2.45104
111.624368191,-37.98765,18.03035,-15.68011,0.6244586,0.8074408,0.110381,-20.07959,-59.2147,1.170764
111.634226799,-39.60267,17.13772,-15.4962,0.6229513,0.789352,0.09156106,-20.07959,-59.2147,1.170764
111.646551132,-39.91325,15.47147,-15.98662,0.6136107,0.7790038,0.07914767,-20.07959,-59.2147,1.170764
111.656410217,-39.60267,13.6862,-17.33529,0.61031,0.7741265,0.08394555,-20.07959,-59.2147,1.170764
111.666268825,-39.41632,11.42486,-18.80656,0.5991889,0.7725992,0.09223755,-20.07959,-59.2147,1.170764
111.676127911,-39.7269,9.223027,-20.21653,0.5974085,0.7770262,0.1090723,-19.72059,-59.24752,-0.8796101
111.685986519,-40.34806,7.61628699999998,-20.70695,0.593251,0.7751043,0.1254081,-19.72059,-59.24752,-0.8796101
111.695846081,-40.96922,6.485617,-20.33914,0.601779,0.7742619,0.1401346,-19.72059,-59.24752,-0.8796101
111.705704689,-41.77673,5.77151,-18.86786,0.591697,0.7786195,0.1580455,-19.72059,-59.24752,-0.8796101
111.715563774,-42.14942,4.700349,-17.5805,0.5923172,0.7835433,0.171975,-19.72059,-59.24752,-0.8796101
111.725423336,-41.59038,3.629188,-15.86402,0.5896593,0.8068962,0.1770019,-18.9843,-60.02185,-2.988387
111.735281944,-41.71461,2.319991,-15.18969,0.5804859,0.8423538,0.1812655,-18.9843,-60.02185,-2.988387
111.745141029,-44.19925,0.6537413,-14.51535,0.5892665,0.8531657,0.1888988,-18.9843,-60.02185,-2.988387
111.754999638,-48.05043,-1.548089,-14.51535,0.586324,0.852161,0.1874947,-18.9843,-60.02185,-2.988387
111.764858723,-51.21834,-3.987956,-15.12838,0.5749955,0.859851,0.1886794,-18.9843,-60.02185,-2.988387
111.774718285,-54.38625,-7.08242000000001,-16.72226,0.5799713,0.8774945,0.2103214,-17.50779,-60.07476,-5.556664
111.784576893,-57.80263,-10.2959,-18.92917,0.5871319,0.8869205,0.2414468,-17.50779,-60.07476,-5.556664
111.794435978,-60.65996,-13.33086,-22.11692,0.5965252,0.8896073,0.2868596,-17.50779,-60.07476,-5.556664
111.804294586,-62.8340200000001,-15.23514,-26.04032,0.6009262,0.8897809,0.3227383,-17.50779,-60.07476,-5.556664
111.816618442,-66.1882799999999,-15.29465,-29.59589,0.6200151,0.8915527,0.3608171,-17.50779,-60.07476,-5.556664
111.826478004,-69.4804200000001,-12.85479,-31.18977,0.636516,0.8893566,0.3850026,-17.51975,-60.09792,-7.221025
111.836336613,-72.27563,-8.45112599999998,-32.29322,0.6394781,0.8903667,0.3878441,-17.51975,-60.09792,-7.221025
111.846195698,-74.1391099999998,-2.857286,-33.02885,0.6429906,0.8845635,0.3891827,-17.51975,-60.09792,-7.221025
111.856054306,-74.9466199999999,3.331643,-33.58058,0.6375316,0.8752173,0.3752848,-17.51975,-60.09792,-7.221025
111.865913391,-73.8906500000001,9.223027,-34.31622,0.6291032,0.8555825,0.3498416,-17.51975,-60.09792,-7.221025
111.875771999,-71.0333200000001,13.86472,-35.66488,0.6139464,0.845686,0.3418278,-16.058,-59.06331,-11.01688
111.885631561,-67.30636,16.72116,-38.73003,0.6137779,0.8505203,0.3337246,-16.058,-59.06331,-11.01688
111.895490646,-65.3807699999998,18.14937,-43.38906,0.6126764,0.8762173,0.3114347,-16.058,-59.06331,-11.01688
111.905349255,-65.5671199999997,18.38741,-48.53851,0.6204964,0.8893315,0.2865156,-16.058,-59.06331,-11.01688
111.915208817,-68.61079,18.80397,-52.58451,0.6395695,0.8973107,0.2930199,-16.058,-59.06331,-11.01688
111.925067425,-73.5179500000003,19.28004,-55.58836,0.6386309,0.8852428,0.3212042,-13.46951,-59.14698,-14.87123
111.93492651,-77.5554900000002,20.47022,-58.2856899999998,0.644888,0.8625937,0.3654894,-13.46951,-59.14698,-14.87123
111.944785118,-78.17664,24.10026,-60.1247800000002,0.6663167,0.816781,0.4256557,-13.46951,-59.14698,-14.87123
111.954644203,-75.2572000000002,30.28919,-61.9025700000002,0.6943592,0.7846324,0.4805719,-13.46951,-59.14698,-14.87123
111.964503765,-69.5425299999999,39.21553,-63.7416600000001,0.7173301,0.7665478,0.5347205,-13.46951,-59.14698,-14.87123
111.974362373,-62.39921,49.09401,-65.1516299999998,0.7105608,0.7583451,0.5692502,-10.19538,-59.23767,-18.6651
111.984221458,-56.43608,59.3295499999999,-64.7838100000001,0.6977222,0.7641922,0.6015888,-10.19538,-59.23767,-18.6651
111.996545315,-53.33028,71.1123199999998,-62.5769,0.6716136,0.7956454,0.6161232,-10.19538,-59.23767,-18.6651
112.006403923,-54.5726,78.55093,-60.1247800000002,0.6609974,0.8301207,0.6213574,-10.19538,-59.23767,-18.6651
112.016263485,-58.9207199999998,83.7877199999998,-57.7952699999998,0.6432577,0.8712921,0.6123737,-10.19538,-59.23767,-18.6651
112.026122093,-63.95211,89.0245100000002,-56.5079,0.6400325,0.8770421,0.5961755,-7.604456,-58.57257,-21.63081
112.035981178,-67.7411700000002,93.5471899999998,-55.52705,0.6453049,0.8877997,0.5976288,-7.604456,-58.57257,-21.63081
112.045839787,-70.5363899999998,99.3790699999999,-55.52705,0.6635131,0.8757853,0.5948718,-7.604456,-58.57257,-21.63081
112.055698872,-71.8408199999998,106.8177,-55.83357,0.6751422,0.8427932,0.5934693,-7.604456,-58.57257,-21.63081
112.065558434,-70.8469700000002,113.8992,-56.07878,0.6683421,0.8096822,0.6038291,-7.604456,-58.57257,-21.63081
112.075417042,-67.8032900000002,120.5642,-55.83357,0.6503161,0.7701318,0.6104611,-1.654741,-57.58352,-25.00174
112.085276127,-64.5732599999998,126.8722,-56.32399,0.6494305,0.771126,0.6181493,-1.654741,-57.58352,-25.00174
112.095134735,-62.21286,131.5139,-55.64966,0.63429,0.7939454,0.6401216,-1.654741,-57.58352,-25.00174
112.104994297,-63.2067100000003,136.6912,-55.58836,0.6364782,0.814046,0.6747624,-1.654741,-57.58352,-25.00174
112.114852905,-65.5050000000003,143.8322,-57.3048400000002,0.636564,0.8409229,0.7046984,-1.654741,-57.58352,-25.00174
112.12471199,-67.7411700000002,150.7353,-59.75696,0.6290861,0.8599939,0.7471355,2.425829,-55.45774,-27.60617
112.134571075,-71.1575499999999,157.7573,-61.2895400000003,0.6052179,0.8812926,0.7735322,2.425829,-55.45774,-27.60617
112.144429684,-75.3814300000001,164.0653,-60.30869,0.5625133,0.8999152,0.7795691,2.425829,-55.45774,-27.60617
112.154289246,-81.53091,170.6113,-57.9791800000002,0.536276,0.8938736,0.7875593,2.425829,-55.45774,-27.60617
112.166613102,-90.3513599999998,177.3953,-53.38145,0.4879923,0.8583339,0.767342,2.425829,-55.45774,-27.60617
112.17647171,-94.69948,181.5609,-49.82587,0.4230067,0.8304388,0.7488648,9.439171,-53.7277,-29.77385
112.186330795,-95.8796800000002,185.3695,-47.18985,0.3579764,0.8249893,0.7468704,9.439171,-53.7277,-29.77385
112.196189404,-95.69334,187.2738,-46.45421,0.2869542,0.8199414,0.7363393,9.439171,-53.7277,-29.77385
112.206048966,-96.00391,187.3928,-46.08639,0.238232,0.8312817,0.7610894,9.439171,-53.7277,-29.77385
112.215907574,-98.7370100000002,187.5118,-46.3316,0.1835772,0.8863574,0.7838971,9.439171,-53.7277,-29.77385
112.225766659,-104.5138,187.2143,-46.45421,0.1324871,0.9488268,0.8234884,16.14137,-50.93939,-31.11843
112.235625744,-112.2783,189.2376,-47.31245,0.1239526,0.9931197,0.8465062,16.14137,-50.93939,-31.11843
112.245484352,-121.782,192.5701,-48.47721,0.1294892,1.014558,0.8408579,16.14137,-50.93939,-31.11843
112.255343914,-133.4598,197.9259,-48.04809,0.1414036,0.9504012,0.8329586,16.14137,-50.93939,-31.11843
112.265202522,-143.3362,204.7694,-46.51551,0.1255919,0.8956715,0.8092413,16.14137,-50.93939,-31.11843
112.275061607,-149.3615,208.3994,-46.08639,0.0336045,0.8292936,0.7141523,23.53358,-47.34352,-31.19445
112.284920216,-152.2188,205.1264,-46.51551,-0.09547887,0.7865332,0.6461473,23.53358,-47.34352,-31.19445
112.294779778,-153.5854,196.2596,-46.94463,-0.2066833,0.7739221,0.6600849,23.53358,-47.34352,-31.19445
112.304638863,-156.6291,187.8093,-47.92548,-0.2320459,0.7733653,0.7011737,23.53358,-47.34352,-31.19445
112.314497471,-160.356,183.4652,-49.51936,-0.2340417,0.7570074,0.7556928,23.53358,-47.34352,-31.19445
112.324356556,-162.468,182.4535,-50.13239,-0.2237951,0.7284207,0.7644104,29.86288,-42.99912,-31.27254
112.334215164,-164.3935,182.394,-50.07109,-0.2423828,0.675175,0.7536835,29.86288,-42.99912,-31.27254
112.346539021,-167.2509,179.1806,-48.47721,-0.3225861,0.6396719,0.6888766,29.86288,-42.99912,-31.27254
112.356398583,-172.2202,172.9916,-46.39291,-0.3910257,0.6125793,0.6330779,29.86288,-42.99912,-31.27254
112.366257191,-179.6119,162.042,-43.45036,-0.4496873,0.5793598,0.6072776,36.87811,-37.60708,-30.46865
112.376116276,-189.2399,151.1518,-39.95609,-0.4474188,0.5108964,0.6416491,36.87811,-37.60708,-30.46865
112.385975838,-195.0167,142.7611,-36.27791,-0.4693858,0.4314041,0.6470417,36.87811,-37.60708,-30.46865
112.395834446,-194.0849,134.3108,-33.64188,-0.5116214,0.3676501,0.6149992,36.87811,-37.60708,-30.46865
112.405693531,-188.5566,124.0158,-31.8028,-0.5461434,0.3343382,0.6372533,36.87811,-37.60708,-30.46865
112.415552139,-183.5253,115.0894,-29.41198,-0.5443939,0.3352729,0.6228603,36.87811,-37.60708,-30.46865
112.425411224,-179.1771,107.1747,-27.7568,-0.5360963,0.3575293,0.5692595,42.83239,-31.40071,-29.3474
112.435269833,-176.941,99.4385700000001,-27.94071,-0.5095974,0.3804632,0.5235514,42.83239,-31.40071,-29.3474
112.445129395,-176.8788,90.3932099999998,-28.86025,-0.4966572,0.3556042,0.4819461,42.83239,-31.40071,-29.3474
112.454988003,-180.1089,79.4435699999999,-28.67634,-0.5089799,0.3141053,0.4745835,42.83239,-31.40071,-29.3474
112.464847088,-183.7737,70.4577200000001,-27.38898,-0.5165545,0.2517501,0.4741652,42.83239,-31.40071,-29.3474
112.47470665,-186.8174,60.1031600000003,-24.07862,-0.5510165,0.1627975,0.4518625,46.16985,-26.65363,-29.4138
112.484565258,-185.1403,48.73696,-19.97132,-0.6297382,0.1201232,0.4176428,46.16985,-26.65363,-29.4138
112.494424343,-178.4317,37.19223,-17.39659,-0.7047467,0.1311314,0.4159295,46.16985,-26.65363,-29.4138
112.504282951,-173.0898,27.37325,-15.61881,-0.7134531,0.1481695,0.4382406,46.16985,-26.65363,-29.4138
112.516606808,-169.1765,17.43526,-12.79887,-0.7266273,0.1130451,0.4457991,49.49961,-20.49533,-29.49466
112.526465893,-164.0208,11.18682,-10.65326,-0.7364188,0.0890331,0.424172,49.49961,-20.49533,-29.49466
112.536324501,-157.2502,5.116912,-10.40805,-0.7149724,0.06186085,0.3944059,49.49961,-20.49533,-29.49466
112.546184063,-151.7219,-1.310053,-10.59196,-0.6831071,0.0547033,0.356993,49.49961,-20.49533,-29.49466
112.556042671,-149.5478,-6.07076799999999,-10.10154,-0.6596193,0.04514864,0.3489104,49.49961,-20.49533,-29.49466
112.565901756,-148.9267,-10.71247,-8.81417400000002,-0.6564629,-0.01467898,0.3483605,50.21624,-16.47126,-30.75626
112.575761318,-147.8707,-15.35416,-5.381206,-0.6882365,-0.1152582,0.3335885,50.21624,-16.47126,-30.75626
112.585619926,-142.9014,-20.05537,-1.089996,-0.7339286,-0.1922339,0.287587,50.21624,-16.47126,-30.75626
112.595479011,-132.9008,-24.57805,1.055609,-0.712211,-0.2295816,0.2687527,50.21624,-16.47126,-30.75626
112.60533762,-120.5397,-27.85104,2.342972,-0.6390391,-0.221532,0.2960505,50.21624,-16.47126,-30.75626
112.615196705,-110.9738,-27.91055,4.427274,-0.5875364,-0.1747914,0.3110453,49.80721,-11.69885,-32.08362
112.625056267,-104.2653,-28.20809,4.795092,-0.5775985,-0.136226,0.3203339,49.80721,-11.69885,-32.08362
112.634914875,-99.79298,-28.08907,3.385123,-0.5966082,-0.1148935,0.3442656,49.80721,-11.69885,-32.08362
112.64477396,-98.2400900000002,-27.73202,3.507729,-0.6248852,-0.1281643,0.3757046,49.80721,-11.69885,-32.08362
112.654632568,-97.8052699999998,-27.79153,4.304668,-0.6957759,-0.1831918,0.4026066,49.80721,-11.69885,-32.08362
112.66449213,-96.99777,-28.08907,6.69548500000003,-0.7538772,-0.2333393,0.4030115,49.80721,-11.69885,-32.08362
112.674351215,-93.3329299999999,-28.68416,7.12460599999999,-0.7314926,-0.277332,0.4272395,49.40098,-8.037109,-33.84777
112.684209824,-88.6742299999999,-28.32711,6.94069700000001,-0.6972231,-0.3187383,0.4642584,49.40098,-8.037109,-33.84777
112.69653368,-83.2080399999999,-26.9584,6.14375800000001,-0.6806898,-0.3725421,0.4812991,49.40098,-8.037109,-33.84777
112.706392288,-78.7356899999998,-24.51854,4.917698,-0.6785567,-0.4016329,0.5045039,49.40098,-8.037109,-33.84777
112.716251373,-74.01488,-21.90014,3.32382,-0.7012041,-0.418338,0.5152281,49.38053,-5.90651,-35.08603
112.726110935,-68.7971399999999,-19.5793,3.017305,-0.7005476,-0.3977804,0.5455819,49.38053,-5.90651,-35.08603
112.735969543,-64.8838400000001,-16.18729,2.894699,-0.6716542,-0.3814044,0.5620802,49.38053,-5.90651,-35.08603
112.745828628,-61.9022800000003,-12.79528,3.32382,-0.6769872,-0.38925,0.5587356,49.38053,-5.90651,-35.08603
112.755687237,-60.16304,-9.52228600000001,3.017305,-0.655054,-0.3788252,0.5618654,49.38053,-5.90651,-35.08603
112.765546799,-60.0387999999999,-5.95174999999997,2.404275,-0.6228544,-0.3756346,0.558079,48.24131,-3.696257,-35.93504
112.775405407,-61.5916999999999,-2.678759,2.281669,-0.6178887,-0.4082814,0.5347311,48.24131,-3.696257,-35.93504
112.785264492,-59.7282200000001,-0.4174196,1.48473,-0.6471687,-0.4387911,0.513327,48.24131,-3.696257,-35.93504
112.795123577,-56.99512,0.713250200000002,0.933003400000002,-0.6815135,-0.4420528,0.5032465,48.24131,-3.696257,-35.93504
112.804982185,-54.01356,0.951286000000001,1.48473,-0.7087802,-0.4350707,0.4830885,48.24131,-3.696257,-35.93504
112.814841747,-52.2122,-0.5364374,2.588184,-0.6994342,-0.4471793,0.4761443,47.10159,-0.3708706,-36.02719
112.824700355,-49.66545,-1.072018,3.93685,-0.6739976,-0.4791773,0.4477182,47.10159,-0.3708706,-36.02719
112.834559441,-44.57194,-1.429071,4.54988,-0.6282592,-0.4886045,0.42111,47.10159,-0.3708706,-36.02719
112.844419002,-39.60267,-0.4174196,3.752941,-0.5686321,-0.4900443,0.415456,47.10159,-0.3708706,-36.02719
112.854277611,-34.57128,1.903429,3.569032,-0.5387926,-0.4907568,0.4145455,47.10159,-0.3708706,-36.02719
112.866601467,-27.49006,4.997894,0.0747613899999998,-0.5294737,-0.43528,0.3933169,47.84228,0.3514466,-36.42268
112.876460075,-23.76311,6.90217999999999,-2.867783,-0.5529477,-0.3824044,0.4046401,47.84228,0.3514466,-36.42268
112.88631916,-25.00543,6.36659899999997,-4.155146,-0.604229,-0.381859,0.4116051,47.84228,0.3514466,-36.42268
112.896178246,-27.49006,3.986242,-3.480813,-0.6065525,-0.4476213,0.3986241,47.84228,0.3514466,-36.42268
112.906036854,-26.30986,2.081956,-2.806479,-0.5789243,-0.5093167,0.3612905,47.84228,0.3514466,-36.42268
112.915896416,-21.96175,-0.2388927,-2.561268,-0.5678816,-0.5209941,0.335637,48.21396,1.831303,-35.60751
112.925755024,-17.17882,-2.738268,-3.542115,-0.5478575,-0.5058259,0.3105612,48.21396,1.831303,-35.60751
112.935614109,-13.94879,-4.523536,-4.277751,-0.5540899,-0.5137927,0.2770388,48.21396,1.831303,-35.60751
112.945473671,-10.40819,-7.61800100000003,-5.258599,-0.5799655,-0.527325,0.2332071,48.21396,1.831303,-35.60751
112.955332279,-5.376798,-10.89099,-6.484659,-0.5814764,-0.5484793,0.1755462,48.21396,1.831303,-35.60751
112.965191364,3.070966,-14.46153,-6.91378000000003,-0.5715526,-0.5367704,0.1601692,48.58292,2.189788,-35.9973
112.975049973,10.58699,-17.67501,-6.42335699999998,-0.5466659,-0.5180145,0.1719528,48.58292,2.189788,-35.9973
112.984909058,17.35763,-19.34126,-5.565114,-0.5202,-0.5114195,0.1812152,48.58292,2.189788,-35.9973
112.99476862,24.25249,-20.82898,-5.381206,-0.5215279,-0.4841871,0.1795472,48.58292,2.189788,-35.9973
113.004627228,27.23406,-22.61425,-6.05553799999998,-0.5107398,-0.4441849,0.1806894,48.58292,2.189788,-35.9973
113.014486313,29.15965,-25.35166,-6.852478,-0.5144002,-0.4627001,0.1829813,48.20274,2.181632,-36.89156
113.024344921,32.0791,-27.97005,-7.52680999999998,-0.5026529,-0.4738233,0.1736152,48.20274,2.181632,-36.89156
113.034204483,36.67568,-30.70747,-8.20114400000001,-0.4991385,-0.5001316,0.1570503,48.20274,2.181632,-36.89156
113.046528339,45.93095,-36.06327,-9.05938500000003,-0.5023401,-0.5046275,0.1335772,48.20274,2.181632,-36.89156
113.056386948,53.44697,-39.27676,-8.56896199999998,-0.4756614,-0.4522137,0.1628705,48.20274,2.181632,-36.89156
113.066246033,60.5281900000002,-39.99086,-9.30459799999998,-0.4476644,-0.4333818,0.1875488,46.70708,1.825403,-37.26414
113.076104641,69.59711,-39.45528,-10.71457,-0.4623714,-0.4042271,0.211006,46.70708,1.825403,-37.26414
113.085963726,78.5418100000001,-39.5743,-12.67626,-0.5043495,-0.3747916,0.2439591,46.70708,1.825403,-37.26414
113.095823288,85.4987899999998,-40.28841,-13.84102,-0.5267891,-0.3737261,0.321439,46.70708,1.825403,-37.26414
113.105681896,89.9711399999999,-40.82399,-11.57281,-0.5559793,-0.3913812,0.3538124,46.70708,1.825403,-37.26414
113.115540981,95.1267500000002,-42.01417,-9.05938500000003,-0.5899059,-0.3935471,0.3753624,45.20375,1.082318,-38.97725
113.12539959,103.2018,-43.50189,-8.01723500000002,-0.5604465,-0.3605451,0.4121194,45.20375,1.082318,-38.97725
113.135259151,111.4011,-43.02582,-8.07853800000002,-0.4933219,-0.3150045,0.459467,45.20375,1.082318,-38.97725
113.14511776,116.5567,-40.05037,-7.77202200000001,-0.4205754,-0.298506,0.5347621,45.20375,1.082318,-38.97725
113.154976845,119.7868,-34.81358,-8.87547700000001,-0.4139122,-0.3158041,0.5776492,45.20375,1.082318,-38.97725
113.16483593,123.638,-29.99336,-9.54980899999999,-0.449516,-0.3096077,0.6270872,43.70896,-2.248492,-41.43213
113.174694538,126.1226,-27.85104,-9.05938500000003,-0.5131642,-0.2589224,0.6681957,43.70896,-2.248492,-41.43213
113.1845541,125.1287,-29.10073,-7.89462899999998,-0.5467798,-0.1763186,0.7153751,43.70896,-2.248492,-41.43213
113.194412708,122.2714,-32.2547,-6.23944799999999,-0.5873343,-0.1201653,0.7327197,43.70896,-2.248492,-41.43213
113.204271793,120.2216,-36.83689,-5.749023,-0.6201803,-0.09864064,0.7108471,43.70896,-2.248492,-41.43213
113.21659565,119.6625,-41.95466,-6.11684099999997,-0.5890592,-0.08425809,0.7095666,42.60062,-5.186961,-41.84426
113.226454258,119.7868,-44.09698,-8.56896199999998,-0.5520837,-0.07896921,0.734961,42.60062,-5.186961,-41.84426
113.23631382,119.9731,-44.9301,-11.4502,-0.5228767,-0.08726814,0.7886243,42.60062,-5.186961,-41.84426
113.246172905,119.0414,-46.06077,-12.06323,-0.5242542,-0.07944382,0.8021275,42.60062,-5.186961,-41.84426
113.256031513,120.9049,-47.5485,-14.63796,-0.4638301,-0.002457265,0.816292,42.60062,-5.186961,-41.84426
113.265890598,115.3765,-43.08533,-15.06708,-0.3220812,-0.06185665,0.8621696,41.11871,-9.174891,-43.01195
113.275749207,112.5813,-39.15774,-13.59581,-0.3358986,-0.1421641,0.8904408,41.11871,-9.174891,-43.01195
113.285608769,118.2339,-38.56265,-14.88317,-0.4805986,-0.1664999,0.8415025,41.11871,-9.174891,-43.01195
113.295467377,129.6011,-41.00251,-21.99432,-0.4873643,-0.1294317,0.8802477,41.11871,-9.174891,-43.01195
113.305326462,134.1355,-44.45403,-24.69165,-0.4817376,-0.08257939,0.9035645,41.11871,-9.174891,-43.01195
113.315186024,132.6448,-48.56015,-23.52689,-0.4700002,-0.04452981,0.9008432,39.64864,-13.2019,-42.57866
113.325044632,130.0359,-52.30921,-20.09392,-0.4502254,-0.0007624784,0.8467812,39.64864,-13.2019,-42.57866
113.334903717,128.7315,-54.45153,-17.09008,-0.3953189,0.05744968,0.7985699,39.64864,-13.2019,-42.57866
113.344762325,130.4707,-56.83189,-14.69926,-0.3562942,0.07129999,0.7665035,39.64864,-13.2019,-42.57866
113.35462141,136.5581,-58.2601099999998,-14.39275,-0.3415907,0.09571408,0.7540408,39.64864,-13.2019,-42.57866
113.364480972,144.8816,-60.7594799999998,-17.76441,-0.3697925,0.1277345,0.7949657,38.54355,-17.25016,-43.36357
113.374339581,148.857,-66.1747999999998,-21.93301,-0.3878387,0.1487185,0.8533831,38.54355,-17.25016,-43.36357
113.384198666,148.0495,-71.35207,-23.7721,-0.3719835,0.1685787,0.921371,38.54355,-17.25016,-43.36357
113.396522522,142.7075,-76.0532799999998,-21.93301,-0.2840667,0.215701,0.9521429,38.54355,-17.25016,-43.36357
113.40638113,135.7506,-78.2550999999997,-19.05177,-0.2044535,0.2688299,0.9174334,38.54355,-17.25016,-43.36357
113.416240692,128.3588,-80.0998800000003,-15.31229,-0.1717204,0.321431,0.8527188,36.70021,-21.27197,-42.86434
113.4260993,122.9547,-82.7777900000002,-12.73757,-0.1615343,0.3498971,0.7636828,36.70021,-21.27197,-42.86434
113.435958386,119.6004,-87.3004699999998,-10.59196,-0.2097301,0.3332882,0.7306856,36.70021,-21.27197,-42.86434
113.445816994,119.7868,-95.0366300000001,-11.94063,-0.282753,0.3216456,0.7829024,36.70021,-21.27197,-42.86434
113.455676079,121.4018,-103.1894,-15.98662,-0.2938739,0.2961127,0.877727,36.70021,-21.27197,-42.86434
113.465535641,122.0851,-108.1286,-19.97132,-0.1944913,0.2900963,0.985038,34.17492,-25.96169,-42.41867
113.475394249,120.1595,-109.1998,-18.92917,-0.1180523,0.2855727,1.025601,34.17492,-25.96169,-42.41867
113.485253334,117.0537,-108.7237,-15.06708,-0.0687956,0.3126844,1.002126,34.17492,-25.96169,-42.41867
113.495111942,113.6373,-108.4856,-9.91762700000002,-0.03622624,0.3515685,0.9133381,34.17492,-25.96169,-42.41867
113.504971504,113.5752,-108.9022,-5.442508,-0.03498326,0.3867525,0.8201733,34.17492,-25.96169,-42.41867
113.514830589,116.7431,-112.5323,-3.2356,-0.08714791,0.4313394,0.7652268,30.08921,-29.9576,-41.90784
113.524689198,120.5943,-119.7328,-4.277751,-0.127466,0.4808601,0.8299528,30.08921,-29.9576,-41.90784
113.534548283,120.3458,-124.7911,-6.72987099999998,-0.1103803,0.5810879,0.9153735,30.08921,-29.9576,-41.90784
113.544406891,113.2646,-126.3978,-7.52680999999998,-0.04200875,0.6062082,0.9644477,30.08921,-29.9576,-41.90784
113.554266453,104.1336,-125.5052,-5.381206,0.02646112,0.5752105,0.9713567,30.08921,-29.9576,-41.90784
113.566590309,98.1704300000002,-121.8752,-0.5382686,0.05475007,0.5188037,0.9153695,26.36877,-33.60215,-42.29892
113.576448917,100.7793,-117.7095,2.526881,0.05989919,0.464592,0.8506259,26.36877,-33.60215,-42.29892
113.586308002,109.724,-113.7819,4.059456,0.04972914,0.4311957,0.7929851,26.36877,-33.60215,-42.29892
113.596167564,121.9608,-111.8777,3.998153,0.06076988,0.4362528,0.8177887,26.36877,-33.60215,-42.29892
113.606026173,131.2782,-109.4973,2.956002,0.07009006,0.5279938,0.8644333,26.36877,-33.60215,-42.29892
113.615885258,131.2161,-106.8789,2.404275,0.08916043,0.5906535,0.9188399,22.65955,-37.59703,-41.40595
113.625743866,126.6816,-104.0225,2.956002,0.0930373,0.6152242,0.9736207,22.65955,-37.59703,-41.40595
113.635602951,120.5322,-102.4157,4.365971,0.08755559,0.6341888,0.9829637,22.65955,-37.59703,-41.40595
113.645461559,114.1963,-100.571,7.12460599999999,0.08897728,0.6341887,0.979589,22.65955,-37.59703,-41.40595
113.655321121,109.4755,-98.6666699999998,11.1093,0.05828878,0.6118475,0.9338347,22.65955,-37.59703,-41.40595
113.665180206,108.4817,-97.6550199999998,16.32006,0.04165706,0.57446,0.8652307,17.89829,-41.13235,-39.23162
113.675038814,112.3329,-97.4764900000002,21.59211,0.04232214,0.5770384,0.7727575,17.89829,-41.13235,-39.23162
113.684898376,120.4079,-98.36913,25.82202,0.05187287,0.5947174,0.6635131,17.89829,-41.13235,-39.23162
113.694756985,131.3403,-99.7973400000001,27.90632,0.07685629,0.6320011,0.5551726,17.89829,-41.13235,-39.23162
113.70461607,143.3287,-102.1182,28.70326,0.1198152,0.6719858,0.4758299,17.89829,-41.13235,-39.23162
113.714475155,153.5778,-103.963,29.74541,0.1669045,0.7102494,0.4467297,14.21148,-45.82789,-35.77056
113.724333763,156.9942,-105.2722,31.76841,0.2290457,0.7591381,0.4903429,14.21148,-45.82789,-35.77056
113.734193325,152.3355,-105.4507,34.09793,0.3125056,0.8092706,0.5557061,14.21148,-45.82789,-35.77056
113.746517181,136.4959,-102.7133,39.24738,0.3949492,0.8258309,0.6246339,14.21148,-45.82789,-35.77056
113.75637579,123.638,-99.4997900000001,45.92941,0.4321696,0.760532,0.6417619,14.21148,-45.82789,-35.77056
113.766234875,120.47,-95.4531900000002,50.58843,0.4576067,0.7202343,0.6060777,9.407465,-50.13074,-31.47529
113.776093483,123.4516,-92.6562700000002,53.22446,0.4682311,0.7036906,0.5813475,9.407465,-50.13074,-31.47529
113.785953045,130.2844,-91.46609,56.1057,0.4304109,0.7079253,0.5023752,9.407465,-50.13074,-31.47529
113.79581213,140.9062,-91.5255999999999,58.0674000000003,0.3996246,0.723991,0.4473624,9.407465,-50.13074,-31.47529
113.805670738,151.8386,-91.1090399999997,58.7417300000001,0.3840544,0.784499,0.3992166,9.407465,-50.13074,-31.47529
113.815529823,159.4167,-92.5967599999997,59.96779,0.379966,0.831014,0.3555811,5.040636,-53.6303,-26.42228
113.825388432,161.7771,-92.5372499999998,62.3586099999999,0.4087985,0.8843427,0.3642458,5.040636,-53.6303,-26.42228
113.835247993,159.4167,-92.1802000000002,64.7494200000002,0.4310319,0.9331527,0.3514025,5.040636,-53.6303,-26.42228
113.845106602,152.5219,-89.9188600000001,67.5693600000003,0.4711562,0.9846397,0.3613283,5.040636,-53.6303,-26.42228
113.854965687,144.3847,-85.9317599999999,70.0214800000001,0.5183147,1.013294,0.3647316,5.040636,-53.6303,-26.42228
113.864825249,137.1171,-81.4090800000003,71.8605699999999,0.5596434,1.055089,0.3827049,-0.4912205,-57.5145,-19.11826
113.874683857,128.1724,-75.45819,75.2935300000002,0.6328145,1.019822,0.4077203,-0.4912205,-57.5145,-19.11826
113.884542942,123.5137,-69.1502399999998,77.1939199999999,0.6685236,1.002696,0.4281516,-0.4912205,-57.5145,-19.11826
113.894402027,120.0974,-63.3778700000001,78.9717099999999,0.6804621,0.9590516,0.4400724,-0.4912205,-57.5145,-19.11826
113.904260635,119.4141,-58.0815800000001,81.42384,0.6863283,0.9143208,0.4362568,-0.4912205,-57.5145,-19.11826
113.916584969,122.1472,-53.79694,84.2437699999998,0.667915,0.9023537,0.4028743,-4.537113,-59.94516,-11.96509
113.926443577,123.5137,-52.13068,86.4506799999999,0.677923,0.9305511,0.3723009,-4.537113,-59.94516,-11.96509
113.936302662,122.8305,-52.07117,87.1863199999999,0.6654547,1.016032,0.3583448,-4.537113,-59.94516,-11.96509
113.946161747,115.9977,-52.42823,85.1633099999999,0.6749322,1.077413,0.3539357,-4.537113,-59.94516,-11.96509
113.956020355,104.1336,-53.02332,82.7111999999998,0.7013534,1.131706,0.3659974,-4.537113,-59.94516,-11.96509
113.965879917,89.9090199999999,-52.2497,79.5847399999999,0.7441752,1.16034,0.3742543,-9.714525,-60.89473,-5.141271
113.975738525,73.7588800000003,-51.11903,75.5387399999999,0.7717679,1.13574,0.3669446,-9.714525,-60.89473,-5.141271
113.98559761,58.1056699999998,-51.89265,71.0023300000003,0.8279227,1.046646,0.352454,-9.714525,-60.89473,-5.141271
113.995456696,47.2975,-50.46444,67.8758699999998,0.8615552,0.9802931,0.3566859,-9.714525,-60.89473,-5.141271
114.005315304,41.76918,-48.08408,62.2359999999999,0.8814683,0.9406655,0.3829028,-9.714525,-60.89473,-5.141271
114.015174866,38.84974,-45.40617,54.20531,0.8926651,0.9325849,0.4075934,-14.47558,-61.14334,-0.5037165
114.025033474,38.16646,-41.95466,46.17462,0.9074431,0.9123738,0.433089,-14.47558,-61.14334,-0.5037165
114.034892559,41.08591,-37.72952,40.53474,0.9096678,0.8706152,0.4518728,-14.47558,-61.14334,-0.5037165
114.044752121,42.20399,-33.5639,35.6305,0.8757414,0.8816315,0.4850349,-14.47558,-61.14334,-0.5037165
114.054610729,36.79991,-30.11238,32.07493,0.8188343,0.9390467,0.4882473,-14.47558,-61.14334,-0.5037165
114.064469814,22.3269,-28.14858,30.60365,0.7621705,1.010555,0.4858248,-18.19571,-60.32291,2.452694
114.074328423,2.449807,-25.76822,30.84887,0.696074,1.006401,0.4426454,-18.19571,-60.32291,2.452694
114.086652279,-19.47711,-23.56639,30.66496,0.6490238,0.9234498,0.363548,-18.19571,-60.32291,2.452694
114.096511841,-30.03682,-22.2572,30.66496,0.6331009,0.9104053,0.296577,-18.19571,-60.32291,2.452694
114.106370449,-36.74533,-20.47193,28.64196,0.6449758,0.9143183,0.2739184,-18.19571,-60.32291,2.452694
114.116229534,-41.96307,-18.09157,25.63811,0.6429753,0.9108708,0.2676882,-20.0624,-59.55344,3.286991
114.126088619,-43.70232,-14.46153,20.97908,0.6564836,0.8915443,0.2726038,-20.0624,-59.55344,3.286991
114.135947228,-43.20539,-9.99835799999999,15.89093,0.6506411,0.8875946,0.2712161,-20.0624,-59.55344,3.286991
114.145806789,-40.96922,-6.30880399999998,10.92539,0.6460679,0.8866656,0.2937958,-20.0624,-59.55344,3.286991
114.155665398,-38.98151,-3.452375,6.51157599999998,0.6327875,0.9060571,0.3056495,-20.0624,-59.55344,3.286991
114.165524483,-39.10574,-1.607598,3.201214,0.6188831,0.9527465,0.3316393,-21.19634,-58.82113,2.068981
114.175383091,-43.51597,-0.8339821,-0.1704506,0.6140981,1.014115,0.357623,-21.19634,-58.82113,2.068981
114.185242176,-51.59104,0.0586519300000001,-3.419509,0.6222177,1.036103,0.3624848,-21.19634,-58.82113,2.068981
114.195101738,-59.2313000000002,2.3795,-7.09768900000001,0.6396438,1.024624,0.3745988,-21.19634,-58.82113,2.068981
114.204960346,-65.5671199999997,5.592983,-10.22414,0.6382074,1.006067,0.3605659,-21.19634,-58.82113,2.068981
114.214819431,-69.9773499999998,9.10401,-12.79887,0.6420066,0.9700755,0.3563744,-21.963,-58.1056,-0.04715157
114.22467804,-73.3937199999998,12.73405,-13.96363,0.6429122,0.9519991,0.3351241,-21.963,-58.1056,-0.04715157
114.234537602,-75.8783599999997,15.88803,-16.59965,0.6296834,0.940647,0.3237161,-21.963,-58.1056,-0.04715157
114.244396687,-77.3070200000002,17.6733,-19.72611,0.6217178,0.946885,0.3190902,-21.963,-58.1056,-0.04715157
114.254255295,-78.7978099999998,18.80397,-23.95601,0.627889,0.9786225,0.3331669,-21.963,-58.1056,-0.04715157
114.266579151,-82.1520599999998,18.80397,-29.10546,0.6275254,1.001601,0.3625972,-21.9866,-58.89535,-3.88044
114.276438713,-87.24557,17.07821,-32.53843,0.6252912,1.04265,0.4142498,-21.9866,-58.89535,-3.88044
114.286297321,-96.4387299999999,14.75736,-34.62273,0.6228307,1.063754,0.4676541,-21.9866,-58.89535,-3.88044
114.296156406,-107.0605,11.66289,-34.37752,0.5916701,1.109276,0.4828584,-21.9866,-58.89535,-3.88044
114.306015015,-118.6762,9.63958999999999,-34.56143,0.6064619,1.141174,0.5193359,-21.9866,-58.89535,-3.88044
114.3158741,-130.7267,8.62793800000003,-33.8871,0.5953385,1.125,0.5145659,-20.52481,-58.97676,-8.497159
114.325733662,-139.982,7.37825099999999,-34.86794,0.60346,1.088048,0.5035961,-20.52481,-58.97676,-8.497159
114.33559227,-145.0134,6.90217999999999,-37.93309,0.5990437,1.087028,0.5017335,-20.52481,-58.97676,-8.497159
114.345451355,-149.2994,6.96168900000003,-41.54997,0.6001903,1.125032,0.511622,-20.52481,-58.97676,-8.497159
114.355309963,-155.3246,8.27088499999999,-44.86033,0.5999982,1.144506,0.5146642,-20.52481,-58.97676,-8.497159
114.365169048,-162.2195,9.520573,-46.08639,0.6115777,1.139329,0.5341026,-18.32878,-58.34833,-14.40556
114.37502861,-165.9464,13.32914,-47.74157,0.6156914,1.12575,0.5368046,-18.32878,-58.34833,-14.40556
114.384887219,-166.3813,17.61379,-51.17454,0.6198631,1.124882,0.5549474,-18.32878,-58.34833,-14.40556
114.394746304,-165.4495,22.3745,-53.99448,0.6249343,1.136694,0.5784556,-18.32878,-58.34833,-14.40556
114.404604912,-166.8161,27.78982,-57.18224,0.6316421,1.148567,0.6144001,-18.32878,-58.34833,-14.40556
114.414464474,-169.2386,32.61004,-60.9830199999999,0.5993873,1.143408,0.6124203,-16.52568,-57.00869,-22.43203
114.424323559,-172.5928,37.13272,-63.9255699999999,0.6000767,1.133704,0.6185582,-16.52568,-57.00869,-22.43203
114.434182167,-176.5683,41.35785,-65.5194500000001,0.581908,1.081419,0.6035208,-16.52568,-57.00869,-22.43203
114.446506024,-178.556,44.69035,-64.5385999999999,0.5272291,1.03849,0.5742273,-16.52568,-57.00869,-22.43203
114.456365585,-178.7423,46.95169,-63.5577500000002,0.5333707,1.020555,0.5783013,-16.52568,-57.00869,-22.43203
114.466224194,-178.6181,50.70075,-62.5156000000002,0.5680526,0.979484,0.5741059,-12.85398,-54.57461,-29.64729
114.476083279,-175.0775,54.80687,-62.9447200000003,0.5576698,0.9437211,0.5346578,-12.85398,-54.57461,-29.64729
114.485941887,-168.9901,57.6037899999997,-64.9677300000003,0.5689473,0.9062348,0.5035118,-12.85398,-54.57461,-29.64729
114.495800972,-164.2072,59.5675799999998,-66.3776899999997,0.5806527,0.8931466,0.4893378,-12.85398,-54.57461,-29.64729
114.505660534,-163.2755,61.4123599999997,-67.9715699999999,0.6000468,0.8894998,0.509157,-12.85398,-54.57461,-29.64729
114.515519142,-166.1949,63.7927200000002,-66.9294199999998,0.5975089,0.8544349,0.5074596,-8.139061,-50.38495,-37.71842
114.525378227,-169.1143,66.4111099999999,-65.7646599999998,0.5862062,0.7973331,0.4894085,-8.139061,-50.38495,-37.71842
114.535236836,-169.6734,66.88718,-65.4581500000002,0.5563295,0.7390948,0.4716124,-8.139061,-50.38495,-37.71842
114.545095921,-167.2509,66.5301300000003,-64.9064200000001,0.5545322,0.689459,0.4755319,-8.139061,-50.38495,-37.71842
114.554955483,-162.9649,65.69701,-62.8834199999999,0.5060336,0.6544815,0.4759279,-8.139061,-50.38495,-37.71842
114.564814091,-157.9956,62.42402,-61.1056299999998,0.4748225,0.6625316,0.4903375,-3.351023,-45.36896,-43.68559
114.574673176,-154.9519,60.28169,-60.1247800000002,0.4770291,0.6608025,0.5430034,-3.351023,-45.36896,-43.68559
114.584531784,-152.1567,58.8534799999999,-58.8374199999999,0.4463956,0.6026186,0.5415114,-3.351023,-45.36896,-43.68559
114.594391346,-149.0509,56.23508,-58.4696000000002,0.4153115,0.5483472,0.5462884,-3.351023,-45.36896,-43.68559
114.604250431,-146.5663,53.6762,-56.99833,0.4193887,0.5197583,0.5689906,-3.351023,-45.36896,-43.68559
114.61657381,-147.0011,51.29585,-54.3623,0.4145276,0.530953,0.5811343,1.438984,-39.60509,-48.82813
114.626432896,-150.5417,50.70075,-51.17454,0.4257814,0.5131241,0.601429,1.438984,-39.60509,-48.82813
114.636292457,-153.6475,50.46272,-47.74157,0.4308409,0.4698982,0.6115345,1.438984,-39.60509,-48.82813
114.646151066,-152.2809,50.04615,-47.06724,0.441428,0.4296912,0.6350043,1.438984,-39.60509,-48.82813
114.656010151,-150.169,49.92714,-47.80288,0.4886255,0.368928,0.670238,1.438984,-39.60509,-48.82813
114.665868759,-144.9513,51.95044,-49.15154,0.4893183,0.3106736,0.7056764,5.422755,-32.77097,-52.69688
114.675727844,-138.4291,54.62835,-50.62281,0.4897971,0.2572404,0.7296578,5.422755,-32.77097,-52.69688
114.685586452,-133.584,57.6633000000002,-50.00978,0.4831403,0.2285642,0.7544291,5.422755,-32.77097,-52.69688
114.695446014,-128.8011,60.8172699999999,-47.86418,0.4370847,0.2173954,0.7396569,5.422755,-32.77097,-52.69688
114.705305099,-124.5772,61.8289300000001,-43.75688,0.3623645,0.2035862,0.7372508,5.422755,-32.77097,-52.69688
114.715163708,-120.9124,61.5313800000001,-38.60743,0.2899388,0.2107493,0.7421771,9.112698,-25.83715,-54.06812
114.725022793,-116.9991,60.0436600000001,-34.25491,0.2681077,0.207677,0.7530048,9.112698,-25.83715,-54.06812
114.734882355,-112.1541,58.5559299999998,-31.74149,0.2864512,0.1903306,0.7554721,9.112698,-25.83715,-54.06812
114.744740963,-107.3711,57.9608500000003,-30.63804,0.3185403,0.1600723,0.7859073,9.112698,-25.83715,-54.06812
114.754600048,-103.2715,57.9013399999998,-29.96371,0.348372,0.1293579,0.8297884,9.112698,-25.83715,-54.06812
114.764458656,-101.0353,59.9246399999997,-28.61504,0.3830679,0.1025848,0.8750712,13.17996,-20.07879,-55.81342
114.774318218,-100.1657,62.1264699999999,-28.12462,0.3556181,0.1014851,0.9061219,13.17996,-20.07879,-55.81342
114.786642075,-101.7186,63.8522300000001,-27.8794,0.3420014,0.08945146,0.9733023,13.17996,-20.07879,-55.81342
114.796500683,-104.3896,65.3399500000001,-26.34683,0.3190986,0.0767145,1.004669,13.17996,-20.07879,-55.81342
114.806359768,-103.6442,65.5184799999998,-25.61119,0.2844678,0.06569488,1.002674,13.17996,-20.07879,-55.81342
114.816218376,-102.0292,65.6375000000001,-25.6725,0.2896757,0.03032294,1.030574,16.13567,-13.85481,-55.89297
114.826077938,-98.7991300000003,66.70866,-24.20123,0.2878521,0.0103263,1.022764,16.13567,-13.85481,-55.89297
114.835937023,-96.00391,67.2442399999999,-22.36213,0.2813169,-0.02479731,1.014893,16.13567,-13.85481,-55.89297
114.845795631,-94.2025499999998,66.5896400000002,-20.21653,0.2308664,-0.0480733,1.025958,16.13567,-13.85481,-55.89297
114.855654716,-95.3827499999999,64.2092799999997,-15.5575,0.1964779,-0.01961265,1.040586,16.13567,-13.85481,-55.89297
114.865514278,-102.7746,60.57924,-10.71457,0.19773,0.006838297,1.083919,19.84962,-9.106709,-55.57722
114.875372887,-113.6448,55.46147,-6.23944799999999,0.1787613,0.01646512,1.100563,19.84962,-9.106709,-55.57722
114.885231972,-126.068,49.98665,-1.396511,0.1704665,-0.01324908,1.111931,19.84962,-9.106709,-55.57722
114.89509058,-138.6776,46.47562,3.139911,0.176357,-0.0286794,1.135677,19.84962,-9.106709,-55.57722
114.904949665,-148.6161,45.28544,6.87939400000001,0.1711978,-0.06821015,1.117208,19.84962,-9.106709,-55.57722
114.914809227,-151.4113,45.52348,8.35066499999998,0.1873843,-0.1450595,1.088535,23.13433,-4.402455,-54.3624
114.924667835,-147.3738,48.85598,9.39281699999999,0.206789,-0.2199844,1.046415,23.13433,-4.402455,-54.3624
114.93452692,-138.8018,52.06946,11.048,0.1654762,-0.2604459,0.9949085,23.13433,-4.402455,-54.3624
114.944385529,-130.6025,55.46147,12.51927,0.113501,-0.2663102,0.9812238,23.13433,-4.402455,-54.3624
114.95424509,-123.3349,57.9608500000003,12.82578,0.1184955,-0.2541671,0.9635247,23.13433,-4.402455,-54.3624
114.966568947,-118.7383,62.1264699999999,14.11315,0.12939,-0.2176874,0.9334878,25.35775,1.859558,-52.32563
114.976427555,-117.8687,66.70866,16.19745,0.1346426,-0.2245116,0.9180209,25.35775,1.859558,-52.32563
114.98628664,-118.552,69.14852,18.15915,0.09920728,-0.2375784,0.8911014,25.35775,1.859558,-52.32563
114.996146202,-121.3472,69.6245999999998,21.89863,0.03648644,-0.2519683,0.8353282,25.35775,1.859558,-52.32563
115.00600481,-125.8817,67.83932,24.90248,0.01355581,-0.2454545,0.8098333,25.35775,1.859558,-52.32563
115.015863895,-130.4161,65.9350399999999,26.00593,0.003999107,-0.2864875,0.7904552,28.32542,8.106701,-50.74083
115.025722504,-129.795,65.87553,27.3546,0.0221502,-0.3926108,0.736589,28.32542,8.106701,-50.74083
115.035581589,-120.9124,65.69701,29.86802,-0.003687985,-0.5053251,0.7158796,28.32542,8.106701,-50.74083
115.045441151,-105.135,62.7215599999997,29.31629,-0.06243051,-0.4466983,0.6573117,28.32542,8.106701,-50.74083
115.055299759,-96.8114200000001,61.7694200000002,28.58066,-0.03604169,-0.3748379,0.6824604,28.32542,8.106701,-50.74083
115.065158844,-94.8858299999999,64.0902599999999,28.15154,-0.02044623,-0.3551869,0.6953424,31.69237,12.47683,-47.02602
115.075017452,-94.8858299999999,68.0178500000003,27.90632,-0.04037931,-0.3885287,0.6752186,31.69237,12.47683,-47.02602
115.084877014,-91.7800299999999,72.4810300000003,27.96762,-0.06966729,-0.4200171,0.6523688,31.69237,12.47683,-47.02602
115.094736099,-87.6803800000002,76.2300899999998,27.3546,-0.09270595,-0.4291574,0.6051793,31.69237,12.47683,-47.02602
115.104594708,-82.2141799999999,78.1938799999998,26.06723,-0.1472689,-0.4176428,0.5605302,31.69237,12.47683,-47.02602
115.114453793,-77.1827899999998,77.0037000000002,24.90248,-0.1944138,-0.4117639,0.5526261,35.06024,16.16669,-43.68838
115.124312401,-74.3254599999997,73.9092399999998,24.22814,-0.1901949,-0.4034775,0.5464063,35.06024,16.16669,-43.68838
115.136636257,-72.7104499999999,68.5534399999999,21.59211,-0.2066474,-0.4465374,0.5218382,35.06024,16.16669,-43.68838
115.146495819,-70.7848500000001,61.7099099999998,19.3239,-0.254847,-0.5209761,0.5094378,35.06024,16.16669,-43.68838
115.156354427,-72.27563,52.66455,18.64957,-0.3042195,-0.5521618,0.4849599,38.00209,19.13686,-39.50877
115.166213512,-77.1827899999998,42.60754,19.75302,-0.3447797,-0.5389741,0.4640853,38.00209,19.13686,-39.50877
115.176073074,-83.6428500000001,35.34745,21.46951,-0.2893639,-0.518075,0.4562839,38.00209,19.13686,-39.50877
115.185931683,-87.1213400000002,31.89593,22.51166,-0.2758185,-0.5647315,0.4398835,38.00209,19.13686,-39.50877
115.195790768,-86.0653699999999,33.74071,24.04423,-0.2174279,-0.6448056,0.4896499,38.00209,19.13686,-39.50877
115.205649376,-74.8845100000001,37.90633,21.95993,-0.2296561,-0.6201491,0.4756563,40.62933,20.98836,-36.5965
115.215508461,-64.1384500000002,41.59589,20.36605,-0.1619888,-0.6498585,0.5683643,40.62933,20.98836,-36.5965
115.225368023,-54.38625,43.73821,20.30475,-0.3790331,-0.6518731,0.5436471,40.62933,20.98836,-36.5965
115.235226631,-45.87637,40.70325,18.64957,-0.3500138,-0.5911677,0.5724977,40.62933,20.98836,-36.5965
115.245085716,-45.1931,36.18057,17.1783,-0.3526808,-0.5521942,0.5905951,40.62933,20.98836,-36.5965
115.254944325,-50.34872,31.30084,17.48481,-0.3687817,-0.5951539,0.5918996,40.62933,20.98836,-36.5965
115.264803886,-53.14394,28.62294,17.85263,-0.3269519,-0.6230318,0.5853177,41.75842,22.8509,-34.12461
115.274662972,-53.45452,27.6708,17.85263,-0.3055701,-0.662293,0.576056,41.75842,22.8509,-34.12461
115.28452158,-51.90162,28.02785,16.56527,-0.3453092,-0.6155891,0.537243,41.75842,22.8509,-34.12461
115.294380665,-53.3924,30.22968,15.40051,-0.3027654,-0.5981287,0.55116,41.75842,22.8509,-34.12461
115.304239273,-53.76509,34.51432,15.094,-0.3018501,-0.635108,0.5498765,41.75842,22.8509,-34.12461
115.316563129,-46.06272,41.41736,13.56142,-0.3198793,-0.6941884,0.5390924,44.38891,23.59262,-31.58512
115.326422691,-36.24841,46.29709,13.00969,-0.3645337,-0.7190334,0.5074128,44.38891,23.59262,-31.58512
115.3362813,-28.11122,46.77316,13.80663,-0.4420149,-0.6970958,0.4416144,44.38891,23.59262,-31.58512
115.346140385,-23.01772,43.32165,13.92924,-0.4842848,-0.6509259,0.3961242,44.38891,23.59262,-31.58512
115.355999947,-23.82522,37.31124,13.86794,-0.5210472,-0.6274838,0.3757612,45.8993,24.65942,-28.6589
115.365858555,-26.37198,30.82477,13.74533,-0.4849018,-0.6413373,0.3593155,45.8993,24.65942,-28.6589
115.37571764,-25.99928,26.06406,13.62272,-0.4449542,-0.6892285,0.3406116,45.8993,24.65942,-28.6589
115.385576248,-21.03001,23.26714,12.70318,-0.432348,-0.6974479,0.3250282,45.8993,24.65942,-28.6589
115.395435333,-17.30305,22.07696,11.84494,-0.3780989,-0.659035,0.3188288,45.8993,24.65942,-28.6589
115.405294895,-14.63207,23.0291,11.78363,-0.3609187,-0.6696076,0.3137027,46.6535,25.03586,-27.45027
115.415153504,-9.16586899999999,24.21928,10.86409,-0.3737737,-0.7008704,0.3121845,46.6535,25.03586,-27.45027
115.425012589,-4.010248,24.87388,10.68018,-0.4154491,-0.7040598,0.3386283,46.6535,25.03586,-27.45027
115.434871197,-2.892161,23.32665,11.59972,-0.4587435,-0.6874232,0.3355522,46.6535,25.03586,-27.45027
115.444730759,-1.960422,19.81562,12.02884,-0.4825788,-0.6585737,0.299237,46.6535,25.03586,-27.45027
115.454589844,-1.152915,14.63834,12.02884,-0.5150213,-0.6419514,0.2667749,47.7859,24.67259,-26.17202
115.464448452,-0.2832928,7.31874200000001,10.86409,-0.5342786,-0.634495,0.2244635,47.7859,24.67259,-26.17202
115.474307537,2.139228,0.2371787,7.86024100000002,-0.5172727,-0.6397468,0.2112384,47.7859,24.67259,-26.17202
115.486631394,3.940589,-7.55849100000002,5.285516,-0.4820061,-0.6438162,0.2107015,47.7859,24.67259,-26.17202
115.496490002,3.070966,-11.90264,4.365971,-0.4472415,-0.6347112,0.2208252,47.7859,24.67259,-26.17202
115.506349564,4.748096,-14.34251,2.71079,-0.4195261,-0.6257242,0.2161932,48.53226,24.35182,-26.55682
115.516208172,9.15832599999999,-16.48483,0.3812764,-0.4328181,-0.6097536,0.2241847,48.53226,24.35182,-26.55682
115.526067257,12.9474,-18.98421,-1.825632,-0.4355935,-0.6077811,0.2376584,48.53226,24.35182,-26.55682
115.535926819,15.86685,-21.00751,-3.358207,-0.460929,-0.6381121,0.2545355,48.53226,24.35182,-26.55682
115.545785427,19.03476,-23.09032,-3.419509,-0.4793719,-0.6431174,0.2609858,48.53226,24.35182,-26.55682
115.555644512,22.45113,-26.36331,-2.622571,-0.508508,-0.6302689,0.2524047,48.53226,24.35182,-26.55682
115.565503597,26.67501,-31.65961,-2.438662,-0.5101426,-0.5992182,0.2316052,48.53226,24.35182,-26.55682
115.575362205,29.346,-36.83689,-2.561268,-0.4567722,-0.5812911,0.2147031,48.53226,24.35182,-26.55682
115.585221767,31.27159,-40.82399,-2.867783,-0.4099506,-0.5901915,0.1962302,48.53226,24.35182,-26.55682
115.595080376,35.74394,-43.5614,-4.706872,-0.3739303,-0.6006632,0.1735853,48.53226,24.35182,-26.55682
115.604939461,43.19785,-45.52519,-7.71071900000002,-0.3336699,-0.5886837,0.1587366,48.14611,24.33208,-28.28326
115.614798069,51.39715,-47.60801,-11.94063,-0.2691549,-0.5448113,0.1567498,48.14611,24.33208,-28.28326
115.624657631,57.6708600000002,-49.27426,-17.21268,-0.1826804,-0.4685363,0.1791626,48.14611,24.33208,-28.28326
115.634516716,61.8947399999997,-49.92886,-24.32383,-0.118972,-0.4615937,0.1931684,48.14611,24.33208,-28.28326
115.644375324,66.1186199999998,-49.51229,-29.47328,-0.1408139,-0.5482386,0.237314,48.14611,24.33208,-28.28326
115.654234409,72.8271399999998,-49.63131,-32.29322,-0.2108245,-0.5818034,0.2758853,46.25956,23.20289,-31.59101
115.666558266,82.8278,-51.65461,-33.21276,-0.2506803,-0.5333976,0.3017803,46.25956,23.20289,-31.59101
115.676416874,90.1574899999999,-53.97546,-33.02885,-0.2736504,-0.4575669,0.3343748,46.25956,23.20289,-31.59101
115.686276436,96.6175399999999,-57.30796,-32.53843,-0.2802548,-0.4308406,0.3399657,46.25956,23.20289,-31.59101
115.696135521,102.3943,-61.7116199999998,-32.04801,-0.2322135,-0.438552,0.3761142,46.25956,23.20289,-31.59101
115.705994129,108.4817,-65.22265,-31.98671,-0.1911049,-0.4512302,0.4017773,43.63033,21.71953,-34.50704
115.715853691,114.1342,-67.9005500000002,-33.15146,-0.1599028,-0.4820944,0.4025097,43.63033,21.71953,-34.50704
115.725712299,120.2216,-69.2097500000003,-33.70319,-0.1389771,-0.4949863,0.4188746,43.63033,21.71953,-34.50704
115.735571384,126.4332,-69.1502399999998,-32.23191,-0.1129759,-0.4547009,0.459576,43.63033,21.71953,-34.50704
115.745430469,131.4025,-67.9600600000001,-30.57674,-0.1009957,-0.3848473,0.5026435,43.63033,21.71953,-34.50704
115.755289078,138.0488,-65.6987200000001,-28.55374,-0.1021326,-0.3082496,0.5584141,41.36164,19.83431,-39.53369
115.76514864,142.956,-64.0324699999998,-27.08247,-0.09677131,-0.251085,0.6072193,41.36164,19.83431,-39.53369
115.775007248,146.8072,-63.1993500000001,-26.40813,-0.08470443,-0.2313589,0.6484249,41.36164,19.83431,-39.53369
115.784866333,151.1553,-62.1281900000002,-25.48859,-0.05616745,-0.2431313,0.6857756,41.36164,19.83431,-39.53369
115.794725895,157.1805,-60.4024300000001,-24.93686,-0.04191857,-0.2720112,0.7366031,41.36164,19.83431,-39.53369
115.804584503,164.0133,-58.4386299999998,-22.97516,-0.04834063,-0.2836676,0.7576811,38.3575,16.86485,-43.71298
115.814443588,172.4611,-57.7245299999999,-20.76826,-0.06036231,-0.2768814,0.7789944,38.3575,16.86485,-43.71298
115.824302196,182.3996,-57.30796,-21.50389,-0.06198553,-0.2599861,0.7465746,38.3575,16.86485,-43.71298
115.836626053,193.5805,-58.7361799999998,-18.00962,-0.09050333,-0.1795034,0.7352011,38.3575,16.86485,-43.71298
115.846485138,194.8849,-61.7116199999998,-13.96363,-0.09238439,-0.08198895,0.7906796,38.3575,16.86485,-43.71298
115.856343746,187.3068,-66.3533199999998,-9.91762700000002,-0.07210364,-0.02071908,0.8608708,35.4277,11.68579,-47.86998
115.866203308,175.5047,-70.1619,-5.626418,-0.0419739,-0.00949615,0.927624,35.4277,11.68579,-47.86998
115.876062393,165.3177,-72.0661800000002,-1.212602,-0.003551066,-0.02492345,1.005056,35.4277,11.68579,-47.86998
115.885921001,158.9198,-71.8876499999999,2.036457,0.03930011,-0.015187,1.034717,35.4277,11.68579,-47.86998
115.895780563,158.3607,-69.2097500000003,2.833396,0.08901957,-0.005031233,1.03026,35.4277,11.68579,-47.86998
115.905639648,164.0754,-65.6392100000002,2.281669,0.1360173,0.01185941,1.011523,32.82899,5.115072,-50.34976
115.915498257,172.8959,-62.0686799999998,1.423427,0.1454508,0.03576927,1.006799,32.82899,5.115072,-50.34976
115.925357342,178.859,-62.8422900000002,1.48473,0.09771024,0.07418947,0.9838433,32.82899,5.115072,-50.34976
115.93521595,180.4119,-65.6392100000002,4.795092,0.02593584,0.1319083,0.9733734,32.82899,5.115072,-50.34976
115.945075512,176.3744,-69.38828,9.88324100000001,-0.02307092,0.2127135,0.9666074,32.82899,5.115072,-50.34976
115.954934597,170.0385,-72.83979,14.41966,-0.0217707,0.2613663,0.9612491,29.11713,-2.233228,-52.30347
115.964793205,161.2802,-74.6845699999999,19.07869,0.008538873,0.2485822,0.98419,29.11713,-2.233228,-52.30347
115.974652767,158.0502,-74.98212,23.2473,0.03416899,0.245933,0.9957823,29.11713,-2.233228,-52.30347
115.984511375,161.5287,-74.2084999999999,26.12854,0.08380338,0.2303236,0.9982976,29.11713,-2.233228,-52.30347
115.994370461,170.5355,-71.6496099999998,28.21284,0.1380934,0.2532602,1.017365,29.11713,-2.233228,-52.30347
116.004229546,179.6665,-69.4477800000001,29.80672,0.1414113,0.2913418,1.043036,26.53968,-10.99502,-53.48036
116.016552925,185.5675,-70.6974700000003,32.68796,0.1113959,0.3826791,1.074903,26.53968,-10.99502,-53.48036
116.02641201,183.5177,-72.5422500000002,36.24353,0.139821,0.4296799,1.084,26.53968,-10.99502,-53.48036
116.036271572,177.4924,-72.5422500000002,40.04432,0.1877004,0.473404,1.08177,26.53968,-10.99502,-53.48036
116.04613018,171.2188,-71.1140400000001,42.61905,0.2198965,0.5163578,1.040941,26.53968,-10.99502,-53.48036
116.055989265,166.3737,-68.1980999999997,44.76465,0.2452164,0.5610608,0.9638067,22.10106,-18.29459,-52.54959
116.065847874,164.386,-65.6987200000001,45.37768,0.2706806,0.5854347,0.9152503,22.10106,-18.29459,-52.54959
116.075707436,164.4481,-65.1036300000002,46.17462,0.2437076,0.622012,0.8708987,22.10106,-18.29459,-52.54959
116.085566521,164.945,-66.5913500000002,46.41983,0.2206669,0.6680407,0.8720947,22.10106,-18.29459,-52.54959
116.095425129,163.33,-69.7453300000002,46.17462,0.2218296,0.6739607,0.8908169,22.10106,-18.29459,-52.54959
116.105284214,158.9819,-73.6729199999999,46.60374,0.2337411,0.6644841,0.9308199,18.49186,-26.99159,-49.94419
116.115143776,155.3171,-75.2201499999998,47.03286,0.2601481,0.6497156,0.9528413,18.49186,-26.99159,-49.94419
116.125002384,152.584,-73.97047,47.8911,0.2920909,0.6086746,0.9630612,18.49186,-26.99159,-49.94419
116.134861469,151.4659,-71.4115799999999,49.42368,0.3226068,0.597632,0.9309059,18.49186,-26.99159,-49.94419
116.144720078,151.528,-68.2576100000002,51.32407,0.3497621,0.588883,0.8695868,18.49186,-26.99159,-49.94419
116.154579639,154.6338,-65.2821599999999,53.16316,0.3474697,0.6065641,0.788784,13.68872,-34.26903,-47.73121
116.164438725,161.6529,-65.6987200000001,54.81834,0.2950687,0.662801,0.726751,13.68872,-34.26903,-47.73121
116.174297333,169.1689,-68.0790799999999,56.59613,0.2724044,0.7627249,0.6953318,13.68872,-34.26903,-47.73121
116.184156418,174.3245,-69.86435,57.7608799999999,0.3169783,0.8673457,0.7195394,13.68872,-34.26903,-47.73121
116.196480274,172.8338,-67.9005500000002,58.0674000000003,0.3986377,0.9724046,0.7729325,13.68872,-34.26903,-47.73121
116.206338882,169.1068,-62.7827800000003,57.3317599999998,0.4458275,1.008879,0.7855062,8.905613,-40.70159,-42.13367
116.216198444,164.3239,-55.87975,56.0444,0.4718149,1.000826,0.7826719,8.905613,-40.70159,-42.13367
116.226057053,159.6652,-48.32211,55.00225,0.4753103,0.9662126,0.7574115,8.905613,-40.70159,-42.13367
116.235916138,154.9444,-42.49024,54.45052,0.4789664,0.9301803,0.7426793,8.905613,-40.70159,-42.13367
116.2457757,152.3976,-36.71787,54.26661,0.4615315,0.8879517,0.6826715,8.905613,-40.70159,-42.13367
116.255634308,154.0748,-33.80193,53.16316,0.4471253,0.8565169,0.6390045,4.935352,-47.19953,-36.15561
116.265493393,157.5532,-32.55225,55.00225,0.42897,0.8299766,0.6117248,4.935352,-47.19953,-36.15561
116.275352478,163.1437,-33.62341,56.47352,0.4054353,0.8851408,0.5847322,4.935352,-47.19953,-36.15561
116.285211086,164.5723,-36.12278,57.4543699999997,0.4008098,0.9648371,0.5667819,4.935352,-47.19953,-36.15561
116.295070648,161.0317,-37.25345,57.82219,0.422933,1.044374,0.5728883,4.935352,-47.19953,-36.15561
116.304929257,153.5778,-36.36082,56.84134,0.4488052,1.115246,0.5951608,0.5310402,-52.94455,-29.35064
116.314788342,143.0181,-33.44488,55.00225,0.4804995,1.142351,0.6112307,0.5310402,-52.94455,-29.35064
116.324647904,131.2161,-29.39827,53.53098,0.5093794,1.12357,0.5958053,0.5310402,-52.94455,-29.35064
116.334506512,121.7124,-25.47068,52.24361,0.5002379,1.081056,0.5697001,0.5310402,-52.94455,-29.35064
116.344365597,115.625,-22.67376,50.89495,0.4858593,1.050605,0.5289161,0.5310402,-52.94455,-29.35064
116.354224205,110.78,-19.87684,51.32407,0.5132091,0.9992185,0.5161126,-3.141708,-56.80679,-23.33719
116.366548061,110.0346,-16.54434,51.44667,0.4939643,0.9715261,0.4437941,-3.141708,-56.80679,-23.33719
116.376407147,111.6496,-15.88974,50.71104,0.4752624,0.9668002,0.3956216,-3.141708,-56.80679,-23.33719
116.386265755,114.01,-16.3063,49.66889,0.4482121,0.9654089,0.3480754,-3.141708,-56.80679,-23.33719
116.396125317,115.5629,-17.49648,48.81065,0.4361261,0.9720415,0.3286565,-3.141708,-56.80679,-23.33719
116.405984402,115.7492,-18.2701,48.19762,0.438107,0.9710894,0.3295786,-6.448885,-59.26302,-17.40414
116.41584301,114.3206,-17.91305,47.9524,0.4484636,0.9936625,0.3554983,-6.448885,-59.26302,-17.40414
116.425702572,111.2148,-15.83023,47.8911,0.4725833,1.010029,0.3806902,-6.448885,-59.26302,-17.40414
116.43556118,105.3759,-12.79528,48.50413,0.5017686,1.00403,0.3989124,-6.448885,-59.26302,-17.40414
116.445420265,99.59911,-9.16523299999997,50.34322,0.5224445,0.980814,0.3878794,-6.448885,-59.26302,-17.40414
116.45527935,95.6236900000002,-5.77322300000002,52.36622,0.5208387,0.9446328,0.3459066,-9.385595,-60.61377,-11.10026
116.465137959,93.4496199999998,-4.106973,54.32792,0.513148,0.9084736,0.3241471,-9.385595,-60.61377,-11.10026
116.474997521,92.7042400000001,-3.154831,56.28961,0.5142771,0.891302,0.2842125,-9.385595,-60.61377,-11.10026
116.484856606,92.64212,-3.095322,58.0060999999998,0.5092103,0.8817974,0.2271798,-9.385595,-60.61377,-11.10026
116.494715214,93.3253899999999,-4.583045,59.1095499999998,0.5057274,0.8806388,0.1860085,-9.385595,-60.61377,-11.10026
116.504574776,92.58,-6.90389300000001,58.8030400000002,0.5046685,0.900001,0.1612686,-11.90703,-60.89361,-6.858375
116.514433384,90.4680599999999,-10.35541,57.4543699999997,0.4922697,0.9324206,0.1415925,-11.90703,-60.89361,-6.858375
116.524292469,85.6851300000001,-14.10448,55.24746,0.4919086,0.9738168,0.1515311,-11.90703,-60.89361,-6.858375
116.536616326,74.06946,-17.91305,51.75319,0.5346169,1.009877,0.1938754,-11.90703,-60.89361,-6.858375
116.546474934,62.5780100000002,-18.50813,49.23977,0.5673901,1.004931,0.2249938,-11.90703,-60.89361,-6.858375
116.556334019,51.83196,-18.32961,46.41983,0.5870025,0.9774233,0.2398164,-15.24023,-60.79596,-2.616079
116.566193581,44.62651,-17.67501,42.86425,0.5972632,0.9322409,0.2349761,-15.24023,-60.79596,-2.616079
116.576052189,42.45246,-16.60385,38.81826,0.6112038,0.8923971,0.2176692,-15.24023,-60.79596,-2.616079
116.585911274,44.1917,-15.47318,34.95617,0.617987,0.8670513,0.1905234,-15.24023,-60.79596,-2.616079
116.595770836,49.03674,-13.86644,30.91017,0.6264898,0.8748546,0.1751337,-15.24023,-60.79596,-2.616079
116.605629444,54.44083,-11.42657,25.63811,0.6391786,0.9124169,0.1699987,-17.45746,-60.34936,1.168554
116.615488529,57.6087400000001,-8.986707,19.99824,0.6567723,0.9724847,0.1855893,-17.45746,-60.34936,1.168554
116.625347614,54.99987,-5.83273200000001,14.60357,0.6658061,1.021315,0.2093534,-17.45746,-60.34936,1.168554
116.635206222,46.86269,-1.964652,11.048,0.6738319,1.033647,0.2347406,-17.45746,-60.34936,1.168554
116.645065784,35.24701,1.724902,8.41196799999998,0.6642109,0.9981014,0.2513497,-17.45746,-60.34936,1.168554
116.654924393,24.31461,4.938385,6.69548500000003,0.6595499,0.9391837,0.2523565,-19.30896,-59.5505,4.115307
116.664783478,16.05319,7.19972399999999,5.040304,0.6449724,0.8816061,0.2448904,-19.30896,-59.5505,4.115307
116.674642086,10.15218,8.80646499999997,3.262517,0.6313492,0.8551417,0.2271308,-19.30896,-59.5505,4.115307
116.684501648,4.251169,9.93713500000002,2.036457,0.6248795,0.8501717,0.2147219,-19.30896,-59.5505,4.115307
116.694360733,-1.587727,10.41321,1.178215,0.6131963,0.8476428,0.2167839,-19.30896,-59.5505,4.115307
116.704219341,-7.053927,10.94879,0.1973674,0.6118858,0.8349808,0.2171749,-20.04998,-59.52939,5.015363
116.716543198,-12.83071,11.7224,-1.457814,0.630683,0.8200697,0.2191772,-20.04998,-59.52939,5.015363
116.726402283,-17.36517,13.44816,-2.438662,0.642747,0.8328246,0.2181545,-20.04998,-59.52939,5.015363
116.736260891,-21.96175,14.75736,-3.603419,0.6424137,0.8493294,0.2082353,-20.04998,-59.52939,5.015363
116.746120453,-25.93717,16.3641,-5.197297,0.646184,0.8585995,0.2058638,-20.04998,-59.52939,5.015363
116.755979061,-29.41566,17.55428,-6.545962,0.6409194,0.8784672,0.1960433,-20.80266,-59.15884,4.567359
116.765838146,-32.14876,18.62544,-7.09768900000001,0.6399782,0.8857925,0.2052234,-20.80266,-59.15884,4.567359
116.775697708,-34.2607,20.41071,-7.40420399999999,0.646723,0.899982,0.210039,-20.80266,-59.15884,4.567359
116.785556316,-35.75148,22.67205,-8.20114400000001,0.6544717,0.901629,0.2415696,-20.80266,-59.15884,4.567359
116.795415401,-37.24226,25.76651,-9.54980899999999,0.6650105,0.9198601,0.277034,-20.80266,-59.15884,4.567359
116.805274486,-39.97536,30.64625,-11.57281,0.6759518,0.9497884,0.316425,-19.69942,-59.20654,2.065025
116.815133095,-43.45385,36.59714,-14.39275,0.6848741,0.9552702,0.3297617,-19.69942,-59.20654,2.065025
116.824992657,-45.87637,42.3695,-17.88702,0.6835575,0.9639531,0.3126025,-19.69942,-59.20654,2.065025
116.834851265,-47.80197,46.83267,-21.38129,0.6769983,0.9643281,0.2983232,-19.69942,-59.20654,2.065025
116.84471035,-48.17466,49.80812,-25.18207,0.6638068,0.9772629,0.2751396,-19.69942,-59.20654,2.065025
116.854569912,-48.73371,52.18848,-29.16677,0.6723232,0.9767702,0.2534501,-19.33611,-59.60306,0.3384924
116.86442852,-47.98832,54.50933,-33.27407,0.6760827,0.9875019,0.2515703,-19.33611,-59.60306,0.3384924
116.874287605,-48.85794,56.71115,-38.23961,0.6711075,1.005011,0.2608938,-19.33611,-59.60306,0.3384924
116.886611462,-50.78353,59.5675799999998,-44.55382,0.6580867,1.010806,0.279817,-19.33611,-59.60306,0.3384924
116.89647007,-53.33028,60.8172699999999,-49.64197,0.6336152,1.038415,0.3034004,-19.33611,-59.60306,0.3384924
116.906329632,-57.3678199999998,60.6982500000001,-54.05578,0.6217877,1.070644,0.3613449,-18.24006,-60.03672,-3.440348
116.916188717,-63.2067100000003,59.0915099999997,-56.99833,0.6139179,1.106827,0.4259751,-18.24006,-60.03672,-3.440348
116.926047325,-73.0210299999997,57.18723,-58.2243899999999,0.6154122,1.125535,0.4802612,-18.24006,-60.03672,-3.440348
116.93590641,-84.0155400000002,57.9013399999998,-58.3469900000002,0.6276582,1.082955,0.5156673,-18.24006,-60.03672,-3.440348
116.945765018,-90.7240600000002,60.8172699999999,-58.3469900000002,0.6201413,1.01134,0.5113364,-18.24006,-60.03672,-3.440348
116.95562458,-92.2148400000001,63.55468,-57.7339600000003,0.5945429,0.9574986,0.4882453,-15.65955,-59.76382,-8.130647
116.965483665,-93.0844700000002,67.7798199999998,-57.3048400000002,0.596061,0.9647142,0.4624079,-15.65955,-59.76382,-8.130647
116.975342274,-95.5069900000001,71.8264200000003,-56.3853,0.5975365,0.9826587,0.4428911,-15.65955,-59.76382,-8.130647
116.985201359,-98.9854800000002,74.4448200000003,-55.34315,0.5917351,1.009832,0.4360151,-15.65955,-59.76382,-8.130647
116.995059967,-103.0851,76.5276300000001,-53.74927,0.5856225,1.034122,0.4396616,-15.65955,-59.76382,-8.130647
117.004919529,-107.8059,76.7656700000003,-52.89103,0.5776286,1.035117,0.4642231,-11.95137,-60.60743,-12.75142
117.014778614,-111.4087,74.2067899999998,-53.32015,0.5752439,1.042218,0.5467393,-11.95137,-60.60743,-12.75142
117.024637222,-115.0114,71.1123199999998,-53.81057,0.5886634,1.085359,0.6001033,-11.95137,-60.60743,-12.75142
117.034496784,-121.0366,69.0890100000001,-53.93318,0.5998428,1.117173,0.6227348,-11.95137,-60.60743,-12.75142
117.044355869,-128.5527,68.9104900000002,-52.95233,0.6145124,1.106561,0.6128522,-11.95137,-60.60743,-12.75142
117.054214478,-133.0871,70.8147699999997,-52.46191,0.6203013,1.066067,0.5712168,-7.208767,-59.27844,-19.12865
117.066538334,-133.584,73.9687500000003,-52.95233,0.6269562,1.024573,0.5204558,-7.208767,-59.27844,-19.12865
117.076397896,-132.4039,77.8368300000001,-53.87187,0.6324113,1.008883,0.4761593,-7.208767,-59.27844,-19.12865
117.086256504,-130.7267,82.3595,-55.03663,0.6204831,0.981873,0.4387238,-7.208767,-59.27844,-19.12865
117.096115589,-129.795,86.0490599999999,-56.87572,0.5996963,0.9490463,0.4282007,-7.208767,-59.27844,-19.12865
117.105974197,-130.0434,85.4539700000001,-59.9408699999998,0.5473463,0.903446,0.4597099,-3.895569,-57.92666,-25.05039
117.115833282,-132.9008,80.69326,-62.0251699999999,0.4964302,0.9052071,0.5304136,-3.895569,-57.92666,-25.05039
117.125692844,-139.2987,74.80187,-62.5769,0.4512602,0.9465311,0.6267668,-3.895569,-57.92666,-25.05039
117.135551453,-150.5417,70.5767399999998,-62.82212,0.4515041,0.9629825,0.7308884,-3.895569,-57.92666,-25.05039
117.145410538,-161.7847,68.67245,-62.45429,0.4794385,0.9158032,0.8005344,-3.895569,-57.92666,-25.05039
117.155269623,-166.1949,69.14852,-61.0443199999997,0.501216,0.8284557,0.8138629,0.9025097,-54.75141,-30.99871
117.165128231,-162.1574,71.0528099999999,-59.6343600000002,0.4846884,0.7917212,0.7893493,0.9025097,-54.75141,-30.99871
117.174987793,-156.9396,73.3736599999999,-57.6726599999998,0.4655497,0.8052054,0.7969238,0.9025097,-54.75141,-30.99871
117.184846401,-155.2004,75.6349900000002,-56.14008,0.4375826,0.8542456,0.8341554,0.9025097,-54.75141,-30.99871
117.194705486,-157.6229,76.6466499999999,-55.09793,0.3860496,0.9046534,0.9024032,0.9025097,-54.75141,-30.99871
117.204565048,-166.0707,74.9804000000002,-53.44275,0.3266315,0.9507165,0.9985203,6.002324,-49.80037,-36.96686
117.214423657,-177.8727,72.0644599999998,-49.70327,0.2521151,0.9781116,1.083194,6.002324,-49.80037,-36.96686
117.224282742,-188.2461,71.7669099999998,-45.96379,0.247498,1.00074,1.159165,6.002324,-49.80037,-36.96686
117.236606598,-198.4331,77.0037000000002,-42.95994,0.3018188,0.967945,1.239098,6.002324,-49.80037,-36.96686
117.246465206,-199.986,87.47727,-41.24346,0.3378007,0.9113513,1.244817,6.002324,-49.80037,-36.96686
117.256324768,-196.259,98.7244599999999,-40.20131,0.3350432,0.8897587,1.202983,10.79513,-45.14719,-42.54618
117.266183853,-192.2836,109.7931,-40.0787,0.3267716,0.8990569,1.106861,10.79513,-45.14719,-42.54618
117.276042461,-189.7368,119.6716,-40.81433,0.3216419,0.8859815,1.006191,10.79513,-45.14719,-42.54618
117.285901547,-192.4078,127.3483,-40.93694,0.3406333,0.8386325,0.9221405,10.79513,-45.14719,-42.54618
117.295760155,-197.315,133.5372,-39.83349,0.3496932,0.7577374,0.8695751,10.79513,-45.14719,-42.54618
117.305619717,-201.9737,135.1439,-38.66873,0.2938517,0.6704532,0.8236313,14.83918,-37.94564,-46.41903
117.315478802,-205.5764,132.9421,-36.33922,0.2264763,0.6021649,0.8096392,14.83918,-37.94564,-46.41903
117.32533741,-209.3655,131.6924,-32.72234,0.1958149,0.5600844,0.8202635,14.83918,-37.94564,-46.41903
117.335196495,-213.5894,131.7519,-28.61504,0.1870509,0.505119,0.8467597,14.83918,-37.94564,-46.41903
117.345056057,-216.1361,132.6446,-23.5882,0.1868173,0.4627118,0.8281956,14.83918,-37.94564,-46.41903
117.354914665,-214.5832,135.2034,-18.92917,0.189375,0.4240603,0.7664953,22.19133,-29.21886,-48.21219
117.36477375,-209.1791,136.9887,-15.12838,0.1617783,0.3669905,0.6657752,22.19133,-29.21886,-48.21219
117.374632359,-202.8433,132.466,-12.24714,0.06254283,0.3030145,0.5794353,22.19133,-29.21886,-48.21219
117.384491921,-198.3088,122.8256,-9.733719,-0.03322672,0.3058326,0.5190073,22.19133,-29.21886,-48.21219
117.394351006,-200.1102,112.8281,-7.220295,-0.02089722,0.3642862,0.5059074,22.19133,-29.21886,-48.21219
117.404209614,-213.5272,105.449,-3.542115,0.01163811,0.407825,0.4904767,28.11792,-20.15183,-48.78483
117.41653347,-238.3736,97.0582100000003,0.01345839,-0.02209656,0.3295504,0.4591489,28.11792,-20.15183,-48.78483
117.426393032,-253.6541,90.7502699999998,2.465578,-0.05672997,0.2012729,0.4614351,28.11792,-20.15183,-48.78483
117.43625164,-258.437,88.5484400000001,5.89854599999997,-0.04740753,0.02809516,0.4545696,28.11792,-20.15183,-48.78483
117.446110726,-247.8152,89.4410699999997,8.04415000000001,-0.02049965,-0.1507926,0.4406964,28.11792,-20.15183,-48.78483
117.455969811,-225.5156,92.2975000000002,9.20890699999998,-0.008459505,-0.3072715,0.4684354,33.68888,-12.0995,-47.61648
117.465828419,-195.9484,95.8085299999998,9.638028,-0.03260901,-0.3726869,0.4696651,33.68888,-12.0995,-47.61648
117.475687981,-164.1451,97.8913400000002,9.45411999999998,-0.1035201,-0.3519623,0.4540787,33.68888,-12.0995,-47.61648
117.485546589,-140.6031,96.87968,8.28936300000002,-0.1752437,-0.2826467,0.4216627,33.68888,-12.0995,-47.61648
117.495405674,-129.2359,93.1901299999998,8.105453,-0.2272335,-0.2038341,0.4096512,33.68888,-12.0995,-47.61648
117.505264759,-129.4844,88.2508900000001,8.59587799999999,-0.2774286,-0.1454207,0.4036717,36.95423,-2.224256,-45.23818
117.515123367,-137.2489,80.8122799999998,9.576725,-0.3460472,-0.187076,0.3578157,36.95423,-2.224256,-45.23818
117.524982929,-146.3178,72.1239699999997,13.68403,-0.3826472,-0.274986,0.3590331,36.95423,-2.224256,-45.23818
117.534842014,-150.4796,66.1135700000002,19.13999,-0.3804936,-0.3382468,0.3536765,36.95423,-2.224256,-45.23818
117.544700623,-145.1376,61.8289300000001,20.79518,-0.3162822,-0.4120712,0.3693895,36.95423,-2.224256,-45.23818
117.554560185,-130.1677,61.6503999999999,20.61127,-0.3139542,-0.5197109,0.3377791,41.05751,3.665846,-41.92703
117.564418793,-103.3336,61.7099099999998,19.44651,-0.3013075,-0.574165,0.3203673,41.05751,3.665846,-41.92703
117.574277878,-76.9343300000001,63.3166500000001,16.68787,-0.2720827,-0.5544121,0.3282639,41.05751,3.665846,-41.92703
117.584136963,-55.81492,66.7681699999999,12.76448,-0.2529671,-0.4758984,0.3281749,41.05751,3.665846,-41.92703
117.596460342,-46.24907,68.5534399999999,8.47327099999997,-0.2960575,-0.4236982,0.3354592,41.05751,3.665846,-41.92703
117.606319904,-49.78968,65.87553,6.02115200000002,-0.3507333,-0.4130572,0.3176394,44.04839,8.469801,-38.21469
117.616178989,-57.4299399999999,60.1626700000002,3.752941,-0.3928951,-0.4281026,0.297987,44.04839,8.469801,-38.21469
117.626037598,-63.70364,53.14062,1.300821,-0.4143842,-0.4424418,0.2881091,44.04839,8.469801,-38.21469
117.635896683,-65.3186499999998,45.702,-1.825632,-0.4126739,-0.4925117,0.2977253,44.04839,8.469801,-38.21469
117.645756245,-62.5855599999999,39.81062,-3.358207,-0.4621918,-0.563015,0.2997529,44.04839,8.469801,-38.21469
117.655614853,-55.93915,34.03825,-2.867783,-0.4987534,-0.6041794,0.3090313,46.29947,10.25892,-35.68395
117.665473938,-48.67159,30.28919,-0.844783499999999,-0.493032,-0.6064758,0.331932,46.29947,10.25892,-35.68395
