Time (s),Gyroscope X (deg/s),Gyroscope Y (deg/s),Gyroscope Z (deg/s),Accelerometer X (g),Accelerometer Y (g),Accelerometer Z (g),Magnetometer X (uT),Magnetometer Y (uT),Magnetometer Z (uT)
4.239282131,-6.16967699999999,-4.5692,-9.06515500000003,-0.3155577,-0.6979351,-0.08012644,17.85656,-51.95627,-1.537326
4.249140739,-4.244083,-12.5434,11.96177,-0.3668394,-0.6337025,-0.08891665,23.01719,-49.80175,-1.202588
4.258999348,-3.68504,-19.68447,31.14961,-0.4127395,-0.5074174,-0.04311035,23.01719,-49.80175,-1.202588
4.268858433,-7.28776300000003,-27.42063,49.234,-0.4270689,-0.3975149,-0.02856103,23.01719,-49.80175,-1.202588
4.278717041,-8.40584900000001,-34.02612,65.6018899999998,-0.3986567,-0.3889526,-0.01835132,23.01719,-49.80175,-1.202588
4.288575649,-2.31849,-40.92916,79.1498600000001,-0.3644391,-0.3365515,-0.01025038,23.01719,-49.80175,-1.202588
4.298435211,7.43370899999999,-48.12974,91.3491500000001,-0.3276519,-0.2061124,0.03968368,23.76063,-49.07408,-1.213992
4.308293819,16.06782,-53.24751,101.0963,-0.3064142,0.01671061,0.1069118,23.76063,-49.07408,-1.213992
4.318152428,19.42208,-58.3652800000002,106.9201,-0.3063205,0.1730526,0.1436907,23.76063,-49.07408,-1.213992
4.328011513,22.34153,-61.6382700000003,109.9853,-0.2751276,0.2478606,0.1649622,23.76063,-49.07408,-1.213992
4.337870121,25.69579,-63.7210800000001,113.5408,-0.2754487,0.3413733,0.1877991,23.76063,-49.07408,-1.213992
4.347728729,30.23025,-64.4351900000003,115.809,-0.3002836,0.4479713,0.2542238,20.83192,-50.53069,-2.464055
4.357587814,34.08144,-63.78059,117.6481,-0.2854388,0.5407774,0.3122994,20.83192,-50.53069,-2.464055
4.367446423,39.7961,-63.1855000000002,117.6481,-0.257494,0.589241,0.3233317,20.83192,-50.53069,-2.464055
4.379769802,49.61042,-62.7094300000001,116.4221,-0.1666246,0.720452,0.3217064,20.83192,-50.53069,-2.464055
4.389629364,53.08891,-61.8168,114.7056,-0.1539072,0.7896221,0.3106081,20.83192,-50.53069,-2.464055
4.399487972,54.26911,-59.9125100000001,115.3186,-0.1671963,0.7603236,0.314863,15.24045,-51.92606,-1.523805
4.409346581,58.2445299999998,-56.22295,119.242,-0.226124,0.7847742,0.356162,15.24045,-51.92606,-1.523805
4.419205666,62.6547599999999,-53.30702,121.5715,-0.2400339,0.8495263,0.3976386,15.24045,-51.92606,-1.523805
4.429064274,68.6800000000003,-53.188,118.6903,-0.164699,0.9291511,0.43126,15.24045,-51.92606,-1.523805
4.438923359,73.0281100000002,-52.35487,112.4987,-0.1178381,1.032284,0.4424841,15.24045,-51.92606,-1.523805
4.448781967,70.48136,-53.188,106.1232,-0.06294194,1.041452,0.422132,10.40398,-53.68752,0.1845188
4.458640576,68.1209600000002,-53.00947,103.5484,0.003070802,1.044824,0.3867172,10.40398,-53.68752,0.1845188
4.468500137,63.7728500000002,-51.8788,102.5063,0.001555434,1.021362,0.3625808,10.40398,-53.68752,0.1845188
4.478358746,59.2383800000001,-49.43893,103.9776,0.02868067,0.9459879,0.3122006,10.40398,-53.68752,0.1845188
4.488217354,62.4063000000002,-43.90461,110.4144,0.05480395,0.9665087,0.272707,10.40398,-53.68752,0.1845188
4.498076439,64.7666999999999,-40.21505,112.1922,0.02859199,1.007209,0.2878001,4.507805,-54.69422,2.33887
4.507935047,66.8165300000002,-39.79849,110.4144,0.03008007,1.13292,0.3281342,4.507805,-54.69422,2.33887
4.517793656,58.5551100000002,-39.56045,106.3684,-0.01846585,1.307949,0.4021831,4.507805,-54.69422,2.33887
4.527652741,39.54764,-41.8813,101.1576,-0.01295557,1.227393,0.4483863,4.507805,-54.69422,2.33887
4.537511349,30.60295,-43.66657,98.0311799999997,0.03692587,0.9619349,0.3927231,4.507805,-54.69422,2.33887
4.549834728,36.87666,-45.39233,96.3146999999998,0.1059771,0.8192991,0.3440529,-0.7032375,-54.59281,5.310548
4.55969429,43.21248,-43.66657,97.7246599999999,0.2179939,0.8167364,0.304578,-0.7032375,-54.59281,5.310548
4.569552898,51.47389,-41.16719,102.2611,0.2943107,0.8106608,0.1913063,-0.7032375,-54.59281,5.310548
4.579411507,61.2260899999997,-38.19175,105.7554,0.3244786,0.8410181,0.1700478,-0.7032375,-54.59281,5.310548
4.589270592,67.0028800000001,-34.02612,106.7975,0.2652418,1.034743,0.1940909,-0.7032375,-54.59281,5.310548
4.5991292,58.1203,-35.69237,104.7132,0.1730674,1.139191,0.2355805,-5.556988,-53.78348,6.544381
4.608987808,48.18175,-38.01322,102.3224,0.1321468,1.152058,0.2597531,-5.556988,-53.78348,6.544381
4.618846893,41.28688,-41.04818,99.0120200000002,0.1563705,1.060827,0.2696595,-5.556988,-53.78348,6.544381
4.628705501,41.72169,-43.96412,97.1729400000001,0.1935246,0.9636386,0.2179938,-5.556988,-53.78348,6.544381
4.638565063,47.37424,-46.40398,97.1116299999999,0.2332842,0.920576,0.1897493,-5.556988,-53.78348,6.544381
4.648423672,52.90256,-46.64202,98.9507199999998,0.3269484,0.9597684,0.1686188,-9.969078,-52.22417,9.112708
4.65828228,54.45546,-40.98867,102.0772,0.4066037,0.9770509,0.1772133,-9.969078,-52.22417,9.112708
4.668141365,52.09505,-36.16845,104.468,0.3772977,1.041603,0.2016566,-9.969078,-52.22417,9.112708
4.677999973,46.06981,-32.83595,104.4067,0.3156323,1.203711,0.2350515,-9.969078,-52.22417,9.112708
4.687858581,30.54083,-33.37152,103.3645,0.2837543,1.227818,0.2505645,-9.969078,-52.22417,9.112708
4.697717667,21.8446,-36.16845,101.1576,0.2809703,1.142042,0.2220867,-13.68968,-51.40462,12.00511
4.707576275,22.77634,-40.45309,97.7859599999998,0.2936225,1.060737,0.1814466,-13.68968,-51.40462,12.00511
4.719899654,29.91967,-45.27331,93.1269400000001,0.3073683,1.013161,0.1789324,-13.68968,-51.40462,12.00511
4.729759216,30.66506,-48.07023,92.3299999999997,0.3549016,0.996517,0.1699681,-13.68968,-51.40462,12.00511
4.739617824,32.15585,-45.98742,93.4947599999998,0.4471718,0.9976357,0.1207425,-13.68968,-51.40462,12.00511
4.749476433,32.90123,-39.38193,94.96603,0.5150034,0.9582914,0.1093805,-18.54623,-49.48461,13.67572
4.759335518,38.55378,-34.26416,94.2916899999999,0.5267221,1.001218,0.1095758,-18.54623,-49.48461,13.67572
4.769194126,41.72169,-31.70527,91.7782700000002,0.5072563,1.057085,0.1304511,-18.54623,-49.48461,13.67572
4.779053211,37.49781,-33.193,90.92003,0.4785034,1.099201,0.1398419,-18.54623,-49.48461,13.67572
4.788911819,32.46642,-34.97826,88.9583399999999,0.4654088,1.107904,0.1559155,-18.54623,-49.48461,13.67572
4.798770428,24.32924,-37.95371,87.9774900000002,0.454696,1.03193,0.1645318,-21.84679,-47.95697,14.89396
4.80862999,19.79478,-40.81014,86.0771,0.4459997,0.9141375,0.1766001,-21.84679,-47.95697,14.89396
4.818488598,19.73266,-42.77394,85.6479700000001,0.4483568,0.8222646,0.1968759,-21.84679,-47.95697,14.89396
4.828347206,23.14903,-43.1905,86.4449099999999,0.4793267,0.8784562,0.1854079,-21.84679,-47.95697,14.89396
4.838206291,23.52173,-42.05983,87.1805499999999,0.5823588,0.9623985,0.1372072,-21.84679,-47.95697,14.89396
4.848064899,25.7579,-37.95371,87.8548800000003,0.6854684,1.032069,0.04623607,-25.58463,-45.00058,16.9962
4.857923508,26.37906,-34.97826,87.3031500000001,0.7219321,1.055006,-0.02213638,-25.58463,-45.00058,16.9962
4.86778307,24.88828,-34.74023,85.95449,0.7152288,1.050458,-0.05131039,-25.58463,-45.00058,16.9962
4.877641678,20.54017,-34.74023,85.34146,0.675301,1.025879,-0.02315518,-25.58463,-45.00058,16.9962
4.887499809,13.70742,-36.5255,84.9123399999999,0.593458,0.9392377,0.03382562,-25.58463,-45.00058,16.9962
4.899824142,6.874665,-41.28621,83.56367,0.4839289,0.8240887,0.08041805,-28.20358,-42.74366,18.26737
4.909682751,5.197536,-44.38068,83.2571599999999,0.4907456,0.7746114,0.1062593,-28.20358,-42.74366,18.26737
4.919541836,6.56408599999997,-46.04693,84.7897299999999,0.5705023,0.7553059,0.09010446,-28.20358,-42.74366,18.26737
4.929400444,15.26031,-46.16594,84.7897299999999,0.6586958,0.764155,0.03573103,-28.20358,-42.74366,18.26737
4.939259052,25.44732,-43.78559,84.85104,0.7386568,0.8061538,0.01673625,-28.20358,-42.74366,18.26737
4.949118137,31.5968,-40.86965,83.9314900000003,0.7825307,0.8784873,-0.00292579,-30.82177,-40.11325,19.91886
4.958976746,31.65891,-38.37027,83.68628,0.7935897,0.9807894,0.001134353,-30.82177,-40.11325,19.91886
4.968835354,24.63982,-35.98992,82.0311,0.774184,1.080478,0.02908742,-30.82177,-40.11325,19.91886
4.978694916,13.83165,-35.57335,79.1498600000001,0.7368605,1.087566,0.06082715,-30.82177,-40.11325,19.91886
4.988553524,6.93678100000001,-34.5617,75.4103700000002,0.7217086,1.06853,0.08100883,-30.82177,-40.11325,19.91886
4.998412132,4.700608,-33.49054,71.6095900000002,0.6960494,1.069841,0.1019912,-33.06302,-37.48092,22.01651
5.008271217,5.321767,-33.13349,67.4409800000003,0.6873925,1.106288,0.1091309,-33.06302,-37.48092,22.01651
5.018129826,7.12312899999999,-31.58626,61.5559000000002,0.6897279,1.145824,0.1357873,-33.06302,-37.48092,22.01651
5.027988434,5.75657900000002,-29.62246,55.05778,0.6838462,1.172133,0.1581363,-33.06302,-37.48092,22.01651
5.037847996,2.899247,-26.76603,48.00793,0.6696369,1.189577,0.1719036,-33.06302,-37.48092,22.01651
5.047706604,-0.579244300000001,-24.20715,41.63242,0.6741462,1.178905,0.1703117,-35.25318,-34.49898,22.82979
5.057565212,-1.386751,-21.11268,34.15346,0.6913372,1.153689,0.1530819,-35.25318,-34.49898,22.82979
5.069889069,0.5388422,-18.73233,25.32583,0.7217615,1.125668,0.1351606,-35.25318,-34.49898,22.82979
5.079747677,3.706754,-15.51884,17.72425,0.7466745,1.114161,0.1222493,-35.25318,-34.49898,22.82979
5.089606762,3.830986,-13.31701,11.71656,0.7509959,1.108318,0.1111168,-35.25318,-34.49898,22.82979
5.09946537,0.973653600000002,-11.76978,5.341049,0.7458847,1.083448,0.1090629,-35.62741,-32.69746,24.09378
5.109323978,-3.747156,-9.865495,0.3142034,0.7508275,1.070323,0.1012145,-35.62741,-32.69746,24.09378
5.119183064,-10.45567,-8.08022700000001,-3.915704,0.7382537,1.026935,0.1096532,-35.62741,-32.69746,24.09378
5.129041672,-16.17034,-7.00906600000001,-8.88124700000001,0.7502071,0.954001,0.09688728,-35.62741,-32.69746,24.09378
5.13890028,-23.87271,-7.66366400000002,-11.21076,0.7452993,0.9042892,0.08791211,-35.62741,-32.69746,24.09378
5.148759842,-26.97851,-5.402325,-15.13415,0.7596479,0.858703,0.09546927,-36.00516,-31.95685,24.08817
5.15861845,-33.00375,-4.271655,-16.0537,0.7530501,0.8041676,0.1018119,-36.00516,-31.95685,24.08817
5.168477535,-38.09726,-3.855092,-17.15715,0.734997,0.7509391,0.09443195,-36.00516,-31.95685,24.08817
5.178336144,-43.25288,-4.926253,-18.07669,0.7253019,0.6875435,0.08109672,-36.00516,-31.95685,24.08817
5.188194752,-47.41464,-7.723173,-18.32191,0.7056484,0.6410993,0.06996328,-36.00516,-31.95685,24.08817
5.198054314,-52.44603,-10.93666,-19.11885,0.698295,0.6128478,0.07989285,-35.25966,-32.71336,23.25967
5.207912922,-57.4153100000003,-14.26916,-19.67057,0.7193033,0.6029089,0.1049071,-35.25966,-32.71336,23.25967
5.21777153,-63.0057399999999,-17.42313,-21.08054,0.7620487,0.6028507,0.1181942,-35.25966,-32.71336,23.25967
5.227630615,-69.9627200000002,-17.60166,-20.161,0.7934695,0.587672,0.1487662,-35.25966,-32.71336,23.25967
5.237489224,-72.8821700000003,-18.97036,-19.60927,0.777276,0.5437095,0.1423964,-35.25966,-32.71336,23.25967
5.249812603,-74.4350700000003,-22.18384,-19.79318,0.775392,0.5391837,0.1078827,-34.57525,-33.77683,22.37061
5.259671688,-66.1115300000002,-26.528,-22.91963,0.7748826,0.4958566,0.1041699,-34.57525,-33.77683,22.37061
5.269530296,-63.37843,-31.2292,-19.97709,0.7574685,0.4370343,0.03108338,-34.57525,-33.77683,22.37061
5.279389381,-55.55183,-36.94206,-18.32191,0.7489928,0.4510738,0.03180186,-34.57525,-33.77683,22.37061
5.28924799,-39.46381,-38.66782,-18.50582,0.7527167,0.4510544,0.01785184,-34.57525,-33.77683,22.37061
5.299106598,-34.05972,-41.2267,-17.83148,0.7609147,0.4427944,0.001851704,-33.45076,-36.01559,21.17118
5.30896616,-31.88566,-45.8684,-16.1763,0.7496759,0.4533042,-0.02377619,-33.45076,-36.01559,21.17118
5.318824768,-28.84199,-48.24876,-18.56712,0.7251918,0.4972388,-0.05851721,-33.45076,-36.01559,21.17118
5.328683376,-29.15257,-50.80764,-20.71272,0.7171683,0.5467774,-0.06517277,-33.45076,-36.01559,21.17118
5.338542461,-33.1901,-52.77143,-18.99624,0.772986,0.5592735,0.02087225,-33.45076,-36.01559,21.17118
5.34840107,-46.35867,-53.48554,-15.80848,0.7503372,0.6826366,0.01121457,-32.69727,-37.12867,21.17863
5.358259678,-55.17913,-51.58126,-18.44451,0.7852871,0.6937472,0.03668698,-32.69727,-37.12867,21.17863
5.36811924,-65.7388400000001,-46.58251,-15.25676,0.8107747,0.6487167,0.03642289,-32.69727,-37.12867,21.17863
5.377977848,-82.4480200000003,-45.51134,-3.731794,0.7517801,0.7346124,-0.01664012,-32.69727,-37.12867,21.17863
5.387836456,-78.0999099999997,-34.5617,2.337202,0.7572884,0.6179275,-0.002368991,-32.69727,-37.12867,21.17863
5.397695541,-74.3108399999998,-27.77768,8.83531999999998,0.721831,0.5820429,-0.01510487,-31.19634,-38.25037,21.18221
5.40755415,-70.6459999999998,-24.92126,11.34874,0.6863225,0.559814,-0.01957837,-31.19634,-38.25037,21.18221
5.419878006,-63.8132400000002,-26.70652,13.18783,0.6605741,0.4927483,-0.06530134,-31.19634,-38.25037,21.18221
5.429736614,-50.89314,-28.37277,11.71656,0.6347995,0.4262985,-0.07651636,-31.19634,-38.25037,21.18221
5.439595223,-27.84813,-30.45559,8.03838099999998,0.6800211,0.3554777,-0.1232825,-31.19634,-38.25037,21.18221
5.449454308,-1.883678,-32.24085,7.36404799999998,0.6646135,0.3650387,-0.1325662,-29.70259,-39.75805,19.90929
5.459312916,20.91286,-33.72858,5.83147299999998,0.6624442,0.3879074,-0.1280295,-29.70259,-39.75805,19.90929
5.469171524,37.62204,-35.03777,6.87362400000002,0.6708103,0.4516826,-0.1400697,-29.70259,-39.75805,19.90929
5.479031086,46.56674,-37.2396,9.20313699999998,0.6763341,0.5291287,-0.1332653,-29.70259,-39.75805,19.90929
5.488889694,50.48004,-37.2396,11.10353,0.7101647,0.5844839,-0.1150707,-29.70259,-39.75805,19.90929
5.498748779,49.73465,-33.8476,15.45604,0.7353344,0.6134381,-0.1094347,-30.07234,-39.374,20.73964
5.508607388,48.30598,-28.07523,20.6668,0.7335304,0.6362758,-0.1140082,-30.07234,-39.374,20.73964
5.518465996,45.51077,-22.77893,25.01931,0.7255921,0.6391042,-0.1196216,-30.07234,-39.374,20.73964
5.528325558,43.08825,-19.68447,30.35267,0.7122536,0.632603,-0.1348207,-30.07234,-39.374,20.73964
5.538184166,41.84593,-15.63786,37.096,0.7089553,0.6033151,-0.1513137,-30.07234,-39.374,20.73964
5.548042774,44.70326,-13.55505,43.28761,0.6951007,0.5875256,-0.176647,-30.43491,-38.60399,22.84648
5.557901859,51.78447,-13.2575,47.14969,0.6921675,0.5796885,-0.1833802,-30.43491,-38.60399,22.84648
5.567760467,59.5489599999999,-11.8888,52.23784,0.7094995,0.5574417,-0.1876485,-30.43491,-38.60399,22.84648
5.577619076,66.6922900000001,-8.67531599999998,58.4907499999998,0.7263392,0.5672775,-0.1997855,-30.43491,-38.60399,22.84648
5.589942932,75.6991,-6.17594099999999,64.8662600000002,0.7416434,0.601004,-0.1958854,-30.427,-36.7285,25.32417
5.59980154,83.2772399999998,-2.90295,67.19577,0.7610555,0.6348207,-0.1776671,-30.427,-36.7285,25.32417
5.609661102,86.9420799999999,1.798256,70.5674400000002,0.775984,0.6617401,-0.1714231,-30.427,-36.7285,25.32417
5.619519234,88.5571,6.97553399999999,74.3069199999997,0.7802336,0.6861468,-0.1612145,-30.427,-36.7285,25.32417
5.629377842,87.50112,11.49821,77.9238000000002,0.7827345,0.7138778,-0.1686833,-30.427,-36.7285,25.32417
5.639237404,86.1345699999999,15.48531,82.0923999999998,0.7922929,0.7212236,-0.1788207,-30.427,-36.7285,25.32417
5.649096012,86.0724600000001,19.23438,85.95449,0.7906629,0.7255583,-0.1869073,-31.55107,-33.37283,27.40848
5.65895462,85.0164899999998,22.68589,90.92003,0.8102345,0.6888979,-0.1472429,-31.55107,-33.37283,27.40848
5.668813705,82.7181999999998,30.24353,93.6786700000002,0.8113126,0.6985644,-0.1673031,-31.55107,-33.37283,27.40848
5.678672314,81.2895399999999,33.33799,97.1116299999999,0.8020198,0.6853004,-0.1787833,-31.55107,-33.37283,27.40848
5.688531876,78.2458500000003,33.21898,101.2189,0.7913725,0.6735204,-0.1806478,-31.55107,-33.37283,27.40848
5.698390484,77.6868100000002,35.89688,102.5063,0.7973638,0.6770245,-0.1687236,-33.80524,-28.96735,29.03981
5.708249092,78.6806599999999,38.93183,102.0772,0.8419991,0.671594,-0.1650928,-33.80524,-28.96735,29.03981
5.718108177,77.9352699999999,42.85942,104.4067,0.8720339,0.6753314,-0.147759,-33.80524,-28.96735,29.03981
5.727966785,76.0717900000002,47.20358,106.491,0.8774104,0.6817246,-0.1425104,-33.80524,-28.96735,29.03981
5.737825394,73.7735099999999,50.00049,107.8397,0.8888401,0.6721106,-0.1379625,-33.80524,-28.96735,29.03981
5.747684479,72.84177,52.61889,109.4948,0.8913961,0.6633756,-0.1375934,-36.38194,-24.1457,29.45209
5.757543087,72.4690700000002,53.92808,111.763,0.8946228,0.6498144,-0.1281699,-36.38194,-24.1457,29.45209
5.76986742,73.0902300000003,55.23728,113.2956,0.9259934,0.6185099,-0.1154636,-36.38194,-24.1457,29.45209
5.779726028,77.8110400000001,57.20108,113.0504,0.9499192,0.5841807,-0.1132191,-36.38194,-24.1457,29.45209
5.789584637,87.9980500000002,60.7121,110.4757,0.9741327,0.5333337,-0.1044094,-38.65932,-18.29704,28.95588
5.799443722,103.0301,62.2593299999999,105.3875,0.97704,0.5064993,-0.1300748,-38.65932,-18.29704,28.95588
5.80930233,116.0123,63.3304899999998,98.8281200000001,0.9873914,0.5162419,-0.1517041,-38.65932,-18.29704,28.95588
5.819160938,128.684,64.34215,92.08479,1.011554,0.522368,-0.1323496,-38.65932,-18.29704,28.95588
5.829020023,137.6908,67.0200500000003,85.46407,1.037491,0.5367588,-0.1191803,-38.65932,-18.29704,28.95588
5.838878632,138.3741,68.2697399999998,79.1498600000001,1.033861,0.5684046,-0.1064023,-42.05777,-12.37318,28.52885
5.848738193,126.572,68.8648199999999,72.7130400000001,1.033144,0.651334,-0.05010504,-42.05777,-12.37318,28.52885
5.858596802,106.5707,68.0317000000002,68.1153199999998,1.001706,0.7197242,-0.03518301,-42.05777,-12.37318,28.52885
5.86845541,81.7243399999999,66.4844699999998,63.27238,0.9788771,0.7430021,-0.00255483,-42.05777,-12.37318,28.52885
5.878314495,52.21928,63.03295,59.6555099999999,0.9714705,0.7060826,0.03174152,-42.05777,-12.37318,28.52885
5.888173103,24.32924,60.8906299999997,57.4485999999998,0.9712449,0.6268427,0.05311917,-42.05777,-12.37318,28.52885
5.898031712,4.203681,58.5102699999999,55.4869,0.9546541,0.5273795,0.04053623,-43.98493,-6.140305,25.08168
5.907890797,-6.48025699999999,54.0471,53.83172,0.9369012,0.4180905,0.005843768,-43.98493,-6.140305,25.08168
5.917749405,-8.09526999999998,48.27473,51.3183,0.92351,0.3423814,-0.03821146,-43.98493,-6.140305,25.08168
5.927608967,-4.989474,42.7404,48.25315,0.9239881,0.2878363,-0.05113779,-43.98493,-6.140305,25.08168
5.939932346,3.76887,38.39625,44.82018,0.9437734,0.2621957,-0.05786576,-45.51557,-1.789791,23.38043
5.949790955,8.73814300000001,36.73,43.28761,0.9538051,0.2763765,-0.06316026,-45.51557,-1.789791,23.38043
5.95965004,7.24736100000001,33.93308,42.67458,0.9398813,0.2796081,-0.07683132,-45.51557,-1.789791,23.38043
5.969508648,3.706754,29.35089,41.0807,0.9298613,0.2682249,-0.1040989,-45.51557,-1.789791,23.38043
5.979367256,2.215972,25.24478,38.87379,0.9370598,0.2464151,-0.09767681,-45.51557,-1.789791,23.38043
5.989226341,2.775015,23.22147,35.25691,0.9312363,0.2507705,-0.09036906,-46.27905,0.047997,22.53326
5.999084949,4.452145,20.24603,30.16876,0.9097877,0.2714601,-0.1023479,-46.27905,0.047997,22.53326
6.008944511,6.56408599999997,15.4258,25.08061,0.9019121,0.2980942,-0.1183037,-46.27905,0.047997,22.53326
6.01880312,8.92449099999999,10.78411,19.86986,0.9357276,0.3173163,-0.1329994,-46.27905,0.047997,22.53326
6.028661728,11.53336,8.46325700000001,14.90432,0.9722561,0.3195483,-0.1430852,-46.27905,0.047997,22.53326
6.038520813,13.76953,7.98718600000001,10.30659,0.9778212,0.3172073,-0.1316835,-46.29307,1.509006,21.68599
6.048379421,12.4651,6.32093599999998,5.524958,0.9474702,0.3247443,-0.1263953,-46.29307,1.509006,21.68599
6.058238029,9.54565000000002,4.833212,0.8659304,0.9310161,0.3153715,-0.1214479,-46.29307,1.509006,21.68599
6.068097115,6.93678100000001,2.631382,-3.609189,0.9075518,0.3021214,-0.09582772,-46.29307,1.509006,21.68599
6.077955723,6.06715799999999,-0.820136700000001,-8.02300500000002,0.8984591,0.2753793,-0.06860945,-46.29307,1.509006,21.68599
6.087815285,6.874665,-3.140985,-11.57858,0.8743054,0.2202154,-0.05866756,-45.54884,1.494137,21.23404
6.097673893,9.04872300000001,-7.00906600000001,-15.07285,0.8712228,0.1958712,-0.05499548,-45.54884,1.494137,21.23404
6.107532501,12.27875,-11.8888,-18.50582,0.9484305,0.2072728,-0.05168686,-45.54884,1.494137,21.23404
6.119856358,12.34087,-14.86425,-20.71272,1.029321,0.2606306,-0.02842947,-45.54884,1.494137,21.23404
6.129714966,6.129274,-16.17344,-20.95794,1.040323,0.2958115,-0.01583019,-45.54884,1.494137,21.23404
6.139573574,-0.889823900000002,-17.06608,-20.95794,1.020145,0.2864582,0.003067242,-45.55486,2.598579,21.22272
6.149432659,-4.927359,-17.42313,-19.54797,0.9830101,0.2841884,0.004535748,-45.55486,2.598579,21.22272
6.159291267,-7.97103800000001,-16.70902,-18.44451,0.9778867,0.264197,0.00587765,-45.55486,2.598579,21.22272
6.169150829,-8.84066099999998,-14.20965,-17.95409,0.9915994,0.2336996,0.01596722,-45.55486,2.598579,21.22272
6.179009438,-7.72257499999999,-11.29371,-17.15715,1.002151,0.1948117,0.002071067,-45.55486,2.598579,21.22272
6.188868046,-3.99562,-9.50844099999999,-16.1763,1.001416,0.1709496,-0.0009950511,-46.28909,1.888735,22.5144
6.198727131,-0.1444329,-7.723173,-15.07285,0.9946292,0.1674889,0.0005100779,-46.28909,1.888735,22.5144
6.208585739,3.396174,-6.89004799999999,-14.70503,0.9828412,0.1732301,0.002164138,-46.28909,1.888735,22.5144
6.218444347,5.383883,-6.652012,-15.31806,0.9734799,0.1838697,0.006700145,-46.28909,1.888735,22.5144
6.228303433,6.874665,-7.60415499999998,-17.21845,0.9589236,0.1744975,0.007307713,-46.28909,1.888735,22.5144
6.238162041,8.986607,-9.56794999999997,-19.60927,0.9569938,0.166188,0.001993895,-46.28584,0.7789469,22.14163
6.248021603,12.03029,-10.99616,-21.69357,0.9675185,0.1575627,0.01279269,-46.28584,0.7789469,22.14163
6.257880211,14.94973,-12.18634,-22.3679,0.9772808,0.1620373,0.01508731,-46.28584,0.7789469,22.14163
6.267738819,15.81936,-12.18634,-21.75488,0.9895922,0.1748627,0.03227126,-46.28584,0.7789469,22.14163
6.277597904,13.83165,-11.35322,-20.2223,0.9961981,0.1919421,0.02944605,-46.28584,0.7789469,22.14163
6.287456513,9.483534,-9.865495,-17.64757,1.003166,0.2153365,0.02283539,-45.9121,0.774631,22.1397
6.299780369,0.1040308,-8.49678899999997,-14.0307,1.012637,0.2294925,0.01227748,-45.9121,0.774631,22.1397
6.309638977,-7.34987899999998,-6.830539,-10.59773,1.030742,0.2179367,0.002337933,-45.9121,0.774631,22.1397
6.319497585,-11.20107,-4.807235,-8.32951900000003,1.031455,0.1935935,-0.002669666,-45.9121,0.774631,22.1397
6.329357147,-12.07069,-3.43853,-6.36782300000001,1.01298,0.1758853,-0.009743791,-45.9121,0.774631,22.1397
6.339215756,-11.20107,-3.021967,-4.773945,0.9885323,0.1717663,-0.01230531,-45.52637,-0.322546,22.98126
6.349074364,-9.27547199999997,-3.260003,-4.038309,0.9763434,0.1755755,-0.005869852,-45.52637,-0.322546,22.98126
6.358933449,-5.921213,-3.795583,-3.670491,0.9771848,0.1755451,-0.01594529,-45.52637,-0.322546,22.98126
6.368792057,-2.691185,-4.450181,-3.118764,0.9825715,0.1843824,-0.007801089,-45.52637,-0.322546,22.98126
6.378651619,-0.765591999999998,-3.97411,-2.62834,0.9932036,0.1946934,-0.008344805,-45.52637,-0.322546,22.98126
6.388510227,-0.703476100000001,-3.081476,-2.076613,1.009974,0.2147622,-0.01656085,-45.15063,-0.6950102,22.9831
6.398368836,-2.877533,-1.712771,-1.58619,1.015335,0.2235921,-0.01033314,-45.15063,-0.6950102,22.9831
6.408227921,-4.678895,0.370042,-0.727947499999999,1.00646,0.2234942,-0.01547867,-45.15063,-0.6950102,22.9831
6.418086529,-7.16353100000001,0.9056224,0.4981124,0.9977707,0.2131967,-0.01592093,-45.15063,-0.6950102,22.9831
6.427945137,-8.77854399999999,0.4295509,1.662869,0.9879308,0.2004002,-0.03122307,-45.15063,-0.6950102,22.9831
6.437804222,-9.02700799999998,-0.04652058,2.337202,0.9905628,0.1902221,-0.02655448,-45.52361,-0.3172002,23.36534
6.44766283,-7.10141600000002,0.1320062,2.275899,0.9973398,0.1912388,-0.03095529,-45.52361,-0.3172002,23.36534
6.457522392,-4.803127,0.1320062,2.214596,0.9953952,0.1990366,-0.02319457,-45.52361,-0.3172002,23.36534
6.469845295,-3.063881,-0.1655384,1.908081,0.9907433,0.2189438,-0.02391866,-45.52361,-0.3172002,23.36534
6.479703903,-2.691185,-0.582100999999999,1.233748,0.988191,0.230121,-0.02187116,-45.52361,-0.3172002,23.36534
6.489563465,-2.691185,-0.2250474,0.682021400000003,0.9940165,0.2184428,-0.03547033,-45.15385,-0.7012467,22.535
6.499422073,-2.132142,0.4890598,0.3142034,0.9882892,0.2174551,-0.02581305,-45.15385,-0.7012467,22.535
6.509281159,-1.200403,1.084149,0.0689914200000002,0.989091,0.2213192,-0.03537585,-45.15385,-0.7012467,22.535
6.519139767,-0.2065488,1.61973,-0.05361458,0.9802317,0.2231788,-0.03762989,-45.15385,-0.7012467,22.535
6.528998375,0.4767263,1.917274,-0.4214326,0.9769006,0.2197574,-0.03377769,-45.15385,-0.7012467,22.535
6.538857937,1.656929,2.393346,-0.6666446,0.9710742,0.217765,-0.03227387,-45.51959,-1.053495,23.37288
6.548716545,3.706754,2.809908,-0.973159599999999,0.9692486,0.2094853,-0.02992173,-45.51959,-1.053495,23.37288
6.558575153,6.129274,2.036292,-1.647493,0.9569447,0.2103323,-0.03453121,-45.51959,-1.053495,23.37288
6.568434238,8.73814300000001,1.798256,-2.750947,0.9626684,0.2176659,-0.03886369,-45.51959,-1.053495,23.37288
6.578292847,11.03643,1.917274,-3.670491,0.9755469,0.2217298,-0.02367856,-45.51959,-1.053495,23.37288
6.588151932,12.4651,2.214819,-2.689644,0.9822732,0.2155438,-0.00226266,-45.14385,-1.42596,23.37472
6.59801054,14.8255,2.512363,-2.321826,0.9689853,0.2168688,-0.006854089,-45.14385,-1.42596,23.37472
6.607869148,17.49649,1.917274,-3.793097,0.952288,0.2400026,-0.02702645,-45.14385,-1.42596,23.37472
6.61772871,17.68283,-0.1060295,-5.570884,0.9433589,0.2647889,-0.01423082,-45.14385,-1.42596,23.37472
6.627587318,15.94359,-0.3440652,-5.754793,0.9560295,0.3033226,-0.0198366,-45.14385,-1.42596,23.37472
6.637445927,10.22893,-0.4035742,-5.632187,0.9620602,0.3578314,-0.03192172,-45.89608,-1.054525,22.99073
6.649769783,0.1040308,-2.426878,-6.36782300000001,0.9537101,0.403018,-0.03046297,-45.89608,-1.054525,22.99073
6.659628391,-7.47411100000001,-4.985762,-8.14561100000001,0.9435025,0.3806224,-0.009421711,-45.89608,-1.054525,22.99073
6.669487476,-11.01472,-4.807235,-8.39082200000002,0.9564964,0.3145497,-0.01160212,-45.89608,-1.054525,22.99073
6.679346085,-7.10141600000002,-5.342815,-11.39467,0.9433708,0.2895568,-0.02743955,-45.89608,-1.054525,22.99073
6.689205646,0.5388422,-8.79433299999997,-17.46367,0.9353433,0.2718541,-0.0576641,-45.8993,-1.060761,22.54264
6.699064255,8.241216,-11.47224,-22.12269,0.9144704,0.2808552,-0.07358343,-45.8993,-1.060761,22.54264
6.708922863,15.50878,-13.85259,-29.04993,0.9081862,0.3376725,-0.08978634,-45.8993,-1.060761,22.54264
6.718781948,17.86918,-17.60166,-36.03848,0.9260382,0.3957259,-0.09290524,-45.8993,-1.060761,22.54264
6.728640556,12.77568,-20.16054,-40.51359,0.93924,0.4406228,-0.08983929,-45.8993,-1.060761,22.54264
6.738499165,3.830986,-23.31451,-43.14962,0.9412975,0.4727566,-0.09007663,-45.51959,-1.053495,23.37288
6.74835825,-5.98332900000001,-27.8967,-45.90826,0.9236963,0.4890679,-0.1107729,-45.51959,-1.053495,23.37288
6.758216858,-14.99014,-33.66907,-48.48298,0.9042794,0.4731791,-0.1494454,-45.51959,-1.053495,23.37288
6.76807642,-21.26385,-40.86965,-51.42553,0.8947496,0.4414302,-0.1586823,-45.51959,-1.053495,23.37288
6.777935028,-22.07135,-47.29662,-54.9198,0.9054834,0.4239412,-0.1762341,-45.51959,-1.053495,23.37288
6.787793636,-20.95326,-51.28371,-59.8853399999999,0.9244847,0.4231118,-0.1827415,-45.50357,-2.882652,24.22392
6.797652721,-19.89729,-54.14014,-65.5865199999999,0.9497505,0.4379349,-0.1824973,-45.50357,-2.882652,24.22392
6.80751133,-17.599,-55.74688,-70.1229399999999,0.9571054,0.4671631,-0.1914602,-45.50357,-2.882652,24.22392
6.819835186,-17.16419,-57.1751,-74.3528500000002,0.9555373,0.4948153,-0.2103725,-45.50357,-2.882652,24.22392
6.829693794,-18.59286,-57.4726399999998,-77.3567000000001,0.9497503,0.5141809,-0.223065,-45.50357,-2.882652,24.22392
6.839552402,-20.95326,-58.3652800000002,-78.5214499999999,0.9456453,0.5204386,-0.2315792,-44.35791,-5.080431,25.96912
6.849411964,-25.30138,-61.1622000000002,-79.3796999999998,0.9149561,0.5448318,-0.2721471,-44.35791,-5.080431,25.96912
6.859270573,-30.14642,-66.57751,-83.7935099999998,0.8826087,0.5771045,-0.2838729,-44.35791,-5.080431,25.96912
6.869129181,-36.29589,-69.1363899999999,-88.69775,0.8890178,0.5931512,-0.3020384,-44.35791,-5.080431,25.96912
6.878988266,-39.71227,-71.9928199999998,-89.4946899999998,0.8962484,0.5878152,-0.3146457,-44.35791,-5.080431,25.96912
6.888846874,-43.06653,-74.3731800000002,-89.86251,0.8906872,0.5717399,-0.3060765,-42.82732,-8.31492,28.49124
6.898705959,-43.06653,-75.5633599999999,-91.2724799999998,0.8756322,0.5472255,-0.3194864,-42.82732,-8.31492,28.49124
6.908564568,-41.0167,-77.5271499999999,-90.9046600000001,0.8574828,0.5296102,-0.3026044,-42.82732,-8.31492,28.49124
6.918423176,-40.08496,-77.8842099999998,-89.6172900000001,0.8549879,0.5189686,-0.2796571,-42.82732,-8.31492,28.49124
6.928282738,-39.21534,-77.8246999999999,-88.0234200000002,0.8433431,0.5203567,-0.271333,-42.82732,-8.31492,28.49124
6.938141346,-39.89862,-77.8246999999999,-86.7973600000003,0.8275927,0.536302,-0.2642652,-40.17193,-12.7335,30.63542
6.948000431,-42.81807,-76.5154999999999,-85.4486899999998,0.8255569,0.5528619,-0.2554708,-40.17193,-12.7335,30.63542
6.957859039,-47.91157,-74.96827,-82.99657,0.8236871,0.5751926,-0.2653189,-40.17193,-12.7335,30.63542
6.967717648,-52.19757,-76.0394299999999,-81.1574899999998,0.8079137,0.6012489,-0.2869174,-40.17193,-12.7335,30.63542
6.977577209,-55.61395,-80.0265300000001,-80.9122699999999,0.7989572,0.6294451,-0.2731341,-40.17193,-12.7335,30.63542
6.987435818,-61.6391899999998,-81.57376,-80.72836,0.8146371,0.640332,-0.261765,-37.51856,-16.78394,32.77583
6.999759674,-66.1115300000002,-82.1688499999998,-79.07318,0.8232732,0.6160856,-0.2596967,-37.51856,-16.78394,32.77583
7.009618282,-67.8507800000001,-81.3952299999998,-76.8662699999999,0.8487451,0.5822799,-0.2512402,-37.51856,-16.78394,32.77583
7.019476891,-67.6023199999998,-78.12225,-73.372,0.862188,0.5541468,-0.2588573,-37.51856,-16.78394,32.77583
7.029335976,-65.4282600000003,-75.1467999999997,-70.06164,0.8443826,0.5519823,-0.2749145,-37.51856,-16.78394,32.77583
7.039194584,-62.1982299999998,-74.01613,-69.6325199999999,0.8278226,0.5712496,-0.2884127,-34.56052,-20.78909,34.01781
7.049053192,-59.71359,-74.7897399999998,-70.55206,0.8244244,0.5751325,-0.2830603,-34.56052,-20.78909,34.01781
7.058912277,-57.66377,-74.1946600000002,-69.93903,0.829739,0.5626025,-0.2631154,-34.56052,-20.78909,34.01781
7.068770885,-52.75661,-75.4443400000001,-68.2225500000001,0.8416372,0.5639458,-0.3222152,-34.56052,-20.78909,34.01781
7.078630447,-44.43308,-72.8854600000002,-68.9581799999998,0.8503125,0.553516,-0.2692357,-34.56052,-20.78909,34.01781
7.088489056,-35.30204,-71.0406800000003,-67.8547400000002,0.8253605,0.5687822,-0.2917528,-30.79316,-25.23844,34.87592
7.098347664,-29.96007,-70.9216599999999,-69.0808000000001,0.8291048,0.5880798,-0.2154506,-30.79316,-25.23844,34.87592
7.108206749,-22.63039,-68.7198299999997,-69.5099099999999,0.8212566,0.6541329,-0.2305949,-30.79316,-25.23844,34.87592
7.118065357,-18.90344,-69.8505000000001,-72.6976700000002,0.8108478,0.7178258,-0.220325,-30.79316,-25.23844,34.87592
7.127924919,-20.26999,-68.6008099999999,-75.64021,0.8192987,0.7778544,-0.1935829,-30.79316,-25.23844,34.87592
7.137783527,-26.10889,-67.05358,-76.5597599999998,0.8216132,0.8245732,-0.1980136,-27.78404,-28.21192,35.33873
7.147642136,-35.17781,-67.41064,-76.5597599999998,0.8055483,0.8565404,-0.1999108,-27.78404,-28.21192,35.33873
7.157501221,-46.79348,-69.4339399999999,-73.0654899999999,0.7924103,0.8660728,-0.2221655,-27.78404,-28.21192,35.33873
7.1698246,-67.2917299999998,-74.3731800000002,-63.5022199999998,0.7628657,0.8885691,-0.2522233,-27.78404,-28.21192,35.33873
7.179683685,-88.2869199999999,-80.1455499999999,-52.16116,0.7419416,0.911226,-0.2598803,-27.78404,-28.21192,35.33873
7.189542294,-107.5428,-89.6669799999997,-40.7588,0.7021183,0.9124182,-0.2372595,-22.90628,-31.20697,35.79188
7.199400902,-127.0472,-95.0822900000001,-30.70511,0.6926913,0.8368933,-0.2415961,-22.90628,-31.20697,35.79188
7.209259987,-136.9237,-100.3786,-22.49051,0.6557651,0.789984,-0.335868,-22.90628,-31.20697,35.79188
7.219118595,-138.7872,-103.9491,-21.44836,0.6816453,0.7289541,-0.3214175,-22.90628,-31.20697,35.79188
7.228978157,-143.8185,-104.7227,-16.23761,0.9183071,0.6972728,0.1435992,-22.90628,-31.20697,35.79188
7.238836765,-142.3278,-83.7755900000002,-10.41382,1.022424,0.7265424,0.3062485,-18.47529,-34.52784,34.52206
7.248695374,-134.5633,-48.36777,-8.88124700000001,0.8412461,0.6707781,0.1377651,-18.47529,-34.52784,34.52206
7.258554459,-132.4513,-40.27456,-3.425279,0.6108899,0.7043403,0.02919879,-18.47529,-34.52784,34.52206
7.268413067,-136.1783,-41.58376,6.32189799999997,0.5188409,0.8167186,-0.02077362,-18.47529,-34.52784,34.52206
7.278272629,-144.8745,-43.25001,17.41774,0.4553932,0.9030491,-0.07712388,-18.47529,-34.52784,34.52206
7.288131237,-149.7817,-46.64202,31.27222,0.3823866,0.9096934,-0.07938168,-15.48729,-38.65832,31.21936
7.297989845,-155.4963,-47.77269,41.69373,0.325831,0.8771574,-0.05776544,-15.48729,-38.65832,31.21936
7.30784893,-158.8506,-46.99907,48.13054,0.3068396,0.8237965,-0.09819785,-15.48729,-38.65832,31.21936
7.317707539,-164.5653,-49.26041,53.15739,0.2975394,0.8106655,-0.07421614,-15.48729,-38.65832,31.21936
7.327566147,-166.6772,-42.23835,55.18039,0.3075163,0.7938545,-0.03903945,-15.48729,-38.65832,31.21936
7.337425232,-166.6772,-36.16845,56.83557,0.2570309,0.7509043,-0.08372714,-15.12984,-42.41449,26.19804
7.349748612,-161.5837,-36.16845,62.7819600000001,0.1871932,0.7570179,-0.1052025,-15.12984,-42.41449,26.19804
7.359607697,-152.4527,-32.24085,59.7781100000001,0.1714491,0.7648004,-0.06897251,-15.12984,-42.41449,26.19804
7.369466305,-133.1346,-23.31451,63.2110699999999,0.1596909,0.824608,-0.05344502,-15.12984,-42.41449,26.19804
7.379324913,-136.9858,-19.08938,58.30684,0.2169001,0.7944845,-0.04636822,-15.12984,-42.41449,26.19804
7.389184475,-121.3326,-11.94831,47.51751,0.2716929,0.7656772,-0.07183144,-15.89679,-46.16396,20.73442
7.399043083,-110.5244,-2.426878,44.51366,0.3857931,0.6636222,-0.04604617,-15.89679,-46.16396,20.73442
7.408902168,-98.1633500000002,8.403749,49.3566,0.3267339,0.753728,0.1151294,-15.89679,-46.16396,20.73442
7.418760777,-108.7852,17.62763,41.57112,0.3960559,0.6740155,0.1058015,-15.89679,-46.16396,20.73442
7.428619385,-129.0971,22.20982,47.88533,0.3986737,0.6741689,0.01088399,-15.89679,-46.16396,20.73442
7.438478947,-136.1783,16.97304,57.8777199999999,0.4871322,0.6028892,-0.1304253,-17.80053,-46.9544,15.31045
7.448337555,-125.4322,8.93932899999999,69.4026800000001,0.5782183,0.4850837,-0.2275992,-17.80053,-46.9544,15.31045
7.45819664,-99.96471,-1.355717,71.7935000000001,0.644006,0.3530692,-0.2909886,-17.80053,-46.9544,15.31045
7.468055248,-74.3729500000002,-7.78268199999998,67.4409800000003,0.6816494,0.322555,-0.2122355,-17.80053,-46.9544,15.31045
7.477913857,-58.47128,-14.15014,61.4332900000001,0.7007666,0.4252626,-0.1191557,-17.80053,-46.9544,15.31045
7.487772942,-54.80644,-19.26791,60.1459299999998,0.6596333,0.5636259,-0.1078177,-19.69105,-48.46332,11.17429
7.49763155,-56.66991,-23.9096,62.23023,0.5749728,0.7011709,0.04741433,-19.69105,-48.46332,11.17429
7.507491112,-69.7763700000002,-31.28871,66.03101,0.550065,0.6632329,-0.01868037,-19.69105,-48.46332,11.17429
7.519814491,-72.6958199999998,-40.39358,75.4103700000002,0.4671823,0.6118006,-0.04285151,-19.69105,-48.46332,11.17429
7.5296731,-68.4098200000002,-49.2009,83.0119399999999,0.4717312,0.5518818,0.05864746,-19.69105,-48.46332,11.17429
7.539532185,-65.4903700000001,-50.98617,90.7361200000002,0.4640107,0.6323478,-0.006213748,-21.95338,-48.10402,8.685575
7.549390793,-67.3538499999999,-56.69903,92.3299999999997,0.5655981,0.6860659,0.06419245,-21.95338,-48.10402,8.685575
7.559249878,-75.6773800000002,-52.65242,96.3146999999998,0.6195111,0.7478179,0.05388201,-21.95338,-48.10402,8.685575
7.569108486,-82.2616699999998,-48.60581,95.7016600000002,0.6223167,0.6940193,0.1046623,-21.95338,-48.10402,8.685575
7.578967094,-86.54767,-43.07148,98.0924800000002,0.6039438,0.5457657,0.06198268,-21.95338,-48.10402,8.685575
7.588826656,-74.3729500000002,-39.38193,99.3185400000001,0.5898047,0.3953323,0.07672821,-25.64837,-46.61216,7.025128
7.598685264,-54.74432,-32.47889,99.8089699999997,0.6235823,0.2663103,0.1082227,-25.64837,-46.61216,7.025128
7.60854435,-39.52592,-22.00532,104.0389,0.6482172,0.2398597,0.1335251,-25.64837,-46.61216,7.025128
7.618402958,-26.85428,-14.03112,110.1692,0.6755011,0.2742466,0.1554697,-25.64837,-46.61216,7.025128
7.628261566,-20.51845,-2.843441,114.7056,0.6913091,0.3793979,0.2591596,-25.64837,-46.61216,7.025128
7.638120651,-22.00924,8.28473000000001,120.1003,0.7307241,0.4192356,0.2785812,-28.65745,-44.7547,5.741452
7.647979259,-19.21402,22.62638,124.1463,0.7618731,0.4509319,0.2228177,-28.65745,-44.7547,5.741452
7.657838821,-12.19492,33.63554,125.4949,0.8229932,0.4407243,0.211318,-28.65745,-44.7547,5.741452
7.66769743,2.961363,43.33549,122.2459,0.8693963,0.4137753,0.1821565,-28.65745,-44.7547,5.741452
7.677556038,22.90057,53.15447,119.242,0.8733274,0.4341854,0.1655007,-28.65745,-44.7547,5.741452
7.689879894,36.50396,62.08081,111.15,0.8810867,0.4546057,0.1425609,-32.79173,-42.14801,4.456029
7.699738502,52.21928,63.2709799999999,109.5561,0.9321124,0.4826577,0.1061304,-32.79173,-42.14801,4.456029
7.709597588,61.0397500000001,58.92683,102.1998,1.018774,0.532892,0.1910959,-32.79173,-42.14801,4.456029
7.719456196,63.2137999999999,56.18942,96.8051100000001,1.110371,0.4984486,0.1329542,-32.79173,-42.14801,4.456029
7.729314804,65.8847899999997,50.59558,91.1039399999998,1.182371,0.4826466,0.1610258,-32.79173,-42.14801,4.456029
7.739174366,64.2697799999999,46.60849,88.5905200000002,1.201163,0.4518926,0.2203984,-37.61076,-38.41649,4.059029
7.749032974,58.8035699999999,40.12201,87.48706,1.201416,0.4481944,0.2716379,-37.61076,-38.41649,4.059029
7.758892059,46.8152,32.92143,80.8050400000001,1.213739,0.4222354,0.3273095,-37.61076,-38.41649,4.059029
7.768750668,29.11216,21.07915,74.1230099999999,1.21399,0.3869368,0.3864288,-37.61076,-38.41649,4.059029
7.778609276,10.16681,11.79576,68.1766200000002,1.221171,0.323758,0.3910645,-37.61076,-38.41649,4.059029
7.788468361,-6.85295199999998,-0.2250474,61.6784999999999,1.166461,0.2132263,0.3717434,-40.24216,-35.0676,4.422698
7.798326969,-22.56828,-11.82929,58.2455400000001,1.121999,0.1260782,0.3352225,-40.24216,-35.0676,4.422698
7.808186531,-28.71775,-18.5538,50.88918,1.137634,0.0254188,0.316899,-40.24216,-35.0676,4.422698
7.818045139,-22.31981,-17.18509,44.20715,1.127018,0.02585339,0.3280755,-40.24216,-35.0676,4.422698
7.827903748,-12.25704,-16.94706,38.75118,0.9968522,0.1769634,0.3153924,-40.24216,-35.0676,4.422698
7.837762833,-13.99628,-18.43478,34.82779,0.9659259,0.3554335,0.3571129,-42.49827,-32.52603,4.408522
7.847621441,-21.26385,-17.60166,37.0347,0.9866613,0.4649798,0.3237187,-42.49827,-32.52603,4.408522
7.857481003,-24.74234,-13.85259,42.73588,0.934261,0.4876645,0.2681114,-42.49827,-32.52603,4.408522
7.869803905,-26.85428,-9.92500399999998,53.64781,0.8861176,0.3557663,0.2451621,-42.49827,-32.52603,4.408522
7.879662514,-16.23246,-0.582100999999999,46.47536,0.8335489,0.4323782,0.2963946,-42.49827,-32.52603,4.408522
7.889522076,-20.02153,-1.831789,52.42175,0.8200836,0.4132298,0.1531443,-43.99799,-31.02994,4.849262
7.899380684,-19.64883,2.036292,59.7781100000001,0.8463109,0.4312563,0.2267194,-43.99799,-31.02994,4.849262
7.909239769,-31.01604,-0.2250474,62.4754400000002,0.8469077,0.4236977,0.1562047,-43.99799,-31.02994,4.849262
7.919098377,-39.09111,-0.879645599999998,59.7781100000001,0.9168652,0.3510014,0.1996389,-43.99799,-31.02994,4.849262
7.928956985,-40.45766,0.370042,58.6133500000001,0.9707981,0.2168148,0.2336777,-43.99799,-31.02994,4.849262
7.938816071,-39.40169,-0.879645599999998,56.46775,0.9106647,0.2341389,0.3238121,-44.75549,-29.18057,4.834272
7.948674679,-49.46447,-4.866744,50.95048,1.08199,0.2847793,0.4468687,-44.75549,-29.18057,4.834272
7.958534241,-46.73137,4.41665,50.95048,1.142425,-0.07926508,0.289112,-44.75549,-29.18057,4.834272
7.968392849,-40.70612,2.631382,45.92363,0.9568084,-0.02490471,0.4302257,-44.75549,-29.18057,4.834272
7.978251457,-38.78053,0.608077699999999,29.37182,0.9678896,0.01393421,0.3800797,-44.75549,-29.18057,4.834272
7.988110542,-30.89181,-4.688217,26.55189,1.098896,-0.03760811,0.470263,-46.27441,-26.97758,3.155016
7.997969151,-25.92254,-2.367369,20.29898,1.029696,0.07346826,0.4084531,-46.27441,-26.97758,3.155016
8.007828712,-26.85428,-0.2845563,16.43689,1.011279,0.08214109,0.4289152,-46.27441,-26.97758,3.155016
8.017687321,-29.21468,0.4890598,16.25298,1.019958,0.1114764,0.4453318,-46.27441,-26.97758,3.155016
8.027545929,-32.63105,1.679239,16.86601,1.013398,0.05584037,0.4176414,-46.27441,-26.97758,3.155016
8.039869785,-35.67474,1.738747,11.83917,0.9667982,-0.05174695,0.3857705,-47.77937,-25.11958,3.143889
8.049728394,-31.07816,3.404998,7.18013899999999,0.9118078,-0.08109499,0.3455746,-47.77937,-25.11958,3.143889
8.059587479,-29.02833,2.274328,2.214596,0.8809738,-0.06149013,0.3260531,-47.77937,-25.11958,3.143889
8.069446087,-24.49387,0.07249729,1.233748,0.911139,-0.06837396,0.2359548,-47.77937,-25.11958,3.143889
8.079305649,-19.40037,1.262676,-0.05361458,0.9342553,-0.09059324,0.2253747,-47.77937,-25.11958,3.143889
8.089164257,-11.94646,-0.701118900000002,-1.647493,0.8762317,-0.08142529,0.211903,-47.78857,-25.1374,1.863613
8.099022865,-8.59219699999999,-3.021967,-7.10345900000001,0.928898,-0.03329372,0.2058082,-47.78857,-25.1374,1.863613
8.10888195,-5.424286,-6.05692300000003,-10.90425,0.9226915,-0.05381196,0.1990147,-47.78857,-25.1374,1.863613
8.118740559,-1.883678,-8.97285999999998,-14.39852,0.9536419,-0.121718,0.1845829,-47.78857,-25.1374,1.863613
8.128599644,7.620056,-9.44893200000001,-11.76249,0.982986,-0.06704909,0.1601869,-47.78857,-25.1374,1.863613
8.138458252,15.75724,-7.42562799999997,-7.40997399999998,1.003798,0.07243599,0.1946114,-47.40887,-25.13013,2.69386
8.14831686,12.89991,-5.10478,-3.670491,0.967623,0.2386906,0.2353452,-47.40887,-25.13013,2.69386
8.158176422,3.396174,-5.64036,-1.647493,0.9991158,0.2076913,0.329037,-47.40887,-25.13013,2.69386
8.16803503,-3.436576,-5.342815,1.295051,0.9831125,0.02309101,0.3205192,-47.40887,-25.13013,2.69386
8.177894115,-0.0823169599999999,-6.11643200000001,-2.015311,0.9570937,-0.113951,0.3010447,-47.40887,-25.13013,2.69386
8.187752724,8.30333200000001,-7.00906600000001,-5.570884,0.9895287,-0.1026638,0.2498825,-47.41363,-24.76733,2.306007
8.197611332,16.3784,-6.35446700000003,-7.961701,1.001308,-0.002867694,0.2328265,-47.41363,-24.76733,2.306007
8.207470417,19.42208,-4.807235,-6.91955000000002,0.9932935,0.09975494,0.2376404,-47.41363,-24.76733,2.306007
8.219793797,16.44052,-3.617057,-3.609189,0.9525192,0.2084388,0.249202,-47.41363,-24.76733,2.306007
8.229653359,8.73814300000001,-4.985762,-0.05361458,0.9419947,0.2730751,0.2518142,-47.77937,-25.11958,3.143889
8.239511967,1.532697,-5.699869,1.908081,0.9507999,0.2306773,0.2144326,-47.77937,-25.11958,3.143889
8.249370575,-3.312345,-4.688217,2.766323,0.9735045,0.1185593,0.2380812,-47.77937,-25.11958,3.143889
8.25922966,-0.5171283,-4.688217,1.172445,0.9099358,0.07078061,0.2342711,-47.77937,-25.11958,3.143889
8.269088268,5.197536,-6.53299399999998,-2.812249,0.9304891,0.06998825,0.2339715,-47.77937,-25.11958,3.143889
8.278947353,10.10469,-7.36611899999999,-3.977006,0.9590229,0.08151462,0.2557053,-47.77937,-25.11958,3.143889
8.288805962,12.27875,-7.18759300000001,-5.019157,0.9567332,0.0942314,0.2783676,-47.40564,-25.1239,3.141957
8.29866457,13.21049,-7.18759300000001,-5.264369,0.984964,0.1120183,0.2833866,-47.40564,-25.1239,3.141957
8.308524132,12.77568,-4.688217,-3.24137,0.9893267,0.1554981,0.3186729,-47.40564,-25.1239,3.141957
8.31838274,9.54565000000002,-4.628708,-3.24137,0.9715492,0.2316758,0.3018388,-47.40564,-25.1239,3.141957
8.328241825,0.787305800000002,-2.605405,-3.609189,1.016356,0.2541232,0.3426008,-47.40564,-25.1239,3.141957
8.338100433,-4.181968,-0.701118900000002,-2.689644,0.9877223,0.1813221,0.3313729,-47.0299,-25.49636,3.143797
8.347959042,-4.616779,-0.5225921,-4.160915,0.9575697,0.1001935,0.3090748,-47.0299,-25.49636,3.143797
8.357818127,-0.1444329,-0.939154599999998,-4.712642,0.978656,0.03803653,0.2938737,-47.0299,-25.49636,3.143797
8.367676735,3.830986,1.143658,-2.873553,0.9994708,0.05915378,0.2961513,-47.0299,-25.49636,3.143797
8.377536297,4.017333,2.928926,-1.708796,0.9738451,0.1075624,0.2892578,-47.0299,-25.49636,3.143797
8.389859676,0.911537699999999,3.404998,-1.58619,0.9660831,0.1449699,0.2911218,-47.02715,-25.49101,3.52788
8.399718762,-0.827707900000002,4.119105,-1.647493,0.9682491,0.1284472,0.2919098,-47.02715,-25.49101,3.52788
8.40957737,0.4146104,4.595177,-0.850553500000001,0.9548224,0.1282678,0.2758069,-47.02715,-25.49101,3.52788
8.419435978,-0.3307806,4.95223,-0.4214326,0.9661912,0.1171718,0.2745928,-47.02715,-25.49101,3.52788
8.429295063,-0.765591999999998,5.725846,1.908081,0.9834035,0.1193022,0.2829911,-47.39565,-25.84861,3.981678
8.439153671,-1.573099,6.737498,2.888929,0.966572,0.08456921,0.2738331,-47.39565,-25.84861,3.981678
8.449013233,-0.703476100000001,6.61847999999998,2.950232,0.9526104,0.07181377,0.2791956,-47.39565,-25.84861,3.981678
8.458871842,0.3524944,5.96388199999997,2.275899,0.9524497,0.06883859,0.2647968,-47.39565,-25.84861,3.981678
8.46873045,1.532697,5.249775,0.743324399999998,0.9609908,0.07616463,0.2517985,-47.39565,-25.84861,3.981678
8.478589535,1.470581,5.249775,-0.3601296,0.9691391,0.08693138,0.248898,-46.64819,-25.85724,3.977815
8.488448143,2.09174,4.654685,-0.4827355,0.9640658,0.08244228,0.2316813,-46.64819,-25.85724,3.977815
8.498307705,2.588667,4.476159,-0.1149176,0.9582392,0.1100965,0.2233721,-46.64819,-25.85724,3.977815
8.508166313,3.334059,3.881069,0.007688423,0.9524971,0.1377748,0.2212915,-46.64819,-25.85724,3.977815
8.518024922,2.712899,2.809908,0.927233400000001,0.943736,0.1654032,0.213024,-46.64819,-25.85724,3.977815
8.527884007,1.097885,2.512363,2.030687,0.954591,0.1383195,0.2318087,-46.64819,-25.85724,3.977815
8.537742615,-0.827707900000002,1.322185,2.582414,0.9391177,0.1133328,0.2231928,-47.02789,-25.86451,3.147568
8.5476017,-2.815417,0.370042,2.521111,0.9426218,0.08080986,0.2362859,-47.02789,-25.86451,3.147568
8.557460308,-1.759447,-0.1655384,0.927233400000001,0.9464086,0.07494966,0.2218065,-47.02789,-25.86451,3.147568
8.569784164,0.911537699999999,-1.17719,-0.6053416,0.9492875,0.08570063,0.2271274,-47.02789,-25.86451,3.147568
8.579642773,2.712899,-1.355717,-0.3601296,0.9529454,0.1198383,0.238385,-47.02715,-25.49101,3.52788
8.589501381,3.023479,-1.296208,0.1302944,0.947718,0.1602221,0.2493427,-47.02715,-25.49101,3.52788
8.599360943,1.097885,-1.355717,1.295051,0.9478036,0.1695227,0.2637959,-47.02715,-25.49101,3.52788
8.609219551,-0.641360199999998,-1.355717,2.275899,0.9592153,0.1268394,0.2738155,-47.02715,-25.49101,3.52788
8.619078636,-1.324635,-0.879645599999998,2.030687,0.9523799,0.09176534,0.2798465,-47.02715,-25.49101,3.52788
8.628937244,-1.262519,-0.939154599999998,1.111142,0.961338,0.07772833,0.2786419,-46.65141,-25.86348,3.529718
8.638795853,-0.4550124,-1.236699,-0.4214326,0.9630225,0.07864443,0.2594577,-46.65141,-25.86348,3.529718
8.648655414,0.1661467,-1.891297,-2.076613,0.9611945,0.10294,0.2544176,-46.65141,-25.86348,3.529718
8.658514023,-0.579244300000001,-1.831789,-2.444432,0.9666156,0.1341104,0.248853,-46.65141,-25.86348,3.529718
8.668373108,-0.579244300000001,-1.712771,-0.2988266,0.9727932,0.1526675,0.2517967,-46.65141,-25.86348,3.529718
8.678231716,-1.697331,-0.760627799999999,-0.4827355,0.9504993,0.1665511,0.243606,-47.0299,-25.49636,3.143797
8.688090324,-4.616779,-1.77228,0.804627399999999,0.9745437,0.1332321,0.2554414,-47.0299,-25.49636,3.143797
8.697949409,-5.73486500000002,-1.296208,1.417657,0.968768,0.09184299,0.2618832,-47.0299,-25.49636,3.143797
8.707808018,-4.616779,-1.77228,0.743324399999998,0.9474856,0.05901014,0.2508878,-47.0299,-25.49636,3.143797
8.71766758,-1.759447,-2.30786,-0.5440385,0.9520203,0.04785758,0.2507291,-47.0299,-25.49636,3.143797
8.727526188,1.594813,-3.200494,-1.279675,0.9507045,0.0658171,0.2417946,-46.65818,-25.13253,3.138095
8.739850044,3.023479,-3.676566,-1.402281,0.9637489,0.08443999,0.2460787,-46.65818,-25.13253,3.138095
8.749708652,3.76887,-2.843441,0.0689914200000002,0.9706559,0.1069757,0.2701303,-46.65818,-25.13253,3.138095
8.759567261,3.023479,-2.843441,1.172445,0.9720834,0.1108831,0.2706222,-46.65818,-25.13253,3.138095
8.769426346,2.588667,-2.367369,1.111142,0.9753028,0.09683158,0.2790833,-46.65818,-25.13253,3.138095
8.779284954,3.209827,-2.188842,0.2529004,0.9739424,0.08561993,0.2770913,-46.65818,-25.13253,3.138095
8.789144516,3.582522,-2.426878,-0.911856500000002,0.972608,0.07002165,0.273145,-46.65818,-25.13253,3.138095
8.799003124,5.011188,-2.605405,-2.260523,0.988573,0.07499606,0.2643339,-46.65818,-25.13253,3.138095
8.808861732,7.24736100000001,-1.712771,-1.463584,0.9837416,0.08801696,0.2443863,-46.65818,-25.13253,3.138095
8.818720818,8.986607,-0.760627799999999,-0.911856500000002,0.9424363,0.1475088,0.2454771,-46.65818,-25.13253,3.138095
8.828579426,6.99889700000002,-2.962458,-1.402281,0.9469266,0.1625727,0.2292474,-47.39765,-25.48046,3.977908
8.838438511,2.650783,-2.426878,-0.1149176,0.9751956,0.1370535,0.2348587,-47.39765,-25.48046,3.977908
8.848297119,1.346349,-2.129333,0.2529004,0.9347903,0.102086,0.2188467,-47.39765,-25.48046,3.977908
8.858155727,1.967508,-3.914601,-0.789250600000002,0.9194572,0.07079244,0.2149675,-47.39765,-25.48046,3.977908
8.868015289,4.514261,-5.045271,-2.873553,0.95189,0.08563177,0.2026506,-47.39765,-25.48046,3.977908
8.877873898,5.694463,-5.64036,-4.038309,0.9544816,0.07885976,0.2073485,-47.39966,-25.11231,3.974137
8.887732983,7.30947700000003,-6.71152099999998,-4.283521,0.9656618,0.07649802,0.1999812,-47.39966,-25.11231,3.974137
8.897591591,11.22278,-6.35446700000003,-2.505734,0.9536562,0.127447,0.1895607,-47.39966,-25.11231,3.974137
8.907451153,12.58933,-6.35446700000003,-1.340978,0.9401495,0.1609326,0.1972238,-47.39966,-25.11231,3.974137
8.919774055,8.241216,-7.06857499999999,0.8659304,0.9739581,0.1638234,0.2394151,-47.39966,-25.11231,3.974137
8.929632664,5.508115,-5.99741399999999,1.233748,0.9491574,0.1335097,0.2596391,-46.64944,-25.1156,4.354357
8.939492226,4.327913,-6.652012,0.682021400000003,0.943978,0.1022731,0.2469901,-46.64944,-25.1156,4.354357
8.949350834,5.508115,-7.18759300000001,-1.708796,0.9548444,0.1082568,0.2598242,-46.64944,-25.1156,4.354357
8.959209919,7.185245,-7.00906600000001,-4.160915,0.9638855,0.1229137,0.2540686,-46.64944,-25.1156,4.354357
8.969068527,9.66988199999998,-6.89004799999999,-4.712642,0.9783776,0.1327558,0.2491531,-46.64944,-25.1156,4.354357
8.978927135,12.21663,-5.164289,-3.180068,0.9776099,0.1298779,0.2620781,-47.01593,-25.84134,4.811926
8.988786221,12.40298,-3.795583,-0.973159599999999,0.9773486,0.1727673,0.2806534,-47.01593,-25.84134,4.811926
8.998644829,7.80640399999998,-2.367369,0.3755064,0.9912392,0.177826,0.2991869,-47.01593,-25.84134,4.811926
9.008504391,4.390029,-1.355717,0.8659304,0.9844387,0.1523913,0.2803804,-47.01593,-25.84134,4.811926
9.018362999,2.650783,-0.939154599999998,-0.2375236,0.9729987,0.1167325,0.2711377,-47.01593,-25.84134,4.811926
9.028222084,4.017333,-1.415226,-2.076613,0.9648928,0.08644876,0.2599761,-46.64543,-25.85189,4.361898
9.038080692,6.25350600000003,-1.950806,-3.793097,0.9566886,0.1028716,0.246814,-46.64543,-25.85189,4.361898
9.047939301,8.30333200000001,-1.712771,-3.302674,0.965519,0.107839,0.2529597,-46.64543,-25.85189,4.361898
9.057798862,9.17295499999997,-1.17719,-2.321826,0.955035,0.1262404,0.2537436,-46.64543,-25.85189,4.361898
9.067657471,8.986607,-0.04652058,0.007688423,0.9671656,0.1487789,0.2662201,-46.64543,-25.85189,4.361898
9.077516556,6.62620199999998,0.846113400000001,1.233748,0.9721071,0.1390718,0.2612757,-46.63944,-25.84031,5.194077
9.089839935,4.82484,1.02464,1.417657,0.9728102,0.138649,0.2765966,-46.63944,-25.84031,5.194077
9.09969902,3.893102,0.667586600000001,0.4981124,0.9697809,0.1361549,0.2675139,-46.63944,-25.84031,5.194077
9.109557629,3.271943,0.4890598,-1.279675,0.9755018,0.1459289,0.2651188,-46.63944,-25.84031,5.194077
9.119416237,2.961363,0.727095499999998,-2.199219,0.9780173,0.1318118,0.2577759,-46.63944,-25.84031,5.194077
9.129275322,3.085595,1.02464,-2.260523,0.9647685,0.1375419,0.2599299,-46.64346,-25.10402,5.186536
9.13913393,2.029624,1.381694,-1.402281,0.9657906,0.1277986,0.2545618,-46.64346,-25.10402,5.186536
9.148993492,1.532697,1.917274,-0.789250600000002,0.9730707,0.1337058,0.2554664,-46.64346,-25.10402,5.186536
9.1588521,0.04191487,2.036292,-0.4214326,0.9692981,0.1229703,0.2563879,-46.64346,-25.10402,5.186536
9.168710709,0.04191487,2.15531,-0.6666446,0.9605889,0.1462195,0.2480826,-46.64346,-25.10402,5.186536
9.178569794,-0.765591999999998,1.917274,-1.831402,0.9579948,0.1642199,0.2530635,-46.63944,-25.84031,5.194077
9.188428402,-1.076172,1.857765,-3.118764,0.9644613,0.1584481,0.2557979,-46.63944,-25.84031,5.194077
9.198287964,-1.635215,1.441203,-3.670491,0.9579989,0.1495743,0.2404807,-46.63944,-25.84031,5.194077
9.208146572,-1.324635,1.084149,-3.915704,0.9627612,0.1209105,0.2416085,-46.63944,-25.84031,5.194077
9.21800518,0.5388422,1.441203,-2.505734,0.9710444,0.104375,0.2245789,-46.63944,-25.84031,5.194077
9.227864265,1.160001,2.214819,-1.58619,0.9545808,0.1314814,0.2250423,-46.63622,-25.83408,5.642174
9.237722874,0.4146104,1.976783,-1.58619,0.961199,0.148076,0.2226921,-46.63622,-25.83408,5.642174
9.247581959,-1.014056,1.560221,-2.321826,0.9622757,0.1617831,0.2419604,-46.63622,-25.83408,5.642174
9.259905338,-1.200403,0.965131299999997,-3.24137,0.9502413,0.1382956,0.2357041,-46.63622,-25.83408,5.642174
9.269764423,-0.5171283,0.1915152,-3.609189,0.9585419,0.1290885,0.2264033,-46.63622,-25.83408,5.642174
9.279623032,0.600958099999998,0.4890598,-3.547885,0.965544,0.1282164,0.2368385,-47.01271,-25.8351,5.260023
9.289482594,0.5388422,1.084149,-3.057462,0.9646155,0.1179693,0.2314941,-47.01271,-25.8351,5.260023
9.299341202,0.1040308,1.084149,-2.505734,0.9560463,0.1135646,0.2449966,-47.01271,-25.8351,5.260023
9.30919981,0.1661467,0.667586600000001,-2.444432,0.9579245,0.1135595,0.2392194,-47.01271,-25.8351,5.260023
9.319058895,0.911537699999999,0.667586600000001,-2.260523,0.9606798,0.1286693,0.2393076,-47.01271,-25.8351,5.260023
9.328917503,1.470581,0.07249729,-2.750947,0.9561593,0.1660549,0.2277076,-46.2617,-26.58092,5.199687
9.338777065,-0.3928965,0.370042,-2.383129,0.9705874,0.1642966,0.2437799,-46.2617,-26.58092,5.199687
9.348635674,-1.883678,0.846113400000001,-1.647493,0.9655362,0.1404199,0.2470048,-46.2617,-26.58092,5.199687
9.358494282,-1.821563,0.9056224,-1.831402,0.9584221,0.1062429,0.2334002,-46.2617,-26.58092,5.199687
9.368353367,-0.641360199999998,0.310533,-1.770099,0.9619404,0.09555898,0.2308639,-46.2617,-26.58092,5.199687
9.378211975,1.532697,0.370042,-1.58619,0.9569845,0.1042855,0.2338833,-46.64145,-25.47216,5.190307
9.38807106,2.278088,-0.04652058,-1.279675,0.9607685,0.1096537,0.2290827,-46.64145,-25.47216,5.190307
9.397929669,2.40232,-0.1655384,-0.4214326,0.9713669,0.1365548,0.2406595,-46.64145,-25.47216,5.190307
9.407788277,1.160001,0.2510241,0.4981124,0.978982,0.1526752,0.2392494,-46.64145,-25.47216,5.190307
9.417647839,0.2282626,0.965131299999997,1.049839,0.9724023,0.1443913,0.2517324,-46.64145,-25.47216,5.190307
9.427506447,-0.2686647,1.262676,1.417657,0.9693722,0.1370149,0.2382958,-45.88796,-26.58524,5.197756
9.439830303,-0.4550124,1.084149,0.1915974,0.9542126,0.1383467,0.2399607,-45.88796,-26.58524,5.197756
9.449688912,0.1040308,0.310533,-0.4827355,0.9543225,0.1291017,0.2398811,-45.88796,-26.58524,5.197756
9.459547997,0.725189899999998,0.1320062,-0.6666446,0.95482,0.1217851,0.2340619,-45.88796,-26.58524,5.197756
9.469406605,1.346349,0.07249729,-0.727947499999999,0.9616861,0.1213625,0.2349189,-45.88796,-26.58524,5.197756
9.479265213,1.843277,0.2510241,-0.2988266,0.96798,0.1306764,0.2382621,-46.26772,-25.47648,5.188375
9.489124775,2.029624,0.4295509,0.3755064,0.972798,0.1385103,0.2396972,-46.26772,-25.47648,5.188375
9.498983383,1.719045,1.084149,0.620718400000002,0.9673862,0.1433361,0.2417319,-46.26772,-25.47648,5.188375
9.508842468,2.215972,1.441203,0.927233400000001,0.9579396,0.1534632,0.2395559,-46.26772,-25.47648,5.188375
9.518701077,1.719045,0.846113400000001,0.0689914200000002,0.9519709,0.1651006,0.2426144,-46.26772,-25.47648,5.188375
9.528560162,0.663074000000001,0.846113400000001,-0.05361458,0.9569904,0.1510217,0.2395489,-46.26371,-26.21277,5.195917
9.53841877,1.097885,0.4890598,-0.911856500000002,0.9561753,0.1251836,0.2288001,-46.26371,-26.21277,5.195917
9.548277378,1.843277,0.310533,-1.279675,0.9549472,0.1110804,0.2339697,-46.26371,-26.21277,5.195917
9.55813694,2.464436,-0.1060295,-1.770099,0.9663727,0.1029298,0.2394885,-46.26371,-26.21277,5.195917
9.567995548,3.023479,0.370042,-1.524887,0.9695441,0.1214406,0.2372035,-46.26371,-26.21277,5.195917
9.577854633,3.209827,0.9056224,-1.524887,0.9645472,0.1418729,0.2475103,-46.63944,-25.84031,5.194077
9.587713241,2.712899,1.02464,-1.095766,0.9686714,0.1520852,0.236037,-46.63944,-25.84031,5.194077
9.59757185,1.843277,1.738747,-1.218372,0.9667918,0.1642956,0.2524596,-46.63944,-25.84031,5.194077
9.607431412,0.725189899999998,1.738747,-2.015311,0.9608808,0.162279,0.2477348,-46.63944,-25.84031,5.194077
9.619754314,0.2282626,0.9056224,-2.137917,0.957145,0.1456954,0.2462105,-46.63944,-25.84031,5.194077
9.629613876,-0.2065488,0.786604499999998,-1.892705,0.9652602,0.1219237,0.2463734,-46.63422,-26.20222,5.645945
9.639472485,-0.02020105,0.727095499999998,-1.524887,0.9594381,0.1140738,0.2430357,-46.63422,-26.20222,5.645945
9.64933157,0.04191487,0.1320062,-1.708796,0.9537472,0.1280964,0.2326928,-46.63422,-26.20222,5.645945
9.659190178,-0.3307806,-0.760627799999999,-2.505734,0.9616123,0.1242708,0.2320693,-46.63422,-26.20222,5.645945
9.669049263,-1.138287,-1.058172,-2.934855,0.967917,0.123335,0.2271795,-46.63422,-26.20222,5.645945
9.678907871,-0.3928965,-1.117681,-2.505734,0.9579032,0.1378296,0.2231317,-46.26973,-25.10833,5.184605
9.688766479,0.04191487,-1.77228,-3.425279,0.9498183,0.1557511,0.2200438,-46.26973,-25.10833,5.184605
9.698626041,1.967508,-1.891297,-2.260523,0.9701924,0.1612546,0.2121327,-46.26973,-25.10833,5.184605
9.70848465,4.452145,-1.117681,-1.034463,0.9506918,0.1684238,0.2234927,-46.26973,-25.10833,5.184605
9.718343735,5.011188,-1.534244,-0.4214326,0.9509166,0.162141,0.2344581,-46.26973,-25.10833,5.184605
9.728202343,3.209827,-1.831789,-0.2988266,0.9651766,0.1399643,0.2561109,-46.25526,-26.56845,6.095881
9.738060951,2.278088,-1.712771,-1.034463,0.961184,0.1213545,0.2339675,-46.25526,-26.56845,6.095881
9.747920513,2.278088,-2.724423,-2.505734,0.9734239,0.1001189,0.2518234,-46.25526,-26.56845,6.095881
9.757779121,4.390029,-2.605405,-3.486583,0.9815042,0.1133074,0.2460692,-46.25526,-26.56845,6.095881
9.767638206,5.259652,-2.367369,-4.160915,0.9878427,0.1473984,0.2385994,-46.25526,-26.56845,6.095881
9.777496815,4.886956,-2.010315,-3.731794,0.9742565,0.1754907,0.2356757,-46.26371,-26.21277,5.195917
9.789820671,2.40232,-1.355717,-3.915704,0.9836237,0.1819408,0.2466182,-46.26371,-26.21277,5.195917
9.799679279,1.346349,-1.117681,-3.977006,0.9695072,0.1613295,0.2337071,-46.26371,-26.21277,5.195917
9.809538841,2.029624,-1.831789,-4.344824,0.9575804,0.1315258,0.2297919,-46.26371,-26.21277,5.195917
9.819397449,3.085595,-2.90295,-4.773945,0.9564492,0.1037797,0.2300531,-46.26371,-26.21277,5.195917
9.829256058,4.638493,-3.021967,-4.896551,0.9672242,0.09655534,0.2245674,-45.87952,-26.94091,6.097719
9.839115143,6.439854,-3.081476,-4.712642,0.9570225,0.1246667,0.2187204,-45.87952,-26.94091,6.097719
9.848973751,6.99889700000002,-3.081476,-4.835248,0.9483098,0.1586558,0.2196106,-45.87952,-26.94091,6.097719
9.858832836,5.632347,-3.498039,-4.957854,0.9577737,0.1855037,0.2197023,-45.87952,-26.94091,6.097719
9.868691444,4.017333,-3.200494,-4.222218,0.9570802,0.2054584,0.2222766,-45.87952,-26.94091,6.097719
9.878550053,2.650783,-3.140985,-3.670491,0.9504055,0.1815242,0.2140234,-46.25969,-26.94907,5.203458
9.888409615,3.396174,-3.676566,-4.160915,0.9424496,0.1644654,0.2254936,-46.25969,-26.94907,5.203458
9.898268223,4.203681,-3.379021,-3.793097,0.9490173,0.1523755,0.2300899,-46.25969,-26.94907,5.203458
9.908127308,6.129274,-3.43853,-3.486583,0.9516435,0.142684,0.2347627,-46.25969,-26.94907,5.203458
9.917985916,4.949072,-2.962458,-3.118764,0.9521405,0.1392729,0.2323309,-46.25969,-26.94907,5.203458
9.927845001,4.700608,-2.545896,-3.547885,0.9608828,0.1461681,0.233702,-46.24848,-27.2994,6.487505
9.937703609,3.955218,-2.129333,-2.812249,0.9649695,0.1705283,0.2319326,-46.24848,-27.2994,6.487505
9.947562218,4.141565,-1.950806,-3.180068,0.9556953,0.1952162,0.2193348,-46.24848,-27.2994,6.487505
9.959886551,3.582522,-1.950806,-3.118764,0.960564,0.2064821,0.2275068,-46.24848,-27.2994,6.487505
9.969745159,2.837131,-1.415226,-2.015311,0.9635499,0.2104284,0.2346855,-46.24848,-27.2994,6.487505
9.979604244,1.719045,-0.641609900000002,-0.973159599999999,0.9489842,0.2078887,0.2406221,-45.50102,-27.30803,6.483642
9.989462852,-0.5171283,-0.5225921,-0.727947499999999,0.9572729,0.1827019,0.2522714,-45.50102,-27.30803,6.483642
9.999321938,-0.1444329,-0.2845563,-0.3601296,0.9620396,0.1437865,0.2446871,-45.50102,-27.30803,6.483642
10.009180546,1.470581,-0.641609900000002,-0.973159599999999,0.9563584,0.1301181,0.2465695,-45.50102,-27.30803,6.483642
10.019039154,3.023479,-1.236699,-2.260523,0.9586977,0.1462208,0.2529016,-45.50102,-27.30803,6.483642
10.028898716,2.029624,-1.355717,-2.812249,0.9795394,0.167834,0.257579,-45.50579,-26.94523,6.095788
10.038757324,0.787305800000002,-0.998663500000001,-3.363976,0.983194,0.1780475,0.2475499,-45.50579,-26.94523,6.095788
10.048616409,-0.02020105,-0.641609900000002,-3.731794,0.974211,0.1842659,0.2400632,-45.50579,-26.94523,6.095788
10.058475018,-0.2686647,-0.1655384,-3.24137,0.9716846,0.1910564,0.2401565,-45.50579,-26.94523,6.095788
10.068334103,0.04191487,0.965131299999997,-1.708796,0.9540065,0.1869754,0.2317484,-45.50579,-26.94523,6.095788
10.078192711,0.4146104,1.084149,-0.6053416,0.9536613,0.1831063,0.2389087,-45.88073,-27.3153,5.653394
10.088051319,-0.2065488,1.143658,0.2529004,0.9580789,0.1807085,0.2378671,-45.88073,-27.3153,5.653394
10.097910881,-1.138287,1.322185,0.620718400000002,0.9582036,0.1471915,0.2533961,-45.88073,-27.3153,5.653394
10.107769489,0.4146104,1.322185,-0.3601296,0.9496936,0.1426686,0.2352696,-45.88073,-27.3153,5.653394
10.117628574,1.284233,0.727095499999998,-1.831402,0.9603409,0.1544486,0.2371341,-45.88073,-27.3153,5.653394
10.127487183,2.650783,0.5485688,-2.689644,0.9697562,0.1749357,0.228068,-45.88152,-26.57277,6.093949
10.139811039,2.09174,0.9056224,-3.057462,0.9603424,0.1982543,0.2398997,-45.88152,-26.57277,6.093949
10.149669647,0.2903785,1.143658,-1.954008,0.9713372,0.181328,0.2419962,-45.88152,-26.57277,6.093949
10.159529209,-0.02020105,1.500712,-1.034463,0.9615091,0.1807405,0.2382977,-45.88152,-26.57277,6.093949
10.169387817,0.1661467,2.095801,0.1915974,0.9560343,0.1782249,0.2292497,-45.88152,-26.57277,6.093949
10.179246426,0.1661467,2.512363,-0.1762206,0.9505987,0.1801146,0.2269471,-45.50303,-26.93988,6.479871
10.189105511,0.04191487,2.036292,-0.4827355,0.9599616,0.183634,0.2349898,-45.50303,-26.93988,6.479871
10.198964119,-1.138287,1.857765,-1.034463,0.9531048,0.1772241,0.2288038,-45.50303,-26.93988,6.479871
10.208823681,-1.076172,1.262676,-1.831402,0.9502323,0.166475,0.223962,-45.50303,-26.93988,6.479871
10.218682289,-0.3928965,0.667586600000001,-2.321826,0.9457127,0.1703085,0.2187876,-45.50303,-26.93988,6.479871
10.228540897,0.4767263,0.727095499999998,-2.076613,0.959528,0.1685105,0.2257635,-45.50102,-27.30803,6.483642
10.238399983,0.849421699999999,1.262676,-0.973159599999999,0.9602837,0.1894494,0.2278462,-45.50102,-27.30803,6.483642
10.248258591,-0.889823900000002,1.61973,0.3755064,0.9560431,0.1840862,0.2350494,-45.50102,-27.30803,6.483642
10.258117676,-2.132142,1.679239,0.804627399999999,0.9540735,0.1752771,0.2263776,-45.50102,-27.30803,6.483642
10.267976284,-2.753301,1.262676,0.620718400000002,0.9562684,0.1607156,0.2310154,-45.50102,-27.30803,6.483642
10.277835846,-1.573099,1.441203,-0.05361458,0.9493126,0.162089,0.2244173,-45.8755,-27.67721,6.10526
10.287694454,-1.014056,0.9056224,-1.340978,0.9483303,0.172332,0.2331434,-45.8755,-27.67721,6.10526
10.297553063,-1.635215,0.608077699999999,-1.708796,0.9516484,0.1757496,0.2283329,-45.8755,-27.67721,6.10526
10.307412148,-0.889823900000002,0.5485688,-1.58619,0.9535644,0.1835669,0.2322052,-45.8755,-27.67721,6.10526
10.319735527,-1.076172,0.5485688,-1.218372,0.9534048,0.1646158,0.2397147,-45.8755,-27.67721,6.10526
10.329594612,-0.703476100000001,1.441203,-0.05361458,0.9567836,0.1607273,0.232925,-45.50378,-27.31338,6.099558
10.33945322,-1.324635,1.322185,0.8659304,0.9477402,0.1830398,0.2351589,-45.50378,-27.31338,6.099558
10.349312782,-2.815417,1.203167,0.8659304,0.9585188,0.1782576,0.2320898,-45.50378,-27.31338,6.099558
10.359171391,-4.3062,1.441203,0.5594154,0.9616225,0.1651495,0.2328933,-45.50378,-27.31338,6.099558
10.369030476,-3.498692,1.143658,-0.2375236,0.9544001,0.1455884,0.2242056,-45.50378,-27.31338,6.099558
10.378889084,-1.759447,0.1915152,-1.463584,0.9521412,0.1397614,0.2328142,-46.25526,-26.56845,6.095881
10.388747692,0.4767263,0.2510241,-1.770099,0.959443,0.1515335,0.2404767,-46.25526,-26.56845,6.095881
10.398606777,1.470581,0.1915152,-0.911856500000002,0.9526402,0.1718563,0.2258899,-46.25526,-26.56845,6.095881
10.408465386,-0.1444329,0.786604499999998,-0.2988266,0.9719037,0.1808661,0.2472554,-46.25526,-26.56845,6.095881
10.418324947,-2.380606,1.500712,0.682021400000003,0.9688513,0.1847125,0.2420602,-46.25526,-26.56845,6.095881
10.428183556,-3.37446,1.560221,1.724172,0.9509364,0.1753287,0.2475075,-45.50901,-26.95147,5.647691
10.438042641,-2.815417,0.9056224,1.295051,0.9468538,0.1791516,0.2384932,-45.50901,-26.95147,5.647691
10.447901249,-3.498692,0.727095499999998,1.233748,0.9611206,0.1827178,0.2474247,-45.50901,-26.95147,5.647691
10.457759857,-3.622924,0.846113400000001,0.743324399999998,0.9517229,0.1777238,0.2355365,-45.50901,-26.95147,5.647691
10.467618942,-3.809272,0.4295509,0.804627399999999,0.9548947,0.1709821,0.2469352,-45.50901,-26.95147,5.647691
10.477477551,-3.37446,0.310533,0.1302944,0.9578124,0.164168,0.2396481,-45.50901,-26.95147,5.647691
10.489801884,-2.753301,0.1915152,0.1915974,0.9534447,0.1651154,0.2430727,-45.50901,-26.95147,5.647691
10.499660492,-2.132142,-0.04652058,0.2529004,0.9538969,0.1665738,0.241641,-45.50901,-26.95147,5.647691
10.509519577,-2.504838,0.01298836,0.8659304,0.9570791,0.179229,0.2349937,-45.50901,-26.95147,5.647691
10.519378185,-3.188113,-0.641609900000002,1.049839,0.9515227,0.1874312,0.2293917,-45.50901,-26.95147,5.647691
10.529236794,-3.68504,-1.296208,0.682021400000003,0.9575399,0.1733665,0.2277496,-45.8755,-27.67721,6.10526
10.539095879,-3.436576,-1.296208,0.804627399999999,0.962131,0.1607654,0.2304531,-45.8755,-27.67721,6.10526
10.548954487,-2.256374,-1.534244,0.927233400000001,0.9535787,0.1757594,0.2263887,-45.8755,-27.67721,6.10526
10.558814049,-2.442722,-1.950806,0.8659304,0.9437895,0.1663949,0.2178236,-45.8755,-27.67721,6.10526
10.568672657,-2.504838,-2.486387,1.356354,0.9455727,0.1557569,0.2316052,-45.8755,-27.67721,6.10526
10.578531742,-2.442722,-2.605405,1.908081,0.9469757,0.1562397,0.2272765,-45.50901,-26.95147,5.647691
10.58839035,-2.132142,-2.962458,2.214596,0.9470205,0.1469762,0.2224057,-45.50901,-26.95147,5.647691
10.598248958,-1.883678,-3.081476,2.70502,0.9451103,0.1430663,0.2223999,-45.50901,-26.95147,5.647691
10.60810852,-1.076172,-3.676566,2.398505,0.9325072,0.1657982,0.2151042,-45.50901,-26.95147,5.647691
10.617967129,-1.014056,-4.926253,1.969384,0.9343596,0.1789679,0.2190225,-45.50901,-26.95147,5.647691
10.627826214,-1.759447,-5.164289,1.846778,0.934728,0.1852847,0.2157162,-45.507,-27.31962,5.651462
10.637684822,-1.759447,-5.99741399999999,1.846778,0.9359583,0.1668126,0.2179387,-45.507,-27.31962,5.651462
10.647543907,-2.00791,-6.23544999999998,2.275899,0.9405227,0.1581097,0.222113,-45.507,-27.31962,5.651462
10.657402515,-1.573099,-6.11643200000001,3.256747,0.9448304,0.1517746,0.209539,-45.507,-27.31962,5.651462
10.669726372,-1.262519,-5.759378,4.482807,0.9389318,0.1580615,0.2130305,-45.13528,-26.95578,5.64576
10.67958498,-2.132142,-5.81888699999998,5.218443,0.9485775,0.1498089,0.1955722,-45.13528,-26.95578,5.64576
10.689443588,-1.945794,-6.17594099999999,5.279747,0.9510825,0.1628943,0.1755206,-45.13528,-26.95578,5.64576
10.69930315,-1.635215,-7.12808399999997,4.666717,0.9480822,0.1667556,0.1741583,-45.13528,-26.95578,5.64576
10.709161758,-0.641360199999998,-8.08022700000001,4.176292,0.9511185,0.1565577,0.1725914,-45.13528,-26.95578,5.64576
10.719020843,0.2282626,-8.67531599999998,4.605413,0.9492481,0.1443593,0.1682023,-45.13528,-26.95578,5.64576
10.728879452,0.04191487,-9.68696799999999,4.789322,0.9494303,0.1356232,0.1738763,-45.50579,-26.94523,6.095788
10.738739014,-0.579244300000001,-10.28206,4.666717,0.9485611,0.1214871,0.1694566,-45.50579,-26.94523,6.095788
10.748597622,-0.641360199999998,-11.05567,4.421504,0.9464521,0.1238675,0.160402,-45.50579,-26.94523,6.095788
10.75845623,0.2282626,-11.76978,3.256747,0.9450744,0.1185096,0.1622932,-45.50579,-26.94523,6.095788
10.768315315,1.905392,-12.48389,2.214596,0.9349664,0.1222363,0.1418632,-45.50579,-26.94523,6.095788
10.778173923,3.644638,-13.2575,1.662869,0.9209266,0.1478933,0.1394046,-45.12206,-27.67426,6.933577
10.788033009,4.82484,-13.55505,2.030687,0.9270382,0.1571552,0.1293325,-45.12206,-27.67426,6.933577
10.797891617,5.011188,-13.43603,2.582414,0.9257827,0.1420677,0.131619,-45.12206,-27.67426,6.933577
10.807751179,5.508115,-14.38817,3.134141,0.9073396,0.1282744,0.1303279,-45.12206,-27.67426,6.933577
10.817609787,6.68831799999999,-15.57835,3.624565,0.9119723,0.1341025,0.1164142,-45.12206,-27.67426,6.933577
10.827468395,8.11698399999998,-16.59,3.747171,0.9222975,0.1400671,0.1254222,-45.50504,-26.57174,6.4761
10.839792252,8.676027,-17.2446,2.888929,0.9240279,0.1673606,0.1328159,-45.50504,-26.57174,6.4761
10.849651337,7.99275200000001,-17.78018,2.766323,0.927918,0.1610416,0.1255191,-45.50504,-26.57174,6.4761
10.859509945,8.48967900000002,-18.37527,2.827626,0.9245349,0.1532114,0.1216677,-45.50504,-26.57174,6.4761
10.869368553,8.241216,-18.97036,3.501959,0.9437872,0.1505006,0.1319128,-45.87278,-26.55584,7.310211
10.879228115,9.17295499999997,-19.02987,4.298898,0.9330921,0.1800711,0.1270436,-45.87278,-26.55584,7.310211
10.889086723,6.874665,-19.62496,5.402352,0.9523389,0.182241,0.1411636,-45.87278,-26.55584,7.310211
10.898945808,4.762724,-18.97036,5.647564,0.9587997,0.1813498,0.1477727,-45.87278,-26.55584,7.310211
10.908804417,3.147711,-19.863,4.850626,0.9667199,0.1750987,0.1490447,-45.87278,-26.55584,7.310211
10.918663025,3.271943,-19.68447,3.93108,1.005103,0.1579251,0.1502695,-46.23611,-26.15932,9.036745
10.92852211,6.129274,-19.32742,3.134141,1.030312,0.170426,0.1802053,-46.23611,-26.15932,9.036745
10.938380718,8.36544800000002,-18.43478,1.233748,1.059649,0.1654465,0.2104139,-46.23611,-26.15932,9.036745
10.94824028,12.52721,-16.59,0.1302944,1.091245,0.1674058,0.2689216,-46.23611,-26.15932,9.036745
10.958098888,15.94359,-13.61456,-0.5440385,1.140149,0.1871458,0.356564,-46.23611,-26.15932,9.036745
10.967957973,18.7388,-8.37777100000001,-0.973159599999999,1.177298,0.2092191,0.4453519,-46.23611,-26.15932,9.036745
10.977816582,20.47805,-0.582100999999999,-1.647493,1.21474,0.2098942,0.5368302,-45.85564,-25.77856,10.2473
10.987676144,22.46576,10.01049,-2.076613,1.245653,0.2524518,0.652715,-45.85564,-25.77856,10.2473
10.997534752,20.54017,21.25768,-4.038309,1.241975,0.3444059,0.7867609,-45.85564,-25.77856,10.2473
11.00739336,13.39684,31.79076,-4.46743,1.249418,0.3691826,0.887975,-45.85564,-25.77856,10.2473
11.019717216,2.464436,45.06125,-3.180068,1.241115,0.3579361,1.022653,-45.4799,-26.15102,10.24914
11.029575825,-5.05159,57.26058,-4.773945,1.274725,0.316747,1.119104,-45.4799,-26.15102,10.24914
11.03943491,-10.39356,71.6617399999999,-4.896551,1.371544,0.3354399,1.203659,-45.4799,-26.15102,10.24914
11.049293518,-16.66727,89.27639,-6.00000499999998,1.485083,0.4179923,1.27893,-45.4799,-26.15102,10.24914
11.059152603,-20.20787,107.7837,-5.93870199999998,1.592009,0.439388,1.281899,-45.4799,-26.15102,10.24914
11.069011211,-22.31981,127.4811,-5.386975,1.652077,0.4372326,1.3438,-46.24455,-25.80364,8.136782
11.078870773,-23.37579,145.8099,-6.36782300000001,1.669802,0.3775044,1.335377,-46.24455,-25.80364,8.136782
11.088729382,-22.00924,162.8889,-6.429126,1.652227,0.3514828,1.315281,-46.24455,-25.80364,8.136782
11.09858799,-21.82289,177.8852,-8.57473199999998,1.646066,0.3177954,1.300229,-46.24455,-25.80364,8.136782
11.108447075,-20.02153,190.8581,-10.84294,1.682247,0.3272518,1.271041,-46.24455,-25.80364,8.136782
11.118305683,-21.38808,204.4857,-13.41767,1.734427,0.4113734,1.260945,-46.28885,-26.63349,1.422873
11.128165245,-25.92254,217.6967,-15.86979,1.764952,0.3974039,1.226848,-46.28885,-26.63349,1.422873
11.138023853,-31.88566,230.6101,-16.29891,1.722253,0.3720877,1.194657,-46.28885,-26.63349,1.422873
11.147882938,-37.72456,242.0358,-18.81233,1.679543,0.3086865,1.128122,-46.28885,-26.63349,1.422873
11.157741547,-37.66245,249.772,-19.11885,1.687517,0.2692515,1.104195,-46.28885,-26.63349,1.422873
11.167600155,-35.11569,257.8057,-20.34491,1.759229,0.2595789,1.080569,-45.98334,-27.51398,-8.621686
11.17745924,-28.9041,265.9584,-19.05754,1.835669,0.3399544,1.052364,-45.98334,-27.51398,-8.621686
11.18978262,-27.84813,276.9676,-21.38706,1.882511,0.4396642,1.059247,-45.98334,-27.51398,-8.621686
11.199641705,-29.64949,284.2277,-22.85833,1.86301,0.4287688,1.054641,-45.98334,-27.51398,-8.621686
11.209500313,-29.33891,291.3092,-24.2683,1.85092,0.3505839,0.9961698,-45.98334,-27.51398,-8.621686
11.219359875,-26.29523,298.3313,-26.47521,1.804262,0.277509,0.9545278,-43.06818,-28.43715,-19.57596
11.229218483,-24.05906,304.5202,-28.49821,1.699349,0.2853054,0.9455464,-43.06818,-28.43715,-19.57596
11.239077568,-25.86042,307.0791,-28.98863,1.670591,0.3184966,0.9107757,-43.06818,-28.43715,-19.57596
11.248936176,-27.7239,311.3637,-28.92733,1.624864,0.2444404,0.8647993,-43.06818,-28.43715,-19.57596
11.258795738,-26.171,312.4944,-29.17254,1.530042,0.2278646,0.8209661,-43.06818,-28.43715,-19.57596
11.268654347,-26.10889,312.6729,-28.25299,1.475385,0.292922,0.7806038,-36.47357,-29.02215,-29.65681
11.278512955,-30.76758,311.7803,-27.94648,1.47627,0.3166918,0.7587486,-36.47357,-29.02215,-29.65681
11.28837204,-37.35186,310.5901,-27.39475,1.422325,0.2882129,0.6883556,-36.47357,-29.02215,-29.65681
11.298230648,-43.31499,308.2693,-26.59781,1.335837,0.2277752,0.6071351,-36.47357,-29.02215,-29.65681
11.308089733,-42.63172,304.0441,-27.70127,1.240967,0.1581042,0.5489577,-36.47357,-29.02215,-29.65681
11.317948341,-32.63105,297.7362,-27.14954,1.180691,0.1438707,0.5290911,-27.56602,-29.61773,-38.59731
11.327807903,-27.66178,294.5227,-26.16869,1.132517,0.1892727,0.552204,-27.56602,-29.61773,-38.59731
11.337666512,-27.28909,291.0712,-25.61696,1.043141,0.200239,0.5732176,-27.56602,-29.61773,-38.59731
11.34752512,-32.94164,287.2626,-23.10354,0.9316148,0.2246413,0.5960978,-27.56602,-29.61773,-38.59731
11.359848976,-40.14708,282.978,-23.28745,0.8541874,0.2323532,0.6293728,-27.56602,-29.61773,-38.59731
11.369707584,-49.15389,281.4902,-24.88133,0.8288022,0.2166548,0.6554789,-15.32436,-30.55989,-43.26219
11.37956667,-60.6453299999998,280.4191,-24.02309,0.754293,0.2294879,0.62023,-15.32436,-30.55989,-43.26219
11.389425278,-72.0746600000002,279.4074,-21.14185,0.7118905,0.1753156,0.5484973,-15.32436,-30.55989,-43.26219
11.39928484,-80.1497299999997,277.3246,-15.74718,0.6835032,0.1399079,0.5164967,-15.32436,-30.55989,-43.26219
11.409143448,-88.7217300000001,276.8485,-12.74334,0.593414,0.1527586,0.5226811,-15.32436,-30.55989,-43.26219
11.419002533,-95.6165899999997,273.5756,-9.12645800000002,0.5277903,0.1290756,0.4611206,-3.448524,-29.62225,-45.44744
11.428861141,-96.92103,269.7075,-2.996159,0.5169904,0.08188185,0.4886698,-3.448524,-29.62225,-45.44744
11.43871975,-91.0200099999998,269.529,-2.505734,0.4754253,-0.0005039821,0.4176454,-3.448524,-29.62225,-45.44744
11.448578835,-82.8828299999999,266.5535,-1.463584,0.416902,-0.02893685,0.3703196,-3.448524,-29.62225,-45.44744
11.458437443,-72.5715899999999,264.7682,0.3142034,0.3778861,0.009673504,0.3774311,-3.448524,-29.62225,-45.44744
11.468297005,-69.59003,263.7566,-0.2988266,0.3185837,0.03095273,0.3525791,8.436893,-26.43385,-44.64668
11.478155613,-74.7456399999998,261.1977,0.1915974,0.2425313,0.05462746,0.3572173,8.436893,-26.43385,-44.64668
11.488014698,-81.2057,258.7578,2.70502,0.1675077,0.02071445,0.3148724,8.436893,-26.43385,-44.64668
11.497873306,-86.0507400000003,253.9376,5.402352,0.09494907,-0.05662363,0.2357067,8.436893,-26.43385,-44.64668
11.507732868,-86.2992100000003,248.3438,8.83531999999998,0.08135595,-0.09772629,0.2072808,8.436893,-26.43385,-44.64668
11.517591477,-84.5599599999997,245.4278,11.90047,0.09262519,-0.1065448,0.1648762,20.02559,-23.21334,-41.79586
11.527450085,-78.9695300000001,240.9052,16.37559,0.04432619,-0.1051187,0.1401791,20.02559,-23.21334,-41.79586
11.539773941,-73.5654400000002,235.6089,17.04992,-0.02686641,-0.08482741,0.1394482,20.02559,-23.21334,-41.79586
11.549632549,-69.52791,231.0267,20.42159,-0.03721635,-0.0986107,0.121749,20.02559,-23.21334,-41.79586
11.559491634,-67.22962,228.1702,21.83156,-0.1026689,-0.08926342,0.1735559,20.02559,-23.21334,-41.79586
11.569350243,-63.8132400000002,227.0396,22.07677,-0.1453358,-0.1534935,0.1453492,28.57848,-20.73207,-37.25673
11.579209328,-57.22896,224.9568,25.26452,-0.2132672,-0.1156423,0.1480744,28.57848,-20.73207,-37.25673
11.589067936,-51.1416,227.1586,24.7741,-0.2558749,-0.1024978,0.1205198,28.57848,-20.73207,-37.25673
11.598927498,-48.09792,225.4328,24.52889,-0.3166379,-0.0636534,0.1116505,28.57848,-20.73207,-37.25673
11.608786106,-49.34024,225.3138,25.75495,-0.344586,-0.01194881,0.08085801,28.57848,-20.73207,-37.25673
11.618645191,-52.13545,225.0758,27.47143,-0.3715109,0.009642367,0.06273519,36.03783,-19.98248,-30.19705
11.628503799,-51.88699,225.1948,28.75879,-0.3536855,-0.01908102,0.01719398,36.03783,-19.98248,-30.19705
11.638362408,-48.78119,225.9089,29.55573,-0.3646078,-0.03693333,-0.04605534,36.03783,-19.98248,-30.19705
11.64822197,-44.24673,224.8377,31.76264,-0.3713551,-0.03737059,-0.1465947,36.03783,-19.98248,-30.19705
11.658080578,-36.29589,219.6605,32.68219,-0.3498062,-0.003049533,-0.2582657,36.03783,-19.98248,-30.19705
11.667939663,-26.73005,216.447,31.64004,-0.3531894,-0.02153805,-0.3791318,41.32153,-18.8271,-22.23368
11.677798271,-15.42495,210.02,28.39098,-0.4259966,-0.04014193,-0.4966134,41.32153,-18.8271,-22.23368
11.687657356,-5.486402,201.8673,24.95801,-0.5154012,-0.03034811,-0.6581842,41.32153,-18.8271,-22.23368
11.697515964,2.278088,189.0729,22.7511,-0.5980631,0.000958127,-0.8086482,41.32153,-18.8271,-22.23368
11.709840298,9.794114,173.1245,15.45604,-0.7254221,0.009360082,-0.9922122,41.32153,-18.8271,-22.23368
11.719698906,9.85623000000002,155.8074,8.71271399999999,-0.8295581,0.06246021,-1.119664,43.99194,-18.75219,-14.69357
11.729557991,7.86851999999999,136.0504,4.053687,-0.8663731,0.04007673,-1.29184,43.99194,-18.75219,-14.69357
11.739416599,5.81869499999997,116.472,7.36404799999998,-0.8782216,-0.02249862,-1.211214,43.99194,-18.75219,-14.69357
11.749275207,16.62686,101.1187,-5.325672,-1.036815,0.1363216,-1.436192,43.99194,-18.75219,-14.69357
11.759134293,-2.256374,76.1844299999998,5.83147299999998,-1.096687,-0.03766491,-1.495269,43.99194,-18.75219,-14.69357
11.768992901,12.21663,59.8194699999999,-3.8544,-1.201582,-0.1000329,-1.528803,45.53521,-19.79193,-8.800719
11.778852463,11.71971,39.82447,-5.325672,-1.304877,-0.09861042,-1.42477,45.53521,-19.79193,-8.800719
11.788711071,22.65211,19.59143,-12.13031,-1.429873,0.1076565,-1.404476,45.53521,-19.79193,-8.800719
11.798570156,5.570231,-9.32991399999999,-9.739489,-1.38215,0.0568905,-1.429544,45.53521,-19.79193,-8.800719
11.808428764,3.334059,-29.32492,-13.60158,-1.271373,-0.02878414,-1.310129,45.53521,-19.79193,-8.800719
11.818287373,3.76887,-46.82054,-12.43682,-1.269032,-0.0419745,-1.329442,45.55039,-19.76253,-6.688262
11.828146458,6.99889700000002,-69.0173700000001,-11.76249,-1.21512,0.05519986,-1.236905,45.55039,-19.76253,-6.688262
11.838005066,1.03577,-84.37068,-7.28736799999999,-1.106329,0.09492133,-1.152823,45.55039,-19.76253,-6.688262
11.847864628,-5.486402,-97.7006799999998,-7.53257999999997,-1.040772,0.03208635,-1.064677,45.55039,-19.76253,-6.688262
11.857723236,-8.84066099999998,-109.8405,-6.30652000000001,-0.9750755,-0.06670216,-0.9619816,45.55039,-19.76253,-6.688262
11.867582321,-6.91506799999999,-121.9803,-7.34867099999999,-0.8973858,-0.1226212,-0.8749089,46.27789,-19.43776,-9.192435
11.877440929,-2.629069,-132.5134,-8.88124700000001,-0.8009809,-0.1568576,-0.7596472,46.27789,-19.43776,-9.192435
11.889764786,3.893102,-143.6416,-10.96555,-0.7080566,-0.1857699,-0.6438117,46.27789,-19.43776,-9.192435
11.899623394,9.60776600000003,-151.3182,-11.51728,-0.6692384,-0.1768083,-0.5518039,46.27789,-19.43776,-9.192435
11.909482956,14.08011,-158.9949,-12.43682,-0.6565925,-0.1404525,-0.4893813,46.27789,-19.43776,-9.192435
11.919341564,14.94973,-165.1243,-12.55943,-0.6225979,-0.13005,-0.391063,45.49208,-19.13136,-14.24943
11.929200172,14.26646,-170.7776,-12.43682,-0.6139868,-0.1312218,-0.33465,45.49208,-19.13136,-14.24943
11.939059257,15.13608,-176.2525,-12.98855,-0.5922375,-0.1293672,-0.2807949,45.49208,-19.13136,-14.24943
11.948917866,15.57089,-180.5371,-14.21461,-0.5603799,-0.1054983,-0.2197099,45.49208,-19.13136,-14.24943
11.958776951,14.76339,-184.2862,-15.01155,-0.5352603,-0.04859428,-0.1572918,45.49208,-19.13136,-14.24943
11.968635559,11.59548,-187.4402,-16.60542,-0.5035859,-0.03782459,-0.08529323,43.95483,-19.19606,-20.13098
11.978495121,9.35930300000001,-190.8917,-18.07669,-0.4954515,-0.07414942,-0.05888056,43.95483,-19.19606,-20.13098
11.988353729,13.70742,-194.9383,-21.01924,-0.4795632,-0.1148199,-0.04171987,43.95483,-19.19606,-20.13098
11.998212814,22.58999,-199.0444,-23.77787,-0.4472492,-0.1047615,-0.03107394,43.95483,-19.19606,-20.13098
12.008071423,30.29236,-202.1984,-24.63612,-0.4089611,-0.04189306,0.03360285,43.95483,-19.19606,-20.13098
12.017930031,32.09373,-204.9358,-24.94263,-0.3872513,-0.02296176,0.09958273,40.91146,-18.89317,-27.28884
12.027789593,31.65891,-207.7922,-24.2683,-0.3805641,-0.07198768,0.1163248,40.91146,-18.89317,-27.28884
12.037648201,34.76471,-211.9578,-24.45221,-0.3177934,-0.1106651,0.1649406,40.91146,-18.89317,-27.28884
12.047507286,44.01999,-211.5413,-26.04609,-0.2567366,-0.1357553,0.2074657,40.91146,-18.89317,-27.28884
12.059830666,43.89575,-212.6124,-28.00778,-0.2561792,-0.07275031,0.2678894,40.91146,-18.89317,-27.28884
12.069689751,41.78381,-215.8259,-27.08824,-0.1850801,-0.003857921,0.3043559,36.74535,-18.20829,-34.38067
12.079548359,38.42955,-212.6124,-26.90433,-0.1365243,-0.01204596,0.3419307,36.74535,-18.20829,-34.38067
12.089407921,41.47323,-211.5413,-25.80087,-0.1631234,-0.06346069,0.3193535,36.74535,-18.20829,-34.38067
12.099266529,47.62271,-212.4339,-26.47521,-0.1603883,-0.03316922,0.4748308,36.74535,-18.20829,-34.38067
12.109125614,48.7408,-208.5658,-26.96563,-0.1158395,-0.05153616,0.5325032,36.74535,-18.20829,-34.38067
12.118984222,47.87117,-207.7327,-23.96178,-0.09764137,-0.06160062,0.5307212,31.5351,-18.5987,-40.23945
12.128843308,51.78447,-205.3523,-23.04224,-0.0834573,-0.1157515,0.5904413,31.5351,-18.5987,-40.23945
12.138701916,58.1824099999998,-203.0315,-21.08054,-0.1261637,-0.167299,0.5704886,31.5351,-18.5987,-40.23945
12.148560524,65.2636300000002,-205.6499,-19.67057,-0.1605293,-0.1967956,0.5716878,31.5351,-18.5987,-40.23945
12.158420086,75.3264099999999,-210.1726,-18.01539,-0.12422,-0.2315962,0.5488334,31.5351,-18.5987,-40.23945
12.168278694,89.4888300000001,-215.4093,-17.64757,-0.06831254,-0.1822397,0.6021235,23.6709,-20.02697,-43.51252
12.178137779,96.0110000000003,-216.54,-20.52881,-0.01168272,-0.06459577,0.6967115,23.6709,-20.02697,-43.51252
12.187996388,93.52637,-216.2425,-20.65142,0.07962934,0.06736486,0.7640908,23.6709,-20.02697,-43.51252
12.197855473,86.2587999999997,-213.4456,-20.09969,0.1336413,0.1704264,0.8691355,23.6709,-20.02697,-43.51252
12.207714081,72.5933099999997,-207.9707,-18.07669,0.1263366,0.166112,0.9037056,23.6709,-20.02697,-43.51252
12.217573643,60.23224,-206.8401,-12.37552,0.08248866,0.07998041,0.8772476,16.24714,-21.76173,-46.40062
12.227432251,57.00221,-208.7444,-4.160915,0.09667087,-0.006529167,0.8724819,16.24714,-21.76173,-46.40062
12.239756107,64.0213099999999,-209.5775,2.643717,0.1737764,-0.04530892,0.860034,16.24714,-21.76173,-46.40062
12.249614716,71.1025200000001,-210.4106,4.728019,0.2207674,0.00184984,0.8674294,16.24714,-21.76173,-46.40062
12.259473324,75.7612200000001,-208.7444,3.501959,0.2775554,0.0605986,0.9576845,16.24714,-21.76173,-46.40062
12.269332409,78.2458500000003,-205.8879,0.927233400000001,0.2986875,0.1067059,1.005213,7.291236,-24.23607,-46.39188
12.279191017,79.8608699999998,-204.1622,-2.444432,0.3112752,0.1643918,1.046253,7.291236,-24.23607,-46.39188
12.289050579,73.8977399999997,-202.4959,-2.934855,0.3248165,0.1708156,1.040363,7.291236,-24.23607,-46.39188
12.298909187,63.7728500000002,-201.9603,1.233748,0.3650476,0.1160348,1.000513,7.291236,-24.23607,-46.39188
12.308768272,62.4063000000002,-202.3769,7.60926000000002,0.416487,0.1378579,0.988942,7.291236,-24.23607,-46.39188
12.318626881,57.4370199999998,-197.4377,12.75871,0.4620276,0.1055627,0.9635813,-1.590712,-27.06056,-45.0354
12.328486443,53.95853,-196.545,16.31429,0.4697185,0.1020405,0.9145635,-1.590712,-27.06056,-45.0354
12.338344574,54.82815,-195.8904,18.15338,0.4965966,0.1342236,0.8689281,-1.590712,-27.06056,-45.0354
12.348203182,59.6731899999997,-196.6045,18.45989,0.5278422,0.2001233,0.8503501,-1.590712,-27.06056,-45.0354
12.358062744,63.9591899999999,-196.9021,14.4752,0.5642985,0.2584808,0.8843463,-1.590712,-27.06056,-45.0354
12.367921352,63.4001499999998,-199.0444,12.08438,0.5778446,0.3023643,0.875898,-9.718004,-29.50772,-42.40628
12.377780438,66.3817100000003,-203.8646,10.98092,0.6558107,0.3328878,0.9157763,-9.718004,-29.50772,-42.40628
12.387639046,67.0649899999999,-201.4843,12.02308,0.7680806,0.2505157,1.00405,-9.718004,-29.50772,-42.40628
12.397498608,61.97149,-194.4622,19.37944,0.7435007,0.1895068,1.013469,-9.718004,-29.50772,-42.40628
12.40982151,57.8097200000002,-188.7494,22.56719,0.6727878,0.1272067,1.047016,-9.718004,-29.50772,-42.40628
12.419681072,62.9653400000002,-184.2862,26.06146,0.7014026,0.04062257,0.9883734,-17.90135,-30.45395,-37.80749
12.429539681,78.3700899999998,-180.5371,24.7128,0.7106208,0.08093557,0.9464127,-17.90135,-30.45395,-37.80749
12.439398766,90.3584600000003,-179.5255,22.8124,0.7451482,0.229065,0.9179396,-17.90135,-30.45395,-37.80749
12.449257374,103.5891,-183.6911,22.99631,0.8413664,0.4369135,0.8378169,-17.90135,-30.45395,-37.80749
12.459115982,110.9809,-183.3936,22.93501,0.9929997,0.5038926,0.8228034,-17.90135,-30.45395,-37.80749
12.468975544,110.9188,-179.942,27.83925,1.070559,0.5116237,0.8845384,-25.63777,-32.12814,-32.24321
12.478834152,92.4082800000002,-177.8592,34.9504,1.023928,0.5529367,0.9813915,-25.63777,-32.12814,-32.24321
12.488693237,67.9967299999998,-175.1813,38.56728,0.9838129,0.4858291,0.9583954,-25.63777,-32.12814,-32.24321
12.498551846,56.87798,-173.6341,39.0577,0.966345,0.2943815,0.9440902,-25.63777,-32.12814,-32.24321
12.508410931,60.3564699999999,-169.766,36.72818,0.9260107,0.1770591,0.8967134,-25.63777,-32.12814,-32.24321
12.518269539,72.5311900000002,-166.4335,29.00401,0.8827037,0.2106449,0.8717374,-31.17937,-33.79901,-24.64175
12.528129101,83.96052,-166.8501,27.59404,0.9326285,0.3379811,0.8419108,-31.17937,-33.79901,-24.64175
12.537987709,92.0355799999998,-168.0402,31.94655,0.9964883,0.4901357,0.7795097,-31.17937,-33.79901,-24.64175
12.547846317,99.9243100000003,-168.5758,35.073,1.094484,0.5857109,0.7309995,-31.17937,-33.79901,-24.64175
12.557705402,96.3215899999997,-165.7789,40.65158,1.184219,0.6747983,0.7884557,-31.17937,-33.79901,-24.64175
12.567564011,75.0158199999998,-160.6016,45.80103,1.250775,0.728612,0.8373188,-36.36005,-33.63879,-17.44516
12.579887867,46.00769,-152.7464,49.54051,1.268643,0.6300015,0.8410239,-36.36005,-33.63879,-17.44516
12.589746475,31.5968,-147.6287,48.92748,1.185359,0.4729148,0.80207,-36.36005,-33.63879,-17.44516
12.599606037,27.74561,-144.7722,44.51366,1.079992,0.366254,0.7667316,-36.36005,-33.63879,-17.44516
12.609464645,26.68964,-143.8796,37.46382,1.048699,0.3195994,0.7270103,-36.36005,-33.63879,-17.44516
12.61932373,31.03776,-143.2845,31.88525,1.045539,0.3115624,0.6675668,-39.98276,-33.12307,-9.876309
12.629182339,35.01318,-142.3919,30.78179,1.032463,0.356971,0.6096741,-39.98276,-33.12307,-9.876309
12.639041424,34.01932,-141.8563,32.49828,1.053706,0.4188159,0.5715573,-39.98276,-33.12307,-9.876309
12.648900032,28.92582,-141.5588,35.19561,1.090868,0.4554872,0.5306051,-39.98276,-33.12307,-9.876309
12.658759594,21.22344,-139.4164,37.83164,1.132469,0.4610965,0.5008284,-39.98276,-33.12307,-9.876309
12.668618202,14.018,-135.7864,39.36421,1.152077,0.4508933,0.4587725,-42.93829,-31.53399,-3.986669
12.678477287,9.297187,-133.1085,38.75118,1.132116,0.4203378,0.403212,-42.93829,-31.53399,-3.986669
12.688335895,8.986607,-132.2159,36.78949,1.129523,0.335458,0.3536543,-42.93829,-31.53399,-3.986669
12.698194504,15.63301,-132.3349,35.62473,1.129136,0.2433431,0.315984,-42.93829,-31.53399,-3.986669
12.708054066,25.50944,-132.2754,34.21476,1.130351,0.1882495,0.284833,-42.93829,-31.53399,-3.986669
12.717912674,37.37358,-131.3827,34.76649,1.14533,0.188331,0.2712026,-44.02318,-30.33463,1.897085
12.727771759,46.38039,-129.2999,35.62473,1.169182,0.2596553,0.2891949,-44.02318,-30.33463,1.897085
12.737630367,48.24387,-126.2055,37.52512,1.200273,0.3194345,0.3256755,-44.02318,-30.33463,1.897085
12.747489452,50.04523,-121.8018,38.13815,1.23374,0.3757976,0.353947,-44.02318,-30.33463,1.897085
12.759812832,54.20699,-113.7681,36.54428,1.251767,0.3879251,0.4309435,-44.02318,-30.33463,1.897085
12.769671917,57.3748999999997,-107.1626,35.74734,1.227767,0.3534456,0.5062289,-45.10407,-28.75554,8.609247
12.779530525,63.2137999999999,-100.081,31.94655,1.212241,0.3172671,0.6273823,-45.10407,-28.75554,8.609247
12.789390087,75.8233299999999,-93.1780000000002,25.93886,1.200805,0.3160557,0.7204998,-45.10407,-28.75554,8.609247
12.799248695,101.8499,-84.6087200000002,18.27598,1.195294,0.3520169,0.8502657,-45.10407,-28.75554,8.609247
12.80910778,132.5973,-72.70693,7.42535099999997,1.22718,0.4162817,0.9131287,-45.10407,-28.75554,8.609247
12.818966389,167.5685,-59.4364400000001,-9.18776100000002,1.261914,0.8292241,1.168657,-44.70052,-26.46989,14.40995
12.828824997,144.8341,-32.24085,-37.14193,1.359852,1.532843,1.579081,-44.70052,-26.46989,14.40995
12.838684559,54.51757,-2.367369,-61.3566100000001,1.55412,2.084,1.851711,-44.70052,-26.46989,14.40995
12.848543167,-38.09726,32.32634,-46.52129,1.837123,2.047601,1.728529,-44.70052,-26.46989,14.40995
12.858402252,-94.56062,65.3538,-0.3601296,1.647471,1.515013,1.595437,-44.70052,-26.46989,14.40995
12.86826086,-123.7551,99.2739000000001,0.0689914200000002,1.422015,0.825767,1.425593,-44.31491,-24.21899,17.71411
12.878119945,-98.7845099999998,117.5431,-9.80079199999999,1.320738,0.2888979,1.23993,-44.31491,-24.21899,17.71411
12.887978554,-61.82553,130.8731,-21.93878,1.314122,0.255569,1.191823,-44.31491,-24.21899,17.71411
12.897838116,-32.87952,142.2393,-39.04232,1.490684,0.465356,1.049713,-44.31491,-24.21899,17.71411
12.907696724,-26.60581,154.4387,-44.37568,1.613894,0.6745791,1.012825,-44.31491,-24.21899,17.71411
12.917555809,-35.79897,170.7441,-48.7895,1.668659,0.8024319,0.9795793,-43.96428,-26.1282,13.12204
12.929879189,-49.02966,186.5735,-44.31438,1.714803,0.811538,0.9631849,-43.96428,-26.1282,13.12204
12.939738274,-53.37777,197.3446,-41.12662,1.684659,0.7648054,0.8999658,-43.96428,-26.1282,13.12204
12.949596882,-52.88084,207.3421,-44.00786,1.670823,0.7403684,0.9042695,-43.96428,-26.1282,13.12204
12.95945549,-51.70064,215.4948,-48.7895,1.666342,0.748607,0.9058405,-43.96428,-26.1282,13.12204
12.969315052,-51.70064,222.5764,-56.02325,1.653655,0.7208098,0.9196836,-45.13524,-28.07181,4.824892
12.97917366,-52.75661,230.8481,-61.54052,1.639336,0.6700059,0.9012493,-45.13524,-28.07181,4.824892
12.989032745,-53.81258,236.9776,-65.7091299999999,1.657938,0.6550391,0.8888779,-45.13524,-28.07181,4.824892
12.998891354,-57.29107,244.2972,-67.5482199999998,1.681113,0.6465071,0.8947052,-45.13524,-28.07181,4.824892
13.008750439,-61.7013099999999,250.5456,-68.28385,1.683743,0.638146,0.8648868,-45.13524,-28.07181,4.824892
13.018609047,-65.3661400000002,255.3063,-68.5903699999998,1.653704,0.6231784,0.837395,-44.44044,-30.78666,-4.434579
13.028468609,-65.6146100000002,258.2818,-70.55206,1.625781,0.6265557,0.7659415,-44.44044,-30.78666,-4.434579
13.038327217,-62.074,260.1266,-73.98503,1.620376,0.6691948,0.7299593,-44.44044,-30.78666,-4.434579
13.048186302,-63.0678500000002,264.1732,-76.7436700000002,1.606428,0.6437493,0.7251513,-44.44044,-30.78666,-4.434579
13.05804491,-64.0617100000002,267.0296,-78.6440599999999,1.491779,0.613038,0.7217342,-44.44044,-30.78666,-4.434579
13.067903519,-70.02483,268.5173,-80.9735699999997,1.404843,0.5603366,0.7579893,-40.77376,-33.57079,-16.20604
13.077763081,-72.94428,268.8148,-80.0540300000002,1.350742,0.5066956,0.7257221,-40.77376,-33.57079,-16.20604
13.087621689,-72.8821700000003,268.8148,-79.0118800000002,1.310639,0.4472679,0.6745178,-40.77376,-33.57079,-16.20604
13.097480774,-71.0808000000003,268.9339,-77.3567000000001,1.282237,0.4108797,0.6405922,-40.77376,-33.57079,-16.20604
13.109804153,-67.6644300000002,267.9222,-74.3528500000002,1.223235,0.4408975,0.6095802,-40.77376,-33.57079,-16.20604
13.119663239,-70.5217699999999,268.1602,-73.3107000000002,1.153019,0.4261799,0.6138111,-34.1675,-35.18729,-25.44402
13.129521847,-73.8138999999999,265.7799,-72.5750699999999,1.067258,0.4074486,0.6225426,-34.1675,-35.18729,-25.44402
13.139380932,-77.4787399999999,263.1615,-71.0424900000002,0.9808818,0.400883,0.632823,-34.1675,-35.18729,-25.44402
13.14923954,-79.7149200000001,260.2455,-70.1229399999999,0.9118904,0.3499803,0.5873736,-34.1675,-35.18729,-25.44402
13.159099102,-75.8637300000001,257.5677,-68.6516700000003,0.8828589,0.2941537,0.5619186,-34.1675,-35.18729,-25.44402
13.16895771,-73.5033299999998,255.4848,-66.3834599999997,0.8620665,0.2749957,0.5630116,-24.50278,-36.88881,-33.86497
13.178816795,-69.8384899999997,253.164,-62.82789,0.8245376,0.2739431,0.5007625,-24.50278,-36.88881,-33.86497
13.188675404,-72.0125400000002,250.4266,-58.9044899999997,0.7627046,0.2700591,0.5193414,-24.50278,-36.88881,-33.86497
13.198534966,-69.9006000000001,247.5702,-55.28761,0.6900976,0.2429946,0.4808535,-24.50278,-36.88881,-33.86497
13.208393574,-68.0992399999998,243.6426,-53.44852,0.6133934,0.2237898,0.4717215,-24.50278,-36.88881,-33.86497
13.218252182,-64.8071000000002,241.2027,-53.63243,0.5934554,0.2002111,0.4598266,-14.52073,-36.3503,-39.81362
13.228111267,-62.1361200000001,238.3463,-52.9581,0.5754087,0.1854192,0.4508542,-14.52073,-36.3503,-39.81362
13.237969875,-61.7013099999999,234.6567,-52.03856,0.5356646,0.1430466,0.4050599,-14.52073,-36.3503,-39.81362
13.24782896,-60.8316799999998,229.3009,-48.7282,0.4344751,0.09871826,0.3721049,-14.52073,-36.3503,-39.81362
13.257687569,-62.074,221.8623,-45.29523,0.3005859,0.08292664,0.3700463,-14.52073,-36.3503,-39.81362
13.267547131,-63.9995900000001,214.0666,-41.80096,0.1938032,0.1011183,0.4124537,-3.77298,-34.73101,-42.44809
13.279870033,-72.1988900000001,208.9489,-38.00017,0.126788,0.07345546,0.4606161,-3.77298,-34.73101,-42.44809
13.289729595,-76.9818199999999,205.4378,-35.67065,0.09545141,0.02510594,0.487969,-3.77298,-34.73101,-42.44809
13.299588203,-79.4043399999998,202.1648,-33.34114,0.05437141,0.02341587,0.5235218,-3.77298,-34.73101,-42.44809
13.309447289,-81.9511000000003,199.0704,-30.82772,-0.003238921,0.1291002,0.5535076,6.244587,-32.26357,-42.07822
13.319305897,-95.6787099999998,197.2256,-28.55951,0.01333669,0.1798717,0.5580126,6.244587,-32.26357,-42.07822
13.329165459,-110.2138,196.2139,-24.02309,0.0339146,0.1302637,0.5165687,6.244587,-32.26357,-42.07822
13.339024067,-109.9654,197.4041,-18.81233,-0.01366736,0.0461015,0.5050358,6.244587,-32.26357,-42.07822
13.348882675,-110.1517,198.7133,-15.44067,-0.04567996,-0.01779372,0.5408928,6.244587,-32.26357,-42.07822
13.35874176,-106.7353,199.5464,-9.55557899999999,-0.1068935,0.02935721,0.5421631,6.244587,-32.26357,-42.07822
13.368600369,-108.0398,200.1415,-7.34867099999999,-0.1703676,0.06593355,0.5836293,15.95226,-30.16156,-41.76698
13.378459454,-111.8288,198.7133,-4.406127,-0.2012735,0.02071892,0.537685,15.95226,-30.16156,-41.76698
13.388318062,-110.4623,195.4403,-2.812249,-0.2187598,-0.0204126,0.510752,15.95226,-30.16156,-41.76698
13.398177624,-104.6855,195.3808,-2.689644,-0.1871027,-0.104499,0.4621504,15.95226,-30.16156,-41.76698
13.408036232,-93.1319600000001,198.0587,-0.1762206,-0.1913581,-0.1328131,0.4480753,15.95226,-30.16156,-41.76698
13.417895317,-79.0316500000002,201.0937,-0.850553500000001,-0.2243374,-0.06920379,0.4893349,22.98313,-25.42129,-39.29183
13.427753925,-71.0186899999999,203.1765,-1.524887,-0.2427298,0.005469078,0.4619545,22.98313,-25.42129,-39.29183
13.437613487,-66.9190400000002,201.7483,-0.1762206,-0.2873272,0.09936209,0.4312761,22.98313,-25.42129,-39.29183
13.447472096,-66.9811600000003,200.8556,-0.4827355,-0.3268318,0.1171097,0.4559489,22.98313,-25.42129,-39.29183
13.459795952,-71.5156200000002,200.2606,2.766323,-0.3731802,-0.01446423,0.385536,29.72134,-22.50123,-35.57994
13.46965456,-68.4719400000002,198.8323,4.298898,-0.4136089,-0.1041197,0.3197052,29.72134,-22.50123,-35.57994
13.479513645,-62.1982299999998,198.9514,4.053687,-0.437601,-0.1476553,0.3158461,29.72134,-22.50123,-35.57994
13.489372254,-57.16684,198.4753,6.56710899999998,-0.4501236,-0.1202885,0.2467717,29.72134,-22.50123,-35.57994
13.499231339,-56.42145,197.1066,5.402352,-0.476092,-0.05733084,0.2275467,29.72134,-22.50123,-35.57994
13.509089947,-60.5211,196.9876,4.850626,-0.4780345,-0.05308524,0.1964623,36.04105,-19.97625,-29.74896
13.518948555,-65.4903700000001,195.4998,4.54411,-0.5114327,-0.03952964,0.1270896,36.04105,-19.97625,-29.74896
13.528808117,-72.2610100000001,192.2864,5.034534,-0.5338562,-0.03900025,0.0617633,36.04105,-19.97625,-29.74896
13.538666725,-77.4787399999999,189.3109,5.647564,-0.5173874,-0.06770499,0.02438797,36.04105,-19.97625,-29.74896
13.54852581,-77.4787399999999,187.3471,4.053687,-0.4888511,-0.1769051,-0.09578179,36.04105,-19.97625,-29.74896
13.558384418,-62.5709300000003,184.7287,3.195444,-0.5260295,-0.247539,-0.1576647,40.56086,-18.09999,-23.51764
13.56824398,-44.80577,179.6109,1.601566,-0.567055,-0.245225,-0.2222316,40.56086,-18.09999,-23.51764
13.578102589,-25.73619,175.3858,0.620718400000002,-0.5752087,-0.196347,-0.2748941,40.56086,-18.09999,-23.51764
13.587961674,-13.37512,170.0895,1.969384,-0.6226808,-0.1108977,-0.3444178,40.56086,-18.09999,-23.51764
13.597820282,-10.57991,164.6147,2.70502,-0.6333808,-0.07782831,-0.4542021,40.56086,-18.09999,-23.51764
13.607679367,-7.10141600000002,156.7595,4.237596,-0.6591187,-0.08830925,-0.5928915,40.56086,-18.09999,-23.51764
13.617537975,-3.001765,146.881,5.83147299999998,-0.6867452,-0.1100173,-0.7364408,43.97073,-17.67715,-16.81734
13.627396583,4.141565,138.3713,5.83147299999998,-0.7190681,-0.1409892,-0.8737718,43.97073,-17.67715,-16.81734
13.63972044,13.76953,125.8149,5.279747,-0.7779897,-0.1585768,-1.012527,43.97073,-17.67715,-16.81734
13.649580002,14.51492,114.7462,2.521111,-0.8540934,-0.1400693,-1.087959,43.97073,-17.67715,-16.81734
13.65943861,11.96817,100.1665,-0.5440385,-0.9322985,-0.1527318,-1.16554,46.24665,-16.52198,-11.33506
13.669297695,8.986607,83.14697,-2.996159,-1.059605,-0.1204745,-1.216644,46.24665,-16.52198,-11.33506
13.679156303,1.097885,58.27224,-2.62834,-1.152331,-0.2257154,-1.292403,46.24665,-16.52198,-11.33506
13.689014912,4.638493,41.13366,-8.32951900000003,-1.213712,-0.1051605,-1.310637,46.24665,-16.52198,-11.33506
13.698874474,8.05486800000002,15.72335,-14.21461,-1.260149,-0.09802063,-1.37317,46.24665,-16.52198,-11.33506
13.708733082,3.023479,-4.747726,-10.78164,-1.215053,-0.01752684,-1.295982,46.65476,-17.20379,-7.104535
13.718592167,9.35930300000001,-23.37402,-16.48282,-1.198934,-0.09461327,-1.258047,46.65476,-17.20379,-7.104535
13.728450775,3.706754,-36.04943,-9.61688199999998,-1.167322,0.0465779,-1.183509,46.65476,-17.20379,-7.104535
13.73830986,9.60776600000003,-47.95121,-13.04985,-1.141194,-0.04717535,-1.072061,46.65476,-17.20379,-7.104535
13.748168468,3.023479,-61.6382700000003,-8.75863999999999,-1.106077,-0.05505801,-1.051064,46.65476,-17.20379,-7.104535
13.75802803,7.55793999999999,-72.0523300000002,-13.84679,-1.067121,-0.1855022,-0.8921884,47.39377,-16.85675,-8.008361
13.767886639,10.29104,-83.59706,-15.31806,-1.057669,-0.2640623,-0.842191,47.39377,-16.85675,-8.008361
13.777745724,16.44052,-97.8792100000001,-18.138,-1.013379,-0.2677211,-0.7546804,47.39377,-16.85675,-8.008361
13.787604332,18.30399,-109.9,-16.0537,-0.9354447,-0.2525594,-0.6588649,47.39377,-16.85675,-8.008361
13.79746294,19.1115,-118.8264,-13.54027,-0.8494091,-0.2539853,-0.5934945,47.39377,-16.85675,-8.008361
13.809786797,18.24188,-126.4435,-8.32951900000003,-0.77574,-0.226753,-0.5128507,46.99411,-16.53061,-11.33892
13.819646358,15.57089,-131.9183,-5.019157,-0.7463303,-0.1835124,-0.4707354,46.99411,-16.53061,-11.33892
13.829504967,12.27875,-139.2974,-4.712642,-0.6970538,-0.1760068,-0.4023696,46.99411,-16.53061,-11.33892
13.839363575,9.73199700000002,-145.5459,-6.490429,-0.6430488,-0.1893631,-0.328497,46.99411,-16.53061,-11.33892
13.84922266,10.66374,-151.6158,-8.32951900000003,-0.6307626,-0.2144913,-0.3106745,46.99411,-16.53061,-11.33892
13.859081268,15.88147,-158.2213,-9.739489,-0.6243448,-0.2341653,-0.2519905,46.21352,-16.58613,-15.94405
13.868940353,20.16747,-162.6249,-10.35252,-0.6128383,-0.234699,-0.1620695,46.21352,-16.58613,-15.94405
13.878798962,23.0248,-165.2433,-7.77779200000001,-0.5826907,-0.1910301,-0.1372123,46.21352,-16.58613,-15.94405
13.888658524,24.51558,-168.2783,-4.590036,-0.5603403,-0.1119167,-0.11482,46.21352,-16.58613,-15.94405
13.898517132,23.83231,-170.9562,-3.977006,-0.524072,-0.07775372,-0.04412708,46.21352,-16.58613,-15.94405
13.908376217,21.22344,-172.0869,-5.019157,-0.4976915,-0.1132532,0.02947325,45.03954,-15.93132,-22.73126
13.918234825,21.09921,-174.1102,-7.961701,-0.5017964,-0.1360188,0.06719638,45.03954,-15.93132,-22.73126
13.928094387,25.19886,-176.55,-10.65903,-0.4947326,-0.168961,0.08981927,45.03954,-15.93132,-22.73126
13.937952995,30.66506,-179.8825,-12.31421,-0.514855,-0.179628,0.14752,45.03954,-15.93132,-22.73126
13.94781208,36.06915,-182.9175,-14.092,-0.5205424,-0.1669339,0.1721473,45.03954,-15.93132,-22.73126
13.957670689,39.17494,-186.369,-13.90809,-0.4720244,-0.1357215,0.2057424,41.63089,-15.97979,-28.98723
13.967529774,40.9763,-187.0236,-12.86594,-0.4436136,-0.0752724,0.2973748,41.63089,-15.97979,-28.98723
13.979853153,36.25549,-185.4169,-15.56327,-0.4261804,-0.08878495,0.4158537,41.63089,-15.97979,-28.98723
13.989712715,32.71489,-180.7157,-16.66673,-0.4252981,-0.1987374,0.4197052,41.63089,-15.97979,-28.98723
13.999571323,38.11897,-179.2874,-19.36406,-0.4150788,-0.257955,0.4353525,41.63089,-15.97979,-28.98723
14.009429932,49.11349,-177.6212,-22.91963,-0.3715317,-0.2963546,0.4737022,37.47833,-16.75681,-35.29581
14.019289017,63.83496,-177.3236,-24.88133,-0.359235,-0.2989386,0.4045004,37.47833,-16.75681,-35.29581
14.029147625,82.3455,-177.9187,-25.31045,-0.350578,-0.1981104,0.4104992,37.47833,-16.75681,-35.29581
14.03900671,88.8055600000003,-177.5617,-26.22999,-0.3333195,-0.09978613,0.5069229,37.47833,-16.75681,-35.29581
14.048865318,90.1721099999998,-174.1102,-25.37175,-0.3188375,-0.03135964,0.5528179,37.47833,-16.75681,-35.29581
14.05872488,84.6437899999999,-175.7169,-25.86217,-0.2255632,0.01886813,0.6204379,32.65303,-17.50186,-39.87247
14.068583488,77.18988,-173.277,-25.80087,-0.122357,0.04836623,0.7164934,32.65303,-17.50186,-39.87247
14.078442574,68.43154,-166.7906,-24.82002,-0.1391727,0.05527217,0.781004,32.65303,-17.50186,-39.87247
14.088301182,61.78514,-161.8513,-21.69357,-0.2056526,0.01368606,0.7485359,32.65303,-17.50186,-39.87247
14.098160267,61.3503200000001,-158.9949,-15.56327,-0.2597361,0.01131394,0.7627043,32.65303,-17.50186,-39.87247
14.108018875,60.6049300000002,-157.4476,-10.84294,-0.3043031,-0.01532388,0.7717402,26.28328,-18.94829,-43.21728
14.117878437,60.5428199999998,-157.6262,-4.590036,-0.3042969,-0.08953258,0.7069011,26.28328,-18.94829,-43.21728
14.127737045,66.1953700000001,-161.4943,-0.6053416,-0.2306007,-0.1311326,0.7289805,26.28328,-18.94829,-43.21728
14.13759613,70.9782900000002,-164.1127,-1.463584,-0.177542,-0.1449766,0.8047793,26.28328,-18.94829,-43.21728
14.147454739,72.0963699999998,-166.136,-1.770099,-0.1513995,-0.09857428,0.7894639,26.28328,-18.94829,-43.21728
14.159778595,70.0465499999998,-169.409,-2.260523,-0.07093259,-0.002508374,0.7833775,19.98949,-21.11303,-45.21059
14.169637203,65.5742000000002,-168.5758,-1.647493,-8.686259e-05,0.00200097,0.780489,19.98949,-21.11303,-45.21059
14.179496765,62.28206,-166.9691,2.398505,-0.01544674,0.003005377,0.6954188,19.98949,-21.11303,-45.21059
14.189355373,63.3380299999998,-170.1231,8.71271399999999,-0.05451678,0.0388888,0.6243986,19.98949,-21.11303,-45.21059
14.199213982,60.6049300000002,-174.2887,15.33344,-0.009843436,0.07705652,0.7050688,19.98949,-21.11303,-45.21059
14.209073067,54.57969,-174.9433,18.7051,0.04479344,-0.01485919,0.7202863,13.63861,-23.205,-46.43603
14.218931675,58.1824099999998,-178.5138,20.85071,0.0642575,-0.08426148,0.7232568,13.63861,-23.205,-46.43603
14.22879076,68.18307,-182.977,19.13422,0.1297581,-0.06891339,0.7684559,13.63861,-23.205,-46.43603
14.238649368,77.0656500000001,-185.4764,16.92732,0.2550953,-0.06777432,0.7762631,13.63861,-23.205,-46.43603
14.24850893,83.96052,-184.0481,15.14953,0.252027,-0.0142685,0.7777168,13.63861,-23.205,-46.43603
14.258367539,86.7557400000003,-185.4169,15.14953,0.2541965,0.01008565,0.7788498,5.492909,-25.6878,-46.36746
14.268226624,91.91135,-187.5592,16.98862,0.2943367,0.1063589,0.7934662,5.492909,-25.6878,-46.36746
14.278085232,96.9427400000001,-186.607,22.26068,0.3629737,0.1583549,0.7421316,5.492909,-25.6878,-46.36746
14.287944794,107.3782,-186.5475,29.49443,0.4128193,0.2297928,0.7290856,5.492909,-25.6878,-46.36746
14.297803402,114.5837,-184.1672,32.25307,0.4853869,0.2833456,0.823864,5.492909,-25.6878,-46.36746
14.307662487,112.2233,-182.739,33.90825,0.5171946,0.2998768,0.8748246,-2.687889,-29.23333,-43.34262
14.317521095,104.6451,-183.4531,36.17646,0.514254,0.2921728,0.9035535,-2.687889,-29.23333,-43.34262
14.32738018,99.6137299999999,-184.1077,36.17646,0.5052236,0.2722837,0.9413711,-2.687889,-29.23333,-43.34262
14.33970356,99.42738,-185.8929,32.80479,0.5124521,0.2270476,0.9293855,-2.687889,-29.23333,-43.34262
14.349563122,101.9741,-187.3806,28.75879,0.5451405,0.251101,0.9080378,-2.687889,-29.23333,-43.34262
14.35942173,102.0984,-186.488,26.8584,0.6215464,0.2970731,0.9188375,-10.43468,-32.41576,-40.32381
14.369280815,106.1359,-184.1077,32.80479,0.6662418,0.3902291,0.8701084,-10.43468,-32.41576,-40.32381
14.379139423,105.4526,-182.977,39.97724,0.6572028,0.5099179,0.8865817,-10.43468,-32.41576,-40.32381
14.388998509,96.1352399999998,-181.4297,45.188,0.6801497,0.5273318,0.9343215,-10.43468,-32.41576,-40.32381
14.398857117,86.5072700000003,-181.7868,50.33745,0.7252474,0.538986,0.9510283,-10.43468,-32.41576,-40.32381
14.408715725,74.08408,-179.8825,52.23784,0.7566473,0.5366305,1.027233,-18.59556,-35.17867,-33.9778
14.418575287,62.3441800000001,-177.7997,50.58266,0.7598078,0.5005919,1.012028,-18.59556,-35.17867,-33.9778
14.428433895,53.08891,-178.9304,49.72442,0.7516999,0.4675961,0.9265682,-18.59556,-35.17867,-33.9778
14.43829298,48.43021,-181.6083,48.55966,0.7831998,0.4163941,0.8236175,-18.59556,-35.17867,-33.9778
14.448151589,52.21928,-183.096,44.75888,0.8496582,0.373999,0.7806222,-18.59556,-35.17867,-33.9778
14.458010674,60.0458900000001,-182.3819,42.00024,0.9133354,0.3724977,0.7490332,-25.58962,-36.43734,-28.80586
14.467869282,67.9967299999998,-177.8592,42.06155,0.9673227,0.4242885,0.8071632,-25.58962,-36.43734,-28.80586
14.477728844,74.39467,-171.0157,43.28761,0.9760141,0.5146559,0.8782443,-25.58962,-36.43734,-28.80586
14.487587452,72.2206099999999,-165.8384,45.98494,0.9637551,0.5622503,0.8821751,-25.58962,-36.43734,-28.80586
14.497446537,67.43768,-162.863,48.80487,0.9660034,0.5777037,0.8453751,-25.58962,-36.43734,-28.80586
14.509769917,64.6424700000001,-159.947,48.80487,0.9672889,0.5165012,0.7422916,-31.52022,-35.90123,-21.67319
14.519629002,64.2697799999999,-159.1734,50.39875,0.956073,0.4168134,0.657271,-31.52022,-35.90123,-21.67319
14.52948761,68.43154,-161.4348,51.68612,0.9216629,0.3525048,0.5886932,-31.52022,-35.90123,-21.67319
14.539347172,74.5188999999999,-165.6599,49.90833,0.9261355,0.3520756,0.5934178,-31.52022,-35.90123,-21.67319
14.54920578,83.0287800000002,-170.1826,48.74357,1.028932,0.4103449,0.5771101,-31.52022,-35.90123,-21.67319
14.559064865,87.56324,-168.8734,45.86233,1.125693,0.4761089,0.6270811,-35.95344,-35.74965,-14.48046
14.568923473,88.9297900000001,-165.3623,40.65158,1.189474,0.5219952,0.6447689,-35.95344,-35.74965,-14.48046
14.578783035,85.8861100000002,-162.4464,37.34121,1.204395,0.5736768,0.6363668,-35.95344,-35.74965,-14.48046
14.588641643,78.3079699999998,-160.4826,36.05385,1.183769,0.5941954,0.576934,-35.95344,-35.74965,-14.48046
14.598500729,71.5994499999998,-159.828,33.17261,1.160348,0.5865459,0.5388673,-35.95344,-35.74965,-14.48046
14.608359337,65.6984399999998,-157.8642,31.14961,1.142906,0.5108983,0.5207471,-39.57494,-34.85955,-6.467284
14.618217945,63.27592,-155.5434,32.9887,1.117564,0.4327192,0.495051,-39.57494,-34.85955,-6.467284
14.62807703,65.2015100000001,-153.5796,34.64388,1.0832,0.4206639,0.4757918,-39.57494,-34.85955,-6.467284
14.637935638,69.5496200000001,-151.2587,37.40252,1.089297,0.4458981,0.4428531,-39.57494,-34.85955,-6.467284
14.6477952,73.7113899999998,-148.9974,42.24545,1.106128,0.5058836,0.4383275,-39.57494,-34.85955,-6.467284
14.657653809,73.8977399999997,-146.26,44.39106,1.130053,0.5606291,0.4470741,-42.13767,-34.04392,1.477037
14.667512894,68.43154,-142.8085,44.94279,1.181517,0.5819711,0.4369367,-42.13767,-34.04392,1.477037
14.677371502,61.1639700000002,-139.952,44.88148,1.214929,0.6143952,0.4400886,-42.13767,-34.04392,1.477037
14.689695358,49.05137,-137.2146,44.32976,1.23586,0.609805,0.4641907,-42.13767,-34.04392,1.477037
14.699553966,37.87051,-136.7385,42.67458,1.219902,0.5802032,0.523589,-42.13767,-34.04392,1.477037
14.709413528,23.33538,-136.9171,39.36421,1.238374,0.5109236,0.5615562,-42.84443,-31.35223,9.072149
14.719272137,15.26031,-135.3103,37.096,1.281117,0.4351895,0.5080752,-42.84443,-31.35223,9.072149
14.729131222,20.6644,-129.2404,34.39867,1.305771,0.454232,0.4671525,-42.84443,-31.35223,9.072149
14.73898983,29.11216,-118.5288,31.45613,1.279465,0.5516222,0.4175543,-42.84443,-31.35223,9.072149
14.748848915,27.99408,-108.0552,29.80095,1.265197,0.6332252,0.4117375,-42.84443,-31.35223,9.072149
14.758707523,19.1115,-97.2246099999998,30.10746,1.26685,0.6994196,0.4117934,-42.81305,-29.43131,14.81454
14.768567085,10.41527,-89.5479599999999,30.9657,1.25101,0.6690929,0.4074504,-42.81305,-29.43131,14.81454
14.778425693,20.04324,-82.7044299999998,32.13046,1.193758,0.4573667,0.3997707,-42.81305,-29.43131,14.81454
14.788284779,57.7476000000001,-76.1584500000003,31.02701,1.134886,0.1568619,0.338653,-42.81305,-29.43131,14.81454
14.798143387,125.9509,-68.7793400000002,26.36798,1.084625,0.004853164,0.5374335,-42.81305,-29.43131,14.81454
14.808002472,189.3091,-47.05858,3.134141,1.06612,0.4375515,0.9961092,-42.79272,-27.53177,19.0206
14.81786108,177.445,-27.77768,-38.91972,0.9681106,1.538354,1.378655,-42.79272,-27.53177,19.0206
14.827720642,49.23772,-31.2292,-66.01564,1.256607,2.149536,1.474583,-42.79272,-27.53177,19.0206
14.83757925,-32.07201,5.190266,-46.52129,1.832025,2.291838,1.210732,-42.79272,-27.53177,19.0206
14.847437859,-82.8828299999999,37.86067,2.275899,1.538069,1.8848,1.324577,-42.79272,-27.53177,19.0206
14.859761715,-164.3168,64.6396899999998,9.87747100000001,1.080247,1.048628,1.062882,-41.28271,-25.28759,22.76706
14.869620323,-155.1858,83.5040200000003,7.91577499999999,1.065279,0.4330528,0.9663728,-41.28271,-25.28759,22.76706
14.879479408,-97.2316099999998,99.1548800000003,12.4522,1.19811,-0.05718549,0.9838231,-41.28271,-25.28759,22.76706
14.889338016,-53.31565,123.018,-8.94255000000001,1.29507,0.3336064,1.154897,-41.28271,-25.28759,22.76706
14.899197578,-22.38193,137.5381,-40.20708,1.541369,0.6959248,1.166424,-41.28271,-25.28759,22.76706
14.909056187,-20.45634,149.797,-44.55959,1.703985,1.010976,1.098719,-41.68476,-26.82624,17.72699
14.918915272,-42.5696,166.876,-52.9581,1.755091,1.198514,1.029131,-41.68476,-26.82624,17.72699
14.92877388,-72.4473600000001,184.5502,-60.9887899999999,1.824088,1.091721,0.9361983,-41.68476,-26.82624,17.72699
14.938633442,-91.9517500000002,194.5477,-56.82019,1.719167,0.9303705,0.8495969,-41.68476,-26.82624,17.72699
14.94849205,-91.5790600000001,200.7961,-58.0462500000001,1.654912,0.7552391,0.7551116,-41.68476,-26.82624,17.72699
14.958351135,-79.4664500000001,210.2581,-61.4792200000001,1.628801,0.7241987,0.7144898,-42.84853,-28.38389,10.70634
14.968209743,-73.0685200000002,215.9114,-66.01564,1.662955,0.8302867,0.7652143,-42.84853,-28.38389,10.70634
14.978068829,-79.7770400000002,220.5531,-65.9543400000002,1.734753,0.9770892,0.813829,-42.84853,-28.38389,10.70634
14.987927437,-90.5852099999998,228.1702,-64.1765500000002,1.820118,0.9880309,0.8050376,-42.84853,-28.38389,10.70634
14.997786999,-102.263,237.9892,-62.5213700000002,1.854643,0.9035983,0.7870609,-42.84853,-28.38389,10.70634
15.007645607,-109.779,248.5818,-65.5252200000001,1.827056,0.7515146,0.7828162,-43.27488,-32.20181,0.6317987
15.017504692,-109.9654,255.6039,-68.52907,1.782307,0.6346381,0.735027,-43.27488,-32.20181,0.6317987
15.029828072,-102.3872,260.6026,-71.71682,1.74682,0.6083744,0.6926623,-43.27488,-32.20181,0.6317987
15.039687157,-92.3244500000001,263.5781,-77.0501799999998,1.714265,0.6454701,0.6699586,-43.27488,-32.20181,0.6317987
15.049545765,-81.0814700000002,265.9584,-81.4026899999998,1.695718,0.7090049,0.6573415,-43.27488,-32.20181,0.6317987
15.059405327,-80.5845399999999,269.886,-85.4486899999998,1.666205,0.7234809,0.6943035,-39.98669,-34.61883,-11.52559
15.069263935,-82.5101300000001,273.04,-87.4103900000002,1.578298,0.669526,0.6582027,-39.98669,-34.61883,-11.52559
15.07912302,-87.35518,273.159,-85.8165100000001,1.500622,0.6283442,0.6302102,-39.98669,-34.61883,-11.52559
15.088981628,-92.2623399999997,274.4682,-83.9774200000002,1.418744,0.5862043,0.6161664,-39.98669,-34.61883,-11.52559
15.098840714,-93.5046500000002,273.0995,-81.7092100000003,1.337151,0.5590103,0.5643879,-39.98669,-34.61883,-11.52559
15.108699322,-92.4486799999999,272.6829,-79.3183900000003,1.293461,0.5462405,0.5064404,-34.50403,-36.97115,-21.64643
15.118558884,-90.5230899999998,272.6234,-77.7858200000002,1.246016,0.5609571,0.5201792,-34.50403,-36.97115,-21.64643
15.128417492,-93.25619,272.3854,-75.4563099999999,1.187809,0.5185911,0.5196929,-34.50403,-36.97115,-21.64643
15.1382761,-96.67256,272.0878,-70.7972799999999,1.081127,0.4859008,0.4888311,-34.50403,-36.97115,-21.64643
15.148135185,-99.9025899999999,268.1007,-67.7321199999999,1.009073,0.4546,0.4871979,-34.50403,-36.97115,-21.64643
15.157993794,-100.5238,264.6492,-61.7857300000002,0.9771551,0.4342665,0.460646,-25.97372,-37.94125,-31.3494
15.167853355,-99.4677800000003,262.3879,-56.39107,0.9375178,0.4335588,0.4952281,-25.97372,-37.94125,-31.3494
15.177711964,-102.1388,260.6026,-53.57113,0.8788303,0.4097434,0.5116772,-25.97372,-37.94125,-31.3494
15.187571049,-103.5053,257.8057,-51.36422,0.8205934,0.3864097,0.5257279,-25.97372,-37.94125,-31.3494
15.197429657,-107.7913,255.5444,-48.8508,0.7449444,0.3410064,0.5350485,-25.97372,-37.94125,-31.3494
15.209753513,-107.6671,250.9622,-45.11132,0.6700139,0.2481797,0.4835795,-15.62593,-37.05049,-38.13592
15.219612122,-103.1326,248.1653,-42.35268,0.5863202,0.2041097,0.4781708,-15.62593,-37.05049,-38.13592
15.229471207,-99.77836,246.0824,-41.98486,0.504582,0.1936092,0.4663088,-15.62593,-37.05049,-38.13592
15.239329815,-97.1694899999997,241.0242,-40.88141,0.456282,0.2204228,0.4638691,-15.62593,-37.05049,-38.13592
15.249189377,-99.96471,236.561,-36.71281,0.4532079,0.2700211,0.4614563,-15.62593,-37.05049,-38.13592
15.259047985,-107.9155,233.2285,-32.85072,0.4263163,0.2971274,0.4865075,-5.267897,-34.71375,-42.44036
15.26890707,-116.8602,229.8365,-28.00778,0.3753755,0.2760175,0.4276346,-5.267897,-34.71375,-42.44036
15.278765678,-126.4882,226.6825,-23.04224,0.3113098,0.2272558,0.4223858,-5.267897,-34.71375,-42.44036
15.28862524,-134.5633,225.0758,-20.46751,0.2631299,0.08034739,0.4194367,-5.267897,-34.71375,-42.44036
15.298483849,-128.8486,223.469,-13.9694,0.163304,-0.06611968,0.3966217,-5.267897,-34.71375,-42.44036
15.308342934,-121.5189,216.7445,-10.35252,0.07149654,-0.08921184,0.4245705,5.542224,-31.9169,-44.19091
15.318201542,-116.2391,215.6139,-10.53643,0.05067239,-0.09847912,0.4679171,5.542224,-31.9169,-44.19091
15.328060627,-109.7169,214.4832,-7.10345900000001,0.04180032,-0.0840645,0.4398924,5.542224,-31.9169,-44.19091
15.337919235,-103.6917,210.6151,-4.773945,0.01548658,-0.07659279,0.4182873,5.542224,-31.9169,-44.19091
15.347778797,-94.7469699999999,207.6397,-3.793097,0.007890054,-0.149207,0.4072404,5.542224,-31.9169,-44.19091
15.357637405,-84.0630300000001,206.9256,-1.954008,-0.04617288,-0.176961,0.4005887,15.17878,-27.59905,-43.45387
15.367496491,-72.4473600000001,206.866,-1.524887,-0.1070501,-0.1834191,0.3793586,15.17878,-27.59905,-43.45387
15.37981987,-58.2849300000001,205.1998,-1.218372,-0.1885476,-0.1591869,0.4157063,15.17878,-27.59905,-43.45387
15.389678955,-48.84331,202.1053,0.4981124,-0.2261706,-0.1093556,0.4272054,15.17878,-27.59905,-43.45387
15.399537563,-45.48905,197.9397,0.3755064,-0.2232471,-0.0725808,0.4945621,15.17878,-27.59905,-43.45387
15.409397125,-49.65082,198.7133,-3.486583,-0.2095108,-0.0730193,0.6045784,22.59016,-23.59405,-40.58902
15.419255734,-55.67606,202.5219,-9.003853,-0.1907399,-0.1433254,0.6276776,22.59016,-23.59405,-40.58902
15.429114819,-58.4091599999999,206.3305,-13.29506,-0.1832015,-0.2156786,0.6504403,22.59016,-23.59405,-40.58902
15.438973427,-58.9060900000002,210.1985,-16.115,-0.1782415,-0.1912045,0.6769321,22.59016,-23.59405,-40.58902
15.448832512,-61.0180300000003,215.0783,-14.39852,-0.2035523,-0.08585393,0.6714731,22.59016,-23.59405,-40.58902
15.45869112,-73.4412099999997,217.7562,-9.739489,-0.2572521,0.01275869,0.623234,30.4611,-21.09863,-35.59826
15.468550682,-93.4425399999999,220.5531,-2.321826,-0.2521224,-0.1327569,0.4767354,30.4611,-21.09863,-35.59826
15.47840929,-88.5353800000002,224.2427,7.793169,-0.3039624,-0.3303206,0.3401935,30.4611,-21.09863,-35.59826
15.488267899,-71.8883099999997,221.8623,15.27213,-0.4213918,-0.4001246,0.1702038,30.4611,-21.09863,-35.59826
15.498126984,-55.30336,215.9114,15.51735,-0.4547911,-0.3283876,0.04429739,30.4611,-21.09863,-35.59826
15.507985592,-38.53207,211.5077,12.75871,-0.3317454,-0.2108628,-0.04942917,37.16299,-19.6157,-29.37444
15.517845154,-23.00309,208.1157,9.87747100000001,-0.3116986,-0.0495429,-0.1595277,37.16299,-19.6157,-29.37444
15.527703762,-16.10822,200.7961,5.463655,-0.3605879,0.03821367,-0.2592014,37.16299,-19.6157,-29.37444
15.537562847,-11.38741,193.4765,5.89277599999998,-0.3543806,0.04856207,-0.3689392,37.16299,-19.6157,-29.37444
15.547421456,-3.312345,184.3122,8.40619900000001,-0.3973723,0.1081964,-0.4555167,37.16299,-19.6157,-29.37444
15.559745312,-5.610633,177.1116,9.20313699999998,-0.409301,0.04101657,-0.5642127,41.68723,-17.35883,-22.2507
15.56960392,-4.492547,173.065,9.325744,-0.5294013,-0.0476437,-0.6955082,41.68723,-17.35883,-22.2507
15.579463005,0.1040308,165.0908,8.467502,-0.6457407,-0.1277427,-0.7587388,41.68723,-17.35883,-22.2507
15.589321613,3.023479,156.1049,2.398505,-0.7768429,-0.1433326,-0.8432578,41.68723,-17.35883,-22.2507
