Time (s),Gyroscope X (deg/s),Gyroscope Y (deg/s),Gyroscope Z (deg/s),Accelerometer X (g),Accelerometer Y (g),Accelerometer Z (g),Magnetometer X (uT),Magnetometer Y (uT),Magnetometer Z (uT)
8.231326103,14.4951,-6.44885599999998,1.906098,-0.1341486,0.232785,0.3399223,5.484883,-50.41703,-14.86158
8.241213322,17.54134,-12.33311,13.75783,-0.1365509,0.2649807,0.375826,5.484883,-50.41703,-14.86158
8.251101494,18.84688,-17.4524,26.0372,-0.113608,0.3218386,0.4034581,5.484883,-50.41703,-14.86158
8.260988712,17.54134,-22.74822,37.76675,-0.1400304,0.3724166,0.3627751,7.683816,-50.44926,-14.81153
8.270875931,16.29798,-29.45627,48.57992,-0.1330626,0.4026637,0.3347368,7.683816,-50.44926,-14.81153
8.280764103,18.28736,-36.75274,55.97198,-0.1350722,0.3797092,0.3300413,7.683816,-50.44926,-14.81153
8.290651321,25.37453,-43.93152,60.5538300000001,-0.1731763,0.3290789,0.3586282,7.683816,-50.44926,-14.81153
8.30053854,36.44046,-50.10998,65.3800599999998,-0.1839709,0.3358063,0.4162924,7.683816,-50.44926,-14.81153
8.310426712,44.64666,-52.81673,70.5117299999999,-0.1635094,0.3870414,0.4583779,6.906301,-51.17046,-13.52103
8.320313931,50.80131,-53.52284,75.8266799999998,-0.1379391,0.4724855,0.4440284,6.906301,-51.17046,-13.52103
8.330201626,54.96658,-54.40548,80.5307200000001,-0.1069971,0.5562211,0.4138234,6.906301,-51.17046,-13.52103
8.340088844,54.28273,-56.46497,83.4020199999999,-0.0946927,0.5954313,0.3996925,6.906301,-51.17046,-13.52103
8.34997654,56.14777,-60.1720400000001,85.7845800000002,-0.05744558,0.5926751,0.4483218,6.906301,-51.17046,-13.52103
8.359864235,62.0537499999999,-61.7019500000003,87.3118699999999,-0.02515177,0.6054863,0.5603483,3.923182,-51.85227,-11.89146
8.369751453,66.4055199999997,-58.70098,87.6784099999999,-0.03993592,0.5979654,0.6416453,3.923182,-51.85227,-11.89146
8.379638672,70.32211,-54.52316,90.4275300000001,-0.06140414,0.5842816,0.6681406,3.923182,-51.85227,-11.89146
8.389526844,73.2440099999999,-47.87396,94.3984699999999,-0.07024089,0.6346146,0.5808295,3.923182,-51.85227,-11.89146
8.399414063,75.6685700000003,-46.16753,94.2151900000002,-0.09526682,0.7377388,0.4393701,3.923182,-51.85227,-11.89146
8.409301281,77.78229,-53.99358,89.8777099999998,-0.07215747,0.8596511,0.2906566,-0.9100137,-52.03527,-8.623371
8.419189453,78.7769799999999,-64.5852300000002,83.9518400000002,0.03750154,0.9710519,0.2647295,-0.9100137,-52.03527,-8.623371
8.429076672,79.896,-72.41128,78.75907,0.1584538,1.050341,0.339971,-0.9100137,-52.03527,-8.623371
8.438964367,78.8391500000001,-71.2932700000001,74.4215900000002,0.2179567,1.092281,0.4821793,-0.9100137,-52.03527,-8.623371
8.448852062,72.5601699999998,-65.7032400000001,73.3830299999997,0.2087445,1.046534,0.6132106,-0.9100137,-52.03527,-8.623371
8.461211205,61.4320699999998,-55.17043,72.58884,0.2271749,0.9610709,0.6973437,-5.741388,-51.21011,-5.369429
8.471098423,54.71791,-46.4029,71.2448299999999,0.2348389,0.9129322,0.6706641,-5.741388,-51.21011,-5.369429
8.480986595,51.6095,-41.75434,69.0455400000003,0.2320967,0.9347549,0.6315961,-5.741388,-51.21011,-5.369429
8.490873814,47.19556,-38.34148,66.5407900000001,0.2485918,1.015308,0.5494512,-5.741388,-51.21011,-5.369429
8.500761509,41.41392,-36.75274,65.1967800000001,0.2611961,1.07452,0.4399972,-5.741388,-51.21011,-5.369429
8.510648728,35.0106,-38.10611,64.1582299999999,0.2845725,1.063528,0.3919872,-9.121649,-50.72835,-2.467294
8.520536423,30.41015,-41.10708,62.9364,0.3159477,1.015302,0.3951521,-9.121649,-50.72835,-2.467294
8.530424118,29.35329,-42.93119,61.7145700000002,0.2932945,0.9372852,0.4181239,-9.121649,-50.72835,-2.467294
8.540311337,32.33737,-45.22605,61.4702099999998,0.255187,0.8846856,0.445278,-9.121649,-50.72835,-2.467294
8.550198555,35.38361,-44.16689,60.67602,0.2477771,0.8685969,0.4756489,-9.121649,-50.72835,-2.467294
8.560086727,36.00529,-39.16528,58.6599999999998,0.2454909,0.90205,0.4653779,-12.86442,-50.25657,-0.4168246
8.569973946,35.88095,-34.28135,54.01706,0.2466429,0.9297661,0.4301319,-12.86442,-50.25657,-0.4168246
8.579861164,35.07277,-31.86881,48.88538,0.258865,0.9271973,0.3902423,-12.86442,-50.25657,-0.4168246
8.589749336,35.57011,-31.10386,45.76972,0.2835609,0.8976583,0.3721447,-12.86442,-50.25657,-0.4168246
8.599636555,38.30551,-32.92797,43.44825,0.3171262,0.8717438,0.3045039,-12.86442,-50.25657,-0.4168246
8.60952425,43.77631,-36.92926,42.59296,0.3665364,0.825986,0.2797835,-15.08242,-49.06748,0.7494169
8.619411945,48.62543,-38.28264,45.28099,0.3959323,0.8188072,0.3572814,-15.08242,-49.06748,0.7494169
8.629299164,51.98251,-34.69325,46.13626,0.3984928,0.8921055,0.4069297,-15.08242,-49.06748,0.7494169
8.639186859,56.89379,-31.1627,46.25845,0.3695339,0.9155127,0.3726331,-15.08242,-49.06748,0.7494169
8.649074078,59.7535199999999,-30.28006,47.35809,0.3105763,0.9557998,0.3233086,-15.08242,-49.06748,0.7494169
8.658961773,56.89379,-34.69325,45.34208,0.2805094,1.043197,0.2367479,-17.00932,-48.3002,3.226053
8.671321392,46.3252,-45.57911,41.31005,0.310355,1.083438,0.1961811,-17.00932,-48.3002,3.226053
8.68120861,37.24865,-55.17043,36.91146,0.3954369,1.027719,0.2590791,-17.00932,-48.3002,3.226053
8.691095829,34.45108,-55.22927,36.97256,0.4894418,0.9330649,0.3899939,-17.00932,-48.3002,3.226053
8.700984001,33.02122,-48.52123,38.92748,0.5062787,0.8171217,0.4872641,-17.00932,-48.3002,3.226053
8.71087122,32.21303,-39.3418,42.59296,0.5141275,0.7166382,0.5099031,-18.49563,-47.0983,5.706511
8.720758438,29.72631,-29.27974,45.46426,0.4761213,0.6315507,0.448732,-18.49563,-47.0983,5.706511
8.73064661,23.13648,-23.51318,48.0301,0.4449255,0.6637165,0.3485025,-18.49563,-47.0983,5.706511
8.740533829,16.04931,-20.39453,46.625,0.3840071,0.8090501,0.2568047,-18.49563,-47.0983,5.706511
8.750421047,6.288907,-21.10064,40.08822,0.3555184,0.9524024,0.1997801,-18.49563,-47.0983,5.706511
8.760309219,0.5694358,-22.92475,37.3391,0.3863363,1.002088,0.1721516,-20.03699,-45.90384,7.731568
8.770196438,-1.046937,-25.45498,35.262,0.411582,1.005482,0.1745678,-20.03699,-45.90384,7.731568
8.780084133,2.185808,-28.04405,37.52238,0.4407982,0.9043906,0.191944,-20.03699,-45.90384,7.731568
8.789971828,11.13802,-30.16238,38.92748,0.4428712,0.8105776,0.2039626,-20.03699,-45.90384,7.731568
8.799859047,21.89312,-32.75145,42.95951,0.4312673,0.6979302,0.2247173,-20.03699,-45.90384,7.731568
8.809746742,32.4617,-34.22251,46.01408,0.3946607,0.6515141,0.2422234,-21.13381,-45.16285,9.448561
8.819633961,38.05684,-33.39871,48.0301,0.3578456,0.6864551,0.2617227,-21.13381,-45.16285,9.448561
8.829521179,38.55418,-29.33858,45.1588,0.3353606,0.7764918,0.2549902,-21.13381,-45.16285,9.448561
8.839409351,33.20772,-26.10225,39.72167,0.3720949,0.8713673,0.2540716,-21.13381,-45.16285,9.448561
8.84929657,27.9856,-22.10096,34.04017,0.4358284,0.9195644,0.2615953,-21.13381,-45.16285,9.448561
8.859183788,26.92874,-19.51189,30.49687,0.5043885,0.9485165,0.2528704,-23.72877,-43.96824,10.60622
8.86907196,29.72631,-20.33568,27.93103,0.5442235,0.9646438,0.2619716,-23.72877,-43.96824,10.60622
8.878959179,32.58604,-20.218,25.79283,0.5777332,0.9813783,0.2782765,-23.72877,-43.96824,10.60622
8.888847351,33.26989,-18.51157,26.77029,0.5729166,0.9921008,0.2782168,-23.72877,-43.96824,10.60622
8.901206493,25.87188,-15.27523,28.29758,0.5022584,1.041694,0.2634583,-24.51022,-43.17004,12.26463
8.911093712,16.48449,-14.39259,26.64811,0.4707889,1.053692,0.2474914,-24.51022,-43.17004,12.26463
8.92098093,6.22673899999999,-14.86333,23.65463,0.4707184,1.032739,0.2466354,-24.51022,-43.17004,12.26463
8.930869102,0.5072676,-16.56976,20.11133,0.4913802,0.9777881,0.2546313,-24.51022,-43.17004,12.26463
8.940756321,2.80749,-16.27555,17.36222,0.5268945,0.8732752,0.2720321,-24.51022,-43.17004,12.26463
8.950644016,10.2055,-13.98069,15.65166,0.5679559,0.8132201,0.2670921,-25.27666,-42.07231,13.07552
8.960531235,13.25174,-11.27394,15.59057,0.5929877,0.870636,0.2346087,-25.27666,-42.07231,13.07552
8.97041893,13.12741,-5.74274599999998,13.88001,0.5810491,0.9206789,0.2252048,-25.27666,-42.07231,13.07552
8.980306625,11.26236,-2.388725,12.10836,0.5816443,0.9408852,0.208752,-25.27666,-42.07231,13.07552
8.990193844,9.02430599999998,-0.0938677799999998,9.97016099999998,0.5761709,0.9203454,0.2348193,-25.27666,-42.07231,13.07552
9.000081062,6.97275699999999,3.201311,7.89305399999997,0.5809175,0.8901595,0.2359391,-26.34976,-40.53606,13.48397
9.009969234,7.28359699999998,5.79037999999999,5.75485600000001,0.5652784,0.8590184,0.2355978,-26.34976,-40.53606,13.48397
9.019856453,8.65129700000001,7.84986700000002,4.044297,0.5505763,0.8141545,0.2295558,-26.34976,-40.53606,13.48397
9.029744625,12.50572,8.37945000000001,4.410845,0.5577008,0.7638696,0.2221233,-26.34976,-40.53606,13.48397
9.039631844,16.98183,10.90968,4.838485,0.5673785,0.7575704,0.2255326,-26.34976,-40.53606,13.48397
9.049519062,18.90904,14.20485,4.105388,0.5771812,0.7688928,0.2024023,-26.41926,-40.52798,13.87166
9.059406757,17.47918,16.6174,4.533028,0.6156332,0.794016,0.1941434,-26.41926,-40.52798,13.87166
9.069294453,14.61944,19.79489,4.594119,0.6582278,0.7792534,0.2221598,-26.41926,-40.52798,13.87166
9.079181671,14.86811,23.50197,5.388307,0.7181686,0.7264456,0.2484645,-26.41926,-40.52798,13.87166
9.089069366,18.5982,27.44441,8.80942499999997,0.7465215,0.6804115,0.3001879,-26.41926,-40.52798,13.87166
9.098956585,24.93936,33.44635,10.33671,0.7705637,0.6305389,0.3225897,-26.41259,-40.53514,13.48254
9.111316204,32.02653,41.80198,16.38476,0.7815047,0.5821602,0.3454499,-26.41259,-40.53514,13.48254
9.121203899,30.28582,51.09909,23.53245,0.7832786,0.5553476,0.3763664,-26.41259,-40.53514,13.48254
9.131091118,24.00683,62.9852799999998,32.3907,0.7715345,0.5554734,0.4157879,-26.41259,-40.53514,13.48254
9.140978813,14.18426,75.98946,41.55441,0.7414848,0.5791436,0.4315045,-26.41259,-40.53514,13.48254
9.150866509,2.247976,87.9344900000001,48.64101,0.715856,0.6169051,0.4457122,-27.10175,-39.45384,13.45178
9.160753727,-10.24782,95.9370700000002,53.7116,0.6913257,0.6653035,0.4223555,-27.10175,-39.45384,13.45178
9.170640945,-17.27283,95.99591,55.42216,0.6735892,0.6490045,0.3069967,-27.10175,-39.45384,13.45178
9.180529118,-13.16973,92.7007299999998,56.58289,0.6896396,0.5820823,0.1977031,-27.10175,-39.45384,13.45178
9.190416336,-2.911981,85.8161600000002,60.6149300000002,0.6892118,0.5220028,0.08787528,-27.10175,-39.45384,13.45178
9.200304508,3.926517,79.9319200000002,64.58587,0.6982373,0.4620182,0.08337946,-29.64806,-39.06905,11.70167
9.210191727,5.667225,80.6968599999999,71.7335700000001,0.7132103,0.4360796,0.07679467,-29.64806,-39.06905,11.70167
9.220078945,9.45948300000001,83.6389800000002,75.8266799999998,0.6881996,0.4695182,0.02994791,-29.64806,-39.06905,11.70167
9.229966641,16.98183,83.2270900000001,75.5212300000002,0.6502006,0.5326001,-0.02283446,-29.64806,-39.06905,11.70167
9.239854336,24.13117,78.2843200000002,75.8266799999998,0.6328385,0.5717414,-0.01295266,-29.64806,-39.06905,11.70167
9.249742031,31.21834,75.1068299999998,76.6819700000002,0.610582,0.6011965,-0.0001419401,-32.23933,-36.80855,9.08053
9.25962925,41.16525,72.5766000000002,79.9808999999998,0.5960289,0.6280453,0.03481308,-32.23933,-36.80855,9.08053
9.269516468,54.71791,71.5174300000001,85.6013100000002,0.5862301,0.6356082,0.08333674,-32.23933,-36.80855,9.08053
9.27940464,65.2243200000001,70.9290099999998,92.1991800000003,0.5876319,0.6424174,0.1155256,-32.23933,-36.80855,9.08053
9.289291859,70.8816199999998,69.7521600000001,96.5977600000001,0.5788921,0.6509142,0.1289386,-32.23933,-36.80855,9.08053
9.299179077,69.4517600000002,66.5746699999998,95.6202999999998,0.5808886,0.6570321,0.1149632,-35.10913,-34.19949,8.070567
9.309067249,61.0590600000001,61.0434800000001,95.9257600000002,0.5510696,0.693179,0.05318873,-35.10913,-34.19949,8.070567
9.318954468,50.61481,53.86469,93.29883,0.6148449,0.656593,0.1226988,-35.10913,-34.19949,8.070567
9.328841686,40.23272,50.86372,97.6363099999997,0.6414199,0.6398855,0.1487831,-35.10913,-34.19949,8.070567
9.341201782,32.15086,52.68784,102.8291,0.676164,0.596809,0.1711627,-35.10913,-34.19949,8.070567
9.351089001,28.23427,52.09942,108.3884,0.676167,0.5768853,0.1414463,-37.73515,-30.82844,7.574537
9.360976219,29.29113,48.68655,110.8321,0.6830814,0.5870669,0.1067764,-37.73515,-30.82844,7.574537
9.370864391,32.83471,42.97883,110.2211,0.7130681,0.5428945,0.08779684,-37.73515,-30.82844,7.574537
9.38075161,35.81878,37.44764,112.2982,0.7435859,0.525304,0.08792043,-37.73515,-30.82844,7.574537
9.390639305,38.24334,33.03445,114.3143,0.7660044,0.5371243,0.06720658,-37.73515,-30.82844,7.574537
9.400526524,41.16525,29.15085,114.0088,0.7767974,0.5637487,0.05794682,-39.91304,-27.15715,6.63013
9.410413742,43.27896,25.97335,115.0474,0.8069115,0.5700267,0.05843025,-39.91304,-27.15715,6.63013
9.420301914,46.20087,25.09072,118.1019,0.8272439,0.5683335,0.07817969,-39.91304,-27.15715,6.63013
9.430189133,51.36082,25.50261,121.0954,0.8306389,0.5763049,0.09064721,-39.91304,-27.15715,6.63013
9.440076351,57.3289699999998,25.6203,121.8896,0.830141,0.576385,0.09593637,-39.91304,-27.15715,6.63013
9.449964523,62.9240999999998,23.14891,122.0729,0.8397545,0.5476,0.09368816,-42.48017,-22.26763,6.503431
9.459851742,69.4517600000002,19.91258,119.8736,0.8752038,0.5533949,0.09514195,-42.48017,-22.26763,6.503431
9.46973896,71.2546300000002,16.79392,117.5521,0.9309807,0.5470765,0.103413,-42.48017,-22.26763,6.503431
9.479627133,71.5654799999999,15.67592,117.6743,0.9586637,0.559855,0.114922,-42.48017,-22.26763,6.503431
9.489514351,70.9437900000001,15.44055,118.2852,0.9509106,0.5682492,0.1216036,-42.48017,-22.26763,6.503431
9.499402046,68.8922400000001,15.49939,119.0794,0.9218285,0.5829799,0.1258244,-44.66062,-16.32082,5.916315
9.509289742,67.1515399999998,14.79328,120.851,0.9110643,0.5656291,0.1364801,-44.66062,-16.32082,5.916315
9.51917696,64.8513099999998,15.02865,121.2176,0.8959373,0.5512374,0.1490396,-44.66062,-16.32082,5.916315
9.529064655,64.8513099999998,13.96949,121.1565,0.9025866,0.5212922,0.1665116,-44.66062,-16.32082,5.916315
9.538951874,65.9703400000002,12.85148,119.2627,0.9135999,0.4913671,0.1859122,-44.66062,-16.32082,5.916315
9.548839092,64.1674700000002,12.43958,119.3238,0.951391,0.4713203,0.1855756,-46.53472,-10.37026,5.790319
9.561199188,63.8566199999999,10.90968,115.7805,0.9869797,0.4971355,0.1580731,-46.53472,-10.37026,5.790319
9.571086407,64.2918,8.791347,113.2146,1.012634,0.4721496,0.1514956,-46.53472,-10.37026,5.790319
9.580973625,63.5457799999999,8.32060700000001,112.3593,1.020368,0.46637,0.1568237,-46.53472,-10.37026,5.790319
9.590861797,62.0537499999999,6.908388,110.4655,1.021368,0.474639,0.1563022,-46.53472,-10.37026,5.790319
9.600749016,60.9968899999998,5.672696,107.7775,1.015556,0.4860157,0.1672993,-46.51872,-5.210609,5.328714
9.610637188,60.2508700000002,5.143113,104.784,0.9990208,0.4782932,0.1697241,-46.51872,-5.210609,5.328714
9.620524406,58.3236600000002,4.731216,100.9963,0.9993641,0.4334068,0.1641802,-46.51872,-5.210609,5.328714
9.630411625,53.66105,4.907743,97.9417700000002,0.9945617,0.4485189,0.1645793,-46.51872,-5.210609,5.328714
9.64029932,51.98251,4.790059,93.7264599999997,0.9949241,0.4164514,0.169551,-46.51872,-5.210609,5.328714
9.650187015,50.80131,3.495524,89.08352,1.01227,0.3893564,0.1836544,-46.50939,-0.04379916,5.256227
9.660074234,47.19556,5.496168,85.47913,1.016118,0.3845943,0.1913775,-46.50939,-0.04379916,5.256227
9.669961929,45.64135,8.43829199999998,83.5242000000001,0.9932668,0.3719428,0.1890109,-46.50939,-0.04379916,5.256227
9.679849148,42.28427,9.438614,80.1641800000001,0.9704318,0.3736213,0.2005185,-46.50939,-0.04379916,5.256227
9.68973732,41.10308,8.791347,75.76559,0.9553144,0.346231,0.1905404,-46.50939,-0.04379916,5.256227
9.699624538,39.92188,7.90871000000001,70.3895499999997,0.9683307,0.3303444,0.2045822,-46.49159,5.492716,4.724465
9.709511757,38.55418,8.61482000000001,66.6018799999999,0.9750035,0.2967676,0.2071641,-46.49159,5.492716,4.724465
9.719399929,36.44046,10.14472,63.1196799999997,0.9740871,0.3053836,0.1970202,-46.49159,5.492716,4.724465
9.729287147,34.38892,11.67463,60.0040099999998,0.9624792,0.3001703,0.1725063,-46.49159,5.492716,4.724465
9.739174366,34.14024,11.73347,55.8498,0.9570999,0.2929702,0.1787886,-46.49159,5.492716,4.724465
9.749062538,33.45639,11.4981,51.75668,0.9478354,0.2838011,0.1831527,-46.48151,7.375852,4.308828
9.758949757,30.96967,10.79199,47.84682,0.9308751,0.3025688,0.198428,-46.48151,7.375852,4.308828
9.771308899,26.12055,9.497457,43.38715,0.9386581,0.3064275,0.1969746,-46.48151,7.375852,4.308828
9.781197071,21.58228,8.32060700000001,39.78276,0.9478378,0.2982175,0.2027976,-46.48151,7.375852,4.308828
9.79108429,17.41701,7.26144300000002,36.17837,0.9550868,0.2934271,0.209082,-44.93942,10.28419,2.615427
9.800971985,12.69223,6.02575100000001,32.87943,0.9588821,0.2601344,0.1977125,-44.93942,10.28419,2.615427
9.810859203,10.08116,4.848901,29.5805,0.9437807,0.2430923,0.1958577,-44.93942,10.28419,2.615427
9.820746899,7.53226999999998,3.142469,27.19793,0.9228708,0.2269564,0.1887017,-44.93942,10.28419,2.615427
9.830634594,5.91589799999997,1.377194,24.81537,0.9024637,0.2171786,0.1834377,-44.93942,10.28419,2.615427
9.840521812,3.80218,-0.3880802,22.92154,0.8927485,0.2102799,0.1767287,-44.1822,12.10042,2.606951
9.850409031,1.004613,-2.03567,21.39425,0.8879106,0.2091933,0.168553,-44.1822,12.10042,2.606951
9.860297203,-2.538972,-3.094834,19.50042,0.896657,0.2125991,0.1695076,-44.1822,12.10042,2.606951
9.870184422,-5.709548,-3.683259,17.60658,0.8999793,0.1842056,0.1600364,-44.1822,12.10042,2.606951
9.880072594,-8.13410699999998,-5.154321,15.46839,0.8946009,0.1501278,0.1274999,-44.1822,12.10042,2.606951
9.889959812,-9.37747000000002,-7.39033600000002,13.88001,0.9158441,0.1174602,0.1276891,-44.56253,13.94039,2.961852
9.899847031,-8.38277900000002,-8.62602799999997,12.65818,0.9094776,0.08946493,0.1109911,-44.56253,13.94039,2.961852
9.909734726,-6.144726,-10.97973,11.8029,0.9016673,0.06736632,0.0976281,-44.56253,13.94039,2.961852
9.919622421,-3.533663,-13.68648,11.00872,0.8924292,0.06748522,0.1043499,-44.56253,13.94039,2.961852
9.92950964,-2.974149,-16.15787,10.33671,0.88908,0.08410566,0.1081095,-44.56253,13.94039,2.961852
9.939397335,-3.471495,-18.74693,9.54252199999998,0.8857456,0.1006326,0.1056175,-43.87979,13.62357,3.435972
9.949284554,-4.714858,-20.45337,8.9927,0.9157941,0.09737308,0.1196149,-43.87979,13.62357,3.435972
9.959172726,-5.709548,-21.04179,8.07632800000003,0.9177216,0.08800218,0.1119697,-43.87979,13.62357,3.435972
9.969059944,-3.96884,-24.21929,6.304678,0.9172626,0.08086945,0.0908447,-43.87979,13.62357,3.435972
9.978947163,0.5072676,-28.63247,5.021759,0.9230756,0.0859072,0.1028489,-43.87979,13.62357,3.435972
9.988835335,4.48603,-30.7508,3.494474,0.9362128,0.1011061,0.1114436,-43.89829,15.09547,4.647843
10.001194477,3.242667,-32.2807,2.150463,0.94289,0.08989498,0.1442105,-43.89829,15.09547,4.647843
10.011081696,1.253286,-33.69292,2.394829,0.9520863,0.07909202,0.1394663,-43.89829,15.09547,4.647843
10.020969868,-3.160654,-34.28135,2.45592,0.9661034,0.06649707,0.1457978,-43.89829,15.09547,4.647843
10.030857086,-2.041627,-36.22315,2.333737,0.9719844,0.06065451,0.1140933,-43.89829,15.09547,4.647843
10.040744305,4.299526,-45.93216,2.822469,0.9775039,0.09881789,0.09418894,-43.52201,14.71188,4.661727
10.050632477,9.77032399999997,-54.64085,5.021759,1.03041,0.119611,0.1239611,-43.52201,14.71188,4.661727
10.060519695,0.0720904500000002,-57.11223,9.66470500000002,1.0633,0.162576,0.2334314,-43.52201,14.71188,4.661727
10.070407391,-16.21597,-53.64053,8.07632800000003,1.039219,0.2057249,0.2173156,-43.52201,14.71188,4.661727
10.080294609,-28.4631,-35.98778,8.01523700000002,0.8777782,0.3211389,-0.09749264,-43.52201,14.71188,4.661727
10.090182304,-29.58212,-71.5874900000003,2.394829,0.7937241,0.3859505,-0.1710157,-43.94232,14.76395,7.182406
10.10007,-43.8808,-82.0025999999999,4.65521,0.8660884,0.4203686,-0.1393666,-43.94232,14.76395,7.182406
10.109957218,-75.5865600000003,-83.7090399999998,9.35924799999999,0.9533909,0.3206627,-0.05412137,-43.94232,14.76395,7.182406
10.119844437,-97.03458,-77.2951999999999,9.48143099999997,0.9946298,0.1719823,-0.05861329,-43.94232,14.76395,7.182406
10.129732609,-94.6722000000002,-66.8212400000002,3.494474,1.012696,0.05340921,-0.07194026,-43.94232,14.76395,7.182406
10.139619827,-80.1870100000001,-65.9386100000001,-4.630681,1.028291,-0.06736368,-0.06986947,-43.24594,15.57226,10.62616
10.149507999,-63.7746200000002,-69.5280000000001,-9.151444,1.08939,-0.1491497,0.03785869,-43.24594,15.57226,10.62616
10.159395218,-59.7336800000002,-67.5861999999999,-7.37979399999998,1.164404,-0.2389015,0.2009488,-43.24594,15.57226,10.62616
10.169282436,-59.9201899999999,-56.70034,1.417367,1.188752,-0.3189925,0.2542826,-43.24594,15.57226,10.62616
10.179170132,-52.58434,-45.69679,4.594119,1.167974,-0.3120713,0.2258496,-43.24594,15.57226,10.62616
10.189057827,-39.46686,-38.16496,1.050818,1.233008,-0.312658,0.2278502,-42.93593,14.88102,14.47166
10.198945522,-18.14318,-23.57202,-2.125934,1.272504,-0.2780495,0.2027124,-42.93593,14.88102,14.47166
10.208832741,2.434481,-7.86107600000001,-3.836493,1.250926,-0.2348859,0.1553394,-42.93593,14.88102,14.47166
10.22119236,10.08116,3.024784,-3.592128,1.149112,-0.1185447,0.07336011,-42.93593,14.88102,14.47166
10.231080055,6.288907,3.083626,-2.431391,1.084603,-0.01129928,0.006858622,-42.93593,14.88102,14.47166
10.240967274,1.999303,2.671729,-1.392838,1.021806,0.0431528,-0.04013729,-41.82685,14.50906,15.73491
10.250854492,-2.041627,1.082982,-1.392838,0.9865516,0.09285544,-0.04283314,-41.82685,14.50906,15.73491
10.260742664,-5.087867,0.3180296,-2.309208,0.9680554,0.08326802,-0.03511099,-41.82685,14.50906,15.73491
10.270629883,-7.38808899999998,0.1415022,-3.286671,0.9689105,0.06608121,-0.01193895,-41.82685,14.50906,15.73491
10.280517101,-5.83388499999998,0.965297,-4.14195,0.9689568,0.05832394,-0.04219773,-41.82685,14.50906,15.73491
10.290405274,-0.922600200000001,0.1415022,-5.424869,0.951991,0.05274219,-0.05950197,-42.20381,14.51458,15.72633
10.300292492,4.050853,-3.153677,-5.302687,0.9420625,0.09836784,-0.1035076,-42.20381,14.51458,15.72633
10.310180187,2.931826,-6.21348599999998,-6.95215400000001,0.9285357,0.1328262,-0.08061294,-42.20381,14.51458,15.72633
10.320067883,-2.663309,-9.80287800000002,-7.01324599999999,0.9116085,0.1493944,-0.08215867,-42.20381,14.51458,15.72633
10.329955101,-12.48588,-14.92217,-7.86852500000001,0.9255254,0.1200152,-0.05842925,-42.20381,14.51458,15.72633
10.339842796,-18.57836,-16.56976,-7.19651999999998,0.9785889,0.04932604,-0.02386631,-41.8281,13.81595,15.74463
10.349730015,-19.20004,-14.62796,-7.37979399999998,1.005953,-0.01201712,0.01350572,-41.8281,13.81595,15.74463
10.359617233,-15.34561,-11.2151,-6.891063,1.036771,-0.0697447,0.0325884,-41.8281,13.81595,15.74463
10.369505406,-10.12349,-7.33149300000002,-6.64669700000003,1.050731,-0.09889583,0.03900355,-41.8281,13.81595,15.74463
10.379392624,-5.460876,-2.682937,-5.608143,1.064876,-0.09637593,0.01399901,-41.8281,13.81595,15.74463
10.389280796,2.372312,0.3768721,-4.264133,1.060897,-0.03214482,-0.05510181,-42.21284,13.82983,16.19002
10.399168015,9.64598800000001,1.494879,-4.264133,1.038885,0.04701991,-0.07235911,-42.21284,13.82983,16.19002
10.409055233,8.96213800000002,0.2003446,-4.508498,1.01756,0.07423255,-0.04655114,-42.21284,13.82983,16.19002
10.418943405,4.921207,-1.506087,-3.225579,1.010841,0.08322468,-0.06487923,-42.21284,13.82983,16.19002
10.431302548,0.631603899999999,-4.977794,-1.637203,1.019945,0.06852103,-0.03738207,-42.21284,13.82983,16.19002
10.441189766,-0.922600200000001,-3.977472,-1.026289,1.02853,0.04607753,-0.006479947,-41.08333,13.05713,16.22637
10.451077938,-1.171273,-0.6234501,-1.392838,1.02846,0.04004927,0.01374912,-41.08333,13.05713,16.22637
10.460965157,-1.730786,1.259509,-1.637203,1.025531,0.02821727,0.003706239,-41.08333,13.05713,16.22637
10.470852852,-3.28499,2.730572,-1.026289,1.019674,0.02445547,0.01189425,-41.08333,13.05713,16.22637
10.48074007,-5.709548,4.613531,-0.4764667,1.013829,0.02360096,0.01910574,-41.08333,13.05713,16.22637
10.490627289,-5.212203,6.26111999999998,-0.2931925,1.014883,0.01909218,-0.02174857,-41.83793,12.69012,16.21452
10.500515461,1.004613,5.378483,0.928635399999997,0.9994966,0.02765569,-0.06990144,-41.83793,12.69012,16.21452
10.51040268,5.045544,4.142791,0.3177214,0.9878217,0.02087584,-0.06891862,-41.83793,12.69012,16.21452
10.520289898,7.097093,3.201311,-0.2321011,0.9868522,0.01589322,-0.07658928,-41.83793,12.69012,16.21452
10.53017807,9.58381899999998,4.378161,-1.453929,0.9995235,0.02300708,-0.087672,-41.83793,12.69012,16.21452
10.540065289,9.52165100000002,3.730894,-1.270655,1.013552,0.02676186,-0.06266713,-41.84391,13.07534,16.59833
10.549953461,9.33514699999999,3.966264,-1.453929,1.005288,0.03482102,-0.04588502,-41.84391,13.07534,16.59833
10.559840679,9.08647399999999,4.848901,-2.553574,1.004282,0.0425083,-0.02043619,-41.84391,13.07534,16.59833
10.569727898,9.08647399999999,6.02575100000001,-3.592128,1.000947,0.05157283,-0.03347066,-41.84391,13.07534,16.59833
10.579615593,8.83780200000001,5.201956,-3.164488,0.9956456,0.06130073,-0.03496861,-41.84391,13.07534,16.59833
10.589502811,8.65129700000001,3.613209,-2.79794,0.9869042,0.06234224,-0.03161737,-42.20574,13.44341,15.74136
10.599390983,8.52696000000002,2.142147,-1.087381,0.9932452,0.07158896,-0.03117596,-42.20574,13.44341,15.74136
10.609278202,8.65129700000001,1.024139,-0.1099183,1.003029,0.0865141,-0.0413396,-42.20574,13.44341,15.74136
10.61916542,7.28359699999998,0.906454499999998,-0.659740900000002,1.015205,0.1061334,-0.03036371,-42.20574,13.44341,15.74136
10.629053593,6.84842,1.024139,-2.553574,1.028865,0.1220895,-0.03619986,-42.20574,13.44341,15.74136
10.638940811,7.097093,2.612886,-4.508498,1.042796,0.08714533,-0.02638902,-42.20711,12.68729,15.75196
10.651299953,7.53226999999998,5.96690800000001,-5.73032600000002,1.037828,0.05403535,-0.02670827,-42.20711,12.68729,15.75196
10.661188126,8.52696000000002,6.73185999999997,-7.074337,1.045611,0.05242252,-0.03582877,-42.20711,12.68729,15.75196
10.671075344,8.09178400000001,7.49681300000002,-7.50197599999999,1.060678,0.06221803,-0.03009009,-42.20711,12.68729,15.75196
10.680962562,6.66191600000002,7.73218199999999,-5.608143,1.050085,0.09155662,-0.0235175,-42.20044,12.68013,15.36285
10.690850735,4.859039,7.32028499999999,-5.424869,1.047242,0.1105317,-0.02505938,-42.20044,12.68013,15.36285
10.700737953,1.688463,5.613853,-4.019767,1.049137,0.1033603,-0.01588349,-42.20044,12.68013,15.36285
10.710625648,1.191117,3.318996,-4.875047,1.051898,0.07047232,-0.0003246783,-42.20044,12.68013,15.36285
10.720512867,3.553508,3.907421,-5.547052,1.087952,-0.01348902,0.02370573,-42.20044,12.68013,15.36285
10.730400562,9.02430599999998,6.08459299999998,-4.203042,1.090707,-0.06524778,0.01483292,-42.57603,13.44178,15.34366
10.740288258,16.73316,9.262087,-4.386316,1.100348,-0.08823258,0.009669898,-42.57603,13.44178,15.34366
10.750175476,22.14179,15.20518,0.1344473,1.122968,-0.1333408,0.02483212,-42.57603,13.44178,15.34366
10.760063648,28.04776,18.1473,0.25663,1.062721,-0.02443964,0.004495539,-42.57603,13.44178,15.34366
10.769950867,30.16148,19.73605,-1.270655,1.032846,0.02400527,-0.01646284,-42.57603,13.44178,15.34366
10.779838085,29.10462,19.55952,-0.4153753,1.009117,0.04262097,-0.01225561,-42.93923,13.05373,14.4973
10.789726257,28.54511,19.02994,0.989726799999999,1.003803,0.04446424,-0.0199657,-42.93923,13.05373,14.4973
10.799613476,31.15617,19.73605,0.745361200000002,1.009884,-0.01133137,-0.005249201,-42.93923,13.05373,14.4973
10.809500694,37.06215,20.97174,0.562087,1.01078,-0.02977254,-0.0008267029,-42.93923,13.05373,14.4973
10.81938839,41.53825,24.38461,3.494474,1.01499,-0.06958856,0.007554945,-42.93923,13.05373,14.4973
10.829276085,46.26303,25.91451,4.899576,0.9803605,0.008097136,-0.01259476,-42.92435,12.65897,13.59466
10.83916378,49.74445,25.32608,2.761377,0.986315,0.05354428,-0.001275547,-42.92435,12.65897,13.59466
10.849050999,51.36082,26.67946,2.45592,1.013958,0.06608039,0.02658596,-42.92435,12.65897,13.59466
10.858938217,52.23118,29.32737,1.173001,1.024613,0.06719859,0.03765361,-42.92435,12.65897,13.59466
10.871298313,53.22587,33.56403,-1.148472,1.016353,0.05034947,0.01704975,-42.92435,12.65897,13.59466
10.881185532,52.66636,35.68237,0.3177214,1.012384,0.02850926,0.02148389,-42.8881,12.99884,11.51407
10.89107275,53.28804,33.0933,0.928635399999997,0.9949988,0.05137276,0.01750122,-42.8881,12.99884,11.51407
10.900960922,54.40707,32.38718,1.722824,1.001311,0.06079926,0.02996471,-42.8881,12.99884,11.51407
10.910848141,56.52078,33.0933,2.272646,0.9849097,0.08656813,0.02500663,-42.8881,12.99884,11.51407
10.920736313,57.0803,31.97529,3.799931,0.9791335,0.1021979,0.02732569,-42.8881,12.99884,11.51407
10.930623531,57.14246,30.7396,4.960668,0.9704502,0.1232761,0.03538496,-43.23218,15.17869,9.788375
10.94051075,57.0803,29.9158,3.555565,0.9776602,0.1207212,0.06089488,-43.23218,15.17869,9.788375
10.950398445,58.2614899999999,30.68075,-0.3542839,0.9603166,0.1537746,0.05445616,-43.23218,15.17869,9.788375
10.96028614,58.2614899999999,35.91773,-5.91360000000002,0.9747826,0.1424043,0.07761427,-43.23218,15.17869,9.788375
10.970173836,55.46392,38.38912,-9.88454100000001,0.9893368,0.1513779,0.09345587,-43.23218,15.17869,9.788375
10.980061054,52.29335,40.97819,-9.57908399999997,0.9811795,0.162743,0.07078587,-43.1902,14.37603,7.269724
10.989948273,48.93627,38.62449,-9.94563200000002,0.9725202,0.1796883,0.06299566,-43.1902,14.37603,7.269724
10.999836445,45.70352,36.03542,-11.35073,0.9647909,0.184945,0.05526558,-43.1902,14.37603,7.269724
11.009723663,42.59511,34.74088,-12.3282,0.9323017,0.1952639,0.05710017,-43.1902,14.37603,7.269724
11.019610882,39.3002,33.62288,-12.57256,0.9239056,0.1673322,0.07694954,-43.1902,14.37603,7.269724
11.029499054,37.24865,32.91677,-13.12239,0.915614,0.1601377,0.08322844,-43.90675,14.72576,5.107117
11.039386272,36.68914,32.56371,-15.56604,0.9218338,0.1462627,0.1006188,-43.90675,14.72576,5.107117
11.049273968,36.68914,33.32866,-16.6046,0.9295816,0.1473579,0.1097596,-43.90675,14.72576,5.107117
11.059161663,36.19179,33.03445,-18.55952,0.9544059,0.1617951,0.1015392,-43.90675,14.72576,5.107117
11.069048882,35.50794,32.38718,-20.45335,0.9676107,0.1760684,0.08080246,-43.90675,14.72576,5.107117
11.078936577,33.89157,32.44603,-21.553,0.9670557,0.1496376,0.07179789,-44.19865,14.7065,3.802911
11.091296196,30.53449,29.68043,-19.90353,0.934578,0.1519208,0.05732179,-44.19865,14.7065,3.802911
11.101183414,28.85595,28.50358,-19.47589,0.9257676,0.1424509,0.07419186,-44.19865,14.7065,3.802911
11.11107111,30.41015,25.97335,-19.10934,0.9441395,0.1269472,0.08198583,-44.19865,14.7065,3.802911
11.120958328,32.4617,23.73734,-17.88751,0.9707514,0.1319027,0.1238312,-44.19865,14.7065,3.802911
11.1308465,34.32675,24.14923,-18.55952,0.9936442,0.1532473,0.1213447,-44.17822,14.30577,2.576011
11.140733719,36.00529,24.09039,-18.31516,0.9994555,0.1528207,0.1261627,-44.17822,14.30577,2.576011
11.150620937,35.50794,22.73701,-18.07079,0.9951634,0.1697646,0.1188584,-44.17822,14.30577,2.576011
11.16050911,33.26989,20.32447,-18.37625,0.9918553,0.1861262,0.1053062,-44.17822,14.30577,2.576011
11.170396328,32.83471,17.20582,-18.92607,0.9831421,0.1949516,0.1081372,-44.17822,14.30577,2.576011
11.180284023,32.33737,16.49971,-17.88751,0.9724888,0.215218,0.1267786,-44.15656,13.96685,1.283375
11.190171719,30.72099,15.14634,-17.03223,0.9559522,0.2229288,0.1517287,-44.15656,13.96685,1.283375
11.200058937,28.66945,12.79264,-16.91005,0.9308093,0.2437664,0.1414955,-44.15656,13.96685,1.283375
11.209946632,27.17741,10.61546,-17.21551,0.9220763,0.2472426,0.1448344,-44.15656,13.96685,1.283375
11.219833851,25.93405,9.32093,-18.19297,0.9268721,0.2301827,0.1444452,-44.15656,13.96685,1.283375
11.229722023,24.69068,8.02639499999998,-18.62061,0.923568,0.241044,0.1213023,-45.2617,12.81942,-0.3477733
11.239609242,22.45263,7.26144300000002,-19.04825,0.9177613,0.2538815,0.132292,-45.2617,12.81942,-0.3477733
11.24949646,19.40639,7.43797000000002,-19.17043,0.9012696,0.2637968,0.1418416,-45.2617,12.81942,-0.3477733
11.259384632,13.74909,7.143758,-18.37625,0.8775844,0.2881049,0.1359208,-45.2617,12.81942,-0.3477733
11.269271851,6.16457000000001,5.319641,-17.33769,0.8654777,0.2944232,0.1334705,-45.2617,12.81942,-0.3477733
11.279159069,-1.295609,2.730572,-16.84896,0.8891937,0.2843517,0.1470141,-44.87165,12.04226,-1.171672
11.289047241,-6.26906200000001,0.0826596800000002,-15.74932,0.9216056,0.2571047,0.1529597,-44.87165,12.04226,-1.171672
11.29893446,-9.253134,-1.56493,-14.03876,0.9651168,0.2053589,0.1503852,-44.87165,12.04226,-1.171672
11.311294079,-11.61552,-2.212197,-11.16746,0.9795178,0.1511064,0.1391336,-44.87165,12.04226,-1.171672
11.321181774,-10.99384,-2.977149,-9.090353,0.9920847,0.1295192,0.1301195,-44.87165,12.04226,-1.171672
11.331068993,-9.00446099999999,-3.859787,-6.95215400000001,1.003245,0.1419585,0.1493061,-45.2493,11.66973,-1.174948
11.340956688,-7.26375199999999,-4.624739,-4.630681,1.007614,0.14692,0.1560189,-45.2493,11.66973,-1.174948
11.350843906,-6.144726,-5.389691,-2.003752,1.005202,0.1537996,0.1598288,-45.2493,11.66973,-1.174948
11.360731602,-6.20689400000001,-6.743068,0.0733558600000001,0.9882721,0.1688925,0.1573287,-45.2493,11.66973,-1.174948
11.370619297,-6.02038900000001,-7.97876099999998,1.539549,0.9877803,0.1734127,0.1664428,-45.2493,11.66973,-1.174948
11.380506516,-5.83388499999998,-7.97876099999998,2.822469,0.9974543,0.169126,0.1741702,-45.64931,10.62676,0.06370354
11.390394688,-5.087867,-6.743068,3.738839,0.9920995,0.1632644,0.17227,-45.64931,10.62676,0.06370354
11.400281906,-3.906672,-5.154321,4.227571,0.9780592,0.1715272,0.1693268,-45.64931,10.62676,0.06370354
11.410169125,-3.160654,-4.389369,4.777393,0.969367,0.1846992,0.1697312,-45.64931,10.62676,0.06370354
11.420057297,-3.28499,-4.153999,5.266125,0.9689451,0.2056964,0.173472,-45.64931,10.62676,0.06370354
11.429944515,-3.595831,-3.859787,5.266125,0.9873966,0.2160657,0.1854636,-45.2579,10.60572,-0.770803
11.439832211,-3.533663,-3.506732,5.143942,0.9854981,0.2227645,0.177252,-45.2579,10.60572,-0.770803
11.449719429,-3.906672,-3.506732,4.960668,0.979247,0.2353441,0.1709293,-45.2579,10.60572,-0.770803
11.459607124,-5.83388499999998,-4.330527,4.838485,0.9696215,0.2512671,0.1597767,-45.2579,10.60572,-0.770803
11.46949482,-7.63676199999999,-4.153999,3.983205,0.9579979,0.2595898,0.1611642,-45.2579,10.60572,-0.770803
11.479382038,-9.68831099999998,-3.742102,2.88356,0.9385807,0.2546652,0.154915,-44.88747,11.30166,-0.3179772
11.48927021,-11.61552,-2.859464,1.722824,0.9235153,0.2513295,0.1578003,-44.88747,11.30166,-0.3179772
11.499157429,-12.92105,-2.682937,0.0733558600000001,0.9298303,0.2527778,0.1578002,-44.88747,11.30166,-0.3179772
11.509044647,-13.16973,-2.153355,-1.94266,0.9307684,0.2420343,0.1559318,-44.88747,11.30166,-0.3179772
11.518932819,-12.79672,-2.27104,-4.14195,0.9482754,0.2422854,0.1424847,-44.88747,11.30166,-0.3179772
11.531291962,-12.17504,-2.50641,-7.01324599999999,0.951743,0.2617421,0.1414285,-45.64806,11.31987,0.0539794
11.54117918,-12.54805,-2.329882,-9.57908399999997,0.9430761,0.2842093,0.1446715,-45.64806,11.31987,0.0539794
11.551067352,-14.72393,-2.859464,-12.45038,0.9339397,0.3085677,0.1440571,-45.64806,11.31987,0.0539794
11.560954571,-17.08632,-3.094834,-15.26058,0.9257299,0.3252409,0.1506964,-45.64806,11.31987,0.0539794
11.570842266,-19.13787,-3.977472,-18.80388,0.912646,0.3370757,0.1587974,-44.90192,11.31717,0.5251092
11.580729484,-20.81641,-4.918952,-23.63011,0.9088471,0.3599411,0.1567538,-44.90192,11.31717,0.5251092
11.59061718,-23.24097,-5.095479,-29.3727,0.9075081,0.395033,0.1584987,-44.90192,11.31717,0.5251092
11.600504875,-26.66022,-5.095479,-35.84838,0.9071819,0.4378205,0.1539538,-44.90192,11.31717,0.5251092
11.610392094,-29.58212,-5.036636,-42.50735,0.894631,0.4553252,0.1504846,-44.90192,11.31717,0.5251092
11.620280266,-30.82549,-5.507376,-48.61649,0.8898599,0.4841725,0.1575472,-45.28013,10.62959,0.5262532
11.630167484,-33.56089,-5.97811599999998,-54.35908,0.8864682,0.4781705,0.1465125,-45.28013,10.62959,0.5262532
11.640054703,-33.49872,-6.566541,-60.8958500000001,0.8849611,0.4511252,0.1288534,-45.28013,10.62959,0.5262532
11.649942875,-34.3069,-6.21348599999998,-67.1271699999999,0.869894,0.4338672,0.1125722,-45.28013,10.62959,0.5262532
11.659830093,-35.36376,-6.03695899999998,-73.4806800000002,0.8646607,0.4516215,0.09420148,-45.28013,10.62959,0.5262532
11.669717789,-35.4881,-6.331171,-79.7730899999998,0.8704927,0.4500701,0.08892583,-46.0508,8.764662,1.313847
11.679605007,-35.11509,-6.331171,-86.3709599999999,0.8870701,0.4684767,0.08452337,-46.0508,8.764662,1.313847
11.689492702,-35.11509,-6.566541,-92.78556,0.902183,0.4919139,0.09067409,-46.0508,8.764662,1.313847
11.699380398,-34.99075,-6.44885599999998,-98.8947000000002,0.9075682,0.5115179,0.09971866,-46.0508,8.764662,1.313847
11.709267616,-35.11509,-6.62538299999997,-105.4315,0.9516199,0.4872918,0.1138379,-46.0508,8.764662,1.313847
11.719155788,-36.04761,-7.39033600000002,-110.0744,0.9313579,0.5129246,0.09925767,-46.06393,5.811551,1.809365
11.729043007,-35.55027,-8.62602799999997,-114.6563,0.9352363,0.515932,0.1054989,-46.06393,5.811551,1.809365
11.738930225,-34.67991,-9.27329500000003,-118.5661,0.9478797,0.5227243,0.1054789,-46.06393,5.811551,1.809365
11.751290321,-35.61243,-8.979083,-122.0483,0.982293,0.5244551,0.1281126,-46.06393,5.811551,1.809365
11.76117754,-35.92327,-8.44950099999998,-123.5756,0.9842487,0.5228682,0.1199472,-46.06393,5.811551,1.809365
11.771064758,-35.98544,-8.21413099999998,-124.9807,1.003191,0.5351914,0.1324104,-47.1473,1.045617,2.241355
11.78095293,-36.48279,-7.80223399999999,-125.0418,1.004194,0.5324959,0.115112,-47.1473,1.045617,2.241355
11.790840149,-36.91796,-8.861399,-124.1254,1.007624,0.5312923,0.1002134,-47.1473,1.045617,2.241355
11.800727844,-37.41531,-10.56783,-122.7814,1.005727,0.5484328,0.1063766,-47.1473,1.045617,2.241355
11.810615063,-38.16133,-11.56815,-120.7654,0.9950532,0.5464342,0.1015654,-47.1473,1.045617,2.241355
11.820502758,-38.03699,-12.92153,-119.177,0.9814754,0.5558352,0.1096781,-46.8557,-3.417176,3.154356
11.830390453,-39.90204,-13.80417,-116.8556,0.9634927,0.5694571,0.138925,-46.8557,-3.417176,3.154356
11.840277672,-42.20226,-13.86301,-114.1675,0.9484854,0.5841671,0.1436428,-46.8557,-3.417176,3.154356
11.850165844,-43.8808,-14.6868,-110.7464,0.9212573,0.5646135,0.1350541,-46.8557,-3.417176,3.154356
11.860053062,-44.50248,-15.80481,-107.2031,0.8862935,0.5498583,0.1206612,-46.8557,-3.417176,3.154356
11.869940281,-45.2485,-16.92282,-104.454,0.8712872,0.5541124,0.1100424,-46.85973,-9.347263,2.848335
11.879828453,-45.18633,-17.98198,-101.766,0.8441123,0.5576108,0.1123984,-46.85973,-9.347263,2.848335
11.889715672,-44.81332,-18.74693,-100.1776,0.8203313,0.554657,0.1070962,-46.85973,-9.347263,2.848335
11.899603367,-44.81332,-19.51189,-98.6503300000001,0.8014398,0.5693818,0.1122904,-46.85973,-9.347263,2.848335
11.909490585,-44.19164,-20.15915,-97.3674200000002,0.7869139,0.580632,0.1136598,-46.85973,-9.347263,2.848335
11.919378281,-42.6996,-20.218,-96.87868,0.768007,0.5835119,0.1083337,-44.98957,-13.77842,3.342232
11.929265976,-40.08854,-20.39453,-96.5121299999997,0.7403911,0.602157,0.1139791,-44.98957,-13.77842,3.342232
11.939153194,-38.28567,-20.33568,-96.3288600000003,0.7234823,0.6340362,0.1267836,-44.98957,-13.77842,3.342232
11.949041367,-36.91796,-20.98295,-95.96231,0.702225,0.6613187,0.1246979,-44.98957,-13.77842,3.342232
11.958928585,-36.04761,-22.27748,-95.9012200000002,0.6790022,0.6773117,0.116415,-44.98957,-13.77842,3.342232
11.971287727,-37.91265,-24.5135,-96.2066800000001,0.6679586,0.7158888,0.1219786,-43.19081,-18.64138,4.294857
11.9811759,-39.71553,-27.2791,-97.3674200000002,0.6607461,0.7338843,0.1194749,-43.19081,-18.64138,4.294857
11.991063118,-40.89673,-29.33858,-98.1616000000002,0.6796397,0.7395485,0.1425519,-43.19081,-18.64138,4.294857
12.000950336,-41.58058,-29.80932,-99.0168799999998,0.6878462,0.7363322,0.1565242,-43.19081,-18.64138,4.294857
12.010838509,-42.82394,-29.75048,-99.2612499999999,0.6781677,0.7550782,0.171327,-43.19081,-18.64138,4.294857
12.020725727,-43.69429,-28.92669,-98.5281499999999,0.6524038,0.7469156,0.1756673,-42.80737,-23.07311,3.52223
12.030613422,-44.06731,-28.51479,-98.2837799999999,0.6397306,0.7462832,0.1968166,-42.80737,-23.07311,3.52223
12.040500641,-45.062,-28.86784,-97.1841399999999,0.6334826,0.7668049,0.2005532,-42.80737,-23.07311,3.52223
12.050388336,-45.43501,-30.22122,-95.9012200000002,0.6325001,0.7788244,0.2226137,-42.80737,-23.07311,3.52223
12.060276032,-46.86487,-31.04501,-94.43503,0.6484972,0.7739449,0.2240993,-42.80737,-23.07311,3.52223
12.07016325,-48.23257,-30.69196,-92.78556,0.6431183,0.7682343,0.2322977,-39.87636,-27.19653,4.489986
12.080051422,-50.34629,-30.69196,-91.1360900000001,0.6343907,0.768194,0.2284406,-39.87636,-27.19653,4.489986
12.089938641,-52.64651,-31.10386,-89.1200800000001,0.6188852,0.7745262,0.2264673,-39.87636,-27.19653,4.489986
12.099825859,-56.12793,-31.51575,-86.3709599999999,0.5892665,0.7711689,0.2259696,-39.87636,-27.19653,4.489986
12.109714031,-58.36598,-32.63376,-84.2938499999999,0.5654325,0.7536212,0.2217029,-39.87636,-27.19653,4.489986
12.11960125,-61.1013799999998,-33.28103,-82.4611099999999,0.564427,0.7543401,0.2370876,-38.37455,-30.55816,4.571158
12.129488945,-61.97174,-33.04566,-81.36147,0.5720958,0.7330429,0.2468224,-38.37455,-30.55816,4.571158
12.139376164,-60.8527100000001,-31.69228,-78.9178199999999,0.5670624,0.6923864,0.2628925,-38.37455,-30.55816,4.571158
12.149263859,-59.2363400000001,-30.39775,-77.1461600000001,0.5670133,0.6792603,0.2644015,-38.37455,-30.55816,4.571158
12.159151554,-56.93612,-27.86752,-75.3745099999999,0.5679561,0.6789369,0.2754654,-38.37455,-30.55816,4.571158
12.169038773,-55.38191,-25.21961,-73.2363100000001,0.5543754,0.6774095,0.2692057,-35.40786,-34.65675,3.462741
12.178926945,-56.50094,-24.16044,-70.8537499999999,0.5156217,0.6884486,0.2532355,-35.40786,-34.65675,3.462741
12.191286087,-55.56841,-26.0434,-67.1882600000003,0.4864988,0.6994563,0.2690171,-35.40786,-34.65675,3.462741
12.201173306,-53.33036,-26.21993,-64.5002400000002,0.4829529,0.6745229,0.2946279,-35.40786,-34.65675,3.462741
12.211061478,-52.33567,-26.4553,-60.8347600000003,0.4538286,0.6740935,0.294597,-35.40786,-34.65675,3.462741
12.220948696,-52.58434,-27.39678,-56.25291,0.4662735,0.6264054,0.2986995,-33.19846,-36.90984,2.700644
12.230835915,-52.83302,-26.33762,-52.15979,0.4904033,0.595387,0.3118685,-33.19846,-36.90984,2.700644
12.240724087,-49.66244,-23.92507,-48.37212,0.4783182,0.6025642,0.3017192,-33.19846,-36.90984,2.700644
12.250611305,-44.62682,-24.1016,-46.96702,0.4699514,0.5639966,0.2942098,-33.19846,-36.90984,2.700644
12.260499001,-32.19318,-24.33697,-42.38516,0.4046555,0.5100042,0.3223018,-33.19846,-36.90984,2.700644
12.270386219,-27.84141,-25.57266,-43.5459,0.4747736,0.5870769,0.3402671,-30.60623,-39.61669,1.564199
12.280274391,-30.39031,-18.45272,-34.44328,0.4687867,0.686069,0.3484166,-30.60623,-39.61669,1.564199
12.29016161,-28.89827,-14.86333,-29.49488,0.4381119,0.6464279,0.3312689,-30.60623,-39.61669,1.564199
12.300048828,-22.30845,-16.09902,-26.31813,0.421848,0.5982538,0.3641965,-30.60623,-39.61669,1.564199
12.309937,-16.89982,-15.21639,-21.85846,0.4179178,0.5930849,0.3762411,-30.60623,-39.61669,1.564199
12.319824219,-13.66707,-14.33375,-18.07079,0.4078391,0.6182609,0.3650413,-28.77174,-40.73008,0.7776107
12.329711914,-10.4965,-14.21606,-14.64967,0.3976622,0.6181803,0.3582972,-28.77174,-40.73008,0.7776107
12.339599609,-4.279681,-14.27491,-11.28964,0.4072714,0.6123127,0.3905595,-28.77174,-40.73008,0.7776107
12.349486828,3.056162,-12.03889,-8.05179900000001,0.439725,0.6121714,0.4180096,-28.77174,-40.73008,0.7776107
12.359374523,9.956828,-7.62570600000002,-3.836493,0.4639302,0.6065534,0.4363405,-28.77174,-40.73008,0.7776107
12.369261742,14.05993,-3.565574,0.1955387,0.4664242,0.6275232,0.438642,-28.39683,-41.86978,0.8021027
12.379149914,16.36015,-0.2703952,2.88356,0.4597273,0.6642374,0.4504719,-28.39683,-41.86978,0.8021027
12.389037132,17.54134,3.318996,5.388307,0.4593677,0.6997712,0.4493301,-28.39683,-41.86978,0.8021027
12.398924351,18.03869,5.437326,7.89305399999997,0.4409297,0.6992704,0.4459452,-28.39683,-41.86978,0.8021027
12.411284447,18.53604,7.143758,11.68072,0.4278684,0.7005125,0.4295727,-28.40281,-41.48456,1.185915
12.421171665,17.97652,8.43829199999998,14.97966,0.4177567,0.7054935,0.4030854,-28.40281,-41.48456,1.185915
12.431058884,17.35484,8.43829199999998,18.76732,0.4289524,0.6983019,0.3795694,-28.40281,-41.48456,1.185915
12.440947056,18.16303,8.49713400000001,22.31062,0.4294276,0.6799531,0.3575403,-28.40281,-41.48456,1.185915
12.450834274,20.77409,9.026717,25.36519,0.4317929,0.6484889,0.3379842,-28.40281,-41.48456,1.185915
12.46072197,24.69068,10.02704,28.35867,0.4457808,0.6221443,0.3366905,-28.41795,-41.84711,2.034306
12.470609665,30.03715,11.32157,31.04669,0.4641276,0.5933636,0.3358949,-28.41795,-41.84711,2.034306
12.480496884,36.31613,14.55791,34.40672,0.4781482,0.5797516,0.3393461,-28.41795,-41.84711,2.034306
12.490384579,42.2221,18.38267,37.46129,0.4961926,0.5916165,0.3210316,-28.41795,-41.84711,2.034306
12.500271797,46.76038,22.08975,40.39367,0.506003,0.6158296,0.3132257,-28.41795,-41.84711,2.034306
12.510159969,50.49047,25.03187,43.32606,0.4882515,0.6608347,0.2918176,-29.19025,-40.30115,3.228133
12.520047188,51.36082,26.85599,46.44172,0.471449,0.7099564,0.2852983,-29.19025,-40.30115,3.228133
12.529934406,50.92565,27.50326,48.88538,0.4545447,0.7388206,0.2918661,-29.19025,-40.30115,3.228133
12.539822579,50.55264,27.38557,51.69558,0.4617787,0.7371101,0.3087152,-29.19025,-40.30115,3.228133
12.549709797,50.55264,27.67978,54.32251,0.4709895,0.7361683,0.3120969,-29.19025,-40.30115,3.228133
12.559597492,49.43361,27.73863,56.82726,0.4821267,0.7268583,0.309752,-30.63527,-40.27996,3.195243
12.569485187,48.81193,28.32705,58.9043699999999,0.4966854,0.718386,0.2987502,-30.63527,-40.27996,3.195243
12.579372883,48.50109,30.3277,61.77566,0.5044728,0.7107716,0.2790797,-30.63527,-40.27996,3.195243
12.589260101,48.99844,31.8576,64.5247800000002,0.4997058,0.7186925,0.2545073,-30.63527,-40.27996,3.195243
12.59914732,50.30397,32.03413,66.7240699999999,0.5177312,0.7237114,0.2343038,-30.63527,-40.27996,3.195243
12.609035492,52.85286,32.03413,68.7400799999998,0.5420662,0.7346906,0.2227339,-32.84535,-38.40493,3.962644
12.61892271,54.65574,32.50487,70.2673700000001,0.5557624,0.7583803,0.2130113,-32.84535,-38.40493,3.962644
12.631281853,53.66105,32.6814,71.3059200000003,0.5584055,0.7938343,0.1743615,-32.84535,-38.40493,3.962644
12.641170025,52.54202,31.56339,72.5277500000002,0.5545305,0.7927962,0.1695531,-32.84535,-38.40493,3.962644
12.651057243,51.36082,30.85728,73.6884799999999,0.546797,0.8085304,0.1786023,-32.84535,-38.40493,3.962644
12.660945415,51.42299,30.85728,74.2383099999999,0.5409089,0.7999855,0.1925855,-34.36161,-35.02779,4.724559
12.670832634,52.79069,31.68107,75.0325000000003,0.539879,0.7829442,0.1926704,-34.36161,-35.02779,4.724559
12.680719852,53.97189,31.50455,76.0710499999999,0.5427279,0.7569649,0.1817438,-34.36161,-35.02779,4.724559
12.690607548,53.72321,30.79844,77.0485199999999,0.5514755,0.7553861,0.1750288,-34.36161,-35.02779,4.724559
12.700495243,52.66636,29.9158,76.92633,0.5646799,0.7641879,0.146625,-34.36161,-35.02779,4.724559
12.710382938,51.73383,28.68011,76.0710499999999,0.5831277,0.7661208,0.1480789,-36.56434,-32.78186,5.097538
12.720270157,51.48516,27.85631,75.7045099999999,0.6098373,0.7724487,0.1514438,-36.56434,-32.78186,5.097538
12.730157375,50.17963,27.50326,75.7045099999999,0.6404245,0.7738275,0.1500289,-36.56434,-32.78186,5.097538
12.740045547,48.81193,28.20937,76.4987000000002,0.6690646,0.7692733,0.1423897,-36.56434,-32.78186,5.097538
12.749932766,48.43892,28.62126,77.2928799999997,0.6788063,0.7690384,0.1279743,-36.56434,-32.78186,5.097538
12.759820938,48.12808,29.20969,78.0870700000001,0.6720763,0.7770998,0.1125364,-38.38096,-29.79368,5.01452
12.769708157,48.06591,29.092,78.5758,0.6619366,0.7827548,0.09854964,-38.38096,-29.79368,5.01452
12.779595852,48.25241,27.26789,79.0034400000001,0.6508014,0.786579,0.09226567,-38.38096,-29.79368,5.01452
12.78948307,48.8741,24.61997,79.1867100000001,0.6478537,0.7887986,0.1100452,-38.38096,-29.79368,5.01452
12.799370766,48.8741,22.4428,79.1256200000003,0.6487848,0.7850664,0.1211263,-38.38096,-29.79368,5.01452
12.809258461,47.63073,19.97142,79.4310800000001,0.6564559,0.7647504,0.131337,-40.25973,-26.42653,4.924768
12.819145679,45.82786,18.67688,79.4310800000001,0.6849709,0.7415792,0.1487997,-40.25973,-26.42653,4.924768
12.829033852,44.27365,16.73508,78.3925200000003,0.7184,0.7160264,0.1379056,-40.25973,-26.42653,4.924768
12.83892107,43.03029,15.61707,77.3539700000001,0.7343641,0.6919473,0.1255415,-40.25973,-26.42653,4.924768
12.851280212,41.41392,15.08749,75.2157700000003,0.7479854,0.6937172,0.1154487,-40.25973,-26.42653,4.924768
12.861168385,41.91126,15.97013,73.0775800000001,0.7509279,0.6880459,0.09480113,-42.08166,-22.67508,5.220259
12.871055603,44.02498,17.14698,70.6950100000002,0.758199,0.6846085,0.09386492,-42.08166,-22.67508,5.220259
12.880942821,45.82786,19.26531,68.7400799999998,0.7582128,0.6795448,0.08090566,-42.08166,-22.67508,5.220259
12.890830994,46.88472,20.79521,67.76262,0.7499715,0.6844738,0.08375691,-42.08166,-22.67508,5.220259
12.900718212,46.38737,21.44248,67.7015300000002,0.7426744,0.6860856,0.09287796,-42.08166,-22.67508,5.220259
12.910605907,45.76569,21.73669,67.76262,0.7479731,0.6838417,0.1063611,-43.21429,-19.31062,5.601637
12.920493126,46.3252,22.08975,67.76262,0.7697314,0.6674078,0.1175301,-43.21429,-19.31062,5.601637
12.930380821,46.26303,21.56017,68.4346300000002,0.7875892,0.6406406,0.1210521,-43.21429,-19.31062,5.601637
12.940268517,45.95219,20.26563,68.9844499999999,0.8021445,0.6331853,0.1129307,-43.21429,-19.31062,5.601637
12.950155735,45.51702,18.5592,68.7400799999998,0.8162017,0.6287965,0.1144116,-43.21429,-19.31062,5.601637
12.960043907,43.46547,16.97045,68.49572,0.8215603,0.6246818,0.1004918,-45.01453,-15.2668,4.660504
12.969931126,41.84909,15.44055,67.57935,0.8351104,0.6119728,0.09912864,-45.01453,-15.2668,4.660504
12.979818821,40.29489,14.91096,67.0906099999998,0.8424087,0.6093583,0.08808897,-45.01453,-15.2668,4.660504
12.989706516,41.04091,14.32254,66.3575200000001,0.8413982,0.5911993,0.07856116,-45.01453,-15.2668,4.660504
12.999593735,41.84909,14.32254,66.7851600000002,0.8422864,0.571813,0.08491211,-45.01453,-15.2668,4.660504
13.00948143,42.09777,14.73444,67.2127999999997,0.8287266,0.5736367,0.07478813,-45.7631,-12.29428,4.601796
13.019368649,42.28427,15.32286,67.7015300000002,0.8388849,0.5673653,0.0801215,-45.7631,-12.29428,4.601796
13.029256821,41.53825,16.44087,68.31245,0.832038,0.5622308,0.09408638,-45.7631,-12.29428,4.601796
13.039144039,41.66259,16.73508,68.2513499999999,0.840247,0.5570092,0.1042214,-45.7631,-12.29428,4.601796
13.049031258,41.53825,17.26466,67.8237200000001,0.8630266,0.5561771,0.1167555,-45.7631,-12.29428,4.601796
13.05891943,41.78693,18.73573,67.4571699999998,0.8732423,0.5570087,0.1085872,-46.50389,-9.330116,4.089118
13.071278572,41.28958,18.91225,66.9684399999999,0.8795512,0.5520261,0.1018867,-46.50389,-9.330116,4.089118
13.081165791,39.23803,18.50036,66.9073399999998,0.8718544,0.560562,0.0854835,-46.50389,-9.330116,4.089118
13.091053963,38.11901,17.67656,66.66298,0.8664865,0.549308,0.08120597,-46.50389,-9.330116,4.089118
13.100941181,36.44046,16.85277,66.1742500000001,0.8673806,0.5278949,0.08227704,-46.50389,-9.330116,4.089118
13.110828877,33.6429,16.44087,65.9298800000001,0.8713237,0.5508959,0.09034096,-46.10047,-6.396852,2.823947
13.120716572,30.96967,17.08814,66.0520600000003,0.8770952,0.5372858,0.09282091,-46.10047,-6.396852,2.823947
13.130604267,29.35329,17.85309,65.8076999999999,0.8697049,0.5121157,0.1020772,-46.10047,-6.396852,2.823947
13.140491486,27.92343,18.5592,65.0135100000001,0.8759721,0.494458,0.09447881,-46.10047,-6.396852,2.823947
13.150378704,27.05307,17.85309,64.76914,0.8822531,0.4911448,0.1017165,-46.10047,-6.396852,2.823947
13.160266876,26.92874,16.79392,64.58587,0.8997449,0.4890042,0.09116695,-46.84125,-3.432689,2.311269
13.170154095,26.99091,15.91129,63.85277,0.9060272,0.479711,0.08929737,-46.84125,-3.432689,2.311269
13.180042267,25.68537,15.67592,62.4476700000002,0.912878,0.4873089,0.07724373,-46.84125,-3.432689,2.311269
13.189929485,24.75285,15.49939,60.85929,0.9113501,0.4703478,0.08261784,-46.84125,-3.432689,2.311269
13.199816704,24.44201,14.79328,58.2934500000001,0.8923839,0.4571801,0.07881545,-46.84125,-3.432689,2.311269
13.209704399,23.94467,13.32222,55.91089,0.90063,0.4636667,0.09033415,-46.82214,-0.8647971,1.431939
13.219592094,22.5148,13.02801,53.03959,0.9025757,0.4581626,0.08074576,-46.82214,-0.8647971,1.431939
13.22947979,19.84157,11.91,50.1683,0.9103956,0.4797024,0.08930238,-46.82214,-0.8647971,1.431939
13.239367008,17.72785,11.0862,47.35809,0.9084426,0.466343,0.07494003,-46.82214,-0.8647971,1.431939
13.249254227,16.11148,8.85018899999998,44.4257,0.9060477,0.4775906,0.077766,-46.82214,-0.8647971,1.431939
13.259142399,13.25174,8.02639499999998,41.67659,0.8862324,0.4850543,0.05317878,-47.11747,2.149962,0.6041231
13.269029617,11.88404,5.84922299999998,38.25547,0.8827872,0.4813812,0.06762106,-47.11747,2.149962,0.6041231
13.27891779,9.64598800000001,3.848579,34.5289,0.8778805,0.4638104,0.06433783,-47.11747,2.149962,0.6041231
13.291276932,4.610366,2.200989,31.29106,0.8389855,0.4458845,0.06534602,-47.11747,2.149962,0.6041231
13.30116415,2.12364,-0.0938677799999998,29.5805,0.8335255,0.4168005,0.07366244,-46.42974,3.974277,0.9833341
13.311052322,-0.3630867,-2.74178,28.8474,0.8621308,0.4199316,0.09147323,-46.42974,3.974277,0.9833341
13.320939541,-2.974149,-3.330204,26.64811,0.8892781,0.4081481,0.08867811,-46.42974,3.974277,0.9833341
13.330827236,-4.341849,-3.153677,24.69319,0.9042673,0.3885757,0.08446576,-46.42974,3.974277,0.9833341
13.340714455,-5.274371,-3.389047,22.24953,0.9061686,0.3793703,0.08788089,-46.42974,3.974277,0.9833341
13.35060215,-5.585212,-5.036636,19.86697,0.9148582,0.3597457,0.07933337,-47.11087,5.804535,0.5528512
13.360489845,-5.958221,-7.21380900000002,17.72877,0.9152741,0.3427663,0.08374794,-47.11087,5.804535,0.5528512
13.370377064,-6.51773500000002,-8.15528900000001,15.4073,0.9205728,0.3280826,0.07949987,-47.11087,5.804535,0.5528512
13.380265236,-6.45556599999999,-9.44982299999999,14.30765,0.9185909,0.308436,0.0680548,-47.11087,5.804535,0.5528512
13.390152454,-5.83388499999998,-10.86204,13.20801,0.9287438,0.2972232,0.06860392,-47.11087,5.804535,0.5528512
13.40004015,-4.901362,-11.39163,12.71927,0.9442514,0.2948585,0.07536639,-46.42508,6.557682,0.94709
13.409927845,-3.720167,-10.50899,11.1309,0.9607261,0.3024681,0.09794997,-46.42508,6.557682,0.94709
13.419815064,-1.855123,-9.44982299999999,9.97016099999998,0.9490612,0.3025918,0.104669,-46.42508,6.557682,0.94709
13.429702759,0.2585949,-8.03760300000001,8.9927,0.9518932,0.3006044,0.1349803,-46.42508,6.557682,0.94709
13.439589977,1.253286,-6.21348599999998,7.77087200000001,0.959172,0.3060759,0.1436175,-46.42508,6.557682,0.94709
13.44947815,1.937135,-4.801267,6.73231800000002,0.9591627,0.3111107,0.1546532,-46.43106,6.942902,1.330903
13.459365368,1.812799,-3.742102,5.449399,0.9625755,0.3174775,0.1575104,-46.43106,6.942902,1.330903
13.469252586,0.818108400000001,-2.565252,3.861022,0.9767016,0.329573,0.1540989,-46.43106,6.942902,1.330903
13.479140759,-0.984768300000001,-0.741135099999998,2.45592,0.9694771,0.335702,0.1396321,-46.43106,6.942902,1.330903
13.489027977,-3.28499,-0.0938677799999998,1.661732,0.9685482,0.3279754,0.1112958,-46.43106,6.942902,1.330903
13.498915672,-4.963531,-0.3880802,1.845006,0.9496151,0.3126082,0.09067228,-46.80666,7.704546,1.311715
13.511275292,-6.45556599999999,-1.917985,2.272646,0.9433296,0.3119683,0.07960718,-46.80666,7.704546,1.311715
13.52116251,-6.766407,-2.624094,2.45592,0.9384493,0.3066718,0.08299485,-46.80666,7.704546,1.311715
13.531050205,-6.26906200000001,-3.212519,2.45592,0.92975,0.3124246,0.07574206,-46.80666,7.704546,1.311715
13.540937901,-6.02038900000001,-3.212519,1.661732,0.9326288,0.3051649,0.07914847,-46.80666,7.704546,1.311715
13.550825596,-6.26906200000001,-3.271362,0.928635399999997,0.9263257,0.3071252,0.07913139,-45.67578,7.687968,1.337455
13.560712814,-7.45025699999999,-3.330204,0.25663,0.9190264,0.3057651,0.08490102,-45.67578,7.687968,1.337455
13.570600033,-8.00976999999999,-3.683259,-1.087381,0.9190094,0.3008956,0.08492561,-45.67578,7.687968,1.337455
13.580488205,-8.63145299999999,-4.036314,-2.492483,0.9243242,0.2975555,0.09023867,-45.67578,7.687968,1.337455
13.590375423,-9.066629,-4.271684,-3.897585,0.9190145,0.301361,0.0834805,-45.67578,7.687968,1.337455
13.600263595,-9.37747000000002,-4.624739,-5.608143,0.9112586,0.3072844,0.08777004,-45.68288,8.074381,1.786121
13.610150814,-9.87481500000001,-4.860109,-7.31870300000003,0.9151207,0.3019347,0.08876331,-45.68288,8.074381,1.786121
13.620038509,-9.56397399999999,-5.213164,-8.96817000000001,0.9253125,0.3029172,0.09069362,-45.68288,8.074381,1.786121
13.629925728,-8.63145299999999,-5.683904,-10.43436,0.9267794,0.3023483,0.08540802,-45.68288,8.074381,1.786121
13.639813423,-7.76109800000001,-6.09580100000001,-12.02274,0.9398794,0.301857,0.08686817,-45.68288,8.074381,1.786121
13.649701118,-7.512425,-6.15464400000001,-13.91657,0.9432724,0.3068564,0.09598426,-46.06719,7.709006,2.171961
13.659588337,-7.88543400000003,-5.213164,-15.56604,0.9393767,0.3079386,0.1027073,-46.06719,7.709006,2.171961
13.669476509,-8.00976999999999,-4.565897,-17.39878,0.9374718,0.3211476,0.1064857,-46.06719,7.709006,2.171961
13.679363727,-7.63676199999999,-3.977472,-19.72026,0.9481969,0.3332714,0.104513,-46.06719,7.709006,2.171961
13.689250946,-6.57990299999997,-2.977149,-21.67518,0.9530764,0.3490239,0.1164619,-46.06719,7.709006,2.171961
13.699139118,-5.64738,-2.153355,-23.44683,0.9550613,0.362182,0.1173595,-46.45398,6.588708,2.633263
13.709026337,-5.460876,-1.32956,-25.40176,0.9555904,0.3828054,0.128798,-46.45398,6.588708,2.633263
13.718914032,-6.51773500000002,-0.4469227,-27.53996,0.9527412,0.4013223,0.1291821,-46.45398,6.588708,2.633263
13.731273651,-8.258443,0.671084500000001,-30.47234,0.9459814,0.4135526,0.1319982,-46.45398,6.588708,2.633263
13.74116087,-9.066629,1.847934,-33.16036,0.9376974,0.4038227,0.131557,-46.45398,6.588708,2.633263
13.751048565,-9.37747000000002,2.436359,-35.66511,0.9343407,0.4055615,0.1171168,-46.07702,6.583182,2.641843
13.760935783,-9.37747000000002,3.495524,-37.8644,0.9348432,0.4024662,0.1055909,-46.07702,6.583182,2.641843
13.770823955,-9.812647,4.966586,-40.18587,0.9247086,0.4125684,0.09590988,-46.07702,6.583182,2.641843
13.780711174,-9.43963799999997,6.26111999999998,-42.99608,0.9251787,0.4101759,0.09880803,-46.07702,6.583182,2.641843
13.790598392,-8.75578900000001,7.32028499999999,-45.01209,0.9242195,0.4205547,0.1088538,-46.07702,6.583182,2.641843
13.800486565,-8.50711499999998,9.203244,-47.45575,0.9290474,0.4137423,0.1098556,-45.70268,5.128429,2.670755
13.810373783,-7.26375199999999,11.55694,-50.44923,0.9285657,0.4211841,0.1189549,-45.70268,5.128429,2.670755
13.820261478,-5.087867,13.26338,-53.62598,0.9207907,0.4182706,0.1184799,-45.70268,5.128429,2.670755
13.830149174,-2.849813,14.02833,-56.74164,0.9141035,0.4370088,0.1005835,-45.70268,5.128429,2.670755
13.840036869,0.1964268,13.4399,-58.7576599999999,0.9029217,0.435155,0.1053894,-45.70268,5.128429,2.670755
13.849924087,2.558817,13.14569,-62.6064099999998,0.9049688,0.463845,0.1028421,-46.82919,3.246358,2.217566
13.859811306,3.80218,14.44023,-65.8442500000002,0.9026018,0.4754144,0.09460532,-46.82919,3.246358,2.217566
13.869699478,5.232048,15.20518,-68.9599200000001,0.883763,0.5002573,0.09253468,-46.82919,3.246358,2.217566
13.879586697,7.40793400000002,15.44055,-71.4035700000001,0.8711691,0.5120624,0.09871268,-46.82919,3.246358,2.217566
13.889474869,7.90527900000001,16.02897,-74.5192299999998,0.8663848,0.545472,0.1177752,-46.82919,3.246358,2.217566
13.899362087,8.02961499999997,16.85277,-78.9789,0.8693455,0.5571027,0.1143534,-47.13285,1.030104,1.398269
13.909249783,9.83249199999998,17.85309,-81.78911,0.8577174,0.5634632,0.114789,-47.13285,1.030104,1.398269
13.919137001,11.75971,22.67817,-86.4931499999998,0.86308,0.6120723,0.1746645,-47.13285,1.030104,1.398269
13.929024696,11.07586,19.26531,-85.7600499999998,0.8243699,0.5994484,0.1068744,-47.13285,1.030104,1.398269
13.938912392,10.88935,17.79425,-89.5477099999999,0.8190911,0.6135084,0.1019882,-47.13285,1.030104,1.398269
13.951271534,9.64598800000001,17.50003,-91.0139099999999,0.8167431,0.6418784,0.1100178,-46.44779,-2.31955,1.460851
13.961159229,9.89465999999999,16.79392,-93.70193,0.8084204,0.6274158,0.118738,-46.44779,-2.31955,1.460851
13.971046925,10.76501,14.96981,-95.2292199999997,0.7954381,0.648064,0.09745838,-46.44779,-2.31955,1.460851
13.980934143,12.7544,12.91032,-97.3063200000001,0.8036455,0.6199609,0.07548737,-46.44779,-2.31955,1.460851
13.990822315,14.55727,10.49778,-99.9332499999998,0.8046612,0.6191772,0.05577471,-46.44779,-2.31955,1.460851
14.000709534,16.17365,8.14407899999999,-99.9332499999998,0.7868248,0.650785,0.05030457,-46.44784,-6.044292,1.12389
14.010597229,17.85218,6.55533299999998,-100.7274,0.77623,0.6711788,0.04489934,-46.44784,-6.044292,1.12389
14.020484924,18.53604,6.20227800000001,-101.3994,0.7602587,0.6898295,0.05248167,-46.44784,-6.044292,1.12389
14.030372143,20.46325,5.79037999999999,-102.9267,0.7563493,0.6969709,0.07360166,-46.44784,-6.044292,1.12389
14.040259838,23.13648,5.084271,-104.6984,0.7495242,0.7021486,0.09328551,-46.44784,-6.044292,1.12389
14.050147057,25.87188,5.378483,-105.798,0.7578554,0.719046,0.08455301,-46.0644,-10.47602,0.3512635
14.060035229,26.49356,5.90806599999998,-106.6533,0.7472568,0.7359808,0.07579879,-46.0644,-10.47602,0.3512635
14.069922447,26.92874,5.201956,-107.8751,0.7139632,0.8089473,0.09847644,-46.0644,-10.47602,0.3512635
14.079810619,27.48825,5.143113,-109.4024,0.7072124,0.8231109,0.1003209,-46.0644,-10.47602,0.3512635
14.089697838,27.30175,4.790059,-108.425,0.6854394,0.8436202,0.1011543,-46.0644,-10.47602,0.3512635
14.099585056,26.43139,3.789736,-108.486,0.6559011,0.8546844,0.08807995,-44.92578,-14.2257,-0.4139271
14.109472752,26.12055,-0.2703952,-109.3413,0.6559387,0.8718641,0.09713067,-44.92578,-14.2257,-0.4139271
14.119360447,26.24489,-2.388725,-108.9137,0.6601942,0.8571413,0.1226987,-44.92578,-14.2257,-0.4139271
14.129248142,26.99091,-3.800944,-109.1581,0.6892629,0.8355286,0.1141844,-44.92578,-14.2257,-0.4139271
14.139135361,25.12586,-5.154321,-109.2802,0.671689,0.7879266,0.08747341,-44.92578,-14.2257,-0.4139271
14.149022579,22.57697,-8.09644600000001,-109.7079,0.6882399,0.7970454,0.08071325,-43.88736,-18.31313,0.9648992
14.158910751,20.58758,-7.50802099999999,-109.9522,0.6761661,0.8225631,0.09211268,-43.88736,-18.31313,0.9648992
14.171269894,18.10086,-7.86107600000001,-109.0359,0.612259,0.8450513,0.05681914,-43.88736,-18.31313,0.9648992
14.181158066,17.10617,-8.92024,-107.8751,0.5850388,0.8448552,0.07265957,-43.88736,-18.31313,0.9648992
14.191045284,19.34422,-8.09644600000001,-107.6919,0.5804918,0.8226031,0.114607,-41.63493,-23.5131,1.088867
14.200932503,22.94997,-8.33181600000001,-105.8591,0.5788975,0.7861569,0.1195985,-41.63493,-23.5131,1.088867
14.210820675,21.45794,-9.09676800000003,-102.3769,0.5555813,0.764919,0.09659515,-41.63493,-23.5131,1.088867
14.220707893,19.84157,-9.56750800000002,-100.7885,0.5764942,0.7755619,0.09464147,-41.63493,-23.5131,1.088867
14.230595589,19.9659,-7.50802099999999,-98.7725099999997,0.5918934,0.7490008,0.1116254,-41.63493,-23.5131,1.088867
14.240482807,22.32829,-6.91959600000003,-94.43503,0.5670779,0.7424697,0.1275006,-39.102,-27.60831,3.280247
14.250370979,22.26612,-6.27232800000001,-90.4640900000002,0.5408447,0.7282346,0.1164815,-39.102,-27.60831,3.280247
14.260258198,21.83095,-6.860754,-86.0044199999999,0.5162839,0.7862806,0.1195267,-39.102,-27.60831,3.280247
14.270145416,18.4117,-5.683904,-82.5832999999998,0.5017229,0.7609285,0.08308829,-39.102,-27.60831,3.280247
14.280033588,15.8628,-6.21348599999998,-78.6734499999998,0.4872149,0.7860001,0.09689181,-39.102,-27.60831,3.280247
14.289920807,15.6763,-4.801267,-73.0530400000001,0.4599088,0.7808721,0.1411314,-37.29262,-30.90438,3.756802
14.299808979,14.37077,-3.565574,-67.9824500000001,0.4259378,0.7560238,0.1032256,-37.29262,-30.90438,3.756802
14.309696198,12.38139,-4.977794,-63.0951400000003,0.4230242,0.7445924,0.08740965,-37.29262,-30.90438,3.756802
14.319583416,11.07586,-3.859787,-61.20131,0.4490964,0.7225222,0.1130396,-37.29262,-30.90438,3.756802
14.329471111,10.88935,-3.330204,-56.43618,0.4191786,0.7483447,0.07728697,-37.29262,-30.90438,3.756802
14.33935833,9.64598800000001,-3.565574,-51.42669,0.3959113,0.7481965,0.0642764,-35.10681,-33.88972,4.30237
14.349246502,9.27297899999999,-3.035992,-48.73867,0.3833443,0.7543576,0.05124611,-35.10681,-33.88972,4.30237
14.35913372,8.89997000000001,-4.448212,-43.24044,0.3601389,0.7767097,0.0448548,-35.10681,-33.88972,4.30237
14.369021893,8.09178400000001,-4.389369,-38.29204,0.3417021,0.7557982,0.01175595,-35.10681,-33.88972,4.30237
14.378909111,8.46479200000001,-6.68422599999997,-35.35965,0.3426561,0.7459494,0.00459299,-35.10681,-33.88972,4.30237
14.391268253,9.08647399999999,-7.27265099999999,-30.47234,0.3422652,0.7647616,-0.007525545,-33.23209,-35.80048,4.760906
14.401156426,10.32984,-7.037281,-26.86795,0.3276848,0.7743658,0.01405079,-33.23209,-35.80048,4.760906
14.411043644,12.31922,-7.037281,-22.53046,0.3141066,0.7822775,0.02024735,-33.23209,-35.80048,4.760906
14.420931339,12.87873,-7.68454900000002,-19.04825,0.3107308,0.7896099,0.02164922,-33.23209,-35.80048,4.760906
14.430818558,12.00838,-7.56686399999999,-16.48241,0.3058992,0.807394,0.03790517,-33.23209,-35.80048,4.760906
14.440706253,10.019,-7.97876099999998,-13.85548,0.2899435,0.8204726,0.03108804,-32.48789,-36.87435,5.247064
14.450593948,8.02961499999997,-7.74339099999999,-11.04528,0.307336,0.8075134,0.04608186,-32.48789,-36.87435,5.247064
14.460481167,5.729393,-7.74339099999999,-7.62415899999998,0.3150387,0.7959552,0.05576745,-32.48789,-36.87435,5.247064
14.470369339,3.677844,-8.15528900000001,-4.080859,0.3207943,0.7774686,0.0577911,-32.48789,-36.87435,5.247064
14.480256558,2.496649,-8.68487099999997,-0.4153753,0.3202698,0.7578118,0.0458668,-32.48789,-36.87435,5.247064
14.49014473,2.620985,-8.09644600000001,3.066834,0.3343173,0.7559729,0.05502956,-31.05869,-37.63614,6.133649
14.500031948,3.242667,-7.33149300000002,7.09886600000001,0.3352203,0.738484,0.0580045,-31.05869,-37.63614,6.133649
14.509919167,3.677844,-6.743068,11.74181,0.3342033,0.7258397,0.05902908,-31.05869,-37.63614,6.133649
14.519806862,4.48603,-6.390014,16.69021,0.3351324,0.7121673,0.05669462,-31.05869,-37.63614,6.133649
14.529694557,4.175189,-6.390014,21.88298,0.3468049,0.7065217,0.03894234,-31.05869,-37.63614,6.133649
14.539582253,2.558817,-6.62538299999997,27.80885,0.351633,0.6907501,0.02700451,-31.05159,-38.02255,5.684983
14.549469471,1.937135,-6.62538299999997,34.16235,0.3752799,0.6701671,0.05406698,-31.05159,-38.02255,5.684983
14.559357643,2.869658,-6.03695899999998,41.49332,0.3959733,0.6249692,0.0629755,-31.05159,-38.02255,5.684983
14.569244862,4.113021,-6.390014,50.8403,0.4147035,0.5634903,0.05753641,-31.05159,-38.02255,5.684983
14.57913208,5.91589799999997,-7.44917799999999,61.1036600000001,0.4334767,0.5087063,0.04388788,-31.05159,-38.02255,5.684983
14.589020252,8.83780200000001,-7.56686399999999,71.0004700000001,0.4697349,0.4692419,0.04749498,-31.81124,-36.86897,6.105881
14.598907471,12.44355,-6.91959600000003,81.0805399999998,0.5031592,0.454668,0.05433953,-31.81124,-36.86897,6.105881
14.61126709,14.37077,-4.977794,93.7875599999998,0.5390432,0.4592888,0.07503659,-31.81124,-36.86897,6.105881
14.621154785,13.68692,-2.094512,103.0734,0.5618417,0.4762531,0.1052748,-31.81124,-36.86897,6.105881
14.631042004,9.27297899999999,1.024139,111.8706,0.5832299,0.5003949,0.1268186,-31.81124,-36.86897,6.105881
14.640929699,1.750631,4.554688,120.1179,0.5958916,0.5234937,0.1425866,-33.64505,-35.37752,6.887165
14.650816917,-7.82326600000002,8.96787499999997,128.6707,0.6070757,0.5601674,0.1866588,-33.64505,-35.37752,6.887165
14.660705089,-18.08101,12.3219,138.3232,0.622147,0.573916,0.1962249,-33.64505,-35.37752,6.887165
14.670592308,-27.65491,12.49842,149.2585,0.6376293,0.564247,0.2030242,-33.64505,-35.37752,6.887165
14.68048048,-35.17726,11.20389,160.1939,0.6303316,0.5419748,0.1781206,-33.64505,-35.37752,6.887165
14.690367699,-40.52372,8.02639499999998,169.9685,0.6415913,0.5478156,0.146844,-36.57674,-31.63216,5.924713
14.700254917,-43.32129,3.907421,179.3155,0.6873188,0.5386204,0.09163653,-36.57674,-31.63216,5.924713
14.710142612,-44.93766,-1.56493,187.5017,0.7364753,0.5595752,0.06657863,-36.57674,-31.63216,5.924713
14.720030308,-45.43501,-7.50802099999999,196.2989,0.7881457,0.589432,0.01839441,-36.57674,-31.63216,5.924713
14.729918003,-45.49717,-12.21542,203.08,0.8228526,0.6291189,-0.02601142,-36.57674,-31.63216,5.924713
14.739805221,-44.06731,-16.56976,209.067,0.854622,0.6719561,-0.05552796,-39.88345,-26.81012,4.938652
14.749693394,-40.39938,-23.10128,217.4365,0.9169419,0.7079445,-0.08305146,-39.88345,-26.81012,4.938652
14.759580612,-34.49341,-30.92733,219.2693,0.9652547,0.7460141,-0.1360902,-39.88345,-26.81012,4.938652
14.769467831,-24.91951,-35.0463,218.8416,1.054174,0.7755927,-0.1327721,-39.88345,-26.81012,4.938652
14.779356003,-16.21597,-38.9299,219.2693,1.102075,0.8574835,-0.1538111,-39.88345,-26.81012,4.938652
14.789243221,-8.13410699999998,-44.16689,215.7871,1.170951,0.9690368,-0.1749761,-43.93863,-18.95254,3.893
14.799130917,3.615676,-45.10837,209.4336,1.190216,1.043522,-0.2065905,-43.93863,-18.95254,3.893
14.809018135,13.99776,-46.52059,197.9484,1.144009,1.165559,-0.193313,-43.93863,-18.95254,3.893
14.818906307,19.15772,-49.69808,184.1417,1.062855,1.277224,-0.1944505,-43.93863,-18.95254,3.893
14.831265449,18.78471,-55.11159,161.1103,0.8695363,1.420229,-0.133835,-43.93863,-18.95254,3.893
14.841152668,6.53758000000001,-58.2302399999998,140.5836,0.7186006,1.571625,-0.1251533,-46.15583,-9.304616,5.783872
14.85104084,-12.29937,-58.5832900000001,113.0924,0.5544235,1.664691,-0.1436043,-46.15583,-9.304616,5.783872
14.860928059,-41.33191,-59.7601399999998,78.6979800000002,0.3912103,1.734408,-0.1927152,-46.15583,-9.304616,5.783872
14.870816231,-81.1195300000002,-64.5263899999998,42.83733,0.2043617,1.841058,-0.2502153,-46.15583,-9.304616,5.783872
14.880703449,-126.8753,-77.0009900000001,9.54252199999998,0.04648752,1.881903,-0.3405335,-46.15583,-9.304616,5.783872
14.890590668,-180.4642,-93.5945700000001,-17.45988,-0.04894271,1.903293,-0.3883612,-46.55672,-2.202606,7.816426
14.900478363,-238.4671,-112.0123,-44.2179,-0.1593904,2.047364,-0.473376,-46.55672,-2.202606,7.816426
14.910366058,-299.4541,-127.2525,-64.1337000000002,-0.1377758,2.018401,-0.4207847,-46.55672,-2.202606,7.816426
14.920253754,-348.1939,-129.9004,-57.7191,-0.0864668,1.774015,-0.3108033,-46.55672,-2.202606,7.816426
14.930140972,-376.3561,-114.8367,-24.72975,0.1882627,1.217473,-0.1056916,-46.55672,-2.202606,7.816426
14.940029144,-363.9846,-106.5988,20.23351,0.4848039,0.04218215,-0.3720976,-45.49479,-0.3143319,12.03196
14.949916363,-136.6979,-173.3261,25.73174,1.032736,-2.092849,-0.7930336,-45.49479,-0.3143319,12.03196
14.959803581,-99.8943199999999,-432.4096,286.4698,4.200717,-5.398015,0.7378436,-45.49479,-0.3143319,12.03196
14.969691753,-339.9256,-228.285,484.8947,5.674492,-4.049124,2.200474,-45.49479,-0.3143319,12.03196
14.979578972,-129.5485,26.20872,326.6068,4.872003,-1.612161,0.535283,-45.49479,-0.3143319,12.03196
14.989466667,147.162,131.066,203.5688,3.27839,-0.8463299,0.4723714,-44.84468,-5.390762,17.6341
14.999353886,146.7268,102.2332,220.3689,1.640343,-0.1745294,-0.2181984,-44.84468,-5.390762,17.6341
15.009242058,88.5995499999999,80.6968599999999,226.9668,0.6356913,0.1570855,-0.5817074,-44.84468,-5.390762,17.6341
15.019129276,83.2530900000002,58.8074599999997,164.7757,0.3410814,0.2271735,-0.6886801,-44.84468,-5.390762,17.6341
15.029016495,113.7777,51.56984,92.93227,0.8336999,-0.137589,-0.5910543,-44.84468,-5.390762,17.6341
15.038904667,149.1514,74.6360899999997,71.6113800000002,1.230109,-0.3245023,-0.5973538,-43.38556,2.401279,17.55737
15.051263809,222.6341,116.5908,58.2323600000003,1.182525,-0.2487355,-0.6824328,-43.38556,2.401279,17.55737
15.061151981,273.7364,146.8947,56.09416,0.9659268,-0.05512156,-0.7577193,-43.38556,2.401279,17.55737
15.0710392,293.568,156.7802,57.68254,0.7959774,0.2574207,-0.8850124,-43.38556,2.401279,17.55737
15.080926418,291.8894,156.3094,71.6113800000002,0.7503295,0.5381595,-0.8754218,-42.53162,9.669304,12.41259
15.090814114,270.8145,140.3631,89.9388000000002,0.6366683,1.025356,-0.7462406,-42.53162,9.669304,12.41259
15.100701809,248.1231,115.767,116.0859,0.4377171,1.634698,-0.6995302,-42.53162,9.669304,12.41259
15.110589504,223.6288,78.6962199999999,120.9732,0.3269802,2.042848,-0.2871647,-42.53162,9.669304,12.41259
15.120476723,178.5569,43.97915,116.5136,0.3607377,1.989084,0.1276994,-42.53162,9.669304,12.41259
15.130364895,95.1272,15.85244,104.2953,0.3862334,1.802036,0.3561492,-43.13702,15.45531,4.270582
15.140252113,12.07055,-3.918629,83.82966,0.4290264,1.469764,0.4497328,-43.13702,15.45531,4.270582
15.150139332,-62.8420899999998,-18.04082,57.4992599999997,0.4272359,1.106198,0.2683371,-43.13702,15.45531,4.270582
15.160027504,-120.6585,-32.92797,29.70268,0.5852222,0.8014771,0.1353987,-43.13702,15.45531,4.270582
15.169914722,-158.5189,-40.45981,10.3978,0.7142844,0.715434,0.03258225,-43.13702,15.45531,4.270582
15.179802418,-178.4127,-42.28393,-10.67873,0.8494555,0.5574951,-0.09006266,-41.59094,20.56899,2.546241
15.189689636,-179.7804,-35.69357,-27.78432,0.9448968,0.2062639,-0.1175154,-41.59094,20.56899,2.546241
15.199577808,-166.4142,-27.04373,-41.16333,0.966554,-0.1776217,-0.1891318,-41.59094,20.56899,2.546241
15.209465027,-144.4067,-32.63376,-44.64555,1.062979,-0.5110228,-0.1964749,-41.59094,20.56899,2.546241
15.219352245,-114.8768,-38.34148,-34.80983,1.183259,-0.7493734,-0.09702579,-41.59094,20.56899,2.546241
15.229240418,-77.1407700000002,-37.63537,-31.38871,1.282512,-0.6932585,0.08651534,-40.98586,21.03,7.615187
15.239127636,-36.17195,-18.86462,-42.0797,1.363535,-0.5573467,0.2956022,-40.98586,21.03,7.615187
15.249015808,-3.409327,7.55565499999999,-41.83534,1.334818,-0.4006104,0.3520072,-40.98586,21.03,7.615187
15.258903027,14.93028,17.14698,-41.52988,1.283632,-0.16289,0.3824885,-40.98586,21.03,7.615187
15.271262169,21.52011,30.03348,-40.30806,1.261802,0.05943827,0.4948375,-40.98586,21.03,7.615187
15.281149864,9.89465999999999,36.32963,-38.65859,1.17811,0.09317779,0.4277238,-41.32621,18.85312,8.936033
15.29103756,-2.2903,44.92064,-36.52039,1.133029,0.09936716,0.4122518,-41.32621,18.85312,8.936033
15.300925255,-12.67238,57.5717700000002,-36.76476,1.05668,0.1242389,0.3067176,-41.32621,18.85312,8.936033
15.310812473,-20.62991,58.5132499999999,-36.82585,0.9477729,0.08522241,0.1254837,-41.32621,18.85312,8.936033
15.320700646,-26.78456,38.27143,-35.54293,0.8900723,-0.0001320142,-0.02131242,-41.32621,18.85312,8.936033
15.330587864,-28.40093,32.38718,-30.83889,0.9409385,-0.04290634,-0.04171804,-42.44469,17.72001,8.083118
15.340475082,-24.17349,34.97625,-29.00615,0.9297356,-0.07697264,-0.07426126,-42.44469,17.72001,8.083118
15.350363255,-17.77017,31.91644,-29.12833,0.8329066,-0.08928437,-0.1940585,-42.44469,17.72001,8.083118
15.360250473,-7.63676199999999,21.3248,-32.97709,0.8057871,-0.07120643,-0.1936998,-42.44469,17.72001,8.083118
15.370138168,1.626294,14.20485,-34.26001,0.8136591,-0.0400428,-0.1928864,-42.44469,17.72001,8.083118
15.380025387,9.27297899999999,9.08555899999997,-37.37567,0.8349236,-0.008650139,-0.1098216,-43.54287,15.49187,5.948175
15.389913559,14.4951,8.96787499999997,-38.96405,0.859176,0.03619148,-0.03884426,-43.54287,15.49187,5.948175
15.399800778,17.16833,7.67334000000002,-40.55242,0.8767055,0.06665689,-0.01829867,-43.54287,15.49187,5.948175
15.40968895,15.61413,-0.799977499999998,-40.30806,0.897476,0.06675439,0.02356458,-43.54287,15.49187,5.948175
15.419576168,12.63006,-5.272007,-39.39169,0.9293458,0.063752,0.08757849,-43.54287,15.49187,5.948175
15.429463387,9.45948300000001,-7.62570600000002,-37.62003,0.9399323,0.04838592,0.1035386,-43.92052,15.11933,5.9449
15.439351559,5.97806599999998,-12.33311,-34.07673,0.9336023,0.05798119,0.1256053,-43.92052,15.11933,5.9449
15.449238777,1.999303,-18.74693,-29.92252,0.9360199,0.06400674,0.1380815,-43.92052,15.11933,5.9449
15.459126473,-2.103795,-23.16012,-25.8294,0.945779,0.08655252,0.1490398,-43.92052,15.11933,5.9449
15.469013691,-6.57990299999997,-25.86688,-21.18645,0.957931,0.08791027,0.1437567,-43.92052,15.11933,5.9449
15.478901863,-10.55867,-26.74951,-17.09333,0.9696141,0.08966244,0.132219,-44.23795,13.29665,5.963386
15.491261006,-14.28875,-26.8672,-12.14492,0.9832398,0.09339453,0.1230781,-44.23795,13.29665,5.963386
15.501148224,-15.22128,-26.10225,-9.64017600000001,1.008432,0.07672373,0.1188627,-44.23795,13.29665,5.963386
15.511036396,-15.46995,-24.86655,-8.05179900000001,1.025904,0.07868733,0.1222391,-44.23795,13.29665,5.963386
15.520923615,-14.04008,-22.21864,-7.074337,1.057384,0.07011165,0.1391505,-44.23795,13.29665,5.963386
15.530811787,-11.8642,-19.21768,-6.58560600000002,1.072335,0.05177212,0.152245,-44.2636,11.43022,7.286962
15.540699005,-9.50180599999998,-16.27555,-5.791418,1.067423,0.03871325,0.1575956,-44.2636,11.43022,7.286962
15.550586223,-5.212203,-14.33375,-4.56959,1.052858,0.02981157,0.1465628,-44.2636,11.43022,7.286962
15.560473919,-1.419945,-14.03954,-2.920122,1.041751,0.04241514,0.1411964,-44.2636,11.43022,7.286962
15.570361614,0.631603899999999,-14.15722,-0.659740900000002,1.031679,0.06655249,0.1256735,-44.2636,11.43022,7.286962
15.580249309,1.004613,-13.39227,1.661732,1.028348,0.09450216,0.1380324,-44.66167,11.45842,8.510585
15.590136528,0.631603899999999,-12.15658,3.372291,1.008085,0.1081964,0.1066803,-44.66167,11.45842,8.510585
15.6000247,0.4450994,-13.03922,4.594119,0.9867931,0.1177834,0.09362274,-44.66167,11.45842,8.510585
15.609911919,0.3207631,-13.03922,5.632673,0.9829427,0.1315191,0.09980093,-44.66167,11.45842,8.510585
15.619799614,0.693772100000003,-12.09773,6.24358699999999,0.9858716,0.1423556,0.1084061,-44.66167,11.45842,8.510585
15.629687309,0.9424447,-11.03857,6.73231800000002,0.9858931,0.1471963,0.106458,-44.28471,11.45289,8.519165
15.639574528,0.818108400000001,-10.33246,6.61013499999998,0.9864265,0.1603285,0.1054304,-44.28471,11.45289,8.519165
15.649462223,-0.1765822,-10.3913,6.79340899999997,0.9811531,0.1708721,0.09334806,-44.28471,11.45289,8.519165
15.659349441,-1.792954,-11.2151,6.73231800000002,0.9807238,0.1769876,0.07888903,-44.28471,11.45289,8.519165
15.669237614,-3.906672,-12.86269,6.79340899999997,0.9802529,0.1714236,0.0649699,-44.28471,11.45289,8.519165
15.679124832,-5.83388499999998,-15.39291,6.67122700000001,0.9807537,0.1658505,0.05057101,-44.29249,11.46125,8.973135
15.689013004,-7.63676199999999,-17.27587,6.06031299999999,0.9944077,0.1753756,0.03803445,-44.29249,11.46125,8.973135
15.698900223,-9.43963799999997,-19.21768,4.533028,1.006076,0.1757316,0.0308321,-44.29249,11.46125,8.973135
15.711259365,-11.80203,-20.74758,2.578103,1.002705,0.184525,0.0322266,-44.29249,11.46125,8.973135
15.721147537,-13.85358,-22.51285,0.6842698,0.9983868,0.196657,0.02879393,-43.99948,11.47931,10.21249
15.731034756,-15.53212,-24.27813,-2.309208,1.003713,0.1937391,0.02977658,-43.99948,11.47931,10.21249
15.740922451,-17.02415,-25.27845,-4.875047,1.007535,0.1896438,0.04951937,-43.99948,11.47931,10.21249
15.750809669,-17.89451,-25.51382,-8.66271300000003,1.011869,0.1838781,0.0553245,-43.99948,11.47931,10.21249
15.760697842,-18.76486,-26.39646,-13.67221,1.026355,0.1599386,0.0520955,-43.99948,11.47931,10.21249
15.77058506,-20.4434,-25.45498,-18.80388,1.067487,0.1337776,0.06670209,-43.25061,12.98885,10.6624
15.780472279,-22.49495,-23.51318,-23.6912,1.092235,0.1183385,0.04709049,-43.25061,12.98885,10.6624
15.790360451,-22.49495,-21.7479,-29.00615,1.09894,0.09600466,0.0525011,-43.25061,12.98885,10.6624
15.800247669,-20.2569,-19.98263,-34.3211,1.102311,0.08173265,0.04295864,-43.25061,12.98885,10.6624
15.810135364,-17.39716,-19.86494,-39.45278,1.111639,0.1019505,0.02843944,-43.25061,12.98885,10.6624
15.82002306,-13.79141,-16.15787,-44.34009,1.140998,0.06614044,0.08011234,-44.02963,10.81723,11.90839
15.829910755,-6.766407,-10.8032,-47.45575,1.11029,0.05855563,0.1224368,-44.02963,10.81723,11.90839
15.839797974,2.496649,-3.565574,-49.71613,1.080356,-0.002022004,0.170801,-44.02963,10.81723,11.90839
15.849685192,13.81125,6.26111999999998,-47.39466,1.022516,-0.01434555,0.1857061,-44.02963,10.81723,11.90839
15.859573364,23.32298,11.85116,-47.02811,0.9790314,0.01782684,0.149425,-44.02963,10.81723,11.90839
15.869460583,29.04245,15.32286,-45.98956,0.9724592,0.07067297,0.1327991,-44.04724,9.699761,12.83224
15.879348755,31.28051,19.85373,-43.91245,0.9664512,0.1374526,0.1035996,-44.04724,9.699761,12.83224
15.889235973,29.5398,24.50229,-41.71316,0.9439831,0.2313633,0.09540471,-44.04724,9.699761,12.83224
15.899123669,24.93936,27.62094,-39.02514,0.9125935,0.2901326,0.1133471,-44.04724,9.699761,12.83224
15.909010887,20.52542,24.7965,-37.74222,0.8734896,0.3286842,0.08088606,-44.04724,9.699761,12.83224
15.918899059,17.60351,21.97206,-37.68113,0.9335563,0.3432569,0.1515761,-44.34911,7.860373,11.94278
15.931258202,13.18957,28.56242,-37.80331,0.9932075,0.3424599,0.1713657,-44.34911,7.860373,11.94278
15.94114542,10.26767,30.44538,-39.33059,0.9496109,0.3335346,0.1223073,-44.34911,7.860373,11.94278
15.951033592,7.34576600000001,29.73927,-39.08623,0.935591,0.3262417,0.08866376,-44.34911,7.860373,11.94278
15.960920811,3.988685,28.73895,-39.57496,0.9166582,0.3029108,0.05653841,-44.34911,7.860373,11.94278
15.970808983,1.377622,26.67946,-39.88042,0.8914855,0.295074,0.01759479,-45.07686,6.328163,10.26067
15.980696201,0.631603899999999,20.67753,-40.91897,0.8806273,0.2429846,0.01736474,-45.07686,6.328163,10.26067
15.99058342,2.80749,17.85309,-40.43024,0.9121686,0.2519318,0.03370671,-45.07686,6.328163,10.26067
16.000471115,6.53758000000001,20.20679,-40.61351,0.9369435,0.2592158,0.03562175,-45.07686,6.328163,10.26067
16.01035881,10.019,19.55952,-43.17935,0.9107906,0.2613931,0.01490141,-45.07686,6.328163,10.26067
16.020246506,16.04931,19.20647,-45.37864,0.8990237,0.2462366,0.0418962,-44.68807,4.857897,9.446491
16.030133724,20.02807,17.55888,-46.05065,0.8913345,0.2666677,0.0393796,-44.68807,4.857897,9.446491
16.040021896,21.08493,14.91096,-47.70012,0.8676988,0.3036004,0.03099044,-44.68807,4.857897,9.446491
16.049909115,21.89312,12.96916,-48.92194,0.8682159,0.3113618,0.02902813,-44.68807,4.857897,9.446491
16.059797287,22.88781,11.38042,-50.20486,0.8707389,0.3356324,0.02409914,-44.68807,4.857897,9.446491
16.069684505,21.3336,9.026717,-52.40415,0.8834535,0.3733254,0.03883167,-45.05468,2.579554,8.626649
16.079571724,19.34422,7.61449700000002,-53.68707,0.8772219,0.397227,0.04062749,-45.05468,2.579554,8.626649
16.089459419,18.10086,5.437326,-55.09217,0.8844596,0.3875312,0.04453208,-45.05468,2.579554,8.626649
16.099346638,18.78471,3.201311,-56.314,0.8864497,0.4001592,0.04254685,-45.05468,2.579554,8.626649
16.10923481,20.71192,0.671084500000001,-58.3911100000002,0.8850074,0.394103,0.02814818,-45.05468,2.579554,8.626649
16.119122028,21.76878,-2.03567,-58.6354799999997,0.9029732,0.3920334,0.02240801,-46.1875,1.524964,8.615937
16.129010201,21.64444,-4.507054,-59.1242100000002,0.8870606,0.4272331,0.02942586,-46.1875,1.524964,8.615937
16.138897419,20.09024,-7.21380900000002,-56.43618,0.875468,0.4408331,0.02549658,-46.1875,1.524964,8.615937
16.151256561,19.9659,-9.86171999999999,-57.3525499999998,0.8745306,0.465506,0.04701229,-46.1875,1.524964,8.615937
16.161144733,20.83626,-9.44982299999999,-58.8798400000001,0.8736135,0.4766142,0.04070314,-46.1875,1.524964,8.615937
16.171031952,20.15241,-8.03760300000001,-57.3525499999998,0.9257596,0.4309698,0.08908519,-46.56245,-1.060075,8.254484
16.180919647,17.16833,2.083304,-55.51981,0.928156,0.4396171,0.1140521,-46.56245,-1.060075,8.254484
16.190806866,14.80595,5.437326,-56.37509,0.8492434,0.4608806,0.05999178,-46.56245,-1.060075,8.254484
16.200695038,14.37077,-1.09419,-53.74816,0.854338,0.3837886,0.05076872,-46.56245,-1.060075,8.254484
16.210582256,11.01369,-7.56686399999999,-48.4943,0.8614199,0.4431733,0.01729313,-46.56245,-1.060075,8.254484
16.220469475,9.02430599999998,-10.03825,-46.05065,0.8877005,0.4700475,0.02680563,-46.57185,-2.565152,8.664817
16.230357647,9.27297899999999,-9.86171999999999,-44.46227,0.8867283,0.4770249,0.03734953,-46.57185,-2.565152,8.664817
16.240244865,11.51103,-9.97940500000002,-42.93499,0.8958088,0.4609827,0.07302908,-46.57185,-2.565152,8.664817
16.250133038,14.61944,-7.50802099999999,-39.2695,0.9194494,0.4205335,0.0742222,-46.57185,-2.565152,8.664817
16.260020256,16.73316,-4.683581,-37.31458,0.9178734,0.3993984,0.09356406,-46.57185,-2.565152,8.664817
16.269907951,17.66568,-2.859464,-33.52691,0.8941367,0.4125857,0.0929895,-45.83106,-5.529315,9.177495
16.27979517,17.54134,-1.506087,-31.63308,0.9049051,0.4264272,0.07561865,-45.83106,-5.529315,9.177495
16.289683342,15.36546,-0.682292600000002,-29.61706,0.8982022,0.453724,0.07643493,-45.83106,-5.529315,9.177495
16.299570561,13.93559,0.3768721,-27.66214,0.8758845,0.4377831,0.04955852,-45.83106,-5.529315,9.177495
16.309457779,14.80595,-0.917662500000002,-23.56901,0.8555115,0.4317715,0.03561903,-45.83106,-5.529315,9.177495
16.319345951,15.36546,-0.5057651,-18.98716,0.8734092,0.4251561,0.0515432,-45.07073,-6.304838,8.751293
16.32923317,17.35484,0.788769499999999,-14.16094,0.8815914,0.4186102,0.07082243,-45.07073,-6.304838,8.751293
16.339120865,20.77409,3.436681,-11.90056,0.9042283,0.3793669,0.08739778,-45.07073,-6.304838,8.751293
16.34900856,23.63382,5.90806599999998,-7.19651999999998,0.8944559,0.3613834,0.0884394,-45.07073,-6.304838,8.751293
16.358896256,26.6179,7.79102499999999,-2.675757,0.8798749,0.3560629,0.08893062,-45.07073,-6.304838,8.751293
16.371255398,29.5398,7.67334000000002,-0.4153753,0.8821495,0.3306456,0.1155123,-45.46476,-7.733027,9.606132
16.381143093,33.08339,8.26176499999998,0.928635399999997,0.9258802,0.3417086,0.1121397,-45.46476,-7.733027,9.606132
16.391030789,37.80817,10.08588,6.79340899999997,0.9192561,0.38294,0.1003817,-45.46476,-7.733027,9.606132
16.400918007,40.4814,12.61611,12.29163,0.8777534,0.417836,0.05110421,-45.46476,-7.733027,9.606132
16.410806179,44.39799,13.4399,15.71275,0.8522651,0.4367945,-0.01971597,-45.46476,-7.733027,9.606132
16.420693398,42.47078,11.91,16.20148,0.8378977,0.4450541,-0.08806483,-45.83641,-8.490779,9.219043
16.430581093,39.42454,9.438614,17.72877,0.8363321,0.4889631,-0.1806253,-45.83641,-8.490779,9.219043
16.440468788,34.88626,4.378161,17.78986,0.8703741,0.5138597,-0.1720559,-45.83641,-8.490779,9.219043
16.450356484,25.68537,2.377517,18.09532,0.8513942,0.519191,-0.14373,-45.83641,-8.490779,9.219043
16.460243702,17.35484,-2.329882,16.7513,0.802498,0.5782033,-0.1118621,-45.83641,-8.490779,9.219043
16.470130921,12.44355,-7.97876099999998,14.79638,0.7710025,0.6356505,-0.05207312,-46.21201,-7.729134,9.199855
16.480019093,6.288907,-13.09806,13.39128,0.7742828,0.6557924,0.02525712,-46.21201,-7.729134,9.199855
16.489906311,-0.984768300000001,-16.15787,13.63565,0.8191542,0.6350061,0.1066888,-46.21201,-7.729134,9.199855
16.499794483,-8.00976999999999,-16.39324,16.8124,0.8597007,0.6079822,0.1612156,-46.21201,-7.729134,9.199855
16.509681702,-13.16973,-15.74597,18.58405,0.8605589,0.5658942,0.1474825,-46.21201,-7.729134,9.199855
16.519569397,-15.59429,-15.27523,19.01169,0.8556813,0.5496333,0.1340934,-46.21469,-5.516628,9.558031
16.529456616,-15.65645,-15.5106,17.24004,0.881448,0.5418539,0.1057876,-46.21469,-5.516628,9.558031
16.539344788,-15.15911,-12.15658,15.16293,0.8984189,0.5120713,0.07036927,-46.21469,-5.516628,9.558031
16.549232006,-13.48057,-8.15528900000001,13.08582,0.8955072,0.4951541,0.04592447,-46.21469,-5.516628,9.558031
16.559119224,-9.066629,-5.625061,11.00872,0.9017566,0.465666,0.02876743,-46.21469,-5.516628,9.558031
16.569007397,-3.906672,-2.800622,8.87051700000001,0.9114359,0.4568673,0.02786106,-45.46077,-5.52768,9.575191
16.578894615,0.880276599999999,-0.2115527,7.77087200000001,0.9095123,0.4687017,0.03741749,-45.46077,-5.52768,9.575191
16.591254711,2.372312,1.141824,7.09886600000001,0.8917031,0.5011325,0.02184388,-45.46077,-5.52768,9.575191
16.60114193,1.874967,0.729926999999997,7.037775,0.8893171,0.5048603,0.01028023,-45.46077,-5.52768,9.575191
16.611029625,2.061472,0.4945571,7.09886600000001,0.8917182,0.4910843,0.001215074,-46.21264,-4.382451,9.542119
16.620916843,3.367003,0.788769499999999,7.70977999999998,0.8902578,0.4841477,-0.006927192,-46.21264,-4.382451,9.542119
16.630804539,5.356384,1.847934,7.70977999999998,0.8868063,0.47703,0.005127878,-46.21264,-4.382451,9.542119
16.640692234,6.78625199999999,3.318996,7.40432299999999,0.8766613,0.4931698,0.008401232,-46.21264,-4.382451,9.542119
16.650579452,6.78625199999999,4.201633,6.54904400000003,0.8602002,0.5068728,0.01071787,-46.21264,-4.382451,9.542119
16.660467625,6.102402,4.790059,5.632673,0.8631139,0.5153177,0.02222062,-45.83705,-5.144096,9.561307
16.670354843,4.672534,5.260798,4.716302,0.8645726,0.520772,0.02892761,-45.83705,-5.144096,9.561307
16.680242538,2.993994,5.79037999999999,3.861022,0.8606507,0.5105754,0.03041744,-45.83705,-5.144096,9.561307
16.690130234,1.564126,5.90806599999998,2.88356,0.8529088,0.5034714,0.01024585,-45.83705,-5.144096,9.561307
16.700017452,0.2585949,6.08459299999998,1.967189,0.8548122,0.4867891,0.002156658,-45.83705,-5.144096,9.561307
16.709905147,-1.419945,5.555011,2.089372,0.8455889,0.4723838,-0.01797972,-45.83443,-3.694869,9.540976
16.719792366,-1.730786,4.260476,2.88356,0.8615375,0.451886,-0.01881985,-45.83443,-3.694869,9.540976
16.729680538,-1.668618,4.319319,3.861022,0.8745797,0.4418069,-0.007211978,-45.83443,-3.694869,9.540976
16.739567757,-1.357777,4.554688,4.65521,0.8628978,0.4400475,0.003844815,-45.83443,-3.694869,9.540976
16.749455929,-1.233441,3.966264,4.960668,0.8629379,0.4472582,-0.002443551,-45.83443,-3.694869,9.540976
16.759343147,-1.482114,2.612886,4.838485,0.8745887,0.4477221,-0.002432649,-46.20597,-4.389611,9.153003
16.769230843,-1.668618,1.436037,4.349754,0.8843432,0.455866,-0.01015745,-46.20597,-4.389611,9.153003
16.779118538,-2.103795,1.024139,4.471936,0.8790616,0.4704418,-0.01312263,-46.20597,-4.389611,9.153003
16.789006233,-2.974149,0.1415022,4.410845,0.8591883,0.4752858,-0.017498,-46.20597,-4.389611,9.153003
16.798893452,-2.974149,-1.09419,4.227571,0.8683986,0.4892761,0.00744967,-46.20597,-4.389611,9.153003
16.811252594,-2.663309,-1.035347,3.127926,0.8668919,0.4871103,0.02525298,-46.21196,-4.004392,9.536816
16.821140766,-1.668618,-0.3292377,1.295184,0.8697875,0.4926839,0.04013666,-46.21196,-4.004392,9.536816
16.831027985,-1.233441,1.200667,-2.003752,0.8805425,0.5314912,0.06399884,-46.21196,-4.004392,9.536816
16.840916157,-2.911981,4.142791,-5.48596,0.8665909,0.5615875,0.05565523,-46.21196,-4.004392,9.536816
16.850803375,-5.150035,5.025428,-9.94563200000002,0.8594078,0.5873597,0.05215038,-46.21196,-4.004392,9.536816
16.860691071,-6.08255700000002,6.20227800000001,-14.09985,0.8637974,0.6001555,0.06170913,-45.84346,-4.379624,10.00467
16.870578766,-6.51773500000002,7.84986700000002,-17.15442,0.8715121,0.5870286,0.06418884,-45.84346,-4.379624,10.00467
16.880465984,-6.02038900000001,9.67398500000002,-19.59807,0.8651696,0.573313,0.05799897,-45.84346,-4.379624,10.00467
16.89035368,-6.57990299999997,11.79231,-21.73627,0.8492264,0.5863125,0.04589212,-45.84346,-4.379624,10.00467
16.900240898,-7.57459399999998,13.20453,-23.75229,0.8268901,0.5814368,0.04252492,-45.84346,-4.379624,10.00467
16.91012907,-6.57990299999997,13.20453,-26.19594,0.8346092,0.5692765,0.04451882,-46.20529,-4.011552,9.147699
16.920016289,-5.398708,14.2637,-28.51742,0.8525355,0.555513,0.03835679,-46.20529,-4.011552,9.147699
16.929904461,-3.347158,15.26402,-31.14435,0.8597475,0.5350325,0.03750664,-46.20529,-4.011552,9.147699
16.939791679,-0.922600200000001,16.91161,-33.83237,0.8714349,0.5467106,0.03842276,-46.20529,-4.011552,9.147699
16.949679375,1.564126,18.61804,-37.43676,0.8607887,0.5539927,0.03548833,-46.20529,-4.011552,9.147699
16.959566593,4.050853,19.67721,-41.77425,0.8507089,0.5801714,0.02620707,-46.19956,-5.154083,8.709641
16.969454288,5.729393,20.38332,-44.88991,0.8167652,0.5909801,0.02803754,-46.19956,-5.154083,8.709641
16.979341984,5.85373000000002,20.20679,-48.00557,0.8158537,0.6080251,0.02795037,-46.19956,-5.154083,8.709641
16.989229202,5.480721,19.91258,-48.73867,0.8017696,0.5946681,0.01213146,-46.19956,-5.154083,8.709641
16.999117374,5.16988,19.26531,-50.38813,0.7929907,0.5775343,0.004994248,-46.19956,-5.154083,8.709641
17.009004593,5.16988,17.61772,-50.69359,0.7697748,0.5914932,-0.0090494,-46.18716,-6.303773,7.882466
17.018892288,6.102402,13.79296,-51.30451,0.7813795,0.5713472,-0.01951466,-46.18716,-6.303773,7.882466
17.031251907,11.94621,12.02768,-53.80925,0.8046359,0.5720614,-0.001216829,-46.18716,-6.303773,7.882466
17.041139603,12.87873,11.79231,-55.88636,0.7940481,0.5934075,-0.008069631,-46.18716,-6.303773,7.882466
17.051026821,12.50572,11.0862,-58.2689199999998,0.7922286,0.6409113,0.009482328,-46.18716,-6.303773,7.882466
17.060914516,12.81656,12.20421,-62.1176799999999,0.8038743,0.656336,0.03298276,-45.8082,-8.899864,7.538174
17.070802212,15.61413,13.61643,-64.9278899999999,0.7991175,0.6836002,0.03187773,-45.8082,-8.899864,7.538174
17.08068943,17.91435,15.67592,-67.2493599999998,0.8013953,0.6631385,0.06420543,-45.8082,-8.899864,7.538174
17.090577602,18.84688,16.91161,-67.8602699999999,0.7797561,0.729579,0.07538719,-45.8082,-8.899864,7.538174
17.100464821,20.46325,18.08846,-71.8312100000002,0.763783,0.7517246,0.08872291,-45.8082,-8.899864,7.538174
17.110352516,17.29267,19.08878,-74.8246900000002,0.7266151,0.8037436,0.07783752,-45.04338,-11.51103,6.683639
17.120240212,16.29798,18.5592,-80.0785500000003,0.7256628,0.8110929,0.08068481,-45.04338,-11.51103,6.683639
17.130127907,17.91435,16.55856,-84.4771300000002,0.7184797,0.8418424,0.08436864,-45.04338,-11.51103,6.683639
17.140015125,17.16833,15.73476,-88.6313500000002,0.721502,0.8520892,0.05354134,-45.04338,-11.51103,6.683639
17.149902344,19.9659,13.79296,-92.4190099999997,0.7379434,0.8350279,0.05460809,-45.04338,-11.51103,6.683639
17.159790516,19.21988,13.08685,-94.9237599999999,0.7422835,0.8282307,0.05657106,-44.66373,-13.72906,6.334042
17.169677734,20.83626,13.79296,-97.97832,0.7476539,0.8295157,0.04550948,-44.66373,-13.72906,6.334042
17.179565907,20.89842,14.38138,-101.3384,0.7344869,0.8398846,0.08583949,-44.66373,-13.72906,6.334042
17.189453125,21.70661,16.73508,-104.5762,0.7297737,0.874338,0.07700344,-44.66373,-13.72906,6.334042
17.19934082,21.76878,19.44184,-106.7755,0.6836412,0.8805385,0.09471373,-44.66373,-13.72906,6.334042
17.209228039,21.3336,21.14827,-108.8526,0.6498502,0.9222314,0.07763239,-43.97936,-17.45677,6.401927
17.219116211,24.56635,21.79554,-111.5406,0.6459644,0.9217593,0.07811128,-43.97936,-17.45677,6.401927
17.229003429,24.87719,21.26595,-113.6788,0.5979541,0.927561,0.06888987,-43.97936,-17.45677,6.401927
17.238891602,27.9856,21.14827,-115.8781,0.6381836,0.9044511,0.05943397,-43.97936,-17.45677,6.401927
17.251250744,28.66945,17.02929,-116.0614,0.5969891,0.9081189,0.03868899,-43.97936,-17.45677,6.401927
17.261137962,27.30175,13.32222,-118.3829,0.603795,0.9155032,0.04491139,-42.09611,-22.65957,6.063345
17.271026135,24.75285,11.96884,-120.46,0.6219286,0.9487003,0.02023728,-42.09611,-22.65957,6.063345
17.280913353,23.50949,13.55759,-121.4374,0.6030122,0.962588,0.03457323,-42.09611,-22.65957,6.063345
17.290801048,21.95528,15.26402,-121.804,0.5482152,0.9862639,0.04737615,-42.09611,-22.65957,6.063345
17.300688267,22.63913,15.49939,-122.7814,0.5093943,0.9832966,0.03917134,-42.09611,-22.65957,6.063345
17.310576439,24.62852,12.91032,-123.5756,0.4690829,0.9681084,0.02766015,-39.91235,-26.77909,6.624825
17.320463657,24.62852,8.67366199999998,-125.164,0.4787459,0.9375173,0.002336911,-39.91235,-26.77909,6.624825
17.330350876,25.2502,3.789736,-125.2862,0.4908383,0.9337776,0.01439258,-39.91235,-26.77909,6.624825
17.340239048,22.57697,1.906777,-125.9582,0.5079727,0.9537211,-0.0174295,-39.91235,-26.77909,6.624825
17.350126267,20.71192,1.377194,-124.8585,0.4861425,0.9591638,-0.0145963,-39.91235,-26.77909,6.624825
17.360014439,18.72254,2.377517,-123.6978,0.4468305,0.9602154,-0.01464632,-37.34317,-30.53443,6.735611
17.369901657,18.10086,2.671729,-123.9422,0.4132327,0.9539892,0.02045418,-37.34317,-30.53443,6.735611
17.379789353,18.84688,0.847612000000001,-122.5371,0.3899122,0.9462155,0.01854327,-37.34317,-30.53443,6.735611
17.389676571,18.5982,-2.624094,-121.8651,0.3762559,0.9192876,0.007121707,-37.34317,-30.53443,6.735611
17.399564743,16.23581,-4.565897,-120.7654,0.373928,0.9390703,-0.005484855,-37.34317,-30.53443,6.735611
17.409451962,14.24643,-6.50769899999997,-119.2381,0.3868522,0.8849501,-0.0080822,-33.65104,-34.9923,7.270978
17.419340134,12.56789,-8.03760300000001,-115.2672,0.3813765,0.8664156,0.02182234,-33.65104,-34.9923,7.270978
17.429227352,9.52165100000002,-9.50866599999999,-111.2962,0.3701476,0.8409725,0.01231972,-33.65104,-34.9923,7.270978
17.439114571,6.16457000000001,-9.44982299999999,-106.8977,0.3589171,0.8170336,0.005695031,-33.65104,-34.9923,7.270978
17.449002266,4.796871,-9.50866599999999,-102.9267,0.343287,0.7878259,0.004382092,-33.65104,-34.9923,7.270978
17.458889961,2.993994,-9.037926,-98.1005099999999,0.2962509,0.8070393,0.0128881,-29.96585,-38.36946,8.31014
17.47124958,3.553508,-7.50802099999999,-92.1135600000001,0.2718648,0.7924019,0.04034684,-29.96585,-38.36946,8.31014
17.481136799,2.931826,-8.15528900000001,-88.0204299999999,0.2127725,0.8096534,0.01374181,-29.96585,-38.36946,8.31014
17.491024971,1.004613,-8.09644600000001,-85.5767700000001,0.201609,0.8037027,0.005102611,-29.96585,-38.36946,8.31014
17.50091219,-1.482114,-8.03760300000001,-81.78911,0.1943698,0.8069386,-0.00742592,-26.64806,-41.37257,8.816594
17.510800362,-1.295609,-8.39065799999998,-77.5127099999998,0.186107,0.8080223,-0.001188818,-26.64806,-41.37257,8.816594
17.52068758,-2.165963,-7.62570600000002,-73.2363100000001,0.1767659,0.7908773,0.02341418,-26.64806,-41.37257,8.816594
17.530574799,-3.533663,-7.62570600000002,-68.10464,0.1708844,0.7748267,0.02396952,-26.64806,-41.37257,8.816594
17.540462494,-3.595831,-6.68422599999997,-63.5227799999998,0.1445671,0.7407204,0.01930273,-26.64806,-41.37257,8.816594
17.550350189,-2.476804,-5.625061,-60.1627599999998,0.1474754,0.720834,-0.007525046,-23.0081,-43.63134,8.930474
17.560237884,-2.849813,-5.74274599999998,-55.09217,0.111162,0.7427322,-0.01344805,-23.0081,-43.63134,8.930474
17.570125103,-1.60645,-6.09580100000001,-52.09869,0.09242701,0.7957821,-0.01806572,-23.0081,-43.63134,8.930474
17.580013275,-1.233441,-7.62570600000002,-48.12775,0.0619388,0.814181,-0.02925454,-23.0081,-43.63134,8.930474
17.589900494,1.688463,-7.97876099999998,-44.951,0.07501414,0.820315,-0.008110147,-23.0081,-43.63134,8.930474
17.599788189,2.80749,-8.979083,-42.69062,0.06731518,0.8238879,-0.03074025,-20.74702,-44.04256,8.987258
17.609675884,3.304835,-9.97940500000002,-38.5975,0.06100943,0.8368127,-0.01398049,-20.74702,-44.04256,8.987258
17.619563579,3.677844,-8.979083,-35.42075,0.05518424,0.8577291,0.01620522,-20.74702,-44.04256,8.987258
17.629450798,1.812799,-8.21413099999998,-32.73272,0.01349099,0.8883547,0.03956818,-20.74702,-44.04256,8.987258
17.639338016,-1.357777,-7.15496600000002,-30.59452,0.01159048,0.9055167,0.04717403,-20.74702,-44.04256,8.987258
17.649226189,-3.720167,-6.03695899999998,-28.82287,0.005758424,0.9274716,0.08168277,-18.92709,-45.20344,9.044641
17.659113407,-7.94760199999998,-6.390014,-25.70721,-0.01123699,0.9056552,0.05339935,-18.92709,-45.20344,9.044641
17.669001579,-11.73986,-6.50769899999997,-23.81338,-0.01266391,0.8999997,0.03322762,-18.92709,-45.20344,9.044641
17.678888798,-14.35092,-6.860754,-21.85846,-0.02092574,0.8886364,0.02125262,-18.92709,-45.20344,9.044641
17.691248417,-15.71862,-8.21413099999998,-19.29262,-0.02284998,0.8651424,-0.01950913,-18.92709,-45.20344,9.044641
17.701136112,-14.04008,-8.861399,-17.2766,-0.008823912,0.8574674,-0.009835979,-17.79883,-46.66925,9.090713
17.711023807,-12.11287,-7.97876099999998,-15.19949,-0.01989943,0.8778332,-0.0171653,-17.79883,-46.66925,9.090713
17.720911026,-9.75047899999999,-6.566541,-12.87802,-0.02868994,0.8851568,0.01549032,-17.79883,-46.66925,9.090713
17.730798244,-9.62614300000003,-6.91959600000003,-10.92309,-0.07422928,0.9006279,0.001894575,-17.79883,-46.66925,9.090713
17.740686417,-9.87481500000001,-9.09676800000003,-9.88454100000001,-0.07078144,0.9147354,0.001346284,-17.79883,-46.66925,9.090713
17.750573635,-10.62083,-11.45047,-8.72380399999998,-0.06638437,0.9075787,-0.02073492,-17.10107,-46.68654,8.717325
17.760461807,-11.49119,-14.09838,-8.47943899999997,-0.06102181,0.9049321,-0.03418124,-17.10107,-46.68654,8.717325
17.770349026,-11.98853,-16.33439,-8.35725599999999,-0.06150355,0.8979432,-0.04568857,-17.10107,-46.68654,8.717325
17.780236721,-10.4965,-18.15851,-8.54052999999998,-0.06339914,0.9041263,-0.05582131,-17.10107,-46.68654,8.717325
17.790123939,-7.76109800000001,-20.27684,-9.70126700000002,-0.07545892,0.9196032,-0.06456982,-17.10107,-46.68654,8.717325
17.800012112,-4.65269,-21.86559,-11.04528,-0.08026882,0.9362553,-0.05888838,-15.60904,-47.44925,9.60534
17.80989933,-2.414636,-23.63086,-11.83947,-0.07977467,0.9461514,-0.04835757,-15.60904,-47.44925,9.60534
17.819787502,-1.419945,-25.21961,-12.38929,-0.06867394,0.938067,-0.03387646,-15.60904,-47.44925,9.60534
17.829674721,-0.1765822,-26.63183,-12.26711,-0.07115524,0.9314487,-0.02086097,-15.60904,-47.44925,9.60534
17.839561939,0.5694358,-28.51479,-12.57256,-0.07941132,0.9354757,-0.01319597,-15.60904,-47.44925,9.60534
17.849450111,0.2585949,-31.10386,-14.64967,-0.13161,0.9894146,-0.02795552,-14.83153,-46.72805,8.314836
17.85933733,-1.046937,-35.16399,-20.94208,-0.1828026,1.05955,-0.0341392,-14.83153,-46.72805,8.314836
17.869225025,-5.460876,-40.40097,-29.31161,-0.1916722,1.14194,-0.06197812,-14.83153,-46.72805,8.314836
17.879112244,-12.29937,-46.63827,-38.84186,-0.2156072,1.203576,-0.1118517,-14.83153,-46.72805,8.314836
17.889000416,-17.21066,-51.69873,-45.43973,-0.208288,1.206304,-0.1238802,-14.83153,-46.72805,8.314836
17.898887634,-17.5215,-55.87654,-49.28849,-0.1672271,1.143763,-0.132174,-15.22362,-47.08507,9.154646
17.91124773,-14.41309,-60.8193099999999,-51.91542,-0.1302394,1.050584,-0.1056914,-15.22362,-47.08507,9.154646
17.921134949,-12.17504,-64.2910199999997,-53.87035,-0.1405827,1.01871,-0.08919074,-15.22362,-47.08507,9.154646
17.931022167,-8.88012499999997,-67.5861999999999,-56.37509,-0.1310076,1.014054,-0.04106421,-15.22362,-47.08507,9.154646
17.940910339,-8.13410699999998,-69.4103100000003,-59.6129400000001,-0.1323963,1.041498,-0.02966237,-15.22362,-47.08507,9.154646
17.950797558,-6.51773500000002,-70.9990600000003,-63.0951400000003,-0.1538393,1.040096,0.003984805,-12.65824,-48.62671,9.688462
17.960685253,-5.77171700000003,-72.5289600000002,-65.1111599999999,-0.1443547,1.017101,0.06326508,-12.65824,-48.62671,9.688462
17.970572472,-6.39339799999998,-72.6466500000001,-66.1497100000001,-0.09075892,0.956565,0.09296811,-12.65824,-48.62671,9.688462
17.980460644,-6.952912,-71.5286400000002,-63.8282400000003,-0.04068438,0.8654658,0.1300354,-12.65824,-48.62671,9.688462
17.990347862,-7.57459399999998,-69.2926300000001,-59.4296599999998,-0.03371688,0.7987561,0.1640449,-12.65824,-48.62671,9.688462
18.000236034,-7.512425,-64.87944,-52.15979,-0.01075492,0.7197189,0.1899592,-8.960065,-49.74506,10.17698
18.010123253,-4.839194,-59.2894099999999,-43.11826,0.03005002,0.6179898,0.231398,-8.960065,-49.74506,10.17698
18.020010948,-0.3630867,-52.16946,-32.1829,0.05007828,0.5331222,0.2578194,-8.960065,-49.74506,10.17698
18.029898167,5.729393,-43.34309,-19.72026,0.0938429,0.443031,0.2963171,-8.960065,-49.74506,10.17698
18.039786339,12.7544,-32.81029,-5.547052,0.09310151,0.3874214,0.322567,-8.960065,-49.74506,10.17698
18.049673557,20.15241,-22.80707,9.17597399999999,0.09779479,0.3516006,0.337662,-6.753779,-49.40639,9.832606
18.059560776,26.74223,-14.21606,23.22699,0.1123422,0.357631,0.3520757,-6.753779,-49.40639,9.832606
18.069448948,30.22365,-5.389691,37.52238,0.140941,0.3468688,0.3526435,-6.753779,-49.40639,9.832606
18.079336166,31.65352,1.789092,51.39013,0.1482932,0.3513786,0.3295448,-6.753779,-49.40639,9.832606
18.089223862,31.03184,8.20292199999998,65.6244200000002,0.1877184,0.3570775,0.2925299,-6.753779,-49.40639,9.832606
18.099111557,30.53449,15.44055,80.65291,0.2115797,0.3416095,0.2382911,-4.954972,-50.54461,11.12219
18.108999252,30.72099,21.50132,95.8646600000002,0.2102236,0.3275443,0.1768028,-4.954972,-50.54461,11.12219
18.118886471,32.52387,25.6203,110.9542,0.2293028,0.3320363,0.1214959,-4.954972,-50.54461,11.12219
18.131246567,36.31613,30.85728,130.3813,0.2716869,0.336439,0.06333037,-4.954972,-50.54461,11.12219
18.141133785,38.92719,34.09362,146.876,0.3125996,0.3568657,0.0344184,-4.954972,-50.54461,11.12219
18.151021004,40.91657,36.9769,162.271,0.3414552,0.3952398,-0.0008499434,-7.557034,-48.96358,12.72852
18.160909176,43.27896,38.15375,176.1998,0.3586797,0.4424812,-0.03088619,-7.557034,-48.96358,12.72852
18.170796394,44.46016,38.09491,188.1127,0.3832704,0.502604,-0.07781139,-7.557034,-48.96358,12.72852
18.18068409,47.13339,37.74185,197.9484,0.4058787,0.5609986,-0.1103025,-7.557034,-48.96358,12.72852
18.190571785,50.4283,38.74217,206.6234,0.4599187,0.5961875,-0.1272511,-7.557034,-48.96358,12.72852
18.20045948,53.78538,42.39041,216.5202,0.5178312,0.6249666,-0.1489721,-14.22182,-47.40837,13.01058
18.210346699,58.2614899999999,45.92096,227.761,0.5756633,0.6587322,-0.1303211,-14.22182,-47.40837,13.01058
18.220234871,64.0431300000002,52.57016,239.3073,0.6302086,0.7137002,-0.1271704,-14.22182,-47.40837,13.01058
18.230122089,68.5192299999998,57.8071399999997,250.3648,0.7122484,0.7338696,-0.102652,-14.22182,-47.40837,13.01058
18.240010262,72.0006499999997,60.74926,262.1554,0.7634864,0.7947431,-0.1283902,-14.22182,-47.40837,13.01058
18.24989748,72.5601699999998,61.33769,270.2195,0.8525729,0.8705385,-0.128191,-22.3413,-43.17006,14.0657
18.259785175,70.50861,58.6309300000001,275.7788,0.9396176,0.9210956,-0.1225765,-22.3413,-43.17006,14.0657
18.269672394,67.8353799999999,57.6894499999999,280.7883,0.9923849,1.00539,-0.1450648,-22.3413,-43.17006,14.0657
18.279559612,62.6132599999997,54.27659,284.0872,1.055109,1.051843,-0.1240677,-22.3413,-43.17006,14.0657
18.289447784,55.15308,52.80553,287.7527,1.117085,1.163075,-0.102437,-22.3413,-43.17006,14.0657
18.299335003,45.70352,51.68752,292.3346,1.18396,1.239678,-0.1489164,-31.18723,-36.0461,13.76595
18.309223175,32.71038,45.39137,293.0677,1.190175,1.26407,-0.2755149,-31.18723,-36.0461,13.76595
18.319110394,20.77409,29.38622,296.6721,1.114661,1.386258,-0.3863491,-31.18723,-36.0461,13.76595
18.328998089,21.95528,19.91258,288.6691,1.254751,1.40008,-0.2900755,-31.18723,-36.0461,13.76595
18.338885784,32.83471,20.32447,277.245,1.245891,1.517246,-0.2719217,-31.18723,-36.0461,13.76595
18.351245403,48.37675,27.1502,254.519,1.282287,1.58241,-0.1755445,-39.64296,-25.91155,12.97837
18.361132622,60.62388,32.6814,233.6868,1.271413,1.567246,-0.1163269,-39.64296,-25.91155,12.97837
18.37101984,60.0643700000002,48.80424,217.5587,1.125679,1.606535,-0.2114326,-39.64296,-25.91155,12.97837
18.380908012,43.52764,60.98463,194.8938,1.003446,1.63015,-0.2116909,-39.64296,-25.91155,12.97837
18.390795231,13.93559,67.7515200000001,171.8013,0.8450441,1.650859,-0.31345,-44.06002,-14.02417,11.41359
18.400683403,-19.13787,62.0438000000001,149.9916,0.6553928,1.733434,-0.4506646,-44.06002,-14.02417,11.41359
18.410570622,-57.8686399999999,57.5129200000002,129.9537,0.4177043,1.857312,-0.5352411,-44.06002,-14.02417,11.41359
18.420458317,-79.68967,41.97851,108.2662,0.1825447,1.796078,-0.5255806,-44.06002,-14.02417,11.41359
18.430346012,-84.9739599999999,19.38299,83.4631099999997,0.1047243,1.804708,-0.4473225,-44.06002,-14.02417,11.41359
18.440233708,-101.4485,7.73218199999999,63.1196799999997,0.06400128,1.834837,-0.4244369,-45.44427,-4.409016,8.716193
18.450120926,-127.124,-8.27297300000001,46.68609,-0.05486192,1.679052,-0.4694723,-45.44427,-4.409016,8.716193
18.460009098,-138.3764,-29.57395,39.11076,-0.04800086,1.198725,-0.3814333,-45.44427,-4.409016,8.716193
18.469896317,-117.4257,-56.46497,24.20446,0.1825247,0.6638082,-0.3318188,-45.44427,-4.409016,8.716193
18.479784012,-102.381,-79.2370099999999,23.34918,0.4494357,0.13142,-0.2711144,-45.44427,-4.409016,8.716193
18.489671707,-100.7647,-92.0646700000001,41.85987,0.7108343,-0.2447599,-0.3165274,-45.82965,-1.048454,9.503847
18.499559403,-115.685,-99.9495599999998,66.9684399999999,0.8668647,-0.1589049,-0.2860049,-45.82965,-1.048454,9.503847
18.509446621,-142.3552,-98.0077600000001,83.0354700000002,0.9004916,-0.01402305,-0.1347277,-45.82965,-1.048454,9.503847
18.51933384,-155.2861,-95.0067899999998,95.00938,0.9194891,0.03328335,-0.09502876,-45.82965,-1.048454,9.503847
18.529222012,-135.3923,-102.1856,102.3404,1.093765,-0.1199222,-0.1238735,-45.82965,-1.048454,9.503847
18.53910923,-88.2066999999999,-113.3656,118.5907,1.47468,-0.5094135,-0.03394453,-46.64316,-1.352215,12.92919
18.548997402,-35.11509,-94.94795,136.857,1.969183,-0.8080575,0.3821999,-46.64316,-1.352215,12.92919
18.558884621,15.55196,-43.93152,145.593,2.142612,-0.751543,0.6023734,-46.64316,-1.352215,12.92919
18.57124424,66.9028599999998,16.6174,136.3072,1.939011,-0.2474041,0.6149837,-46.64316,-1.352215,12.92919
18.581131935,74.4252100000001,47.45086,121.0954,1.596521,0.2006514,0.375717,-46.64316,-1.352215,12.92919
18.59101963,60.74822,55.68881,112.6648,1.323782,0.5480349,0.2524593,-45.16554,1.625331,14.99725
18.600906849,34.76192,58.0425099999998,100.9963,1.150704,0.6798908,0.1563739,-45.16554,1.625331,14.99725
18.610794067,14.3086,58.4544100000001,88.2282399999999,0.999521,0.6755999,0.04464997,-45.16554,1.625331,14.99725
18.620682239,-4.901362,53.15858,74.1772200000001,0.9481631,0.5771668,0.06624951,-45.16554,1.625331,14.99725
18.630569458,-19.01353,51.09909,65.1967800000001,0.8459339,0.4986483,0.07759124,-45.16554,1.625331,14.99725
18.64045763,-31.5715,45.27369,56.88835,0.7825974,0.418662,0.06109118,-44.06499,7.887988,13.70096
18.650344849,-42.01575,38.38912,51.51231,0.7461199,0.3604831,0.008442389,-44.06499,7.887988,13.70096
18.660232544,-50.47063,29.32737,45.28099,0.7063336,0.3480285,-0.01558596,-44.06499,7.887988,13.70096
18.670119762,-54.69806,25.73798,39.66058,0.6902963,0.3496792,-0.005032278,-44.06499,7.887988,13.70096
18.680007934,-46.74054,25.67914,35.38418,0.6901371,0.2536458,-0.07668533,-44.06499,7.887988,13.70096
18.689895153,-42.57527,26.50294,34.28453,0.7627336,0.1314159,-0.1644746,-43.65335,10.43365,11.92227
18.699783325,-35.36376,22.14859,29.88596,0.8160039,0.131001,-0.3154212,-43.65335,10.43365,11.92227
18.709670544,-20.19473,21.61901,18.70623,0.8951257,0.1904461,-0.4329763,-43.65335,10.43365,11.92227
18.719558239,-8.13410699999998,22.03091,8.80942499999997,0.8703545,0.2800972,-0.4983819,-43.65335,10.43365,11.92227
18.729445934,2.061472,17.26466,-0.5375581,0.7534767,0.3155396,-0.4885945,-43.65335,10.43365,11.92227
18.73933363,1.43979,0.4357146,-8.05179900000001,0.6519348,0.3477122,-0.4023068,-43.65977,11.19812,12.36563
18.749220848,-1.233441,-19.57073,-11.71728,0.6758158,0.3381709,-0.2555505,-43.65977,11.19812,12.36563
18.75910902,-6.57990299999997,-27.2791,-16.05477,0.7839547,0.2709887,-0.1093689,-43.65977,11.19812,12.36563
18.768996239,-12.54805,-23.80739,-20.51444,0.9038078,0.2013826,0.006540144,-43.65977,11.19812,12.36563
18.778883457,-18.08101,-16.21671,-23.99665,0.9547881,0.1156688,0.07820757,-43.65977,11.19812,12.36563
18.791243553,-25.23035,-16.04018,-24.11884,0.992952,0.05453049,0.06557504,-44.02103,11.88124,11.50424
18.801130772,-26.28721,-21.27716,-22.89701,1.018991,0.01774402,0.08406554,-44.02103,11.88124,11.50424
18.811018467,-22.68146,-20.57105,-19.35371,1.057738,-0.001717089,0.09045992,-44.02103,11.88124,11.50424
18.820906162,-17.64584,-16.92282,-17.52097,1.084524,0.007115375,0.06591877,-44.02103,11.88124,11.50424
18.830793858,-13.85358,-14.56912,-14.83294,1.080647,-0.004858532,0.0462571,-44.02103,11.88124,11.50424
18.840681076,-9.93698300000002,-12.39195,-11.77837,1.075787,-0.01276954,0.03763497,-44.04451,11.212,12.81102
18.850569248,-6.02038900000001,-10.74436,-8.96817000000001,1.073346,-0.01267845,0.04340279,-44.04451,11.212,12.81102
18.860456467,-2.041627,-8.15528900000001,-7.01324599999999,1.09277,-0.007797,0.04676666,-44.04451,11.212,12.81102
18.870343685,1.999303,-5.389691,-5.241595,1.095757,0.007650095,0.03803542,-44.04451,11.212,12.81102
18.880231857,6.66191600000002,-3.859787,-3.653219,1.089519,0.01865378,0.02402601,-44.04451,11.212,12.81102
18.890119076,10.82718,-3.565574,-1.820477,1.086194,0.04059468,0.02535411,-44.36668,10.46764,13.2036
18.900006771,14.37077,-1.976827,-0.4153753,1.082896,0.06734032,0.02232968,-44.36668,10.46764,13.2036
18.90989399,16.60882,0.02381719,0.5009956,1.070376,0.09560098,0.02169172,-44.36668,10.46764,13.2036
18.919782162,16.67099,1.024139,1.478458,1.048656,0.1217451,0.008550039,-44.36668,10.46764,13.2036
18.92966938,16.29798,0.906454499999998,1.967189,1.022528,0.1386962,-0.001183751,-44.36668,10.46764,13.2036
18.939557552,15.48979,0.3768721,2.394829,1.005137,0.1546274,-0.01282613,-43.30777,9.704223,13.69248
18.949444771,15.17895,-0.2703952,2.639194,0.9964221,0.154508,-0.02197294,-43.30777,9.704223,13.69248
18.959332466,15.05462,-0.3292377,2.822469,0.9862296,0.1609951,-0.01287981,-43.30777,9.704223,13.69248
18.969219685,14.99245,0.0826596800000002,2.761377,0.988149,0.1606337,-0.004219224,-43.30777,9.704223,13.69248
18.979107857,14.68161,0.788769499999999,2.639194,0.9852514,0.1655234,-0.003285386,-43.30777,9.704223,13.69248
18.988995075,14.74378,1.494879,2.761377,0.9886321,0.1606472,-0.003256901,-44.04655,10.07782,12.82693
18.998883247,13.93559,2.377517,3.433383,0.9828104,0.1621339,-0.002309191,-44.04655,10.07782,12.82693
19.01124239,12.31922,1.789092,4.288662,0.9809748,0.1778906,-0.02355143,-44.04655,10.07782,12.82693
19.021129608,10.019,0.612241999999999,4.899576,0.9790499,0.174306,-0.03555853,-44.04655,10.07782,12.82693
19.03101778,7.47010199999997,-0.799977499999998,5.388307,0.9539113,0.1846659,-0.06257105,-44.04655,10.07782,12.82693
19.040904999,4.796871,-1.682615,4.838485,0.9462277,0.2080476,-0.06317885,-44.05391,9.706922,13.22135
19.050792694,0.818108400000001,-3.683259,4.16648,0.9598098,0.2045905,-0.0645887,-44.05391,9.706922,13.22135
19.060679913,-1.295609,-5.91927400000001,4.227571,0.9825729,0.203365,-0.04580071,-44.05391,9.706922,13.22135
19.070568085,-1.917291,-6.09580100000001,3.677748,1.003851,0.2023223,-0.0149923,-44.05391,9.706922,13.22135
19.080455303,-1.233441,-5.448534,3.799931,1.012988,0.1913991,0.004791051,-44.05391,9.706922,13.22135
19.090343475,0.0720904500000002,-5.330849,3.616657,1.013335,0.1574413,0.01361962,-43.3064,10.46034,13.68188
19.100230694,0.7559403,-6.331171,3.555565,1.005039,0.140321,0.007444732,-43.3064,10.46034,13.68188
19.110118389,0.0720904500000002,-6.801911,3.677748,0.9972438,0.1216094,-0.007378129,-43.3064,10.46034,13.68188
19.120006084,-0.798263799999999,-7.74339099999999,3.861022,0.98905,0.1177784,-0.03670427,-43.3064,10.46034,13.68188
19.12989378,-0.798263799999999,-7.80223399999999,3.983205,0.9803717,0.1238959,-0.05213453,-43.3064,10.46034,13.68188
19.139780998,-0.1765822,-8.15528900000001,3.677748,0.967365,0.1382281,-0.07242042,-43.68268,10.84393,13.66799
19.149668217,0.631603899999999,-9.037926,3.372291,0.9610331,0.1329057,-0.07095797,-43.68268,10.84393,13.66799
19.159556389,1.937135,-9.80287800000002,3.189017,0.9473984,0.1262448,-0.06228323,-43.68268,10.84393,13.66799
19.169443607,4.050853,-10.3913,2.517012,0.9502205,0.1183493,-0.03627038,-43.68268,10.84393,13.66799
19.17933178,6.47541100000003,-10.56783,1.234092,0.9579484,0.1180771,-0.02087075,-43.68268,10.84393,13.66799
19.189218998,8.34045599999999,-9.92056299999999,-0.4764667,0.9672308,0.1380813,-0.01711391,-43.3064,10.46034,13.68188
19.199106693,9.02430599999998,-8.743713,-2.125934,0.9658316,0.1521553,-0.02055307,-43.3064,10.46034,13.68188
19.208993912,8.58912800000003,-8.15528900000001,-4.386316,0.966481,0.1849574,-0.04139769,-43.3064,10.46034,13.68188
19.218882084,7.097093,-7.68454900000002,-6.46342299999997,0.9767212,0.2015582,-0.03714165,-43.3064,10.46034,13.68188
19.231241226,4.983376,-6.68422599999997,-9.82344899999998,0.9952098,0.2166675,-0.03383054,-42.56693,10.4648,14.54212
19.241129398,3.429171,-6.09580100000001,-12.87802,1.010224,0.2168463,-0.01986766,-42.56693,10.4648,14.54212
19.251016617,2.061472,-5.095479,-15.93259,1.027641,0.2057199,-0.01257781,-42.56693,10.4648,14.54212
19.260904312,1.004613,-3.977472,-19.4148,1.04995,0.2003193,-0.01252516,-42.56693,10.4648,14.54212
19.270792008,-0.1765822,-2.800622,-23.56901,1.071339,0.2070368,-0.01638215,-42.56693,10.4648,14.54212
19.280679703,-1.855123,-0.799977499999998,-28.21196,1.100476,0.2004189,-0.03170505,-42.93611,10.46197,14.07957
19.290566921,-2.911981,1.377194,-33.03818,1.108212,0.1851643,-0.04123759,-42.93611,10.46197,14.07957
19.30045414,-3.720167,3.377839,-37.31458,1.10535,0.1962979,-0.04610632,-42.93611,10.46197,14.07957
19.310342312,-3.409327,5.437326,-41.22443,1.112586,0.194079,-0.0306974,-42.93611,10.46197,14.07957
19.32022953,-2.352468,5.084271,-45.19537,1.090672,0.179149,-0.02247122,-42.93611,10.46197,14.07957
19.330117703,0.3829313,5.260798,-46.84483,1.079344,0.1598104,0.018011,-43.31307,10.4675,14.07099
19.340004921,5.480721,12.43958,-46.90593,1.09653,0.1451665,0.1157315,-43.31307,10.4675,14.07099
19.349892616,9.33514699999999,20.32447,-45.74519,1.06757,0.1735584,0.08910445,-43.31307,10.4675,14.07099
19.359779835,12.44355,23.61965,-45.6841,1.059859,0.1966184,0.09955942,-43.31307,10.4675,14.07099
19.369668007,15.92497,26.67946,-45.80628,1.028423,0.2128846,0.07587634,-43.31307,10.4675,14.07099
19.379555225,20.89842,33.44635,-45.50082,1.047683,0.2028741,0.1254837,-44.38511,8.277812,14.07762
19.389443398,23.75816,39.7425,-45.25646,1.007618,0.2334063,0.07767268,-44.38511,8.277812,14.07762
19.399330616,23.57166,41.39008,-46.96702,0.9792984,0.2886851,0.02542165,-44.38511,8.277812,14.07762
19.409218311,21.58228,41.03703,-49.28849,0.9547908,0.3339533,-0.01186589,-44.38511,8.277812,14.07762
19.41910553,20.58758,40.15439,-52.40415,0.9447126,0.3596233,-0.02258733,-44.38511,8.277812,14.07762
19.428993702,22.76347,39.15407,-54.9089,0.9290829,0.3542997,0.01012443,-44.04481,6.729944,12.41982
19.438880921,23.19865,39.50713,-55.39763,0.8961459,0.3623914,-0.006786144,-44.04481,6.729944,12.41982
19.451240063,25.2502,36.44732,-57.9634700000001,0.8592041,0.3384168,-0.01921095,-44.04481,6.729944,12.41982
19.461128235,27.17741,32.56371,-60.3460299999998,0.8562899,0.3439085,-0.01058543,-44.04481,6.729944,12.41982
19.471015453,27.48825,30.38654,-63.0340499999999,0.8810316,0.3613558,0.01965256,-44.04481,6.729944,12.41982
19.480903626,26.86657,32.09297,-66.3940699999999,0.8913673,0.397756,0.01274748,-45.47021,5.278034,11.1102
19.490790844,25.49887,32.62255,-70.4261099999998,0.8861935,0.4430022,0.009146503,-45.47021,5.278034,11.1102
19.500678539,24.19334,32.62255,-73.4195899999998,0.8701895,0.4489204,0.01198393,-45.47021,5.278034,11.1102
19.510566235,22.32829,30.85728,-75.6799699999998,0.8523117,0.4763112,0.01759624,-45.47021,5.278034,11.1102
19.52045393,20.71192,29.092,-77.0850700000003,0.8614347,0.460497,0.03596152,-45.47021,5.278034,11.1102
19.530341148,19.7794,27.32673,-78.0014400000002,0.8639644,0.4827335,0.02527177,-45.44666,2.285543,9.465575
19.540229321,19.21988,25.14956,-79.89527,0.8829548,0.4927638,0.01466241,-45.44666,2.285543,9.465575
19.550116539,18.03869,23.56081,-80.5061899999998,0.9004726,0.5108614,0.02228562,-45.44666,2.285543,9.465575
19.560004234,16.60882,22.56049,-79.6509100000002,0.9037966,0.500372,0.03773187,-45.44666,2.285543,9.465575
19.56989193,13.87342,21.91322,-79.4065400000001,0.8858533,0.5112569,0.04679397,-45.44666,2.285543,9.465575
19.579779625,11.5732,21.20711,-78.9789,0.865481,0.5132018,0.04387545,-46.19091,-0.3653322,8.642457
19.589666843,10.64068,18.38267,-78.0014400000002,0.8586026,0.4799015,0.03057012,-46.19091,-0.3653322,8.642457
