Time (s),Gyroscope X (deg/s),Gyroscope Y (deg/s),Gyroscope Z (deg/s),Accelerometer X (g),Accelerometer Y (g),Accelerometer Z (g),Magnetometer X (uT),Magnetometer Y (uT),Magnetometer Z (uT)
15.220531464,-4.088998,0.46776,1.564968,0.4593608,-0.1773617,0.9096719,-21.97356,-20.80998,-21.93552
15.230442047,-3.283803,2.85609,1.38088,0.4835168,-0.177447,0.9286544,-21.97356,-20.80998,-21.93552
15.242830753,-2.41667,5.88519199999999,1.503605,0.4821202,-0.1915752,0.9189699,-21.97356,-20.80998,-21.93552
15.252741814,-3.097989,7.63275100000002,2.914952,0.461957,-0.1933499,0.9057002,-21.97356,-20.80998,-21.93552
15.262652397,-5.018068,5.419177,0.767250500000003,0.4426723,-0.1863836,0.8929607,-21.96871,-21.18458,-21.93437
15.272562981,-6.38070599999998,4.195886,0.3377102,0.4353251,-0.1894089,0.8882068,-21.96871,-21.18458,-21.93437
15.282474518,-5.513573,4.195886,0.3990731,0.4343114,-0.1991959,0.8732661,-21.96871,-21.18458,-21.93437
15.292385101,-3.779308,4.428894,0.460436,0.429307,-0.2002925,0.860821,-21.96871,-21.18458,-21.93437
15.302296162,-2.10698,4.370642,0.5217989,0.4195289,-0.1999266,0.861394,-21.96871,-21.18458,-21.93437
15.312207222,-1.363724,3.846374,0.767250500000003,0.4213823,-0.1950773,0.8570878,-21.9784,-20.43538,-21.93668
15.322117806,-0.8682191,3.846374,0.705887599999999,0.4150614,-0.1951384,0.8605069,-21.9784,-20.43538,-21.93668
15.332028866,-1.363724,2.739586,0.3377102,0.4117084,-0.2034377,0.8576017,-21.9784,-20.43538,-21.93668
15.341939449,-1.735352,1.166783,0.03089567,0.4088906,-0.2156092,0.8546657,-21.9784,-20.43538,-21.93668
15.351850033,-1.301785,-0.580775400000001,0.1536215,0.4270363,-0.2148666,0.8607449,-21.9784,-20.43538,-21.93668
15.36176157,-1.054033,-1.745815,0.3990731,0.449671,-0.2198767,0.8686649,-21.60553,-20.43692,-22.32409
15.371672154,-0.3727147,-2.386586,0.6445247,0.4472988,-0.2164549,0.8797532,-21.60553,-20.43692,-22.32409
15.381583214,-0.4965908,-2.736098,0.951339199999998,0.4433562,-0.2126175,0.8812557,-21.60553,-20.43692,-22.32409
15.391494274,0.5563561,-3.668129,0.828613499999998,0.449638,-0.2072109,0.8802733,-21.60553,-20.43692,-22.32409
15.401404858,0.618294100000002,-3.435122,0.889976299999999,0.449019,-0.1843578,0.894356,-21.60553,-20.43692,-22.32409
15.411315918,-1.177909,-2.270082,1.196791,0.4518654,-0.1770495,0.8943783,-21.22989,-20.43532,-21.94057
15.421226502,-1.363724,-1.804067,1.135428,0.4498365,-0.1717461,0.893472,-21.22989,-20.43532,-21.94057
15.431137085,0.680232200000002,-1.804067,1.442243,0.4664371,-0.200331,0.8575964,-21.22989,-20.43532,-21.94057
15.441048622,4.644268,-1.046791,3.037678,0.4874756,-0.2329833,0.868228,-21.22989,-20.43532,-21.94057
15.450959206,5.75915199999997,1.05028,3.28313,0.4797646,-0.2320472,0.8803095,-21.22989,-20.43532,-21.94057
15.460870266,6.44047100000002,2.157067,2.546775,0.4491367,-0.2164917,0.8682122,-21.59583,-21.18612,-22.32178
15.470781326,7.05985200000002,1.982311,1.687694,0.4353606,-0.238171,0.8345841,-21.59583,-21.18612,-22.32178
15.48069191,6.93597599999999,1.283287,1.564968,0.4543812,-0.2528313,0.8602391,-21.59583,-21.18612,-22.32178
15.49060297,4.396515,1.458043,1.933146,0.469307,-0.244709,0.8947265,-21.59583,-21.18612,-22.32178
15.500513554,5.75915199999997,1.691051,0.828613499999998,0.4681334,-0.2394571,0.8818081,-21.59583,-21.18612,-22.32178
15.510424137,11.7052,1.632799,0.3377102,0.476209,-0.2233787,0.8775191,-21.23474,-20.06073,-21.94172
15.522812843,12.44846,2.157067,1.258154,0.4755357,-0.1922612,0.8959787,-21.23474,-20.06073,-21.94172
15.532724381,12.63428,3.496862,1.135428,0.4554762,-0.1783722,0.9111416,-21.23474,-20.06073,-21.94172
15.542634964,11.39551,3.72987,0.0922585699999997,0.4302525,-0.1666385,0.8970483,-21.23474,-20.06073,-21.94172
15.552545547,9.47543500000001,3.380358,-0.5213705,0.4217718,-0.164879,0.8827337,-21.22504,-20.80992,-21.93941
15.562456608,8.23667399999998,4.60365,0.767250500000003,0.4543519,-0.1652898,0.9121994,-21.22504,-20.80992,-21.93941
15.572367191,6.750161,6.64246800000002,2.055871,0.4763455,-0.1728242,0.9023427,-21.22504,-20.80992,-21.93941
15.582278728,9.78512499999999,7.69100299999997,2.424049,0.4630621,-0.1832758,0.8822293,-21.22504,-20.80992,-21.93941
15.592189312,13.0059,9.72982099999999,1.503605,0.4532065,-0.1987995,0.9043043,-21.22504,-20.80992,-21.93941
15.602099895,12.88203,12.93368,1.38088,0.4456681,-0.1904565,0.941882,-21.59664,-21.12368,-22.32197
15.612011433,11.76714,14.09872,1.135428,0.4335364,-0.1861713,0.9559473,-21.59664,-21.12368,-22.32197
15.621922016,9.66124900000002,13.92396,1.564968,0.4315859,-0.1761974,0.9205,-21.59664,-21.12368,-22.32197
15.631833076,3.467444,14.38998,3.037678,0.4467359,-0.1606502,0.8902135,-21.59664,-21.12368,-22.32197
15.64174366,1.361551,15.43851,3.344493,0.444358,-0.178207,0.876194,-21.59664,-21.12368,-22.32197
15.651654243,5.449462,16.60355,2.853589,0.4426475,-0.2049331,0.8688294,-21.5888,-21.49488,-21.48564
15.661565781,7.30760400000002,19.22489,1.994509,0.4547108,-0.1899812,0.9182737,-21.5888,-21.49488,-21.48564
15.671476364,5.94496599999999,23.53554,1.871783,0.4620677,-0.1969464,0.9599331,-21.5888,-21.49488,-21.48564
15.681386948,1.05186,24.70058,2.362686,0.43965,-0.1852425,0.9333295,-21.5888,-21.49488,-21.48564
15.691298485,-2.602484,21.72972,3.528581,0.4419637,-0.1594264,0.9507658,-21.5888,-21.49488,-21.48564
15.701209068,-3.469617,22.89477,2.424049,0.4520468,-0.1315892,0.9652628,-21.22642,-20.81149,-22.32488
15.711119652,-4.832254,23.01127,0.460436,0.4642621,-0.1333919,0.9622568,-21.22642,-20.81149,-22.32488
15.721030712,-8.053034,24.11806,-0.828185100000001,0.4659651,-0.115938,0.9580359,-21.22642,-20.81149,-22.32488
15.730941772,-14.06102,24.81708,-1.441814,0.4519557,-0.1440801,0.8941169,-21.22642,-20.81149,-22.32488
15.740852833,-13.75133,25.34135,0.6445247,0.4484442,-0.1929408,0.9235938,-21.22642,-20.81149,-22.32488
15.750763416,-0.2488386,29.7685,1.258154,0.4165003,-0.263658,0.9205371,-19.72614,-21.18779,-22.78123
15.760674,6.56434699999999,32.6811,1.687694,0.3838106,-0.27769,0.9111427,-19.72614,-21.18779,-22.78123
15.770585537,0.866046300000002,28.48695,2.362686,0.3516908,-0.2616782,0.8971417,-19.72614,-21.18779,-22.78123
15.78049612,-4.64644,21.14721,2.23996,0.3540286,-0.2382886,0.9140814,-19.72614,-21.18779,-22.78123
15.790407181,-5.88520100000001,20.38993,1.933146,0.3968818,-0.1895482,0.953863,-19.72614,-21.18779,-22.78123
15.80279541,-3.345741,24.11806,1.503605,0.3871045,-0.1735722,0.9727859,-19.73883,-20.442,-23.61871
15.81270647,4.148763,28.77821,0.03089567,0.4191769,-0.1737505,1.048353,-19.73883,-20.442,-23.61871
15.822617054,8.29861200000002,37.22475,1.503605,0.4712024,-0.1698245,1.119442,-19.73883,-20.442,-23.61871
15.832528591,11.14776,43.1082,1.442243,0.4532656,-0.139496,1.027139,-19.73883,-20.442,-23.61871
15.842439175,7.617294,38.97231,0.5217989,0.394324,-0.09477281,0.9108236,-19.73883,-20.442,-23.61871
15.852349758,9.97093999999998,34.13739,1.503605,0.331154,-0.1143876,0.9266422,-18.24478,-20.44528,-24.46168
15.862261295,17.40351,34.42865,4.264936,0.2894084,-0.1376824,0.9292739,-18.24478,-20.44528,-24.46168
15.872171879,16.22668,36.75874,7.148993,0.2502576,-0.1796533,0.8770191,-18.24478,-20.44528,-24.46168
15.882082939,12.07683,34.95292,7.82398500000003,0.2163012,-0.2299366,0.8923633,-18.24478,-20.44528,-24.46168
15.891993523,7.67923199999999,33.72963,7.33308200000001,0.2784919,-0.2637361,0.9568644,-18.24478,-20.44528,-24.46168
15.901904106,-0.682404900000003,33.08886,7.148993,0.3110472,-0.2458716,0.9576427,-16.82281,-19.69937,-25.30663
15.911815643,2.35256,31.80732,6.35127500000001,0.3141058,-0.2133352,0.9602319,-16.82281,-19.69937,-25.30663
15.921726227,5.573338,34.2539,6.90354199999998,0.2674723,-0.1796259,0.9344791,-16.82281,-19.69937,-25.30663
15.93163681,4.272639,32.38984,7.33308200000001,0.1492271,-0.1669268,0.8626732,-16.82281,-19.69937,-25.30663
15.941548347,0.3086039,25.05009,6.596727,0.07894272,-0.1633616,0.7841209,-16.82281,-19.69937,-25.30663
15.951458931,-4.708378,18.29286,5.430832,0.03681203,-0.1410118,0.7073539,-16.81286,-20.82839,-26.58806
15.961369991,-6.87620999999998,10.66185,5.308106,0.04047065,-0.1296355,0.6483364,-16.81286,-20.82839,-26.58806
15.971280575,-6.93814800000003,2.972594,5.062654,0.09862857,-0.104292,0.6273205,-16.81286,-20.82839,-26.58806
15.981191158,-6.814272,-2.736098,5.79900900000001,0.1399716,-0.07388082,0.6890813,-16.81286,-20.82839,-26.58806
15.991102695,-4.212874,-5.82345200000001,4.387662,0.1338789,-0.09357482,0.739423,-16.81286,-20.82839,-26.58806
16.001013279,-0.001086392,-8.67779800000001,2.117234,0.119504,-0.1128694,0.7932051,-15.68848,-20.82647,-26.14418
16.010923862,-3.779308,-13.0467,-1.257725,0.1266931,-0.1426005,0.8395159,-15.68848,-20.82647,-26.14418
16.0208354,-7.74334299999998,-14.32824,-4.080419,0.1601161,-0.173065,0.8682935,-15.68848,-20.82647,-26.14418
16.030745983,-8.548538,-16.60007,-3.712242,0.15127,-0.2039302,0.8278363,-15.68848,-20.82647,-26.14418
16.040657043,-6.814272,-21.02721,-3.589516,0.1264913,-0.2451358,0.7951403,-15.68848,-20.82647,-26.14418
16.050567627,-6.25683000000001,-23.18254,-2.116806,0.1343511,-0.2998925,0.7822187,-15.68524,-21.20289,-26.59274
16.06047821,-6.87620999999998,-28.65822,-0.889547900000002,0.1227352,-0.3055917,0.739554,-15.68524,-21.20289,-26.59274
16.070389748,-6.69039600000003,-36.46398,-2.423621,0.1541175,-0.2454018,0.7708751,-15.68524,-21.20289,-26.59274
16.082778454,-4.832254,-37.92028,-6.71902399999997,0.2488668,-0.1835346,0.8798871,-15.68524,-21.20289,-26.59274
16.092689037,-6.69039600000003,-34.71642,-8.80536299999997,0.302498,-0.1619569,0.9851696,-15.68524,-21.20289,-26.59274
16.102599621,-18.5825,-33.78439,-8.49854900000003,0.3385503,-0.1542459,1.076598,-16.0646,-20.44851,-25.30821
16.112510681,-31.2798,-35.24069,-5.98266900000002,0.3806603,-0.1378392,1.05375,-16.0646,-20.44851,-25.30821
16.122421265,-38.71237,-33.55138,-2.423621,0.3962741,-0.05108826,1.009049,-16.0646,-20.44851,-25.30821
16.132332802,-29.66941,-31.57082,-1.871354,0.2690555,-0.03786169,0.8734685,-16.0646,-20.44851,-25.30821
16.142243385,-13.31777,-29.35724,-0.828185100000001,0.2182822,-0.1789367,0.811538,-16.0646,-20.44851,-25.30821
16.152153969,-0.3107767,-29.29899,3.71267,0.2611269,-0.3409062,0.8897689,-17.49788,-20.44705,-24.91528
16.162065506,1.299613,-28.89123,3.896759,0.4086863,-0.3871393,1.062874,-17.49788,-20.44705,-24.91528
16.17197609,-3.965122,-26.79416,0.3377102,0.5536883,-0.3468894,1.183281,-17.49788,-20.44705,-24.91528
16.18188715,-6.814272,-18.9884,-4.080419,0.645487,-0.3089789,1.167319,-17.49788,-20.44705,-24.91528
16.191797733,-4.956131,-10.77487,-6.596298,0.5420894,-0.268207,1.050429,-17.49788,-20.44705,-24.91528
16.201708317,14.80211,-12.52243,-8.86672600000002,0.3108548,-0.2625659,0.8240492,-18.2531,-19.69452,-24.07852
16.211619854,27.56135,-15.49328,-11.62806,0.15747,-0.2234443,0.7897166,-18.2531,-19.69452,-24.07852
16.221530438,12.26265,-24.17282,-9.11217699999998,0.1077181,-0.2632692,0.8028756,-18.2531,-19.69452,-24.07852
16.231441021,6.44047100000002,-27.60969,-3.773605,0.2543477,-0.2914496,0.9064865,-18.2531,-19.69452,-24.07852
16.241352558,4.644268,-23.18254,0.460436,0.4543648,-0.2633143,0.9893319,-18.2531,-19.69452,-24.07852
16.251263142,11.33358,-17.06608,-0.03046724,0.5713084,-0.2135244,0.9597726,-18.2418,-20.44188,-23.6265
16.261174202,20.99591,-11.00788,-1.932717,0.5939485,-0.1653609,1.030467,-18.2418,-20.44188,-23.6265
16.271084786,12.69621,-6.28946699999999,-2.300895,0.5119317,-0.112664,1.105041,-18.2418,-20.44188,-23.6265
16.280995846,2.414498,-6.11471200000003,-2.730435,0.4401341,-0.1659661,1.003076,-18.2418,-20.44188,-23.6265
16.290906906,-3.097989,-11.99816,-0.03046724,0.3893856,-0.1426466,1.040673,-18.2418,-20.44188,-23.6265
16.30081749,5.449462,-15.31852,0.3377102,0.3573813,-0.1448718,0.9689307,-19.73722,-20.44017,-23.169
16.310728073,32.51639,-14.32824,-6.16675799999997,0.3548484,-0.1574006,0.8027359,-19.73722,-20.44017,-23.169
16.32063961,36.66624,-15.43503,-7.45537899999998,0.3717122,-0.1463451,0.7435941,-19.73722,-20.44017,-23.169
16.330550194,16.53637,-18.87189,-6.53493500000002,0.4005014,-0.1882056,0.7363268,-19.73722,-20.44017,-23.169
16.340461254,-9.22985600000001,-18.23112,-5.246314,0.4692452,-0.2249894,0.8641284,-19.73722,-20.44017,-23.169
16.350371838,-30.84624,-13.0467,-5.184951,0.4814556,-0.1592292,0.987374,-19.73584,-20.4386,-22.78353
16.362760544,-22.9801,-4.658412,-6.78038700000001,0.4519021,-0.1094738,0.9293995,-19.73584,-20.4386,-22.78353
16.372671127,-0.06302445,-1.745815,-5.675855,0.3772056,-0.1413311,0.8559337,-19.73584,-20.4386,-22.78353
16.382582665,6.19271900000002,-9.49332599999999,-3.03725,0.3280815,-0.1827894,0.8330643,-19.73584,-20.4386,-22.78353
16.392493248,-4.460626,-17.24084,-0.582733500000001,0.3992052,-0.2037272,0.9254177,-19.73584,-20.4386,-22.78353
16.402403832,-14.24684,-18.34762,0.951339199999998,0.4654714,-0.1842305,0.9729506,-20.47951,-20.81326,-22.77849
16.412315369,-6.00907800000001,-15.08551,-2.239532,0.486899,-0.199137,0.8516532,-20.47951,-20.81326,-22.77849
16.422225952,5.75915199999997,-11.7069,-1.99408,0.5286831,-0.1860662,0.8407904,-20.47951,-20.81326,-22.77849
16.432137013,5.697214,-7.221499,-1.012274,0.5070115,-0.1756857,0.8376988,-20.47951,-20.81326,-22.77849
16.442047596,1.423489,-5.240932,-0.705459200000001,0.4667078,-0.1882433,0.850472,-20.47951,-20.81326,-22.77849
16.45195818,-4.64644,-7.10499500000003,-0.766822200000002,0.4248897,-0.1820592,0.9282055,-21.22157,-21.18608,-22.32373
16.461869717,-10.59249,-9.31857,-1.441814,0.41359,-0.185882,0.966217,-21.22157,-21.18608,-22.32373
16.4717803,-12.3887,-9.31857,-2.669072,0.4343483,-0.1806312,0.9939091,-21.22157,-21.18608,-22.32373
16.481691361,-15.05203,-7.80401899999998,-2.116806,0.4379969,-0.1470606,1.007544,-21.22157,-21.18608,-22.32373
16.491602421,-10.03505,-6.23121499999997,-1.99408,0.4074563,-0.1302535,0.8624499,-21.22157,-21.18608,-22.32373
16.501513004,0.43248,-4.949672,-1.871354,0.402652,-0.142226,0.8091171,-20.10711,-20.43523,-21.94641
16.511424065,-0.992095199999997,-4.017641,-0.3986447,0.4073042,-0.1542351,0.8195575,-20.10711,-20.43523,-21.94641
16.521334648,-8.98210400000001,-4.308901,0.2149844,0.4123785,-0.1933417,0.8394167,-20.10711,-20.43523,-21.94641
16.531246185,-14.1849,-4.833169,-0.3986447,0.4187244,-0.2169217,0.8584073,-20.10711,-20.43523,-21.94641
16.541156769,-13.75133,-5.007925,-1.380451,0.4109048,-0.2209202,0.8541315,-20.10711,-20.43523,-21.94641
16.551067352,-9.47760899999999,-4.600161,-2.791798,0.4122854,-0.2141174,0.8536839,-20.48137,-20.43526,-21.94446
16.560978413,-7.24783800000001,-4.949672,-3.89633,0.4093504,-0.1970816,0.8735111,-20.48137,-20.43526,-21.94446
16.570889473,-7.80528100000003,-6.11471200000003,-4.878137,0.4093361,-0.1839184,0.8875235,-20.48137,-20.43526,-21.94446
16.580800056,-8.053034,-6.11471200000003,-5.92130599999998,0.4149014,-0.1847294,0.9047523,-20.48137,-20.43526,-21.94446
16.590711117,-7.37171500000001,-5.47394,-6.84175,0.4306563,-0.1810625,0.9195159,-20.48137,-20.43526,-21.94446
16.6006217,-6.69039600000003,-3.901137,-6.65766099999999,0.4472108,-0.1604031,0.9367862,-20.84731,-21.18606,-22.32567
16.610533237,-6.25683000000001,-2.095326,-5.859943,0.4618215,-0.156835,0.9352344,-20.84731,-21.18606,-22.32567
16.620443821,-4.956131,0.875523700000001,-4.816774,0.4702488,-0.1669149,0.9346091,-20.84731,-21.18606,-22.32567
16.630354404,-4.770316,2.914342,-3.834968,0.459571,-0.1850572,0.9211426,-20.84731,-21.18606,-22.32567
16.642743111,-5.82326300000003,4.661901,-2.055443,0.4677085,-0.2101616,0.9223406,-20.85078,-20.80989,-21.94136
16.652654171,-5.018068,5.82694100000001,-0.950910899999997,0.4644125,-0.2335532,0.9073303,-20.85078,-20.80989,-21.94136
16.662564754,-2.974113,6.99197999999999,-0.3372818,0.460043,-0.2340799,0.9097679,-20.85078,-20.80989,-21.94136
16.672476292,-1.983104,8.44827800000003,-0.1531931,0.4585043,-0.2375503,0.8987154,-20.85078,-20.80989,-21.94136
16.682386875,-1.79729,9.205554,0.1536215,0.4473251,-0.2488758,0.8920211,-20.85078,-20.80989,-21.94136
16.692297459,-3.159927,8.85604200000002,0.2763473,0.4323052,-0.261189,0.8911177,-21.59744,-21.18794,-22.77149
16.702208996,-4.33675,7.98226299999999,0.1536215,0.4277813,-0.2656985,0.8738438,-21.59744,-21.18794,-22.77149
16.712119579,-4.33675,6.87547600000002,0.3990731,0.4208588,-0.2604585,0.8725023,-21.59744,-21.18794,-22.77149
16.722030163,-3.221865,5.76868899999999,0.2763473,0.4138207,-0.2508884,0.8649486,-21.59744,-21.18794,-22.77149
16.731941223,-1.301785,4.60365,-0.03046724,0.4139934,-0.2388517,0.8482217,-21.59744,-21.18794,-22.77149
16.741851807,0.0608516599999998,3.613366,-0.214556,0.4000064,-0.2177138,0.8441704,-20.84327,-21.49822,-22.32471
16.751763344,-0.06302445,1.924059,-0.1531931,0.3980372,-0.218233,0.8422645,-20.84327,-21.49822,-22.32471
16.761673927,-0.4965908,0.759019800000003,0.5217989,0.4001302,-0.2264298,0.8460318,-20.84327,-21.49822,-22.32471
16.771584511,0.742170199999999,-0.2312636,1.012702,0.3956873,-0.2269948,0.8412675,-20.84327,-21.49822,-22.32471
16.781496048,2.290622,-1.571059,1.564968,0.3961659,-0.2240672,0.8436834,-20.84327,-21.49822,-22.32471
16.791406631,2.538374,-2.910854,1.994509,0.3975087,-0.209967,0.8480864,-21.22318,-21.18791,-22.77344
16.801317215,1.547365,-4.774917,1.564968,0.3978657,-0.1968588,0.8505712,-21.22318,-21.18791,-22.77344
16.811228275,-0.4346527,-6.34771999999997,1.196791,0.4067039,-0.1884367,0.8639899,-21.22318,-21.18791,-22.77344
16.821138859,-2.354732,-7.39625499999999,1.258154,0.4227581,-0.1775454,0.8687156,-21.22318,-21.18791,-22.77344
16.831050396,-2.726361,-7.68751500000001,1.442243,0.4310242,-0.1745385,0.8676989,-21.22318,-21.18791,-22.77344
16.840960979,-1.115971,-6.17296399999999,1.687694,0.4436135,-0.1771222,0.900216,-21.22803,-20.81332,-22.77459
16.850871563,-0.1869005,-4.716664,2.362686,0.4304391,-0.1748341,0.9056349,-21.22803,-20.81332,-22.77459
16.8607831,-0.3107767,-3.784633,3.467218,0.4110292,-0.181831,0.9120098,-21.22803,-20.81332,-22.77459
16.870693684,3.033878,-1.396303,3.958122,0.3959155,-0.1837096,0.8665221,-21.22803,-20.81332,-22.77459
16.880604744,9.84706299999998,0.293004,2.546775,0.3498866,-0.1750515,0.8703665,-21.22803,-20.81332,-22.77459
16.890515327,9.35155899999998,-3.37687,0.5217989,0.3063886,-0.1568014,0.9414735,-20.84731,-21.18606,-22.32567
16.900425911,3.28163,-5.93995599999998,-0.5213705,0.3406028,-0.1790581,0.9616557,-20.84731,-21.18606,-22.32567
16.912814617,-1.673414,-4.541909,-1.380451,0.3846301,-0.2160572,0.9201886,-20.84731,-21.18606,-22.32567
16.922726154,-1.177909,-4.658412,-3.405427,0.4050092,-0.248556,0.9620376,-20.84731,-21.18606,-22.32567
16.932636738,3.777135,-2.153579,-5.614491,0.442107,-0.2617733,1.035551,-20.84731,-21.18606,-22.32567
16.942547798,8.23667399999998,2.623082,-8.74399900000002,0.3825744,-0.2544042,1.103853,-21.96684,-21.56257,-22.76839
16.952458382,8.979931,0.759019800000003,-12.18032,0.2836901,-0.240818,1.156715,-21.96684,-21.56257,-22.76839
16.962369442,4.706205,-8.27003499999999,-13.53031,0.2935825,-0.2359981,1.220997,-21.96684,-21.56257,-22.76839
16.972280502,1.237675,-14.03698,-13.0394,0.3864717,-0.2248461,1.18468,-21.96684,-21.56257,-22.76839
16.982191086,7.05985200000002,-8.44479099999997,-12.48714,0.4554468,-0.2051991,1.067495,-21.96684,-21.56257,-22.76839
16.992101669,16.84606,1.749303,-13.59167,0.3937268,-0.1540903,0.9738149,-21.59583,-21.18612,-22.32178
17.002013206,12.75815,4.370642,-13.77576,0.2953509,-0.08293565,1.000647,-21.59583,-21.18612,-22.32178
17.01192379,-10.90218,0.46776,-11.50533,0.2395345,0.0007176935,1.09151,-21.59583,-21.18612,-22.32178
17.02183485,-34.50058,-3.08561,-9.05081500000002,0.2487616,-0.1128398,1.143005,-21.59583,-21.18612,-22.32178
17.031745434,-33.50957,-4.134145,-7.08720199999999,0.323369,-0.3500314,1.131132,-21.59583,-21.18612,-22.32178
17.041656494,-18.14894,-3.551625,-3.589516,0.3695117,-0.4803245,1.13896,-21.59583,-21.18612,-22.32178
17.051567554,-10.65443,-3.318618,-0.644096300000003,0.3188942,-0.4910831,1.14944,-21.59583,-21.18612,-22.32178
17.061478138,-10.09699,-2.095326,-0.3372818,0.1887892,-0.4071369,1.101266,-21.59583,-21.18612,-22.32178
17.071389675,-12.20288,-2.852602,-1.809992,0.1118979,-0.2869655,0.9918615,-21.59583,-21.18612,-22.32178
17.081300259,-12.76033,-4.075893,-2.791798,0.1003607,-0.2433641,0.9192746,-21.59583,-21.18612,-22.32178
17.091210842,-8.67241400000003,-4.425405,-1.380451,0.1681456,-0.2689486,0.8714217,-21.9733,-21.18981,-23.21926
17.101121902,-2.974113,-2.328334,4.14221,0.189729,-0.3154636,0.918928,-21.9733,-21.18981,-23.21926
17.111032486,4.086825,-1.571059,8.98988099999998,0.2788923,-0.4081487,0.9698232,-21.9733,-21.18981,-23.21926
17.120944023,21.18173,1.341539,11.50576,0.3293985,-0.4423172,0.9912158,-21.9733,-21.18981,-23.21926
17.130854607,33.25965,5.011413,9.17396900000002,0.2887955,-0.3569905,0.9940803,-21.9733,-21.18981,-23.21926
17.14076519,31.27763,6.81722400000001,5.614921,0.1749561,-0.257901,0.9285712,-22.36349,-20.06762,-23.60624
17.150676727,27.99491,6.87547600000002,1.626331,0.03334121,-0.1793592,0.8007613,-22.36349,-20.06762,-23.60624
17.160587311,26.26065,3.030846,-1.380451,-0.08763289,-0.1109892,0.7187881,-22.36349,-20.06762,-23.60624
17.170498371,21.86304,-3.027358,-4.632685,-0.1336981,-0.07845646,0.6517285,-22.36349,-20.06762,-23.60624
17.180408955,17.89901,-9.49332599999999,-6.47357199999998,-0.06465596,-0.1121759,0.6215757,-22.36349,-20.06762,-23.60624
17.192797661,24.65026,-16.60007,-2.730435,0.1156195,-0.1553522,0.6508312,-23.11014,-20.44567,-24.43638
17.202708244,40.44446,-17.35734,2.23996,0.2187781,-0.1921065,0.7014894,-23.11014,-20.44567,-24.43638
17.212619782,49.42548,-16.77482,7.026268,0.2996081,-0.09321687,0.7839879,-23.11014,-20.44567,-24.43638
17.222530365,40.13477,-19.86217,9.66487199999998,0.3361283,0.03300827,0.8214632,-23.11014,-20.44567,-24.43638
17.232440949,23.34956,-25.86213,8.49897699999999,0.2999543,0.1498639,0.8163342,-23.11014,-20.44567,-24.43638
17.242352009,7.05985200000002,-32.32809,2.424049,0.2225381,0.2241656,0.7450413,-23.87183,-19.32038,-24.05048
17.252263069,-5.018068,-39.49308,-6.71902399999997,0.1156037,0.2319128,0.6260423,-23.87183,-19.32038,-24.05048
17.26217413,-10.40668,-46.19206,-17.64162,0.04029597,0.1785223,0.5154665,-23.87183,-19.32038,-24.05048
17.272084713,-9.72536099999999,-53.99782,-29.60739,0.02027739,0.1138959,0.4427172,-23.87183,-19.32038,-24.05048
17.281995297,-7.37171500000001,-64.42493,-38.93455,0.07732257,0.006243417,0.3958574,-23.87183,-19.32038,-24.05048
17.291906834,-11.5835,-75.9005699999999,-39.73227,0.2134575,-0.1107157,0.4211882,-25.35569,-20.44585,-24.4247
17.301817417,-28.74034,-90.1140399999999,-31.87782,0.3710976,-0.181308,0.5474623,-25.35569,-20.44585,-24.4247
17.311728478,-57.4176600000001,-105.6673,-22.18248,0.7220651,-0.2345104,0.6639016,-25.35569,-20.44585,-24.4247
17.321639538,-69.6194599999999,-110.3857,-9.66444299999998,0.6054988,-0.165106,0.5838151,-25.35569,-20.44585,-24.4247
17.331550121,-62.5585199999998,-105.1431,-7.27128999999997,0.7043906,-0.1333312,0.4894814,-25.35569,-20.44585,-24.4247
17.341461182,-42.86222,-92.0946099999997,-8.31446000000002,0.7151018,-0.04568148,0.3492799,-27.59986,-20.44446,-24.02755
17.351371765,-17.09599,-78.2888899999998,-15.67801,0.6297988,0.0211722,0.2631254,-27.59986,-20.44446,-24.02755
17.361283302,-0.2488386,-67.5122800000001,-29.60739,0.5531972,0.04199979,0.25629,-27.59986,-20.44446,-24.02755
17.371193886,-7.929157,-66.0559799999998,-42.55496,0.5142718,0.0301506,0.3089083,-27.59986,-20.44446,-24.02755
17.381104469,-30.53655,-70.9491500000003,-50.47078,0.5717065,-0.02729475,0.4064269,-27.59986,-20.44446,-24.02755
17.39101553,-44.72036,-80.0364500000003,-52.18894,0.7442878,-0.1724353,0.519582,-30.53665,-19.69028,-22.72972
17.40092659,-40.19888,-92.5606199999998,-43.78222,0.9404191,-0.2838302,0.632264,-30.53665,-19.69028,-22.72972
17.410837174,-34.99608,-107.5314,-27.03015,1.127182,-0.2400382,0.680765,-30.53665,-19.69028,-22.72972
17.420748234,-48.25083,-114.1721,-12.85531,1.177228,-0.04594062,0.5908453,-30.53665,-19.69028,-22.72972
17.430658817,-67.6374399999998,-102.5217,-8.86672600000002,1.097935,0.0576284,0.3709157,-30.53665,-19.69028,-22.72972
17.440570355,-65.2837999999998,-77.35686,-12.60986,0.9667841,0.01274661,0.1653615,-32.40036,-19.6818,-20.59992
17.450480938,-45.33974,-56.3279,-21.69157,0.8413472,-0.09529041,0.1091432,-32.40036,-19.6818,-20.59992
17.460391522,-15.29979,-51.08522,-29.97557,0.8889422,-0.2192223,0.2183138,-32.40036,-19.6818,-20.59992
17.472780228,17.7132,-53.35705,-35.55959,1.045296,-0.2109541,0.5021369,-32.40036,-19.6818,-20.59992
17.482691288,15.97893,-60.3472900000001,-37.33912,1.141084,-0.1514733,0.7095557,-34.62215,-21.1754,-19.36298
17.492602825,-2.478608,-70.5413800000001,-33.04371,1.208939,-0.1218991,0.7331331,-34.62215,-21.1754,-19.36298
17.502513409,-18.33475,-77.5316200000002,-24.02337,1.167074,-0.04600954,0.6019824,-34.62215,-21.1754,-19.36298
17.512423992,-38.58849,-72.7549599999998,-17.58026,1.027493,0.1116129,0.4790021,-34.62215,-21.1754,-19.36298
17.522334576,-58.4706000000002,-57.8424499999998,-16.78254,0.9177794,0.1301268,0.2923982,-34.62215,-21.1754,-19.36298
17.532246113,-47.32175,-44.85226,-20.03478,0.9653988,-0.01234678,0.1916159,-35.74059,-20.79043,-16.78851
17.542156696,-13.37971,-36.75524,-20.34159,1.001665,-0.1625649,0.2142877,-35.74059,-20.79043,-16.78851
17.552067757,6.81209899999999,-37.45427,-19.05297,1.027129,-0.2707413,0.3295298,-35.74059,-20.79043,-16.78851
17.56197834,6.13078099999997,-45.43478,-16.8439,1.043767,-0.3434308,0.4839827,-35.74059,-20.79043,-16.78851
17.571888924,-1.549538,-57.9589599999998,-14.51211,1.094681,-0.3746998,0.5961407,-35.74059,-20.79043,-16.78851
17.581800461,-8.48660000000001,-65.6482199999999,-13.16213,1.150244,-0.3175091,0.6454642,-36.85335,-21.09589,-15.11135
17.591711044,-16.97211,-64.7744400000002,-14.45075,1.156637,-0.3018097,0.5720454,-36.85335,-21.09589,-15.11135
17.601622105,-22.9801,-62.8521200000001,-16.41436,1.166267,-0.3446914,0.5073295,-36.85335,-21.09589,-15.11135
17.611533165,-16.53855,-61.2793199999999,-17.39617,1.199793,-0.3936391,0.5244592,-36.85335,-21.09589,-15.11135
17.621443748,-1.425662,-62.0948499999999,-18.07116,1.206699,-0.4179035,0.5972178,-36.85335,-21.09589,-15.11135
17.631354809,17.09381,-63.90066,-18.74615,1.178824,-0.4272656,0.7289765,-37.58966,-21.46218,-13.05047
17.641265392,36.72818,-68.44431,-19.72796,1.083706,-0.3376082,0.8567351,-37.58966,-21.46218,-13.05047
17.651176929,45.83307,-76.8908499999999,-22.48929,1.003891,-0.1769629,0.9862655,-37.58966,-21.46218,-13.05047
17.661087513,38.27663,-82.1335199999998,-27.2756,0.9460734,0.04125901,1.039631,-37.58966,-21.46218,-13.05047
17.670998096,14.98792,-80.7354700000002,-31.63236,0.9087401,0.281405,0.9705127,-37.58966,-21.46218,-13.05047
17.680909157,-11.52156,-75.95882,-36.29595,0.9327444,0.3695158,0.8873301,-38.67785,-23.32348,-10.14786
17.690820217,-17.90118,-67.74529,-40.46862,0.9959372,0.3111025,0.8777137,-38.67785,-23.32348,-10.14786
17.700731277,-12.51257,-58.7744800000002,-42.0027,1.031139,0.3042245,0.8691797,-38.67785,-23.32348,-10.14786
17.710641861,-13.00808,-54.58034,-40.40726,1.032033,0.2993149,0.8552141,-38.67785,-23.32348,-10.14786
17.720552444,-28.98809,-54.69685,-39.73227,1.069794,0.2725271,0.8345198,-38.67785,-23.32348,-10.14786
17.730463982,-54.32076,-53.82307,-40.22317,1.163995,0.2114305,0.7938686,-39.0189,-25.18629,-7.634602
17.740374565,-78.2288399999999,-46.59982,-40.40726,1.222567,0.1443068,0.7050108,-39.0189,-25.18629,-7.634602
17.752763271,-93.4036699999999,-35.82321,-38.50501,1.175025,0.08730765,0.5797495,-39.0189,-25.18629,-7.634602
17.762674332,-88.8821900000001,-25.33786,-38.87319,1.08613,0.07184887,0.5238099,-39.0189,-25.18629,-7.634602
17.772584915,-76.6184599999997,-15.37677,-41.94133,0.9974464,0.03040648,0.5056278,-39.0189,-25.18629,-7.634602
17.782495499,-60.7623100000002,-12.58068,-45.8072,0.9298664,0.009028708,0.5661302,-38.26255,-25.55743,-6.80216
17.792407036,-59.9571199999999,-12.17292,-50.65487,0.9120543,-0.002023612,0.6281617,-38.26255,-25.55743,-6.80216
17.802317619,-69.2478299999997,-12.52243,-55.44117,0.917593,-0.01504367,0.6285039,-38.26255,-25.55743,-6.80216
17.81222868,-77.2997700000002,-12.63893,-58.9388599999997,0.9666899,-0.02896991,0.5362468,-38.26255,-25.55743,-6.80216
17.82213974,-74.9461300000001,-9.72633399999999,-58.7547700000001,1.032222,-0.01595727,0.4569815,-38.26255,-25.55743,-6.80216
17.832050323,-74.8222599999999,-4.250649,-59.0615799999999,1.055928,0.01225542,0.4175772,-37.48793,-27.80834,-7.634309
17.841961384,-83.2458299999999,-0.8720351,-60.9024699999999,1.037709,0.008548012,0.4009155,-37.48793,-27.80834,-7.634309
17.851871967,-92.6604199999998,-2.095326,-62.49791,1.006751,-0.03508402,0.3826651,-37.48793,-27.80834,-7.634309
17.861782551,-99.7832899999999,-2.677846,-62.0683699999998,0.9916261,-0.04891526,0.3697486,-37.48793,-27.80834,-7.634309
17.871694088,-104.4286,-2.444838,-59.7979400000001,0.9604544,-0.05217944,0.2826263,-37.48793,-27.80834,-7.634309
17.881604671,-100.093,-0.988539100000001,-56.42298,0.9341503,-0.05660893,0.2396258,-36.34527,-29.68619,-8.855026
17.891516209,-99.3497199999999,-0.930287099999998,-55.01163,0.8855845,-0.05095622,0.2309896,-36.34527,-29.68619,-8.855026
17.901426792,-101.5176,-5.532192,-55.62526,0.8408459,-0.07383066,0.22837,-36.34527,-29.68619,-8.855026
17.911337376,-101.9511,-8.85255399999999,-56.66843,0.8063847,-0.1160839,0.2039192,-36.34527,-29.68619,-8.855026
17.921248436,-100.7743,-12.28942,-57.4047900000002,0.7650406,-0.1399058,0.1974206,-36.34527,-29.68619,-8.855026
17.931159019,-101.3317,-15.49328,-58.3252299999999,0.7347248,-0.1422368,0.1948045,-34.46217,-31.19305,-10.98022
17.941070557,-102.8183,-17.7651,-58.7547700000001,0.7201529,-0.1274964,0.1739105,-34.46217,-31.19305,-10.98022
17.95098114,-104.4906,-19.62917,-59.2456700000001,0.7055026,-0.107431,0.1516123,-34.46217,-31.19305,-10.98022
17.960891724,-105.9771,-21.55148,-58.6934099999997,0.7036539,-0.08618457,0.1392868,-34.46217,-31.19305,-10.98022
17.970803261,-109.074,-24.05632,-56.36162,0.697373,-0.05525362,0.1352295,-34.46217,-31.19305,-10.98022
17.980713844,-112.9761,-26.15339,-54.27528,0.6615127,-0.04407973,0.1322745,-32.96304,-31.57066,-11.75778
17.990624905,-116.6924,-29.35724,-52.55712,0.6394115,-0.04733309,0.1190128,-32.96304,-31.57066,-11.75778
18.000535488,-118.9221,-32.85236,-51.7594,0.6101154,-0.06182523,0.1062229,-32.96304,-31.57066,-11.75778
18.010446072,-121.5855,-38.56105,-49.36625,0.6158829,-0.05595013,0.1033277,-32.96304,-31.57066,-11.75778
18.020357609,-125.9212,-44.328,-46.42083,0.6508368,-0.07392837,0.1052855,-32.96304,-31.57066,-11.75778
18.032746315,-134.4067,-51.66774,-41.63452,0.6864997,-0.09715173,0.1225668,-31.08478,-32.70293,-13.88412
18.042656899,-140.6005,-57.4346899999999,-36.17322,0.7226837,-0.1586406,0.1458305,-31.08478,-32.70293,-13.88412
18.052567959,-141.5915,-64.7744400000002,-29.97557,0.7695301,-0.2122392,0.169048,-31.08478,-32.70293,-13.88412
18.062478542,-136.8842,-70.9491500000003,-23.77791,0.83722,-0.2568886,0.1849301,-31.08478,-32.70293,-13.88412
18.072389126,-129.2039,-76.0170700000002,-16.10755,0.9091485,-0.2991282,0.1878248,-31.08478,-32.70293,-13.88412
18.082300663,-121.9571,-77.9393800000001,-8.55991099999998,0.9732084,-0.3239283,0.2067536,-31.08001,-33.77448,-16.38639
18.092211247,-119.6654,-77.0656100000002,-2.914524,0.9863372,-0.3381868,0.2305451,-31.08001,-33.77448,-16.38639
18.102122784,-119.6654,-76.5995899999998,1.319517,0.9767479,-0.344552,0.241635,-31.08001,-33.77448,-16.38639
18.112033367,-119.7893,-77.5316200000002,1.196791,0.9612075,-0.3476194,0.2484805,-31.08001,-33.77448,-16.38639
18.121943951,-116.6924,-80.2694600000001,-1.625903,0.9751905,-0.3692472,0.2515682,-31.08001,-33.77448,-16.38639
18.131855011,-106.5965,-83.9393400000002,-4.448596,1.014727,-0.4117051,0.2902927,-31.82505,-34.1507,-16.76682
18.141765595,-87.2098599999999,-85.3373800000001,-7.63946799999999,1.051239,-0.4518086,0.3228188,-31.82505,-34.1507,-16.76682
18.151677132,-69.49558,-85.3373800000001,-11.13715,1.11975,-0.4265227,0.4529567,-31.82505,-34.1507,-16.76682
18.161587715,-64.23085,-84.2888499999999,-13.53031,1.188802,-0.3665785,0.533384,-31.82505,-34.1507,-16.76682
18.171498299,-61.69138,-83.2403099999999,-15.24847,1.223452,-0.3349676,0.4684528,-31.82505,-34.1507,-16.76682
18.181409836,-40.26082,-82.3665300000003,-17.64162,1.252097,-0.3583753,0.3734407,-32.97474,-31.96408,-16.38224
18.191320419,-5.513573,-82.3082800000001,-21.20067,1.370148,-0.310705,0.3064047,-32.97474,-31.96408,-16.38224
18.20123148,15.73118,-89.5315199999998,-20.21886,1.522479,-0.3055059,0.1945942,-32.97474,-31.96408,-16.38224
18.211142063,24.52638,-94.9489600000003,-12.85531,1.666552,-0.3713538,0.05261687,-32.97474,-31.96408,-16.38224
18.221052647,65.34355,-83.2985600000001,0.1536215,1.726064,-0.4926316,-0.1033524,-32.97474,-31.96408,-16.38224
18.230964184,142.8281,-55.22112,17.58069,1.597444,-0.4066975,-0.05213411,-34.83546,-31.95221,-13.41726
18.240874767,168.2227,-28.89123,32.36915,1.173099,0.2087183,0.2483066,-34.83546,-31.95221,-13.41726
18.250785828,82.0668300000001,-29.29899,24.88287,0.5805289,0.8327212,0.2713884,-34.83546,-31.95221,-13.41726
18.260696888,-36.11097,-51.726,9.97168700000001,0.29884,1.484443,0.03009345,-34.83546,-31.95221,-13.41726
18.270607472,-115.2678,-66.8715099999998,-10.21671,0.420683,1.121652,-0.1002121,-34.83546,-31.95221,-13.41726
18.280518532,-110.4986,-68.5025600000002,-1.871354,0.9092093,0.6331974,-0.2875633,-34.81915,-31.93364,-8.855888
18.290429115,-60.70037,-47.93962,9.787598,1.022303,0.295458,-0.2404427,-34.81915,-31.93364,-8.855888
18.302817822,-19.44963,-36.63874,15.7398,0.8489532,0.01879659,-0.2550873,-34.81915,-31.93364,-8.855888
18.312729359,-29.9791,-48.58039,20.0352,0.7971267,-0.2035273,-0.1811845,-34.81915,-31.93364,-8.855888
18.322639942,-67.3277499999999,-68.3278100000002,22.06018,0.84938,-0.2584983,-0.06151424,-34.81915,-31.93364,-8.855888
18.332550526,-96.5005699999998,-77.1238599999998,20.34202,1.145887,-0.4017365,0.02697972,-35.57113,-31.55754,-8.467682
18.342461586,-95.5715,-65.5317200000001,20.40338,1.333398,-0.5797371,0.03174226,-35.57113,-31.55754,-8.467682
18.35237217,-72.0969799999999,-46.07556,19.48294,1.317676,-0.5755911,-0.06603698,-35.57113,-31.55754,-8.467682
18.362283707,-42.55252,-34.36691,17.21251,1.113685,-0.5230894,-0.2035267,-35.57113,-31.55754,-8.467682
18.37219429,-15.11397,-33.78439,13.53074,0.970755,-0.4044867,-0.2695972,-35.57113,-31.55754,-8.467682
18.382104874,-2.10698,-35.93972,11.99666,0.9715047,-0.2311916,-0.2319576,-36.32636,-30.80501,-7.630917
18.392016411,-8.23884800000001,-36.52224,13.1012,1.042983,-0.09562561,-0.1601719,-36.32636,-30.80501,-7.630917
18.401926994,-23.28979,-33.55138,17.3966,1.054681,0.01278632,-0.1321889,-36.32636,-30.80501,-7.630917
18.411838055,-40.01307,-29.76501,21.692,1.030123,0.127536,-0.1038283,-36.32636,-30.80501,-7.630917
18.421748638,-59.2757999999997,-28.36696,23.71698,0.9774086,0.2005732,-0.1042947,-36.32636,-30.80501,-7.630917
18.431660175,-78.9101600000001,-30.93005,24.69878,0.9354911,0.237668,-0.1430328,-37.0786,-30.04908,-5.958972
18.441570759,-95.3237499999997,-35.53195,25.37378,0.9557204,0.2241068,-0.1889253,-37.0786,-30.04908,-5.958972
18.451481342,-107.6494,-36.75524,28.25783,1.016114,0.177186,-0.2195662,-37.0786,-30.04908,-5.958972
18.46139288,-114.1529,-33.72614,32.00097,1.021049,0.1072751,-0.2493673,-37.0786,-30.04908,-5.958972
18.471303463,-114.6484,-29.82326,35.00775,0.9629257,0.01292942,-0.2581011,-37.0786,-30.04908,-5.958972
18.481214523,-114.4007,-28.36696,35.62138,0.8987502,-0.07378084,-0.2758511,-37.46394,-29.30149,-6.344801
18.491125107,-114.7104,-28.94948,35.19184,0.8969455,-0.1339663,-0.2839179,-37.46394,-29.30149,-6.344801
18.50103569,-113.9052,-27.84269,34.14867,0.9283652,-0.1764356,-0.3214636,-37.46394,-29.30149,-6.344801
18.510947228,-109.5695,-24.40583,31.87824,0.9633164,-0.188322,-0.3602787,-37.46394,-29.30149,-6.344801
18.520857811,-102.9421,-20.44469,30.89644,0.9668605,-0.1806594,-0.3871493,-37.46394,-29.30149,-6.344801
18.530768871,-96.0050699999999,-18.40588,29.73054,0.9353987,-0.166017,-0.3862806,-38.6204,-27.05924,-7.630778
18.540679932,-92.2268400000002,-18.93014,28.62601,0.9092457,-0.161339,-0.3562378,-38.6204,-27.05924,-7.630778
18.550590515,-94.2088599999997,-18.69714,27.33739,0.9186231,-0.1716607,-0.3122187,-38.6204,-27.05924,-7.630778
18.560501575,-95.1998699999998,-18.46413,26.78512,0.9309159,-0.1990284,-0.2899473,-38.6204,-27.05924,-7.630778
18.570412159,-93.8372300000001,-19.1049,26.23286,0.942759,-0.2110203,-0.2934978,-38.6204,-27.05924,-7.630778
18.582800865,-89.9351399999998,-19.2214,26.17149,0.9524302,-0.2111935,-0.2566162,-38.64416,-25.56582,-8.856042
18.592712402,-87.0859900000002,-19.74567,26.35558,0.9558179,-0.2211645,-0.2240632,-38.64416,-25.56582,-8.856042
18.602622986,-85.2278399999998,-20.15343,26.04877,0.960999,-0.1914438,-0.2085481,-38.64416,-25.56582,-8.856042
18.612533569,-82.5025700000001,-19.45441,25.86468,0.978527,-0.1290714,-0.1905288,-38.64416,-25.56582,-8.856042
18.62244463,-83.1838900000002,-18.05636,25.37378,0.9653788,-0.0433639,-0.180233,-40.15735,-24.44399,-9.301431
18.632355213,-88.6344399999998,-17.88161,24.45333,0.9594384,-0.00372354,-0.1885568,-40.15735,-24.44399,-9.301431
18.64226675,-92.9701,-17.99811,23.3488,0.9488326,0.01304535,-0.2017915,-40.15735,-24.44399,-9.301431
18.652177334,-97.5535200000001,-19.39616,22.12154,0.9536665,0.008199542,-0.2129121,-40.15735,-24.44399,-9.301431
18.662087917,-101.1459,-20.6777,20.83292,0.9882386,-0.04680228,-0.2438482,-40.15735,-24.44399,-9.301431
18.671999454,-99.5355400000002,-20.26994,20.21929,1.033914,-0.134172,-0.2789439,-40.12407,-22.19641,-9.308679
18.681910038,-95.26181,-18.75539,20.89428,1.054452,-0.1919539,-0.2511895,-40.12407,-22.19641,-9.308679
18.691821098,-92.3507200000001,-16.83307,22.67381,1.02981,-0.1864987,-0.168338,-40.12407,-22.19641,-9.308679
18.701731682,-93.3417300000002,-16.25055,23.16471,0.9707149,-0.1491547,-0.1176063,-40.12407,-22.19641,-9.308679
18.711642265,-93.2178599999999,-16.71657,22.8579,0.8900852,-0.1099001,-0.1141983,-40.12407,-22.19641,-9.308679
18.721553802,-91.2358399999998,-17.93986,21.63064,0.8313312,-0.1121392,-0.1242333,-39.82002,-21.82519,-10.14663
18.731464386,-87.89118,-20.6777,19.42157,0.8729012,-0.1601466,-0.13214,-39.82002,-21.82519,-10.14663
18.741375446,-84.4226499999999,-21.02721,18.31704,0.986621,-0.2246731,-0.1331414,-39.82002,-21.82519,-10.14663
18.751286507,-82.5025700000001,-18.40588,18.93067,1.045464,-0.283603,-0.1383996,-39.82002,-21.82519,-10.14663
18.76119709,-79.46761,-15.49328,20.89428,1.044946,-0.2972826,-0.1572121,-39.82002,-21.82519,-10.14663
18.77110815,-74.2028699999997,-12.93019,22.24427,1.058209,-0.2626999,-0.1585448,-40.15534,-20.01467,-10.15059
18.781018734,-73.6454300000001,-10.89137,23.90107,1.063995,-0.198039,-0.1384811,-40.15534,-20.01467,-10.15059
18.790930271,-81.3257500000001,-8.32828599999997,25.37378,1.080247,-0.1463172,-0.1142789,-40.15534,-20.01467,-10.15059
18.800840855,-86.9621100000002,-3.435122,26.90785,1.11192,-0.03183872,-0.08644017,-40.15534,-20.01467,-10.15059
18.810751438,-93.89918,2.157067,28.8101,1.098482,0.07810841,-0.07598026,-40.15534,-20.01467,-10.15059
18.820662498,-104.8622,9.78807399999997,30.58962,1.109772,0.1748486,-0.05383307,-40.52799,-20.01287,-9.698931
18.830573559,-114.1529,17.30258,32.79869,1.087398,0.2241364,-0.03217083,-40.52799,-20.01287,-9.698931
18.840484619,-128.3367,24.99184,35.2532,1.067934,0.2417501,0.04543199,-40.52799,-20.01287,-9.698931
18.850395203,-145.4316,33.55487,38.19862,1.113718,0.2159,0.09285218,-40.52799,-20.01287,-9.698931
18.862783909,-161.6594,46.31205,43.84401,1.347558,0.2418147,0.1335963,-40.52799,-20.01287,-9.698931
18.872694969,-173.4896,66.3507199999999,46.29853,1.523326,0.3619247,0.1529376,-40.56492,-17.3941,-10.54219
18.882606029,-184.3287,93.7874,44.27355,1.47408,0.5369708,0.1809679,-40.56492,-17.3941,-10.54219
18.892516613,-185.7533,119.3018,36.66455,1.319027,0.6518276,0.2633535,-40.56492,-17.3941,-10.54219
18.902427673,-187.7353,139.923,26.96921,1.375838,0.9274418,0.3563744,-40.56492,-17.3941,-10.54219
18.912338257,-202.4146,165.6703,10.83077,1.307748,0.9031112,0.3160286,-40.56492,-17.3941,-10.54219
18.922249794,-240.2588,179.7673,0.767250500000003,1.375942,0.7887018,0.06111217,-39.54557,-15.16004,-13.89535
18.932160377,-282.2528,165.6703,6.47400099999998,1.366264,0.6637272,-0.3612098,-39.54557,-15.16004,-13.89535
18.942070961,-291.1719,144.5831,21.01701,1.444384,0.5578183,-0.496602,-39.54557,-15.16004,-13.89535
18.951982498,-274.3247,140.9132,30.22145,1.580787,0.3868259,-0.7943,-39.54557,-15.16004,-13.89535
18.961893082,-272.2808,141.4958,38.81225,1.59302,0.2738127,-0.925769,-39.54557,-15.16004,-13.89535
18.971804142,-283.5535,137.5929,41.14404,1.526557,0.1710561,-0.9469659,-36.599,-12.55305,-17.70943
18.981714725,-279.032,133.1075,38.75089,1.431303,0.03359115,-0.8600921,-36.599,-12.55305,-17.70943
18.991625309,-247.3817,133.5152,35.98956,1.343487,-0.04324035,-0.6922166,-36.599,-12.55305,-17.70943
19.001536846,-198.5125,137.8259,30.22145,1.290856,-0.1220891,-0.6240727,-36.599,-12.55305,-17.70943
19.01144743,-151.8732,140.7967,25.55787,1.199994,-0.08587069,-0.6205903,-36.599,-12.55305,-17.70943
19.02135849,-116.5685,141.787,16.90569,1.125294,-0.02285614,-0.6310034,-32.55223,-7.374221,-18.58198
19.03126955,-92.8462299999997,143.3016,7.33308200000001,1.121747,0.04532905,-0.5632942,-32.55223,-7.374221,-18.58198
19.041180134,-79.46761,149.185,-0.2759189,1.128078,0.1122246,-0.4875222,-32.55223,-7.374221,-18.58198
19.051091194,-70.1149599999998,153.6122,-6.53493500000002,1.058658,0.1516011,-0.4875783,-32.55223,-7.374221,-18.58198
19.061001778,-64.2927900000003,150.2336,-10.64625,0.9456583,0.1782052,-0.5084432,-32.55223,-7.374221,-18.58198
19.070913315,-68.00907,138.0006,-13.28485,0.8603377,0.1375108,-0.4839174,-29.26287,-1.381994,-19.00342
19.080823898,-75.6274500000003,125.5347,-15.37119,0.8222179,0.1260719,-0.4476292,-29.26287,-1.381994,-19.00342
19.090734482,-83.6174499999998,113.5348,-17.64162,0.796039,0.1080579,-0.3990111,-29.26287,-1.381994,-19.00342
19.100645542,-90.9880799999999,101.9427,-20.83249,0.7783812,0.1185404,-0.3920557,-29.26287,-1.381994,-19.00342
19.110556603,-95.6334400000002,92.3311000000002,-23.71655,0.7410836,0.1350772,-0.3858387,-29.26287,-1.381994,-19.00342
19.120467663,-97.3677100000001,82.1370100000001,-27.58241,0.6856554,0.1372208,-0.4001968,-25.25956,2.678017,-18.65154
19.130378246,-96.0670100000001,71.1856400000002,-29.05512,0.6325319,0.1093264,-0.4157365,-25.25956,2.678017,-18.65154
19.142766953,-89.19188,58.1372000000001,-32.98235,0.5847405,0.07952397,-0.4380605,-25.25956,2.678017,-18.65154
19.152678013,-80.1489300000001,49.63242,-37.46184,0.570238,0.09381267,-0.4527161,-25.25956,2.678017,-18.65154
19.162589073,-71.9731100000002,41.12763,-41.20498,0.5562398,0.1390868,-0.4772533,-25.25956,2.678017,-18.65154
19.172499657,-70.7343400000002,29.59374,-43.22995,0.5673631,0.2011061,-0.5119945,-23.05305,6.054784,-17.38871
19.182410717,-79.46761,16.25404,-44.33449,0.565806,0.2264066,-0.4911648,-23.05305,6.054784,-17.38871
19.192321301,-95.1998699999998,3.322106,-42.9845,0.5756745,0.2068239,-0.4577754,-23.05305,6.054784,-17.38871
19.202232838,-110.6844,-9.26031799999999,-40.28453,0.6101987,0.0915665,-0.42093,-23.05305,6.054784,-17.38871
19.212143421,-121.09,-22.65827,-32.00054,0.6797397,-0.08870516,-0.3834012,-23.05305,6.054784,-17.38871
19.222054005,-126.6025,-38.44455,-19.11433,0.7066439,-0.2788283,-0.3666705,-22.3212,7.936448,-15.2783
19.231965065,-139.114,-56.50266,-6.22812100000001,0.6841421,-0.4078779,-0.3279492,-22.3212,7.936448,-15.2783
19.241876125,-164.2608,-75.2598000000001,7.946711,0.7043217,-0.5221746,-0.258314,-22.3212,7.936448,-15.2783
19.251787186,-195.9731,-92.7936300000002,19.42157,0.6657209,-0.6109193,-0.1687587,-22.3212,7.936448,-15.2783
19.261697769,-219.4476,-108.6964,24.08516,0.7275282,-0.6461334,-0.09562051,-22.3212,7.936448,-15.2783
19.271608353,-218.5185,-119.939,20.09657,0.828502,-0.651324,-0.03032709,-23.41748,6.826166,-11.92828
19.28151989,-184.5765,-121.1623,9.41941999999998,0.9296452,-0.6232557,0.09040454,-23.41748,6.826166,-11.92828
19.291430473,-134.6544,-111.4343,-5.553129,0.9924462,-0.5843028,0.2518966,-23.41748,6.826166,-11.92828
19.301341534,-98.6064699999998,-96.114,-18.31661,1.063193,-0.5510424,0.418559,-23.41748,6.826166,-11.92828
19.311252117,-91.2358399999998,-85.3373800000001,-23.962,1.160192,-0.5570331,0.6197686,-23.41748,6.826166,-11.92828
19.321163654,-94.08499,-73.2792299999997,-21.07795,1.25509,-0.6519046,0.7027668,-24.16099,7.59203,-7.815037
19.331074238,-79.5914800000002,-60.5220499999998,-13.53031,1.343401,-0.767951,0.7386293,-24.16099,7.59203,-7.815037
19.340984821,-41.68539,-45.14352,-6.289484,1.341937,-0.7172449,0.7029688,-24.16099,7.59203,-7.815037
19.350896359,-7.309776,-34.59992,-4.632685,1.193019,-0.4575812,0.551945,-24.16099,7.59203,-7.815037
19.360806942,-2.974113,-40.77463,-4.632685,1.027217,-0.1806995,0.3959105,-24.16099,7.59203,-7.815037
19.370718002,-33.69538,-59.9977799999998,-5.062225,0.972084,0.1166756,0.2793222,-26.39411,7.225882,-5.682133
19.380628586,-87.0240499999999,-81.9587699999998,-14.81893,1.13136,0.3756447,0.1883444,-26.39411,7.225882,-5.682133
19.390539169,-121.9571,-101.4732,-21.93703,1.544764,0.2304468,-0.008509437,-26.39411,7.225882,-5.682133
19.400450707,-85.4756000000003,-92.3276200000002,-9.35762899999997,1.890048,0.02725331,-0.1926356,-26.39411,7.225882,-5.682133
19.412839413,42.79811,-34.25041,12.85574,1.591044,-0.04346456,-0.4889998,-26.39411,7.225882,-5.682133
19.422749996,95.5693200000002,-5.299184,5.73764600000002,0.9421976,0.2005905,-0.3906234,-26.41264,9.48548,-2.733804
19.432661057,38.58632,-17.88161,-7.45537899999998,0.5273535,0.3777393,-0.1061545,-26.41264,9.48548,-2.733804
19.44257164,-64.10697,-42.81345,-11.50533,0.4605017,0.3847938,0.1062605,-26.41264,9.48548,-2.733804
19.4524827,-111.7373,-52.07551,-12.48714,0.6930201,0.2134615,0.07319888,-26.41264,9.48548,-2.733804
19.462393761,-70.4246499999997,-41.88142,-14.08257,0.9054488,0.172313,-0.145111,-26.41264,9.48548,-2.733804
19.472304344,2.600312,-23.88156,-18.86888,1.057407,0.1999876,-0.4099388,-25.70041,12.86526,-0.6922531
19.482215881,26.63227,-15.55153,-19.54387,1.124954,0.1411086,-0.5199517,-25.70041,12.86526,-0.6922531
19.492126465,-16.22886,-22.42526,-15.67801,1.123244,-0.05194106,-0.5313054,-25.70041,12.86526,-0.6922531
19.502037525,-62.1868900000002,-31.62907,-7.70083,1.148348,-0.2217595,-0.4279943,-25.70041,12.86526,-0.6922531
19.511948109,-73.8931799999998,-33.60964,0.705887599999999,1.13764,-0.3213542,-0.2537812,-25.70041,12.86526,-0.6922531
19.521859169,-80.0869899999998,-33.72614,6.84217800000002,1.100661,-0.2814676,-0.04622531,-25.70172,13.56065,1.425705
19.531770229,-98.8542200000001,-34.83293,10.95349,1.067572,-0.2030246,0.01366276,-25.70172,13.56065,1.425705
19.541680813,-107.1539,-36.87175,14.26709,1.042447,-0.1171104,-0.09452844,-25.70172,13.56065,1.425705
19.55159235,-96.3766899999998,-37.22126,14.81936,1.027308,-0.0534059,-0.2087218,-25.70172,13.56065,1.425705
19.561502933,-75.5035699999997,-33.26012,14.26709,1.053339,-0.01351762,-0.2461492,-25.32335,13.94547,3.928144
19.571413517,-61.5055700000001,-22.77477,14.94208,1.093136,0.02512697,-0.1823988,-25.32335,13.94547,3.928144
19.581324577,-61.7533199999997,-12.34767,14.38982,1.107309,0.03409039,-0.07731546,-25.32335,13.94547,3.928144
19.591235161,-69.0620199999998,-5.124428,13.5921,1.081352,0.002045429,-0.02351117,-25.32335,13.94547,3.928144
19.601146698,-76.3706999999998,-1.396303,13.53074,1.047676,-0.06711676,-0.003013676,-25.32335,13.94547,3.928144
19.611057281,-81.0160600000002,2.098815,13.71482,1.006356,-0.1309261,-0.05395341,-24.9496,14.70515,6.493675
19.620967865,-78.9101600000001,3.089098,14.20573,0.9653628,-0.1082415,-0.1624191,-24.9496,14.70515,6.493675
19.630879402,-77.9191599999997,0.875523700000001,13.83755,0.8969047,-0.02472797,-0.2553406,-24.9496,14.70515,6.493675
19.640789986,-86.7763000000003,-6.23121499999997,12.05803,0.8411965,0.01994841,-0.2948611,-24.9496,14.70515,6.493675
19.650701046,-94.39468,-11.29914,10.2785,0.8921248,-0.03132188,-0.2999951,-24.9496,14.70515,6.493675
19.660611629,-89.1299399999997,-11.93991,9.787598,0.9436004,-0.1164538,-0.2914351,-24.57906,15.46117,8.159782
19.670523167,-80.0250500000001,-10.54186,9.17396900000002,0.9767888,-0.1599628,-0.2531391,-24.57906,15.46117,8.159782
19.68043375,-76.6804,-8.50304200000002,8.80579200000003,0.9740245,-0.1184478,-0.1880156,-24.57906,15.46117,8.159782
19.690344334,-80.8302500000002,-8.095279,8.43761400000001,0.9322995,-0.05539912,-0.1776065,-24.57906,15.46117,8.159782
19.70273304,-88.8821900000001,-11.47389,6.10582399999999,0.8946978,-0.025362,-0.1852213,-24.57906,15.46117,8.159782
19.7126441,-89.2538200000003,-13.1632,5.124017,0.9210922,-0.04406075,-0.2081574,-24.20416,16.22215,11.04654
19.722554684,-82.4406400000001,-14.15348,4.326299,0.9628755,-0.08879083,-0.2390918,-24.20416,16.22215,11.04654
19.732466221,-74.38869,-12.05641,5.062654,0.9781399,-0.1163504,-0.2610237,-24.20416,16.22215,11.04654
19.742376804,-69.0000800000001,-8.61954700000002,5.86037199999999,0.9493246,-0.1157187,-0.2569117,-24.20416,16.22215,11.04654
19.752287388,-65.0360399999998,-7.62926299999999,5.79900900000001,0.9437993,-0.1307361,-0.2411155,-24.20416,16.22215,11.04654
19.762198925,-59.2757999999997,-7.454507,4.75584,0.9945386,-0.1062554,-0.2236558,-23.44807,16.23084,13.16272
19.772109508,-56.55053,-4.833169,4.264936,1.046536,-0.03284501,-0.2169254,-23.44807,16.23084,13.16272
19.782020569,-61.0720000000002,-1.163295,3.160404,1.030707,0.05612374,-0.2257894,-23.44807,16.23084,13.16272
19.791931152,-69.9291499999999,-1.512807,0.583161800000002,0.9719362,0.04704655,-0.245473,-23.44807,16.23084,13.16272
19.801842689,-73.3357400000002,-2.79435,-1.441814,0.9972745,-0.0185256,-0.2355807,-23.44807,16.23084,13.16272
19.811753273,-70.5485300000003,-2.736098,-0.828185100000001,1.04092,-0.03888984,-0.2471637,-23.45317,16.98526,14.4453
19.821663856,-71.60148,-1.629311,1.196791,1.041858,-0.01987395,-0.2287997,-23.45317,16.98526,14.4453
19.831575394,-76.9900899999999,-0.4060195,1.749057,1.010091,-0.04099089,-0.2041585,-23.45317,16.98526,14.4453
19.841485977,-77.2997700000002,0.293004,1.626331,0.9847059,-0.06543009,-0.1810389,-23.45317,16.98526,14.4453
19.851397037,-73.3976799999999,0.1182482,1.994509,0.9542449,-0.05271463,-0.1801924,-23.45317,16.98526,14.4453
19.861307621,-73.7693100000001,0.293004,3.221767,0.9438112,0.01657848,-0.1628287,-23.06809,16.61749,16.11487
19.871218204,-83.8032700000001,0.293004,3.160404,0.9447247,0.06167478,-0.1639772,-23.06809,16.61749,16.11487
19.881129742,-95.1998699999998,0.1182482,2.301323,0.9484007,0.05086939,-0.1996149,-23.06809,16.61749,16.11487
19.891040325,-99.4735999999999,0.2347521,1.319517,0.9567825,-0.01191727,-0.2663725,-23.06809,16.61749,16.11487
19.900951385,-94.39468,-0.2312636,0.3377102,0.9681059,-0.1127031,-0.2815534,-23.06809,16.61749,16.11487
19.910862446,-88.01506,0.1182482,0.705887599999999,0.9973234,-0.1850724,-0.2827859,-23.05566,16.25152,18.2361
19.920773506,-83.3697099999999,-0.1147597,2.976315,1.02211,-0.2221513,-0.2933455,-23.05566,16.25152,18.2361
19.93068409,-79.4056700000002,0.1765001,5.92173499999998,1.032627,-0.2099463,-0.3024845,-23.05566,16.25152,18.2361
19.940594673,-81.75932,-0.3477675,6.044461,1.016863,-0.1819105,-0.2810249,-23.05566,16.25152,18.2361
19.95050621,-84.6084700000002,-0.1147597,4.510388,1.020571,-0.1724506,-0.2421034,-23.05566,16.25152,18.2361
19.960416794,-84.11296,1.516295,2.669501,1.01294,-0.1880586,-0.2416566,-23.04346,15.88529,20.29308
19.9728055,-81.63544,3.14735,1.135428,1.006837,-0.134844,-0.2498885,-23.04346,15.88529,20.29308
19.98271656,-78.4765999999999,5.477429,0.6445247,1.02285,0.01186615,-0.233214,-23.04346,15.88529,20.29308
19.992627144,-80.0250500000001,11.18612,-1.012274,1.077624,0.1966908,-0.1590251,-23.04346,15.88529,20.29308
20.002537727,-84.6704000000002,21.78798,-2.914524,1.099855,0.3051292,-0.05767501,-23.04346,15.88529,20.29308
20.012449265,-94.0230499999997,31.3413,-3.957693,1.106156,0.3512822,0.03860583,-22.27927,15.14296,21.96185
20.022359848,-105.9152,38.27328,-1.932717,1.130344,0.3665837,0.126353,-22.27927,15.14296,21.96185
20.032270908,-117.2498,43.28296,2.608138,1.120602,0.4503742,0.1327633,-22.27927,15.14296,21.96185
20.042181969,-130.1329,46.71982,5.676283,1.067828,0.5445955,0.103629,-22.27927,15.14296,21.96185
20.052093029,-147.9711,49.80717,7.51716999999999,1.100638,0.5403931,0.05576194,-22.27927,15.14296,21.96185
20.062003613,-161.1639,57.03042,9.60350899999999,1.170466,0.4356145,-0.02864924,-22.64248,14.77539,23.69956
20.071914196,-170.5165,70.83613,12.85574,1.205159,0.381651,-0.0466153,-22.64248,14.77539,23.69956
20.081825733,-190.4606,81.7874999999999,15.12617,1.120904,0.3739281,-0.1179113,-22.64248,14.77539,23.69956
20.091736317,-210.6524,83.1272900000002,13.71482,1.00216,0.3036892,-0.2877372,-22.64248,14.77539,23.69956
20.101647377,-213.8112,77.6516099999998,9.60350899999999,0.9492035,0.183926,-0.4421761,-22.64248,14.77539,23.69956
20.111558437,-209.6614,71.9429200000001,5.86037199999999,0.9466361,0.1152993,-0.4867841,-23.36643,13.34618,25.37823
20.121469021,-204.5825,67.28276,3.28313,0.9736658,0.08351214,-0.5107736,-23.36643,13.34618,25.37823
20.131380081,-196.5925,62.4478499999999,1.994509,0.9688262,0.04665205,-0.5013712,-23.36643,13.34618,25.37823
20.141290665,-187.1779,57.3216799999998,1.564968,0.9686681,0.01389565,-0.4598143,-23.36643,13.34618,25.37823
20.151202202,-178.5065,53.30229,0.460436,0.9580069,0.00332749,-0.4151313,-23.36643,13.34618,25.37823
20.161112785,-169.3397,50.33144,-1.319088,0.9276804,0.01757631,-0.3993909,-25.90406,7.357676,26.69521
20.171023846,-159.1819,47.24409,-4.755411,0.8780102,0.0602242,-0.3770403,-25.90406,7.357676,26.69521
20.180934429,-150.5106,42.23442,-8.49854900000003,0.8300229,0.1286082,-0.3511727,-25.90406,7.357676,26.69521
20.19084549,-146.1129,35.41894,-12.91668,0.8086195,0.2186317,-0.3302084,-25.90406,7.357676,26.69521
20.20075655,-146.1749,26.21513,-17.82571,0.8195684,0.2988574,-0.3129696,-25.90406,7.357676,26.69521
20.210667133,-148.7144,14.68124,-20.52568,0.8740509,0.3006208,-0.2908943,-26.59114,2.486046,26.26439
20.220578671,-149.2718,5.302673,-19.23706,0.9354861,0.2652131,-0.254246,-26.59114,2.486046,26.26439
20.230489254,-142.7683,3.43861,-17.33481,0.9779945,0.2179335,-0.2175018,-26.59114,2.486046,26.26439
20.240399838,-132.3627,8.27352199999998,-15.49392,0.9898559,0.1832725,-0.1981559,-26.59114,2.486046,26.26439
20.252789021,-123.3197,11.88514,-12.48714,0.9339644,0.1320131,-0.2248693,-26.59114,2.486046,26.26439
20.262699604,-121.8332,7.45799500000003,-10.58489,0.8646016,0.09800901,-0.2575853,-27.28501,-2.329949,24.16302
20.272610188,-123.2578,-3.784633,-8.06900800000002,0.8340504,0.02483265,-0.2707545,-27.28501,-2.329949,24.16302
20.282521725,-122.2049,-16.77482,-7.20992699999999,0.844988,-0.04663728,-0.241562,-27.28501,-2.329949,24.16302
20.292432308,-116.6304,-26.44465,-8.68263700000001,0.8612914,-0.1063391,-0.1998566,-27.28501,-2.329949,24.16302
20.302343369,-109.5076,-31.51257,-10.52352,0.9073673,-0.113261,-0.149432,-27.28501,-2.329949,24.16302
20.312253952,-105.7293,-32.15334,-11.56669,0.980841,-0.08398244,-0.102861,-28.01824,-4.213181,21.66714
20.322165012,-104.9861,-30.52228,-11.68942,1.049793,-0.04457787,-0.05618067,-28.01824,-4.213181,21.66714
20.332076073,-99.5355400000002,-26.21164,-11.87351,1.093304,-0.04671529,-0.01194258,-28.01824,-4.213181,21.66714
20.341986656,-83.9890800000001,-19.33791,-12.5485,1.086731,-0.0795812,0.02391111,-28.01824,-4.213181,21.66714
20.351898193,-63.0540199999997,-13.1632,-13.7144,1.050733,-0.1040801,0.061053,-28.01824,-4.213181,21.66714
20.361808777,-45.71137,-11.18263,-13.95985,0.9654007,-0.06478936,0.08275074,-26.87234,-6.467462,19.99787
20.371719837,-35.42965,-15.49328,-13.53031,0.9000843,0.02058086,0.05991562,-26.87234,-6.467462,19.99787
20.381630421,-30.22686,-20.91071,-11.56669,0.8940169,0.1047849,0.04372716,-26.87234,-6.467462,19.99787
20.391541004,-29.42166,-22.30876,-11.68942,0.9244521,0.148393,0.05862111,-26.87234,-6.467462,19.99787
20.401452541,-33.3857,-20.15343,-12.24169,0.954305,0.1973125,0.07067488,-26.87234,-6.467462,19.99787
20.411363125,-37.16392,-17.82336,-13.89848,0.9638805,0.2353778,0.09532798,-26.49298,-7.221851,18.71334
20.421274662,-42.92416,-17.18258,-14.63484,0.9757931,0.2283,0.1042937,-26.49298,-7.221851,18.71334
20.431185246,-46.88819,-21.08547,-13.40758,0.9684238,0.1998973,0.06768058,-26.49298,-7.221851,18.71334
20.441095829,-50.23285,-27.14367,-9.84853300000002,0.9889737,0.1243122,0.02809417,-26.49298,-7.221851,18.71334
20.451006889,-51.71936,-31.33781,-4.755411,0.9884207,0.008183913,-0.01876955,-26.49298,-7.221851,18.71334
20.460917473,-47.32175,-34.42516,0.889976299999999,0.9845682,-0.08402058,-0.02559025,-25.75256,-6.47077,19.15685
20.47082901,-40.38469,-37.74553,4.264936,0.9936617,-0.1105876,-0.02825213,-25.75256,-6.47077,19.15685
20.480739594,-38.09299,-40.54162,5.18538,1.005193,-0.09688807,-0.03210878,-25.75256,-6.47077,19.15685
20.490650654,-34.50058,-41.12414,3.589944,1.049897,-0.06817827,-0.02608888,-25.75256,-6.47077,19.15685
20.500561714,-22.4846,-39.14357,4.510388,1.065808,-0.07516158,-0.008516705,-25.75256,-6.47077,19.15685
20.510472298,-6.07101500000003,-36.11447,6.53536400000002,1.006468,-0.07794509,-0.02863326,-25.01349,-6.101343,17.86691
20.520383358,1.980931,-36.63874,5.246743,0.9327208,-0.02591153,-0.1020291,-25.01349,-6.101343,17.86691
20.532772064,2.104807,-43.80373,0.460436,0.9430695,0.08229461,-0.1105269,-25.01349,-6.101343,17.86691
20.542682648,8.85605400000001,-42.34743,-0.705459200000001,1.034571,0.1549327,-0.06719486,-25.01349,-6.101343,17.86691
20.552594185,16.04087,-32.79411,0.460436,1.064141,0.1910309,-0.002406482,-24.64109,-5.723319,18.69899
20.562504768,16.96994,-24.75534,1.626331,1.011222,0.1447067,-0.01951139,-24.64109,-5.723319,18.69899
20.572415829,11.33358,-26.26989,5.18538,0.9537258,0.0921418,-0.01356794,-24.64109,-5.723319,18.69899
20.582326412,6.31659499999999,-30.46403,9.17396900000002,0.941649,0.04841115,-0.002703943,-24.64109,-5.723319,18.69899
20.592236996,6.56434699999999,-32.91061,12.61029,0.959352,0.04209403,-0.04804463,-24.64109,-5.723319,18.69899
20.602148533,13.68722,-32.91061,13.46937,0.9956219,0.05746595,-0.06940461,-24.65265,-4.596135,19.53071
20.612059116,23.72119,-29.24074,11.87394,0.9953315,0.08755878,-0.06247923,-24.65265,-4.596135,19.53071
20.621970177,23.78312,-26.38639,6.53536400000002,0.9729791,0.1197845,-0.05869671,-24.65265,-4.596135,19.53071
20.631881237,18.33258,-25.92038,1.012702,1.02296,0.1180258,-0.05052783,-24.65265,-4.596135,19.53071
20.641792297,17.03188,-23.06603,-1.871354,1.106943,0.1192655,-0.01336375,-24.65265,-4.596135,19.53071
20.651702881,18.02289,-16.25055,-1.441814,1.13373,0.1110149,0.01418273,-23.16371,-3.844994,19.97033
20.661613464,15.1118,-12.63893,0.583161800000002,1.067884,0.1046595,-0.02462363,-23.16371,-3.844994,19.97033
20.671525001,6.87403699999997,-14.91076,1.687694,1.013279,0.06819811,-0.09926622,-23.16371,-3.844994,19.97033
20.681435585,0.1227897,-18.69714,2.914952,1.000378,0.01745772,-0.1292548,-23.16371,-3.844994,19.97033
20.691346645,-0.992095199999997,-18.58063,4.878565,1.040095,0.006791721,-0.1311336,-23.16371,-3.844994,19.97033
20.701257706,3.467444,-13.97873,8.37625100000002,1.050784,0.02396441,-0.1176736,-23.56083,-1.970478,20.35197
20.711168289,13.93497,-8.15353100000001,9.60350899999999,1.017651,0.09653127,-0.06886793,-23.56083,-1.970478,20.35197
20.721079349,15.91699,-4.075893,5.001291,0.9440213,0.1332645,-0.1010732,-23.56083,-1.970478,20.35197
20.730989933,8.979931,-5.88170400000003,0.1536215,0.9013475,0.06412971,-0.1472343,-23.56083,-1.970478,20.35197
20.74090147,6.254657,-8.03702600000001,-2.423621,0.9417199,-0.02838573,-0.1333391,-23.56083,-1.970478,20.35197
20.750812054,12.57234,-6.75548299999999,-2.669072,1.009955,-0.087634,-0.1290831,-23.18982,-1.594023,20.79858
20.760723114,22.54436,-3.318618,-2.914524,1.049406,-0.07941347,-0.134675,-23.18982,-1.594023,20.79858
20.770633697,28.98592,-0.4642715,-4.878137,1.013703,-0.02426415,-0.1661479,-23.18982,-1.594023,20.79858
20.780544758,29.41949,-2.969106,-7.02583799999998,0.9667611,-0.02680412,-0.1690919,-23.18982,-1.594023,20.79858
20.790455818,31.46344,-6.23121499999997,-8.00764499999998,0.9840445,-0.04283856,-0.1237435,-23.18982,-1.594023,20.79858
20.800366402,38.02888,-5.415688,-7.57810399999998,1.037795,-0.04437385,-0.08151674,-22.82041,-1.219397,20.79548
20.812755108,42.61229,-1.804067,-6.84175,1.044834,-0.01760642,-0.07900272,-22.82041,-1.219397,20.79548
20.822666168,39.82508,-0.755531299999998,-7.27128999999997,1.036534,0.005462017,-0.09845877,-22.82041,-1.219397,20.79548
20.832577229,32.64027,-1.512807,-7.57810399999998,1.021886,0.03528447,-0.1091682,-22.82041,-1.219397,20.79548
20.842488289,23.96894,-3.668129,-7.82355600000003,0.9825385,0.05223592,-0.1115724,-22.82041,-1.219397,20.79548
20.852398872,19.88103,-8.50304200000002,-7.33265300000001,0.9654327,0.05495252,-0.1075548,-22.83309,-0.4736052,19.958
20.862309456,19.07583,-12.17292,-6.22812100000001,1.013584,0.07737703,-0.1064103,-22.83309,-0.4736052,19.958
20.872220993,15.04986,-11.53214,-3.405427,1.068625,0.1177102,-0.1277775,-22.83309,-0.4736052,19.958
20.882131577,7.369542,-7.10499500000003,-0.705459200000001,1.081678,0.1380377,-0.1661755,-22.83309,-0.4736052,19.958
20.892042637,4.024887,-2.328334,0.0922585699999997,1.007918,0.1376387,-0.159254,-22.83309,-0.4736052,19.958
20.90195322,-0.001086392,-2.386586,-0.5213705,0.9177879,0.1357011,-0.1291437,-22.83171,-0.4720366,20.34346
20.911864758,-8.300786,-7.68751500000001,-1.196362,0.8937892,0.09611648,-0.1315862,-22.83171,-0.4720366,20.34346
20.921775341,-16.60048,-13.2797,-1.012274,0.9092581,0.03988277,-0.1671555,-22.83171,-0.4720366,20.34346
20.931685925,-19.75933,-17.00783,-1.012274,0.9227649,-0.01540311,-0.2022201,-22.83171,-0.4720366,20.34346
20.941597462,-17.03405,-19.1049,-1.441814,0.9530848,-0.05550901,-0.2488629,-22.83171,-0.4720366,20.34346
20.951508045,-10.40668,-19.33791,-2.055443,0.9929536,-0.05902698,-0.2751836,-22.83633,-0.09717977,20.40656
20.961419106,-3.593493,-17.5321,-2.116806,1.020632,-0.06365617,-0.2994783,-22.83633,-0.09717977,20.40656
20.971329689,1.795117,-15.72629,-1.503177,1.01398,-0.06242596,-0.3267776,-22.83633,-0.09717977,20.40656
20.981241226,9.66124900000002,-13.39621,-0.950910899999997,1.029169,-0.01173675,-0.3121756,-22.83633,-0.09717977,20.40656
20.99115181,17.09381,-10.1341,-2.178169,1.012313,0.08036969,-0.274434,-22.83633,-0.09717977,20.40656
21.001062393,17.58932,-9.20206600000003,-3.957693,0.9774349,0.1481433,-0.2107591,-23.19627,-1.221257,20.34772
21.01097393,13.74916,-11.53214,-5.000863,0.9519883,0.1597699,-0.1513869,-23.19627,-1.221257,20.34772
21.020884514,7.74116999999998,-13.51271,-5.123589,0.9685556,0.1153184,-0.1614394,-23.19627,-1.221257,20.34772
21.030795574,3.033878,-12.69718,-3.957693,0.9888601,0.06399585,-0.1965405,-23.19627,-1.221257,20.34772
21.040706158,-0.001086392,-9.72633399999999,-2.669072,1.009228,0.0209989,-0.2157415,-23.19627,-1.221257,20.34772
21.050617695,-1.425662,-7.16324699999999,-1.503177,1.018602,0.02262216,-0.205734,-22.07998,-0.4683166,21.23899
21.060528278,-1.054033,-5.007925,-1.012274,1.020209,0.0339333,-0.1787847,-22.07998,-0.4683166,21.23899
21.070438862,2.600312,-3.551625,0.1536215,1.002468,0.05803076,-0.1640553,-22.07998,-0.4683166,21.23899
21.080349922,6.750161,-3.260366,0.5217989,0.9895821,0.0758306,-0.1599763,-22.07998,-0.4683166,21.23899
21.092738628,7.67923199999999,-1.745815,-0.03046724,1.00368,0.08181912,-0.1610271,-22.07998,-0.4683166,21.23899
21.102649212,5.635276,0.700767799999999,-1.625903,1.010862,0.09500217,-0.1605255,-21.70087,-0.8428819,21.2382
21.112560749,2.104807,1.108532,-2.423621,1.006116,0.1230604,-0.161255,-21.70087,-0.8428819,21.2382
21.122471333,0.1847278,0.2347521,-1.809992,0.9734123,0.142919,-0.1800266,-21.70087,-0.8428819,21.2382
21.132382393,-0.992095199999997,-0.988539100000001,-0.950910899999997,0.9542838,0.1521573,-0.2225223,-21.70087,-0.8428819,21.2382
21.142293453,-5.451635,-0.8720351,-0.889547900000002,0.9532062,0.1130688,-0.2779909,-21.70087,-0.8428819,21.2382
21.152204037,-10.2828,-0.3477675,-0.950910899999997,0.9613848,0.06018082,-0.3053077,-21.69304,-1.214079,22.07454
21.162115097,-12.45063,0.2347521,-0.766822200000002,0.9592505,0.03006781,-0.3102902,-21.69304,-1.214079,22.07454
21.172025681,-9.53954700000003,0.351256,-0.766822200000002,0.9663523,0.03126255,-0.2839392,-21.69304,-1.214079,22.07454
21.181937218,-4.088998,1.632799,-1.257725,0.9703597,0.05087356,-0.251675,-21.69304,-1.214079,22.07454
21.191847801,2.166745,3.205602,-1.99408,0.9862384,0.07728334,-0.245884,-21.69304,-1.214079,22.07454
21.201758862,5.449462,4.545397,-2.362258,0.9998059,0.08714668,-0.2464239,-22.07375,-0.8413434,21.62562
21.211669922,4.334577,4.894909,-1.99408,0.9948941,0.08365928,-0.2526438,-22.07375,-0.8413434,21.62562
21.221580505,-0.4965908,3.904626,-1.503177,0.9752895,0.09460992,-0.2442269,-22.07375,-0.8413434,21.62562
21.231491566,-5.699387,2.623082,-1.196362,0.9683127,0.1134802,-0.2349136,-22.07375,-0.8413434,21.62562
21.241402149,-6.69039600000003,2.331823,-0.889547900000002,0.9727241,0.1125653,-0.2349605,-22.07375,-0.8413434,21.62562
21.251313686,-3.407679,2.331823,-0.828185100000001,0.9606655,0.09298611,-0.2417016,-21.68819,-1.588674,22.07569
21.26122427,-1.735352,1.749303,-0.766822200000002,0.962162,0.09545887,-0.2359371,-21.68819,-1.588674,22.07569
21.27113533,-6.62845799999998,0.5842639,-0.2759189,0.9595941,0.1226814,-0.2160455,-21.68819,-1.588674,22.07569
21.281045914,-15.73335,-0.2895156,0.5217989,0.9590285,0.1484891,-0.1933009,-21.68819,-1.588674,22.07569
21.290956974,-20.93615,0.1765001,1.074065,0.9562698,0.1602507,-0.1624669,-21.68819,-1.588674,22.07569
21.300868034,-19.51157,0.875523700000001,0.767250500000003,0.9581673,0.1336639,-0.151618,-21.68979,-1.590504,21.62598
21.310778618,-16.35273,0.2347521,0.3377102,0.9778565,0.1032451,-0.1745701,-21.68979,-1.590504,21.62598
21.320690155,-15.42366,-0.05650773,0.583161800000002,0.9988502,0.0917846,-0.191166,-21.68979,-1.590504,21.62598
21.330600739,-17.40568,0.409508,1.196791,1.010712,0.08565606,-0.1860348,-21.68979,-1.590504,21.62598
21.340511799,-17.90118,1.924059,1.38088,1.000204,0.07638275,-0.172555,-21.68979,-1.590504,21.62598
21.350422382,-14.1849,3.030846,0.951339199999998,0.9783138,0.0649465,-0.1748295,-22.0592,-1.965129,21.62908
21.362811089,-9.10597999999999,2.098815,-0.1531931,0.9645198,0.05837989,-0.1925115,-22.0592,-1.965129,21.62908
21.372721672,-7.99109600000001,0.351256,-0.3986447,0.9636503,0.04476551,-0.1978759,-22.0592,-1.965129,21.62908
21.382633209,-7.37171500000001,-0.2895156,-0.766822200000002,0.9648187,0.05243341,-0.2180023,-22.0592,-1.965129,21.62908
21.392543793,-5.389697,-0.2895156,-1.56454,0.9666266,0.0606737,-0.2227657,-22.0592,-1.965129,21.62908
21.402454853,0.43248,0.351256,-2.055443,0.9487827,0.07105938,-0.2340553,-21.6801,-2.339694,21.62828
21.412365437,4.210701,-0.05650773,-2.975887,0.9345211,0.07425389,-0.2382235,-21.6801,-2.339694,21.62828
21.422276974,3.467444,-1.862319,-3.528153,0.9449818,0.06716558,-0.227804,-21.6801,-2.339694,21.62828
21.432187557,3.157754,-2.677846,-3.89633,0.9579563,0.05965596,-0.2111685,-21.6801,-2.339694,21.62828
21.442098141,2.600312,-3.027358,-3.528153,0.9711404,0.06273887,-0.2093493,-21.6801,-2.339694,21.62828
21.452009678,1.609303,-2.969106,-3.098613,0.971513,0.07536739,-0.2059075,-22.04466,-3.088916,21.63254
21.461920261,-0.1249625,-2.561342,-2.853161,0.9759666,0.08618175,-0.1881108,-22.04466,-3.088916,21.63254
21.471831322,-1.239847,-2.270082,-2.853161,0.9824736,0.08097384,-0.1795628,-22.04466,-3.088916,21.63254
21.481741905,0.43248,-2.328334,-2.975887,0.995535,0.08691964,-0.1863662,-22.04466,-3.088916,21.63254
21.491653442,3.529382,-1.978823,-2.914524,1.015742,0.1094446,-0.1921649,-22.04466,-3.088916,21.63254
21.501564026,5.139772,-0.1147597,-2.484983,0.9970233,0.1252375,-0.187085,-22.42216,-2.71252,22.08305
21.511474609,4.644268,0.46776,-2.362258,0.9729123,0.1302242,-0.1959518,-22.42216,-2.71252,22.08305
21.521386147,2.97194,0.817271699999998,-2.239532,0.9642988,0.1141142,-0.1964596,-22.42216,-2.71252,22.08305
21.53129673,3.219692,1.108532,-1.809992,0.9603115,0.1076843,-0.2113505,-22.42216,-2.71252,22.08305
21.541207791,3.157754,0.5260119,-1.56454,0.9624575,0.1153644,-0.2314858,-22.42216,-2.71252,22.08305
21.551118374,3.095816,0.0599961999999999,-1.135,0.9671872,0.113879,-0.2488251,-22.05436,-2.339725,21.63023
21.561029911,2.66225,-0.1147597,-0.889547900000002,0.9613235,0.1123441,-0.2502216,-22.05436,-2.339725,21.63023
21.570940494,0.927984400000002,-0.4642715,-1.196362,0.959308,0.121069,-0.2458234,-22.05436,-2.339725,21.63023
21.580851078,-1.79729,-0.813783199999999,-1.135,0.9628444,0.1201954,-0.2357786,-22.05436,-2.339725,21.63023
21.590762138,-2.41667,-0.8720351,-1.073637,0.9713982,0.1106691,-0.2234371,-22.05436,-2.339725,21.63023
21.600673199,-1.177909,-0.580775400000001,-0.828185100000001,0.9719729,0.1092564,-0.2167296,-21.68196,-1.961701,22.46231
21.610584259,-0.001086392,-0.4060195,-0.828185100000001,0.9768255,0.110274,-0.2191685,-21.68196,-1.961701,22.46231
21.620494842,0.742170199999999,-0.1147597,-0.644096300000003,0.9757516,0.1199679,-0.2171734,-21.68196,-1.961701,22.46231
21.63040638,-0.3107767,0.293004,-0.4600076,0.9650816,0.1189029,-0.2098794,-21.68196,-1.961701,22.46231
21.642794609,-0.2488386,0.1765001,-0.766822200000002,0.9587816,0.1154381,-0.2084037,-21.67364,-2.71246,22.07915
21.652705669,0.618294100000002,-0.1730116,-1.012274,0.9656181,0.1116167,-0.2137741,-21.67364,-2.71246,22.07915
21.66261673,0.742170199999999,-0.3477675,-0.950910899999997,0.9763625,0.1068667,-0.2206274,-21.67364,-2.71246,22.07915
21.672527313,0.2466658,-0.1730116,-0.582733500000001,0.9741025,0.102542,-0.207671,-21.67364,-2.71246,22.07915
21.682437897,-0.3727147,0.2347521,-0.1531931,0.976528,0.09670902,-0.2163752,-21.67364,-2.71246,22.07915
21.692349434,-0.1869005,0.46776,-0.3372818,0.9837903,0.09529987,-0.2250946,-21.67226,-2.710891,22.46462
21.702260017,0.866046300000002,0.46776,-0.2759189,0.9881192,0.09385429,-0.2337871,-21.67226,-2.710891,22.46462
21.712171078,1.857055,0.875523700000001,0.0922585699999997,0.9837996,0.09286571,-0.2270315,-21.67226,-2.710891,22.46462
21.722081661,3.591321,1.225035,0.0922585699999997,0.9639865,0.07663895,-0.2231151,-21.67226,-2.710891,22.46462
21.731993198,4.520391,0.642515800000001,-0.2759189,0.9649481,0.08542323,-0.2144226,-21.67226,-2.710891,22.46462
21.741903782,1.485427,-0.813783199999999,0.03089567,0.9785084,0.109917,-0.1985396,-22.04813,-2.712751,22.01685
21.751814365,-1.983104,-0.755531299999998,0.03089567,0.9754914,0.1288614,-0.1844609,-22.04813,-2.712751,22.01685
21.761725903,-2.850237,-0.05650773,-0.3372818,0.9735753,0.1234916,-0.1868798,-22.04813,-2.712751,22.01685
21.771636486,-1.177909,0.1765001,-0.3986447,0.9702213,0.1156797,-0.1893016,-22.04813,-2.712751,22.01685
21.781547546,0.804108299999999,0.1765001,-0.4600076,0.9649084,0.09906113,-0.2023274,-22.04813,-2.712751,22.01685
21.79145813,2.600312,-0.1147597,-0.3372818,0.9702981,0.08986591,-0.2120417,-22.04167,-3.085517,22.46772
21.801369667,3.467444,-0.1730116,-0.214556,0.9766822,0.08752088,-0.2121164,-22.04167,-3.085517,22.46772
21.811280251,3.529382,-0.1147597,-0.3986447,0.9746265,0.09134691,-0.2173536,-22.04167,-3.085517,22.46772
21.821190834,4.210701,0.1765001,-0.5213705,0.9658181,0.09074517,-0.2187166,-22.04167,-3.085517,22.46772
21.831102371,4.334577,0.5260119,-0.766822200000002,0.9678736,0.09228498,-0.2072016,-22.04167,-3.085517,22.46772
21.841012955,3.467444,0.1182482,-0.4600076,0.9699864,0.08409838,-0.2015138,-21.66879,-3.087055,22.08031
21.850924015,2.538374,-0.580775400000001,-0.4600076,0.9762239,0.08948201,-0.2068173,-21.66879,-3.087055,22.08031
21.860834599,2.042869,-0.639027300000002,-0.3372818,0.9859381,0.0920096,-0.2102514,-21.66879,-3.087055,22.08031
21.870746136,1.113798,-0.5225234,-0.3986447,0.982353,0.1113945,-0.2033669,-21.66879,-3.087055,22.08031
21.880656719,0.43248,-0.3477675,-0.3986447,0.9696493,0.1102645,-0.2037371,-21.66879,-3.087055,22.08031
21.890567303,0.989922399999999,-0.4060195,-0.4600076,0.9647067,0.1048099,-0.2152516,-22.04006,-3.083687,22.91743
21.90047884,2.104807,-0.6972793,-0.3372818,0.9745507,0.1059417,-0.2076525,-22.04006,-3.083687,22.91743
21.910389423,3.467444,-0.5225234,-0.1531931,0.9813018,0.1059783,-0.2168377,-22.04006,-3.083687,22.91743
21.922777653,4.210701,0.293004,-0.03046724,0.9810084,0.1036349,-0.2005252,-22.04006,-3.083687,22.91743
21.93268919,3.219692,0.642515800000001,-0.09183015,0.9819523,0.1060684,-0.2009979,-22.04006,-3.083687,22.91743
21.942599773,0.618294100000002,0.293004,0.2149844,0.9776468,0.1080141,-0.1894213,-22.04652,-2.710921,22.46657
21.952511311,-0.9301572,0.1182482,0.583161800000002,0.9811357,0.1037011,-0.1880419,-22.04652,-2.710921,22.46657
21.962421894,0.0608516599999998,0.2347521,0.767250500000003,0.9786037,0.1006983,-0.2000424,-22.04652,-2.710921,22.46657
21.972332954,2.538374,0.700767799999999,0.767250500000003,0.9672081,0.1004796,-0.2148234,-22.04652,-2.710921,22.46657
21.982243538,2.724188,0.1765001,0.3377102,0.9691765,0.0961204,-0.2187119,-22.04652,-2.710921,22.46657
21.992154121,0.927984400000002,-0.5225234,0.2149844,0.9674686,0.08402979,-0.2086933,-21.30285,-2.336266,22.46152
22.002065659,-0.682404900000003,-0.755531299999998,0.2763473,0.9656266,0.08357675,-0.1981158,-21.30285,-2.336266,22.46152
22.011976242,-1.549538,-0.813783199999999,-0.03046724,0.9705095,0.08412228,-0.1981573,-21.30285,-2.336266,22.46152
22.021887302,-0.3727147,-0.2312636,-0.2759189,0.9831367,0.0896027,-0.2001582,-21.30285,-2.336266,22.46152
22.031798363,1.113798,0.293004,-0.3372818,0.9751688,0.0943076,-0.2086961,-21.30285,-2.336266,22.46152
22.041709423,2.166745,0.351256,-0.3372818,0.9688461,0.08985534,-0.2105879,-22.05137,-2.336326,22.46542
22.051620007,1.547365,-0.1730116,-0.1531931,0.9625171,0.08881444,-0.2090958,-22.05137,-2.336326,22.46542
22.06153059,0.2466658,-0.755531299999998,-0.03046724,0.9711448,0.1024929,-0.2100448,-22.05137,-2.336326,22.46542
22.071442127,-1.054033,-0.755531299999998,0.1536215,0.9822849,0.1084322,-0.2134693,-22.05137,-2.336326,22.46542
22.081352711,-1.301785,-0.2895156,0.0922585699999997,0.9817546,0.112307,-0.2129585,-22.05137,-2.336326,22.46542
22.091263771,-0.1249625,-0.1730116,-0.09183015,0.9729574,0.1082964,-0.2172253,-21.6801,-2.339694,21.62828
22.101174355,0.1227897,-0.1147597,-0.1531931,0.9636979,0.1003913,-0.2234343,-21.6801,-2.339694,21.62828
22.111085892,-0.6204669,-0.6972793,-0.3372818,0.9682482,0.0878413,-0.22356,-21.6801,-2.339694,21.62828
22.120996475,-1.239847,-0.930287099999998,-0.214556,0.9683136,0.08689974,-0.2182852,-21.6801,-2.339694,21.62828
22.130908012,-0.992095199999997,-0.813783199999999,-0.03046724,0.9835317,0.0900477,-0.2088018,-21.6801,-2.339694,21.62828
22.140818596,0.3086039,0.293004,0.2149844,0.9904019,0.08380493,-0.2137085,-22.04466,-3.088916,21.63254
22.150729179,1.918993,1.166783,0.3990731,0.9805806,0.08902639,-0.2116622,-22.04466,-3.088916,21.63254
22.16064024,2.042869,1.341539,0.2763473,0.9630733,0.08690428,-0.2047923,-22.04466,-3.088916,21.63254
22.170550823,1.547365,0.759019800000003,0.5217989,0.969464,0.08895297,-0.1990758,-22.04466,-3.088916,21.63254
22.18046236,0.989922399999999,0.293004,0.3990731,0.9815,0.1021789,-0.20198,-22.04466,-3.088916,21.63254
22.190372944,0.3705419,0.409508,0.3990731,0.9892176,0.1110023,-0.2019925,-21.6755,-2.334466,22.91318
22.20276165,0.989922399999999,1.225035,0.3377102,0.9765695,0.1035598,-0.204326,-21.6755,-2.334466,22.91318
22.21267271,1.175737,1.225035,0.1536215,0.966432,0.08935292,-0.2081681,-21.6755,-2.334466,22.91318
22.222583294,1.113798,0.5842639,0.2149844,0.9626454,0.07766166,-0.2096514,-21.6755,-2.334466,22.91318
22.232493877,0.618294100000002,0.001744238,0.5217989,0.9688871,0.08353519,-0.2139914,-21.6755,-2.334466,22.91318
22.242405415,-1.115971,-0.4060195,0.3990731,0.9841042,0.0871705,-0.2040247,-21.67226,-2.710891,22.46462
22.252315998,-0.992095199999997,0.5260119,0.460436,0.9877524,0.1022043,-0.2121209,-21.67226,-2.710891,22.46462
22.262227535,0.742170199999999,1.341539,0.1536215,0.9760597,0.1015916,-0.2086558,-21.67226,-2.710891,22.46462
22.272138119,2.042869,1.166783,0.2149844,0.9662665,0.0941448,-0.2186981,-21.67226,-2.710891,22.46462
22.282049179,2.166745,0.351256,0.0922585699999997,0.9669022,0.08886146,-0.2105765,-21.67226,-2.710891,22.46462
22.291959763,1.05186,-0.2312636,0.2149844,0.972407,0.0889945,-0.1981424,-21.30285,-2.336266,22.46152
22.3018713,0.1847278,-0.2312636,0.0922585699999997,0.9854826,0.1032404,-0.193847,-21.30285,-2.336266,22.46152
22.311781883,0.2466658,0.46776,0.0922585699999997,0.9794466,0.1074695,-0.2052868,-21.30285,-2.336266,22.46152
22.321692467,1.299613,1.05028,-0.214556,0.9750899,0.1025593,-0.2067197,-21.30285,-2.336266,22.46152
22.331603527,2.166745,1.05028,-0.214556,0.9663621,0.09273118,-0.2110259,-21.30285,-2.336266,22.46152
22.341514587,2.290622,0.409508,-0.03046724,0.9630652,0.08055866,-0.2129971,-21.67711,-2.336296,22.46347
22.351425648,1.609303,-0.2312636,0.3377102,0.9767031,0.08411714,-0.2140599,-21.67711,-2.336296,22.46347
22.361336231,0.927984400000002,-0.2312636,0.2149844,0.9874016,0.08568474,-0.2179896,-21.67711,-2.336296,22.46347
22.371247768,1.05186,0.5260119,0.1536215,0.9888093,0.09640407,-0.211209,-21.67711,-2.336296,22.46347
22.381158352,1.609303,1.399791,0.0922585699999997,0.9786104,0.09972615,-0.2005291,-21.67711,-2.336296,22.46347
22.391068935,1.733179,1.05028,-0.1531931,0.9620069,0.09513871,-0.2037672,-22.42078,-2.710951,22.46851
22.400979996,0.618294100000002,0.1765001,-0.03046724,0.9630527,0.09274727,-0.1999515,-22.42078,-2.710951,22.46851
22.410891056,-0.682404900000003,-0.1730116,-0.03046724,0.9673229,0.09663696,-0.2081278,-22.42078,-2.710951,22.46851
22.420802116,-1.239847,-0.3477675,0.0922585699999997,0.9824626,0.09437831,-0.2126043,-22.42078,-2.710951,22.46851
22.4307127,0.1847278,0.2347521,0.3377102,0.9873201,0.09539844,-0.2145631,-22.42078,-2.710951,22.46851
22.440624237,2.414498,1.108532,0.2149844,0.9824243,0.08850474,-0.2232065,-21.68357,-1.963531,22.0126
22.450534821,4.396515,1.108532,0.03089567,0.9688363,0.08448439,-0.2178259,-21.68357,-1.963531,22.0126
22.460445881,3.777135,0.46776,0.03089567,0.9650362,0.08546909,-0.2057803,-21.68357,-1.963531,22.0126
22.470356464,1.237675,-0.05650773,0.0922585699999997,0.967412,0.09082963,-0.2062467,-21.68357,-1.963531,22.0126
22.482745171,0.680232200000002,0.2347521,-0.03046724,0.9843659,0.09876573,-0.2125927,-22.42216,-2.71252,22.08305
22.492655754,2.104807,0.9920276,-0.09183015,0.9804875,0.09434383,-0.2145069,-22.42216,-2.71252,22.08305
22.502567291,3.219692,1.283287,-0.2759189,0.9722825,0.08746623,-0.212076,-22.42216,-2.71252,22.08305
22.512477875,3.962949,0.9920276,-0.03046724,0.9724681,0.07975796,-0.2030061,-22.42216,-2.71252,22.08305
22.522388935,1.237675,0.293004,0.2149844,0.9749354,0.08858083,-0.190486,-22.42216,-2.71252,22.08305
22.532299519,-1.79729,-0.05650773,0.6445247,0.9857185,0.09214366,-0.1838398,-21.68334,-1.963269,22.07685
22.542211056,-1.301785,0.351256,0.583161800000002,0.9836647,0.094995,-0.1900439,-21.68334,-1.963269,22.07685
22.552121639,0.618294100000002,1.341539,0.3377102,0.9845988,0.09205762,-0.1977546,-21.68334,-1.963269,22.07685
22.562033176,1.980931,1.574547,-0.03046724,0.9722116,0.09669768,-0.2081726,-21.68334,-1.963269,22.07685
22.57194376,2.228683,1.399791,-0.03046724,0.9659615,0.08740513,-0.2086569,-21.68334,-1.963269,22.07685
22.581854343,1.547365,1.225035,0.03089567,0.9753255,0.08365744,-0.2058875,-22.05137,-2.336326,22.46542
22.591765404,0.43248,1.458043,0.583161800000002,0.9933725,0.09020228,-0.2026497,-22.05137,-2.336326,22.46542
22.601675987,0.3086039,2.797838,0.5217989,1.001182,0.09712221,-0.1959536,-22.05137,-2.336326,22.46542
22.611587524,0.43248,4.02113,0.828613499999998,0.9933792,0.09459598,-0.1968586,-22.05137,-2.336326,22.46542
22.621498108,-0.001086392,4.661901,1.319517,0.9807025,0.09201668,-0.1962784,-22.05137,-2.336326,22.46542
22.631409168,-0.1249625,4.195886,1.135428,0.9723719,0.08946401,-0.2010199,-21.67849,-2.337864,22.078
22.641320228,-0.8682191,3.496862,1.074065,0.973371,0.08851166,-0.2000752,-21.67849,-2.337864,22.078
22.651231289,-1.79729,3.14735,1.012702,0.9757137,0.09044042,-0.2077665,-21.67849,-2.337864,22.078
22.661141872,-2.045042,3.263854,0.889976299999999,0.9887519,0.09832541,-0.2145568,-21.67849,-2.337864,22.078
22.671052456,-2.540546,3.496862,1.135428,0.9847213,0.1074828,-0.2154188,-21.67849,-2.337864,22.078
22.680963993,-2.10698,4.195886,1.258154,0.970993,0.09704803,-0.2312066,-21.68334,-1.963269,22.07685
22.690874576,-0.744343000000003,4.545397,1.258154,0.9577932,0.08907898,-0.2402606,-21.68334,-1.963269,22.07685
22.700785637,0.3086039,3.846374,1.074065,0.951906,0.087044,-0.2445412,-21.68334,-1.963269,22.07685
22.71069622,0.618294100000002,3.380358,1.074065,0.9600947,0.09488864,-0.2474456,-21.68334,-1.963269,22.07685
22.720607758,1.113798,3.43861,0.767250500000003,0.9612189,0.09253796,-0.2359478,-21.68334,-1.963269,22.07685
22.730518341,1.05186,3.904626,0.6445247,0.9672682,0.09173043,-0.2192037,-22.05275,-2.337894,22.07995
22.740429878,0.1227897,4.661901,1.012702,0.9708306,0.08745566,-0.2106222,-22.05275,-2.337894,22.07995
22.750340462,-0.5585288,5.011413,1.442243,0.9849341,0.09832524,-0.2053985,-22.05275,-2.337894,22.07995
22.762728691,-0.8682191,5.94344499999998,1.871783,1.006785,0.1126677,-0.2035844,-22.05275,-2.337894,22.07995
22.772639751,-0.001086392,7.39974399999998,2.301323,0.9866896,0.1138553,-0.2067517,-22.05275,-2.337894,22.07995
22.782550812,-0.744343000000003,6.93372799999998,2.23996,0.9841753,0.122569,-0.2033093,-21.68334,-1.963269,22.07685
22.792461395,-3.159927,6.75897199999999,1.994509,0.9890524,0.1182335,-0.2096254,-21.68334,-1.963269,22.07685
22.802372932,-4.64644,7.92401099999998,1.933146,0.9970359,0.09695134,-0.218964,-21.68334,-1.963269,22.07685
22.812283516,-4.832254,9.61331700000002,2.117234,0.9972773,0.07756471,-0.2181351,-21.68334,-1.963269,22.07685
22.822194576,-4.460626,10.42885,2.485412,1.000839,0.07621654,-0.206173,-21.68334,-1.963269,22.07685
22.83210516,-4.33675,11.41913,3.037678,0.9950159,0.07665394,-0.2013147,-22.43208,-1.963591,22.01649
22.842016697,-5.699387,12.29291,3.896759,0.9857203,0.09116898,-0.1848066,-22.43208,-1.963591,22.01649
22.85192728,-7.99109600000001,13.10844,4.694477,0.9888043,0.08104005,-0.1820217,-22.43208,-1.963591,22.01649
22.861837864,-8.79629,14.38998,5.18538,0.9888547,0.0669199,-0.19364,-22.43208,-1.963591,22.01649
22.871749401,-7.74334299999998,16.25404,6.10582399999999,1.018549,0.07502918,-0.1972217,-22.43208,-1.963591,22.01649
22.881659985,-5.451635,18.75887,7.026268,1.031892,0.09501967,-0.2077754,-22.06405,-1.590534,21.62793
22.891571045,-1.177909,20.97245,7.45580799999998,1.035565,0.1178714,-0.2042961,-22.06405,-1.590534,21.62793
22.901481628,4.086825,22.60351,7.39444499999999,1.042116,0.1256086,-0.2239916,-22.06405,-1.590534,21.62793
22.911393166,10.83807,25.16659,7.578534,1.035854,0.1089932,-0.2341277,-22.06405,-1.590534,21.62793
22.921303749,16.72219,28.3122,7.27171900000003,1.023938,0.09192712,-0.2240478,-22.06405,-1.590534,21.62793
22.931214809,15.54536,30.87529,7.148993,0.9918321,0.08234075,-0.2190132,-22.43507,-1.966989,21.18131
22.941125393,7.24566599999997,30.64228,7.08763000000002,0.947101,0.06873852,-0.2100473,-22.43507,-1.966989,21.18131
22.951036453,-0.682404900000003,28.54521,7.63989600000002,0.9288447,0.05404041,-0.1955716,-22.43507,-1.966989,21.18131
22.960947514,-6.25683000000001,26.33163,9.11260599999998,0.9575813,0.06702624,-0.1914295,-22.43507,-1.966989,21.18131
22.970858097,-10.46862,25.74911,11.32167,0.9840631,0.1042223,-0.1880655,-22.43507,-1.966989,21.18131
22.980769634,-11.76932,26.9724,11.62849,1.004078,0.1093345,-0.1853355,-23.56221,-1.972047,19.96651
22.990680218,-8.73435200000001,30.17626,11.75121,1.019062,0.09651138,-0.1697143,-23.56221,-1.972047,19.96651
23.000591278,-0.1249625,33.96264,11.26031,1.014944,0.07367655,-0.1688681,-23.56221,-1.972047,19.96651
23.010501862,10.09482,37.86552,10.15578,1.009783,0.03640966,-0.1436202,-23.56221,-1.972047,19.96651
23.020413399,15.29761,40.54511,10.2785,1.024951,0.02709726,-0.10589,-23.56221,-1.972047,19.96651
23.032802105,11.89102,42.46743,11.4444,1.031568,0.02633656,-0.08146822,-23.58806,-0.1008999,19.51102
23.042712688,3.839073,44.44799,13.03983,1.048883,0.02177761,-0.06725398,-23.58806,-0.1008999,19.51102
23.052623272,-1.859228,49.10815,15.7398,1.070951,0.03477014,-0.04576441,-23.58806,-0.1008999,19.51102
23.062534332,-1.611476,55.39936,17.21251,1.138786,0.0623823,-0.02652131,-23.58806,-0.1008999,19.51102
23.072445393,1.795117,66.4089799999998,18.62386,1.129196,0.06723618,-0.002392371,-23.58806,-0.1008999,19.51102
23.082356453,12.5104,76.2535600000002,18.93067,0.9825674,0.03373205,0.06020072,-24.70898,-0.4789839,18.68283
23.092267036,22.35855,77.0690799999999,16.53752,0.9026887,0.01947945,0.1218246,-24.70898,-0.4789839,18.68283
23.102178574,15.35955,71.8846699999999,14.38982,0.894501,0.04723627,0.07118847,-24.70898,-0.4789839,18.68283
23.112089157,-1.673414,66.7002399999999,11.99666,0.9062366,0.08663858,-0.02564952,-24.70898,-0.4789839,18.68283
23.122000217,-17.96312,63.1468699999999,10.83077,0.926143,0.1021777,-0.06894433,-24.70898,-0.4789839,18.68283
23.131910801,-16.04304,66.64198,11.87394,0.9673869,0.08302942,-0.02719942,-25.47641,0.6397747,17.46262
23.141821384,-3.036051,74.9137600000002,14.88072,1.013705,0.1169611,0.0470228,-25.47641,0.6397747,17.46262
23.151732922,1.547365,83.4768100000001,19.36021,1.058525,0.1415896,0.1072723,-25.47641,0.6397747,17.46262
23.161643505,-0.682404900000003,92.0980899999997,23.59425,1.009635,0.08537951,0.1376,-25.47641,0.6397747,17.46262
23.171555042,-2.41667,96.1757300000002,29.36236,0.9532498,0.04557914,0.1714673,-25.47641,0.6397747,17.46262
23.181465626,-9.78729900000003,91.5155700000002,28.99419,0.9200553,0.05030881,0.1348337,-26.98426,1.007453,15.79889
23.191376686,-23.84724,84.0010699999998,24.88287,0.9073713,0.05844856,0.05193781,-26.98426,1.007453,15.79889
23.20128727,-42.92416,74.15649,21.99882,0.938081,0.04243902,-0.02383769,-26.98426,1.007453,15.79889
23.211198807,-36.1729,70.13711,23.3488,0.9841695,0.01259686,0.0009856466,-26.98426,1.007453,15.79889
23.22110939,-18.89219,68.6808100000002,21.26246,0.936002,0.05967196,0.03199469,-26.98426,1.007453,15.79889
23.231019974,-8.79629,64.2536499999997,17.58069,0.9403995,0.05363226,0.07224708,-28.12649,1.682095,12.84736
23.240931034,-12.76033,63.8458899999999,18.19431,1.015313,0.03999709,0.161253,-28.12649,1.682095,12.84736
23.250842094,-24.65243,71.8846699999999,19.60566,1.078095,-0.009840368,0.2169991,-28.12649,1.682095,12.84736
23.260753155,-24.65243,83.2438000000002,18.93067,1.062803,-0.0986238,0.2429577,-28.12649,1.682095,12.84736
23.270663738,-14.55653,89.5350100000001,17.02842,0.9891672,-0.09042554,0.224487,-28.12649,1.682095,12.84736
23.280575275,-7.49559099999998,87.61269,15.06481,0.9290979,-0.03749099,0.1985063,-29.57358,2.047948,10.73359
23.290485859,-8.85822799999998,81.6127400000002,16.53752,0.8656911,-0.003331051,0.2065227,-29.57358,2.047948,10.73359
23.300396919,-11.39769,76.8943299999999,19.85111,0.8622671,0.002966964,0.2137986,-29.57358,2.047948,10.73359
23.312785626,-5.575511,75.7292900000002,26.60103,0.8651801,-0.04016463,0.3042343,-29.57358,2.047948,10.73359
23.322696209,-7.18590000000003,78.70014,26.41694,0.8550858,-0.04849542,0.3114745,-29.57358,2.047948,10.73359
23.332607746,-9.29179500000003,82.37002,22.18291,0.8638801,-0.08765276,0.3125728,-30.33453,2.413856,8.616259
23.34251833,-6.62845799999998,87.3214299999999,18.25568,0.9156898,-0.1338346,0.3516391,-30.33453,2.413856,8.616259
23.352428913,-10.84025,92.2145999999998,15.61707,0.9562343,-0.09018052,0.3510748,-30.33453,2.413856,8.616259
23.362339974,-20.25483,92.0980899999997,11.50576,0.9167098,0.01373847,0.2901922,-30.33453,2.413856,8.616259
23.372250557,-17.71537,80.9137200000002,10.7694,0.8662489,0.08207686,0.3132014,-30.33453,2.413856,8.616259
23.382162094,-12.14094,73.6904799999999,16.2307,0.8290508,0.1091577,0.3891107,-30.35804,3.527446,6.107256
23.392072678,-15.11397,71.3603999999999,21.50791,0.8524773,0.009685911,0.411279,-30.35804,3.527446,6.107256
23.401984215,-23.47561,73.1079599999998,25.80332,0.8957132,-0.1277074,0.3657893,-30.35804,3.527446,6.107256
23.411894798,-27.87321,73.8652299999999,25.4965,0.921994,-0.1720706,0.3494055,-30.35804,3.527446,6.107256
23.421805859,-22.85623,79.1079100000001,18.74658,0.9732768,-0.1734003,0.4372714,-30.35804,3.527446,6.107256
23.431716442,-13.56552,86.2729000000002,10.89213,0.9527407,-0.1802471,0.3817174,-30.7558,4.641006,3.600201
23.441627026,3.715197,86.09814,8.98988099999998,0.948271,-0.1769235,0.3788999,-30.7558,4.641006,3.600201
23.451538563,10.59032,87.4961900000002,9.72623500000002,0.8590891,-0.09155626,0.4129442,-30.7558,4.641006,3.600201
23.461449146,-0.1249625,81.2049800000003,12.73302,0.7576205,-0.1005123,0.4258268,-30.7558,4.641006,3.600201
23.471360207,-3.779308,75.3215299999997,16.66024,0.7831749,-0.1189032,0.4643608,-30.7558,4.641006,3.600201
23.481271267,-12.76033,72.2341800000001,19.23748,0.7930092,-0.08168769,0.4179424,-31.51813,5.005345,1.0974
23.491182327,-22.36072,71.4768999999997,19.85111,0.8390171,0.001350731,0.5193835,-31.51813,5.005345,1.0974
23.501092911,-21.12196,74.6225099999998,15.80116,0.918418,-0.02390038,0.5079175,-31.51813,5.005345,1.0974
23.511004448,-18.14894,78.2923800000001,14.88072,0.9478751,-0.1146816,0.5084808,-31.51813,5.005345,1.0974
23.520915032,-17.71537,78.8749000000003,11.32167,0.9029286,-0.174498,0.3947005,-31.51813,5.005345,1.0974
23.530825615,-13.50358,75.7875399999998,6.53536400000002,0.8709961,-0.1564374,0.4013581,-31.52086,4.622122,-1.02152
23.540736675,-7.61946700000001,78.3506299999997,6.596727,0.8750988,-0.1106748,0.5211845,-31.52086,4.622122,-1.02152
23.550647259,-2.41667,80.21469,11.01486,0.8353268,-0.1251553,0.5358606,-31.52086,4.622122,-1.02152
23.560558796,-2.912175,76.6030699999999,16.2307,0.7919582,-0.1514764,0.519761,-31.52086,4.622122,-1.02152
23.570469379,-10.46862,72.5254400000002,15.12617,0.7244938,-0.1496365,0.4757424,-31.52086,4.622122,-1.02152
23.580380916,-11.33575,74.9137600000002,11.62849,0.7013699,-0.1477902,0.6070518,-31.18466,6.859529,-3.53593
23.592769146,-6.00907800000001,79.2826600000001,7.76262199999999,0.7146109,-0.1483318,0.6578224,-31.18466,6.859529,-3.53593
23.602680206,-2.912175,78.3506299999997,7.701259,0.752567,-0.1798963,0.6505389,-31.18466,6.859529,-3.53593
23.612591267,-6.07101500000003,76.66132,7.82398500000003,0.7552325,-0.1963361,0.6528056,-31.18466,6.859529,-3.53593
23.62250185,-8.85822799999998,75.3797799999999,7.21035599999999,0.7442446,-0.1161119,0.6289536,-31.19523,6.847502,-6.491183
23.632413387,-6.194891,72.64194,7.148993,0.6916788,-0.08860289,0.6373056,-31.19523,6.847502,-6.491183
23.642323971,-10.71637,70.13711,7.08763000000002,0.7639078,-0.0902071,0.621742,-31.19523,6.847502,-6.491183
23.652234554,-16.41467,74.4477500000001,8.06943700000002,0.7922125,-0.1391401,0.6542851,-31.19523,6.847502,-6.491183
23.662145615,-12.01707,75.84579,6.96490399999999,0.744777,-0.169254,0.5709756,-31.19523,6.847502,-6.491183
23.672056198,-8.176909,76.0205500000003,6.71945300000003,0.6984158,-0.09760243,0.5685206,-30.0819,7.216959,-7.783068
23.681967735,-6.56652,76.7195700000002,5.73764600000002,0.7082525,-0.0350021,0.742664,-30.0819,7.216959,-7.783068
23.691878319,-7.681405,74.5642499999999,5.676283,0.729369,-0.02323236,0.7175788,-30.0819,7.216959,-7.783068
23.701789856,-12.01707,74.5060000000003,6.84217800000002,0.7456263,-0.1112509,0.7216437,-30.0819,7.216959,-7.783068
23.711700439,-16.29079,73.7487300000001,3.958122,0.7044175,-0.206222,0.6450469,-30.0819,7.216959,-7.783068
23.7216115,-16.72436,73.8652299999999,0.460436,0.6517358,-0.2565739,0.5986234,-31.20717,6.833907,-9.831903
23.731522083,-8.61047599999998,72.4089300000001,-0.582733500000001,0.672237,-0.2621798,0.6838646,-31.20717,6.833907,-9.831903
23.741432667,4.89202,75.14677,1.196791,0.7477094,-0.1962779,0.6821652,-31.20717,6.833907,-9.831903
23.751344204,6.87403699999997,77.7098599999999,3.037678,0.7462004,-0.1758303,0.7020018,-31.20717,6.833907,-9.831903
23.761254787,6.19271900000002,76.5448200000002,4.387662,0.6716976,-0.1529526,0.7114861,-31.20717,6.833907,-9.831903
23.771165848,3.219692,76.0205500000003,5.92173499999998,0.6285422,-0.1384355,0.7163033,-29.35778,7.949477,-11.90092
23.781076908,-0.744343000000003,75.3215299999997,6.28991200000003,0.5875796,-0.1398592,0.8208671,-29.35778,7.949477,-11.90092
23.790987968,-5.451635,71.5934099999998,5.73764600000002,0.5804906,-0.160799,0.820313,-29.35778,7.949477,-11.90092
23.800898552,-5.699387,68.5643000000001,4.878565,0.5450988,-0.1959623,0.8564178,-29.35778,7.949477,-11.90092
23.810810089,-7.74334299999998,63.6711300000002,3.896759,0.5294188,-0.1983751,0.8027691,-29.35778,7.949477,-11.90092
23.820720673,-7.062024,62.73911,5.614921,0.5972517,-0.2073492,0.7790344,-28.68545,8.313932,-14.41119
23.830631733,-4.274812,64.42841,6.596727,0.6013821,-0.1913371,0.7714203,-28.68545,8.313932,-14.41119
23.840542316,-2.168918,67.1079999999997,7.33308200000001,0.6121575,-0.180949,0.7853145,-28.68545,8.313932,-14.41119
23.8504529,2.66225,66.75849,8.00807399999998,0.559365,-0.1915979,0.8222237,-28.68545,8.313932,-14.41119
23.860364437,1.857055,64.8944200000001,7.026268,0.5023692,-0.2112281,0.8202193,-28.68545,8.313932,-14.41119
23.872753143,-0.3727147,63.4963800000002,5.676283,0.4734705,-0.199908,0.8287247,-27.94776,8.68179,-16.08659
23.882663727,-1.611476,61.7488200000003,4.817203,0.460832,-0.1697845,0.8712962,-27.94776,8.68179,-16.08659
23.892574787,-5.080007,57.9624500000002,5.553557,0.4736249,-0.1537345,0.8501578,-27.94776,8.68179,-16.08659
23.902485371,-3.841246,54.17607,8.68306499999997,0.4964722,-0.1832636,0.8977656,-27.94776,8.68179,-16.08659
23.912396908,-3.593493,53.12754,9.29669499999999,0.5168841,-0.2008805,0.8172731,-27.94776,8.68179,-16.08659
23.922307491,-5.141944,52.1955,9.84896099999999,0.4914328,-0.2314472,0.8744437,-27.20868,9.051216,-17.37653
23.932219028,-2.045042,50.21494,8.19216299999999,0.4665881,-0.2419554,0.8712423,-27.20868,9.051216,-17.37653
23.942129612,3.715197,49.86543,8.37625100000002,0.5061072,-0.2332119,0.8728557,-27.20868,9.051216,-17.37653
23.952040672,6.31659499999999,50.09843,8.49897699999999,0.4928357,-0.2153646,0.8870219,-27.20868,9.051216,-17.37653
23.961951256,7.49341799999997,48.52563,8.49897699999999,0.4685915,-0.1677686,0.8673965,-27.20868,9.051216,-17.37653
23.971862793,6.62628499999997,47.4771,8.74442899999999,0.4550763,-0.1266334,0.8850813,-26.83417,8.671423,-18.66222
23.981773376,1.299613,44.681,8.62170300000002,0.4430732,-0.1042325,0.9328772,-26.83417,8.671423,-18.66222
23.99168396,-4.398688,43.34121,9.29669499999999,0.5059569,-0.1230549,0.891837,-26.83417,8.671423,-18.66222
24.00159502,-2.168918,43.28296,10.70804,0.486497,-0.1603129,0.953229,-26.83417,8.671423,-18.66222
24.011506081,-2.602484,40.71987,9.60350899999999,0.441052,-0.1747744,0.8916125,-26.83417,8.671423,-18.66222
24.021417141,0.927984400000002,39.32182,8.49897699999999,0.4301505,-0.1879067,0.9098718,-26.10319,9.79187,-19.50475
24.031327724,2.104807,36.99174,7.51716999999999,0.4368824,-0.1693435,0.9204967,-26.10319,9.79187,-19.50475
24.041239262,1.980931,37.63251,6.596727,0.5043358,-0.120954,0.9269175,-26.10319,9.79187,-19.50475
24.051149845,-0.682404900000003,38.68105,4.203574,0.4467586,-0.1081949,1.001479,-26.10319,9.79187,-19.50475
24.061060905,-3.345741,35.8267,2.178597,0.4223473,-0.134584,0.9266247,-26.10319,9.79187,-19.50475
24.070971489,0.0608516599999998,36.52573,1.81042,0.4097891,-0.1483211,0.925689,-24.98825,10.16316,-20.34692
24.080882072,-1.363724,35.12768,0.5217989,0.3648106,-0.1344955,0.8949867,-24.98825,10.16316,-20.34692
24.09079361,-3.159927,33.84613,0.3377102,0.3883304,-0.1578299,0.9200621,-24.98825,10.16316,-20.34692
24.100704193,-3.903184,31.74907,1.196791,0.4476496,-0.2260284,0.9027339,-24.98825,10.16316,-20.34692
24.11061573,-2.540546,30.81703,2.976315,0.4539395,-0.2725645,0.8894014,-24.98825,10.16316,-20.34692
24.120526314,2.786126,29.82675,4.387662,0.4169769,-0.262931,0.8725217,-24.62806,10.90741,-21.57183
24.130437374,4.830081,28.71996,5.18538,0.3671681,-0.2162045,0.9337935,-24.62806,10.90741,-21.57183
24.140347958,3.467444,27.43842,5.73764600000002,0.3603828,-0.1847999,0.9287838,-24.62806,10.90741,-21.57183
24.152736664,3.839073,26.56464,5.79900900000001,0.2756134,-0.2066797,0.9337434,-24.62806,10.90741,-21.57183
24.162648201,2.228683,25.34135,4.387662,0.2525504,-0.1918881,0.9431782,-24.62806,10.90741,-21.57183
24.172558785,0.0608516599999998,27.20541,3.835396,0.2724375,-0.1892814,0.9305276,-23.88115,10.90564,-22.02543
24.182469845,-0.5585288,26.44814,2.301323,0.2763168,-0.1746152,0.944514,-23.88115,10.90564,-22.02543
24.192380428,-3.283803,25.74911,3.651307,0.3385619,-0.1859561,0.9453033,-23.88115,10.90564,-22.02543
24.202291966,-3.283803,26.56464,4.571751,0.3204531,-0.1988746,0.9285792,-23.88115,10.90564,-22.02543
24.212202549,-4.274812,26.21513,5.062654,0.2981407,-0.1778475,0.9231637,-23.88115,10.90564,-22.02543
24.222113133,-4.212874,26.62289,5.001291,0.2897267,-0.164346,0.9290934,-23.51335,11.27843,-22.47824
24.23202467,-2.974113,26.7394,4.694477,0.2649919,-0.1733336,0.9383852,-23.51335,11.27843,-22.47824
24.241935253,-2.230856,26.68114,5.18538,0.2670833,-0.1759259,0.9008963,-23.51335,11.27843,-22.47824
24.251846314,-0.001086392,27.43842,5.18538,0.2303142,-0.1830166,0.9309589,-23.51335,11.27843,-22.47824
24.261756897,-1.4876,26.04037,4.203574,0.2457847,-0.1712051,0.9275333,-23.51335,11.27843,-22.47824
24.271668434,-1.425662,26.21513,4.510388,0.3282767,-0.1629273,0.9229843,-23.14047,11.2769,-22.86566
24.281579018,-1.549538,27.49667,4.326299,0.3508774,-0.1808774,0.960108,-23.14047,11.2769,-22.86566
24.291490078,-0.1249625,27.49667,4.694477,0.3381576,-0.215426,0.9667178,-23.14047,11.2769,-22.86566
24.301400662,6.44047100000002,26.91415,4.019485,0.2849002,-0.2070441,1.028246,-23.14047,11.2769,-22.86566
24.311312199,4.210701,21.26371,3.589944,0.2518316,-0.1934684,1.014238,-23.14047,11.2769,-22.86566
24.321222782,2.042869,16.5453,4.080848,0.2751189,-0.1969238,1.039928,-22.77752,12.02429,-23.31963
24.331133366,3.591321,12.58417,4.75584,0.2540261,-0.2296568,1.042786,-22.77752,12.02429,-23.31963
24.341044903,5.94496599999999,8.215271,4.14221,0.2480969,-0.1987911,1.02528,-22.77752,12.02429,-23.31963
24.350955486,5.573338,5.535681,3.958122,0.2480627,-0.1727158,1.004808,-22.77752,12.02429,-23.31963
24.360866547,3.095816,3.496862,3.958122,0.2067275,-0.2121428,0.9809194,-22.77752,12.02429,-23.31963
24.37077713,3.962949,2.739586,3.589944,0.1409898,-0.255267,0.9572322,-22.40464,12.02275,-23.70704
24.380688667,4.768144,2.040563,3.037678,0.1472854,-0.2547312,0.9518958,-22.40464,12.02275,-23.70704
24.390599251,4.644268,1.341539,2.976315,0.1511602,-0.2222668,0.9386318,-22.40464,12.02275,-23.70704
24.400510311,2.786126,3.496862,2.792227,0.1874656,-0.1888276,0.9418799,-22.40464,12.02275,-23.70704
24.410421372,3.405506,6.75897199999999,1.994509,0.1652985,-0.1935787,0.9204461,-22.40464,12.02275,-23.70704
24.420332432,3.591321,7.69100299999997,1.503605,0.1377857,-0.1569165,0.9507146,-22.77889,12.02272,-23.70509
24.432721138,-3.407679,10.19584,1.871783,0.1612535,-0.1190717,0.8993728,-22.77889,12.02272,-23.70509
24.442631722,-6.07101500000003,11.53563,3.405856,0.1897484,-0.1420609,0.8855117,-22.77889,12.02272,-23.70509
24.452542305,-4.956131,12.29291,3.958122,0.1776167,-0.189962,0.9338008,-22.77889,12.02272,-23.70509
24.462453842,-4.584502,11.47738,3.160404,0.1839286,-0.1896573,0.9774387,-22.78188,12.01932,-24.54027
24.472364426,-3.903184,9.96283000000002,2.914952,0.2198655,-0.1898201,0.9530975,-22.78188,12.01932,-24.54027
24.482275486,-0.4965908,9.205554,3.958122,0.226076,-0.1829871,0.9468435,-22.78188,12.01932,-24.54027
24.49218607,-2.354732,6.87547600000002,4.264936,0.2593565,-0.173774,0.9605217,-22.78188,12.01932,-24.54027
24.502097607,-4.460626,4.836657,4.510388,0.3014193,-0.1629973,0.974129,-22.78188,12.01932,-24.54027
24.51200819,-3.779308,4.545397,4.75584,0.328284,-0.152919,0.9830707,-22.4014,11.64632,-24.1556
24.521919251,-4.150936,3.788122,5.124017,0.3091498,-0.1585573,0.9702458,-22.4014,11.64632,-24.1556
24.531829834,-4.894192,2.448327,5.308106,0.2916389,-0.1748277,0.9602161,-22.4014,11.64632,-24.1556
24.541741371,-6.25683000000001,1.05028,4.694477,0.2995717,-0.1844289,0.9595986,-22.4014,11.64632,-24.1556
24.551651955,-7.74334299999998,0.9920276,4.326299,0.3235438,-0.1938781,0.9497108,-22.4014,11.64632,-24.1556
24.561563492,-7.99109600000001,2.040563,4.203574,0.3435017,-0.1844054,0.9519901,-21.27862,11.64641,-24.16144
24.571474075,-7.681405,3.263854,4.080848,0.3337294,-0.195256,0.9400042,-21.27862,11.64641,-24.16144
24.581384659,-5.88520100000001,4.720153,4.080848,0.2978474,-0.2277475,0.9314768,-21.27862,11.64641,-24.16144
24.591295719,-3.345741,6.00169699999999,4.387662,0.2758433,-0.2358284,0.9220233,-21.27862,11.64641,-24.16144
24.601206303,-1.4876,6.99197999999999,4.510388,0.2669685,-0.2296354,0.9221466,-21.27862,11.64641,-24.16144
24.61111784,-0.4965908,7.98226299999999,4.264936,0.2757301,-0.2168629,0.9331944,-22.03337,12.01938,-24.54416
24.621028423,1.05186,9.90457699999998,3.896759,0.2628959,-0.2083047,0.9314494,-22.03337,12.01938,-24.54416
24.630939484,2.414498,10.95311,3.221767,0.2221847,-0.1883914,0.942522,-22.03337,12.01938,-24.54416
24.640850544,2.66225,11.06962,2.485412,0.1908302,-0.1868638,0.9385008,-22.03337,12.01938,-24.54416
24.650761604,1.857055,10.19584,2.362686,0.1939388,-0.1916141,0.9499641,-22.03337,12.01938,-24.54416
24.660672188,1.671241,9.38030999999998,2.546775,0.2264304,-0.1945101,0.9678904,-21.29455,12.76863,-24.55037
24.670583725,1.733179,8.79779099999998,2.608138,0.2490169,-0.1893013,0.9830812,-21.29455,12.76863,-24.55037
24.680494308,1.857055,8.50653100000001,2.546775,0.2562546,-0.1853573,0.978239,-21.29455,12.76863,-24.55037
24.690405369,1.980931,8.215271,2.301323,0.2400211,-0.1919517,0.9610595,-21.29455,12.76863,-24.55037
24.702794075,1.918993,7.51624699999999,2.055871,0.2014396,-0.2002162,0.9560796,-21.29455,12.76863,-24.55037
24.712704658,1.547365,6.584216,1.81042,0.182857,-0.1999622,0.9562532,-22.04952,13.14134,-24.99734
24.722615242,1.485427,5.593933,1.626331,0.1961039,-0.2017246,0.9585197,-22.04952,13.14134,-24.99734
24.732526779,2.476436,5.302673,1.319517,0.2225828,-0.2076965,0.9587151,-22.04952,13.14134,-24.99734
24.742437363,4.148763,5.419177,1.074065,0.2277011,-0.1892279,0.9549496,-22.04952,13.14134,-24.99734
24.752348423,5.139772,5.710437,0.889976299999999,0.1958839,-0.1779367,0.9649222,-22.04952,13.14134,-24.99734
24.762259483,4.210701,4.312389,0.889976299999999,0.1515588,-0.1623076,1.000008,-21.67365,13.1432,-24.54957
24.772170544,1.05186,2.215319,0.5217989,0.1526999,-0.1578203,1.021154,-21.67365,13.1432,-24.54957
24.782081127,-0.992095199999997,0.5842639,-0.3986447,0.1684238,-0.1592959,0.9792249,-21.67365,13.1432,-24.54957
24.791992664,-0.806281,0.0599961999999999,-0.3372818,0.1686331,-0.1565085,0.9552337,-21.67365,13.1432,-24.54957
24.801903248,-2.10698,-0.05650773,-0.5213705,0.1778059,-0.1681606,0.930103,-21.67365,13.1432,-24.54957
24.811814308,-5.637449,-1.338051,0.1536215,0.1824958,-0.1713696,0.9545263,-21.67179,12.7652,-25.3836
24.821724892,-6.44264400000003,-6.17296399999999,1.442243,0.1289859,-0.1870127,1.058631,-21.67179,12.7652,-25.3836
24.831636429,-10.2828,-12.05641,1.687694,0.181479,-0.188218,1.073983,-21.67179,12.7652,-25.3836
24.841547012,-8.300786,-12.93019,2.178597,0.2775885,-0.2066452,0.9356461,-21.67179,12.7652,-25.3836
24.851457596,-5.699387,-8.61954700000002,3.651307,0.2633208,-0.2115071,0.8738052,-21.67179,12.7652,-25.3836
24.861369133,-7.309776,-4.600161,3.651307,0.2235541,-0.2289116,0.8855807,-21.2994,13.14323,-24.55152
24.871279716,-6.87620999999998,-2.095326,2.23996,0.2263713,-0.2184433,0.9341204,-21.2994,13.14323,-24.55152
24.881190777,-5.389697,-0.639027300000002,1.38088,0.2411346,-0.1938201,0.9720804,-21.2994,13.14323,-24.55152
24.89110136,-1.301785,1.458043,0.828613499999998,0.2398519,-0.2113037,0.969575,-21.2994,13.14323,-24.55152
24.901012897,3.962949,2.739586,0.3990731,0.2074147,-0.2274038,0.9347163,-21.2994,13.14323,-24.55152
24.910923481,5.263648,2.098815,-0.828185100000001,0.1189015,-0.2214492,0.8933206,-21.6793,13.45353,-25.00025
24.920834541,2.166745,-1.687563,-2.546346,0.0699774,-0.2101293,0.8563961,-21.6793,13.45353,-25.00025
24.930745125,-1.425662,-5.590444,-3.344064,0.1566843,-0.1992057,0.8844764,-21.6793,13.45353,-25.00025
24.940656662,-2.10698,-4.483657,-2.178169,0.3234048,-0.1922387,0.9857348,-21.6793,13.45353,-25.00025
24.950567245,2.538374,-0.755531299999998,-0.705459200000001,0.3354516,-0.1970471,1.058095,-21.6793,13.45353,-25.00025
24.960478783,6.997913,-0.4060195,-0.2759189,0.215316,-0.2138462,1.005797,-21.66743,12.77017,-24.16295
24.970389366,6.006905,-3.668129,-1.319088,0.1276008,-0.2167535,0.9364856,-21.66743,12.77017,-24.16295
24.982777596,3.033878,-6.17296399999999,-2.975887,0.1522229,-0.1970929,0.9287063,-21.66743,12.77017,-24.16295
24.992689133,-1.115971,-6.87198700000002,-3.46679,0.2310796,-0.1921349,0.9472164,-21.66743,12.77017,-24.16295
25.002599716,-0.992095199999997,-6.40597199999999,-1.441814,0.2423314,-0.1802838,0.9615961,-21.66743,12.77017,-24.16295
25.0125103,-1.673414,-8.96905800000002,0.583161800000002,0.1788599,-0.1871243,1.010633,-20.93403,13.83001,-24.55558
25.022421837,-4.708378,-12.81369,1.319517,0.1712383,-0.2456539,0.961818,-20.93403,13.83001,-24.55558
25.03233242,-0.06302445,-14.736,3.589944,0.191203,-0.2900756,0.9493335,-20.93403,13.83001,-24.55558
25.042243481,5.94496599999999,-15.49328,4.019485,0.1905679,-0.2999051,1.018897,-20.93403,13.83001,-24.55558
25.052154064,2.290622,-18.87189,2.055871,0.1969953,-0.2495535,0.989403,-20.93403,13.83001,-24.55558
25.062065601,2.476436,-22.19225,2.23996,0.1671686,-0.2172441,1.027346,-21.30206,13.45696,-24.16701
25.071976185,0.927984400000002,-23.7068,1.503605,0.1213695,-0.1855484,0.985247,-21.30206,13.45696,-24.16701
25.081887245,-2.168918,-24.34758,2.730864,0.1277988,-0.1890939,0.9405093,-21.30206,13.45696,-24.16701
25.091798306,-3.159927,-20.50295,3.405856,0.1320928,-0.2376265,0.92094,-21.30206,13.45696,-24.16701
25.101709366,-4.274812,-18.40588,1.258154,0.2034798,-0.2564849,0.9460827,-21.30206,13.45696,-24.16701
25.111619949,-1.239847,-17.24084,0.1536215,0.2164272,-0.304736,0.9600462,-22.04653,13.14473,-24.16216
25.121531487,4.830081,-21.55148,-0.950910899999997,0.238207,-0.3179869,0.97032,-22.04653,13.14473,-24.16216
25.13144207,7.92698399999999,-22.83302,0.3990731,0.2771612,-0.3239231,0.9473528,-22.04653,13.14473,-24.16216
25.141352654,7.24566599999997,-23.12428,1.258154,0.2384442,-0.2956727,0.971907,-22.04653,13.14473,-24.16216
25.151263714,8.732179,-25.10485,1.135428,0.2105984,-0.2169931,0.9712481,-22.04653,13.14473,-24.16216
25.161174297,12.44846,-25.80387,0.767250500000003,0.2245959,-0.148866,0.9854971,-22.40464,12.02275,-23.70704
25.171085835,10.09482,-27.02717,-0.5213705,0.21045,-0.1446357,0.9938188,-22.40464,12.02275,-23.70704
25.180996418,6.37853299999997,-28.65822,-2.484983,0.2299871,-0.1114794,0.9828154,-22.40464,12.02275,-23.70704
25.190907955,3.901011,-29.532,-3.159976,0.2581627,-0.1334108,0.98673,-22.40464,12.02275,-23.70704
25.200818539,1.237675,-30.17277,-4.080419,0.254783,-0.1485532,0.9732161,-22.40464,12.02275,-23.70704
25.210729599,2.042869,-31.80383,-5.553129,0.2526205,-0.1291731,0.9757659,-22.78561,12.77531,-22.87222
25.220640183,3.095816,-33.66789,-5.553129,0.2908387,-0.1306054,0.981645,-22.78561,12.77531,-22.87222
25.23055172,1.175737,-36.98825,-6.84175,0.3230583,-0.1529068,0.998004,-22.78561,12.77531,-22.87222
25.240462303,0.989922399999999,-39.14357,-7.63946799999999,0.3593839,-0.1806722,0.979237,-22.78561,12.77531,-22.87222
25.250373364,3.343568,-41.00764,-8.49854900000003,0.3425568,-0.1648882,0.9780574,-22.78561,12.77531,-22.87222
25.26276207,1.980931,-44.561,-10.27807,0.3277284,-0.1278423,0.9582747,-23.14879,12.02766,-22.4825
25.272672653,-2.045042,-45.9008,-10.95306,0.3872331,-0.108636,0.9660151,-23.14879,12.02766,-22.4825
25.28258419,-3.655432,-47.12409,-11.62806,0.4216931,-0.1580818,0.9783312,-23.14879,12.02766,-22.4825
25.292494774,-0.001086392,-50.5027,-11.81215,0.4339744,-0.1952116,0.9880536,-23.14879,12.02766,-22.4825
25.302405357,1.671241,-53.4153,-12.11896,0.4259982,-0.2046575,0.9621359,-23.14879,12.02766,-22.4825
25.312316895,1.547365,-55.62888,-12.97804,0.4162388,-0.1830667,0.9417232,-23.89085,11.65483,-22.02774
25.322227478,3.962949,-58.5997300000002,-13.16213,0.4143291,-0.1733111,0.9576511,-23.89085,11.65483,-22.02774
25.332138538,4.768144,-61.3375700000001,-12.79395,0.4498942,-0.1651264,0.9544957,-23.89085,11.65483,-22.02774
25.342049122,3.467444,-64.42493,-12.18032,0.4780748,-0.1877913,0.9103897,-23.89085,11.65483,-22.02774
25.351960659,3.777135,-67.0462599999998,-12.30305,0.4851304,-0.2095474,0.905378,-23.89085,11.65483,-22.02774
25.361871243,5.82109000000002,-68.7355700000001,-12.67123,0.4652162,-0.2007092,0.8811329,-24.62369,10.91238,-20.35118
25.371782303,0.3705419,-70.1918699999999,-12.91668,0.4742646,-0.1792553,0.8826326,-24.62369,10.91238,-20.35118
25.381692886,-2.168918,-70.7161399999998,-12.67123,0.505258,-0.1782835,0.902039,-24.62369,10.91238,-20.35118
25.391604424,-0.1249625,-71.6481700000002,-11.93487,0.5545438,-0.2057611,0.9076422,-24.62369,10.91238,-20.35118
25.401515007,1.671241,-74.5025200000002,-12.60986,0.541549,-0.2246035,0.8581805,-24.62369,10.91238,-20.35118
25.411426544,2.042869,-76.0753199999998,-14.32802,0.5083545,-0.2252397,0.8152691,-25.35792,10.16835,-19.06009
25.421337128,7.18372799999999,-75.66756,-14.63484,0.5052724,-0.1921828,0.8395257,-25.35792,10.16835,-19.06009
25.431248188,7.43147999999999,-77.35686,-13.7144,0.5174713,-0.1561936,0.8314899,-25.35792,10.16835,-19.06009
25.441158772,4.644268,-79.6286899999998,-12.11896,0.5641066,-0.1647844,0.8391641,-25.35792,10.16835,-19.06009
25.451069355,4.644268,-80.67722,-11.3826,0.5819418,-0.1763986,0.8005091,-25.35792,10.16835,-19.06009
25.460980892,7.18372799999999,-81.3762500000003,-11.68942,0.5601776,-0.205818,0.7894708,-26.84275,9.802006,-16.99532
25.470891476,8.979931,-81.1432399999998,-12.36441,0.5489942,-0.1961701,0.8069242,-26.84275,9.802006,-16.99532
25.480802536,6.81209899999999,-81.3179899999998,-12.60986,0.5279322,-0.1854813,0.7682973,-26.84275,9.802006,-16.99532
25.490713596,6.254657,-82.01702,-11.3826,0.5636634,-0.1796492,0.7785692,-26.84275,9.802006,-16.99532
25.500624657,3.653259,-83.0655599999999,-10.8917,0.5947393,-0.1735169,0.764398,-26.84275,9.802006,-16.99532
25.51053524,1.980931,-82.8325500000001,-11.25988,0.6306529,-0.1610089,0.7526255,-27.57051,8.685219,-15.25336
25.520446777,3.095816,-81.7257599999999,-11.87351,0.6210529,-0.1461645,0.7398489,-27.57051,8.685219,-15.25336
25.530357361,4.086825,-81.0849900000002,-12.73259,0.5935553,-0.1131573,0.7196763,-27.57051,8.685219,-15.25336
25.542746067,2.600312,-79.86169,-12.11896,0.5742416,-0.1191286,0.7366207,-27.57051,8.685219,-15.25336
25.552657127,-0.6204669,-80.4442100000001,-11.13715,0.6148673,-0.135184,0.7217332,-29.35939,7.947647,-12.35064
25.562567711,-3.345741,-81.3762500000003,-10.15535,0.6685345,-0.1499335,0.740345,-29.35939,7.947647,-12.35064
25.572479248,-1.921166,-80.5607200000002,-11.81215,0.6975922,-0.144346,0.7194666,-29.35939,7.947647,-12.35064
25.582389831,0.680232200000002,-78.2306400000002,-14.38939,0.7099389,-0.1409627,0.6876845,-29.35939,7.947647,-12.35064
25.592300892,2.786126,-76.2500800000001,-15.55528,0.6989734,-0.1304742,0.6796932,-29.35939,7.947647,-12.35064
25.602211475,5.015896,-76.5995899999998,-15.12574,0.6871065,-0.1136165,0.6866374,-29.7166,7.206793,-10.29055
25.612123012,5.20171,-75.9005699999999,-14.75756,0.6944591,-0.08742205,0.6713789,-29.7166,7.206793,-10.29055
25.622033596,4.086825,-75.7258100000002,-14.6962,0.7120013,-0.09357454,0.6582114,-29.7166,7.206793,-10.29055
25.631944179,2.724188,-75.66756,-14.94165,0.7392339,-0.09769952,0.6387258,-29.7166,7.206793,-10.29055
25.641855717,0.1847278,-75.6093099999998,-15.92346,0.752582,-0.08843818,0.6160966,-29.7166,7.206793,-10.29055
25.6517663,1.485427,-75.2598000000001,-17.02799,0.7461925,-0.08853496,0.6127939,-31.20766,7.21347,-8.61241
25.66167736,3.715197,-75.5510600000002,-17.64162,0.7462998,-0.09091815,0.6204596,-31.20766,7.21347,-8.61241
25.671587944,1.918993,-75.0267900000002,-17.33481,0.7664794,-0.07474902,0.6045354,-31.20766,7.21347,-8.61241
25.681499481,3.777135,-73.9200000000001,-17.08936,0.7979622,-0.08206356,0.6142789,-31.20766,7.21347,-8.61241
25.691410065,1.857055,-72.8714600000002,-18.0098,0.8045821,-0.08794893,0.5853689,-31.20766,7.21347,-8.61241
25.701321125,-0.3727147,-73.0462199999999,-18.68479,0.7958738,-0.08240535,0.5533158,-31.17769,5.727115,-5.652541
25.711231708,-0.3107767,-73.1044700000001,-18.68479,0.8007274,-0.09260681,0.5378379,-31.17769,5.727115,-5.652541
25.721143246,1.980931,-72.28894,-18.43934,0.8143452,-0.09149776,0.5319574,-31.17769,5.727115,-5.652541
25.731053829,0.742170199999999,-73.4539799999997,-17.58026,0.8251203,-0.09964641,0.524121,-31.17769,5.727115,-5.652541
25.740965366,-1.673414,-73.62874,-17.5189,0.8378424,-0.1058239,0.5177201,-31.17769,5.727115,-5.652541
25.75087595,1.299613,-72.2306899999998,-17.08936,0.8423642,-0.1135107,0.520508,-31.53143,4.610096,-3.976772
25.76078701,4.953958,-71.4151599999998,-16.96663,0.8003064,-0.1403825,0.4885474,-31.53143,4.610096,-3.976772
25.770697594,6.68822300000002,-74.0364999999999,-17.58026,0.753051,-0.1377197,0.4611529,-31.53143,4.610096,-3.976772
25.780608177,4.458453,-75.3180500000003,-18.25525,0.774088,-0.1033039,0.5024812,-31.53143,4.610096,-3.976772
25.790519714,2.848064,-74.0947599999998,-19.23706,0.8353015,-0.07249436,0.4997196,-31.53143,4.610096,-3.976772
25.800430298,6.750161,-73.0462199999999,-18.93024,0.8691342,-0.06105153,0.4745147,-31.90296,4.993289,-1.855907
25.810341358,12.75815,-73.3957300000001,-18.43934,0.877094,-0.04600888,0.4577358,-31.90296,4.993289,-1.855907
25.822730064,10.34257,-71.4151599999998,-17.64162,0.8814048,-0.04014691,0.4558143,-31.90296,4.993289,-1.855907
25.832640648,6.87403699999997,-71.1821499999999,-18.13253,0.8576518,-0.06010019,0.4050043,-31.90296,4.993289,-1.855907
25.842552185,5.449462,-73.4539799999997,-17.70299,0.8606305,-0.07955228,0.3866012,-31.90296,4.993289,-1.855907
25.852462769,5.449462,-73.6869900000002,-16.16891,0.8726376,-0.08999555,0.4008253,-31.50358,3.881559,1.100862
25.862374306,5.635276,-72.5219499999999,-15.49392,0.8777475,-0.106405,0.4030695,-31.50358,3.881559,1.100862
25.872284889,6.56434699999999,-72.2306899999998,-15.12574,0.8779854,-0.1084808,0.3761646,-31.50358,3.881559,1.100862
25.88219595,7.369542,-71.5316699999999,-15.24847,0.8850898,-0.0772891,0.3902313,-31.50358,3.881559,1.100862
25.892106533,7.55535600000002,-69.0850799999998,-16.47573,0.8783693,-0.03853365,0.4001548,-31.50358,3.881559,1.100862
25.90201807,9.66124900000002,-68.44431,-17.58026,0.8700926,-0.02569683,0.3710272,-31.87534,4.26449,3.157481
25.911928654,12.20071,-69.0268300000001,-17.33481,0.8857064,-0.00186388,0.347994,-31.87534,4.26449,3.157481
25.921839714,10.90001,-69.43459,-16.16891,0.9155852,-0.001711591,0.3054648,-31.87534,4.26449,3.157481
25.931750298,9.66124900000002,-69.2015899999999,-13.53031,0.9602717,-0.005933026,0.318948,-31.87534,4.26449,3.157481
25.941661835,8.36055000000001,-67.3957700000001,-11.75078,0.9703347,-0.00663848,0.3457391,-31.87534,4.26449,3.157481
25.951572418,5.325586,-63.8424099999998,-11.99623,0.9459978,-0.03493113,0.371224,-31.10308,3.151222,5.726835
25.961483955,7.30760400000002,-60.87156,-13.22349,0.8907083,-0.06832522,0.3287788,-31.10308,3.151222,5.726835
25.971394539,12.69621,-61.8618400000001,-14.32802,0.8700035,-0.0398984,0.2504137,-31.10308,3.151222,5.726835
25.981305122,11.2097,-63.6676500000001,-14.2053,0.8814753,0.005716936,0.2304449,-31.10308,3.151222,5.726835
25.991216183,8.60830200000001,-63.9589100000002,-14.45075,0.9208266,0.03388532,0.2384313,-31.10308,3.151222,5.726835
26.001126766,11.45745,-61.6870799999998,-14.81893,0.9494846,0.05293229,0.2896701,-31.8394,2.784932,7.78771
26.011038303,14.49242,-57.9007,-16.59845,0.9661416,0.01828365,0.2998487,-31.8394,2.784932,7.78771
26.020948887,14.67823,-55.33762,-15.43256,0.9457497,-0.01848374,0.2709828,-31.8394,2.784932,7.78771
26.030859947,14.3066,-55.27937,-14.88029,0.9409101,0.002208334,0.2524393,-31.8394,2.784932,7.78771
26.040771008,12.0149,-55.92014,-15.55528,0.9331276,0.01675698,0.1781836,-31.8394,2.784932,7.78771
26.050682068,5.573338,-58.5997300000002,-14.63484,0.9607984,0.008221423,0.1485812,-30.33453,2.413856,8.616259
26.060592651,2.35256,-58.19196,-11.25988,1.01904,-0.002967812,0.1883013,-30.33453,2.413856,8.616259
26.070504189,7.24566599999997,-52.89104,-10.70761,0.9986907,0.003453109,0.166445,-30.33453,2.413856,8.616259
26.080414772,12.75815,-49.33767,-11.93487,0.9683594,-0.003763996,0.1565941,-30.33453,2.413856,8.616259
26.092803478,7.43147999999999,-48.8134,-11.99623,0.958176,-0.00628746,0.1619532,-30.33453,2.413856,8.616259
26.102714539,2.600312,-49.22116,-11.99623,0.9798746,0.008712063,0.1973842,-29.95108,2.424343,11.1841
26.112625122,5.077834,-47.18234,-11.44397,1.010562,0.04025642,0.2227589,-29.95108,2.424343,11.1841
26.122536659,5.20171,-43.45422,-10.21671,1.012473,0.06635094,0.201308,-29.95108,2.424343,11.1841
26.132447243,3.901011,-41.06589,-8.98945100000001,0.9787723,0.05399213,0.142958,-29.95108,2.424343,11.1841
26.142358303,6.56434699999999,-40.36686,-7.70083,0.9580756,0.02584656,0.09446593,-29.95108,2.424343,11.1841
26.152268887,8.79411600000002,-40.94938,-7.76219299999999,0.985097,0.01990882,0.09993838,-29.19473,2.053206,12.01654
26.162180424,5.82109000000002,-39.78434,-7.88491900000001,1.025966,0.01568721,0.1225799,-29.19473,2.053206,12.01654
26.172091007,1.485427,-36.58049,-7.08720199999999,1.046851,0.02319475,0.1176352,-29.19473,2.053206,12.01654
26.182001591,1.423489,-32.32809,-6.90311299999998,1.003527,0.0225024,0.0882614,-29.19473,2.053206,12.01654
26.191913128,2.228683,-30.81354,-6.47357199999998,0.9419561,0.02589243,0.04852013,-29.19473,2.053206,12.01654
26.201823711,5.077834,-31.33781,-6.35084600000001,0.922183,0.01919435,0.01984888,-29.56301,2.059974,13.68885
26.211734772,9.72318700000001,-33.20187,-6.78038700000001,0.9511069,0.01350159,0.06803943,-29.56301,2.059974,13.68885
26.221645355,13.56335,-34.25041,-6.289484,1.013693,0.004049717,0.1519055,-29.56301,2.059974,13.68885
26.231556892,14.3066,-33.55138,-5.246314,1.074306,0.006023566,0.1998541,-29.56301,2.059974,13.68885
26.241467476,12.75815,-27.37668,-4.448596,1.069254,0.03050736,0.1650124,-29.56301,2.059974,13.68885
26.251378536,11.39551,-23.5903,-5.184951,1.012736,0.03891316,0.05179355,-28.49802,2.065288,14.96822
26.26128912,13.87304,-24.28932,-5.79858000000001,0.9879932,0.04893709,-0.0127322,-28.49802,2.065288,14.96822
26.271200657,15.29761,-24.81359,-6.16675799999997,0.998793,0.09616283,-0.00099367,-28.49802,2.065288,14.96822
26.28111124,8.79411600000002,-25.0466,-6.35084600000001,1.021132,0.1195398,0.05897526,-28.49802,2.065288,14.96822
26.291022778,3.839073,-21.02721,-5.430403,1.018139,0.1153304,0.09594707,-28.49802,2.065288,14.96822
26.300933361,0.742170199999999,-17.82336,-5.062225,0.9437926,0.07682605,0.04884246,-28.49802,2.065288,14.96822
26.310844421,-0.4346527,-20.91071,-4.325871,0.9137723,0.02220538,-0.033831,-28.49802,2.065288,14.96822
26.320755005,4.334577,-23.7068,-4.019056,0.9566513,-0.003914627,-0.03152062,-28.49802,2.065288,14.96822
26.330666542,12.5104,-23.06603,-4.203145,1.012829,-0.03542418,0.02152764,-28.49802,2.065288,14.96822
26.340577126,19.57134,-16.71657,-3.834968,1.064621,-0.02893251,0.1204847,-28.49802,2.065288,14.96822
26.350487709,16.72219,-8.96905800000002,-2.669072,1.081398,-0.01961601,0.1938558,-28.1291,2.819476,16.18462
26.360398769,6.997913,-5.82345200000001,-0.950910899999997,1.110853,0.0147103,0.1976533,-28.1291,2.819476,16.18462
26.372787476,2.848064,0.642515800000001,0.583161800000002,1.201795,0.0882813,0.2352349,-28.1291,2.819476,16.18462
