Time (s),Gyroscope X (deg/s),Gyroscope Y (deg/s),Gyroscope Z (deg/s),Accelerometer X (g),Accelerometer Y (g),Accelerometer Z (g),Magnetometer X (uT),Magnetometer Y (uT),Magnetometer Z (uT)
14.58814621,1.361551,12.23466,0.767250500000003,0.4562649,-0.2584497,0.8942755,-23.17771,-20.13482,-24.75824
14.598058224,2.97194,13.57445,1.442243,0.4511354,-0.2474162,0.8838329,-22.43703,-19.76356,-25.59846
14.607970238,3.901011,13.16669,2.362686,0.4426859,-0.2466161,0.8714323,-22.43703,-19.76356,-25.59846
14.617882728,5.077834,12.93368,2.853589,0.4370193,-0.2253698,0.8682652,-22.43703,-19.76356,-25.59846
14.630272865,5.82109000000002,12.1764,2.424049,0.4292589,-0.1954394,0.8618141,-22.43703,-19.76356,-25.59846
14.640184402,6.31659499999999,11.47738,2.301323,0.4177265,-0.1771926,0.8553201,-22.05792,-20.13813,-25.59925
14.65009737,5.82109000000002,9.90457699999998,1.442243,0.4028117,-0.1618946,0.8493179,-22.05792,-20.13813,-25.59925
14.660009384,5.20171,8.564782,0.5217989,0.3937259,-0.1475187,0.838454,-22.05792,-20.13813,-25.59925
14.669921398,4.272639,6.93372799999998,-0.3986447,0.3896618,-0.1335007,0.8400255,-22.05792,-20.13813,-25.59925
14.679833889,3.591321,5.302673,-1.196362,0.3943603,-0.1232949,0.8333278,-22.05792,-20.13813,-25.59925
14.689745903,3.343568,4.02113,-1.503177,0.3962094,-0.1213748,0.8251608,-22.07407,-19.01617,-26.05243
14.699657917,2.910002,2.797838,-1.809992,0.399663,-0.1198524,0.8299406,-22.07407,-19.01617,-26.05243
14.709569931,2.290622,1.399791,-1.99408,0.3983305,-0.136874,0.8231173,-22.07407,-19.01617,-26.05243
14.719482422,1.547365,-0.3477675,-2.116806,0.400481,-0.152358,0.8239545,-22.07407,-19.01617,-26.05243
14.729394436,0.618294100000002,-2.270082,-2.116806,0.3992081,-0.1591048,0.834965,-22.07407,-19.01617,-26.05243
14.73930645,-0.806281,-4.425405,-2.362258,0.4039057,-0.1745049,0.8458626,-22.06277,-19.76353,-25.60041
14.749218941,-1.054033,-6.34771999999997,-2.607709,0.4109626,-0.1889433,0.8495424,-22.06277,-19.76353,-25.60041
14.759130955,-1.239847,-7.57101099999998,-2.791798,0.4056029,-0.193391,0.8462013,-22.06277,-19.76353,-25.60041
14.769042969,-2.168918,-9.20206600000003,-2.546346,0.4143032,-0.2160119,0.8574939,-22.06277,-19.76353,-25.60041
14.77895546,-3.593493,-11.18263,-2.116806,0.4264015,-0.2361638,0.8692517,-22.06277,-19.76353,-25.60041
14.788867474,-4.894192,-11.88166,-1.625903,0.4349767,-0.2520205,0.8762692,-21.31586,-19.7653,-26.05402
14.798779488,-4.584502,-11.29914,-1.012274,0.4409032,-0.2660627,0.8655574,-21.31586,-19.7653,-26.05402
14.808691978,-5.947139,-9.60983000000002,-0.3372818,0.4567137,-0.2579766,0.8909134,-21.31586,-19.7653,-26.05402
14.818603992,-9.04404300000003,-7.51275900000002,-0.03046724,0.4455316,-0.2517427,0.9045028,-21.31586,-19.7653,-26.05402
14.828516006,-11.64544,-7.74576700000002,0.583161800000002,0.4360456,-0.2402536,0.8989051,-21.31586,-19.7653,-26.05402
14.838428497,-9.72536099999999,-8.32828599999997,0.889976299999999,0.4493865,-0.2478208,0.9035329,-22.07247,-19.01434,-25.60272
14.848340511,-4.708378,-6.40597199999999,0.828613499999998,0.4680746,-0.2548492,0.905714,-22.07247,-19.01434,-25.60272
14.858252525,-2.354732,-2.095326,0.5217989,0.4832454,-0.2419697,0.921985,-22.07247,-19.01434,-25.60272
14.868164539,-4.33675,0.759019800000003,1.442243,0.4805384,-0.2377465,0.9013913,-22.07247,-19.01434,-25.60272
14.87807703,-5.699387,-1.396303,2.301323,0.4688583,-0.2505478,0.8918108,-22.07247,-19.01434,-25.60272
14.887989044,-5.018068,-2.561342,2.117234,0.4812316,-0.2556829,0.9003051,-22.42894,-20.51459,-26.04587
14.897901058,-2.788299,-1.279799,2.424049,0.4821653,-0.2503278,0.9022528,-22.42894,-20.51459,-26.04587
14.910291672,-0.9301572,1.982311,2.669501,0.4736147,-0.2505559,0.8788025,-22.42894,-20.51459,-26.04587
14.920203686,0.43248,3.962878,2.669501,0.4599934,-0.271179,0.8615054,-22.42894,-20.51459,-26.04587
14.9301157,2.848064,5.593933,3.037678,0.4639836,-0.2823086,0.8561127,-22.42894,-20.51459,-26.04587
14.940028191,2.724188,4.953161,4.817203,0.4646371,-0.2812412,0.8733994,-22.81613,-19.389,-25.59767
14.949940205,0.3086039,3.496862,7.578534,0.4701526,-0.2815904,0.8863103,-22.81613,-19.389,-25.59767
14.959852219,-2.354732,3.089098,9.11260599999998,0.4811849,-0.2749711,0.9208238,-22.81613,-19.389,-25.59767
14.969764709,-1.983104,6.29295599999999,8.92851700000003,0.4976699,-0.2692214,0.9615231,-22.81613,-19.389,-25.59767
14.979676723,0.1227897,11.41913,8.31488799999999,0.495409,-0.2837904,0.9624073,-22.81613,-19.389,-25.59767
14.989588737,2.35256,15.67152,9.54214699999998,0.5018819,-0.3158454,0.9362053,-22.43863,-19.76539,-26.04818
14.999500751,4.086825,17.82685,12.05803,0.497095,-0.3239065,0.8891404,-22.43863,-19.76539,-26.04818
15.009413242,2.66225,15.49677,13.16256,0.4792075,-0.3325679,0.8513156,-22.43863,-19.76539,-26.04818
15.019325256,-0.3107767,12.11815,14.75799,0.4729497,-0.3035761,0.8472452,-22.43863,-19.76539,-26.04818
15.02923727,-5.699387,11.59388,15.86252,0.4837604,-0.2729301,0.8406271,-22.43863,-19.76539,-26.04818
15.039149761,-3.841246,11.24437,15.43299,0.4485382,-0.266311,0.7992232,-22.43378,-20.13999,-26.04702
15.049061775,4.334577,11.36088,12.48757,0.4491053,-0.2501667,0.8257342,-22.43378,-20.13999,-26.04702
15.058973789,11.39551,11.47738,11.4444,0.4422409,-0.2305017,0.8945913,-22.43378,-20.13999,-26.04702
15.06888628,15.23567,9.96283000000002,12.61029,0.4464118,-0.2486061,0.9462892,-22.43378,-20.13999,-26.04702
15.078798294,19.19971,17.53559,10.52395,0.4585134,-0.2699713,1.004614,-22.43378,-20.13999,-26.04702
15.088710308,26.63227,31.16655,7.63989600000002,0.4899646,-0.3155906,1.014103,-21.70467,-18.64155,-26.05553
15.098622799,31.02988,35.53544,9.60350899999999,0.4461201,-0.2833833,0.972469,-21.70467,-18.64155,-26.05553
15.108534813,26.26065,33.49662,8.19216299999999,0.4530066,-0.2001098,1.026258,-21.70467,-18.64155,-26.05553
15.118446827,16.22668,37.51601,6.65808999999999,0.4697407,-0.126931,0.9795347,-21.70467,-18.64155,-26.05553
15.128358841,13.19172,42.00141,6.28991200000003,0.403086,-0.04810202,0.9139345,-21.70467,-18.64155,-26.05553
15.138271332,22.48243,41.18588,6.044461,0.3396428,-6.301701e-05,0.8869921,-21.32556,-19.01611,-26.05632
15.148183346,33.94097,38.8558,4.633114,0.3401818,-0.002709344,0.9364258,-21.32556,-19.01611,-26.05632
15.15809536,34.56035,40.89462,4.939929,0.4137163,-0.03411759,1.060858,-21.32556,-19.01611,-26.05632
15.168008328,25.26964,40.60336,4.939929,0.4555787,-0.09928552,1.109013,-21.32556,-19.01611,-26.05632
15.177919865,13.68722,37.39951,5.430832,0.4966555,-0.155594,1.090972,-21.32556,-19.01611,-26.05632
15.190310001,14.18273,36.75874,7.88534800000001,0.540138,-0.2470141,1.02802,-20.21062,-18.64483,-26.89849
15.200222492,19.69521,42.58393,11.01486,0.5691425,-0.3455786,1.118325,-20.21062,-18.64483,-26.89849
15.210134506,15.29761,50.5062,16.90569,0.5523095,-0.4644053,1.244931,-20.21062,-18.64483,-26.89849
15.22004652,3.033878,53.18579,22.24427,0.4738599,-0.520371,1.206391,-20.21062,-18.64483,-26.89849
15.229959011,10.7142,50.33144,22.30563,0.388445,-0.510161,1.043035,-20.21062,-18.64483,-26.89849
15.239871025,29.66724,48.23437,17.51932,0.3429915,-0.323926,0.8819225,-19.08136,-19.39759,-27.80145
15.249783039,47.07183,44.38974,12.79438,0.2743654,-0.147338,0.7862616,-19.08136,-19.39759,-27.80145
15.259696007,47.56734,43.04995,8.80579200000003,0.2461696,0.01407755,0.7530263,-19.08136,-19.39759,-27.80145
15.269607544,34.3126,42.9917,5.492195,0.1721985,0.07575091,0.6691332,-19.08136,-19.39759,-27.80145
15.279519558,22.54436,39.08881,3.958122,0.105892,0.02745268,0.5839565,-19.08136,-19.39759,-27.80145
15.289432526,15.23567,31.2248,5.676283,0.07705354,-0.017533,0.5800822,-16.8388,-19.4008,-28.64831
15.29934454,12.63428,23.88505,7.578534,0.05908661,-0.01428006,0.5961153,-16.8388,-19.4008,-28.64831
15.309256077,7.30760400000002,17.94335,7.578534,0.03041947,-0.01698587,0.6107672,-16.8388,-19.4008,-28.64831
15.319168091,1.485427,11.12787,6.41263799999999,-0.007962544,-0.03782945,0.6105031,-16.8388,-19.4008,-28.64831
15.329081059,-3.036051,3.496862,4.817203,-0.01309781,-0.08386338,0.6280097,-16.8388,-19.4008,-28.64831
15.338993073,-6.07101500000003,-1.396303,3.958122,0.01766021,-0.153737,0.636863,-15.70633,-20.14991,-28.65184
15.34890461,-5.451635,-5.357436,3.28313,0.01895186,-0.1779517,0.6390905,-15.70633,-20.14991,-28.65184
15.358817577,-4.522564,-8.44479099999997,2.546775,0.03589822,-0.1892835,0.6571043,-15.70633,-20.14991,-28.65184
15.368729591,-2.602484,-11.06613,1.012702,0.04255706,-0.1736851,0.6571466,-15.70633,-20.14991,-28.65184
15.378641605,2.104807,-12.98844,-1.56454,0.02746545,-0.1394546,0.6560738,-15.70633,-20.14991,-28.65184
15.388554096,5.139772,-16.83307,-3.589516,0.00139791,-0.1071756,0.6790973,-14.58516,-20.15165,-29.10739
15.39846611,6.06884200000002,-23.76506,-5.614491,-0.0008662175,-0.1219858,0.7270355,-14.58516,-20.15165,-29.10739
15.408378124,9.72318700000001,-30.28927,-7.76219299999999,0.03494996,-0.15391,0.749059,-14.58516,-20.15165,-29.10739
15.418290615,17.09381,-35.53195,-8.74399900000002,0.05545588,-0.1365954,0.7662703,-14.58516,-20.15165,-29.10739
15.428202629,17.83707,-41.4154,-8.37582199999997,0.05132168,-0.02945187,0.7747049,-14.58516,-20.15165,-29.10739
15.438114643,-0.1869005,-49.45417,-6.90311299999998,0.04609951,0.1298174,0.8334333,-14.9562,-20.14802,-28.20602
15.448027134,-33.81926,-58.4249699999999,-4.9395,0.08235206,0.1981116,0.9199815,-14.9562,-20.14802,-28.20602
15.457939148,-67.2658199999999,-64.0171700000001,-3.773605,0.157362,0.1572183,1.081789,-14.9562,-20.14802,-28.20602
15.467851162,-88.2008699999999,-64.3084300000002,-3.098613,0.2872223,0.02486969,1.240079,-14.9562,-20.14802,-28.20602
15.480241776,-88.6344399999998,-62.7356199999997,-2.669072,0.3964214,-0.1543821,1.379041,-16.81805,-20.51753,-26.91024
15.49015379,-74.0789899999997,-63.7258999999997,-3.650879,0.4699805,-0.3369884,1.4242,-16.81805,-20.51753,-26.91024
15.500065804,-52.83424,-62.4443600000002,-3.957693,0.5207664,-0.4322441,1.258402,-16.81805,-20.51753,-26.91024
15.509977818,-26.57251,-56.4444,-2.055443,0.5272471,-0.3974923,1.025216,-16.81805,-20.51753,-26.91024
15.519890309,-3.593493,-42.34743,1.503605,0.4858295,-0.2647934,0.9088446,-16.81805,-20.51753,-26.91024
15.529802323,3.777135,-25.10485,-0.03046724,0.4088708,-0.1780585,0.8966898,-17.95399,-19.39227,-26.5224
15.539714337,-6.44264400000003,-14.56125,-5.675855,0.3268198,-0.1983108,0.8348932,-17.95399,-19.39227,-26.5224
15.549626827,-19.13994,-15.55153,-10.03262,0.2461719,-0.1932208,0.7012286,-17.95399,-19.39227,-26.5224
15.559538841,-25.76732,-23.35729,-13.65303,0.1686073,-0.1770451,0.5474428,-17.95399,-19.39227,-26.5224
15.569450855,-23.53755,-38.6193,-14.32802,0.1356739,-0.1470443,0.7088002,-17.95399,-19.39227,-26.5224
15.579363346,-44.34873,-52.48327,-15.92346,0.201179,-0.08474191,1.065847,-20.21409,-18.26866,-26.51418
15.58927536,-67.88519,-59.3569999999998,-17.27345,0.3480936,-0.1622729,1.282444,-20.21409,-18.26866,-26.51418
15.599187374,-58.5944800000002,-48.23088,-21.38476,0.5243915,-0.2633419,1.18987,-20.21409,-18.26866,-26.51418
15.609099865,-25.89119,-32.91061,-20.70977,0.6316894,-0.3436184,0.8781611,-20.21409,-18.26866,-26.51418
15.619011879,16.10281,-20.15343,-12.97804,0.660476,-0.3003891,0.6366633,-20.21409,-18.26866,-26.51418
15.628923893,39.2057,-5.590444,-10.8917,0.6434636,-0.1900761,0.632754,-21.33041,-18.64152,-26.05748
15.638836384,32.39252,-0.1730116,-13.83712,0.5526607,-0.1308917,0.7641109,-21.33041,-18.64152,-26.05748
15.648748398,6.750161,-3.260366,-15.43256,0.5189129,-0.1278868,0.9574667,-21.33041,-18.64152,-26.05748
15.658660412,-21.74134,-3.202114,-15.73937,0.5742726,-0.1676093,1.111781,-21.33041,-18.64152,-26.05748
15.668572426,-31.03205,-1.512807,-15.73937,0.6017537,-0.1950196,1.089257,-21.33041,-18.64152,-26.05748
15.678484917,-10.15893,0.5842639,-19.05297,0.5928733,-0.2198184,0.9095948,-22.08377,-18.26698,-26.05474
15.688396931,20.37653,1.574547,-20.21886,0.4963652,-0.1916297,0.6869214,-22.08377,-18.26698,-26.05474
15.698308945,23.72119,-11.35739,-20.77113,0.3690808,-0.129169,0.6025664,-22.08377,-18.26698,-26.05474
15.708221435,0.618294100000002,-30.46403,-20.09614,0.393754,-0.1594686,0.6842434,-22.08377,-18.26698,-26.05474
15.718133449,-16.16692,-34.30866,-20.40295,0.5138918,-0.2555731,0.8428649,-22.08377,-18.26698,-26.05474
15.728045463,-14.80428,-20.32819,-21.01658,0.6155127,-0.3277442,0.8928212,-22.43703,-19.76356,-25.59846
15.737957954,-9.53954700000003,-8.211782,-20.52568,0.6066278,-0.3193657,0.846864,-22.43703,-19.76356,-25.59846
15.747869968,-7.86721900000001,-7.97877500000003,-19.35978,0.5383632,-0.2786695,0.8179967,-22.43703,-19.76356,-25.59846
15.760260105,-6.44264400000003,-15.60978,-16.29164,0.5459332,-0.2869872,0.8788513,-22.43703,-19.76356,-25.59846
15.770172596,-7.24783800000001,-17.29909,-13.89848,0.5832736,-0.3176391,0.9556074,-22.43703,-19.76356,-25.59846
15.78008461,-7.929157,-13.51271,-12.11896,0.6039257,-0.3473174,0.9797065,-23.19039,-19.38903,-25.59573
15.789996624,-6.69039600000003,-8.91080699999998,-10.46216,0.6161546,-0.361796,0.9631717,-23.19039,-19.38903,-25.59573
15.799909115,-5.513573,-5.415688,-9.90989499999997,0.5985626,-0.345186,0.936076,-23.19039,-19.38903,-25.59573
15.809821129,-5.82326300000003,-3.318618,-8.80536299999997,0.5785397,-0.3044575,0.8909175,-23.19039,-19.38903,-25.59573
15.819733143,-5.637449,-0.6972793,-7.51674200000002,0.5638222,-0.27711,0.870589,-23.19039,-19.38903,-25.59573
15.829645634,-5.018068,3.263854,-6.53493500000002,0.5488357,-0.2628248,0.856418,-23.18715,-19.76546,-26.04428
15.839557648,-5.575511,7.05023200000001,-6.044032,0.5253529,-0.2562961,0.8629208,-23.18715,-19.76546,-26.04428
15.849469662,-7.74334299999998,9.49681400000001,-6.16675799999997,0.5182541,-0.2665092,0.873962,-23.18715,-19.76546,-26.04428
15.859381676,-9.22985600000001,10.6036,-5.307677,0.515726,-0.2790177,0.8988703,-23.18715,-19.76546,-26.04428
15.869294167,-8.92016599999997,11.30262,-5.307677,0.5080315,-0.2844145,0.9051476,-23.18715,-19.76546,-26.04428
15.879206181,-7.74334299999998,10.37059,-4.264508,0.5037587,-0.2975738,0.9022185,-23.5501,-20.51284,-25.59032
15.889118195,-5.82326300000003,9.90457699999998,-3.282701,0.4966791,-0.2948546,0.8826155,-23.5501,-20.51284,-25.59032
15.899030685,-3.036051,10.37059,-2.546346,0.4957807,-0.3221425,0.8584341,-23.5501,-20.51284,-25.59032
15.908942699,-0.8682191,10.89486,-1.932717,0.4807243,-0.2937474,0.853961,-23.5501,-20.51284,-25.59032
15.918854713,-0.806281,10.95311,-1.503177,0.4659498,-0.2934982,0.844016,-23.5501,-20.51284,-25.59032
15.928767681,-0.3727147,11.65214,-0.828185100000001,0.4582637,-0.295476,0.8551175,-22.80643,-20.13819,-25.59536
15.938679218,-0.1869005,11.76864,-0.3372818,0.4351901,-0.2909339,0.8515199,-22.80643,-20.13819,-25.59536
15.948591232,1.237675,11.41913,0.1536215,0.42433,-0.2818539,0.8521609,-22.80643,-20.13819,-25.59536
15.9585042,2.104807,10.42885,0.3377102,0.4125189,-0.2713087,0.857142,-22.80643,-20.13819,-25.59536
15.968416214,2.97194,8.85604200000002,0.460436,0.410151,-0.2703236,0.8658134,-22.80643,-20.13819,-25.59536
15.978327751,3.591321,7.574499,0.2149844,0.40809,-0.2528418,0.8760322,-22.80965,-20.14185,-26.49479
15.988240719,3.157754,6.40946000000002,0.3377102,0.4063505,-0.2295875,0.8766834,-22.80965,-20.14185,-26.49479
15.998152733,1.175737,5.244421,1.626331,0.411483,-0.228912,0.9011285,-22.80965,-20.14185,-26.49479
16.008064747,0.989922399999999,5.186169,2.055871,0.4015339,-0.2315619,0.8815163,-22.80965,-20.14185,-26.49479
16.017977238,4.024887,5.76868899999999,1.38088,0.4172658,-0.2266919,0.8477923,-22.80965,-20.14185,-26.49479
16.027889252,7.865046,7.28324000000001,1.687694,0.4272189,-0.2028248,0.8449782,-22.06598,-19.76719,-26.49984
16.040278912,6.006905,8.33177500000003,2.178597,0.433338,-0.1801814,0.8959693,-22.06598,-19.76719,-26.49984
16.050191879,2.104807,9.26380600000001,1.503605,0.4330998,-0.1912766,0.9074214,-22.06598,-19.76719,-26.49984
16.060103893,1.857055,10.13759,0.951339199999998,0.4305536,-0.1972136,0.8905998,-22.06598,-19.76719,-26.49984
16.07001543,5.94496599999999,10.83661,0.3990731,0.4303479,-0.1865889,0.8829899,-22.06598,-19.76719,-26.49984
16.079928398,8.48442599999998,11.82689,0.3990731,0.4252384,-0.1677402,0.8836429,-22.06114,-20.14179,-26.49868
16.089840412,6.68822300000002,11.41913,0.828613499999998,0.423026,-0.153264,0.8755971,-22.06114,-20.14179,-26.49868
16.099752426,2.786126,10.72011,1.38088,0.4237691,-0.1662964,0.8851066,-22.06114,-20.14179,-26.49868
16.109664917,1.05186,10.54535,2.301323,0.4292792,-0.1690874,0.8946402,-22.06114,-20.14179,-26.49868
16.119576931,-0.06302445,11.12787,2.485412,0.4364122,-0.1795837,0.9103495,-22.06114,-20.14179,-26.49868
16.129488945,0.0608516599999998,12.40941,2.914952,0.4330859,-0.1864057,0.9117753,-22.05953,-20.13996,-26.04897
16.139400959,0.494418,13.28319,2.976315,0.4292957,-0.1961476,0.9122256,-22.05953,-20.13996,-26.04897
16.14931345,-0.4965908,13.22494,3.405856,0.4364711,-0.2217438,0.9143896,-22.05953,-20.13996,-26.04897
16.159225464,-1.4876,13.69096,4.326299,0.4574243,-0.2612698,0.9086507,-22.05953,-20.13996,-26.04897
16.169137478,-0.8682191,15.55502,5.553557,0.4696913,-0.3066997,0.9072743,-22.05953,-20.13996,-26.04897
16.179049969,0.1847278,17.24433,6.41263799999999,0.4668334,-0.3076726,0.9135363,-21.68826,-20.14333,-26.8861
16.188961983,0.2466658,18.05985,7.08763000000002,0.4490726,-0.2972436,0.9104089,-21.68826,-20.14333,-26.8861
16.198873997,0.680232200000002,18.99188,7.27171900000003,0.4352692,-0.2960102,0.9009417,-21.68826,-20.14333,-26.8861
16.208786488,2.042869,19.63266,7.39444499999999,0.4356387,-0.2897248,0.8966587,-21.68826,-20.14333,-26.8861
16.218698502,3.095816,20.50644,7.51716999999999,0.4227239,-0.2880378,0.8790235,-21.68826,-20.14333,-26.8861
16.228610516,4.582329,20.9142,7.82398500000003,0.412501,-0.2669277,0.8605325,-21.314,-20.1433,-26.88804
16.238523006,5.449462,20.56469,7.578534,0.3957603,-0.2608548,0.8564063,-21.314,-20.1433,-26.88804
16.248435021,6.44047100000002,19.92392,7.026268,0.3886802,-0.2444772,0.8527396,-21.314,-20.1433,-26.88804
16.258347035,6.62628499999997,19.10839,6.16718700000003,0.3767538,-0.2325286,0.848128,-21.314,-20.1433,-26.88804
16.268259525,5.077834,16.89481,5.492195,0.3559144,-0.2202606,0.8330374,-21.314,-20.1433,-26.88804
16.278171539,3.095816,14.33173,4.694477,0.3427885,-0.1942932,0.8232484,-20.95105,-19.39591,-27.34201
16.288083553,2.166745,11.76864,3.896759,0.3361897,-0.1818159,0.8142696,-20.95105,-19.39591,-27.34201
16.297996044,1.609303,10.07933,3.344493,0.3227005,-0.1709112,0.7991019,-20.95105,-19.39591,-27.34201
16.307908058,1.237675,7.98226299999999,3.28313,0.315641,-0.1657424,0.7843168,-20.95105,-19.39591,-27.34201
16.320298195,-0.1869005,4.487145,3.099041,0.3030748,-0.1750936,0.7877318,-20.95105,-19.39591,-27.34201
16.330210686,-0.3727147,1.108532,3.160404,0.2953692,-0.1824473,0.790635,-20.19444,-20.14687,-27.79331
16.3401227,-0.001086392,-2.386586,2.117234,0.2909903,-0.175174,0.8012874,-20.19444,-20.14687,-27.79331
16.350034714,-0.4965908,-5.93995599999998,1.38088,0.2981202,-0.1812818,0.8218276,-20.19444,-20.14687,-27.79331
16.359947205,-1.363724,-8.85255399999999,0.828613499999998,0.299178,-0.1822035,0.8285339,-20.19444,-20.14687,-27.79331
16.369859219,-2.726361,-12.05641,-0.09183015,0.2996642,-0.1807354,0.8299796,-20.19444,-20.14687,-27.79331
16.379771233,-4.398688,-15.37677,-0.950910899999997,0.3017292,-0.1869956,0.83328,-19.83611,-19.02462,-28.18418
16.389683724,-5.637449,-18.28937,-1.503177,0.309283,-0.2004482,0.8388824,-19.83611,-19.02462,-28.18418
16.399595738,-5.513573,-20.32819,-1.56454,0.3206413,-0.2119563,0.8362999,-19.83611,-19.02462,-28.18418
16.409507752,-5.018068,-22.30876,-1.319088,0.3467256,-0.2212997,0.8417583,-19.83611,-19.02462,-28.18418
16.419419766,-3.965122,-23.4738,-0.950910899999997,0.3746029,-0.2402112,0.8677832,-20.20414,-19.39768,-27.79561
16.429332256,-2.974113,-22.89128,-0.889547900000002,0.3950101,-0.2592852,0.8804316,-20.20414,-19.39768,-27.79561
16.43924427,-2.602484,-21.49323,-0.4600076,0.3970273,-0.2582531,0.8876222,-20.20414,-19.39768,-27.79561
16.449156284,-3.469617,-19.80392,-0.3372818,0.4084128,-0.2604787,0.8985457,-20.20414,-19.39768,-27.79561
16.459068775,-5.451635,-18.23112,-0.09183015,0.4123994,-0.2589274,0.9076422,-20.20414,-19.39768,-27.79561
16.468980789,-8.98210400000001,-17.00783,0.767250500000003,0.4248145,-0.2601382,0.9248051,-20.57033,-19.76864,-26.89309
16.478892803,-12.32676,-15.08551,1.564968,0.4439425,-0.2564544,0.934736,-20.57033,-19.76864,-26.89309
16.488805294,-11.088,-11.47389,1.81042,0.4578819,-0.2442068,0.9255657,-20.57033,-19.76864,-26.89309
16.498717308,-4.64644,-6.63897900000002,1.687694,0.4586872,-0.2223331,0.9343468,-20.57033,-19.76864,-26.89309
16.508629322,-1.177909,-2.386586,0.767250500000003,0.4586889,-0.2072103,0.9522135,-20.57033,-19.76864,-26.89309
16.51854229,-4.398688,0.5842639,0.03089567,0.4505077,-0.2004169,0.9729812,-21.7028,-19.01954,-26.88956
16.528453827,-9.47760899999999,1.166783,-1.012274,0.4300747,-0.2040349,0.9789078,-21.7028,-19.01954,-26.88956
16.538365841,-12.82226,1.924059,-2.239532,0.4209648,-0.1925983,0.9622627,-21.7028,-19.01954,-26.88956
16.548278809,-14.24684,1.574547,-3.650879,0.4033738,-0.1872074,0.9221281,-21.7028,-19.01954,-26.88956
16.558190822,-13.25583,1.283287,-5.000863,0.3960641,-0.179242,0.8862368,-21.7028,-19.01954,-26.88956
16.56810236,-9.663423,0.9920276,-6.84175,0.3842122,-0.1784742,0.8757882,-21.70765,-18.64495,-26.89071
16.578015327,-5.575511,0.642515800000001,-7.88491900000001,0.3729429,-0.1835052,0.8676962,-21.70765,-18.64495,-26.89071
16.587927341,-3.903184,0.2347521,-8.43718500000001,0.3646122,-0.180692,0.8692324,-21.70765,-18.64495,-26.89071
16.600317001,-1.79729,-2.444838,-8.06900800000002,0.3335471,-0.1773109,0.8479351,-21.70765,-18.64495,-26.89071
16.610229969,-0.3107767,-4.949672,-7.946282,0.3213865,-0.1706017,0.8620169,-21.70765,-18.64495,-26.89071
16.620141506,-1.363724,-7.68751500000001,-7.946282,0.3115166,-0.1629664,0.862159,-22.07382,-19.396,-27.33617
16.63005352,-4.398688,-10.2506,-8.00764499999998,0.3059374,-0.1572845,0.8492842,-22.07382,-19.396,-27.33617
16.639966488,-6.87620999999998,-13.57096,-7.70083,0.284569,-0.1652829,0.85423,-22.07382,-19.396,-27.33617
16.649878502,-8.23884800000001,-18.46413,-8.37582199999997,0.2560768,-0.1491216,0.8603631,-22.07382,-19.396,-27.33617
16.659790039,-10.77831,-24.17282,-9.48035400000003,0.2355707,-0.1396069,0.8745408,-22.07382,-19.396,-27.33617
16.669703007,-15.42366,-30.63879,-11.75078,0.2122736,-0.156884,0.8712801,-22.06598,-19.76719,-26.49984
16.679615021,-17.59149,-36.28923,-14.02121,0.2000249,-0.171684,0.8516082,-22.06598,-19.76719,-26.49984
16.689527035,-18.14894,-39.78434,-16.16891,0.1937313,-0.1946578,0.8308666,-22.06598,-19.76719,-26.49984
16.699438572,-19.07801,-44.03674,-19.60524,0.1838512,-0.1948328,0.8208735,-22.06598,-19.76719,-26.49984
16.70935154,-24.34274,-51.14348,-24.51427,0.1798349,-0.2410294,0.8042775,-22.06598,-19.76719,-26.49984
16.719263554,-26.63445,-57.25993,-29.30058,0.2027284,-0.2883438,0.7879053,-22.81935,-19.39266,-26.4971
16.729176044,-23.66142,-61.2793199999999,-33.65734,0.2302362,-0.3511017,0.7742685,-22.81935,-19.39266,-26.4971
16.739088058,-18.76832,-64.5414400000001,-36.48003,0.285267,-0.3583301,0.7439416,-22.81935,-19.39266,-26.4971
16.749000072,-15.42366,-68.6773199999999,-38.25956,0.3407954,-0.3857874,0.7384436,-22.81935,-19.39266,-26.4971
16.758912086,-12.32676,-71.0656500000001,-38.07547,0.3925067,-0.3769073,0.7370642,-22.81935,-19.39266,-26.4971
16.768824577,-10.77831,-72.3471999999999,-37.33912,0.437906,-0.3622301,0.7468255,-23.92436,-20.51287,-25.58837
16.778736591,-10.09699,-72.8714600000002,-35.68232,0.4797431,-0.4061961,0.7696733,-23.92436,-20.51287,-25.58837
16.788648605,-8.11497100000001,-71.29866,-33.10508,0.5006325,-0.4296576,0.7765263,-23.92436,-20.51287,-25.58837
16.798561096,-5.699387,-68.0947999999997,-31.0801,0.5346397,-0.4432416,0.7866848,-23.92436,-20.51287,-25.58837
16.80847311,0.5563561,-63.3763900000001,-28.74831,0.5477219,-0.3831474,0.749992,-23.92436,-20.51287,-25.58837
16.818385124,5.263648,-60.4637899999999,-27.64378,0.520925,-0.2690571,0.7500395,-26.54927,-19.75867,-24.29216
16.828297615,7.49341799999997,-61.3958199999997,-27.2756,0.5777661,-0.2680352,0.8105007,-26.54927,-19.75867,-24.29216
16.838209629,14.43048,-56.38615,-28.80967,0.639121,-0.3532408,0.7810363,-26.54927,-19.75867,-24.29216
16.848121643,22.35855,-45.72604,-27.88923,0.553614,-0.1416239,0.7491457,-26.54927,-19.75867,-24.29216
16.858034134,9.47543500000001,-53.1823,-29.36194,0.5823539,-0.1244856,0.8061329,-26.54927,-19.75867,-24.29216
16.867946148,-4.956131,-62.0365999999998,-30.95737,0.6719272,-0.2120883,0.8076018,-27.6529,-20.87731,-22.99797
16.877858162,-0.744343000000003,-57.08518,-30.83465,0.7061589,-0.2840919,0.7712739,-27.6529,-20.87731,-22.99797
16.890248775,12.75815,-48.75515,-29.66875,0.6524406,-0.2447392,0.7288187,-27.6529,-20.87731,-22.99797
16.900160789,18.58033,-46.07556,-30.03693,0.6004481,-0.2098631,0.7540199,-27.6529,-20.87731,-22.99797
16.910072803,21.55335,-45.55129,-27.95059,0.5547848,-0.06031388,0.6248354,-27.6529,-20.87731,-22.99797
16.919985294,11.7052,-53.82307,-28.50286,0.5635957,-0.04434057,0.6920825,-29.88901,-21.24686,-21.70024
16.929897308,1.918993,-59.7647699999999,-30.71192,0.649452,-0.1623742,0.7245933,-29.88901,-21.24686,-21.70024
16.939809322,4.210701,-51.55124,-29.73012,0.5636242,-0.1943127,0.6622736,-29.88901,-21.24686,-21.70024
16.949721813,6.006905,-45.02702,-30.15965,0.4501641,-0.1150257,0.6105536,-29.88901,-21.24686,-21.70024
16.959633827,4.458453,-50.44445,-31.32555,0.4419551,-0.1284951,0.5572422,-29.88901,-21.24686,-21.70024
16.969545841,1.980931,-58.2502199999999,-29.79148,0.4814122,-0.1407506,0.6235376,-30.99264,-22.36551,-20.40605
16.979458332,-5.82326300000003,-65.41521,-28.31877,0.5081724,-0.0929263,0.6188071,-30.99264,-22.36551,-20.40605
16.989370346,-18.64444,-74.32776,-29.11649,0.5854246,-0.1934153,0.5958161,-30.99264,-22.36551,-20.40605
16.99928236,-20.06902,-76.0170700000002,-29.23921,0.6542417,-0.2801744,0.5293002,-30.99264,-22.36551,-20.40605
17.009194851,-6.50458200000001,-70.4831299999999,-27.09151,0.6511213,-0.3083527,0.5257802,-30.99264,-22.36551,-20.40605
17.019106865,11.95296,-66.0559799999998,-24.88245,0.6336566,-0.2763151,0.4815005,-32.8561,-22.73685,-19.55999
17.029018879,31.15375,-63.7841600000002,-24.75972,0.6297136,-0.2588193,0.4989391,-32.8561,-22.73685,-19.55999
17.03893137,42.17873,-62.9686300000002,-22.91883,0.5835363,-0.1785399,0.4768535,-32.8561,-22.73685,-19.55999
17.048843384,36.29461,-63.90066,-21.50749,0.5297053,-0.1185185,0.3999655,-32.8561,-22.73685,-19.55999
17.058755398,20.50041,-70.5996299999998,-18.25525,0.5017635,-0.07232358,0.3995714,-32.8561,-22.73685,-19.55999
17.068668365,6.62628499999997,-81.0267299999997,-19.05297,0.5877244,-0.1444579,0.4006966,-33.208,-23.85178,-17.37026
17.078579903,1.857055,-84.8131199999998,-16.96663,0.6731563,-0.2000339,0.4173021,-33.208,-23.85178,-17.37026
17.088491917,0.43248,-84.05584,-13.28485,0.7191233,-0.1989681,0.4188047,-33.208,-23.85178,-17.37026
17.098404884,3.157754,-80.9102299999999,-10.52352,0.6772165,-0.1991803,0.3850997,-33.208,-23.85178,-17.37026
17.108316898,11.08582,-79.86169,-8.13037100000001,0.6482559,-0.1581451,0.3270616,-33.208,-23.85178,-17.37026
17.118228436,17.83707,-81.4927500000001,-6.71902399999997,0.6099001,-0.06411025,0.3208404,-35.0604,-24.59066,-14.78844
17.128141403,18.51839,-84.1140900000002,-6.84175,0.5856095,0.0188231,0.2904072,-35.0604,-24.59066,-14.78844
17.138053417,14.86405,-92.1528599999999,-8.98945100000001,0.5564356,0.07341458,0.3227312,-35.0604,-24.59066,-14.78844
17.147965431,9.47543500000001,-103.279,-12.18032,0.5653418,0.0901648,0.3525302,-35.0604,-24.59066,-14.78844
17.160356045,8.60830200000001,-113.7061,-19.72796,0.5621645,0.1063472,0.3954015,-35.0604,-24.59066,-14.78844
17.170267582,7.24566599999997,-113.7061,-27.45969,0.5882549,0.2087144,0.5322071,-36.49072,-24.20572,-12.21235
17.180179596,2.042869,-107.5896,-37.21639,0.7147809,0.2358547,0.5998804,-36.49072,-24.20572,-12.21235
17.190092564,-7.74334299999998,-92.2111100000001,-41.81861,0.9368689,0.1687086,0.7683155,-36.49072,-24.20572,-12.21235
17.200004578,-13.37971,-67.8617899999998,-39.67091,1.129237,-0.001682763,0.8263814,-36.49072,-24.20572,-12.21235
17.209916115,-6.62845799999998,-55.27937,-35.19141,1.154546,-0.07558025,0.6331116,-36.49072,-24.20572,-12.21235
17.219829083,-5.513573,-61.7453400000002,-36.0505,1.127447,-0.001904394,0.4134604,-38.33365,-25.69406,-9.692459
17.229741097,-20.81227,-77.8228799999997,-39.42545,1.259629,0.05493741,0.304581,-38.33365,-25.69406,-9.692459
17.239653111,-52.21486,-84.3471000000001,-40.40726,1.583066,0.1073994,0.3874075,-38.33365,-25.69406,-9.692459
17.249565601,-85.0420299999998,-63.2016400000001,-35.43687,2.138102,0.00758923,0.6557798,-38.33365,-25.69406,-9.692459
17.259477615,-75.1319400000001,-13.0467,-25.37335,2.64871,-0.3661271,0.9438652,-38.33365,-25.69406,-9.692459
17.269389629,7.74116999999998,45.43827,-7.394016,2.741541,-0.7032453,1.066082,-39.05981,-26.80902,-7.500788
17.27930212,73.4574399999998,85.7486300000003,3.037678,1.976655,-0.4180533,1.054889,-39.05981,-26.80902,-7.500788
17.289214134,67.8830199999999,81.6127400000002,4.14221,1.272297,0.02586686,0.9332775,-39.05981,-26.80902,-7.500788
17.299126148,14.12079,42.75869,4.878565,0.8559454,0.1463468,0.6709627,-39.05981,-26.80902,-7.500788
17.309038639,-45.2778,-5.299184,8.13079899999997,0.7173504,0.1247306,0.4819577,-39.05981,-26.80902,-7.500788
17.318950653,-74.0789899999997,-33.20187,6.28991200000003,0.7825888,0.03248163,0.3938312,-38.68716,-26.81082,-7.952446
17.328862667,-68.3187599999999,-35.93972,2.117234,0.8973857,-0.05149324,0.379726,-38.68716,-26.81082,-7.952446
17.338775158,-51.22385,-25.68737,-0.03046724,0.9272646,-0.08962028,0.4353741,-38.68716,-26.81082,-7.952446
17.348687172,-43.60547,-16.36706,-1.012274,0.9213541,-0.1258049,0.4841639,-38.68716,-26.81082,-7.952446
17.358599186,-48.12695,-12.11466,-2.178169,0.9177579,-0.1551975,0.5281759,-38.68716,-26.81082,-7.952446
17.368511677,-55.55952,-11.00788,-5.675855,0.9027776,-0.1543193,0.5465663,-39.06277,-27.1925,-9.683951
17.378423691,-56.79828,-11.7069,-10.46216,0.8717397,-0.1470217,0.5324972,-39.06277,-27.1925,-9.683951
17.388335705,-52.95812,-12.98844,-14.08257,0.8671749,-0.1459471,0.470126,-39.06277,-27.1925,-9.683951
17.398248196,-44.90617,-15.43503,-16.10755,0.9177226,-0.1325462,0.4082876,-39.06277,-27.1925,-9.683951
17.40816021,-34.74833,-18.69714,-18.31661,1.03121,-0.09281226,0.411344,-38.32048,-26.81942,-10.07446
17.418072224,-26.07701,-19.16315,-20.46432,1.153155,-0.07972788,0.3973391,-38.32048,-26.81942,-10.07446
17.427984238,-16.16692,-13.45446,-20.21886,1.246444,-0.1132456,0.3477571,-38.32048,-26.81942,-10.07446
17.437896729,-1.611476,-1.687563,-15.24847,1.234152,-0.1395364,0.2627076,-38.32048,-26.81942,-10.07446
17.450286865,22.79212,14.09872,-6.71902399999997,1.092787,-0.09525023,0.1668379,-38.32048,-26.81942,-10.07446
17.460199356,48.99191,19.69091,-3.344064,0.9439865,0.01035484,0.1329057,-38.32234,-26.44142,-9.240438
17.47011137,69.5553399999998,25.57436,-5.73721700000003,0.842241,0.1431972,0.1894697,-38.32234,-26.44142,-9.240438
17.480023384,63.1137899999999,31.10829,-10.15535,0.7718676,0.2440378,0.2637764,-38.32234,-26.44142,-9.240438
17.489935875,34.8081,28.77821,-14.88029,0.7002752,0.2667005,0.3183672,-38.32234,-26.44142,-9.240438
17.499847889,3.095816,17.12782,-19.85069,0.6609233,0.2421948,0.3622622,-38.32234,-26.44142,-9.240438
17.509759903,-20.31677,-3.435122,-22.42793,0.6813586,0.2104525,0.3628221,-37.95454,-26.06863,-9.693252
17.519672394,-30.66042,-23.35729,-25.31199,0.747178,0.2223997,0.3579716,-37.95454,-26.06863,-9.693252
17.529584408,-32.45662,-33.20187,-28.19604,0.8539944,0.2343338,0.3455394,-37.95454,-26.06863,-9.693252
17.539496422,-35.1819,-34.94943,-29.30058,0.9626611,0.2394084,0.3147984,-37.95454,-26.06863,-9.693252
17.549408913,-39.95113,-32.73586,-29.30058,1.012135,0.1942193,0.2703454,-37.95454,-26.06863,-9.693252
17.559320927,-44.96811,-28.77472,-29.79148,1.032878,0.1284906,0.2610729,-37.56089,-27.56698,-9.690582
17.569232941,-47.8792,-25.57087,-29.54603,1.011882,0.06166157,0.2334528,-37.56089,-27.56698,-9.690582
17.579145908,-49.73734,-23.99806,-30.15965,0.9760296,0.02089286,0.2181477,-37.56089,-27.56698,-9.690582
17.589057445,-50.9761,-23.82331,-31.14146,0.9787722,0.002541863,0.2256826,-37.56089,-27.56698,-9.690582
17.598969459,-48.62246,-22.07575,-32.61417,0.9552792,-0.03556444,0.2266063,-37.56089,-27.56698,-9.690582
17.608882427,-42.30478,-21.60973,-33.84143,0.9247929,-0.03310607,0.2129801,-37.55119,-28.31617,-9.688274
17.618794441,-36.1729,-21.78449,-34.33233,0.9139016,-0.01770082,0.217985,-37.55119,-28.31617,-9.688274
17.628705978,-31.7753,-22.77477,-35.86641,0.884966,0.0004292706,0.2308575,-37.55119,-28.31617,-9.688274
17.638617992,-29.4836,-27.26017,-38.81182,0.8636384,0.02293558,0.2278436,-37.55119,-28.31617,-9.688274
17.64853096,-25.64344,-30.34753,-40.22317,0.8387576,0.04484325,0.2114141,-37.55119,-28.31617,-9.688274
17.658442974,-18.83025,-34.42516,-41.5118,0.8191319,0.07211985,0.1892099,-36.80405,-28.31768,-10.07763
17.668354511,-10.96412,-37.22126,-42.92314,0.823491,0.0916656,0.208026,-36.80405,-28.31768,-10.07763
17.678267479,-4.64644,-37.27951,-43.53677,0.8191454,0.1048099,0.2288005,-36.80405,-28.31768,-10.07763
17.688179493,-0.4965908,-36.69699,-43.78222,0.816563,0.08983407,0.2455302,-36.80405,-28.31768,-10.07763
17.698091507,-0.2488386,-34.1339,-45.19357,0.8154103,0.06095916,0.2900032,-36.80405,-28.31768,-10.07763
17.708003998,-1.859228,-32.32809,-43.96631,0.8115403,0.007769949,0.327137,-36.78976,-29.06164,-8.790434
17.717916012,-1.363724,-30.93005,-40.40726,0.7733979,-0.03685141,0.3223909,-36.78976,-29.06164,-8.790434
17.730306625,3.033878,-31.33781,-36.72549,0.7305241,-0.07974878,0.28745,-36.78976,-29.06164,-8.790434
17.740218639,5.94496599999999,-33.95915,-33.65734,0.7084763,-0.06468605,0.2531829,-36.78976,-29.06164,-8.790434
17.750130653,4.644268,-36.8135,-30.28238,0.7012934,-0.05372784,0.2331557,-36.78976,-29.06164,-8.790434
17.760043144,-1.177909,-39.8426,-26.96878,0.7143155,-0.01097756,0.217955,-36.02291,-30.1177,-7.506165
17.769955158,-10.15893,-42.05617,-23.962,0.7286849,0.01197714,0.2155742,-36.02291,-30.1177,-7.506165
17.779867172,-17.77731,-42.58044,-20.77113,0.7541379,0.01621202,0.2230496,-36.02291,-30.1177,-7.506165
17.789779663,-20.50258,-41.12414,-15.92346,0.7781131,0.01847168,0.2271644,-36.02291,-30.1177,-7.506165
17.799691677,-22.17491,-40.48337,-12.24169,0.8009298,0.03379587,0.228976,-36.02291,-30.1177,-7.506165
17.809603691,-25.64344,-42.34743,-8.06900800000002,0.8246957,0.05936125,0.2399702,-35.30308,-32.35999,-6.217917
17.819516182,-31.34174,-46.30856,-5.062225,0.8599749,0.09520208,0.2413232,-35.30308,-32.35999,-6.217917
17.829428196,-37.04004,-51.726,-3.89633,0.9084997,0.1273285,0.2425289,-35.30308,-32.35999,-6.217917
17.83934021,-41.12795,-57.6094399999999,-3.098613,0.9811466,0.1564252,0.2559755,-35.30308,-32.35999,-6.217917
17.849252701,-44.41067,-62.56086,-2.116806,1.068656,0.1960503,0.300565,-35.30308,-32.35999,-6.217917
17.859164715,-52.15292,-65.5899700000003,-0.705459200000001,1.13846,0.2219912,0.3668343,-35.29848,-32.35477,-4.933025
17.869076729,-64.5405300000002,-64.7161900000001,2.23996,1.179729,0.2213925,0.4327105,-35.29848,-32.35477,-4.933025
17.87898922,-79.8392299999999,-60.7550499999999,5.492195,1.163381,0.1849912,0.4647898,-35.29848,-32.35477,-4.933025
17.888901234,-94.5804899999999,-57.3181799999998,8.25352600000003,1.134142,0.1293136,0.4570067,-35.29848,-32.35477,-4.933025
17.898813248,-103.9951,-54.81335,11.4444,1.105156,0.07937299,0.4329342,-35.29848,-32.35477,-4.933025
17.908725739,-104.1809,-51.66774,14.88072,1.059042,0.05140152,0.3856386,-35.30035,-31.97677,-4.098999
17.918637753,-102.5086,-52.30852,16.2307,0.9846552,0.01018885,0.2837783,-35.30035,-31.97677,-4.098999
17.928549767,-97.6774,-57.7842000000002,16.47615,0.9134358,-0.02355743,0.1180774,-35.30035,-31.97677,-4.098999
17.938462257,-90.30677,-70.8908899999998,12.91711,0.8662102,0.003724094,-0.2111728,-35.30035,-31.97677,-4.098999
17.948374271,-94.4566200000002,-100.8907,-1.257725,1.163038,0.157682,-0.2200946,-35.30035,-31.97677,-4.098999
17.958286285,-106.5965,-127.1623,-6.289484,1.801178,0.1176873,0.1636257,-35.98302,-32.35299,-4.479744
17.968198776,-90.49258,-103.1625,11.50576,2.229287,-0.2555473,0.2752989,-35.98302,-32.35299,-4.479744
17.97811079,-20.62646,-74.2695099999998,20.28065,2.230943,-0.7351476,0.161172,-35.98302,-32.35299,-4.479744
17.988022804,97.42747,-27.60969,16.84433,2.019336,-0.7367465,0.3619038,-35.98302,-32.35299,-4.479744
17.997935772,162.7102,25.80736,5.062654,1.605732,-0.07194501,0.6232013,-35.98302,-32.35299,-4.479744
18.007847309,128.4584,43.57421,0.1536215,1.036767,0.3182754,0.3857019,-36.73824,-31.60046,-3.64298
18.020237446,52.39851,3.846374,3.835396,0.4611726,0.4426774,-0.04653056,-36.73824,-31.60046,-3.64298
18.030149937,-10.90218,-42.69694,7.82398500000003,0.1820415,0.2136186,-0.1640742,-36.73824,-31.60046,-3.64298
18.040061951,-84.1748999999997,-78.98792,10.46259,0.02630344,0.4231965,-0.514154,-36.73824,-31.60046,-3.64298
18.049973965,-170.7643,-114.3469,21.07837,-0.005348362,0.04655563,-0.6085608,-36.73824,-31.60046,-3.64298
18.059886456,-220.3767,-142.4825,20.40338,0.2962882,-0.1791929,-0.736255,-37.11301,-30.84084,-1.073556
18.06979847,-177.02,-144.1719,6.65808999999999,0.7325176,-0.2478467,-0.9064013,-37.11301,-30.84084,-1.073556
18.079710484,-39.20787,-115.3954,0.6445247,1.150672,-0.2381642,-0.7925652,-37.11301,-30.84084,-1.073556
18.089623451,93.5253700000001,-91.9781000000002,-1.871354,1.176183,-0.1226705,-0.5538732,-37.11301,-30.84084,-1.073556
18.099534988,108.9479,-67.2792700000003,5.062654,1.401319,-0.05921043,0.01681602,-37.11301,-30.84084,-1.073556
18.109447002,54.44246,-39.02707,11.13758,1.428321,-0.1102404,0.3965116,-37.48752,-30.46105,0.2121296
18.11935997,7.30760400000002,-16.01755,11.99666,1.417923,-0.2199089,0.6844523,-37.48752,-30.46105,0.2121296
18.129271984,-30.90817,-20.6777,4.939929,1.120813,-0.3137745,0.6884953,-37.48752,-30.46105,0.2121296
18.139183521,-45.95912,-33.72614,3.405856,1.025545,-0.2320263,0.5065005,-37.48752,-30.46105,0.2121296
18.149096489,-46.5785,-43.92023,0.2763473,0.9059811,-0.2107631,0.125542,-37.48752,-30.46105,0.2121296
18.159008503,-35.73934,-50.85222,-0.4600076,0.814163,-0.1275127,-0.242776,-37.84774,-30.82521,2.785014
18.168920517,-35.42965,-58.54148,-1.932717,0.7592009,-0.09415543,-0.2228392,-37.84774,-30.82521,2.785014
18.178833008,-44.28679,-76.4248399999998,-4.387233,0.6766613,-0.1244446,-0.629932,-37.84774,-30.82521,2.785014
18.188745022,-62.6823900000001,-92.0363600000001,-3.46679,0.74206,-0.120273,-0.6372312,-37.84774,-30.82521,2.785014
18.198657036,-68.5045699999999,-98.9683399999997,-3.098613,0.9182632,-0.149675,-0.5598306,-37.84774,-30.82521,2.785014
18.208569527,-38.65043,-78.2888899999998,0.3377102,1.097307,-0.1581129,-0.4669514,-37.848,-30.44539,4.068753
18.218481541,-6.194891,-56.4444,0.705887599999999,1.0959,-0.03127972,-0.4079943,-37.848,-30.44539,4.068753
18.228393555,-4.398688,-44.67751,-2.423621,1.059567,-0.05325637,-0.2575152,-37.848,-30.44539,4.068753
18.238306046,-0.5585288,-35.82321,-1.687266,0.9707983,0.01744323,-0.2480605,-37.848,-30.44539,4.068753
18.24821806,-5.018068,-35.18244,-2.669072,0.9230444,0.02863601,-0.2187348,-37.848,-30.44539,4.068753
18.258130074,-10.59249,-38.21154,-2.791798,0.9226945,0.01699491,-0.2188091,-37.84664,-30.06374,5.802204
18.268042564,-12.51257,-40.71638,-2.975887,0.941071,-0.006532707,-0.2186557,-37.84664,-30.06374,5.802204
18.277954578,-12.32676,-42.05617,-3.773605,0.9487548,-0.02138102,-0.2020201,-37.84664,-30.06374,5.802204
18.290344715,-10.65443,-42.52219,-5.92130599999998,0.9515206,-0.05240288,-0.2070539,-37.84664,-30.06374,5.802204
18.300257206,-8.548538,-42.63869,-7.70083,0.9590469,-0.07757707,-0.2178547,-37.84204,-30.05851,7.087095
18.31016922,-5.327759,-42.40568,-9.17354000000002,0.9633653,-0.0892721,-0.2395797,-37.84204,-30.05851,7.087095
18.320081234,-1.363724,-41.88142,-9.48035400000003,0.9693457,-0.08792478,-0.2746776,-37.84204,-30.05851,7.087095
18.329993725,1.485427,-41.12414,-9.23490300000001,0.9545236,-0.05429023,-0.2978442,-37.84204,-30.05851,7.087095
18.339905739,2.35256,-40.13386,-8.37582199999997,0.9558228,-0.04313961,-0.3011431,-37.84204,-30.05851,7.087095
18.349817753,0.742170199999999,-39.72609,-6.41221000000002,0.9527643,-0.02568019,-0.2928357,-38.20525,-30.42607,8.824802
18.359730244,-2.850237,-39.43483,-4.264508,0.9370828,-0.007845448,-0.2752862,-38.20525,-30.42607,8.824802
18.369642258,-7.37171500000001,-39.9591,-2.730435,0.9410915,0.01371747,-0.2406082,-38.20525,-30.42607,8.824802
18.379554272,-11.14994,-41.2989,-1.687266,0.9558963,0.01836215,-0.221988,-38.20525,-30.42607,8.824802
18.389466763,-14.43265,-42.52219,-0.950910899999997,0.9669614,0.03377911,-0.1739718,-38.20525,-30.42607,8.824802
18.399378777,-18.14894,-41.06589,-1.625903,0.9752378,0.02386888,-0.1414636,-37.81994,-30.79358,10.55861
18.409290791,-23.10398,-40.59987,-2.055443,0.9772118,0.02975654,-0.1327998,-37.81994,-30.79358,10.55861
18.419203282,-27.87321,-38.96882,-3.098613,0.9688593,0.03109494,-0.1351145,-37.81994,-30.79358,10.55861
18.429115296,-31.83724,-38.32804,-3.712242,0.9749092,0.01126328,-0.1405843,-37.81994,-30.79358,10.55861
18.43902731,-38.15493,-42.05617,-5.491766,0.9009762,0.1485486,-0.3228865,-37.81994,-30.79358,10.55861
18.4489398,-40.8802,-38.79406,-4.264508,1.006533,-0.05621751,-0.1398858,-38.57356,-30.03922,11.84509
18.458851814,-33.19988,-34.89118,-4.264508,0.9741648,-0.02912415,-0.2604059,-38.57356,-30.03922,11.84509
18.468764782,-31.40368,-34.25041,-6.22812100000001,0.9701113,-0.0102225,-0.2520798,-38.57356,-30.03922,11.84509
18.478676319,-48.62246,-49.97844,-18.0098,0.9133225,-0.03852542,-0.2440605,-38.57356,-30.03922,11.84509
18.488588333,-47.44563,-40.0756,-14.57348,1.000193,-0.152138,-0.2028868,-38.57356,-30.03922,11.84509
18.498501301,-31.83724,-27.84269,-9.60308100000002,0.9779559,-0.04524434,-0.3863498,-37.81374,-30.78652,12.29322
18.508413315,-28.49259,-31.57082,-11.25988,0.9582837,-0.02945086,-0.3788602,-37.81374,-30.78652,12.29322
18.518324852,-33.63345,-41.76491,-17.27345,0.9078494,0.04181932,-0.4451412,-37.81374,-30.78652,12.29322
18.52823782,-28.74034,-35.12419,-15.80074,1.016645,-0.03155799,-0.3645291,-37.81374,-30.78652,12.29322
18.538149834,-20.56452,-32.50285,-15.06438,1.030134,-0.008813192,-0.4053158,-37.81374,-30.78652,12.29322
18.548061848,-13.31777,-32.03683,-16.8439,1.06231,-0.001869023,-0.3589917,-37.79136,-32.28151,13.13301
18.557974338,-8.73435200000001,-27.84269,-19.48251,1.087012,0.01759377,-0.3115548,-37.79136,-32.28151,13.13301
18.567886352,-8.79629,-20.5612,-21.63021,1.136676,-0.04675113,-0.2168913,-37.79136,-32.28151,13.13301
18.580276012,-5.018068,-11.24088,-22.18248,1.11925,-0.04029887,-0.2397348,-37.79136,-32.28151,13.13301
18.59018898,-2.230856,-6.93023899999998,-20.64841,1.113789,-0.03967293,-0.1993468,-37.79136,-32.28151,13.13301
18.600100994,-0.6204669,-3.784633,-21.01658,1.086344,-0.01029285,-0.1710481,-37.7803,-32.64904,14.86877
18.610012531,0.1227897,-2.328334,-20.58704,1.06901,0.01011482,-0.1208154,-37.7803,-32.64904,14.86877
18.619925499,-0.4346527,-4.192397,-19.78932,1.044916,0.01487059,-0.08070774,-37.7803,-32.64904,14.86877
18.629837513,-7.12396199999998,-9.60983000000002,-21.69157,1.126095,-0.01702965,-0.06966706,-37.7803,-32.64904,14.86877
18.639749527,-10.2828,-20.44469,-25.06653,1.385275,-0.04303634,-0.09816583,-37.7803,-32.64904,14.86877
18.649662018,-2.540546,-18.9884,-18.62343,1.591312,-0.1518043,0.02980713,-37.38665,-34.14739,14.87144
18.659574032,-2.045042,10.19584,-12.36441,1.61971,-0.2079965,0.1583327,-37.38665,-34.14739,14.87144
18.669486046,-16.97211,44.21498,-10.8917,1.543655,-0.1905387,0.2484618,-37.38665,-34.14739,14.87144
18.679398537,-31.40368,69.2633299999998,-11.99623,1.448347,-0.229992,0.3494335,-37.38665,-34.14739,14.87144
18.689310551,-25.76732,96.64175,-10.15535,1.425543,-0.1436062,0.420323,-37.38665,-34.14739,14.87144
18.699222565,-35.30577,126.059,-17.76435,1.410309,0.03858583,0.4356022,-37.76251,-34.14925,14.42368
18.709135055,-26.32476,138.2919,-21.63021,1.166801,0.1620705,0.05647093,-37.76251,-34.14925,14.42368
18.719047069,-5.327759,118.8357,-19.6666,0.9785768,0.148232,-0.2899952,-37.76251,-34.14925,14.42368
18.728959083,10.90001,103.1077,-19.78932,1.039054,0.06991319,-0.111017,-37.76251,-34.14925,14.42368
18.738871574,12.38652,108.4669,-14.94165,1.165324,-0.1598783,-0.03544981,-37.76251,-34.14925,14.42368
18.748783588,-0.806281,120.4668,-2.300895,1.190666,-0.2971558,-0.1091026,-39.64734,-34.54491,9.294992
18.758695602,-20.81227,125.2435,10.40123,1.153268,-0.3889641,-0.2394913,-39.64734,-34.54491,9.294992
18.768608093,-30.28879,121.5736,20.34202,1.108487,-0.3830979,-0.4032521,-39.64734,-34.54491,9.294992
18.778520107,-22.17491,113.8261,25.61923,1.134321,-0.2777156,-0.5261897,-39.64734,-34.54491,9.294992
18.788432121,-2.41667,108.1174,24.88287,1.160002,-0.1658231,-0.6087492,-39.64734,-34.54491,9.294992
18.798344612,19.57134,106.3116,23.16471,1.178076,-0.06391131,-0.6341659,-42.65355,-34.93909,4.557613
18.808256626,36.41849,106.9523,23.90107,1.220992,-0.02001633,-0.5939371,-42.65355,-34.93909,4.557613
18.81816864,46.76214,113.3601,24.26924,1.218096,-0.014659,-0.4887199,-42.65355,-34.93909,4.557613
18.828081131,56.11479,122.1561,23.77834,1.215028,-0.1313331,-0.4476951,-42.65355,-34.93909,4.557613
18.837993145,69.7411600000001,126.991,26.96921,1.171345,-0.2119556,-0.4627131,-42.65355,-34.93909,4.557613
18.847905159,84.97792,125.2435,31.26461,1.118038,-0.2874932,-0.4089456,-45.31599,-33.08725,-0.5741024
18.860295773,96.6222699999999,131.5347,36.78728,1.108734,-0.2702953,-0.3424831,-45.31599,-33.08725,-0.5741024
18.870207787,99.7191800000001,132.525,39.0577,1.08716,-0.2308442,-0.3497034,-45.31599,-33.08725,-0.5741024
18.880120277,98.60429,129.9619,38.50544,1.072626,-0.1809618,-0.3257089,-45.31599,-33.08725,-0.5741024
18.890032291,97.6752200000002,130.3114,36.84864,1.076376,-0.1310015,-0.3306924,-45.31599,-33.08725,-0.5741024
18.899944305,101.5154,126.991,38.38271,1.088905,-0.1577671,-0.3799628,-47.59334,-31.60316,-4.036251
18.909856796,106.904,122.2726,41.81903,1.059278,-0.1309678,-0.3766293,-47.59334,-31.60316,-4.036251
18.91976881,110.3725,116.9717,43.47583,1.0422,-0.1226314,-0.4109872,-47.59334,-31.60316,-4.036251
18.929680824,108.1427,110.3892,46.66671,1.015239,-0.1069061,-0.3991093,-47.59334,-31.60316,-4.036251
18.939593792,103.6213,102.8747,49.12122,0.9716231,-0.09433165,-0.3938206,-47.59334,-31.60316,-4.036251
18.949505329,100.0908,93.4961399999999,50.04166,0.9442819,-0.1005071,-0.3969699,-49.8888,-29.06269,-8.722316
18.959417343,98.3565399999998,85.0496099999997,50.83938,0.9049996,-0.09474152,-0.4061715,-49.8888,-29.06269,-8.722316
18.969330311,99.90499,77.0108299999997,49.91894,0.873845,-0.08799233,-0.432247,-49.8888,-29.06269,-8.722316
18.979242325,103.9929,69.2050699999999,48.26214,0.8457478,-0.07138602,-0.4347575,-49.8888,-29.06269,-8.722316
18.989153862,109.3815,61.7488200000003,46.66671,0.8271465,-0.04553635,-0.4540997,-49.8888,-29.06269,-8.722316
18.99906683,113.7791,55.1081,45.43945,0.813928,-0.01181223,-0.4638362,-51.06093,-26.07804,-11.68096
19.008978844,116.2566,49.22466,44.82582,0.7916214,0.0194617,-0.4566993,-51.06093,-26.07804,-11.68096
19.018890858,115.9469,43.16645,45.194,0.7685423,0.06911857,-0.4556749,-51.06093,-26.07804,-11.68096
19.028803349,112.85,37.34126,44.88718,0.7423773,0.1245132,-0.4627464,-51.06093,-26.07804,-11.68096
19.038715363,106.904,31.51606,45.07127,0.7036003,0.1454153,-0.4526454,-51.06093,-26.07804,-11.68096
19.048627377,100.2147,22.42875,43.35311,0.6910641,0.1885145,-0.4325558,-52.58196,-24.58501,-12.96268
19.058539867,93.0298599999999,12.11815,42.73948,0.6938195,0.2294341,-0.4020588,-52.58196,-24.58501,-12.96268
19.068451881,85.9689300000001,4.428894,40.89859,0.7156669,0.2696286,-0.3703026,-52.58196,-24.58501,-12.96268
19.078363895,79.6512499999998,1.225035,38.93498,0.7362345,0.2886869,-0.2973818,-52.58196,-24.58501,-12.96268
19.088276386,79.8370599999998,1.807555,36.78728,0.7232041,0.3039812,-0.2150523,-52.58196,-24.58501,-12.96268
19.0981884,89.6232700000001,1.865807,34.02594,0.7131076,0.2980972,-0.1098435,-52.97077,-23.46125,-12.9642
19.108100414,99.9669300000003,1.574547,30.77371,0.7181363,0.253122,-0.005995278,-52.97077,-23.46125,-12.9642
19.118012905,98.4184699999998,0.5260119,23.3488,0.7390099,0.1786899,0.08262524,-52.97077,-23.46125,-12.9642
19.127924919,97.8610300000002,-0.580775400000001,14.63527,0.7708072,0.1020311,0.089503,-52.97077,-23.46125,-12.9642
19.140315533,124.2466,-3.842885,8.86715399999999,0.7860869,0.1951981,0.06741492,-54.4826,-21.95776,-11.67614
19.150227547,130.9979,-15.08551,3.589944,0.8577643,0.2177237,0.312263,-54.4826,-21.95776,-11.67614
19.160139561,109.3815,-18.34762,2.362686,0.9134303,0.3057084,0.5029571,-54.4826,-21.95776,-11.67614
19.170051575,67.6972000000003,-19.39616,4.449025,1.004789,0.3068134,0.4963577,-54.4826,-21.95776,-11.67614
19.179964066,37.96694,-21.49323,10.40123,1.041495,0.2012058,0.5188424,-54.4826,-21.95776,-11.67614
19.18987608,39.45345,-21.66799,16.78297,1.044987,0.1149432,0.4246046,-55.21891,-22.32405,-9.615263
19.19978857,51.34556,-23.64855,22.55108,1.072331,0.05600251,0.399471,-55.21891,-22.32405,-9.615263
19.209700584,60.6981999999999,-21.20197,31.26461,1.080325,0.01643739,0.4173795,-55.21891,-22.32405,-9.615263
19.219612598,40.38252,-16.94958,37.89181,1.069476,-0.01789158,0.368275,-55.21891,-22.32405,-9.615263
19.229525089,-5.699387,-12.28942,37.33954,1.038848,-0.07598587,0.3652903,-55.21891,-22.32405,-9.615263
19.239437103,-44.96811,-12.05641,33.16687,1.008814,-0.1135319,0.3965282,-56.34679,-21.56972,-8.326839
19.249349117,-49.11796,-10.2506,27.46012,1.025862,-0.2223625,0.4057288,-56.34679,-21.56972,-8.326839
19.259261608,-19.01607,-2.037075,19.48294,0.9934577,-0.2167428,0.351808,-56.34679,-21.56972,-8.326839
19.269173622,10.7142,0.0599961999999999,14.26709,0.8752517,-0.1257438,0.2325076,-56.34679,-21.56972,-8.326839
19.279085636,19.94297,-11.12438,10.40123,0.7292098,-0.06653471,0.1271774,-56.34679,-21.56972,-8.326839
19.288998604,25.57933,-27.37668,9.41941999999998,0.5856472,-0.01630589,-0.03297362,-57.12093,-19.69837,-8.714184
19.298910141,27.56135,-48.23088,7.026268,0.4734748,-0.007825617,-0.1850502,-57.12093,-19.69837,-8.714184
19.308822155,28.3046,-67.92004,5.001291,0.4115337,-0.02462802,-0.2844622,-57.12093,-19.69837,-8.714184
19.318735123,31.64926,-87.3179499999999,2.730864,0.384173,0.03745261,-0.4955454,-57.12093,-19.69837,-8.714184
19.32864666,27.31359,-127.0458,-13.65303,0.4867177,0.2605477,-1.010697,-57.12093,-19.69837,-8.714184
19.338558674,-6.50458200000001,-195.0258,-40.71408,1.281274,0.3973331,-0.7592894,-57.5054,-18.18957,-6.147068
19.348471642,-38.09299,-212.9674,-41.63452,2.401944,0.2311656,-0.3419793,-57.5054,-18.18957,-6.147068
19.358383656,35.24166,-130.8904,-24.33018,2.925482,-0.6390508,0.005579535,-57.5054,-18.18957,-6.147068
19.368295193,166.5503,-19.1049,-3.344064,2.714571,-0.7565627,0.8532662,-57.5054,-18.18957,-6.147068
19.37820816,205.7571,89.5932599999997,-19.54387,2.009361,-0.06719644,1.31717,-57.5054,-18.18957,-6.147068
19.388120174,153.915,101.7097,-40.89816,1.303399,0.3844216,1.00068,-57.84862,-18.53439,1.17992
19.398032189,114.894,23.65204,-28.74831,0.8719527,0.5944382,0.1821177,-57.84862,-18.53439,1.17992
19.407944679,63.1137899999999,-52.83278,-18.56207,0.5899978,0.4348635,-0.3675594,-57.84862,-18.53439,1.17992
19.420334339,-11.89319,-100.3081,-6.22812100000001,0.4081784,0.2440742,-0.7258271,-57.84862,-18.53439,1.17992
19.430246353,-96.5005699999998,-116.8517,8.06943700000002,0.0933449,0.1855177,-0.8827181,-57.84862,-18.53439,1.17992
19.440159321,-147.5995,-114.2304,9.41941999999998,0.04707805,-0.02569999,-1.111773,-57.83432,-19.27835,2.46712
19.450071335,-99.7832899999999,-120.1721,-4.9395,0.5219908,-0.1384533,-1.090027,-57.83432,-19.27835,2.46712
19.459983826,2.786126,-109.3372,-10.52352,1.006506,-0.2106616,-0.7521559,-57.83432,-19.27835,2.46712
19.46989584,80.4564400000002,-87.9587200000002,-10.27807,1.224289,-0.1561104,-0.4796363,-57.83432,-19.27835,2.46712
19.479807854,55.49541,-56.50266,-8.06900800000002,1.386279,-0.2344434,0.01386708,-57.83432,-19.27835,2.46712
19.489720345,16.908,-17.35734,-5.36904,1.308571,-0.2356374,0.06403408,-58.55775,-20.01008,6.77771
19.499632359,-4.956131,-2.677846,-7.82355600000003,1.142415,-0.2296278,0.03296001,-58.55775,-20.01008,6.77771
19.509544373,-10.40668,-7.62926299999999,-9.60308100000002,1.059852,-0.2484343,-0.02930245,-58.55775,-20.01008,6.77771
19.519456864,-18.89219,-20.5612,-10.52352,1.012118,-0.1852937,-0.08029744,-58.55775,-20.01008,6.77771
19.529368878,-23.66142,-30.58053,-10.83034,0.9641818,-0.1544526,-0.1886446,-58.55775,-20.01008,6.77771
19.539280892,-27.3777,-40.71638,-10.83034,0.9288138,-0.1752265,-0.2763248,-57.43709,-19.25217,8.889637
19.549193382,-19.69739,-44.328,-10.15535,0.9487296,-0.1989464,-0.3170003,-57.43709,-19.25217,8.889637
19.559105396,-6.07101500000003,-43.68723,-12.42577,0.9902326,-0.2203989,-0.2527057,-57.43709,-19.25217,8.889637
19.56901741,16.35056,-37.45427,-15.18711,1.000178,-0.1789748,-0.2357162,-57.43709,-19.25217,8.889637
19.578929901,33.81709,-29.88151,-17.70299,1.007958,-0.1428017,-0.1976147,-57.43709,-19.25217,8.889637
19.588841915,41.49741,-25.1631,-18.93024,1.003845,-0.0912482,-0.1568999,-57.04854,-19.99611,10.17489
19.598753929,43.04586,-21.43498,-19.60524,0.9974815,-0.02865285,-0.1319359,-57.04854,-19.99611,10.17489
19.60866642,38.83407,-18.52238,-20.34159,0.9916439,0.0217727,-0.1176214,-57.04854,-19.99611,10.17489
19.618578434,30.53437,-16.71657,-19.6666,0.977738,0.03612352,-0.1217186,-57.04854,-19.99611,10.17489
19.628490448,20.50041,-16.65832,-18.0098,0.9604912,0.0275472,-0.1446639,-57.04854,-19.99611,10.17489
19.638402939,12.32458,-18.17287,-16.16891,0.9485368,0.0253349,-0.168576,-56.28412,-20.73818,11.90791
19.648314953,6.37853299999997,-20.26994,-14.88029,0.9418536,0.03045109,-0.1944086,-56.28412,-20.73818,11.90791
19.658226967,2.97194,-22.07575,-14.14394,0.9421422,0.02206026,-0.2237568,-56.28412,-20.73818,11.90791
19.668139934,1.299613,-23.12428,-13.46894,0.9565317,0.02600104,-0.2464311,-56.28412,-20.73818,11.90791
19.678051472,1.175737,-23.4738,-13.89848,0.9726282,0.02179243,-0.2552508,-56.28412,-20.73818,11.90791
19.687963486,2.538374,-22.77477,-14.75756,0.992635,0.03129069,-0.2481702,-55.89881,-21.10569,13.64172
19.697876453,-4.708378,-27.9592,-18.93024,1.00755,-0.04837988,-0.1268788,-55.89881,-21.10569,13.64172
19.710266113,2.600312,-19.27966,-15.18711,1.002145,0.03347264,-0.2242357,-55.89881,-21.10569,13.64172
19.720179081,0.494418,-17.18258,-16.04619,0.9891594,0.02902962,-0.2083,-55.89881,-21.10569,13.64172
19.730090618,-4.584502,-15.66803,-15.12574,0.9873154,0.01638033,-0.2122085,-55.89881,-21.10569,13.64172
19.740002632,-9.911175,-14.91076,-12.79395,0.982339,0.018713,-0.2179088,-55.50862,-22.22787,14.02871
19.7499156,-15.23785,-14.15348,-10.70761,0.9767714,0.02342533,-0.2307902,-55.50862,-22.22787,14.02871
19.759827614,-19.75933,-13.86222,-8.55991099999998,0.9838934,0.02633346,-0.2481224,-55.50862,-22.22787,14.02871
19.769739151,-23.59948,-13.1632,-6.47357199999998,0.970439,0.03432944,-0.2633097,-55.50862,-22.22787,14.02871
19.779652119,-26.94414,-12.93019,-4.755411,0.9509712,0.05827366,-0.2740138,-55.50862,-22.22787,14.02871
19.789564133,-29.54554,-12.81369,-4.816774,0.9463127,0.06832831,-0.2873482,-55.1263,-22.59878,14.92734
19.799476147,-31.34174,-14.15348,-4.694048,0.9368138,0.07346922,-0.3016309,-55.1263,-22.59878,14.92734
19.809388637,-31.83724,-15.72629,-4.509959,0.9318641,0.07727919,-0.3030002,-55.1263,-22.59878,14.92734
19.819300652,-30.53655,-16.13405,-5.307677,0.9407488,0.08182298,-0.2896076,-55.1263,-22.59878,14.92734
19.829212666,-29.17391,-14.736,-6.53493500000002,0.9525828,0.1015337,-0.256935,-55.1263,-22.59878,14.92734
19.839125156,-29.05003,-11.8234,-8.25309699999997,0.9720718,0.1034542,-0.2138882,-55.13115,-22.22418,14.92618
19.84903717,-32.20887,-9.84283699999999,-10.27807,0.9858342,0.09317948,-0.1713499,-55.13115,-22.22418,14.92618
19.858949184,-54.01107,-24.98835,-20.40295,0.913781,0.08170447,-0.1539544,-55.13115,-22.22418,14.92618
19.868861675,-53.02006,-11.35739,-8.43718500000001,1.045531,0.06200202,-0.1562644,-55.13115,-22.22418,14.92618
19.878773689,-34.62445,-2.153579,-11.93487,0.9955533,0.04278723,-0.188581,-55.13115,-22.22418,14.92618
19.888685703,-33.75732,-4.774917,-14.45075,0.934309,0.02074215,-0.1785583,-54.73749,-23.72254,14.92885
19.898598194,-39.02206,-8.15353100000001,-14.75756,0.9365219,0.02943254,-0.191005,-54.73749,-23.72254,14.92885
19.908510208,-43.10997,-9.14381400000001,-16.59845,0.9446056,0.02502741,-0.2184781,-54.73749,-23.72254,14.92885
19.918422222,-46.33075,-9.26031799999999,-17.94844,0.9626202,0.01448219,-0.2384014,-54.73749,-23.72254,14.92885
19.928334713,-46.083,-8.73605099999999,-18.86888,0.9662907,-0.008760645,-0.2414712,-54.73749,-23.72254,14.92885
19.938246727,-44.7823,-8.91080699999998,-19.60524,0.9519036,-0.03270023,-0.2419778,-53.99059,-23.72431,14.47525
19.948159218,-44.34873,-9.66808199999998,-19.72796,0.9423125,-0.05955407,-0.2550322,-53.99059,-23.72431,14.47525
19.958071232,-44.96811,-10.77487,-19.85069,0.9396951,-0.09015794,-0.2600135,-53.99059,-23.72431,14.47525
19.967983246,-45.7733,-10.36711,-19.97341,0.9642553,-0.09759826,-0.2578894,-53.99059,-23.72431,14.47525
19.977895737,-45.71137,-6.988491,-20.1575,0.9946544,-0.1005898,-0.2533889,-53.99059,-23.72431,14.47525
19.990285873,-42.36671,0.0599961999999999,-20.52568,1.016199,-0.09493896,-0.2439474,-53.59183,-25.97708,13.19533
20.000197887,-36.79229,6.64246800000002,-21.56885,1.034977,-0.08679865,-0.2152573,-53.59183,-25.97708,13.19533
20.010110378,-32.14693,14.04047,-22.36657,1.040505,-0.07006799,-0.1811057,-53.59183,-25.97708,13.19533
20.020022392,-29.35972,21.61322,-23.40973,1.034981,-0.02777181,-0.1457213,-53.59183,-25.97708,13.19533
20.029934406,-29.91717,27.20541,-24.20745,1.009353,0.02107269,-0.1081867,-53.56434,-28.22648,12.75254
20.039846897,-35.92516,29.885,-24.51427,0.9765472,0.077464,-0.0940632,-53.56434,-28.22648,12.75254
20.049758911,-46.02106,29.65199,-25.31199,0.9579152,0.1228098,-0.09358879,-53.56434,-28.22648,12.75254
20.059670925,-56.86021,27.43842,-25.92562,0.953625,0.137198,-0.1136199,-53.56434,-28.22648,12.75254
20.069583416,-66.70837,23.53554,-25.18926,0.9832,0.1432943,-0.1311385,-53.56434,-28.22648,12.75254
20.07949543,-74.45062,18.75887,-23.22565,1.03692,0.1490513,-0.1786525,-52.4443,-28.60961,10.62779
20.089407444,-79.6534199999999,13.16669,-20.28023,1.131141,0.1806389,-0.2042816,-52.4443,-28.60961,10.62779
20.099320412,-82.0690099999999,10.13759,-17.02799,1.231511,0.2282959,-0.2313011,-52.4443,-28.60961,10.62779
20.109231949,-85.6614199999999,12.23466,-13.77576,1.388682,0.3052382,-0.2639325,-52.4443,-28.60961,10.62779
20.119144917,-86.9621100000002,17.76859,-11.68942,1.5305,0.3655515,-0.2874097,-52.4443,-28.60961,10.62779
20.129056931,-86.2188600000001,29.41899,-12.30305,1.658449,0.3997562,-0.2633969,-52.43327,-30.43427,7.164154
20.138968945,-87.95313,41.59365,-15.67801,1.743181,0.3616343,-0.1515973,-52.43327,-30.43427,7.164154
20.148881435,-72.90218,74.4477500000001,-3.89633,1.653682,0.4273244,-0.1714589,-52.43327,-30.43427,7.164154
20.158793449,-53.39169,101.1272,-1.625903,1.413793,0.4053925,-0.1775492,-52.43327,-30.43427,7.164154
20.168705463,-39.82725,118.0785,1.933146,1.182593,0.4266793,-0.1915946,-52.43327,-30.43427,7.164154
20.178617954,-30.16492,126.059,5.614921,1.005692,0.4059799,-0.2049813,-52.06769,-31.20435,2.024946
20.188529968,-31.2798,121.2823,7.946711,0.8601761,0.339387,-0.1680674,-52.06769,-31.20435,2.024946
20.198441982,-43.35772,111.6708,13.03983,0.7353017,0.2874919,-0.151413,-52.06769,-31.20435,2.024946
20.208354473,-62.0010800000002,93.32139,19.60566,0.6404634,0.2936316,-0.1418522,-52.06769,-31.20435,2.024946
20.218266487,-81.2638099999998,68.5643000000001,26.11013,0.5691866,0.3432791,-0.1202154,-52.06769,-31.20435,2.024946
20.228178501,-96.74832,44.04023,30.34417,0.5686405,0.3851945,-0.0767169,-51.71802,-31.2323,-4.851176
20.238090992,-103.066,28.19569,38.44408,0.6744639,0.2956629,-0.01875241,-51.71802,-31.2323,-4.851176
20.248003006,-105.6055,14.62299,45.80762,0.7117206,0.290076,-0.06378891,-51.71802,-31.2323,-4.851176
20.25791502,-118.117,1.632799,50.59393,0.7972716,0.09920932,-0.05096675,-51.71802,-31.2323,-4.851176
20.270305634,-117.6214,-8.15353100000001,56.91431,0.8427166,-0.03608541,-0.1646454,-51.71802,-31.2323,-4.851176
20.280217648,-105.2338,-9.78458600000001,57.89612,0.889313,-0.2134594,-0.1676985,-51.75281,-29.75143,-9.160181
20.290130138,-76.2468300000001,-5.124428,59.2460999999999,0.9038627,-0.3772227,-0.1804478,-51.75281,-29.75143,-9.160181
20.300042152,-42.30478,-0.8720351,62.5597000000002,0.8639228,-0.4198349,-0.167398,-51.75281,-29.75143,-9.160181
20.309954166,-8.36272300000002,0.001744238,65.4437599999998,0.8118722,-0.5091221,-0.1502258,-51.75281,-29.75143,-9.160181
20.319866657,21.92498,-3.901137,69.6778000000003,0.7519503,-0.4483061,-0.1526276,-51.75281,-29.75143,-9.160181
20.329778671,45.27563,-12.69718,70.4755199999998,0.7753047,-0.3071144,-0.1893553,-52.92462,-26.44965,-10.89914
20.339690685,51.71719,-23.41554,67.0391900000001,0.8149472,-0.09076754,-0.1709949,-52.92462,-26.44965,-10.89914
20.349603176,43.66524,-29.4155,59.12337,0.8958205,0.03935533,-0.1430268,-52.92462,-26.44965,-10.89914
20.35951519,34.37453,-26.6194,53.96889,0.9664416,0.1115574,-0.1335957,-52.92462,-26.44965,-10.89914
20.369427204,39.14376,-11.76515,54.45979,1.042516,0.1294802,-0.1327394,-52.92462,-26.44965,-10.89914
20.379339695,47.69122,-2.270082,49.67349,1.066446,0.1958583,-0.1056297,-54.83011,-23.44781,-9.613748
20.389251709,45.46144,3.788122,42.3713,1.071421,0.1515912,0.04143799,-54.83011,-23.44781,-9.613748
20.399163723,53.88502,15.61327,42.12585,1.01338,0.1499627,0.05396788,-54.83011,-23.44781,-9.613748
20.409076214,66.0248700000001,16.95306,40.10087,0.911446,0.1229638,0.0480085,-54.83011,-23.44781,-9.613748
20.418988228,74.0768200000002,9.38030999999998,43.47583,0.8209455,0.09814581,-0.0324666,-54.83011,-23.44781,-9.613748
20.428900242,78.4744200000001,-7.57101099999998,45.74626,0.7764903,0.1005275,-0.1208689,-55.61282,-20.44588,-8.334193
20.43881321,75.6252699999999,-24.40583,46.35989,0.8321305,0.1258025,-0.1490642,-55.61282,-20.44588,-8.334193
20.448724747,65.5913099999999,-31.62907,46.48262,0.9303799,0.1838417,-0.1323005,-55.61282,-20.44588,-8.334193
20.458636761,54.9999,-30.40578,44.08946,0.9842148,0.2447804,-0.1040631,-55.61282,-20.44588,-8.334193
20.468549729,50.66424,-23.06603,40.7145,1.012494,0.2938744,-0.05454127,-55.61282,-20.44588,-8.334193
20.478461743,53.14176,-13.86222,39.85542,0.9954591,0.3356521,0.002073117,-55.64056,-17.81665,-6.607666
20.488374233,59.02588,-10.01759,40.16224,0.9572545,0.3483112,0.01067347,-55.64056,-17.81665,-6.607666
20.498286247,63.1137899999999,-15.26027,41.8804,0.8360262,0.3989966,-0.02147879,-55.64056,-17.81665,-6.607666
20.508198261,53.6992,-32.61935,44.70309,0.7469941,0.4293198,-0.03725893,-55.64056,-17.81665,-6.607666
20.518110752,25.2077,-56.26965,44.94854,0.7246146,0.4315358,-0.02359277,-55.64056,-17.81665,-6.607666
20.528022766,-11.76932,-75.3762999999999,39.79406,0.7627664,0.3739801,0.005440769,-56.03932,-15.56388,-5.32775
20.53793478,-40.69439,-80.0946999999999,31.01916,0.860973,0.2842096,0.03562493,-56.03932,-15.56388,-5.32775
20.550325394,-52.7723,-66.92976,19.48294,0.9666982,0.1914516,0.03258872,-56.03932,-15.56388,-5.32775
20.560237408,-48.99408,-51.43474,14.69663,0.9937768,0.1335967,0.03051239,-56.03932,-15.56388,-5.32775
20.570149422,-40.57051,-40.71638,12.61029,0.9407855,0.08967362,0.009102729,-56.03932,-15.56388,-5.32775
20.580061912,-32.89019,-38.3863,11.01486,0.871567,0.04647637,-0.02031471,-57.16424,-14.42607,-1.856163
20.589973926,-27.62546,-41.5319,8.74442899999999,0.8345096,0.02557711,-0.03451597,-57.16424,-14.42607,-1.856163
20.599886417,-26.13894,-46.77458,6.044461,0.8309417,0.003507452,-0.07448314,-57.16424,-14.42607,-1.856163
20.609798431,-27.93515,-52.77453,3.589944,0.8444747,-0.00591988,-0.1486154,-57.16424,-14.42607,-1.856163
20.619710445,-34.43864,-60.6385500000001,0.828613499999998,0.8539193,0.008653739,-0.2595223,-57.16424,-14.42607,-1.856163
20.629622936,-41.80927,-77.0656100000002,-3.773605,0.8631872,0.05215539,-0.401445,-57.5584,-12.16807,0.7086449
20.63953495,-48.74633,-98.5023300000002,-12.60986,0.9575393,0.1650178,-0.4620656,-57.5584,-12.16807,0.7086449
20.649446964,-62.3727000000002,-110.91,-22.85747,1.32086,0.2737298,-0.2865628,-57.5584,-12.16807,0.7086449
20.659359455,-85.1039700000001,-82.3665300000003,-26.84606,2.071505,0.2617656,0.2768434,-57.5584,-12.16807,0.7086449
20.669271469,-94.6424300000002,-5.007925,-10.15535,2.674098,-0.03859076,0.4656542,-57.5584,-12.16807,0.7086449
20.679183483,-17.15793,44.38974,8.00807399999998,2.001719,-0.8401321,0.3825049,-57.18166,-11.40499,4.109357
20.689095974,117.8051,56.09838,4.510388,0.7832586,-0.5217604,0.2868986,-57.18166,-11.40499,4.109357
20.699007988,130.0688,27.72968,2.178597,0.6157879,-0.1532946,0.2183982,-57.18166,-11.40499,4.109357
20.708920002,73.1477499999999,-15.37677,-4.387233,0.4300542,0.2229085,0.1899714,-57.18166,-11.40499,4.109357
20.718832493,-1.921166,-54.28908,-6.65766099999999,0.7275704,0.2874507,-0.04714744,-57.18166,-11.40499,4.109357
20.728744507,-60.9481299999999,-63.0268799999998,-8.43718500000001,0.9672722,0.1490541,-0.104064,-56.78964,-12.52509,5.010298
20.738656521,-71.0440399999999,-33.20187,-1.441814,1.239284,-0.2059567,-0.02971857,-56.78964,-12.52509,5.010298
20.748569488,-28.49259,10.66185,3.28313,1.26246,-0.2955627,-0.06798222,-56.78964,-12.52509,5.010298
20.758481026,-0.1249625,27.20541,3.405856,1.072216,-0.2857695,-0.05943534,-56.78964,-12.52509,5.010298
20.768393993,9.10380600000001,17.47733,4.019485,0.9121581,-0.2283556,-0.1031876,-56.78964,-12.52509,5.010298
20.778306007,18.14676,3.030846,1.38088,0.8702197,-0.1410365,-0.1804838,-56.78803,-12.52326,5.460009
20.788218021,24.15475,-3.143862,-2.669072,0.9325508,-0.06015522,-0.2539857,-56.78803,-12.52326,5.460009
20.798130512,26.01289,1.341539,-4.632685,0.9682139,0.01026239,-0.3177074,-56.78803,-12.52326,5.460009
20.808042526,18.33258,4.720153,-3.957693,0.9372668,0.06833024,-0.3588081,-56.78803,-12.52326,5.460009
20.81795454,3.467444,2.623082,-1.257725,0.8924444,0.1012615,-0.3519321,-56.78803,-12.52326,5.460009
20.827867031,-8.79629,-3.143862,0.828613499999998,0.9399793,0.08045582,-0.2708835,-57.15905,-12.89971,5.013397
20.840257168,-14.1849,-4.483657,2.914952,1.021135,0.03586933,-0.1816613,-57.15905,-12.89971,5.013397
20.850168705,-14.92816,-1.687563,3.28313,1.042925,0.01969688,-0.1738079,-57.15905,-12.89971,5.013397
20.860081673,-17.2818,0.9920276,4.203574,1.002026,0.04292732,-0.1771161,-57.15905,-12.89971,5.013397
20.869993687,-22.29879,1.691051,5.492195,0.9668625,0.05031303,-0.1642576,-56.77994,-13.27428,5.012606
20.879906177,-26.01507,1.574547,5.79900900000001,0.9711359,0.02372093,-0.1601529,-56.77994,-13.27428,5.012606
20.889818192,-28.43065,1.225035,5.369469,0.9916339,-0.03895988,-0.1420338,-56.77994,-13.27428,5.012606
20.899730206,-28.12096,2.681334,5.18538,1.014939,-0.1021578,-0.1369085,-56.77994,-13.27428,5.012606
20.909642696,-22.79429,5.127917,5.308106,1.021183,-0.1423763,-0.1473175,-56.77994,-13.27428,5.012606
20.91955471,-15.11397,6.29295599999999,4.326299,1.017463,-0.1506179,-0.138215,-57.52846,-13.27434,5.016499
20.929466724,-8.79629,5.82694100000001,4.14221,1.007538,-0.1366702,-0.1361097,-57.52846,-13.27434,5.016499
20.939379215,-4.212874,6.23470400000003,3.835396,1.009195,-0.102167,-0.1248515,-57.52846,-13.27434,5.016499
20.949291229,-2.912175,6.584216,3.221767,1.020477,-0.05396307,-0.1126307,-57.52846,-13.27434,5.016499
20.959203243,-3.469617,8.564782,3.344493,1.014868,-0.02390647,-0.09989451,-57.52846,-13.27434,5.016499
20.969115734,-6.07101500000003,10.4871,4.203574,0.9950162,-0.03527511,-0.09402476,-57.17036,-12.15235,4.561377
20.979027748,-9.911175,10.77836,5.246743,0.9788031,-0.06843985,-0.09265529,-57.17036,-12.15235,4.561377
20.988939762,-12.3887,9.03079800000001,6.16718700000003,0.9523422,-0.1036738,-0.09168498,-57.17036,-12.15235,4.561377
20.998852253,-16.91018,4.836657,5.614921,0.9534326,-0.1665211,-0.05898284,-57.17036,-12.15235,4.561377
21.008764267,-13.19389,4.545397,7.27171900000003,0.9600507,-0.1767976,-0.09320374,-57.17036,-12.15235,4.561377
21.018676281,-7.61946700000001,2.331823,6.47400099999998,0.9642065,-0.198085,-0.09434431,-56.78778,-12.90308,4.17627
21.028588772,-0.992095199999997,0.875523700000001,5.614921,0.9685196,-0.2014902,-0.106891,-56.78778,-12.90308,4.17627
21.038500786,6.44047100000002,-0.3477675,4.939929,0.9869415,-0.1969498,-0.1171144,-56.78778,-12.90308,4.17627
21.048413754,11.27164,-0.755531299999998,5.369469,1.004508,-0.1762603,-0.09649226,-56.78778,-12.90308,4.17627
21.058325291,11.39551,0.001744238,5.369469,1.026567,-0.1608336,-0.07306575,-56.78778,-12.90308,4.17627
21.068237305,9.84706299999998,5.419177,6.47400099999998,1.067664,-0.1564044,-0.06573378,-57.1685,-12.53035,3.72735
21.078150272,7.74116999999998,13.92396,8.00807399999998,1.113433,-0.1544659,-0.08246952,-57.1685,-12.53035,3.72735
21.088062286,4.086825,22.25399,8.49897699999999,1.13987,-0.140708,-0.1109517,-57.1685,-12.53035,3.72735
21.097973824,3.715197,27.96269,8.92851700000003,1.120002,-0.09648399,-0.136882,-57.1685,-12.53035,3.72735
21.107886791,6.750161,28.25395,9.29669499999999,1.06721,-0.03958511,-0.1638639,-57.1685,-12.53035,3.72735
21.120276451,9.22768300000001,25.63261,10.15578,0.984784,0.003630596,-0.1402463,-57.18626,-11.41022,2.824464
21.130188465,7.49341799999997,22.54525,10.21714,0.9235473,0.04304406,-0.1528618,-57.18626,-11.41022,2.824464
21.140101433,2.414498,17.36083,9.41941999999998,0.8780478,0.06904199,-0.1724345,-57.18626,-11.41022,2.824464
21.15001297,-5.88520100000001,10.6036,10.33986,0.8463207,0.04720937,-0.1924531,-57.18626,-11.41022,2.824464
21.159925938,-14.37072,5.244421,11.07622,0.843694,0.002942127,-0.2143309,-57.18626,-11.41022,2.824464
21.169837952,-21.92716,1.691051,11.56712,0.8677398,-0.03329813,-0.2484058,-57.18925,-11.41362,1.989285
21.179749966,-27.99709,0.293004,11.4444,0.9012137,-0.04472053,-0.2876843,-57.18925,-11.41362,1.989285
21.189662457,-30.53655,1.924059,11.32167,0.9348322,-0.025336,-0.2768224,-57.18925,-11.41362,1.989285
21.199574471,-32.39468,4.254138,9.66487199999998,0.9381615,0.003926571,-0.25169,-57.18925,-11.41362,1.989285
21.209486485,-31.03205,6.1182,6.596727,0.9363791,0.03984163,-0.2403906,-57.18925,-11.41362,1.989285
21.219398975,-30.84624,4.661901,1.749057,0.9371426,0.05316132,-0.198055,-57.9507,-10.28806,2.439426
21.229310989,-22.60847,5.76868899999999,-0.5213705,0.9589556,0.03041991,-0.1479916,-57.9507,-10.28806,2.439426
21.239223003,-12.63645,3.962878,-2.362258,0.9640814,-0.009387138,-0.0762805,-57.9507,-10.28806,2.439426
21.249135494,-17.71537,-1.046791,-2.546346,1.029381,-0.1091518,-0.02425148,-57.9507,-10.28806,2.439426
21.259047508,-23.66142,-7.221499,-3.46679,1.087087,-0.2510947,-0.04685774,-57.9507,-10.28806,2.439426
21.268959522,-22.11297,-9.02730999999998,0.951339199999998,1.097859,-0.3816755,-0.1030455,-57.57965,-10.29169,1.538056
21.278872013,-13.31777,-9.60983000000002,4.203574,1.058735,-0.3568119,-0.1697402,-57.57965,-10.29169,1.538056
21.288784027,-7.18590000000003,-9.78458600000001,4.694477,1.049111,-0.2527203,-0.1756799,-57.57965,-10.29169,1.538056
21.298696518,-4.088998,-5.357436,3.651307,1.037232,-0.1600199,-0.1288573,-57.57965,-10.29169,1.538056
21.308608532,-5.637449,2.448327,2.608138,1.017363,-0.1062801,-0.09614493,-57.57965,-10.29169,1.538056
21.318520546,-7.43365200000003,9.205554,1.503605,1.002333,-0.09469575,-0.07000022,-57.94907,-10.66632,1.541156
21.328433037,-5.82326300000003,11.53563,1.687694,1.002085,-0.08677188,-0.03729437,-57.94907,-10.66632,1.541156
21.338345051,-5.203883,8.33177500000003,2.546775,0.9883357,-0.05380273,-0.00429682,-57.94907,-10.66632,1.541156
21.348257065,-0.806281,9.26380600000001,3.896759,1.016861,-0.04506891,0.02190626,-57.94907,-10.66632,1.541156
21.358169556,2.97194,7.10848400000002,3.160404,1.01088,-0.06568908,-0.01322735,-57.94907,-10.66632,1.541156
21.36808157,2.290622,5.186169,3.896759,1.025643,-0.06570466,-0.05177665,-57.58104,-10.29326,1.152589
21.377993584,1.733179,4.661901,4.694477,1.008657,-0.07536934,-0.09825929,-57.58104,-10.29326,1.152589
21.387906551,-2.664423,2.564831,5.308106,0.9652202,-0.09392102,-0.1119058,-57.58104,-10.29326,1.152589
21.400296211,-12.45063,-1.105043,7.026268,0.9373159,-0.1211168,-0.1468804,-57.58104,-10.29326,1.152589
21.410209179,-15.42366,-1.571059,8.13079899999997,0.9441614,-0.1298115,-0.157085,-57.58104,-10.29326,1.152589
21.420120716,-16.47661,0.5260119,8.25352600000003,0.9782815,-0.1040728,-0.1375426,-57.58425,-10.29692,0.2531643
21.43003273,-15.67141,4.254138,7.45580799999998,0.9989371,-0.09350966,-0.1136553,-57.58425,-10.29692,0.2531643
21.439945698,-16.47661,6.52596399999999,7.026268,1.006163,-0.1063968,-0.09172071,-57.58425,-10.29692,0.2531643
21.449857235,-19.32576,7.34149200000003,7.21035599999999,0.9994865,-0.1259067,-0.098031,-57.58425,-10.29692,0.2531643
21.459769249,-19.94514,7.34149200000003,7.578534,0.9817997,-0.1344636,-0.1161705,-57.58425,-10.29692,0.2531643
21.469682217,-17.40568,6.23470400000003,7.33308200000001,0.9791849,-0.1665295,-0.1226019,-57.96474,-9.923924,-0.1315117
21.479594231,-14.06102,4.487145,6.65808999999999,0.9825933,-0.2091727,-0.1262787,-57.96474,-9.923924,-0.1315117
21.489505768,-12.07901,2.797838,6.65808999999999,0.9870475,-0.2227483,-0.1369738,-57.96474,-9.923924,-0.1315117
21.499418736,-10.15893,3.671618,6.47400099999998,1.001404,-0.2139468,-0.1572146,-57.96474,-9.923924,-0.1315117
21.50933075,-5.82326300000003,5.186169,4.939929,0.9972313,-0.1709651,-0.1799372,-57.96474,-9.923924,-0.1315117
21.51924324,-1.921166,6.00169699999999,2.853589,0.9953216,-0.1243846,-0.1685656,-57.96474,-9.923924,-0.1315117
21.529155254,3.219692,8.098766,1.994509,1.012891,-0.09979127,-0.1431158,-57.96474,-9.923924,-0.1315117
21.539067268,8.11279800000001,9.38030999999998,0.828613499999998,1.010742,-0.08528197,-0.14492,-57.96474,-9.923924,-0.1315117
21.548979759,7.05985200000002,10.4871,1.503605,1.000284,-0.0925779,-0.1242251,-57.96474,-9.923924,-0.1315117
21.558891773,7.369542,9.78807399999997,2.424049,0.9662052,-0.1139051,-0.1346154,-57.96474,-9.923924,-0.1315117
21.568803787,10.77613,6.1182,1.687694,0.9418727,-0.1131755,-0.1223816,-58.35701,-8.424004,0.2512875
21.578716278,9.78512499999999,4.02113,0.583161800000002,0.960165,-0.072605,-0.1030741,-58.35701,-8.424004,0.2512875
21.588628292,4.768144,4.312389,-0.1531931,0.9927779,-0.0327592,-0.0709397,-58.35701,-8.424004,0.2512875
21.598540306,0.989922399999999,6.75897199999999,-1.319088,1.010553,-0.02122984,-0.04077731,-58.35701,-8.424004,0.2512875
21.608452797,-2.168918,6.87547600000002,-1.687266,1.017295,-0.07435934,-0.01766587,-58.35701,-8.424004,0.2512875
21.618364811,-0.744343000000003,6.93372799999998,-1.012274,1.050918,-0.1359397,-0.005902947,-58.35676,-8.803828,-1.032452
21.628276825,0.2466658,6.87547600000002,-1.073637,1.041807,-0.1762022,0.0121591,-58.35676,-8.803828,-1.032452
21.638189316,-1.425662,8.564782,0.03089567,1.031425,-0.1856579,-0.009895169,-58.35676,-8.803828,-1.032452
21.64810133,-1.115971,10.4871,1.38088,1.024397,-0.1868145,-0.0290442,-58.35676,-8.803828,-1.032452
21.658014297,-1.425662,13.69096,2.730864,1.007845,-0.1821068,-0.01637565,-58.35676,-8.803828,-1.032452
21.667925835,-3.903184,14.79774,2.669501,0.9663024,-0.1777393,-0.009240142,-58.35676,-8.803828,-1.032452
21.680315971,-10.2828,15.03075,2.914952,0.9703569,-0.1885872,0.03962623,-58.35676,-8.803828,-1.032452
21.690228462,-19.3877,14.27347,3.589944,0.9684649,-0.2232127,0.00532182,-58.35676,-8.803828,-1.032452
21.700140476,-22.23685,9.72982099999999,5.062654,0.9519426,-0.2406891,-0.05274095,-58.35676,-8.803828,-1.032452
21.71005249,-17.2818,5.360925,4.510388,0.9485198,-0.2302486,-0.08817145,-58.71323,-10.30407,-1.475603
21.719964981,-12.76033,2.681334,3.528581,0.9841101,-0.2225385,-0.08940955,-58.71323,-10.30407,-1.475603
21.729876995,-10.77831,3.962878,3.467218,1.009685,-0.2338502,-0.08828096,-58.71323,-10.30407,-1.475603
21.739789009,-9.84923700000002,6.52596399999999,2.792227,1.02166,-0.2589442,-0.09432077,-58.71323,-10.30407,-1.475603
21.749701977,-7.99109600000001,9.38030999999998,0.828613499999998,1.015494,-0.2794125,-0.09968185,-58.71323,-10.30407,-1.475603
21.759613514,-3.71737,11.12787,-1.503177,1.015089,-0.2983994,-0.1137292,-57.9871,-8.809028,-2.319291
21.769526482,1.485427,10.72011,-3.834968,1.01483,-0.3043876,-0.1459373,-57.9871,-8.809028,-2.319291
21.779438496,12.26265,11.06962,-3.098613,1.024499,-0.259941,-0.1999885,-57.9871,-8.809028,-2.319291
21.78935051,23.84506,14.33173,-1.257725,0.9985988,-0.1944131,-0.2170783,-57.9871,-8.809028,-2.319291
21.799263,31.64926,16.72006,-0.3372818,0.9603013,-0.1396118,-0.2158788,-57.9871,-8.809028,-2.319291
21.809175014,33.32159,16.83656,-0.1531931,0.9281919,-0.09725297,-0.198014,-58.35651,-9.183652,-2.316192
21.819087028,30.28662,15.32201,-0.766822200000002,0.9230219,-0.07209428,-0.1958779,-58.35651,-9.183652,-2.316192
21.828999519,28.67623,12.46766,-1.503177,0.9460416,-0.05057127,-0.2146736,-58.35651,-9.183652,-2.316192
21.838911533,31.27763,10.31234,-2.607709,0.996155,-7.485086e-05,-0.2277649,-58.35651,-9.183652,-2.316192
21.848823547,34.74616,12.99193,-3.344064,1.065862,0.05142092,-0.1886936,-58.35651,-9.183652,-2.316192
21.858736038,31.71119,17.01132,-3.344064,1.080361,0.06298421,-0.1440959,-57.982,-9.563447,-3.601875
21.868648052,23.22568,16.37054,-0.889547900000002,1.037156,0.04943077,-0.1293819,-57.982,-9.563447,-3.601875
21.878560543,14.43048,13.16669,0.705887599999999,0.9918247,0.04015504,-0.1261435,-57.982,-9.563447,-3.601875
21.888472557,6.750161,9.72982099999999,2.055871,0.9597486,-0.00380165,-0.1107746,-57.982,-9.563447,-3.601875
21.898384571,-0.1869005,6.29295599999999,3.467218,0.9611834,-0.02062477,-0.08593174,-57.982,-9.563447,-3.601875
21.908297062,-5.018068,5.186169,3.28313,0.9647304,-0.03197622,-0.03946481,-57.60588,-9.94141,-4.437849
21.918209076,-6.69039600000003,4.836657,2.669501,0.9939625,-0.07214277,-0.00159009,-57.60588,-9.94141,-4.437849
21.92812109,-5.947139,6.46771199999997,3.037678,1.015125,-0.09741359,0.02973628,-57.60588,-9.94141,-4.437849
21.938033581,-2.540546,6.75897199999999,3.099041,1.003207,-0.114241,-0.007717943,-57.60588,-9.94141,-4.437849
21.947945595,1.299613,5.535681,3.405856,0.9891716,-0.08069369,-0.04961858,-57.60588,-9.94141,-4.437849
21.957857609,0.1227897,3.555114,3.528581,0.972401,-0.04025048,-0.06407895,-57.98983,-9.192249,-4.43821
21.970248222,-8.61047599999998,2.040563,2.424049,0.9880843,0.004594177,-0.05576254,-57.98983,-9.192249,-4.43821
21.980160236,-16.22886,3.496862,1.81042,0.9958673,-0.01898296,-0.03966621,-57.98983,-9.192249,-4.43821
21.990072727,-22.60847,5.011413,1.749057,1.000275,-0.09696408,-0.03494475,-57.98983,-9.192249,-4.43821
21.999984741,-25.02406,5.302673,2.792227,0.9804789,-0.1853683,-0.01854508,-57.98983,-9.192249,-4.43821
22.009896755,-21.49359,5.593933,3.28313,0.9747084,-0.2605045,-0.001706575,-57.99144,-9.194079,-4.887922
22.019809246,-13.93715,6.23470400000003,4.14221,0.9732828,-0.2983019,0.005737334,-57.99144,-9.194079,-4.887922
22.02972126,-3.283803,4.137634,3.405856,0.9574718,-0.313457,0.01970718,-57.99144,-9.194079,-4.887922
22.039634228,7.24566599999997,1.924059,1.503605,0.9584858,-0.2697717,0.02671105,-57.99144,-9.194079,-4.887922
22.049546242,12.13877,1.982311,0.583161800000002,0.9747033,-0.2122145,0.05431354,-57.99144,-9.194079,-4.887922
22.059457779,10.09482,2.215319,-0.828185100000001,0.9689196,-0.1617609,0.07390947,-58.37054,-8.819514,-4.88713
22.069370747,4.953958,1.632799,-1.441814,0.9817382,-0.1330145,0.07014117,-58.37054,-8.819514,-4.88713
22.079282761,1.671241,1.691051,-1.99408,0.9886224,-0.1126692,0.0500464,-58.37054,-8.819514,-4.88713
22.089194775,2.910002,1.399791,-1.748629,0.9726627,-0.1169304,0.0146339,-58.37054,-8.819514,-4.88713
22.099107265,3.095816,0.642515800000001,-0.889547900000002,0.9765857,-0.1261438,0.004933074,-58.37054,-8.819514,-4.88713
22.10901928,-1.115971,1.225035,-0.644096300000003,0.9897876,-0.1059785,0.02847308,-58.7448,-8.819544,-4.885183
22.118931294,-7.37171500000001,3.496862,-1.012274,0.9950332,-0.1135369,0.05430275,-58.7448,-8.819544,-4.885183
22.128843784,-8.36272300000002,6.29295599999999,-0.4600076,1.008526,-0.1185859,0.07671177,-58.7448,-8.819544,-4.885183
22.138755798,-3.407679,8.33177500000003,-1.319088,1.006084,-0.10642,0.09122015,-58.7448,-8.819544,-4.885183
22.148667812,2.476436,8.85604200000002,-2.914524,0.993498,-0.1235864,0.08353965,-58.7448,-8.819544,-4.885183
22.158580303,3.901011,5.419177,-4.203145,0.9542599,-0.149993,0.04099253,-57.98958,-9.572074,-5.721949
22.168492317,-1.673414,-0.755531299999998,-3.834968,0.9342002,-0.1607427,-0.02035382,-57.98958,-9.572074,-5.721949
22.178404808,-8.300786,-4.658412,-2.914524,0.9632895,-0.164407,-0.04897659,-57.98958,-9.572074,-5.721949
22.188316822,-10.03505,-3.143862,-2.975887,0.9928542,-0.1553892,-0.06407484,-57.98958,-9.572074,-5.721949
22.198228836,-10.84025,1.166783,-2.669072,1.016578,-0.1332607,-0.06126587,-57.98958,-9.572074,-5.721949
22.208141327,-13.31777,4.312389,-1.809992,1.019975,-0.1303044,-0.06031727,-57.61394,-9.570475,-5.338427
22.218053341,-11.5835,5.419177,-0.5213705,1.005293,-0.1300068,-0.06113984,-57.61394,-9.570475,-5.338427
22.227965355,-5.080007,5.88519199999999,0.2763473,1.000081,-0.1165774,-0.07684738,-57.61394,-9.570475,-5.338427
22.237877846,-0.5585288,4.953161,0.2763473,0.9852132,-0.1002792,-0.07708146,-57.61394,-9.570475,-5.338427
22.250267983,-2.850237,2.040563,0.03089567,0.9774783,-0.11838,-0.08961463,-57.61394,-9.570475,-5.338427
22.260180473,-4.150936,-1.396303,-0.582733500000001,0.971104,-0.1635864,-0.09657906,-57.99443,-9.197478,-5.723103
22.270092487,-0.4965908,-6.63897900000002,-1.687266,0.9695694,-0.1826644,-0.1255015,-57.99443,-9.197478,-5.723103
22.280004501,3.157754,-8.211782,-2.730435,1.003005,-0.1648387,-0.1343348,-57.99443,-9.197478,-5.723103
22.289916992,0.1847278,-6.63897900000002,-2.791798,1.014138,-0.1111067,-0.1777742,-57.99443,-9.197478,-5.723103
22.299829006,-3.593493,-5.47394,-2.484983,1.017972,-0.0491556,-0.208127,-57.99443,-9.197478,-5.723103
22.30974102,-2.850237,-3.959389,-1.932717,1.014101,-0.01991532,-0.1699639,-58.36868,-9.197508,-5.721156
22.319653988,1.547365,-2.21183,-1.012274,0.9873788,-0.02967097,-0.1169644,-58.36868,-9.197508,-5.721156
22.329565525,4.953958,-4.425405,-1.196362,0.9741754,-0.07714531,-0.07730542,-58.36868,-9.197508,-5.721156
22.339477539,3.777135,-7.27975100000002,-1.748629,0.9930109,-0.1238487,-0.05954475,-58.36868,-9.197508,-5.721156
22.349390507,-0.1869005,-9.60983000000002,-1.748629,1.022639,-0.1647937,-0.07929786,-58.36868,-9.197508,-5.721156
22.359302521,0.1227897,-11.00788,-1.687266,1.035713,-0.1656706,-0.09286904,-58.74965,-8.444948,-4.886337
22.369215012,7.617294,-10.36711,-2.669072,1.011403,-0.1402997,-0.09727678,-58.74965,-8.444948,-4.886337
22.379127026,12.94397,-9.26031799999999,-3.834968,0.9914377,-0.1144147,-0.1065228,-58.74965,-8.444948,-4.886337
22.38903904,12.20071,-9.49332599999999,-4.325871,0.9843111,-0.07806126,-0.09132985,-58.74965,-8.444948,-4.886337
22.398951531,7.98892199999997,-9.37682200000001,-4.264508,0.9908614,-0.05666574,-0.09508915,-58.74965,-8.444948,-4.886337
22.408863545,3.219692,-9.72633399999999,-3.712242,0.994863,-0.05803332,-0.0879329,-58.00114,-8.444889,-4.89023
22.418775559,2.228683,-10.01759,-3.098613,1.000529,-0.08415808,-0.09056014,-58.00114,-8.444889,-4.89023
22.428688049,4.520391,-10.30885,-2.607709,1.001227,-0.1074577,-0.09744404,-58.00114,-8.444889,-4.89023
22.438600063,8.85605400000001,-9.72633399999999,-1.932717,1.007779,-0.09703252,-0.06622489,-58.00114,-8.444889,-4.89023
22.448512077,12.0149,-7.33800299999997,-2.607709,1.006052,-0.1018156,-0.04943525,-58.00114,-8.444889,-4.89023
22.458424568,8.54636400000002,-7.04674300000001,-2.362258,0.9983301,-0.08991424,-0.07329245,-57.9836,-9.565277,-4.051588
22.468336582,3.777135,-8.96905800000002,-1.503177,0.995221,-0.05614413,-0.09848712,-57.9836,-9.565277,-4.051588
22.478249073,4.89202,-10.65837,-1.56454,0.993399,-0.01732286,-0.08764815,-57.9836,-9.565277,-4.051588
22.488161087,6.56434699999999,-10.1341,-1.687266,0.9921978,0.01376817,-0.07302517,-57.9836,-9.565277,-4.051588
22.498073101,5.015896,-10.48361,-2.116806,0.9916411,0.02397078,-0.06767031,-57.9836,-9.565277,-4.051588
22.507985592,1.485427,-10.89137,-2.300895,0.9870508,0.01089453,-0.05379038,-58.36434,-8.812456,-3.152524
22.517897606,-1.4876,-11.47389,-2.669072,0.9964702,-0.02769806,-0.03876953,-58.36434,-8.812456,-3.152524
22.53028822,-3.531555,-11.35739,-2.300895,1.022631,-0.09968012,-0.05149498,-58.36434,-8.812456,-3.152524
22.540200234,-0.8682191,-11.35739,-0.644096300000003,1.02481,-0.1361248,-0.07240473,-58.36434,-8.812456,-3.152524
22.550112247,4.334577,-11.47389,1.442243,1.017355,-0.1309138,-0.07806296,-57.59829,-9.932783,-2.317776
22.560024738,6.13078099999997,-9.90108999999998,2.853589,1.005749,-0.08343676,-0.05747269,-57.59829,-9.932783,-2.317776
22.569936752,1.299613,-8.32828599999997,3.405856,0.9844565,-0.05847336,-0.05422851,-57.59829,-9.932783,-2.317776
22.579848766,-5.699387,-9.551578,3.467218,0.974372,-0.03534004,-0.05686209,-57.59829,-9.932783,-2.317776
22.589761257,-8.79629,-10.42536,2.23996,0.984825,-0.0195055,-0.02036124,-57.59829,-9.932783,-2.317776
22.599673271,-8.92016599999997,-9.085562,1.626331,0.9954112,-0.02018705,0.009786281,-57.60475,-9.560018,-2.768641
22.609585285,-9.04404300000003,-8.44479099999997,2.178597,0.9951236,-0.03911278,0.007262067,-57.60475,-9.560018,-2.768641
22.619498253,-11.45963,-10.77487,3.160404,0.977401,-0.09426939,-0.02127082,-57.60475,-9.560018,-2.768641
22.62940979,-15.42366,-15.90104,4.510388,0.9656265,-0.1251686,-0.06122091,-57.60475,-9.560018,-2.768641
22.639322758,-19.26382,-18.28937,4.326299,0.9996378,-0.1229011,-0.07976636,-57.60475,-9.560018,-2.768641
22.649234772,-19.13994,-15.72629,3.344493,1.029589,-0.08466236,-0.07066561,-57.60154,-9.556357,-1.869217
22.659146786,-12.32676,-10.48361,2.424049,1.034332,-0.06126279,-0.05758931,-57.60154,-9.556357,-1.869217
22.669059277,-6.56652,-6.87198700000002,2.362686,1.015074,-0.06574143,-0.03343313,-57.60154,-9.556357,-1.869217
22.678971291,-9.84923700000002,-5.88170400000003,3.467218,0.9848154,-0.1199895,-0.04359802,-57.60154,-9.556357,-1.869217
22.688883305,-16.97211,-8.61954700000002,5.18538,0.9775625,-0.1871079,-0.06654552,-57.60154,-9.556357,-1.869217
22.698795795,-18.70638,-10.83312,6.78081600000001,0.9954007,-0.2499311,-0.06952982,-57.97926,-9.180223,-1.482957
22.708707809,-14.74234,-9.66808199999998,7.578534,1.010743,-0.2691575,-0.07412122,-57.97926,-9.180223,-1.482957
22.7186203,-7.86721900000001,-5.240932,6.53536400000002,1.009696,-0.2287178,-0.03350883,-57.97926,-9.180223,-1.482957
22.728532314,-0.8682191,0.46776,2.792227,1.001894,-0.1651507,-0.00468385,-57.97926,-9.180223,-1.482957
22.738444328,-0.5585288,3.962878,0.5217989,1.008775,-0.1189534,0.005163443,-57.97926,-9.180223,-1.482957
22.748356819,-3.469617,4.60365,0.705887599999999,1.005571,-0.1103502,-0.01107499,-57.97926,-9.180223,-1.482957
22.758268833,-6.69039600000003,2.914342,2.178597,0.9927659,-0.12324,-0.03505035,-57.97926,-9.180223,-1.482957
22.768180847,-12.45063,0.001744238,4.571751,0.983243,-0.1210385,-0.05511427,-57.97926,-9.180223,-1.482957
22.778093338,-19.51157,-1.105043,6.47400099999998,0.9893883,-0.1400932,-0.09803212,-57.97926,-9.180223,-1.482957
22.788005352,-23.97111,-1.338051,7.578534,0.9939346,-0.1745965,-0.1242326,-57.97926,-9.180223,-1.482957
22.797917366,-24.52855,0.293004,6.90354199999998,1.011431,-0.1661389,-0.1248182,-58.35005,-9.556417,-1.865325
22.81030798,-20.81227,4.195886,5.001291,1.008546,-0.150301,-0.149174,-58.35005,-9.556417,-1.865325
22.820219994,-19.07801,6.00169699999999,5.124017,0.9747493,-0.1556317,-0.160901,-58.35005,-9.556417,-1.865325
22.830132484,-19.44963,5.82694100000001,5.73764600000002,0.965463,-0.1803757,-0.1417736,-58.35005,-9.556417,-1.865325
22.840044498,-17.15793,5.710437,4.817203,0.9716402,-0.2262342,-0.1176482,-58.35005,-9.556417,-1.865325
22.849956512,-14.06102,5.419177,4.14221,0.9768165,-0.2647999,-0.08722285,-57.60015,-9.554789,-1.483749
22.859869003,-8.61047599999998,4.487145,3.099041,0.9809922,-0.2729062,-0.07099009,-57.60015,-9.554789,-1.483749
22.869781017,-2.478608,6.29295599999999,1.994509,1.005138,-0.2493427,-0.07297706,-57.60015,-9.554789,-1.483749
22.879693031,2.848064,8.33177500000003,2.117234,1.001385,-0.1873664,-0.080212,-57.60015,-9.554789,-1.483749
22.889605999,9.90900100000002,7.98226299999999,1.749057,0.9902697,-0.1089116,-0.07094368,-57.60015,-9.554789,-1.483749
22.899517536,13.62528,8.68128599999997,1.38088,0.9958175,-0.05534595,-0.03942785,-58.36135,-8.809057,-2.317345
22.909430504,7.92698399999999,10.42885,1.81042,0.9985173,-0.05030459,-0.008689101,-58.36135,-8.809057,-2.317345
22.919342518,-0.744343000000003,8.564782,2.853589,0.9872485,-0.08435526,-0.003049831,-58.36135,-8.809057,-2.317345
22.929254055,-7.49559099999998,6.70071999999997,3.958122,0.9976669,-0.1239002,0.01291575,-58.36135,-8.809057,-2.317345
22.939167023,-11.64544,6.64246800000002,4.939929,0.9962298,-0.1660938,0.01408842,-58.36135,-8.809057,-2.317345
22.949079037,-11.95513,6.99197999999999,5.246743,0.9950513,-0.1976694,0.005246112,-57.9871,-8.809028,-2.319291
22.958991051,-8.67241400000003,7.74925499999999,5.124017,1.010106,-0.2167974,0.02034452,-57.9871,-8.809028,-2.319291
22.968903542,-2.726361,10.07933,4.264936,1.019598,-0.2163364,-0.007109216,-57.9871,-8.809028,-2.319291
22.978815556,-2.168918,13.16669,3.896759,1.003226,-0.1905685,-0.04759958,-57.9871,-8.809028,-2.319291
22.988728046,-4.64644,14.62299,4.878565,0.9908179,-0.1854513,-0.0594547,-57.9871,-8.809028,-2.319291
22.99864006,-4.708378,14.44823,5.001291,0.9864755,-0.1927931,-0.0623444,-58.36296,-8.810887,-2.767056
23.008552074,-6.87620999999998,13.74921,5.246743,0.9866099,-0.1858939,-0.04117272,-58.36296,-8.810887,-2.767056
23.018464565,-10.03505,14.91425,5.73764600000002,0.9916441,-0.1823428,-0.02294961,-58.36296,-8.810887,-2.767056
23.028376579,-8.61047599999998,17.12782,6.41263799999999,1.003699,-0.2000784,-0.01261576,-58.36296,-8.810887,-2.767056
23.038288593,-1.921166,19.92392,6.47400099999998,1.001125,-0.1801762,-0.001895889,-58.36296,-8.810887,-2.767056
23.048201084,9.72318700000001,23.59379,5.18538,0.9891247,-0.1621639,0.04106916,-57.99654,-8.439661,-3.605337
23.058113098,21.24366,25.5161,2.546775,0.9888771,-0.1547274,0.0732916,-57.99654,-8.439661,-3.605337
23.068025589,19.13777,27.08891,1.564968,0.9878165,-0.1362461,0.08686896,-57.99654,-8.439661,-3.605337
23.077937603,7.865046,26.09862,0.889976299999999,0.9796274,-0.1518958,0.08059838,-57.99654,-8.439661,-3.605337
23.09032774,3.715197,25.74911,0.583161800000002,0.9999654,-0.1627129,0.09618345,-57.99654,-8.439661,-3.605337
23.100240231,5.325586,28.83647,2.546775,1.025509,-0.1706259,0.09829529,-58.73996,-9.194139,-4.884029
23.110152245,7.80310800000002,31.3413,5.92173499999998,0.9881678,-0.1494822,0.05796805,-58.73996,-9.194139,-4.884029
23.120064259,7.98892199999997,27.96269,6.84217800000002,0.9337302,-0.09342182,0.06028544,-58.73996,-9.194139,-4.884029
23.129976749,3.653259,23.71029,6.65808999999999,0.9369609,-0.0344544,0.1105849,-58.73996,-9.194139,-4.884029
23.139888763,-1.673414,23.88505,5.79900900000001,0.955827,0.01055663,0.143361,-58.73996,-9.194139,-4.884029
23.149801731,-10.46862,26.62289,3.835396,0.9509348,0.007079428,0.1390617,-58.76717,-7.704646,-7.072962
23.159713268,-15.91917,27.55492,0.951339199999998,0.9461296,-0.08805107,0.13127,-58.76717,-7.704646,-7.072962
23.169625282,-16.97211,27.90443,0.767250500000003,0.9545248,-0.1320547,0.04014927,-58.76717,-7.704646,-7.072962
23.17953825,-23.97111,26.04037,1.933146,0.9321895,-0.1151903,-0.02003175,-58.76717,-7.704646,-7.072962
23.189450264,-30.35073,22.66176,3.835396,0.9076923,-0.1301474,0.05307921,-58.76717,-7.704646,-7.072962
23.199361801,-20.00708,21.90448,5.062654,0.9540673,-0.1659336,0.1465229,-58.02488,-7.331561,-7.463477
23.209274769,-13.93715,27.38017,5.73764600000002,0.9960542,-0.145928,0.1635536,-58.02488,-7.331561,-7.463477
23.219186783,-21.86522,31.74907,3.589944,0.9975907,-0.1439221,0.1726758,-58.02488,-7.331561,-7.463477
23.229099274,-23.35173,34.2539,1.442243,0.9846954,-0.1729479,0.2162961,-58.02488,-7.331561,-7.463477
23.239011288,-15.11397,40.54511,-1.871354,0.9848171,-0.1992261,0.1973937,-58.02488,-7.331561,-7.463477
23.248923302,-15.73335,44.73925,-3.03725,0.9758599,-0.2082068,0.07641682,-58.40049,-7.713243,-9.194982
23.258835793,-17.65343,42.9917,0.3377102,0.9120759,-0.1674227,-0.0398802,-58.40049,-7.713243,-9.194982
23.268747807,-9.60148500000001,40.13735,1.626331,0.8605133,-0.1986644,-0.05017495,-58.40049,-7.713243,-9.194982
23.278659821,-4.088998,39.32182,2.546775,0.8691579,-0.2096069,-0.03064131,-58.40049,-7.713243,-9.194982
23.288572311,-2.41667,36.40922,3.28313,0.8848866,-0.241803,-0.01275525,-58.40049,-7.713243,-9.194982
23.298484325,2.042869,34.2539,4.510388,0.9142429,-0.2989781,0.01732248,-58.8031,-6.225089,-11.70319
23.308396816,7.369542,33.43837,2.485412,0.952828,-0.3348537,0.01864727,-58.8031,-6.225089,-11.70319
23.31830883,7.24566599999997,32.9141,-1.871354,0.9897583,-0.3093909,-0.02185793,-58.8031,-6.225089,-11.70319
23.328220844,11.95296,32.15683,-1.56454,1.047813,-0.3048281,-0.02956681,-58.8031,-6.225089,-11.70319
23.338133335,20.37653,37.69077,-1.319088,1.046245,-0.2975821,-0.03094451,-58.8031,-6.225089,-11.70319
23.348045349,26.81809,42.17617,-1.56454,1.017181,-0.2507472,-0.09230413,-58.0527,-6.983109,-13.88909
23.357957363,36.85205,38.91405,-0.4600076,0.9993246,-0.1967139,-0.1013822,-58.0527,-6.983109,-13.88909
23.367869854,38.52438,34.71991,0.951339199999998,0.99619,-0.1510014,-0.06743757,-58.0527,-6.983109,-13.88909
23.380259991,30.72019,30.23451,1.319517,0.9956533,-0.116886,-0.03215377,-58.0527,-6.983109,-13.88909
23.390172482,21.49142,24.81708,-0.03046724,1.014288,-0.1136981,-0.02318187,-58.44125,-6.239176,-15.17435
23.400084496,14.61629,17.8851,-0.889547900000002,1.046779,-0.1322042,-0.02360564,-58.44125,-6.239176,-15.17435
23.40999651,15.1118,13.10844,-1.380451,1.061444,-0.1554373,-0.05126506,-58.44125,-6.239176,-15.17435
23.419909477,14.92598,12.11815,-1.687266,1.070745,-0.1543396,-0.04894298,-58.44125,-6.239176,-15.17435
23.429821015,16.66025,11.24437,-1.748629,1.07669,-0.1773926,-0.0208222,-58.44125,-6.239176,-15.17435
23.439733982,19.44746,9.61331700000002,-2.300895,1.089489,-0.2013301,0.007229291,-58.80556,-7.368221,-16.45383
23.449645996,23.28762,8.79779099999998,-3.03725,1.110185,-0.1890434,-0.0106461,-58.80556,-7.368221,-16.45383
23.459557533,27.25166,10.13759,-4.080419,1.124005,-0.1710038,-0.02457833,-58.80556,-7.368221,-16.45383
23.469470501,31.4015,12.75892,-3.712242,1.107301,-0.1497903,-0.007476981,-58.80556,-7.368221,-16.45383
23.479382515,34.3126,13.74921,-1.56454,1.084735,-0.1315736,0.006777663,-58.80556,-7.368221,-16.45383
23.489294529,33.5074,10.6036,1.871783,1.040057,-0.07637657,0.006118103,-57.31498,-6.995337,-16.91248
23.49920702,32.14476,5.593933,2.424049,1.015319,-0.0209841,-0.00480789,-57.31498,-6.995337,-16.91248
23.509119034,28.67623,0.9920276,2.362686,1.018397,0.02522075,0.01563811,-57.31498,-6.995337,-16.91248
23.519031048,17.65126,-3.318618,1.933146,1.007648,0.04069989,0.03456681,-57.31498,-6.995337,-16.91248
23.528943539,9.22768300000001,-8.32828599999997,1.258154,1.036093,0.02134787,0.06778589,-57.31498,-6.995337,-16.91248
23.538855553,3.467444,-11.06613,0.1536215,1.064915,-0.01415421,0.0711241,-57.30529,-7.744527,-16.91018
23.548768044,1.423489,-12.93019,-0.889547900000002,1.071234,-0.06311421,0.05777522,-57.30529,-7.744527,-16.91018
23.558680057,3.529382,-12.98844,-1.380451,1.08897,-0.1079416,0.06595539,-57.30529,-7.744527,-16.91018
23.568592071,7.43147999999999,-11.8234,-1.441814,1.086913,-0.1007016,0.06458218,-57.30529,-7.744527,-16.91018
23.578504562,10.59032,-9.43507399999997,-1.56454,1.07683,-0.07561637,0.06436238,-57.30529,-7.744527,-16.91018
23.588416576,10.83807,-8.095279,-1.257725,1.035447,-0.04409701,0.07119714,-58.05219,-7.742757,-16.45657
23.59832859,9.97093999999998,-9.14381400000001,-0.705459200000001,1.002934,-0.01584661,0.08080904,-58.05219,-7.742757,-16.45657
23.608241081,7.49341799999997,-11.12438,-0.3986447,0.9861763,0.01265671,0.1013205,-58.05219,-7.742757,-16.45657
23.618153095,3.033878,-13.74572,-0.828185100000001,0.9826981,0.0218533,0.1066957,-58.05219,-7.742757,-16.45657
23.628066063,-3.407679,-16.25055,-1.380451,0.9965685,0.02626005,0.08162858,-58.05219,-7.742757,-16.45657
23.6379776,-12.07901,-18.05636,-2.546346,0.9987541,-0.0004251292,0.07278775,-57.66663,-8.490088,-16.0065
23.647889614,-16.41467,-20.21169,-3.650879,1.00964,-0.07289776,0.09573201,-57.66663,-8.490088,-16.0065
23.660280228,-17.59149,-19.68742,-4.019056,1.020793,-0.1532841,0.08789095,-57.66663,-8.490088,-16.0065
23.670192242,-16.29079,-19.04665,-4.203145,1.002283,-0.1764071,0.06774145,-57.66663,-8.490088,-16.0065
23.680105209,-12.20288,-19.45441,-4.264508,0.9926127,-0.181351,0.07259953,-57.66663,-8.490088,-16.0065
23.690016746,-8.11497100000001,-19.33791,-3.589516,0.9793198,-0.1786368,0.06697865,-57.66364,-8.486689,-15.17132
23.69992876,-6.07101500000003,-20.09518,-2.484983,0.977456,-0.1544714,0.05659339,-57.66364,-8.486689,-15.17132
23.709841728,-9.16791799999997,-21.08547,-0.766822200000002,0.9655812,-0.1125003,0.04449871,-57.66364,-8.486689,-15.17132
23.719753742,-11.76932,-22.30876,0.2149844,0.9669877,-0.1037329,0.04886554,-57.66364,-8.486689,-15.17132
23.729665279,-11.088,-22.89128,1.258154,0.9684917,-0.0973538,0.05993776,-57.66364,-8.486689,-15.17132
23.739578247,-12.94614,-23.76506,1.933146,0.978386,-0.1257036,0.08558594,-58.03654,-8.105065,-13.43592
23.749490261,-14.9901,-25.80387,2.608138,0.9776826,-0.1577681,0.07481535,-58.03654,-8.105065,-13.43592
23.759402752,-16.04304,-27.43493,2.792227,0.9877191,-0.1814143,0.07216421,-58.03654,-8.105065,-13.43592
23.769314766,-11.89319,-27.31843,2.424049,0.9986535,-0.207041,0.05940824,-58.03654,-8.105065,-13.43592
23.77922678,-4.274812,-25.62912,2.608138,1.008475,-0.1890958,0.03686953,-58.03654,-8.105065,-13.43592
23.789139271,-0.806281,-23.4738,3.037678,1.001758,-0.1654607,0.02940657,-58.41267,-7.7271,-12.59995
23.799051285,0.680232200000002,-23.00778,3.651307,0.9861451,-0.1422244,0.05995573,-58.41267,-7.7271,-12.59995
23.808963299,0.1847278,-23.76506,3.160404,0.9700179,-0.1192557,0.04009125,-58.41267,-7.7271,-12.59995
23.81887579,-2.540546,-25.57087,2.178597,0.9810062,-0.1080295,0.02806046,-58.41267,-7.7271,-12.59995
23.828787804,-6.62845799999998,-26.44465,1.626331,0.9920815,-0.07798203,-0.001131437,-58.41267,-7.7271,-12.59995
23.838700294,-8.42466199999997,-26.91066,1.38088,1.008066,-0.0690783,-0.005541371,-58.40322,-8.096467,-11.3139
23.848612308,-8.23884800000001,-26.5029,1.871783,1.007357,-0.07675541,0.01169974,-58.40322,-8.096467,-11.3139
23.858524322,-8.98210400000001,-26.67765,2.055871,1.000917,-0.1049227,0.01829386,-58.40322,-8.096467,-11.3139
23.868436813,-10.59249,-27.60969,1.319517,0.9972471,-0.1060699,-0.007128229,-58.40322,-8.096467,-11.3139
23.878348827,-11.14994,-28.54172,1.319517,1.005485,-0.1167366,-0.02696196,-58.40322,-8.096467,-11.3139
23.888260841,-10.22087,-27.31843,1.196791,1.00155,-0.1304561,-0.04526298,-59.14229,-8.465894,-10.02396
23.898173332,-10.34474,-28.25046,-0.03046724,0.9969032,-0.1350293,-0.07454013,-59.14229,-8.465894,-10.02396
23.908085346,-12.26482,-30.05627,0.767250500000003,1.004961,-0.153834,-0.07377961,-59.14229,-8.465894,-10.02396
23.917998314,-11.21187,-30.75529,1.196791,0.9896375,-0.189223,-0.03594115,-59.14229,-8.465894,-10.02396
23.927910328,-12.14094,-31.16305,1.258154,0.9787669,-0.2325831,-0.05005408,-59.14229,-8.465894,-10.02396
23.940299988,-14.24684,-35.18244,1.135428,0.9695103,-0.2741454,-0.09538023,-58.77314,-7.711444,-8.743322
23.950212955,-9.60148500000001,-39.37658,1.933146,0.9712316,-0.3008239,-0.1018159,-58.77314,-7.711444,-8.743322
23.960124493,-2.788299,-40.65812,1.933146,0.9731594,-0.2964238,-0.09940367,-58.77314,-7.711444,-8.743322
23.97003746,2.97194,-39.66784,-0.2759189,0.9764884,-0.254239,-0.106836,-58.77314,-7.711444,-8.743322
23.979949474,7.67923199999999,-38.21154,-1.012274,0.9934039,-0.1785267,-0.1328967,-58.77314,-7.711444,-8.743322
23.989861012,13.62528,-34.77468,-1.503177,1.00731,-0.1006911,-0.1161814,-58.77365,-6.951796,-6.175846
23.999773979,18.08482,-31.57082,-1.012274,1.008345,-0.02577524,-0.07055699,-58.77365,-6.951796,-6.175846
24.009685993,15.91699,-30.9883,-1.441814,0.9831616,0.03841387,-0.06701551,-58.77365,-6.951796,-6.175846
24.019598007,6.56434699999999,-34.1339,-2.484983,0.9595311,0.0560852,-0.06187766,-58.77365,-6.951796,-6.175846
24.029510498,-4.212874,-38.21154,-3.344064,0.9275038,0.006788151,-0.04798529,-58.77365,-6.951796,-6.175846
24.039422512,-13.6894,-43.27946,-4.632685,0.9228736,-0.07484105,-0.07057356,-58.75775,-7.693927,-4.438933
24.049335003,-17.71537,-49.16291,-5.98266900000002,0.9318734,-0.1492618,-0.1383747,-58.75775,-7.693927,-4.438933
24.059247017,-16.97211,-54.17258,-6.16675799999997,0.9498917,-0.1939514,-0.1978986,-58.75775,-7.693927,-4.438933
24.069159031,-13.93715,-56.50266,-6.289484,0.9415384,-0.2028574,-0.2122854,-58.75775,-7.693927,-4.438933
24.079071522,-10.09699,-54.17258,-6.84175,0.9449582,-0.1774502,-0.1828581,-58.75775,-7.693927,-4.438933
24.088983536,-3.779308,-48.28913,-8.62127400000002,0.981749,-0.1335144,-0.1200049,-59.12628,-7.307337,-1.482888
24.09889555,5.263648,-40.48337,-11.01443,1.018454,-0.1149891,-0.09525274,-59.12628,-7.307337,-1.482888
24.108808041,13.87304,-33.95915,-12.5485,1.002508,-0.1029065,-0.1579255,-59.12628,-7.307337,-1.482888
24.118720055,20.37653,-35.41545,-13.77576,0.9465482,-0.1003122,-0.2711882,-59.12628,-7.307337,-1.482888
24.128632546,26.32258,-44.03674,-13.22349,0.8911864,-0.09496772,-0.3229778,-59.12628,-7.307337,-1.482888
24.13854456,28.80011,-52.13376,-11.87351,0.8566809,-0.08895133,-0.2952496,-58.73612,-8.049438,0.252079
24.148456574,27.8091,-54.40559,-10.95306,0.8754976,-0.09859136,-0.2359482,-58.73612,-8.049438,0.252079
24.158369541,28.61429,-53.64831,-13.46894,0.9082749,-0.1184117,-0.2099747,-58.73612,-8.049438,0.252079
24.168281078,34.12678,-54.8716,-16.41436,0.9384805,-0.141504,-0.2478603,-58.73612,-8.049438,0.252079
24.178194046,43.6033,-55.74538,-18.19389,0.9412339,-0.1657031,-0.2461263,-58.73612,-8.049438,0.252079
24.18810606,50.6023,-54.92986,-17.88707,0.9409581,-0.1616958,-0.2206486,-57.9752,-8.035261,3.717397
24.198018074,53.26564,-54.28908,-17.39617,0.9459108,-0.1323335,-0.1801655,-57.9752,-8.035261,3.717397
24.207930565,50.66424,-53.82307,-16.65982,0.9666107,-0.1032107,-0.1302265,-57.9752,-8.035261,3.717397
24.220320225,42.36454,-50.3862,-13.77576,1.033099,-0.07384231,-0.04949902,-57.9752,-8.035261,3.717397
24.230233192,32.51639,-38.79406,-9.54171799999998,1.15942,-0.04289766,0.09790778,-57.9752,-8.035261,3.717397
24.240145207,20.74816,-19.04665,-4.019056,1.330198,-0.04580129,0.2494795,-57.94501,-9.521355,6.741508
24.250057221,-0.744343000000003,-6.988491,-3.03725,1.430606,-0.1732021,0.4978646,-57.94501,-9.521355,6.741508
24.259969711,8.17473599999999,27.55492,10.83077,1.429066,-0.07107636,0.4673489,-57.94501,-9.521355,6.741508
24.269881725,20.62428,43.86547,13.89891,1.379915,-0.1657109,0.4748556,-57.94501,-9.521355,6.741508
24.279793739,20.43847,38.21503,15.37162,1.108087,-0.01546504,0.3693745,-57.94501,-9.521355,6.741508
24.28970623,10.96195,19.86566,19.17612,0.8908148,0.05023149,0.09669091,-57.18705,-9.890662,8.023663
24.299618244,-3.965122,-1.396303,18.56249,0.7939818,0.1575062,-0.2080398,-57.18705,-9.890662,8.023663
24.309530735,-32.5805,-15.66803,14.45118,0.7034041,0.1675128,-0.3982385,-57.18705,-9.890662,8.023663
24.319442749,-63.5495299999999,-21.49323,14.51254,0.7789079,0.02832222,-0.493975,-57.18705,-9.890662,8.023663
24.329354763,-66.7703099999997,-10.19235,15.92389,0.8404573,-0.06872907,-0.4707027,-57.93393,-10.26898,7.129284
24.339267254,-61.93914,-15.37677,3.835396,0.9068222,-0.2684097,-0.2412105,-57.93393,-10.26898,7.129284
24.349179268,-37.84523,0.46776,7.51716999999999,1.011171,-0.2777333,-0.2331147,-57.93393,-10.26898,7.129284
24.359091282,-20.19289,5.360925,1.749057,0.9976944,-0.3709549,-0.2259285,-57.93393,-10.26898,7.129284
24.369003773,-11.83125,3.613366,3.467218,0.9863856,-0.3991728,-0.2173691,-57.93393,-10.26898,7.129284
24.378915787,-4.522564,-0.8720351,3.71267,1.003167,-0.3371801,-0.1772582,-57.96141,-8.019575,7.572073
24.388828755,-2.974113,-3.842885,3.651307,1.018241,-0.2772823,-0.1630739,-57.96141,-8.019575,7.572073
24.398740292,-2.788299,-3.901137,5.124017,1.003477,-0.2145974,-0.1942102,-57.96141,-8.019575,7.572073
24.408652306,4.210701,-1.046791,5.308106,0.9872229,-0.1231624,-0.1939309,-57.96141,-8.019575,7.572073
24.418565273,11.58133,1.749303,2.730864,0.9757479,-0.08537356,-0.1719659,-57.96141,-8.019575,7.572073
24.428476811,12.38652,2.506578,0.1536215,0.9950399,-0.1706243,-0.2024821,-57.58044,-8.772134,6.737255
24.438389778,12.69621,3.671618,0.583161800000002,1.012846,-0.2505376,-0.2286276,-57.58044,-8.772134,6.737255
24.448301792,15.79312,4.778405,1.749057,0.9790506,-0.2770829,-0.2174482,-57.58044,-8.772134,6.737255
24.458213806,20.62428,4.428894,0.705887599999999,0.9328157,-0.2656053,-0.2303886,-57.58044,-8.772134,6.737255
24.468126297,22.48243,1.865807,0.2149844,0.9180486,-0.2407225,-0.2584156,-57.58044,-8.772134,6.737255
24.478038311,18.89002,0.1182482,1.196791,0.9463928,-0.187453,-0.2453586,-57.95172,-8.768766,7.574381
24.487950325,15.85505,1.283287,1.994509,0.9598615,-0.1295967,-0.2470183,-57.95172,-8.768766,7.574381
24.497862816,13.06784,3.322106,3.28313,0.9590328,-0.091243,-0.2352314,-57.95172,-8.768766,7.574381
24.510252953,7.24566599999997,3.43861,4.449025,0.969919,-0.1059147,-0.1922155,-57.95172,-8.768766,7.574381
24.520165444,3.529382,1.749303,4.449025,0.9839681,-0.1336012,-0.1421133,-57.95172,-8.768766,7.574381
24.530077458,-0.4346527,1.225035,3.528581,0.9936127,-0.1459835,-0.1221183,-57.94687,-9.143361,7.575535
24.539989472,-3.097989,2.098815,2.485412,0.9849382,-0.1474911,-0.1114847,-57.94687,-9.143361,7.575535
24.549901962,-4.956131,2.739586,1.38088,0.983416,-0.1411968,-0.109508,-57.94687,-9.143361,7.575535
24.559813976,-6.44264400000003,2.273571,-0.09183015,0.993764,-0.1483438,-0.1101315,-57.94687,-9.143361,7.575535
24.569726467,-8.61047599999998,1.283287,-0.4600076,0.9862868,-0.1446074,-0.1196406,-57.94687,-9.143361,7.575535
24.579638481,-10.15893,1.807555,-0.582733500000001,0.9803364,-0.154968,-0.1398213,-57.96302,-8.021405,7.12236
24.589550495,-9.35373199999999,2.390074,-0.3372818,0.9708722,-0.1527358,-0.1541236,-57.96302,-8.021405,7.12236
24.599462986,-7.18590000000003,1.632799,-1.257725,0.9709688,-0.1600026,-0.1532126,-57.96302,-8.021405,7.12236
24.609375,-5.141944,-0.2312636,-2.914524,0.9870654,-0.169577,-0.1683102,-57.96302,-8.021405,7.12236
24.619287014,-4.150936,-0.930287099999998,-3.834968,0.994368,-0.1743798,-0.1770525,-57.96302,-8.021405,7.12236
24.629199505,-3.779308,0.001744238,-3.89633,0.9818527,-0.1693186,-0.1994705,-58.34836,-7.273812,6.736532
24.639111519,-1.611476,-0.4642715,-4.141782,0.9544448,-0.1818702,-0.2165864,-58.34836,-7.273812,6.736532
24.649024486,3.405506,-1.687563,-4.9395,0.9525062,-0.191154,-0.2257533,-58.34836,-7.273812,6.736532
24.658936024,10.03288,-2.037075,-5.123589,0.9908512,-0.1842277,-0.1977324,-58.34836,-7.273812,6.736532
24.668848038,12.82009,1.166783,-5.36904,1.029436,-0.1796158,-0.1490824,-58.34836,-7.273812,6.736532
24.678761005,12.94397,5.82694100000001,-5.491766,1.024235,-0.1849567,-0.1380262,-58.32896,-8.772194,6.741148
24.688673019,12.32458,8.04051500000001,-5.246314,1.004384,-0.2021786,-0.1389177,-58.32896,-8.772194,6.741148
24.69858551,10.65226,8.79779099999998,-4.816774,1.031604,-0.1941149,-0.1453578,-58.32896,-8.772194,6.741148
24.708497524,8.36055000000001,11.82689,-2.914524,1.02693,-0.1782147,-0.1533713,-58.32896,-8.772194,6.741148
24.718409538,6.006905,15.43851,-1.135,0.990055,-0.1548771,-0.1456724,-58.32896,-8.772194,6.741148
24.728322029,5.88302899999997,14.73949,-0.950910899999997,0.9819462,-0.1368264,-0.1046637,-57.58205,-8.773964,6.287542
24.738234043,4.89202,14.44823,-1.135,1.021637,-0.1201886,-0.0770708,-57.58205,-8.773964,6.287542
24.748146057,0.3705419,18.70062,-0.644096300000003,1.063037,-0.1209673,-0.04624858,-57.58205,-8.773964,6.287542
24.758058548,-6.38070599999998,23.36078,1.135428,1.09064,-0.1370949,-0.04373035,-57.58205,-8.773964,6.287542
24.767970562,-12.07901,25.74911,4.019485,1.048571,-0.162261,-0.02718355,-57.58205,-8.773964,6.287542
24.777883053,-17.65343,25.63261,6.35127500000001,1.005809,-0.1575432,-0.04308204,-57.58989,-8.402767,5.451208
24.790273189,-23.47561,26.50639,9.60350899999999,1.017329,-0.1404348,-0.04403492,-57.58989,-8.402767,5.451208
24.800185204,-29.11197,31.74907,11.13758,1.040012,-0.1449321,-0.03083023,-57.58989,-8.402767,5.451208
24.810097694,-37.41167,39.78783,12.97847,1.050183,-0.1480207,0.003626533,-57.58989,-8.402767,5.451208
24.820009708,-42.1809,44.27324,14.083,1.009156,-0.1641206,-0.01050605,-57.58989,-8.402767,5.451208
24.829922199,-39.02206,42.00141,13.89891,0.9240657,-0.1156841,-0.002194059,-58.34461,-8.409886,3.720497
24.839834213,-37.47361,35.94321,18.01023,0.9499637,-0.117568,-0.05382305,-58.34461,-8.409886,3.720497
24.849746227,-34.81027,37.57426,16.10798,0.9604373,-0.09221495,-0.05183038,-58.34461,-8.409886,3.720497
24.859658718,-35.42965,41.7684,15.31026,0.98958,-0.0875588,-0.06551331,-58.34461,-8.409886,3.720497
24.869570732,-32.20887,45.14701,14.38982,0.9725823,-0.09307859,-0.0605913,-58.34461,-8.409886,3.720497
24.8794837,-29.60748,48.9334,13.16256,0.987124,-0.1388059,-0.03126061,-58.73153,-8.044209,1.536971
24.889395237,-29.05003,49.45766,12.73302,0.9458545,-0.1799105,-0.09837493,-58.73153,-8.044209,1.536971
24.899307251,-27.93515,44.91401,11.56712,0.8987414,-0.1679143,-0.1962917,-58.73153,-8.044209,1.536971
24.909220219,-25.89119,41.36064,11.50576,0.9006255,-0.1403704,-0.2186931,-58.73153,-8.044209,1.536971
24.919131756,-24.15693,43.63247,11.87394,0.9326495,-0.1642282,-0.1279182,-58.73153,-8.044209,1.536971
24.92904377,-22.60847,46.37031,12.73302,0.9588904,-0.1888516,-0.07742809,-58.75042,-7.305476,-1.035121
24.938956738,-18.14894,46.19555,13.5921,0.972989,-0.2087075,-0.01334956,-58.75042,-7.305476,-1.035121
24.948868752,-10.90218,45.61303,12.05803,0.968865,-0.214224,0.0548343,-58.75042,-7.305476,-1.035121
24.958781242,-0.5585288,46.71982,8.68306499999997,0.9843308,-0.1577851,0.05554742,-58.75042,-7.305476,-1.035121
24.968693256,7.74116999999998,50.79745,5.73764600000002,0.9411526,-0.105976,-0.04118022,-58.75042,-7.305476,-1.035121
24.97860527,13.0059,53.71006,1.749057,0.958392,-0.04448994,-0.0999895,-59.51943,-6.568633,-4.053034
24.988517761,6.62628499999997,59.2439900000003,2.608138,0.9521881,-0.02083599,-0.1050563,-59.51943,-6.568633,-4.053034
24.998429775,6.13078099999997,61.3410599999998,5.676283,0.9182419,-0.04330019,0.03915547,-59.51943,-6.568633,-4.053034
25.008342266,12.0149,62.3895999999998,3.896759,0.9338362,-0.03629339,0.1374904,-59.51943,-6.568633,-4.053034
25.01825428,-0.1249625,62.2148400000001,0.1536215,0.9622183,0.01430852,0.1034738,-59.51943,-6.568633,-4.053034
25.028166294,-20.6884,58.89448,-4.325871,0.9293467,-0.02079381,0.05168682,-58.40745,-6.580831,-7.07837
25.038078785,-25.64344,51.20522,-6.41221000000002,0.9109125,-0.1282676,-0.05977523,-58.40745,-6.580831,-7.07837
25.047990799,-14.9901,45.38002,-6.78038700000001,0.9338329,-0.2377588,-0.09864914,-58.40745,-6.580831,-7.07837
25.057902813,-10.22087,45.84604,-4.878137,0.968639,-0.2553261,-0.1106119,-58.40745,-6.580831,-7.07837
25.070293427,-18.14894,45.61303,-1.932717,0.9307144,-0.2637365,-0.05173785,-58.40745,-6.580831,-7.07837
25.080205441,-9.97311299999999,40.25385,0.3377102,0.9183831,-0.3351473,0.04489241,-58.78743,-6.967482,-10.03052
25.090117931,1.113798,37.74902,0.3990731,0.9267406,-0.3840397,0.03968782,-58.78743,-6.967482,-10.03052
25.100029945,-0.8682191,36.64223,-2.791798,0.9436747,-0.3685574,-0.007421157,-58.78743,-6.967482,-10.03052
25.109942436,-4.02706,35.12768,-4.694048,0.9719474,-0.3645934,-0.05903316,-58.78743,-6.967482,-10.03052
25.11985445,12.88203,40.66161,-4.019056,1.017334,-0.3630846,0.02938642,-58.78743,-6.967482,-10.03052
25.129766464,23.72119,53.4188,-5.062225,1.009491,-0.3036803,0.09707686,-59.18382,-5.852354,-12.15211
25.139679432,23.28762,58.37021,-3.589516,0.9931844,-0.2420291,0.05730511,-59.18382,-5.852354,-12.15211
25.149590969,32.76414,48.9334,0.2763473,0.9369508,-0.1881095,0.02505345,-59.18382,-5.852354,-12.15211
25.159502983,29.66724,47.7101,-2.669072,0.9249874,-0.1064329,0.003140791,-59.18382,-5.852354,-12.15211
25.169415951,20.25266,41.12763,-5.79858000000001,0.9358278,-0.06796654,0.008578541,-59.18382,-5.852354,-12.15211
25.179327965,17.96095,32.9141,-6.044032,0.9844922,-0.03186493,0.02805547,-58.43964,-6.237347,-14.72464
25.189240456,7.74116999999998,29.94325,-3.344064,1.021559,-0.04193225,0.05453447,-58.43964,-6.237347,-14.72464
25.19915247,-4.708378,29.01122,-2.423621,0.9856459,-0.10785,0.05154651,-58.43964,-6.237347,-14.72464
25.209064484,-1.363724,24.46757,-2.423621,1.005475,-0.1533178,0.0246515,-58.43964,-6.237347,-14.72464
25.218976975,-2.354732,25.2831,-2.300895,1.048092,-0.2120091,0.01090211,-58.43964,-6.237347,-14.72464
25.228888989,-0.1869005,25.86562,-1.441814,1.066757,-0.2439275,-0.01829265,-58.0635,-6.995397,-16.90859
25.238801479,4.458453,26.21513,0.460436,1.044442,-0.2507069,-0.0565441,-58.0635,-6.995397,-16.90859
25.248713493,10.90001,24.75883,1.687694,1.040136,-0.2243713,-0.01647569,-58.0635,-6.995397,-16.90859
25.258625507,18.2087,22.83651,2.669501,1.058937,-0.1652477,0.0264784,-58.0635,-6.995397,-16.90859
25.268537998,18.95196,22.13749,2.792227,1.079563,-0.09714776,0.01953895,-58.43589,-7.373421,-17.74067
25.278450012,19.0139,19.16664,2.669501,1.084354,-0.06080049,0.004851882,-58.43589,-7.373421,-17.74067
25.288362026,11.58133,15.78803,1.442243,1.080122,-0.04296778,-0.005553652,-58.43589,-7.373421,-17.74067
25.298274517,4.89202,10.95311,-0.3372818,1.102506,-0.06590852,0.004649981,-58.43589,-7.373421,-17.74067
25.308186531,2.414498,6.351208,-1.196362,1.109034,-0.09598356,-0.01385676,-58.43589,-7.373421,-17.74067
25.318099499,2.166745,3.788122,-1.380451,1.113479,-0.138584,-0.01178088,-58.08562,-5.880238,-19.03213
25.328011036,4.396515,1.516295,-1.503177,1.116945,-0.1699776,0.00334298,-58.08562,-5.880238,-19.03213
25.33792305,5.75915199999997,-0.2312636,-1.56454,1.122015,-0.1727492,0.01768237,-58.08562,-5.880238,-19.03213
25.350313664,9.53737299999999,-3.202114,-0.766822200000002,1.10919,-0.1773568,0.001444902,-58.08562,-5.880238,-19.03213
25.360225678,12.69621,-5.76519999999999,-0.705459200000001,1.08409,-0.1999451,0.006808298,-58.08562,-5.880238,-19.03213
25.370138645,13.12978,-10.19235,-0.5213705,1.07951,-0.1981421,-0.008502401,-58.07294,-6.62603,-18.19464
25.380050182,11.82908,-13.62922,-0.214556,1.069748,-0.2094749,-0.02001142,-58.07294,-6.62603,-18.19464
25.389962196,13.93497,-15.55153,0.460436,1.075343,-0.1866167,-0.01991088,-58.07294,-6.62603,-18.19464
25.399875164,16.47443,-16.60007,1.196791,1.081289,-0.1713803,0.005584021,-58.07294,-6.62603,-18.19464
25.409787178,16.35056,-18.40588,1.749057,1.068537,-0.1515597,0.02504033,-58.07294,-6.62603,-18.19464
25.419699669,16.84606,-21.31847,2.178597,1.066993,-0.1306427,0.0419995,-58.06164,-7.373391,-17.74262
25.429611683,17.58932,-22.71652,2.117234,1.059483,-0.1088748,0.05037665,-58.06164,-7.373391,-17.74262
25.439523697,16.35056,-23.88156,1.687694,1.038632,-0.07710037,0.05702323,-58.06164,-7.373391,-17.74262
25.449436188,14.86405,-24.98835,1.196791,1.019954,-0.05689594,0.07125516,-58.06164,-7.373391,-17.74262
25.459348202,15.04986,-26.09513,1.196791,1.014916,-0.03410771,0.08345753,-58.06164,-7.373391,-17.74262
25.469260693,13.12978,-26.5029,0.767250500000003,1.001354,-0.02299247,0.1091054,-57.68577,-7.371531,-17.29485
25.479172707,9.10380600000001,-28.42521,-0.03046724,0.990537,-0.01876802,0.1082732,-57.68577,-7.371531,-17.29485
25.489084721,6.37853299999997,-30.52228,-0.644096300000003,0.982558,-0.02138597,0.09008358,-57.68577,-7.371531,-17.29485
25.498997212,3.777135,-31.97858,-1.441814,0.9748783,-0.03214093,0.09152344,-57.68577,-7.371531,-17.29485
25.508909226,1.795117,-32.79411,-2.178169,0.9681708,-0.0399597,0.0958548,-57.68577,-7.371531,-17.29485
25.518821716,-0.1249625,-34.25041,-2.300895,0.9643,-0.07730009,0.1038045,-58.05867,-6.989906,-15.55945
25.52873373,-2.168918,-35.5902,-2.607709,0.9645125,-0.1103603,0.08581646,-58.05867,-6.989906,-15.55945
25.538645744,-3.655432,-35.82321,-2.239532,0.9686955,-0.1277311,0.09190411,-58.05867,-6.989906,-15.55945
25.548558235,-2.354732,-34.77468,-2.239532,0.9812447,-0.1252181,0.07884052,-58.05867,-6.989906,-15.55945
25.558470249,-2.912175,-32.79411,-3.03725,0.9840053,-0.1011295,0.04248344,-58.05867,-6.989906,-15.55945
25.568382263,-4.522564,-32.73586,-3.589516,0.9683764,-0.1066821,0.03778941,-58.04625,-7.355875,-13.43823
25.578295231,-6.07101500000003,-35.24069,-3.46679,0.9677265,-0.1150647,0.01229119,-58.04625,-7.355875,-13.43823
25.588206768,-8.548538,-37.27951,-4.019056,0.9708485,-0.1693158,0.01478184,-58.04625,-7.355875,-13.43823
25.598119736,-6.69039600000003,-38.5028,-3.650879,0.9883703,-0.211816,0.004733497,-58.04625,-7.355875,-13.43823
25.60803175,-2.478608,-37.51252,-2.730435,1.008866,-0.2154826,-0.003643166,-58.04625,-7.355875,-13.43823
25.617943764,1.795117,-36.11447,-0.950910899999997,1.017564,-0.2081091,-0.005114958,-58.77885,-8.098065,-11.69742
25.627856254,8.11279800000001,-35.3572,0.583161800000002,1.014686,-0.1698281,-0.002432531,-58.77885,-8.098065,-11.69742
25.640245914,10.34257,-32.96886,1.749057,0.9915014,-0.1051044,0.005895612,-58.77885,-8.098065,-11.69742
25.650158882,8.29861200000002,-31.62907,3.099041,0.9503931,-0.07173913,-0.005986044,-58.77885,-8.098065,-11.69742
25.660070896,5.263648,-33.78439,2.117234,0.9366964,-0.05386483,0.01442635,-58.77885,-8.098065,-11.69742
25.66998291,-1.425662,-37.22126,1.319517,0.9527947,-0.06441394,-0.001638031,-58.77934,-7.718502,-10.47793
25.679895401,-7.062024,-40.48337,1.749057,0.9452846,-0.1009343,-0.01381583,-58.77934,-7.718502,-10.47793
25.689807415,-9.41567000000003,-43.62897,1.319517,0.9475545,-0.1334293,-0.02125568,-58.77934,-7.718502,-10.47793
25.699719906,-8.61047599999998,-44.50275,-0.09183015,0.9752546,-0.1519452,-0.01203204,-58.77934,-7.718502,-10.47793
25.70963192,-10.40668,-41.76491,-1.319088,0.9824072,-0.1524358,-0.03034747,-58.77934,-7.718502,-10.47793
25.719543934,-10.65443,-40.36686,-0.03046724,0.9821988,-0.1349832,-0.03022928,-58.01678,-8.082582,-7.910881
25.729456425,-9.22985600000001,-39.55134,-1.441814,0.9692314,-0.1206406,-0.03817649,-58.01678,-8.082582,-7.910881
25.739368439,-7.61946700000001,-40.42512,-1.99408,0.9808587,-0.1137205,-0.04063871,-58.01678,-8.082582,-7.910881
25.74928093,-5.699387,-39.9591,-1.441814,0.9663579,-0.1104021,-0.02031585,-58.01678,-8.082582,-7.910881
25.759192944,-4.894192,-38.21154,-1.625903,0.9431974,-0.1246813,-0.006752355,-58.01678,-8.082582,-7.910881
25.769104958,-4.398688,-37.86203,-4.387233,0.9408298,-0.1505254,-0.02947007,-59.13522,-7.697618,-5.336411
25.779017448,-6.62845799999998,-40.59987,-6.90311299999998,0.9466313,-0.1424419,-0.07412459,-59.13522,-7.697618,-5.336411
25.788929462,-7.49559099999998,-45.02702,-7.76219299999999,0.9651103,-0.1376324,-0.1261205,-59.13522,-7.697618,-5.336411
25.798841476,-1.054033,-46.83283,-8.86672600000002,0.9583785,-0.09864337,-0.1646913,-59.13522,-7.697618,-5.336411
25.808754444,7.05985200000002,-44.96877,-10.4008,0.9507293,-0.06524043,-0.1562354,-59.13522,-7.697618,-5.336411
25.818665981,11.95296,-44.26974,-10.8917,0.9423481,-0.03757543,-0.1305252,-59.13387,-7.315965,-3.602961
