Time (s),Gyroscope X (deg/s),Gyroscope Y (deg/s),Gyroscope Z (deg/s),Accelerometer X (g),Accelerometer Y (g),Accelerometer Z (g),Magnetometer X (uT),Magnetometer Y (uT),Magnetometer Z (uT)
11.817071915,3.45829,5.368793,0.804627399999999,0.03612738,-0.0263143,0.5410925,-11.84334,-30.05858,-35.28257
11.826930046,-2.442722,0.786604499999998,0.3755064,0.05256511,-0.04463994,0.546454,-11.84334,-30.05858,-35.28257
11.836787701,-8.15738599999999,-3.736075,-0.6053416,0.03208676,-0.106184,0.5332881,-10.35444,-28.9714,-35.30161
11.846645832,-9.399704,-8.08022700000001,-0.789250600000002,0.03022866,-0.1144731,0.5332446,-10.35444,-28.9714,-35.30161
11.856503487,-7.28776300000003,-12.78143,-0.911856500000002,0.02937718,-0.1080986,0.5481657,-10.35444,-28.9714,-35.30161
11.866361618,-3.250229,-17.48264,-1.095766,0.04304338,-0.06599867,0.5828286,-10.35444,-28.9714,-35.30161
11.876219749,-1.076172,-21.41023,-0.6053416,0.0629162,0.001013576,0.6281556,-10.35444,-28.9714,-35.30161
11.886076927,-1.697331,-25.63536,-0.4827355,0.08487624,0.01695172,0.6739804,-11.09788,-29.69907,-35.2902
11.895934582,-3.125997,-29.44393,-1.340978,0.09249337,-0.02085014,0.6970335,-11.09788,-29.69907,-35.2902
11.905792713,-1.014056,-32.65742,-2.137917,0.09564541,-0.07859092,0.7338789,-11.09788,-29.69907,-35.2902
11.915650845,4.576376,-35.39483,-2.383129,0.1027222,-0.1071354,0.7613307,-11.09788,-29.69907,-35.2902
11.925508499,9.35930300000001,-37.41813,-2.444432,0.1217829,-0.1068363,0.796043,-11.09788,-29.69907,-35.2902
11.935366631,8.30333200000001,-39.02487,-2.505734,0.1280758,-0.07213486,0.8216438,-11.47362,-29.3266,-35.29204
11.945224285,2.775015,-40.86965,-2.873553,0.1253893,-0.03316699,0.8383037,-11.47362,-29.3266,-35.29204
11.955082417,-3.99562,-43.48804,-3.180068,0.1310821,-0.01607766,0.8402836,-11.47362,-29.3266,-35.29204
11.964940548,-9.21335600000002,-47.53465,-3.731794,0.1406219,0.004933151,0.8408042,-11.47362,-29.3266,-35.29204
11.977262974,-15.67341,-54.73523,-5.08046,0.1175045,0.009087767,0.8354184,-11.47362,-29.3266,-35.29204
11.987120628,-19.46248,-62.76894,-6.24521700000002,0.109305,0.007582707,0.8427105,-12.96653,-29.67748,-35.28054
11.996978283,-24.30752,-71.5762600000002,-8.206914,0.1190439,-0.002949252,0.8659636,-12.96653,-29.67748,-35.28054
12.006835938,-30.33277,-77.2296100000001,-9.49427599999999,0.1551173,-0.03377604,0.8651893,-12.96653,-29.67748,-35.28054
12.016694069,-34.99146,-80.6811299999999,-9.61688199999998,0.1751903,-0.08032838,0.8611559,-12.96653,-29.67748,-35.28054
12.026551723,-33.9976,-83.8351000000001,-9.43297400000002,0.184782,-0.1153137,0.8520984,-12.96653,-29.67748,-35.28054
12.036409855,-30.457,-88.17925,-10.72034,0.1899101,-0.1182675,0.8309156,-14.8292,-29.64432,-34.43871
12.046267986,-26.29523,-93.4160399999998,-13.04985,0.2078909,-0.109,0.7943184,-14.8292,-29.64432,-34.43871
12.056125641,-24.49387,-99.6049700000002,-15.62458,0.2342594,-0.089874,0.7715816,-14.8292,-29.64432,-34.43871
12.065983772,-25.11503,-106.5675,-17.89279,0.2662475,-0.06344406,0.7368464,-14.8292,-29.64432,-34.43871
12.075841427,-27.84813,-112.8755,-20.03839,0.303198,-0.08856753,0.6977717,-14.8292,-29.64432,-34.43871
12.085699558,-26.79216,-118.8264,-21.87748,0.3397392,-0.09951399,0.6770322,-17.00933,-28.50312,-33.60657
12.09555769,-21.26385,-126.384,-24.3909,0.3793634,-0.1025807,0.6740456,-17.00933,-28.50312,-33.60657
12.105415344,-11.26318,-133.406,-26.72042,0.4591848,-0.1041566,0.7141058,-17.00933,-28.50312,-33.60657
12.115273476,-0.3928965,-134.8938,-27.76257,0.5494157,-0.0795086,0.7154238,-17.00933,-28.50312,-33.60657
12.12513113,1.222117,-133.3465,-29.17254,0.5619382,-0.03125269,0.7075061,-17.00933,-28.50312,-33.60657
12.134988785,-1.200403,-131.3827,-28.86602,0.53397,-0.06192897,0.6386412,-20.73189,-28.43145,-31.53881
12.144846439,0.4146104,-130.8472,-26.84302,0.5254696,-0.1035544,0.5885742,-20.73189,-28.43145,-31.53881
12.157169342,7.30947700000003,-133.2275,-25.67827,0.5781335,-0.1135225,0.531194,-20.73189,-28.43145,-31.53881
12.167026997,16.44052,-135.5484,-27.02693,0.640712,-0.09491424,0.5443559,-20.73189,-28.43145,-31.53881
12.176885128,24.45347,-138.1668,-29.11123,0.698692,-0.1070239,0.552053,-20.73189,-28.43145,-31.53881
12.186742783,31.5968,-141.6778,-31.19554,0.739702,-0.0949659,0.5563622,-24.07349,-29.09415,-29.01735
12.196600914,40.23092,-143.7011,-32.72811,0.7636945,-0.06350072,0.585517,-24.07349,-29.09415,-29.01735
12.206459045,42.15651,-148.6403,-33.89287,0.7655176,-0.03645118,0.5277362,-24.07349,-29.09415,-29.01735
12.2163167,35.69645,-153.163,-32.29899,0.7986891,0.02338048,0.5732923,-24.07349,-29.09415,-29.01735
12.226173878,22.52788,-156.317,-30.27599,0.830092,0.0645607,0.5803803,-24.07349,-29.09415,-29.01735
12.236032009,8.80025999999999,-157.9237,-29.60166,0.8760204,0.073252,0.5836325,-28.45646,-30.82679,-24.87875
12.245890141,0.663074000000001,-157.7452,-29.29514,0.9160717,0.04687228,0.5914648,-28.45646,-30.82679,-24.87875
12.255747795,-2.629069,-157.9237,-30.58251,0.9487107,0.01747694,0.5912306,-28.45646,-30.82679,-24.87875
12.265605927,0.973653600000002,-158.5188,-33.46375,0.9776461,-0.01642242,0.5665722,-28.45646,-30.82679,-24.87875
12.275463581,6.68831799999999,-159.8875,-37.26453,0.9875664,-0.04181977,0.5182965,-28.45646,-30.82679,-24.87875
12.285321713,11.53336,-161.7918,-40.14577,1.001644,-0.04771896,0.4691678,-31.4056,-32.2016,-20.30323
12.295179367,20.47805,-163.8151,-39.90056,1.03479,-0.01439404,0.4536422,-31.4056,-32.2016,-20.30323
12.305037499,32.28008,-166.612,-37.08062,1.075461,0.07253633,0.5707209,-31.4056,-32.2016,-20.30323
12.31489563,35.8828,-169.2304,-35.79326,1.085746,0.1416886,0.5606155,-31.4056,-32.2016,-20.30323
12.327218056,20.72651,-170.7776,-36.34499,1.103341,0.1682042,0.5826316,-31.4056,-32.2016,-20.30323
12.337075234,8.30333200000001,-169.766,-34.81241,1.110945,0.1462397,0.5468771,-33.2279,-33.51641,-14.90197
12.346933365,1.843277,-169.1114,-32.05378,1.120636,0.1166532,0.5498437,-33.2279,-33.51641,-14.90197
12.35679102,1.967508,-166.9691,-30.33729,1.147558,0.08103789,0.591329,-33.2279,-33.51641,-14.90197
12.366649151,-0.3307806,-164.1722,-30.82772,1.16036,0.01735175,0.5771915,-33.2279,-33.51641,-14.90197
12.376507282,-2.380606,-158.7569,-31.62466,1.167261,-0.01563691,0.5878363,-33.2279,-33.51641,-14.90197
12.386364937,-0.3307806,-155.1268,-29.54036,1.156524,-0.03148349,0.5399356,-35.35528,-35.99342,-9.487142
12.396223068,5.445999,-150.9612,-26.90433,1.177219,-0.03006459,0.4802319,-35.35528,-35.99342,-9.487142
12.406080723,13.45895,-149.771,-23.41006,1.201903,0.004609751,0.4552544,-35.35528,-35.99342,-9.487142
12.415938854,20.72651,-148.6998,-21.50966,1.23674,0.04812919,0.4292484,-35.35528,-35.99342,-9.487142
12.425796986,25.82002,-147.7477,-21.20315,1.262161,0.08713749,0.3904001,-35.35528,-35.99342,-9.487142
12.43565464,26.87599,-147.1526,-20.2836,1.290281,0.1345394,0.377461,-36.81226,-37.39084,-5.303433
12.445512772,25.07463,-147.1526,-18.93494,1.301302,0.1686141,0.3545899,-36.81226,-37.39084,-5.303433
12.455370426,20.10535,-145.7839,-20.161,1.30638,0.1874808,0.3129864,-36.81226,-37.39084,-5.303433
12.465228558,15.88147,-146.0219,-19.91578,1.293566,0.2042938,0.2850382,-36.81226,-37.39084,-5.303433
12.475086689,8.86237499999997,-145.4268,-20.89663,1.297294,0.1676585,0.2391519,-36.81226,-37.39084,-5.303433
12.484943867,5.383883,-143.9391,-21.69357,1.277753,0.1391757,0.2161885,-36.39109,-38.41941,0.4671888
12.497266293,5.13542,-141.2017,-22.49051,1.255194,0.1028316,0.1802633,-36.39109,-38.41941,0.4671888
12.507124424,8.05486800000002,-138.6428,-23.16484,1.229888,0.08262651,0.1723071,-36.39109,-38.41941,0.4671888
12.516982079,11.71971,-135.4889,-23.71657,1.205094,0.07366157,0.1759392,-36.39109,-38.41941,0.4671888
12.52684021,14.76339,-131.9183,-23.96178,1.187238,0.06429446,0.1856986,-36.39109,-38.41941,0.4671888
12.536697865,16.99956,-127.2171,-23.65527,1.164909,0.05584504,0.1912167,-36.72211,-40.19257,5.032954
12.546555996,19.17362,-122.2779,-23.28745,1.15777,0.04851337,0.199403,-36.72211,-40.19257,5.032954
12.556414127,21.16133,-116.5055,-21.75488,1.147585,0.04063586,0.1990025,-36.72211,-40.19257,5.032954
12.566271782,21.8446,-110.3761,-19.36406,1.138134,0.05222639,0.1977974,-36.72211,-40.19257,5.032954
12.576129913,20.78863,-103.7706,-17.15715,1.131799,0.05901223,0.2056122,-36.72211,-40.19257,5.032954
12.585987091,18.17976,-96.451,-14.27591,1.136335,0.05713623,0.2136781,-36.68543,-40.86562,9.585476
12.595845222,13.95588,-89.3099199999998,-12.13031,1.124868,0.06381033,0.2038346,-36.68543,-40.86562,9.585476
12.605702877,9.794114,-81.6927799999998,-10.53643,1.121941,0.05220444,0.2301344,-36.68543,-40.86562,9.585476
12.615561008,6.62620199999998,-73.8375999999997,-8.697337,1.127037,0.04045322,0.1988146,-36.68543,-40.86562,9.585476
12.625418663,5.321767,-66.9345600000002,-6.91955000000002,1.131532,0.04198325,0.2069098,-36.68543,-40.86562,9.585476
12.635276794,4.949072,-59.5554500000002,-4.590036,1.130845,0.05315169,0.2022219,-35.90974,-41.19161,13.23417
12.645134926,2.961363,-52.41438,-3.24137,1.134351,0.07259912,0.1893977,-35.90974,-41.19161,13.23417
12.65499258,0.973653600000002,-44.61871,-2.015311,1.129456,0.09536645,0.1733668,-35.90974,-41.19161,13.23417
12.664850712,-1.635215,-37.65617,-1.58619,1.125252,0.1483306,0.1628521,-35.90974,-41.19161,13.23417
12.677173138,-6.977184,-29.02737,-2.321826,1.096642,0.1805876,0.1381345,-35.90974,-41.19161,13.23417
12.687031269,-12.00857,-23.31451,-3.793097,1.079904,0.1895513,0.1025088,-35.15354,-41.18332,14.44657
12.696888447,-15.67341,-17.30411,-4.773945,1.071527,0.1958074,0.1036394,-35.15354,-41.18332,14.44657
12.706746578,-17.47477,-13.01947,-6.06130799999997,1.078719,0.1684899,0.06880396,-35.15354,-41.18332,14.44657
12.716604233,-17.35054,-8.25875400000001,-6.79694399999997,1.072104,0.1196734,0.04308868,-35.15354,-41.18332,14.44657
12.726462364,-13.43724,-3.43853,-6.36782300000001,1.063332,0.07078208,0.002548347,-35.15354,-41.18332,14.44657
12.736320019,-6.231793,0.5485688,-5.448278,1.061073,0.03907912,-0.0115838,-35.14555,-41.53988,15.28252
12.74617815,1.03577,3.702542,-4.590036,1.043878,0.03988306,-0.01612394,-35.14555,-41.53988,15.28252
12.756036282,7.74428800000002,5.78535500000003,-3.793097,1.023546,0.04841486,-0.02870054,-35.14555,-41.53988,15.28252
12.765893936,12.96203,7.92767700000003,-2.873553,1.013507,0.06778447,-0.03031078,-35.14555,-41.53988,15.28252
12.775752068,16.12994,10.42705,-0.911856500000002,1.001399,0.08612844,-0.041005,-35.14555,-41.53988,15.28252
12.785609722,17.9313,12.98594,0.927233400000001,0.98925,0.1194604,-0.07744889,-34.07974,-42.22081,15.73206
12.795467853,19.42208,14.83071,1.417657,0.976429,0.1401772,-0.1024889,-34.07974,-42.22081,15.73206
12.805325508,20.97498,15.84237,0.927233400000001,0.9616652,0.135628,-0.1128593,-34.07974,-42.22081,15.73206
12.815183639,19.85689,17.21107,1.172445,0.9518906,0.1360322,-0.1117581,-34.07974,-42.22081,15.73206
12.825041771,19.35996,17.80616,1.785475,0.933168,0.1529175,-0.1065568,-34.07974,-42.22081,15.73206
12.834899425,17.24802,17.3896,1.662869,0.9295896,0.1494256,-0.1209112,-34.76492,-42.2129,15.7356
12.847221374,12.65145,17.3896,2.030687,0.9358626,0.1237165,-0.1140296,-34.76492,-42.2129,15.7356
12.857079506,8.86237499999997,17.50862,2.950232,0.9421259,0.1125161,-0.1309854,-34.76492,-42.2129,15.7356
12.86693716,5.75657900000002,17.56812,4.176292,0.9537143,0.1125767,-0.1421717,-34.76492,-42.2129,15.7356
12.876795292,3.76887,18.22272,5.279747,0.9735017,0.1268361,-0.1495213,-34.76492,-42.2129,15.7356
12.886653423,2.712899,18.63928,4.728019,0.9747641,0.1682899,-0.1281047,-34.76659,-41.90611,15.73245
12.896511078,-0.2065488,18.22272,2.888929,0.972882,0.1526706,-0.1363561,-34.76659,-41.90611,15.73245
12.906369209,-2.380606,18.34174,2.153293,0.9830285,0.1138026,-0.1440167,-34.76659,-41.90611,15.73245
12.916226864,-1.635215,18.1037,1.356354,0.9711733,0.122454,-0.1447331,-34.76659,-41.90611,15.73245
12.926084995,-0.3928965,17.86567,0.743324399999998,0.9581136,0.1364027,-0.1573676,-34.76659,-41.90611,15.73245
12.935943127,0.725189899999998,17.33009,0.4368094,0.9627738,0.1432151,-0.1683982,-35.14555,-41.53988,15.28252
12.945800781,2.464436,16.43745,0.804627399999999,0.966531,0.1480875,-0.1755986,-35.14555,-41.53988,15.28252
12.955657959,2.215972,15.84237,0.927233400000001,0.9508455,0.1464752,-0.1792222,-35.14555,-41.53988,15.28252
12.96551609,2.650783,14.7712,1.049839,0.9385935,0.1429429,-0.1838694,-35.14555,-41.53988,15.28252
12.975374222,4.576376,12.80741,1.172445,0.9252985,0.1481716,-0.1855526,-35.14555,-41.53988,15.28252
12.985231876,5.94292600000003,10.84361,1.356354,0.9243002,0.1564571,-0.179718,-35.15032,-41.17708,14.89467
12.995090008,5.445999,9.05834700000001,1.908081,0.9223345,0.1588784,-0.178232,-35.15032,-41.17708,14.89467
13.004947662,4.327913,7.09455200000001,2.582414,0.9214129,0.1662093,-0.1676146,-35.15032,-41.17708,14.89467
13.017270565,1.470581,5.011739,2.888929,0.920845,0.1788765,-0.1622284,-35.15032,-41.17708,14.89467
13.02712822,-0.4550124,3.82156,3.440656,0.9257692,0.1750232,-0.1632895,-35.15032,-41.17708,14.89467
13.036986351,-2.380606,2.571872,3.563262,0.9224944,0.1613651,-0.1643165,-35.52727,-41.179,14.4485
13.046844006,-2.877533,1.322185,3.256747,0.9143091,0.1476585,-0.1667115,-35.52727,-41.179,14.4485
13.056702137,-1.510983,0.07249729,3.195444,0.9169505,0.139436,-0.1596306,-35.52727,-41.179,14.4485
13.066560268,-0.02020105,-1.236699,3.011535,0.9139865,0.1457487,-0.1561806,-35.52727,-41.179,14.4485
13.076417446,-0.3307806,-2.843441,2.582414,0.9198655,0.1394563,-0.1611096,-35.52727,-41.179,14.4485
13.086275101,-1.076172,-3.914601,2.275899,0.9195088,0.1365604,-0.1539409,-35.52927,-40.81086,14.44473
13.096133232,-2.256374,-5.461833,2.153293,0.9254746,0.1273633,-0.155062,-35.52927,-40.81086,14.44473
13.105991364,-2.504838,-6.29495900000002,1.908081,0.9294632,0.1171666,-0.1585592,-35.52927,-40.81086,14.44473
13.115849018,-1.883678,-7.30661099999998,1.540263,0.9359419,0.106516,-0.1592207,-35.52927,-40.81086,14.44473
13.12570715,-0.579244300000001,-8.31826200000003,1.172445,0.9443825,0.1080897,-0.1487853,-35.52927,-40.81086,14.44473
13.135564804,0.663074000000001,-9.21089600000002,0.5594154,0.9592337,0.1014346,-0.1418651,-34.84611,-40.45062,14.43742
13.145422936,0.911537699999999,-10.22255,0.007688423,0.9737518,0.1156783,-0.1409935,-34.84611,-40.45062,14.43742
13.155281067,0.4146104,-10.69862,-0.3601296,0.9821502,0.1152871,-0.1353661,-34.84611,-40.45062,14.43742
13.165138722,-1.014056,-11.35322,-0.6666446,0.9858468,0.1230715,-0.1444578,-34.84611,-40.45062,14.43742
13.174996853,-1.945794,-11.82929,-0.789250600000002,0.996304,0.1085683,-0.1437709,-34.84611,-40.45062,14.43742
13.184854507,-2.442722,-12.00782,-0.6666446,0.9907637,0.08468729,-0.1405391,-35.52405,-41.17276,14.8966
13.197176456,-0.1444329,-12.18634,-0.789250600000002,0.9912643,0.07932438,-0.144425,-35.52405,-41.17276,14.8966
13.207034588,2.215972,-12.48389,-0.789250600000002,0.9992307,0.07357474,-0.1393159,-35.52405,-41.17276,14.8966
13.216892719,3.76887,-12.66241,-0.6666446,1.002286,0.07607616,-0.1283168,-35.52405,-41.17276,14.8966
13.226750374,5.321767,-12.5434,-0.3601296,1.001822,0.07998491,-0.123006,-35.52405,-41.17276,14.8966
13.236608505,6.439854,-12.48389,0.3755064,1.005743,0.08490369,-0.1182283,-35.8938,-40.78872,15.72694
13.24646616,6.56408599999997,-12.18634,1.295051,1.005229,0.1034451,-0.1036886,-35.8938,-40.78872,15.72694
13.256324291,5.13542,-11.71027,1.908081,0.9988398,0.1087508,-0.1011567,-35.8938,-40.78872,15.72694
13.266182423,3.520406,-10.93666,2.827626,0.9980222,0.1029292,-0.09448542,-35.8938,-40.78872,15.72694
13.276040077,2.278088,-9.865495,3.563262,0.9918354,0.09999277,-0.08435883,-35.8938,-40.78872,15.72694
13.285898209,2.278088,-8.55629800000001,4.237596,0.9896923,0.09322228,-0.06809264,-35.52007,-40.79304,15.72501
13.295755863,2.712899,-7.24710100000002,4.789322,0.9969772,0.0855957,-0.04286326,-35.52007,-40.79304,15.72501
13.305613995,2.650783,-5.342815,5.095838,0.998286,0.09351025,-0.01166716,-35.52007,-40.79304,15.72501
13.315471649,1.781161,-3.260003,5.034534,1.008941,0.08492207,0.008714076,-35.52007,-40.79304,15.72501
13.325329781,0.3524944,-0.5225921,5.647564,1.014296,0.06459194,0.02475896,-35.52007,-40.79304,15.72501
13.335187912,-0.2065488,3.82156,5.402352,1.022008,0.04572267,0.03551139,-35.14635,-40.79735,15.72307
13.345045567,1.03577,8.998837,5.402352,1.031438,0.02986746,0.06734954,-35.14635,-40.79735,15.72307
13.354903698,3.706754,14.35464,5.586261,1.040611,0.02419141,0.08921409,-35.14635,-40.79735,15.72307
13.367225647,5.445999,21.13866,5.83147299999998,1.05485,0.02739665,0.1316869,-35.14635,-40.79735,15.72307
13.377083302,4.949072,27.32759,6.44450299999999,1.072763,0.03203294,0.1578267,-35.89179,-41.15686,15.73071
13.386941433,3.76887,33.09996,7.30274499999998,1.096659,0.04687092,0.1652786,-35.89179,-41.15686,15.73071
13.396799564,2.029624,39.94349,8.22229000000003,1.1251,0.05300036,0.1754673,-35.89179,-41.15686,15.73071
13.406657219,0.2282626,47.14407,8.77401600000001,1.163235,0.03149705,0.1905559,-35.89179,-41.15686,15.73071
13.41651535,-1.386751,54.93974,9.08053200000002,1.20942,-0.0006142647,0.2126282,-35.89179,-41.15686,15.73071
13.426373005,-1.635215,62.9734400000001,9.44834999999999,1.255227,-0.03269832,0.2428526,-35.89179,-41.15686,15.73071
13.436231136,-0.3928965,71.8997800000001,10.12268,1.306497,-0.06568775,0.2782626,-35.90777,-40.44373,14.05881
13.446089268,1.346349,81.0046499999997,10.12268,1.328972,-0.08879597,0.291644,-35.90777,-40.44373,14.05881
13.455946922,2.837131,89.75246,10.5518,1.34188,-0.09155896,0.3029376,-35.90777,-40.44373,14.05881
13.465805054,4.762724,98.2622399999998,11.77786,1.352745,-0.09094612,0.3109342,-35.90777,-40.44373,14.05881
13.475662708,5.445999,105.4033,12.94262,1.36526,-0.09807963,0.3255509,-35.90777,-40.44373,14.05881
13.485520363,5.011188,114.1511,15.08823,1.409454,-0.1102009,0.3626754,-36.66444,-40.45292,12.7824
13.495378018,4.638493,124.8627,17.17253,1.463275,-0.1206804,0.4255534,-36.66444,-40.45292,12.7824
13.505236149,1.594813,136.467,17.96947,1.527692,-0.1568525,0.4895012,-36.66444,-40.45292,12.7824
13.515093804,0.1040308,150.0945,19.37944,1.596651,-0.1992929,0.5581233,-36.66444,-40.45292,12.7824
13.524951935,0.1040308,163.3055,21.64765,1.639499,-0.1996749,0.6145341,-36.66444,-40.45292,12.7824
13.534810066,-1.448867,176.695,23.67065,1.700522,-0.2042695,0.6725671,-37.82063,-39.39166,8.744008
13.547132492,-0.5171283,197.3446,27.41013,1.771148,-0.244334,0.7220176,-37.82063,-39.39166,8.744008
13.556990147,4.452145,213.8286,30.29137,1.784601,-0.2270594,0.7550364,-37.82063,-39.39166,8.744008
13.566848278,10.35316,229.2414,32.19176,1.784698,-0.1929909,0.7562809,-37.82063,-39.39166,8.744008
13.576706409,12.71356,242.4524,35.0117,1.812208,-0.1436749,0.7361786,-38.61201,-37.97993,3.739712
13.586564064,12.21663,255.5444,39.85464,1.875547,-0.1007087,0.7548065,-38.61201,-37.97993,3.739712
13.596422195,14.018,269.3504,45.12669,1.919912,-0.06094623,0.7425297,-38.61201,-37.97993,3.739712
13.60627985,14.70127,279.6455,49.60181,1.96215,0.007555382,0.7429851,-38.61201,-37.97993,3.739712
13.616137981,13.33472,287.9767,53.95433,1.989319,0.05216233,0.7654967,-38.61201,-37.97993,3.739712
13.625995159,9.11083900000002,295.2963,58.42945,1.972763,0.06996612,0.7510277,-38.61201,-37.97993,3.739712
13.63585329,2.09174,299.8785,63.3336799999999,1.927515,0.07926269,0.7416879,-37.92993,-36.99905,-4.533244
13.645710945,-4.430431,303.33,65.1727699999997,1.850745,0.004028407,0.7143536,-37.92993,-36.99905,-4.533244
13.655569076,-0.579244300000001,305.9484,68.97356,1.758844,-0.1507766,0.6554154,-37.92993,-36.99905,-4.533244
13.665427208,18.24188,308.4478,72.2226200000002,1.676759,-0.2574214,0.5694293,-37.92993,-36.99905,-4.533244
13.675284862,50.10735,307.1981,72.7130400000001,1.614483,-0.2708432,0.5112622,-37.92993,-36.99905,-4.533244
13.685142994,82.2212799999998,303.8061,70.2609199999998,1.564949,-0.2066528,0.4871123,-36.89366,-34.57217,-14.42356
13.695000648,104.4588,296.9626,65.8471099999998,1.516153,-0.09969378,0.4470201,-36.89366,-34.57217,-14.42356
13.70485878,114.9564,287.5602,62.0463200000001,1.42678,0.006560087,0.4443986,-36.89366,-34.57217,-14.42356
13.717181206,112.9065,272.3854,57.01948,1.267912,0.07362007,0.4055384,-36.89366,-34.57217,-14.42356
13.727039337,106.1359,259.2934,52.11524,1.160082,0.05796063,0.3772328,-32.54076,-31.84366,-21.96557
13.736897469,99.1168000000002,246.9156,47.211,1.048134,0.02769665,0.3570089,-32.54076,-31.84366,-21.96557
13.746754646,95.4519699999999,235.5493,43.71672,0.9534363,0.01617358,0.3625742,-32.54076,-31.84366,-21.96557
13.756612301,93.9611800000003,224.9568,42.12285,0.8816748,0.03106736,0.3512634,-32.54076,-31.84366,-21.96557
13.766470432,86.0724600000001,215.5544,40.89679,0.8116338,0.07458124,0.311897,-32.54076,-31.84366,-21.96557
13.776328564,72.7796600000002,206.3305,40.59027,0.7435781,0.1156794,0.2724818,-27.70574,-31.94521,-25.25539
13.786186218,57.9339500000001,197.0471,39.67073,0.6589409,0.1486981,0.1939405,-27.70574,-31.94521,-25.25539
13.79604435,38.92648,185.3238,37.70903,0.57941,0.1647333,0.1161414,-27.70574,-31.94521,-25.25539
13.805902004,24.01866,172.946,35.37952,0.4970768,0.1400397,0.0840417,-27.70574,-31.94521,-25.25539
13.815760136,14.14223,160.211,34.64388,0.4346453,0.1182737,0.007117494,-27.70574,-31.94521,-25.25539
13.825618267,5.694463,148.8448,35.073,0.3564712,0.1046436,-0.06903447,-20.6891,-32.44098,-28.61671
13.835475922,0.600958099999998,137.2406,37.096,0.2771289,0.06973909,-0.106055,-20.6891,-32.44098,-28.61671
13.845334053,-0.641360199999998,126.529,40.95809,0.2010117,0.06250188,-0.1692439,-20.6891,-32.44098,-28.61671
13.855191708,0.3524944,114.5082,44.39106,0.1080504,0.1281558,-0.2195977,-20.6891,-32.44098,-28.61671
13.865049839,0.911537699999999,101.4757,46.04624,0.04662989,0.2140355,-0.2711886,-20.6891,-32.44098,-28.61671
13.874907494,-0.579244300000001,88.26474,43.47152,-0.01800171,0.2896929,-0.3161113,-20.6891,-32.44098,-28.61671
13.887229443,1.905392,72.43536,38.01555,-0.08372907,0.3439614,-0.3525733,-16.20632,-33.24065,-29.46453
13.897087574,6.68831799999999,60.8906299999997,31.82394,-0.1393566,0.3853598,-0.3413679,-16.20632,-33.24065,-29.46453
13.906945705,14.70127,49.82197,24.03846,-0.1837366,0.4170921,-0.3390299,-16.20632,-33.24065,-29.46453
13.91680336,19.79478,39.22938,15.27213,-0.2529057,0.4257023,-0.3451595,-16.20632,-33.24065,-29.46453
13.926661491,26.75176,27.68464,8.89662299999997,-0.2722414,0.3877838,-0.2896168,-13.28877,-32.54975,-30.31938
13.936519146,32.90123,14.23562,5.279747,-0.2947229,0.3950491,-0.2456279,-13.28877,-32.54975,-30.31938
13.946377277,30.72718,-1.593753,2.950232,-0.3315166,0.4503522,-0.204384,-13.28877,-32.54975,-30.31938
13.956235409,21.96883,-18.19674,2.214596,-0.3779979,0.4735082,-0.1484182,-13.28877,-32.54975,-30.31938
13.966093063,11.2849,-34.68072,2.521111,-0.3581866,0.5007387,-0.0708404,-13.28877,-32.54975,-30.31938
13.975951195,-0.827707900000002,-50.62912,2.214596,-0.2853223,0.5139884,0.04611598,-12.15959,-32.91926,-29.48923
13.985808849,-13.93417,-65.0302699999998,1.111142,-0.2314262,0.5191537,0.1282929,-12.15959,-32.91926,-29.48923
13.995666981,-32.50682,-76.5750099999998,0.4368094,-0.2256642,0.4800339,0.193531,-12.15959,-32.91926,-29.48923
14.005525112,-48.59484,-85.6203700000002,1.540263,-0.1877366,0.443742,0.2880448,-12.15959,-32.91926,-29.48923
14.015382767,-60.4589799999999,-92.7614400000001,1.111142,-0.1377221,0.4088472,0.3373534,-12.15959,-32.91926,-29.48923
14.025240898,-70.3975299999998,-98.6528199999999,-0.789250600000002,-0.1052243,0.373335,0.3931361,-13.27957,-32.53193,-29.0391
14.035098553,-75.6773800000002,-104.0681,-2.444432,-0.05990343,0.3223419,0.442855,-13.27957,-32.53193,-29.0391
14.044956684,-75.1183400000002,-109.9,-4.835248,-0.004409852,0.3269339,0.4981692,-13.27957,-32.53193,-29.0391
14.054814816,-72.63371,-115.9104,-10.41382,0.0478958,0.3187339,0.5237104,-13.27957,-32.53193,-29.0391
14.067136288,-65.8009600000001,-125.3723,-18.50582,0.09756565,0.2628821,0.5651799,-13.27957,-32.53193,-29.0391
14.076994419,-55.4276,-134.0606,-24.57481,0.1593142,0.2377188,0.5866098,-16.58808,-31.76374,-29.47768
14.086852551,-46.54502,-143.5226,-30.3986,0.2200154,0.2271739,0.6158453,-16.58808,-31.76374,-29.47768
14.096710205,-43.56346,-152.8655,-34.99632,0.2681137,0.2046969,0.6073028,-16.58808,-31.76374,-29.47768
14.106568337,-44.1225,-161.9108,-37.57105,0.3224088,0.1838296,0.6240832,-16.58808,-31.76374,-29.47768
14.116425991,-43.87403,-170.1826,-38.36799,0.3781477,0.18578,0.6233053,-16.58808,-31.76374,-29.47768
14.126284122,-47.22829,-178.4543,-39.47144,0.4240466,0.2183861,0.6454487,-20.3242,-30.23017,-28.19317
14.136142254,-54.06105,-185.9524,-41.92356,0.4837551,0.2446633,0.634277,-20.3242,-30.23017,-28.19317
14.145999908,-62.7572699999999,-192.0818,-44.8048,0.55718,0.2428854,0.6356116,-20.3242,-30.23017,-28.19317
14.15585804,-67.9129000000002,-196.3665,-46.95041,0.6283401,0.235767,0.6455589,-20.3242,-30.23017,-28.19317
14.165715694,-70.33542,-200.4131,-50.56728,0.6887693,0.2211036,0.6153427,-20.3242,-30.23017,-28.19317
14.175573826,-72.5094800000001,-204.1622,-54.9198,0.7181527,0.1989142,0.5979646,-25.47145,-29.38249,-24.46119
14.185431957,-73.8760199999999,-208.2683,-57.9236499999998,0.7618695,0.1812865,0.5952761,-25.47145,-29.38249,-24.46119
14.195289612,-74.0623699999998,-209.756,-59.8240400000001,0.8059327,0.1471578,0.6034648,-25.47145,-29.38249,-24.46119
14.205147743,-73.5033299999998,-209.994,-61.2340000000001,0.8084979,0.1221788,0.5543391,-25.47145,-29.38249,-24.46119
14.215004921,-72.1988900000001,-211.4223,-62.2761599999999,0.825264,0.09524142,0.4685753,-25.47145,-29.38249,-24.46119
14.224863052,-67.22962,-214.5762,-61.9696400000001,0.8770005,0.09309086,0.4218166,-30.67822,-28.52875,-20.3448
14.237185478,-61.1422600000001,-220.8247,-61.9083400000002,0.9862814,0.07102989,0.3798202,-30.67822,-28.52875,-20.3448
14.24704361,-57.3531900000002,-221.7173,-62.3987600000002,1.079555,0.0344883,0.4069344,-30.67822,-28.52875,-20.3448
14.256901264,-53.37777,-220.4676,-61.4792200000001,1.1353,-0.01943539,0.4291655,-30.67822,-28.52875,-20.3448
14.266759396,-47.22829,-219.7535,-60.0692499999998,1.131345,-0.05547536,0.4303554,-30.67822,-28.52875,-20.3448
14.27661705,-41.57575,-220.5866,-57.6784299999998,1.15409,-0.06448334,0.4400184,-34.00188,-29.15671,-15.3268
14.286475182,-39.77439,-220.2296,-54.67458,1.19377,-0.05630487,0.4510226,-34.00188,-29.15671,-15.3268
14.296333313,-41.69998,-217.4922,-52.22247,1.220354,-0.07129318,0.4140981,-34.00188,-29.15671,-15.3268
14.306190968,-42.19691,-212.672,-50.44468,1.195694,-0.1092956,0.3302689,-34.00188,-29.15671,-15.3268
14.316049099,-33.87337,-208.9824,-47.86995,1.150865,-0.1261609,0.2210288,-34.00188,-29.15671,-15.3268
14.325906754,-19.71095,-208.1493,-45.17262,1.09692,-0.07337639,0.1503632,-37.62267,-30.86947,-9.143628
14.335764885,-8.28161699999999,-210.1726,-43.08832,1.111704,-0.02612782,0.1280289,-37.62267,-30.86947,-9.143628
14.345623016,-3.871388,-210.5296,-41.12662,1.146536,0.01850158,0.1384515,-37.62267,-30.86947,-9.143628
14.355480671,-2.070026,-208.2088,-40.39099,1.228273,-0.0715728,0.06177126,-37.62267,-30.86947,-9.143628
14.365337849,-19.33825,-214.2192,-38.36799,1.235515,-0.01671869,0.1388029,-37.62267,-30.86947,-9.143628
14.37519598,-35.79897,-214.4572,-34.32199,1.357445,-0.09052171,0.1536934,-39.42899,-32.89742,-2.070457
14.385053635,-45.73751,-209.6965,-31.13423,1.511236,-0.180354,0.2307697,-39.42899,-32.89742,-2.070457
14.394911766,-48.96754,-200.6511,-30.4599,1.612277,-0.2590488,0.2880862,-39.42899,-32.89742,-2.070457
14.407234192,-48.34638,-194.0457,-28.74342,1.59479,-0.3176216,0.2816115,-39.42899,-32.89742,-2.070457
14.417092323,-42.32114,-189.4039,-25.18784,1.57036,-0.3062475,0.2580957,-39.42899,-32.89742,-2.070457
14.426950455,-38.71841,-184.8218,-22.00009,1.603021,-0.3040369,0.2514193,-39.75328,-34.2855,3.707801
14.436808109,-39.15322,-175.0623,-21.32575,1.680982,-0.3252671,0.245337,-39.75328,-34.2855,3.707801
14.446666241,-38.15937,-162.6844,-21.26445,1.710663,-0.357271,0.2053495,-39.75328,-34.2855,3.707801
14.456523895,-33.81126,-154.3532,-22.85833,1.697364,-0.3336259,0.1836954,-39.75328,-34.2855,3.707801
14.466382027,-26.35735,-147.3906,-22.61312,1.669391,-0.2770463,0.1553404,-39.75328,-34.2855,3.707801
14.476240158,-18.90344,-141.2612,-21.01924,1.661256,-0.1983811,0.1302435,-40.45602,-36.4225,8.279268
14.486097813,-18.22017,-136.9171,-20.40621,1.717011,-0.1566619,0.093861,-40.45602,-36.4225,8.279268
14.495955944,-24.68022,-128.8239,-22.91963,1.745485,-0.1632169,0.09531665,-40.45602,-36.4225,8.279268
14.505813599,-33.9976,-120.6116,-26.72042,1.723509,-0.2013476,0.1005792,-40.45602,-36.4225,8.279268
14.51567173,-40.58189,-111.2092,-28.55951,1.694798,-0.2768299,0.1530634,-40.45602,-36.4225,8.279268
14.525528908,-39.8365,-100.4381,-30.21469,1.648622,-0.3409793,0.1546177,-39.30212,-37.48822,11.99759
14.535387039,-30.58123,-88.7148400000002,-32.11508,1.56818,-0.3997149,0.1236413,-39.30212,-37.48822,11.99759
14.545244694,-15.92188,-77.5271499999999,-32.97332,1.471763,-0.4141171,0.144062,-39.30212,-37.48822,11.99759
14.555102825,0.2282626,-66.3394699999998,-32.91202,1.378502,-0.3681603,0.1620718,-39.30212,-37.48822,11.99759
14.564960956,13.52107,-55.44934,-31.62466,1.291576,-0.2910431,0.1697119,-39.30212,-37.48822,11.99759
14.574818611,20.41593,-44.49969,-29.47905,1.219435,-0.2122998,0.186739,-38.52789,-39.67723,14.06479
14.587141037,19.85689,-30.81264,-26.53651,1.144795,-0.117617,0.1780595,-38.52789,-39.67723,14.06479
14.596999168,14.26646,-19.863,-24.14569,1.103205,-0.05722993,0.1590355,-38.52789,-39.67723,14.06479
14.6068573,7.68217200000001,-9.92500399999998,-23.96178,1.07574,-0.004546016,0.1287236,-38.52789,-39.67723,14.06479
14.616714954,2.09174,-0.1060295,-25.24915,1.037087,-0.01137253,0.08656817,-38.52789,-39.67723,14.06479
14.626573086,-0.889823900000002,7.57062300000002,-25.06524,0.988142,-0.06210065,0.04035529,-37.39274,-40.03516,15.72712
14.63643074,5.073304,14.53317,-23.77787,0.9677171,-0.08421831,0.02991735,-37.39274,-40.03516,15.72712
14.646288872,15.44666,20.7221,-23.04224,0.9467527,-0.04936731,0.03003107,-37.39274,-40.03516,15.72712
14.656147003,22.40364,25.54232,-22.49051,0.9126344,-0.002547323,0.008869296,-37.39274,-40.03516,15.72712
14.666004658,24.76405,28.7558,-21.14185,0.8894105,0.03415293,-0.01157475,-37.39274,-40.03516,15.72712
14.675862789,25.01251,32.0288,-19.05754,0.8941433,0.05465641,-0.005239577,-36.26477,-40.77906,16.11295
14.685719967,24.08077,35.59933,-15.50197,0.9106807,0.07186456,0.00281634,-36.26477,-40.77906,16.11295
14.695578098,21.65825,39.05085,-12.069,0.9377952,0.09741511,0.00456232,-36.26477,-40.77906,16.11295
14.705435753,18.7388,42.7404,-8.57473199999998,0.9528819,0.1082681,0.008272486,-36.26477,-40.77906,16.11295
14.715293884,14.94973,45.3588,-4.896551,0.9742891,0.1157488,0.006113713,-36.26477,-40.77906,16.11295
14.725151539,12.03029,46.84652,-1.279675,0.9954495,0.1192532,-0.01763907,-35.891,-41.8994,15.29015
14.73500967,10.29104,48.51277,1.908081,1.011868,0.1046927,-0.04626873,-35.891,-41.8994,15.29015
14.744867802,10.47739,50.00049,4.789322,1.019688,0.1046248,-0.0827999,-35.891,-41.8994,15.29015
14.757190227,14.57704,51.07166,8.03838099999998,1.009716,0.1248549,-0.1145934,-35.891,-41.8994,15.29015
14.767048359,17.68283,50.29804,9.632258,1.006345,0.1373984,-0.1355243,-35.891,-41.8994,15.29015
14.776906013,19.23573,48.81031,10.85832,1.009426,0.152466,-0.147421,-36.27473,-41.17037,14.45236
14.786764145,19.17362,47.56063,12.32959,1.014995,0.1734257,-0.1511571,-36.27473,-41.17037,14.45236
14.796621799,16.44052,45.3588,13.73956,1.026487,0.1964056,-0.1492102,-36.27473,-41.17037,14.45236
14.806479931,10.22893,43.395,14.84301,1.034868,0.1974742,-0.1435702,-36.27473,-41.17037,14.45236
14.816338062,3.147711,41.66924,15.63995,1.026837,0.1779528,-0.1397869,-36.27473,-41.17037,14.45236
14.826195717,-2.380606,40.12201,16.13038,1.017879,0.1579491,-0.13264,-36.28669,-41.19353,12.788
14.836053848,-4.927359,38.7533,16.43689,1.010918,0.1389507,-0.1216796,-36.28669,-41.19353,12.788
14.845911026,-4.989474,37.3846,16.6208,1.001449,0.1350481,-0.1019304,-36.28669,-41.19353,12.788
14.855769157,-4.368315,36.31344,16.4982,0.9894094,0.1384115,-0.08495842,-36.28669,-41.19353,12.788
14.865626812,-4.678895,34.88522,16.13038,0.9855707,0.1486509,-0.07044131,-36.28669,-41.19353,12.788
14.875484943,-6.85295199999998,34.64719,16.06907,0.9867594,0.1501843,-0.05367333,-37.05046,-39.72835,11.62454
14.885342598,-9.58605199999997,34.7662,16.31429,1.001033,0.1372879,-0.02283765,-37.05046,-39.72835,11.62454
14.895200729,-12.25704,36.0159,15.94647,1.021345,0.1152148,0.01214734,-37.05046,-39.72835,11.62454
14.905058384,-13.49935,38.51527,15.45604,1.038139,0.09601444,0.04289391,-37.05046,-39.72835,11.62454
14.914916515,-12.1328,41.72875,14.72041,1.054571,0.06610502,0.07355525,-37.05046,-39.72835,11.62454
14.927238941,-8.90277699999999,46.78701,14.5365,1.075079,0.04067049,0.1200099,-37.43018,-39.73561,10.79429
14.937097073,-4.865242,51.42871,14.22998,1.089356,0.03412189,0.1566495,-37.43018,-39.73561,10.79429
14.946955204,-1.262519,56.01089,13.80086,1.110954,0.03935101,0.2023889,-37.43018,-39.73561,10.79429
14.956812859,1.594813,61.1286699999999,14.90432,1.133415,0.04992625,0.2443276,-37.43018,-39.73561,10.79429
14.96667099,2.588667,66.1869200000003,17.11123,1.163658,0.09655176,0.2787924,-37.43018,-39.73561,10.79429
14.976528645,-0.889823900000002,71.3047,19.56334,1.214385,0.1477354,0.3125245,-38.1916,-39.382,9.130022
14.986386776,-8.654313,76.7795099999999,22.26068,1.261947,0.1721104,0.3417627,-38.1916,-39.382,9.130022
14.996244907,-18.77921,82.4923699999997,25.08061,1.306949,0.1687376,0.3741576,-38.1916,-39.382,9.130022
15.006102562,-27.41332,87.78867,27.04231,1.354155,0.1346941,0.3976367,-38.1916,-39.382,9.130022
15.01595974,-33.62491,93.6800499999998,29.06531,1.395443,0.1025379,0.4192992,-38.1916,-39.382,9.130022
15.025817871,-36.10955,99.0953699999998,31.21091,1.449421,0.09685054,0.4620891,-38.21632,-38.68579,6.24186
15.035676003,-36.04743,103.6776,32.8661,1.504511,0.09253927,0.4799563,-38.21632,-38.68579,6.24186
15.045533657,-35.23993,108.7953,33.60173,1.561274,0.1076935,0.4941304,-38.21632,-38.68579,6.24186
15.055391788,-35.67474,114.3297,34.15346,1.5884,0.1197121,0.5206804,-38.21632,-38.68579,6.24186
15.065249443,-37.72456,119.864,33.35652,1.564512,0.1102469,0.518545,-38.21632,-38.68579,6.24186
15.075107574,-38.09726,125.6959,33.54043,1.558023,0.1107772,0.545477,-39.37298,-37.62542,2.13946
15.084965706,-37.28975,131.4682,34.45997,1.57505,0.1538656,0.5762668,-39.37298,-37.62542,2.13946
15.097288132,-39.27746,136.5265,33.90825,1.588121,0.2163016,0.585233,-39.37298,-37.62542,2.13946
15.107145786,-45.3027,139.978,32.31437,1.574154,0.2380733,0.5846574,-39.37298,-37.62542,2.13946
15.117003918,-55.11702,143.608,29.06531,1.549776,0.1978454,0.5554342,-39.37298,-37.62542,2.13946
15.126862049,-61.5149599999999,147.3571,25.81625,1.534446,0.1173771,0.5444312,-39.79741,-35.48706,-3.258393
15.136719704,-58.7818599999998,150.6896,23.67065,1.522841,0.0331187,0.5520319,-39.79741,-35.48706,-3.258393
15.146577835,-48.09792,153.7841,22.56719,1.515144,0.001975068,0.5700884,-39.79741,-35.48706,-3.258393
15.15643549,-38.2836,156.4025,21.40244,1.488721,-0.006072334,0.5627298,-39.79741,-35.48706,-3.258393
15.166293621,-31.32662,159.3184,20.6055,1.468055,0.01519346,0.5727878,-39.79741,-35.48706,-3.258393
15.176151753,-27.53755,162.7104,18.95032,1.457868,-0.0111022,0.5918791,-38.72491,-33.73411,-8.660201
15.186009407,-22.75463,166.5785,18.15338,1.457772,-0.05235856,0.6202843,-38.72491,-33.73411,-8.660201
15.195866585,-18.46863,170.0895,17.72425,1.466747,-0.0929729,0.6686919,-38.72491,-33.73411,-8.660201
15.205724716,-15.48706,174.7907,18.5825,1.488753,-0.1402206,0.734109,-38.72491,-33.73411,-8.660201
15.215582848,-12.81608,180.3251,20.7281,1.514156,-0.1801227,0.8038526,-38.72491,-33.73411,-8.660201
15.225440502,-11.69799,187.4066,23.79325,1.520435,-0.1920244,0.8592498,-36.90337,-32.79279,-14.44178
15.235298634,-13.12666,194.6072,26.7358,1.485626,-0.1698954,0.8733502,-36.90337,-32.79279,-14.44178
15.245156288,-17.90959,201.9863,29.37182,1.4356,-0.12901,0.8643451,-36.90337,-32.79279,-14.44178
15.25501442,-23.50002,208.4728,31.76264,1.383501,-0.100869,0.8356147,-36.90337,-32.79279,-14.44178
15.264872551,-29.83584,214.7212,34.27607,1.365892,-0.1195771,0.819415,-36.90337,-32.79279,-14.44178
15.277194977,-31.20239,222.7549,37.096,1.336859,-0.1473573,0.7467561,-33.65676,-31.0766,-20.68704
15.287053108,-25.67407,228.6463,38.50597,1.313197,-0.201675,0.7217165,-33.65676,-31.0766,-20.68704
15.296910763,-19.40037,234.8353,39.18031,1.26497,-0.2469629,0.6971034,-33.65676,-31.0766,-20.68704
15.306768894,-12.56762,241.5002,41.26461,1.204444,-0.2796851,0.6785218,-33.65676,-31.0766,-20.68704
15.316626549,-4.368315,248.1653,45.73972,1.134181,-0.2707634,0.6283242,-33.65676,-31.0766,-20.68704
15.32648468,0.2282626,252.0928,49.05009,1.076282,-0.2408367,0.5704604,-28.85893,-29.38998,-27.77252
15.336342812,2.712899,253.8186,52.42175,1.014486,-0.2343744,0.4932862,-28.85893,-29.38998,-27.77252
15.346200466,4.079449,252.8665,56.95817,0.9335892,-0.195647,0.3711326,-28.85893,-29.38998,-27.77252
15.356058598,4.949072,248.8198,59.96202,0.8463995,-0.1180339,0.252272,-28.85893,-29.38998,-27.77252
15.365916252,10.41527,241.8573,60.5750499999999,0.7595039,-0.06572469,0.1327145,-28.85893,-29.38998,-27.77252
15.375774384,16.93744,231.3837,58.18423,0.66781,-0.01560297,0.08987879,-21.49934,-26.97339,-33.21439
15.385631561,22.27941,219.8985,52.29914,0.5616319,0.02063791,0.01310922,-21.49934,-26.97339,-33.21439
15.395489693,22.90057,207.1636,43.90063,0.4302744,0.05623893,-0.04509728,-21.49934,-26.97339,-33.21439
15.405347347,19.17362,191.9293,34.33737,0.3276525,0.05557767,-0.1088114,-21.49934,-26.97339,-33.21439
15.415205479,16.56475,177.5876,25.01931,0.2167403,-0.01030189,-0.1561857,-21.49934,-26.97339,-33.21439
15.425063133,19.91901,162.8294,15.57865,0.09885217,-0.1143601,-0.2464316,-13.36833,-25.63513,-36.15227
15.434921265,28.36677,146.8215,12.4522,0.01086796,-0.2139597,-0.2565606,-13.36833,-25.63513,-36.15227
15.447243691,40.41726,126.3505,14.16868,-0.1109487,-0.1777179,-0.2962089,-13.36833,-25.63513,-36.15227
15.457101822,40.78996,110.2235,12.5748,-0.2180947,-0.08742475,-0.3605284,-13.36833,-25.63513,-36.15227
15.466959953,32.83912,93.6205399999999,11.59396,-0.2916077,-0.03210217,-0.357097,-13.36833,-25.63513,-36.15227
15.476817608,21.34767,79.4574100000001,11.65526,-0.3693817,-0.03927119,-0.3982186,-6.71349,-24.98739,-37.02644
15.486675739,10.9122,65.5323300000003,12.63611,-0.4413767,-0.07117864,-0.4319642,-6.71349,-24.98739,-37.02644
15.496533394,4.886956,50.77411,16.31429,-0.4799756,-0.06334281,-0.4572246,-6.71349,-24.98739,-37.02644
15.506391525,-2.877533,35.30179,17.17253,-0.5078917,-0.04176397,-0.4762919,-6.71349,-24.98739,-37.02644
15.516249657,-9.64816799999999,19.65094,15.27213,-0.5646874,-0.02226344,-0.4623794,-6.71349,-24.98739,-37.02644
15.526107311,-16.23246,3.583524,13.00392,-0.5811747,-0.07433931,-0.4256856,-2.221962,-25.77013,-36.65799
15.535965443,-18.22017,-12.00782,11.96177,-0.5490413,-0.1352081,-0.3830501,-2.221962,-25.77013,-36.65799
15.545823097,-16.4188,-28.13474,11.59396,-0.4544775,-0.1627288,-0.2892694,-2.221962,-25.77013,-36.65799
15.555681229,-14.18263,-44.32117,10.73571,-0.3925153,-0.1706081,-0.201088,-2.221962,-25.77013,-36.65799
15.56553936,-12.81608,-59.8530000000002,9.81616800000001,-0.3433075,-0.1567751,-0.1321886,-2.221962,-25.77013,-36.65799
15.575397015,-14.36898,-75.0872899999998,9.38704699999999,-0.2713715,-0.1493786,-0.016706,-2.224722,-25.77548,-37.04207
15.585255146,-17.16419,-88.6553299999998,8.590108,-0.2105386,-0.149498,0.06724428,-2.224722,-25.77548,-37.04207
15.595112324,-18.96556,-99.90251,7.60926000000002,-0.1814673,-0.178206,0.1288836,-2.224722,-25.77548,-37.04207
15.604970455,-18.84132,-109.662,6.81232100000002,-0.1504358,-0.1956664,0.2006531,-2.224722,-25.77548,-37.04207
15.61482811,-19.95941,-117.1601,6.07668500000002,-0.108606,-0.2091154,0.2785321,-2.224722,-25.77548,-37.04207
15.627150535,-18.46863,-123.468,6.62841199999998,-0.008631166,-0.1947277,0.3754645,-3.715666,-25.37848,-36.20594
15.637008667,-18.40651,-126.8601,6.99623000000001,0.07524211,-0.1771886,0.4424635,-3.715666,-25.37848,-36.20594
15.646866798,-19.08979,-129.3594,7.36404799999998,0.1356445,-0.1438783,0.488366,-3.715666,-25.37848,-36.20594
15.656724453,-22.2577,-131.8588,5.89277599999998,0.1808883,-0.1302296,0.5175468,-3.715666,-25.37848,-36.20594
15.666582584,-24.49387,-134.1201,4.176292,0.2226819,-0.1511475,0.5503185,-3.715666,-25.37848,-36.20594
15.676440239,-22.87886,-135.4889,2.09199,0.2638004,-0.1789579,0.5633945,-8.511856,-25.32309,-36.18115
15.68629837,-19.58672,-136.679,-0.6053416,0.2973679,-0.193712,0.5723756,-8.511856,-25.32309,-36.18115
15.696156502,-13.74782,-137.6312,-2.137917,0.3481893,-0.1835123,0.5770085,-8.511856,-25.32309,-36.18115
15.706014156,-6.29390900000001,-138.3453,-3.486583,0.4141177,-0.1575716,0.5911431,-8.511856,-25.32309,-36.18115
15.715872288,0.787305800000002,-139.1189,-5.386975,0.4649974,-0.1177086,0.590275,-8.511856,-25.32309,-36.18115
15.725729942,5.88081099999999,-141.3802,-7.71648900000002,0.5137262,-0.0730361,0.5794152,-12.98711,-24.88087,-34.56139
15.735588074,7.74428800000002,-144.6532,-9.61688199999998,0.5640036,-0.05162717,0.5899009,-12.98711,-24.88087,-34.56139
15.745446205,6.19139099999999,-147.0336,-12.62073,0.6079081,-0.05322508,0.5791984,-12.98711,-24.88087,-34.56139
15.75530386,3.644638,-148.3428,-14.82764,0.6437175,-0.08155087,0.5971379,-12.98711,-24.88087,-34.56139
15.765161991,4.452145,-148.5213,-16.48282,0.6506407,-0.1301565,0.5956705,-12.98711,-24.88087,-34.56139
15.775019646,10.97432,-149.0569,-18.01539,0.6535228,-0.1477217,0.5763132,-19.26027,-24.77347,-32.03234
15.784877777,19.35996,-150.8422,-19.11885,0.6910949,-0.1234922,0.5903582,-19.26027,-24.77347,-32.03234
15.797199726,31.09987,-152.5679,-19.30276,0.7838553,-0.0470468,0.6433516,-19.26027,-24.77347,-32.03234
15.807057857,33.64663,-153.6391,-20.46751,0.8327452,0.02634188,0.6336902,-19.26027,-24.77347,-32.03234
15.816915512,27.24869,-154.1747,-22.67442,0.8650724,0.0445687,0.6166113,-19.26027,-24.77347,-32.03234
15.826773643,21.59614,-154.9483,-22.85833,0.915696,0.03629448,0.6263623,-25.21522,-25.40062,-29.11327
15.836631298,21.28556,-157.0311,-22.42921,0.9752429,0.04654934,0.625121,-25.21522,-25.40062,-29.11327
15.846489429,19.35996,-159.828,-23.96178,1.053274,0.06390924,0.6581786,-25.21522,-25.40062,-29.11327
15.856347561,16.06782,-160.8397,-26.65911,1.098099,0.0293744,0.6860002,-25.21522,-25.40062,-29.11327
15.866205215,12.71356,-159.5305,-28.49821,1.073912,0.008241876,0.6876041,-25.21522,-25.40062,-29.11327
15.876063347,11.22278,-158.0427,-28.4369,1.042639,0.004421679,0.6511193,-29.21601,-27.49325,-24.07664
15.885921001,12.03029,-157.9832,-28.4369,1.05903,0.01084713,0.6389599,-29.21601,-27.49325,-24.07664
15.895779133,15.13608,-157.9237,-29.54036,1.112917,0.004021944,0.6381343,-29.21601,-27.49325,-24.07664
15.905637264,15.81936,-156.7336,-31.56335,1.185804,-0.0331443,0.6765554,-29.21601,-27.49325,-24.07664
15.915494919,19.17362,-153.2225,-32.4829,1.249875,-0.08357392,0.702531,-29.21601,-27.49325,-24.07664
15.92535305,26.44118,-151.0802,-32.72811,1.297754,-0.05631416,0.7217258,-34.77326,-29.1944,-18.65166
15.935210705,32.40431,-151.5563,-32.4216,1.312863,0.01956203,0.6766269,-34.77326,-29.1944,-18.65166
15.945068836,31.9695,-155.4839,-32.36029,1.362715,0.08283713,0.6927431,-34.77326,-29.1944,-18.65166
15.954926491,27.93196,-160.3041,-33.09593,1.433562,0.1003937,0.6655256,-34.77326,-29.1944,-18.65166
15.964784622,21.53402,-164.0531,-35.36414,1.532908,0.02650348,0.7104476,-34.77326,-29.1944,-18.65166
15.977106571,19.23573,-166.3145,-38.06147,1.570464,-0.07154607,0.6875209,-37.65534,-30.93273,-13.68861
15.986964703,23.95654,-169.4685,-38.73581,1.564986,-0.06003935,0.6546313,-37.65534,-30.93273,-13.68861
15.996822357,29.67121,-173.8721,-37.81626,1.569424,-0.02803751,0.613627,-37.65534,-30.93273,-13.68861
16.006680489,34.01932,-177.0261,-35.79326,1.578628,0.03828265,0.6293899,-37.65534,-30.93273,-13.68861
16.016538143,32.90123,-179.6445,-34.32199,1.59689,0.06507123,0.5929365,-37.65534,-30.93273,-13.68861
16.026396275,25.07463,-179.942,-34.62851,1.601603,0.04651103,0.5634815,-38.35612,-32.32185,-8.292502
16.036254406,22.96269,-179.4064,-33.70896,1.570664,0.01775153,0.4937167,-38.35612,-32.32185,-8.292502
16.046112061,26.81387,-178.6328,-31.62466,1.519415,0.0374294,0.4121909,-38.35612,-32.32185,-8.292502
16.055970192,32.59066,-179.0494,-28.25299,1.47727,0.0971702,0.3519582,-38.35612,-32.32185,-8.292502
16.065827847,36.56607,-177.8592,-26.65911,1.450668,0.1591059,0.3212329,-38.35612,-32.32185,-8.292502
16.075685978,33.21181,-174.5267,-28.31429,1.415582,0.1655325,0.3011816,-40.16043,-34.71794,-1.215561
16.085544109,24.76405,-170.004,-29.41775,1.362728,0.1347883,0.2729235,-40.16043,-34.71794,-1.215561
16.095401764,20.16747,-166.0169,-28.3756,1.292583,0.1321615,0.257129,-40.16043,-34.71794,-1.215561
16.105259895,14.32858,-162.8035,-26.2913,1.252287,0.1351719,0.2467072,-40.16043,-34.71794,-1.215561
16.11511755,11.40913,-159.0544,-25.06524,1.25036,0.1371158,0.2505847,-40.16043,-34.71794,-1.215561
16.124975681,8.17909999999999,-153.5201,-23.96178,1.261558,0.1124359,0.2607592,-40.48149,-36.09979,5.010793
16.134833813,5.508115,-146.4385,-24.02309,1.274474,0.08087008,0.2473703,-40.48149,-36.09979,5.010793
16.147156239,5.632347,-137.2146,-23.65527,1.254867,0.06457397,0.230261,-40.48149,-36.09979,5.010793
16.157013893,6.81255000000002,-130.9662,-23.53266,1.223072,0.07392237,0.2029995,-40.48149,-36.09979,5.010793
16.166872025,8.36544800000002,-124.3607,-23.41006,1.186299,0.08173827,0.1681288,-40.48149,-36.09979,5.010793
16.176730156,9.42141799999999,-118.2313,-23.16484,1.153106,0.0935345,0.1480959,-40.06832,-36.7718,9.945466
16.186587811,10.22893,-111.3282,-23.47136,1.129371,0.1030186,0.1379718,-40.06832,-36.7718,9.945466
16.196445942,10.29104,-105.3773,-23.65527,1.110131,0.1052446,0.1282016,-40.06832,-36.7718,9.945466
16.20630312,9.66988199999998,-99.9620199999999,-23.59397,1.120395,0.09654505,0.1198355,-40.06832,-36.7718,9.945466
16.216161251,8.73814300000001,-94.1896500000002,-22.85833,1.128889,0.09081084,0.1278125,-40.06832,-36.7718,9.945466
16.226018906,7.68217200000001,-88.4768000000001,-22.3066,1.146961,0.08754549,0.1227354,-38.91287,-38.20655,13.60354
16.235877037,6.25350600000003,-82.4068799999997,-22.06139,1.166328,0.0866851,0.1071177,-38.91287,-38.20655,13.60354
16.245734692,5.321767,-76.45599,-22.12269,1.174711,0.07603684,0.1025955,-38.91287,-38.20655,13.60354
16.255592823,4.265797,-70.6241099999999,-22.06139,1.185486,0.06002432,0.08936846,-38.91287,-38.20655,13.60354
16.265450954,3.76887,-64.3161699999999,-20.89663,1.188965,0.04932931,0.08395742,-38.91287,-38.20655,13.60354
16.275308609,3.271943,-58.1272400000001,-19.79318,1.183976,0.04047029,0.06909857,-37.75776,-38.89789,17.76619
16.28516674,2.712899,-51.70028,-18.50582,1.179335,0.04524535,0.05578744,-37.75776,-38.89789,17.76619
16.295024395,3.023479,-45.92791,-17.46367,1.165609,0.03779272,0.04729458,-37.75776,-38.89789,17.76619
16.304882526,3.520406,-40.33407,-15.74718,1.151446,0.04206752,0.05280373,-37.75776,-38.89789,17.76619
16.317204952,3.706754,-33.193,-13.11115,1.133803,0.07838425,0.04665287,-37.75776,-38.89789,17.76619
16.327063084,1.656929,-28.01572,-11.21076,1.116414,0.1020797,0.04805907,-37.36605,-39.98348,19.43992
16.336921215,-2.00791,-22.77893,-10.10731,1.084839,0.1149084,0.03999177,-37.36605,-39.98348,19.43992
16.34677887,-6.16967699999999,-17.30411,-9.06515500000003,1.052432,0.1121468,0.02892956,-37.36605,-39.98348,19.43992
16.356637001,-9.71028300000003,-12.00782,-7.71648900000002,1.030194,0.09444685,0.03293072,-37.36605,-39.98348,19.43992
16.366494656,-11.51165,-6.11643200000001,-6.00000499999998,1.007355,0.06743445,0.02056907,-37.36605,-39.98348,19.43992
16.376352787,-10.89049,-0.1655384,-4.712642,0.9833646,0.05891642,0.01173433,-36.2321,-40.7158,20.65793
16.386210919,-8.96489200000003,5.90437299999999,-3.670491,0.9618676,0.04799259,0.00428133,-36.2321,-40.7158,20.65793
16.396068573,-6.231793,11.4387,-2.260523,0.9446908,0.04782523,0.0002119355,-36.2321,-40.7158,20.65793
16.405926705,-2.815417,17.33009,-1.034463,0.9337328,0.05890326,-0.004330387,-36.2321,-40.7158,20.65793
16.415784359,-0.3307806,22.44786,-0.1149176,0.9237836,0.08171607,0.00367113,-36.2321,-40.7158,20.65793
16.42564249,-0.0823169599999999,27.20857,0.0689914200000002,0.9186021,0.09623696,-0.004758064,-36.23687,-40.353,20.27008
16.435500622,-1.510983,32.20732,0.5594154,0.9205996,0.08894249,-0.008202489,-36.23687,-40.353,20.27008
16.445358276,-2.504838,36.96804,1.233748,0.9269208,0.09045262,-0.009717437,-36.23687,-40.353,20.27008
16.455216408,-2.815417,41.43121,1.969384,0.9317755,0.08365014,-0.01846963,-36.23687,-40.353,20.27008
16.465073586,-1.883678,46.0729,2.521111,0.9430881,0.07839678,-0.01867519,-36.23687,-40.353,20.27008
16.47493124,-0.4550124,50.06,3.134141,0.9557675,0.07996286,-0.02028029,-35.86711,-40.73705,19.43974
16.484789372,0.911537699999999,53.98759,3.685868,0.9670689,0.08886483,-0.008865448,-35.86711,-40.73705,19.43974
16.497111797,1.594813,58.5697799999998,4.298898,0.995729,0.08480399,0.008422183,-35.86711,-40.73705,19.43974
16.506969929,1.532697,62.55688,4.973231,1.035434,0.08433672,0.0495427,-35.86711,-40.73705,19.43974
16.51682806,-0.02020105,67.1985799999999,5.402352,1.066547,0.08518174,0.07162876,-35.86711,-40.73705,19.43974
16.526685715,-0.765591999999998,72.0187999999999,6.19929100000001,1.092843,0.06989323,0.08502175,-36.62653,-40.75158,17.77924
16.536543846,-0.579244300000001,77.55313,7.36404799999998,1.096039,0.07097019,0.1051117,-36.62653,-40.75158,17.77924
16.546401501,-1.262519,82.9684399999998,9.264441,1.124948,0.07625645,0.1488306,-36.62653,-40.75158,17.77924
16.556259632,-2.939649,89.57394,10.5518,1.166195,0.0953525,0.2126166,-36.62653,-40.75158,17.77924
16.566117763,-6.85295199999998,98.1432200000001,11.77786,1.246358,0.07936248,0.3009495,-36.62653,-40.75158,17.77924
16.575975418,-12.31915,107.9622,13.92347,1.322886,0.048147,0.3604536,-36.27075,-40.79064,15.28077
16.585833549,-17.66112,117.3646,15.94647,1.367182,0.03068452,0.4004069,-36.27075,-40.79064,15.28077
16.595691204,-21.26385,127.8382,19.07292,1.415469,0.02974317,0.4246291,-36.27075,-40.79064,15.28077
16.605549335,-20.39422,138.2522,21.83156,1.454337,0.0689364,0.4033211,-36.27075,-40.79064,15.28077
16.615407467,-17.47477,149.5589,25.87755,1.51975,0.08168323,0.403934,-36.27075,-40.79064,15.28077
16.625265121,-19.71095,161.5202,29.37182,1.613589,0.06616165,0.4551775,-37.42219,-40.09217,11.63024
16.635123253,-27.10274,173.7791,32.9887,1.726755,0.02305069,0.5001623,-37.42219,-40.09217,11.63024
16.644980907,-34.24607,185.2643,37.40252,1.8547,-0.009647998,0.5617963,-37.42219,-40.09217,11.63024
16.654839039,-38.34572,196.571,39.97724,1.951203,-0.01936236,0.5981957,-37.42219,-40.09217,11.63024
16.667160988,-40.89247,207.5802,39.97724,1.956512,-0.001894156,0.5723907,-38.58678,-39.79127,5.871021
16.677018642,-43.37711,213.8881,40.71288,1.958707,-0.04721413,0.5499337,-38.58678,-39.79127,5.871021
16.686876774,-40.08496,223.469,43.04239,1.964335,-0.1021303,0.5556197,-38.58678,-39.79127,5.871021
16.696734905,-31.57509,232.5144,44.39106,1.931378,-0.118937,0.5636147,-38.58678,-39.79127,5.871021
16.70659256,-23.56213,240.072,43.96194,1.870773,-0.100553,0.5483409,-38.58678,-39.79127,5.871021
16.716450691,-17.16419,247.2131,45.2493,1.835906,-0.07404665,0.5619999,-38.58678,-39.79127,5.871021
16.726308346,-13.37512,252.6879,48.68227,1.856737,-0.03730135,0.5792643,-39.40088,-38.05148,-2.017668
16.736166477,-12.1328,257.9842,52.66697,1.880124,-0.009779505,0.5964144,-39.40088,-38.05148,-2.017668
16.746024609,-14.8659,260.9001,54.26084,1.847959,0.01326861,0.5898794,-39.40088,-38.05148,-2.017668
16.755882263,-20.64268,259.5315,55.3643,1.780466,-0.007830389,0.5729329,-39.40088,-38.05148,-2.017668
16.765740395,-20.89115,258.2818,56.34514,1.699995,-0.05143935,0.5531062,-39.40088,-38.05148,-2.017668
16.775598049,-12.5055,252.9855,59.5328999999999,1.62185,-0.07455523,0.5425241,-38.35511,-35.23418,-10.31141
16.785456181,-0.2065488,247.5702,62.10762,1.549619,-0.01683141,0.5344567,-38.35511,-35.23418,-10.31141
16.795314312,6.81255000000002,239.4769,64.3145300000001,1.469064,0.0603455,0.5429649,-38.35511,-35.23418,-10.31141
16.805171967,4.762724,231.6813,64.4371299999998,1.391221,0.1111207,0.5119174,-38.35511,-35.23418,-10.31141
16.815030098,1.408465,224.8972,64.3145300000001,1.317071,0.1245444,0.5035035,-38.35511,-35.23418,-10.31141
16.824887752,-0.4550124,218.1727,61.8624100000003,1.23677,0.1148894,0.4542505,-36.55477,-33.21782,-18.21676
16.837210655,0.911537699999999,210.0795,57.14208,1.112813,0.1166679,0.4426147,-36.55477,-33.21782,-18.21676
16.84706831,5.197536,203.593,52.91217,1.041783,0.1238234,0.4422498,-36.55477,-33.21782,-18.21676
16.856926441,6.00504300000001,196.5115,48.98878,0.9825588,0.153913,0.4308887,-36.55477,-33.21782,-18.21676
16.866784573,3.706754,191.7508,43.41021,0.9078229,0.1550992,0.4046495,-31.44555,-30.41877,-24.48299
16.876642227,0.973653600000002,186.4545,38.56728,0.8246444,0.111041,0.4011503,-31.44555,-30.41877,-24.48299
16.886500359,2.526551,182.5864,35.44082,0.7214788,0.09695987,0.3933971,-31.44555,-30.41877,-24.48299
16.896358013,4.452145,177.5876,34.15346,0.6320643,0.08971541,0.3596288,-31.44555,-30.41877,-24.48299
16.906216145,5.694463,173.1245,31.82394,0.5528999,0.09476107,0.3349229,-31.44555,-30.41877,-24.48299
16.916074276,6.37773799999999,168.3043,28.26837,0.5014674,0.05145805,0.3281025,-26.63133,-28.32836,-29.01169
16.925931931,10.97432,164.7337,25.14192,0.4251019,-0.006708268,0.309532,-26.63133,-28.32836,-29.01169
16.935790062,15.88147,160.9251,22.50589,0.3412167,-0.04399771,0.2960369,-26.63133,-28.32836,-29.01169
16.945647717,21.22344,157.4141,21.15722,0.2756322,-0.05386405,0.2853875,-26.63133,-28.32836,-29.01169
16.955505848,24.70193,153.7246,19.07292,0.2217796,-0.05546422,0.2454096,-26.63133,-28.32836,-29.01169
16.965363502,26.00637,150.3326,16.80471,0.1876644,-0.08355992,0.2303244,-26.63133,-28.32836,-29.01169
16.975221634,27.74561,146.643,15.63995,0.153187,-0.1015062,0.1975996,-21.11561,-27.70242,-32.3766
16.985079765,30.54083,143.3105,14.22998,0.07489195,-0.1598172,0.1450322,-21.11561,-27.70242,-32.3766
16.994936943,34.3299,138.0737,14.5978,0.001773396,-0.1416225,0.1088503,-21.11561,-27.70242,-32.3766
17.004794598,36.93877,130.8731,14.04607,-0.05485065,-0.1218552,0.06382103,-21.11561,-27.70242,-32.3766
17.0171175,37.49781,119.864,12.4522,-0.1199089,-0.07840724,-0.004848177,-15.58393,-27.78961,-34.06961
17.026975155,33.46028,108.7358,10.91962,-0.1659592,-0.07799221,-0.0449203,-15.58393,-27.78961,-34.06961
17.036833286,32.34219,96.8935299999999,10.85832,-0.1985339,-0.1006836,-0.04991871,-15.58393,-27.78961,-34.06961
17.046691418,28.98793,83.2064799999999,11.04223,-0.2374203,-0.1053533,-0.03550712,-15.58393,-27.78961,-34.06961
17.056549072,24.9504,68.62679,12.39089,-0.2673312,-0.09147915,-0.02825493,-15.58393,-27.78961,-34.06961
17.066407204,16.56475,53.15447,13.80086,-0.2679207,-0.07526543,0.01453905,-10.72943,-28.22545,-34.92313
17.076264858,9.297187,39.22938,15.76256,-0.2492307,-0.09153657,0.04336653,-10.72943,-28.22545,-34.92313
17.08612299,5.011188,26.91103,17.47904,-0.2231033,-0.1272434,0.06233998,-10.72943,-28.22545,-34.92313
17.095981121,4.949072,15.60433,18.7051,-0.1911622,-0.09239183,0.06745006,-10.72943,-28.22545,-34.92313
17.105838776,2.899247,4.476159,17.84686,-0.1521897,-0.03949828,0.0659034,-10.72943,-28.22545,-34.92313
17.115696907,3.334059,-7.48513700000001,15.51735,-0.1202979,-0.01588999,0.05750171,-8.108553,-28.61846,-34.5488
17.125554562,7.12312899999999,-19.62496,11.77786,-0.07238713,0.001614077,0.07038417,-8.108553,-28.61846,-34.5488
17.135412693,11.65759,-32.5384,7.54795700000002,-0.0620225,0.02956012,0.1016203,-8.108553,-28.61846,-34.5488
17.145270824,15.26031,-45.98742,4.237596,-0.03747744,0.04311847,0.1555344,-8.108553,-28.61846,-34.5488
17.155128479,13.21049,-58.2462599999999,2.582414,-0.03319471,0.0692696,0.2414708,-8.108553,-28.61846,-34.5488
17.16498661,8.73814300000001,-68.42229,2.643717,-0.004519823,0.08878303,0.3164611,-8.108553,-28.61846,-34.5488
17.174844265,1.719045,-75.6823699999999,2.950232,-0.0009993734,0.0845819,0.3556698,-8.854006,-28.97798,-34.54116
17.187167168,-6.29390900000001,-83.1804999999998,3.501959,-0.02073834,0.06789517,0.3644359,-8.854006,-28.97798,-34.54116
17.197024822,-9.33758799999999,-89.2504099999999,2.950232,0.01179283,0.07885673,0.3559183,-8.854006,-28.97798,-34.54116
17.206882954,-8.654313,-96.3914900000001,1.47896,0.06157985,0.1030552,0.3328906,-8.854006,-28.97798,-34.54116
17.216740608,-7.90892299999997,-104.9608,-1.892705,0.09677546,0.1416593,0.2929412,-10.33771,-29.31104,-33.24939
17.226598263,-6.666604,-114.9583,-6.06130799999997,0.1306735,0.1638343,0.2868948,-10.33771,-29.31104,-33.24939
17.236455917,-5.424286,-126.8601,-10.35252,0.1503979,0.1801639,0.3126283,-10.33771,-29.31104,-33.24939
17.246314049,-9.64816799999999,-139.3569,-15.07285,0.1796997,0.207127,0.2966247,-10.33771,-29.31104,-33.24939
17.256171703,-18.3444,-151.0207,-19.48666,0.2003819,0.214183,0.3126822,-10.33771,-29.31104,-33.24939
17.266029835,-27.66178,-160.9587,-21.69357,0.2555178,0.1971909,0.3227746,-14.44074,-29.62013,-32.3922
17.275887966,-34.743,-168.0997,-22.49051,0.2995459,0.1527995,0.3193764,-14.44074,-29.62013,-32.3922
17.285745621,-38.46995,-174.1697,-22.91963,0.3288074,0.1062993,0.3075453,-14.44074,-29.62013,-32.3922
17.295603752,-39.27746,-180.6561,-22.3679,0.3654254,0.1031864,0.29933,-14.44074,-29.62013,-32.3922
17.305461407,-40.45766,-188.8089,-23.71657,0.4143154,0.1381403,0.2917402,-14.44074,-29.62013,-32.3922
17.315319538,-42.01056,-196.9616,-26.78172,0.479596,0.1405966,0.2735793,-19.21623,-29.52464,-29.48678
17.32517767,-43.37711,-204.9358,-30.82772,0.5547442,0.1403693,0.2950287,-19.21623,-29.52464,-29.48678
17.335035324,-41.45152,-210.8867,-33.83157,0.6265497,0.125135,0.3451511,-19.21623,-29.52464,-29.48678
17.344893456,-38.84265,-214.9928,-36.03848,0.6552855,0.1020549,0.3512556,-19.21623,-29.52464,-29.48678
17.357215881,-36.35801,-218.5038,-38.06147,0.6978663,0.08841458,0.3764103,-19.21623,-29.52464,-29.48678
17.367074013,-32.32048,-220.5866,-39.41014,0.7682469,0.09585581,0.377866,-25.17644,-28.67385,-26.19872
17.376931667,-30.64335,-222.4909,-41.86226,0.8713172,0.07733374,0.3858247,-25.17644,-28.67385,-26.19872
17.386789799,-26.60581,-223.8596,-44.06916,0.9594887,0.03873595,0.395743,-25.17644,-28.67385,-26.19872
17.39664793,-20.20787,-221.5388,-44.43699,0.9983002,0.02008459,0.3911989,-25.17644,-28.67385,-26.19872
17.406505585,-13.87205,-221.8363,-45.05001,1.039001,0.03449566,0.3749269,-25.17644,-28.67385,-26.19872
17.416363716,-9.64816799999999,-222.2529,-46.8891,1.096744,0.04624131,0.386183,-31.42489,-29.26265,-20.7815
17.426221371,-5.113706,-223.2645,-48.9121,1.162541,0.03259837,0.3558989,-31.42489,-29.26265,-20.7815
17.436079502,-0.951939799999999,-224.1572,-49.70904,1.235638,0.02060912,0.3600271,-31.42489,-29.26265,-20.7815
17.445937634,2.40232,-224.5142,-49.77034,1.313175,-0.0001183661,0.3592263,-31.42489,-29.26265,-20.7815
17.455795288,6.37773799999999,-225.5259,-49.46383,1.369426,-0.0007333191,0.3220002,-31.42489,-29.26265,-20.7815
17.46565342,11.16066,-226.121,-47.86995,1.438312,0.02816942,0.3404303,-35.79272,-29.84987,-13.70958
17.475511074,14.88762,-227.8467,-48.7895,1.519258,0.04443776,0.3351012,-35.79272,-29.84987,-13.70958
17.485369206,18.92515,-229.4535,-52.52898,1.609967,0.0485813,0.3175505,-35.79272,-29.84987,-13.70958
17.49522686,16.50263,-229.87,-54.42937,1.735516,0.005622522,0.3738609,-35.79272,-29.84987,-13.70958
17.505084992,18.05553,-231.3577,-56.32977,1.795369,0.01582969,0.3591972,-35.79272,-29.84987,-13.70958
17.514943123,19.91901,-235.0473,-58.1075499999999,1.900626,0.01141392,0.360535,-38.71311,-32.65717,-6.23836
17.527265072,20.91286,-237.7847,-57.5558199999998,2.084577,-0.01988158,0.4046106,-38.71311,-32.65717,-6.23836
17.537122727,22.2173,-237.9037,-55.65543,2.221599,-0.0310779,0.469172,-38.71311,-32.65717,-6.23836
17.546980858,19.98112,-237.0706,-55.28761,2.314787,-0.05166765,0.4681492,-38.71311,-32.65717,-6.23836
17.556838512,16.3784,-235.0473,-57.4332200000001,2.315944,-0.08982509,0.4117444,-38.71311,-32.65717,-6.23836
17.566696644,21.16133,-233.0835,-57.18801,2.229361,-0.09671995,0.3348107,-40.13571,-35.41414,1.672603
17.576554775,33.5224,-231.4768,-53.14201,2.120668,-0.08053756,0.2353854,-40.13571,-35.41414,1.672603
17.58641243,43.89575,-228.9774,-48.05386,2.0321,-0.03717054,0.2005945,-40.13571,-35.41414,1.672603
17.596270561,48.49233,-225.0498,-44.55959,1.915043,0.05362281,0.1632555,-40.13571,-35.41414,1.672603
17.606128216,42.77766,-218.0872,-39.04232,1.816818,0.1106096,0.149802,-40.13571,-35.41414,1.672603
17.615986347,29.05005,-211.2437,-33.95417,1.682057,0.1604801,0.1416012,-39.31559,-38.25837,9.572602
17.625844479,11.90605,-207.5542,-28.98863,1.605256,0.2575285,0.1200341,-39.31559,-38.25837,9.572602
17.635702133,-3.063881,-200.4726,-32.66681,1.517874,0.2582697,0.1347033,-39.31559,-38.25837,9.572602
17.645560265,-16.35669,-191.7248,-33.52505,1.443069,0.141826,0.1434124,-39.31559,-38.25837,9.572602
17.655417919,-23.74848,-181.9058,-32.23769,1.378344,0.04969448,0.1234309,-39.31559,-38.25837,9.572602
17.66527605,-23.06521,-171.9678,-31.50205,1.293101,0.007541188,0.1137477,-38.13345,-39.64145,16.94348
17.675134182,-18.09593,-161.9108,-31.37945,1.221355,-0.02331884,0.09917545,-38.13345,-39.64145,16.94348
17.684991836,-11.51165,-152.0323,-29.90817,1.149128,-0.04002226,0.09766791,-38.13345,-39.64145,16.94348
17.694849968,-4.244083,-141.6183,-28.00778,1.109044,-0.04769247,0.09338247,-38.13345,-39.64145,16.94348
17.707172394,5.383883,-127.1576,-25.67827,1.083908,-0.04210833,0.08468307,-38.13345,-39.64145,16.94348
17.717030525,12.40298,-115.9699,-23.65527,1.070976,-0.01640561,0.09179308,-36.22135,-41.06702,21.87797
17.72688818,16.19205,-104.0681,-21.26445,1.069132,0.01472064,0.09160285,-36.22135,-41.06702,21.87797
17.736746311,16.31628,-91.4522499999998,-18.50582,1.069763,0.03904146,0.08748632,-36.22135,-41.06702,21.87797
17.746603966,14.63916,-77.46764,-15.50197,1.070018,0.06911395,0.0609013,-36.22135,-41.06702,21.87797
17.756462097,11.96817,-65.4468400000003,-13.23376,1.050811,0.1014843,0.04419705,-36.22135,-41.06702,21.87797
17.766320229,8.73814300000001,-54.43769,-12.86594,1.051698,0.1052376,0.004921732,-33.63161,-42.14305,26.03698
17.776177883,8.48967900000002,-43.54755,-11.9464,1.047774,0.08797666,-0.04692155,-33.63161,-42.14305,26.03698
17.786036015,12.58933,-34.26416,-11.45597,1.04194,0.0848706,-0.08280457,-33.63161,-42.14305,26.03698
17.795893669,18.80092,-26.17094,-12.43682,1.044279,0.1004849,-0.07695574,-33.63161,-42.14305,26.03698
17.8057518,23.08692,-17.78018,-13.23376,1.028499,0.1233921,-0.03005516,-33.63161,-42.14305,26.03698
17.815609932,22.2173,-11.2342,-12.31421,1.010313,0.1329719,-0.02779832,-32.49001,-43.17057,28.09031
17.825467586,17.06167,-3.914601,-9.98470000000001,0.9994313,0.1387012,-0.03142848,-32.49001,-43.17057,28.09031
17.835325718,11.22278,3.762051,-7.34867099999999,0.989528,0.1312571,-0.04668454,-32.49001,-43.17057,28.09031
17.845183372,7.74428800000002,11.26018,-4.038309,0.9784517,0.119843,-0.07968776,-32.49001,-43.17057,28.09031
17.855041504,6.00504300000001,17.56812,-1.095766,0.9841044,0.1188565,-0.09654863,-32.49001,-43.17057,28.09031
17.864899635,4.886956,24.35214,1.111142,0.9926801,0.1144749,-0.1173134,-31.74058,-42.43132,28.91108
17.877221584,4.886956,32.6834,4.176292,1.000363,0.1270617,-0.1527774,-31.74058,-42.43132,28.91108
17.887079239,5.197536,38.15821,5.83147299999998,0.993577,0.1415307,-0.1712474,-31.74058,-42.43132,28.91108
17.89693737,5.259652,43.15697,6.93492700000001,0.985713,0.1671917,-0.1872115,-31.74058,-42.43132,28.91108
17.906795025,3.396174,47.08456,7.73186600000001,0.9793878,0.192886,-0.1979261,-31.74058,-42.43132,28.91108
17.916653156,0.04191487,50.65509,7.793169,0.9745789,0.2034721,-0.2183738,-32.49448,-41.7531,28.52395
17.926511288,-4.678895,54.16612,8.95792600000003,0.9767985,0.1961058,-0.2414692,-32.49448,-41.7531,28.52395
17.936368942,-7.28776300000003,57.20108,10.61311,0.9864599,0.1810226,-0.2637774,-32.49448,-41.7531,28.52395
17.946227074,-6.91506799999999,60.1170100000002,11.71656,0.9885508,0.174596,-0.2954885,-32.49448,-41.7531,28.52395
17.956084728,-4.554663,62.0213000000001,12.39089,0.9905649,0.1609593,-0.3032995,-32.49448,-41.7531,28.52395
17.96594286,-1.697331,62.6758999999998,12.5748,0.98458,0.1574571,-0.3147446,-33.25022,-42.44257,26.87037
17.975800991,0.2903785,62.7354,12.4522,0.9866763,0.1720258,-0.3275899,-33.25022,-42.44257,26.87037
17.985658646,1.284233,62.7949099999999,11.96177,0.988381,0.1822241,-0.3371121,-33.25022,-42.44257,26.87037
17.995516777,0.725189899999998,62.9139300000002,11.65526,0.980249,0.1947617,-0.3483912,-33.25022,-42.44257,26.87037
18.005374432,-0.1444329,62.6163899999999,11.65526,0.9739423,0.1980028,-0.3775051,-33.25022,-42.44257,26.87037
18.015232563,-1.200403,61.9022800000003,11.59396,0.9734216,0.2066424,-0.4080935,-33.64558,-41.79807,24.36885
18.025090218,-1.697331,60.1765200000001,10.91962,0.9708756,0.2090333,-0.4133083,-33.64558,-41.79807,24.36885
18.034948349,-3.125997,57.3796000000001,9.87747100000001,0.9655463,0.2168121,-0.4026243,-33.64558,-41.79807,24.36885
18.04480648,-4.616779,54.46367,8.16098699999997,0.9583649,0.2202093,-0.3881173,-33.64558,-41.79807,24.36885
18.057128906,-7.47411100000001,50.89313,6.07668500000002,0.9376247,0.2054602,-0.3793206,-33.64558,-41.79807,24.36885
18.066987038,-9.46182000000001,48.45326,5.095838,0.9380568,0.1774015,-0.3364356,-34.40901,-41.0763,22.70081
18.076844692,-9.64816799999999,47.20358,4.666717,0.9442395,0.1615663,-0.2916126,-34.40901,-41.0763,22.70081
18.086702824,-8.84066099999998,46.78701,4.421504,0.9950955,0.1272645,-0.215955,-34.40901,-41.0763,22.70081
18.096560478,-7.28776300000003,48.98884,4.360201,1.034264,0.1000621,-0.1659477,-34.40901,-41.0763,22.70081
18.10641861,-3.871388,51.96429,4.789322,1.047609,0.08521817,-0.1331984,-34.40901,-41.0763,22.70081
18.116276741,-3.125997,53.21398,4.605413,1.036574,0.1017798,-0.1027118,-35.11167,-41.10224,20.27182
18.126134396,-5.424286,55.05875,5.341049,1.052208,0.08300725,-0.08488344,-35.11167,-41.10224,20.27182
18.135992527,-7.59834299999997,60.5335699999998,7.60926000000002,1.061625,0.09191243,-0.06817052,-35.11167,-41.10224,20.27182
18.145850182,-11.38741,65.9488899999998,9.69356200000002,1.076622,0.1010575,-0.0007399675,-35.11167,-41.10224,20.27182
18.155708313,-16.10822,72.43536,12.08438,1.136643,0.09414154,0.08939413,-35.11167,-41.10224,20.27182
18.165566444,-22.19558,80.2310300000002,14.72041,1.200933,0.09503845,0.1766581,-35.49937,-40.75294,18.60563
18.175424099,-28.22083,87.7291600000001,16.25298,1.280777,0.08725713,0.248772,-35.49937,-40.75294,18.60563
18.18528223,-32.94164,96.6554899999998,18.27598,1.364953,0.05885419,0.2617085,-35.49937,-40.75294,18.60563
18.195139885,-36.17166,106.772,19.74725,1.426364,0.01650651,0.2432247,-35.49937,-40.75294,18.60563
18.204998016,-34.55665,118.8523,21.95416,1.468976,-0.02397733,0.2470677,-35.49937,-40.75294,18.60563
18.214856148,-28.34506,129.683,24.34498,1.485727,-0.02916663,0.251098,-36.27276,-40.42249,15.277
18.227178574,-19.08979,140.5731,26.7971,1.541373,-0.01175464,0.2212206,-36.27276,-40.42249,15.277
18.237036228,-12.00857,148.0712,29.49443,1.630621,0.03848886,0.1729319,-36.27276,-40.42249,15.277
18.24689436,-4.492547,153.6651,31.64004,1.730834,0.08240373,0.09807754,-36.27276,-40.42249,15.277
18.256752491,4.017333,156.7595,31.76264,1.819866,0.1156331,0.05491949,-36.27276,-40.42249,15.277
18.266610146,11.53336,157.5331,29.92355,1.860415,0.1588061,0.05278913,-36.68346,-40.11774,10.41011
18.276468277,16.62686,154.2006,26.18407,1.839385,0.2359789,0.04942735,-36.68346,-40.11774,10.41011
18.286325932,18.24188,147.0596,21.77025,1.786539,0.3252883,-0.01615366,-36.68346,-40.11774,10.41011
18.296184063,13.95588,138.7878,17.96947,1.748013,0.3461918,-0.06047291,-36.68346,-40.11774,10.41011
18.306042194,7.80640399999998,131.3492,15.88517,1.722538,0.3352149,-0.07266165,-36.68346,-40.11774,10.41011
18.315899849,4.265797,123.1965,14.22998,1.684721,0.3343505,-0.08410995,-37.83736,-39.05202,6.691796
18.32575798,6.99889700000002,115.3413,14.10738,1.682662,0.3660389,-0.0636868,-37.83736,-39.05202,6.691796
18.335615158,10.10469,107.1291,15.33344,1.713111,0.4717984,0.03788286,-37.83736,-39.05202,6.691796
18.345473766,4.141565,100.1665,15.08823,1.707253,0.577913,0.06042587,-37.83736,-39.05202,6.691796
18.355331898,-10.08298,95.16778,12.82001,1.657596,0.6130449,0.07341008,-37.83736,-39.05202,6.691796
18.365189552,-28.34506,92.0138000000001,9.69356200000002,1.620021,0.5837144,0.12641,-38.61879,-37.24898,3.348088
18.37504673,-42.81807,91.0021500000001,7.30274499999998,1.587738,0.5228067,0.1809849,-38.61879,-37.24898,3.348088
18.384905338,-50.58255,92.6683999999998,4.728019,1.556283,0.4274709,0.2659261,-38.61879,-37.24898,3.348088
18.397227287,-54.86855,99.0953699999998,2.153293,1.536268,0.30473,0.4122897,-38.61879,-37.24898,3.348088
18.407085419,-56.9805,108.0217,0.8659304,1.531757,0.1965966,0.5245325,-38.61879,-37.24898,3.348088
18.41694355,-58.1607000000002,121.6493,0.007688423,1.505279,0.0928933,0.5724338,-37.52956,-35.83567,-0.001507759
18.426801205,-57.22896,135.6339,0.743324399999998,1.420373,0.01470723,0.555733,-37.52956,-35.83567,-0.001507759
18.436659336,-53.75047,148.1902,1.295051,1.342533,-0.04409723,0.5002797,-37.52956,-35.83567,-0.001507759
18.446516991,-49.83716,159.616,3.134141,1.25458,-0.03060712,0.4125161,-37.52956,-35.83567,-0.001507759
18.456375122,-40.45766,169.1969,5.77016999999999,1.163206,0.04849385,0.3109789,-37.52956,-35.83567,-0.001507759
18.466233254,-32.50682,175.9214,8.28359300000002,1.076908,0.1514789,0.2081333,-35.32462,-35.56202,-4.945931
18.476090908,-27.97236,180.9797,8.71271399999999,1.03828,0.2034646,0.147785,-35.32462,-35.56202,-4.945931
18.48594904,-27.04062,186.3355,6.68971499999997,1.015504,0.170123,0.1344106,-35.32462,-35.56202,-4.945931
18.495806694,-27.84813,190.6796,4.605413,0.9621453,0.09632351,0.1748011,-35.32462,-35.56202,-4.945931
18.505664826,-29.33891,193.6551,4.298898,0.9014705,0.0009831751,0.1978628,-35.32462,-35.56202,-4.945931
18.51552248,-29.21468,195.7379,2.827626,0.8203527,-0.07706879,0.2079442,-32.44974,-34.20966,-11.18548
18.525380612,-27.7239,197.7017,0.4368094,0.7193183,-0.151976,0.1953344,-32.44974,-34.20966,-11.18548
18.535238743,-25.79831,198.8323,0.1302944,0.6119537,-0.2430427,0.1706985,-32.44974,-34.20966,-11.18548
18.545096398,-20.45634,200.6771,2.827626,0.5128245,-0.2998829,0.1701941,-32.44974,-34.20966,-11.18548
18.554954529,-13.93417,200.082,8.71271399999999,0.4070143,-0.2868368,0.1358723,-32.44974,-34.20966,-11.18548
18.564812183,-6.79083600000002,197.4636,12.26829,0.3112588,-0.223745,0.05774317,-28.02727,-33.32795,-19.09304
18.577135086,0.1661467,191.6913,9.75486500000002,0.2152481,-0.1485203,-0.02842629,-28.02727,-33.32795,-19.09304
18.586992741,6.31562199999998,186.9901,8.83531999999998,0.1374866,-0.1480093,-0.097756,-28.02727,-33.32795,-19.09304
18.596850872,10.29104,179.1349,8.22229000000003,0.03782294,-0.1538733,-0.1284914,-28.02727,-33.32795,-19.09304
18.606709003,12.03029,171.2202,8.09968399999998,-0.09349448,-0.185854,-0.1714552,-28.02727,-33.32795,-19.09304
18.616566658,4.514261,154.6172,13.55565,-0.170622,-0.123916,-0.2120028,-23.27454,-31.97936,-24.06198
18.626424789,-1.573099,137.3001,13.80086,-0.1733837,-0.04081125,-0.2337845,-23.27454,-31.97936,-24.06198
18.636282444,-5.85909699999999,120.0425,10.5518,-0.1974731,-0.02019897,-0.2601024,-23.27454,-31.97936,-24.06198
18.646140575,-13.25089,100.9401,9.20313699999998,-0.2321149,-0.04293918,-0.2732181,-23.27454,-31.97936,-24.06198
18.655998707,-17.84747,80.4095599999999,8.95792600000003,-0.2522521,-0.08157451,-0.2770908,-23.27454,-31.97936,-24.06198
18.665856361,-17.10208,59.8194699999999,8.528805,-0.2614139,-0.1289769,-0.3089874,-18.06505,-31.71173,-26.97342
18.675714493,-10.82837,38.15821,8.65141099999999,-0.2706771,-0.1492028,-0.3603004,-18.06505,-31.71173,-26.97342
18.685572147,-0.641360199999998,13.4025,8.34489499999999,-0.2631305,-0.08077899,-0.428356,-18.06505,-31.71173,-26.97342
18.695430279,8.17909999999999,-13.2575,6.87362400000002,-0.2129509,-0.02975131,-0.4348702,-18.06505,-31.71173,-26.97342
18.70528841,16.3784,-40.69112,5.402352,-0.1247461,-0.01561111,-0.3761081,-18.06505,-31.71173,-26.97342
18.715146065,21.09921,-68.6008099999999,3.256747,-0.04996375,-0.002490317,-0.2979952,-16.27467,-31.01946,-28.65465
18.725004196,18.7388,-94.78474,-0.4214326,-0.0008602079,0.003148225,-0.2080788,-16.27467,-31.01946,-28.65465
18.734861851,15.50878,-117.1006,-2.260523,0.0307017,-0.003419982,-0.0878258,-16.27467,-31.01946,-28.65465
18.747184753,12.96203,-139.595,-3.180068,0.0672205,-0.04347879,0.04357468,-16.27467,-31.01946,-28.65465
18.757042408,11.34701,-153.6986,-3.609189,0.08758801,-0.07516515,0.1101049,-16.27467,-31.01946,-28.65465
18.766900539,13.02414,-164.4697,-2.199219,0.1330697,-0.07156618,0.183763,-15.89023,-30.25898,-26.61568
18.776758194,13.95588,-172.8605,0.0689914200000002,0.18811,-0.04366859,0.2263419,-15.89023,-30.25898,-26.61568
18.786616325,9.85623000000002,-181.3107,1.172445,0.2250839,-0.009709986,0.2409567,-15.89023,-30.25898,-26.61568
18.796474457,5.94292600000003,-190.3561,0.2529004,0.2552146,0.008919343,0.2066613,-15.89023,-30.25898,-26.61568
18.806332111,2.526551,-199.8775,-1.034463,0.3026085,0.007858572,0.2011849,-15.89023,-30.25898,-26.61568
18.816190243,-0.579244300000001,-208.7444,-2.076613,0.4028724,-0.003329374,0.225059,-19.90224,-32.00127,-22.8631
18.826047897,-4.927359,-214.5167,-4.283521,0.4668337,-0.01437898,0.2417846,-19.90224,-32.00127,-22.8631
18.835906029,-5.67275,-217.3136,-7.226065,0.5142262,-0.058622,0.2699669,-19.90224,-32.00127,-22.8631
18.84576416,-0.703476100000001,-219.3369,-8.02300500000002,0.5419701,-0.07279136,0.3188094,-19.90224,-32.00127,-22.8631
18.855621338,1.905392,-221.0032,-8.81994299999999,0.5717317,-0.05532647,0.3640566,-19.90224,-32.00127,-22.8631
18.865479946,3.706754,-219.2774,-10.22991,0.6071777,-0.05690344,0.3788725,-24.33913,-31.85682,-16.18249
18.875337601,7.185245,-216.1235,-10.41382,0.6611692,-0.05442237,0.3939375,-24.33913,-31.85682,-16.18249
18.885195732,10.97432,-213.3265,-9.86209499999999,0.7017137,-0.01480333,0.3524828,-24.33913,-31.85682,-16.18249
18.895053864,12.83779,-212.2554,-9.98470000000001,0.7070881,0.03170666,0.2852316,-24.33913,-31.85682,-16.18249
18.904911518,16.81321,-210.5296,-11.08815,0.7559738,0.06812407,0.2786126,-24.33913,-31.85682,-16.18249
18.917233467,19.60843,-207.1376,-13.60158,0.8650059,0.05505059,0.2980331,-28.7022,-32.80685,-8.722716
18.927091598,21.03709,-201.1867,-15.25676,0.9490606,0.01991294,0.3319993,-28.7022,-32.80685,-8.722716
18.936949253,23.77019,-192.8555,-17.34106,0.9731507,-0.01401647,0.310764,-28.7022,-32.80685,-8.722716
18.946807384,31.9695,-185.0598,-17.46367,0.9733852,-0.005784896,0.2993294,-28.7022,-32.80685,-8.722716
18.956665516,41.10054,-178.8114,-15.31806,0.9625826,0.08109531,0.265235,-28.7022,-32.80685,-8.722716
18.96652317,44.01999,-172.3844,-13.84679,0.9708642,0.1448464,0.2469662,-31.26045,-34.09075,-1.717236
18.976381302,42.77766,-165.3028,-12.92724,1.024909,0.1647837,0.2454058,-31.26045,-34.09075,-1.717236
18.986238956,38.42955,-157.4476,-11.9464,1.07438,0.1574276,0.243201,-31.26045,-34.09075,-1.717236
18.996097088,33.39816,-149.89,-11.14946,1.0845,0.1563634,0.1951279,-31.26045,-34.09075,-1.717236
19.005955219,29.11216,-143.6416,-11.39467,1.074386,0.1425121,0.158736,-31.26045,-34.09075,-1.717236
19.015812874,27.62138,-137.6907,-11.02685,1.061583,0.128217,0.140109,-33.81194,-35.42354,6.185067
19.025671005,27.37292,-131.0257,-9.06515500000003,1.051937,0.1221755,0.1090476,-33.81194,-35.42354,6.185067
19.03552866,27.6835,-124.0036,-7.34867099999999,1.034536,0.1413382,0.06968374,-33.81194,-35.42354,6.185067
19.045386791,26.68964,-117.3981,-5.754793,1.083688,0.1426793,0.05174334,-33.81194,-35.42354,6.185067
19.055244446,28.491,-107.9957,-2.750947,1.170923,0.1526372,0.03572886,-33.81194,-35.42354,6.185067
19.065102577,34.20567,-99.24792,0.927233400000001,1.236026,0.1843364,0.03027651,-35.94935,-36.05982,11.58104
19.074960709,37.18723,-92.0473299999999,2.153293,1.302,0.2570246,0.05295125,-35.94935,-36.05982,11.58104
19.084818363,32.28008,-86.1559500000001,1.662869,1.343912,0.3138514,0.05522947,-35.94935,-36.05982,11.58104
19.097141266,14.70127,-78.30077,0.743324399999998,1.413146,0.3003773,0.0617962,-35.94935,-36.05982,11.58104
19.10699892,0.725189899999998,-70.2670699999999,-0.2375236,1.437734,0.2250906,0.04068401,-35.94935,-36.05982,11.58104
19.116857052,-8.28161699999999,-63.9591200000003,-1.647493,1.417807,0.1269516,-0.0001129732,-37.04627,-36.74397,14.41098
19.126714706,-10.26933,-59.4959400000003,-1.892705,1.427429,0.03059371,-0.02502329,-37.04627,-36.74397,14.41098
19.136572838,-4.989474,-55.15179,-0.2988266,1.516795,-0.02013951,-0.009953151,-37.04627,-36.74397,14.41098
19.146430969,5.632347,-50.68863,1.724172,1.647409,-0.03544721,0.01153687,-37.04627,-36.74397,14.41098
19.156288624,15.07397,-46.28496,4.237596,1.800377,0.00541319,0.0355783,-37.04627,-36.74397,14.41098
19.166146755,18.11765,-42.11934,4.728019,1.994057,0.0631287,0.04624335,-38.90969,-37.08429,14.87251
19.17600441,11.53336,-38.48929,7.854472,2.200725,0.1414042,0.05881359,-38.90969,-37.08429,14.87251
19.185862541,-9.77240000000001,-38.72733,12.39089,2.345841,0.2075757,0.1033069,-38.90969,-37.08429,14.87251
19.195720673,-35.67474,-36.04943,11.10353,2.424524,0.1639579,0.09462939,-38.90969,-37.08429,14.87251
19.205578327,-55.73817,-31.52675,6.99623000000001,2.351324,0.04290218,0.0376263,-38.90969,-37.08429,14.87251
19.215436459,-62.1982299999998,-28.19425,0.927233400000001,2.177312,-0.07124577,-0.01548567,-38.90371,-37.07271,15.70469
19.225294113,-50.7689,-27.65867,-2.137917,2.029364,-0.1471785,-0.06097941,-38.90371,-37.07271,15.70469
19.235152245,-27.22697,-27.06358,-4.46743,1.86394,-0.1716121,-0.08710067,-38.90371,-37.07271,15.70469
19.245010376,-2.00791,-26.70652,-5.632187,1.671288,-0.1017947,-0.0895161,-38.90371,-37.07271,15.70469
19.254868031,15.81936,-25.57585,-5.632187,1.500752,-0.004412674,-0.06038692,-38.90371,-37.07271,15.70469
19.267190456,21.65825,-22.60041,-5.203066,1.31317,0.114321,-0.006874617,-40.02888,-37.43949,14.88207
19.277048588,14.39069,-18.67282,-4.835248,1.189586,0.1648934,0.01591913,-40.02888,-37.43949,14.88207
19.286906719,3.45829,-14.80474,-4.528733,1.094744,0.168817,-0.01144798,-40.02888,-37.43949,14.88207
19.296764374,-5.36217,-10.46058,-4.590036,1.023219,0.1297204,-0.01698813,-40.02888,-37.43949,14.88207
19.306622505,-8.90277699999999,-5.402325,-4.344824,0.9614298,0.08532603,-0.03085812,-40.02888,-37.43949,14.88207
19.31648016,-7.41199499999999,-0.1655384,-5.386975,0.9138116,0.0371471,-0.04927482,-39.27342,-37.80469,15.71416
19.326338291,-1.510983,5.547319,-6.429126,0.8608466,-0.006187395,-0.06086564,-39.27342,-37.80469,15.71416
19.336196423,9.11083900000002,10.84361,-7.34867099999999,0.8119297,-0.007596567,-0.06161794,-39.27342,-37.80469,15.71416
19.346054077,20.16747,14.53317,-7.77779200000001,0.7794606,0.01354735,-0.05618474,-39.27342,-37.80469,15.71416
19.355912209,29.73332,18.52027,-8.45212599999999,0.775599,0.04268593,-0.06259258,-39.27342,-37.80469,15.71416
19.365769863,37.93262,22.68589,-8.94255000000001,0.7789835,0.08553369,-0.06371681,-38.89292,-38.53996,16.10385
19.375627995,41.97016,24.88772,-10.22991,0.7817638,0.1210209,-0.07974972,-38.89292,-38.53996,16.10385
19.385486126,40.04457,26.61348,-11.08815,0.7894083,0.1560553,-0.09825179,-38.89292,-38.53996,16.10385
19.395343781,36.25549,28.45826,-12.19161,0.7993625,0.1707022,-0.1088124,-38.89292,-38.53996,16.10385
19.405201912,32.28008,29.05335,-13.29506,0.8057978,0.1527158,-0.1191191,-38.89292,-38.53996,16.10385
19.415059567,28.61523,28.33924,-14.70503,0.810263,0.13422,-0.1308396,-38.8897,-38.53372,16.55195
19.424917698,26.00637,26.85152,-15.31806,0.8245783,0.1347354,-0.1569161,-38.8897,-38.53372,16.55195
19.434775829,22.71422,24.94723,-15.50197,0.8478392,0.1475745,-0.1619313,-38.8897,-38.53372,16.55195
19.447098255,17.68283,22.50737,-15.93109,0.896014,0.1581835,-0.1716331,-38.8897,-38.53372,16.55195
19.456956387,12.89991,20.24603,-16.115,0.9160969,0.1437218,-0.1825838,-38.8897,-38.53372,16.55195
19.466814041,7.68217200000001,18.16321,-16.1763,0.9446599,0.1269394,-0.1836117,-38.52119,-38.17613,16.09815
19.476672173,4.700608,15.96138,-16.1763,0.9606353,0.1091053,-0.1758435,-38.52119,-38.17613,16.09815
19.486529827,3.520406,13.81906,-16.1763,0.9758714,0.1024248,-0.1765963,-38.52119,-38.17613,16.09815
19.496387959,3.582522,11.61723,-16.1763,0.9942511,0.08752979,-0.1693167,-38.52119,-38.17613,16.09815
19.50624609,3.893102,9.71294500000002,-15.93109,1.00718,0.07744956,-0.1628773,-38.52119,-38.17613,16.09815
19.516103745,5.011188,7.86816799999999,-15.56327,1.020492,0.07027268,-0.16169,-37.77248,-38.9264,15.71774
19.525961876,6.874665,6.32093599999998,-13.90809,1.041145,0.0665794,-0.1572235,-37.77248,-38.9264,15.71774
19.535819531,8.61391200000001,4.41665,-12.19161,1.054898,0.07550476,-0.1453642,-37.77248,-38.9264,15.71774
19.545677662,8.48967900000002,2.631382,-10.47512,1.059815,0.08873741,-0.131905,-37.77248,-38.9264,15.71774
19.555535317,6.81255000000002,1.917274,-8.14561100000001,1.055213,0.08145324,-0.1170457,-37.77248,-38.9264,15.71774
19.565393448,4.762724,0.965131299999997,-5.93870199999998,1.045194,0.0804584,-0.09918097,-37.7737,-39.30079,15.27342
19.575251579,2.712899,-0.1655384,-3.302674,1.039057,0.06679495,-0.094896,-37.7737,-39.30079,15.27342
19.585109234,1.222117,-0.998663500000001,-0.5440385,1.034449,0.05560331,-0.08390319,-37.7737,-39.30079,15.27342
19.594967365,0.1661467,-1.355717,1.846778,1.030354,0.04784059,-0.06809677,-37.7737,-39.30079,15.27342
19.60482502,-0.4550124,-1.117681,4.176292,1.034391,0.0527928,-0.05469494,-37.7737,-39.30079,15.27342
19.617146969,-1.759447,-0.4630831,6.62841199999998,1.035383,0.04512882,-0.02458418,-37.39997,-39.3051,15.27149
19.6270051,-2.691185,1.61973,8.16098699999997,1.043147,0.03115689,-0.005644782,-37.39997,-39.3051,15.27149
19.636863232,-2.877533,3.940578,9.325744,1.042127,0.02101866,0.01824417,-37.39997,-39.3051,15.27149
19.646720886,-1.635215,6.737498,10.24529,1.048694,0.008440295,0.02235722,-37.39997,-39.3051,15.27149
19.656579018,0.04191487,9.65343599999998,10.91962,1.03972,0.004055431,0.04209529,-37.39997,-39.3051,15.27149
19.666436672,0.1661467,12.92643,11.41005,1.050042,-0.008886548,0.07011172,-37.40073,-39.67859,14.89117
19.67629528,-4.927359,15.4258,10.4292,1.05397,-0.0116422,0.1045349,-37.40073,-39.67859,14.89117
19.686153412,-12.94031,16.02089,5.279747,1.055677,0.004903826,0.1008166,-37.40073,-39.67859,14.89117
19.69601059,-12.56762,19.53192,3.011535,1.065629,0.008050526,0.008215778,-37.40073,-39.67859,14.89117
19.705869198,0.849421699999999,27.03004,9.81616800000001,1.094383,0.01302233,-0.03144643,-37.40073,-39.67859,14.89117
19.715727329,7.68217200000001,35.24228,11.22614,1.171365,-0.06298064,0.0219229,-37.78445,-38.94956,14.05338
19.725584984,8.36544800000002,45.3588,11.77786,1.234421,-0.1996577,0.1487754,-37.78445,-38.94956,14.05338
19.735443115,7.80640399999998,55.71335,14.22998,1.266929,-0.3254364,0.2694464,-37.78445,-38.94956,14.05338
19.745301247,13.2726,65.7108500000002,21.40244,1.284903,-0.4300932,0.3473749,-37.78445,-38.94956,14.05338
19.755158901,27.62138,72.8519200000001,30.47528,1.257081,-0.5009803,0.3256092,-37.78445,-38.94956,14.05338
19.765017033,37.12512,76.9580400000002,38.32206,1.194398,-0.5284063,0.29704,-38.53391,-38.57278,14.05348
19.774874687,41.41111,82.6709,47.88533,1.176344,-0.583235,0.252269,-38.53391,-38.57278,14.05348
19.787196636,52.2814,92.37086,65.1114699999999,1.152109,-0.5810817,0.2349022,-38.53391,-38.57278,14.05348
19.797054768,59.6731899999997,100.5831,75.71689,1.150066,-0.556224,0.2504755,-38.53391,-38.57278,14.05348
19.806912422,64.9530499999998,110.045,85.46407,1.155342,-0.4617608,0.2540728,-38.53391,-38.57278,14.05348
19.816770554,69.0527000000001,119.8045,92.7591199999999,1.190539,-0.3769924,0.3266456,-39.6746,-38.22554,11.62298
19.826628685,66.0711400000002,129.4449,97.5407599999998,1.224947,-0.2542325,0.4105719,-39.6746,-38.22554,11.62298
19.83648634,51.47389,137.5381,100.9124,1.307276,-0.1330065,0.4914063,-39.6746,-38.22554,11.62298
19.846344471,26.56541,147.0596,103.9163,1.391748,-0.06053238,0.5430467,-39.6746,-38.22554,11.62298
19.856202126,0.2282626,156.4025,106.3071,1.428593,-0.04698095,0.5661168,-39.6746,-38.22554,11.62298
19.866060257,-25.42561,165.3883,108.6979,1.456847,-0.04822816,0.5561195,-42.32948,-34.92209,8.72194
19.875918388,-49.52658,174.1956,112.6213,1.470484,-0.02566561,0.57145,-42.32948,-34.92209,8.72194
19.885776043,-67.22962,180.9797,116.5447,1.536636,-0.00196712,0.6358783,-42.32948,-34.92209,8.72194
19.895634174,-84.1251500000001,184.6097,119.6098,1.661996,-0.0399623,0.7185892,-42.32948,-34.92209,8.72194
19.905491829,-103.2569,189.4299,123.2267,1.745918,-0.07269676,0.7449105,-42.32948,-34.92209,8.72194
19.91534996,-112.0152,192.4649,126.4758,1.756547,-0.1001154,0.6750436,-45.70039,-29.87233,2.861586
19.925208092,-104.9961,194.5477,130.4605,1.793299,-0.1473484,0.709582,-45.70039,-29.87233,2.861586
19.935065746,-87.6036400000003,195.2023,130.5218,1.768315,-0.1348854,0.7181897,-45.70039,-29.87233,2.861586
19.944923878,-70.3975299999998,192.8219,127.4566,1.757559,-0.1407026,0.7494418,-45.70039,-29.87233,2.861586
19.954781532,-50.45832,191.6913,120.4068,1.692012,-0.1395993,0.6794638,-45.70039,-29.87233,2.861586
19.967104435,-23.25155,192.6434,110.5983,1.568625,-0.1231468,0.6866324,-46.5413,-24.83615,-6.277301
19.97696209,-0.765591999999998,195.4403,99.3185400000001,1.424642,-0.1298371,0.6699393,-46.5413,-24.83615,-6.277301
19.986820221,19.67054,198.3563,87.6096600000003,1.279118,-0.09129156,0.6517331,-46.5413,-24.83615,-6.277301
19.996678352,36.93877,201.0342,75.8394899999998,1.231721,-0.06253794,0.6454633,-46.5413,-24.83615,-6.277301
20.006536007,49.5483,202.998,63.0884700000002,1.248501,-0.04881322,0.6324016,-47.00697,-18.37523,-14.1523
20.016394138,54.57969,203.7121,50.15354,1.254428,-0.04106856,0.6074641,-47.00697,-18.37523,-14.1523
20.026251793,58.6172300000002,203.8906,38.87379,1.22709,-0.0725416,0.5841073,-47.00697,-18.37523,-14.1523
20.036109924,62.1578300000002,200.9747,27.28752,1.14876,-0.1542975,0.5083411,-47.00697,-18.37523,-14.1523
20.045968056,72.5933099999997,197.4636,18.03077,1.031425,-0.2549157,0.4257835,-47.00697,-18.37523,-14.1523
20.05582571,92.5946300000002,192.6434,11.16483,0.9298046,-0.3728188,0.3682537,-47.00697,-18.37523,-14.1523
20.065683842,118.5591,185.8594,6.68971499999997,0.8447328,-0.4536284,0.3012171,-44.1441,-15.93001,-21.23534
20.075541496,139.1816,179.3729,4.237596,0.7215503,-0.5018338,0.194746,-44.1441,-15.93001,-21.23534
20.085399628,155.7044,173.7196,7.54795700000002,0.6087015,-0.511714,0.1622479,-44.1441,-15.93001,-21.23534
20.095257282,165.3324,167.5901,14.16868,0.5057872,-0.4678949,0.1521045,-44.1441,-15.93001,-21.23534
20.105115414,159.7419,159.9135,23.30283,0.4668235,-0.3392181,0.1705177,-44.1441,-15.93001,-21.23534
20.114973545,140.2375,151.0467,32.80479,0.4435827,-0.1752306,0.2249449,-39.3095,-17.14847,-25.41004
20.1248312,106.8192,139.74,39.54812,0.424632,-0.0380888,0.2474571,-39.3095,-17.14847,-25.41004
20.137154102,57.12644,123.7916,42.61327,0.3908127,0.06873316,0.2651334,-39.3095,-17.14847,-25.41004
20.147011757,23.08692,109.7475,41.0807,0.3558602,0.068851,0.2493398,-39.3095,-17.14847,-25.41004
20.156869888,0.4767263,95.88188,37.64773,0.3401625,0.03305935,0.2147591,-33.77049,-20.19777,-28.28915
20.166727543,-10.89049,83.2659899999998,33.90825,0.3099535,0.0006021824,0.1952686,-33.77049,-20.19777,-28.28915
20.176585674,-12.81608,73.3279999999999,31.57873,0.2837647,0.0002979206,0.1759921,-33.77049,-20.19777,-28.28915
20.186443806,-10.20721,65.2942900000001,30.16876,0.2594683,0.01805698,0.1678627,-33.77049,-20.19777,-28.28915
20.19630146,-4.678895,57.91518,28.26837,0.208443,0.0535573,0.1525967,-33.77049,-20.19777,-28.28915
20.206159592,6.439854,50.06,24.03846,0.1547091,0.1039609,0.09532559,-30.05115,-20.27568,-30.805
20.216017246,19.1115,41.66924,18.21468,0.09552007,0.2040949,0.07640868,-30.05115,-20.27568,-30.805
20.225875378,33.95721,30.36255,10.79702,0.07708108,0.3085363,0.0718025,-30.05115,-20.27568,-30.805
20.235733509,43.27459,16.735,0.620718400000002,0.05548563,0.3833771,0.09670188,-30.05115,-20.27568,-30.805
20.245591164,50.60427,2.928926,-9.43297400000002,0.05957753,0.4161738,0.1386107,-30.05115,-20.27568,-30.805
20.255449295,49.79676,-7.84219100000002,-17.46367,0.07326861,0.4320518,0.1879071,-30.05115,-20.27568,-30.805
20.26530695,48.92714,-16.05442,-23.10354,0.09379935,0.383324,0.251416,-27.81354,-19.93877,-31.20444
20.275165081,47.37424,-23.1955,-28.06908,0.09332091,0.3736934,0.2796143,-27.81354,-19.93877,-31.20444
20.285023212,42.59132,-31.11018,-33.03463,0.1022329,0.4063778,0.2802423,-27.81354,-19.93877,-31.20444
20.294880867,33.70874,-40.27456,-38.18408,0.1193632,0.4444785,0.2784029,-27.81354,-19.93877,-31.20444
20.307203293,20.78863,-54.61621,-45.72435,0.1552178,0.4276126,0.237976,-27.42579,-21.4041,-30.35912
20.317061424,12.83779,-67.2321099999997,-51.18031,0.1842719,0.4463405,0.2324488,-27.42579,-21.4041,-30.35912
20.326919556,9.35930300000001,-83.9541199999999,-58.1075499999999,0.2353992,0.4087812,0.2175063,-27.42579,-21.4041,-30.35912
20.33677721,9.23507000000002,-102.5804,-65.0348000000001,0.3157365,0.3598592,0.2178652,-27.42579,-21.4041,-30.35912
20.346635342,9.42141799999999,-121.8018,-71.7781199999999,0.3661326,0.3394497,0.2361427,-27.42579,-21.4041,-30.35912
20.356492996,4.452145,-141.0232,-77.3567000000001,0.3898216,0.3332348,0.2098759,-28.52222,-23.20338,-28.28602
20.366351128,-3.312345,-159.471,-82.3222400000002,0.4345866,0.3102652,0.2076064,-28.52222,-23.20338,-28.28602
20.376209259,-10.70414,-175.5979,-86.0617199999998,0.5063168,0.291945,0.2136174,-28.52222,-23.20338,-28.28602
20.386066914,-18.3444,-188.5113,-89.1268700000001,0.5874694,0.2864373,0.2402079,-28.52222,-23.20338,-28.28602
20.395925045,-24.80445,-197.4972,-91.6403,0.6356084,0.2787538,0.2835433,-28.52222,-23.20338,-28.28602
20.4057827,-32.19624,-204.2812,-94.39893,0.6784865,0.2593396,0.3254171,-31.09194,-25.62558,-23.70176
20.415640831,-38.09726,-208.4468,-96.8510499999998,0.7045597,0.2353347,0.3507197,-31.09194,-25.62558,-23.70176
20.425498963,-40.89247,-210.3511,-99.5483900000001,0.7219048,0.1746569,0.3494812,-31.09194,-25.62558,-23.70176
20.435356617,-39.09111,-211.0057,-101.081,0.7530016,0.1213042,0.3227109,-31.09194,-25.62558,-23.70176
20.445214748,-32.32048,-211.3032,-101.8166,0.7905442,0.06119726,0.296271,-31.09194,-25.62558,-23.70176
20.455072403,-20.95326,-211.6008,-101.694,0.813878,0.01902269,0.2840818,-31.09194,-25.62558,-23.70176
20.464930534,-10.14509,-212.6124,-100.1001,0.8255507,-0.002862866,0.2597707,-34.40359,-27.3464,-17.84026
20.474788666,-2.691185,-215.2903,-98.19971,0.8465354,0.005608912,0.2633767,-34.40359,-27.3464,-17.84026
20.487111092,-2.00791,-217.1351,-93.8472100000001,0.9035324,0.01204186,0.2870578,-34.40359,-27.3464,-17.84026
20.496969223,-5.921213,-216.9566,-88.8816599999998,0.9274044,0.006990806,0.3111141,-34.40359,-27.3464,-17.84026
20.506826878,-10.76625,-214.3977,-83.4256999999998,0.9556084,-0.01792354,0.3483587,-36.15172,-29.81704,-11.65921
20.516685009,-15.79764,-212.1959,-77.4792999999999,0.9995492,-0.04986387,0.4212596,-36.15172,-29.81704,-11.65921
20.526542664,-21.51231,-208.0898,-72.2685500000001,1.052772,-0.08918387,0.4508379,-36.15172,-29.81704,-11.65921
20.536400795,-27.97236,-201.4843,-69.0194899999999,1.098098,-0.129705,0.4383491,-36.15172,-29.81704,-11.65921
20.546258927,-30.14642,-193.7481,-65.8930399999998,1.118357,-0.1831747,0.405982,-36.15172,-29.81704,-11.65921
20.556116581,-25.11503,-186.726,-62.3374599999998,1.126918,-0.2144128,0.3605516,-37.9457,-32.9992,-3.741914
20.565974712,-16.7915,-181.9058,-59.27231,1.15911,-0.2374535,0.3690031,-37.9457,-32.9992,-3.741914
20.575832367,-11.13895,-176.669,-56.14585,1.186984,-0.2483034,0.394391,-37.9457,-32.9992,-3.741914
20.585690498,-10.02086,-170.7181,-53.01941,1.230439,-0.2625883,0.3754416,-37.9457,-32.9992,-3.741914
20.595548153,-10.14509,-163.9936,-50.19947,1.262181,-0.2906396,0.3464797,-37.9457,-32.9992,-3.741914
20.605406284,-6.91506799999999,-157.2691,-48.17647,1.297361,-0.3303739,0.3082654,-39.01251,-35.79524,1.670578
20.615264416,1.097885,-150.6636,-46.15347,1.332255,-0.3309969,0.3192636,-39.01251,-35.79524,1.670578
20.62512207,8.36544800000002,-144.7127,-44.7435,1.385747,-0.3298523,0.3683476,-39.01251,-35.79524,1.670578
20.634980202,12.40298,-138.2858,-43.51744,1.450456,-0.3346124,0.3736147,-39.01251,-35.79524,1.670578
20.644837856,16.25417,-131.3232,-41.49444,1.494194,-0.3386989,0.3485177,-39.01251,-35.79524,1.670578
20.657160759,28.67735,-124.3012,-38.73581,1.512828,-0.2988922,0.2791042,-38.23109,-37.59828,5.014286
20.667018413,39.85822,-121.9803,-35.24154,1.543588,-0.2316664,0.226042,-38.23109,-37.59828,5.014286
20.676876545,46.25616,-122.1589,-30.88902,1.571683,-0.1323015,0.185269,-38.23109,-37.59828,5.014286
20.686734676,44.51691,-123.7061,-27.63996,1.619933,-0.04284889,0.1786274,-38.23109,-37.59828,5.014286
20.696592331,35.01318,-124.4202,-24.3296,1.656235,0.008006268,0.158892,-38.23109,-37.59828,5.014286
20.706450462,22.2173,-124.7177,-21.26445,1.671913,0.0464512,0.1225739,-37.06121,-39.37713,10.4045
20.716308117,9.17295499999997,-126.741,-18.75103,1.694785,0.06064419,0.0902613,-37.06121,-39.37713,10.4045
20.726166248,-2.132142,-128.4073,-16.23761,1.707945,0.06012402,0.05029579,-37.06121,-39.37713,10.4045
20.73602438,-9.33758799999999,-130.0735,-13.54027,1.686584,0.06130954,0.02760866,-37.06121,-39.37713,10.4045
20.745882034,-14.67956,-130.9662,-10.78164,1.63246,0.07001977,0.01264,-37.06121,-39.37713,10.4045
20.755740166,-18.03382,-130.4306,-8.75863999999999,1.572083,0.08345129,-0.02615968,-35.90899,-40.81812,13.61448
20.76559782,-19.95941,-129.0619,-7.53257999999997,1.486584,0.09137717,-0.04643819,-35.90899,-40.81812,13.61448
20.775455952,-18.40651,-127.2171,-7.961701,1.406036,0.09106313,-0.069732,-35.90899,-40.81812,13.61448
20.785314083,-14.18263,-123.23,-8.51342899999998,1.319953,0.08835181,-0.07044479,-35.90899,-40.81812,13.61448
20.795171738,-9.95874700000001,-119.7785,-8.02300500000002,1.228788,0.1231364,-0.05207992,-35.90899,-40.81812,13.61448
20.805029869,-5.67275,-115.8509,-8.32951900000003,1.161577,0.1586166,-0.03452978,-34.44365,-41.88744,17.33119
20.814887524,-3.809272,-111.0307,-7.77779200000001,1.096122,0.1823396,-0.04202226,-34.44365,-41.88744,17.33119
20.827210426,-3.99562,-104.3657,-7.04215600000001,1.037092,0.2080909,-0.04288042,-34.44365,-41.88744,17.33119
20.837068081,-4.368315,-97.2246099999998,-6.30652000000001,0.9841002,0.219783,-0.04394327,-34.44365,-41.88744,17.33119
20.846926212,-4.492547,-90.3215699999997,-5.69349,0.9370737,0.2178841,-0.04999785,-34.44365,-41.88744,17.33119
20.856783867,-3.250229,-83.0019799999998,-5.509581,0.9022686,0.2077912,-0.06396295,-34.04197,-42.58171,20.66552
20.866641998,0.1040308,-75.62286,-5.632187,0.8887808,0.193571,-0.06101553,-34.04197,-42.58171,20.66552
20.87650013,4.514261,-68.1247399999999,-5.754793,0.8749828,0.1895152,-0.07187469,-34.04197,-42.58171,20.66552
20.886357784,9.42141799999999,-60.5076,-6.490429,0.8686737,0.1831263,-0.07375549,-34.04197,-42.58171,20.66552
20.896215916,14.70127,-53.12849,-7.04215600000001,0.8677092,0.1748217,-0.08004142,-34.04197,-42.58171,20.66552
20.90607357,18.42822,-46.40398,-6.85824700000003,0.8766857,0.1773896,-0.0652925,-32.90238,-43.24109,22.71508
20.915931702,21.4719,-39.56045,-6.79694399999997,0.8960874,0.1823979,-0.07319394,-32.90238,-43.24109,22.71508
20.925789833,22.83846,-33.37152,-6.79694399999997,0.9161234,0.1845225,-0.07298238,-32.90238,-43.24109,22.71508
20.935647488,21.96883,-27.42063,-6.18391400000002,0.9292449,0.185103,-0.07891488,-32.90238,-43.24109,22.71508
20.945505619,20.6644,-21.70777,-5.93870199999998,0.9568298,0.168312,-0.07992894,-32.90238,-43.24109,22.71508
20.955363274,20.35382,-15.75688,-4.835248,0.9776886,0.1708891,-0.09074686,-32.13898,-42.84683,25.20398
20.965221405,19.73266,-10.99616,-3.425279,1.002888,0.1847167,-0.09626052,-32.13898,-42.84683,25.20398
20.975079536,18.49034,-6.23544999999998,-2.383129,1.017834,0.1930886,-0.1050285,-32.13898,-42.84683,25.20398
20.984937191,15.07397,-2.248351,-1.340978,1.040143,0.1927443,-0.1197253,-32.13898,-42.84683,25.20398
20.994795799,10.53951,0.727095499999998,0.3755064,1.063935,0.2031585,-0.1238101,-32.13898,-42.84683,25.20398
21.007117748,4.638493,4.476159,1.969384,1.088161,0.2028203,-0.1414094,-32.13744,-42.5338,25.64894
21.01697588,1.097885,7.21356999999998,3.011535,1.093945,0.1984538,-0.1515919,-32.13744,-42.5338,25.64894
21.026833534,-1.510983,9.53441800000002,4.053687,1.093325,0.1847417,-0.1732628,-32.13744,-42.5338,25.64894
21.036691666,-2.629069,12.33134,5.524958,1.089817,0.1719937,-0.1905715,-32.13744,-42.5338,25.64894
21.046549797,-2.070026,14.53317,6.81232100000002,1.078916,0.1733235,-0.1995097,-32.13744,-42.5338,25.64894
21.056407452,-1.635215,16.49696,7.67056300000001,1.064197,0.177087,-0.1992682,-32.51272,-42.84251,25.20591
21.066265583,-0.951939799999999,18.7583,8.22229000000003,1.043227,0.1783839,-0.193208,-32.51272,-42.84251,25.20591
21.076123238,-0.889823900000002,20.84112,9.01922900000002,1.019647,0.1869357,-0.1927997,-32.51272,-42.84251,25.20591
21.085981369,-1.510983,23.10246,9.87747100000001,0.9868754,0.1939701,-0.1860437,-32.51272,-42.84251,25.20591
21.095839024,-2.256374,25.4233,10.67441,0.9760143,0.2045875,-0.1838825,-32.51272,-42.84251,25.20591
21.105697632,-3.125997,28.27973,11.47135,0.9666615,0.2035122,-0.1890295,-31.76969,-42.5497,24.81483
21.115555763,-3.933504,30.77911,11.90047,0.9539148,0.2048563,-0.1897949,-31.76969,-42.5497,24.81483
21.125413895,-3.99562,33.81406,12.32959,0.9414198,0.2004135,-0.1771951,-31.76969,-42.5497,24.81483
21.135271549,-4.119852,36.67049,12.82001,0.9350132,0.2071789,-0.1746507,-31.76969,-42.5497,24.81483
21.145129681,-4.865242,39.64594,13.55565,0.930372,0.2130658,-0.1510541,-31.76969,-42.5497,24.81483
21.154987335,-6.48025699999999,43.03795,14.29129,0.9286609,0.2160478,-0.1303989,-33.27583,-42.18211,23.53851
21.164845467,-9.15124000000001,46.25143,14.84301,0.928305,0.2224285,-0.1150056,-33.27583,-42.18211,23.53851
21.177167416,-13.80993,50.29804,15.76256,0.9505674,0.2309943,-0.08937388,-33.27583,-42.18211,23.53851
21.187025547,-18.28228,53.69005,16.43689,0.9828203,0.2182237,-0.06741897,-33.27583,-42.18211,23.53851
21.196883202,-22.94098,57.9746899999999,17.17253,1.024335,0.2021085,-0.05089547,-33.27583,-42.18211,23.53851
21.206741333,-27.3512,62.2593299999999,17.29513,1.071522,0.177336,-0.02062911,-34.03403,-41.82226,22.32233
21.216599941,-29.2768,68.0317000000002,17.47904,1.129471,0.144847,0.002709961,-34.03403,-41.82226,22.32233
21.226457596,-27.47544,75.3512999999998,18.21468,1.181627,0.1245339,0.04252713,-34.03403,-41.82226,22.32233
21.236315727,-23.99694,82.1948200000003,19.31813,1.213812,0.1312729,0.07662766,-34.03403,-41.82226,22.32233
21.246173859,-21.885,88.5027800000002,19.93116,1.244533,0.1529999,0.08835316,-34.03403,-41.82226,22.32233
21.256031513,-23.87271,93.38251,19.68595,1.255994,0.1725534,0.08500043,-34.05996,-41.50044,18.98985
21.265889645,-29.46315,97.0720600000002,20.7281,1.27115,0.1989144,0.07158928,-34.05996,-41.50044,18.98985
21.275747299,-36.42013,100.5236,22.44459,1.297732,0.2078483,0.05547226,-34.05996,-41.50044,18.98985
21.285605431,-41.88633,104.4512,23.85456,1.362067,0.1938408,0.0611459,-34.05996,-41.50044,18.98985
21.295463562,-44.06038,110.5806,26.36798,1.457994,0.1694505,0.07826164,-34.05996,-41.50044,18.98985
21.305321217,-42.19691,116.5315,26.7971,1.535983,0.1589696,0.08377044,-35.5816,-40.41882,16.10564
21.315179348,-37.72456,121.5302,25.08061,1.605074,0.1213139,0.1303879,-35.5816,-40.41882,16.10564
21.325037003,-32.07201,128.3143,24.89671,1.651045,0.09415874,0.1769442,-35.5816,-40.41882,16.10564
21.334895134,-27.66178,134.2652,24.22237,1.673026,0.07703868,0.2311152,-35.5816,-40.41882,16.10564
21.344753265,-22.75463,141.5847,24.46758,1.656118,0.05267178,0.2613401,-35.5816,-40.41882,16.10564
21.357075691,-14.92802,151.2847,26.42928,1.600511,0.06931158,0.2881499,-37.0492,-40.46999,11.248
21.366933346,-8.71642900000001,157.7117,27.04231,1.567973,0.09301219,0.3266704,-37.0492,-40.46999,11.248
21.376791477,-6.977184,163.1865,27.65534,1.546454,0.1064934,0.3390709,-37.0492,-40.46999,11.248
21.386649609,-9.15124000000001,168.4233,29.61704,1.55936,0.1115417,0.3571391,-37.0492,-40.46999,11.248
21.396507263,-13.25089,173.303,31.08831,1.56681,0.1096859,0.363726,-37.0492,-40.46999,11.248
21.406365395,-17.599,177.6472,31.33352,1.607143,0.09203919,0.3639607,-37.09112,-39.43504,6.243607
21.416223049,-17.53689,184.0741,32.13046,1.624603,0.08594047,0.3833075,-37.09112,-39.43504,6.243607
21.426081181,-14.36898,189.3704,32.49828,1.615848,0.1010119,0.4003315,-37.09112,-39.43504,6.243607
21.435939312,-11.51165,193.9526,32.9274,1.605336,0.1229581,0.4380441,-37.09112,-39.43504,6.243607
21.445796967,-11.38741,199.1894,33.11131,1.599994,0.1357505,0.4880649,-37.09112,-39.43504,6.243607
21.455655098,-14.18263,205.3188,33.84694,1.591812,0.1207154,0.5206402,-37.89124,-38.04024,0.0230484
21.465512753,-16.17034,211.3887,35.50212,1.551334,0.09904463,0.546911,-37.89124,-38.04024,0.0230484
21.475370884,-16.10822,216.209,38.19946,1.518121,0.1241524,0.5729938,-37.89124,-38.04024,0.0230484
21.485229015,-18.22017,220.0175,40.52897,1.486767,0.1579027,0.5636624,-37.89124,-38.04024,0.0230484
21.49508667,-23.93483,222.8739,43.04239,1.469327,0.1864657,0.5655895,-37.89124,-38.04024,0.0230484
21.504944801,-28.46929,225.6114,44.63627,1.47452,0.2258708,0.5505137,-37.19645,-36.6627,-6.205237
21.514802456,-29.64949,227.9322,44.82018,1.449848,0.2878163,0.5178441,-37.19645,-36.6627,-6.205237
21.527125359,-32.13413,228.7653,42.12285,1.417832,0.32786,0.5013872,-37.19645,-36.6627,-6.205237
21.536983013,-33.12798,229.0629,39.36421,1.380764,0.3265857,0.5086136,-37.19645,-36.6627,-6.205237
21.546841145,-31.01604,228.2893,35.50212,1.342147,0.2887933,0.5136371,-37.19645,-36.6627,-6.205237
21.556699276,-27.84813,226.8015,31.57873,1.309797,0.2433547,0.541029,-35.09052,-34.59927,-14.88099
21.56655693,-24.36964,223.8856,28.02316,1.266847,0.1822434,0.566523,-35.09052,-34.59927,-14.88099
21.576415062,-18.40651,221.4457,27.04231,1.227067,0.1220667,0.5742493,-35.09052,-34.59927,-14.88099
21.586272716,-11.38741,218.7083,26.7971,1.186327,0.1032504,0.5837759,-35.09052,-34.59927,-14.88099
21.596130848,-3.312345,216.566,25.50974,1.142119,0.1699136,0.5576542,-35.09052,-34.59927,-14.88099
21.605988502,-0.0823169599999999,213.8286,21.34113,1.096784,0.2331083,0.5176225,-31.7933,-31.85229,-21.96943
21.615846634,1.719045,211.6268,16.92732,1.029853,0.2716807,0.4508556,-31.7933,-31.85229,-21.96943
21.625704765,2.215972,206.9256,10.4905,0.975121,0.2748473,0.3864913,-31.7933,-31.85229,-21.96943
21.63556242,2.712899,200.4391,3.93108,0.9055407,0.2652759,0.3342111,-31.7933,-31.85229,-21.96943
21.645420551,4.017333,192.5244,-2.444432,0.8393973,0.2260917,0.2926536,-31.7933,-31.85229,-21.96943
21.655278206,2.09174,182.6459,-7.164762,0.765184,0.1590752,0.2447466,-26.67529,-30.15234,-27.84026
21.665136337,-3.560808,171.8153,-10.35252,0.6796594,0.08133615,0.2189535,-26.67529,-30.15234,-27.84026
21.674994469,-10.76625,160.5681,-10.53643,0.5787599,0.02195547,0.1940136,-26.67529,-30.15234,-27.84026
21.684852123,-19.77306,148.6068,-10.65903,0.5018746,-0.01829472,0.1530794,-26.67529,-30.15234,-27.84026
21.697175026,-24.18329,135.6934,-10.84294,0.4209667,-0.09216311,0.1104812,-26.67529,-30.15234,-27.84026
21.70703268,-17.41266,124.3867,-10.22991,0.3778942,-0.1447915,0.06273097,-19.22141,-30.27876,-30.75952
21.716890812,-7.90892299999997,113.556,-8.75863999999999,0.3417411,-0.1243753,0.01262339,-19.22141,-30.27876,-30.75952
21.726748466,-4.3062,100.9996,-10.72034,0.297015,-0.06420662,-0.05715288,-19.22141,-30.27876,-30.75952
21.736606598,-7.97103800000001,88.1457200000002,-12.86594,0.2175077,-0.01935935,-0.107874,-19.22141,-30.27876,-30.75952
21.746464729,-17.35054,73.44701,-15.93109,0.126565,0.005941906,-0.1533258,-19.22141,-30.27876,-30.75952
21.756322384,-26.66793,59.1053600000003,-20.83533,0.04650506,-0.02512625,-0.2037213,-12.95904,-28.91892,-33.68774
21.766180515,-28.46929,44.16862,-26.16869,-0.04142683,-0.1121523,-0.2348296,-12.95904,-28.91892,-33.68774
21.77603817,-21.69866,28.87482,-29.35645,-0.1282846,-0.2555063,-0.2367183,-12.95904,-28.91892,-33.68774
21.785896301,-9.33758799999999,12.98594,-29.35645,-0.1747155,-0.3459575,-0.2411327,-12.95904,-28.91892,-33.68774
21.795754433,5.88081099999999,-2.962458,-27.08824,-0.1948353,-0.3300416,-0.2316069,-12.95904,-28.91892,-33.68774
21.805612087,16.75109,-19.38692,-27.33345,-0.2253685,-0.2747105,-0.19764,-9.600248,-28.59496,-34.09298
21.815470219,22.83846,-34.26416,-27.94648,-0.2483261,-0.2718398,-0.1565566,-9.600248,-28.59496,-34.09298
21.825327873,27.43503,-49.08188,-26.47521,-0.2600779,-0.2630237,-0.1136659,-9.600248,-28.59496,-34.09298
21.835186005,26.81387,-64.0781299999998,-23.04224,-0.2564018,-0.2160518,-0.05390119,-9.600248,-28.59496,-34.09298
21.845044136,22.2173,-78.8958599999998,-18.62842,-0.2408762,-0.1728507,0.01045485,-9.600248,-28.59496,-34.09298
21.854901791,16.3784,-93.0589799999998,-15.19546,-0.2139096,-0.1149842,0.06566681,-8.849279,-28.22475,-33.33244
21.864759922,8.30333200000001,-107.0436,-13.41767,-0.185378,-0.09990566,0.1262457,-8.849279,-28.22475,-33.33244
21.877082348,-3.312345,-123.5276,-13.23376,-0.1227975,-0.1258082,0.2080367,-8.849279,-28.22475,-33.33244
21.886940479,-10.45567,-134.5367,-13.04985,-0.07281657,-0.1403423,0.2369121,-8.849279,-28.22475,-33.33244
21.896798134,-15.11437,-145.1293,-13.72418,-0.02610849,-0.1374225,0.2563974,-8.849279,-28.22475,-33.33244
21.906656265,-15.48706,-154.3532,-15.86979,0.009536464,-0.137125,0.2515791,-9.953232,-29.66658,-32.03129
21.91651392,-13.80993,-163.339,-18.93494,0.04365591,-0.1577155,0.2600238,-9.953232,-29.66658,-32.03129
21.926372051,-6.41814000000001,-171.4323,-20.03839,0.09887225,-0.1644319,0.2850569,-9.953232,-29.66658,-32.03129
21.936230183,1.408465,-179.4064,-20.46751,0.1573535,-0.1473754,0.283409,-9.953232,-29.66658,-32.03129
21.946087837,5.383883,-187.1426,-20.77403,0.204413,-0.110938,0.2864001,-9.953232,-29.66658,-32.03129
21.955945969,6.874665,-195.2953,-20.95794,0.2469297,-0.07249162,0.3167874,-13.67505,-29.22141,-29.58322
21.965804577,5.632347,-203.1505,-21.38706,0.2913088,-0.07067173,0.3080239,-13.67505,-29.22141,-29.58322
21.975662231,4.327913,-209.637,-20.161,0.3433183,-0.09346783,0.3348838,-13.67505,-29.22141,-29.58322
21.985520363,5.81869499999997,-214.9333,-19.18015,0.4139862,-0.1194971,0.3638465,-13.67505,-29.22141,-29.58322
21.995378494,7.74428800000002,-219.3965,-18.99624,0.465541,-0.1243585,0.3731339,-13.67505,-29.22141,-29.58322
22.005236149,12.83779,-222.729,-19.79318,0.5184514,-0.1334977,0.4063258,-18.42732,-30.56912,-24.55027
22.01509428,18.98727,-223.8596,-19.60927,0.5910549,-0.1473101,0.4444688,-18.42732,-30.56912,-24.55027
22.024951935,24.63982,-222.1339,-18.01539,0.6530885,-0.1305398,0.4878125,-18.42732,-30.56912,-24.55027
22.034810066,27.99408,-219.2774,-16.36021,0.6925294,-0.09948285,0.5014094,-18.42732,-30.56912,-24.55027
22.047132015,25.94425,-215.7664,-14.45982,0.7038159,-0.06693231,0.4607912,-18.42732,-30.56912,-24.55027
22.056990623,24.5777,-213.8026,-11.45597,0.7153107,-0.04750453,0.4238929,-23.98536,-31.52774,-18.68473
22.066848755,25.63367,-212.4339,-10.10731,0.7352417,-0.01687482,0.3697179,-23.98536,-31.52774,-18.68473
22.076706409,26.44118,-211.8983,-9.31036799999998,0.7745534,-0.01563655,0.347604,-23.98536,-31.52774,-18.68473
22.086564541,28.18042,-210.1726,-9.18776100000002,0.8087742,-0.03877455,0.3253571,-23.98536,-31.52774,-18.68473
22.096422195,31.90738,-208.0302,-8.75863999999999,0.8430715,-0.06286715,0.3078929,-23.98536,-31.52774,-18.68473
22.106280327,37.99474,-205.5309,-6.91955000000002,0.8957497,-0.03217314,0.3232147,-28.35441,-32.48934,-12.05714
22.116137981,42.21862,-202.5554,-5.264369,0.9626914,0.02161515,0.364405,-28.35441,-32.48934,-12.05714
22.125996113,41.59746,-195.2953,-5.325672,1.0666,0.0451845,0.4350028,-28.35441,-32.48934,-12.05714
22.135854244,39.48552,-185.1193,-6.12261100000003,1.130927,0.02203357,0.4679138,-28.35441,-32.48934,-12.05714
22.145711899,37.12512,-174.8243,-7.28736799999999,1.136135,-0.0007795733,0.4710014,-28.35441,-32.48934,-12.05714
22.15557003,34.88894,-164.7673,-8.206914,1.119236,-0.003444227,0.4491766,-31.26719,-34.47583,-2.929728
22.165427685,36.00703,-154.4722,-8.14561100000001,1.10234,0.01768021,0.4126974,-31.26719,-34.47583,-2.929728
22.175285816,38.92648,-144.5342,-7.59388300000003,1.099264,0.05640173,0.3646688,-31.26719,-34.47583,-2.929728
22.185143948,41.72169,-135.7269,-7.71648900000002,1.070063,0.08995505,0.2978011,-31.26719,-34.47583,-2.929728
22.195001602,43.15036,-128.6453,-9.61688199999998,1.049747,0.10408,0.2196211,-31.26719,-34.47583,-2.929728
22.204859734,41.84593,-123.8251,-10.29121,1.063496,0.108963,0.1916728,-34.20239,-35.07959,4.134786
22.217182159,40.29303,-114.7202,-7.71648900000002,1.125498,0.1003365,0.2103635,-34.20239,-35.07959,4.134786
22.227040291,40.10668,-106.5675,-6.429126,1.186561,0.1180768,0.2551669,-34.20239,-35.07959,4.134786
22.236897945,39.23706,-97.0460800000001,-6.30652000000001,1.236224,0.146769,0.2628476,-34.20239,-35.07959,4.134786
22.246756077,37.00089,-88.5958199999998,-6.490429,1.272261,0.1820605,0.2458598,-34.20239,-35.07959,4.134786
22.256614208,35.44799,-79.3124199999999,-7.83909500000001,1.310051,0.1988935,0.2334833,-35.64987,-36.08658,9.915068
22.266471863,34.7026,-69.3149200000001,-9.24906400000001,1.309409,0.1957809,0.1836295,-35.64987,-36.08658,9.915068
22.276329994,34.51625,-62.29287,-9.18776100000002,1.284796,0.2022206,0.1423442,-35.64987,-36.08658,9.915068
22.286187649,32.96335,-57.9487200000001,-7.04215600000001,1.275813,0.2418561,0.09249082,-35.64987,-36.08658,9.915068
22.29604578,29.17428,-54.43769,-6.55173199999999,1.245099,0.2923364,0.001348288,-35.64987,-36.08658,9.915068
22.305903912,24.20501,-52.41438,-7.77779200000001,1.246527,0.2741386,-0.05345438,-37.43473,-36.76816,12.36447
22.315761566,22.40364,-51.10519,-7.53257999999997,1.274112,0.2145187,-0.05626749,-37.43473,-36.76816,12.36447
22.325619698,22.65211,-50.74813,-6.79694399999997,1.297042,0.1684584,-0.06560861,-37.43473,-36.76816,12.36447
22.335477352,25.01251,-52.17635,-6.24521700000002,1.323583,0.1423636,-0.07962468,-37.43473,-36.76816,12.36447
22.345335484,28.24254,-54.14014,-4.406127,1.365546,0.1549112,-0.07676247,-37.43473,-36.76816,12.36447
22.355193615,29.42274,-56.22295,-3.118764,1.412371,0.183117,-0.06233662,-38.54395,-36.73205,14.03462
22.36505127,24.9504,-56.10394,-2.873553,1.462883,0.2006872,-0.0379899,-38.54395,-36.73205,14.03462
22.374909401,17.80707,-54.4972,-1.157069,1.519703,0.2067165,0.00821271,-38.54395,-36.73205,14.03462
22.387231827,3.334059,-54.55671,2.337202,1.582551,0.2356542,0.05020995,-38.54395,-36.73205,14.03462
22.397089958,-9.08912500000002,-53.54505,2.827626,1.599963,0.2357535,0.03558663,-38.54395,-36.73205,14.03462
22.406947613,-20.95326,-53.30702,3.31805,1.554879,0.2162918,0.01306336,-38.90693,-37.07895,15.25659
22.416805744,-31.94778,-54.25916,4.298898,1.563492,0.1922565,-0.05818374,-38.90693,-37.07895,15.25659
22.426663399,-37.84879,-52.71193,3.501959,1.598561,0.1305203,-0.1238965,-38.90693,-37.07895,15.25659
22.43652153,-37.16552,-51.58126,1.233748,1.608719,0.06431473,-0.1547896,-38.90693,-37.07895,15.25659
22.446379662,-30.39488,-50.27206,-4.222218,1.592996,0.003751558,-0.1771198,-38.90693,-37.07895,15.25659
22.456237316,-17.84747,-49.37943,-8.88124700000001,1.548369,-0.03266796,-0.1811039,-39.27744,-37.0684,15.70662
22.466095448,-1.759447,-50.15304,-11.82379,1.489965,-0.01614995,-0.1801321,-39.27744,-37.0684,15.70662
22.475953102,11.84394,-51.75978,-13.66288,1.446848,0.03994837,-0.1713769,-39.27744,-37.0684,15.70662
22.485811234,18.55246,-52.65242,-14.58243,1.424016,0.08603658,-0.154849,-39.27744,-37.0684,15.70662
22.495669365,19.98112,-51.40273,-14.58243,1.384476,0.1023096,-0.1340217,-39.27744,-37.0684,15.70662
22.505527973,17.49649,-49.73648,-13.90809,1.316125,0.1178532,-0.1099148,-39.26744,-37.79311,16.54634
22.515385628,13.83165,-47.41563,-13.11115,1.256321,0.101313,-0.09722205,-39.26744,-37.79311,16.54634
22.525243759,11.90605,-44.61871,-12.55943,1.181192,0.08459307,-0.09629238,-39.26744,-37.79311,16.54634
22.535101414,12.03029,-41.28621,-13.04985,1.115312,0.06940719,-0.09739839,-39.26744,-37.79311,16.54634
22.544959545,13.89376,-37.06108,-12.92724,1.056483,0.04652789,-0.09052342,-39.26744,-37.79311,16.54634
22.554817677,15.81936,-33.13349,-12.68203,0.9989306,0.04020701,-0.08304771,-38.50045,-39.25206,18.1579
22.567140102,18.24188,-28.19425,-12.13031,0.9622164,0.04426896,-0.08105256,-38.50045,-39.25206,18.1579
22.576998234,20.22959,-23.96911,-11.63988,0.936768,0.05526985,-0.07197143,-38.50045,-39.25206,18.1579
22.586855888,20.97498,-19.50594,-11.45597,0.9205025,0.07999157,-0.05907179,-38.50045,-39.25206,18.1579
22.59671402,20.47805,-14.86425,-11.08815,0.9063596,0.08964287,-0.04728798,-38.50045,-39.25206,18.1579
22.606571674,19.1115,-10.28206,-10.72034,0.9087689,0.091607,-0.04826414,-37.74103,-39.23753,19.8184
22.616429806,17.37226,-5.759378,-10.22991,0.9205491,0.1024633,-0.03588123,-37.74103,-39.23753,19.8184
22.62628746,15.01185,-2.367369,-9.98470000000001,0.941093,0.09532128,-0.0424639,-37.74103,-39.23753,19.8184
22.636145592,12.21663,1.143658,-9.92339700000002,0.9493264,0.08902437,-0.05413517,-37.74103,-39.23753,19.8184
22.646003723,10.72585,4.833212,-9.739489,0.9669139,0.07159752,-0.07130489,-37.74103,-39.23753,19.8184
22.655861378,11.47124,7.98718600000001,-9.003853,0.97778,0.06439912,-0.07008291,-37.36333,-38.86211,20.64487
22.665719509,12.40298,10.60558,-8.75863999999999,0.9871204,0.05717109,-0.07315224,-37.36333,-38.86211,20.64487
22.675577164,13.83165,13.52152,-8.39082200000002,1.001243,0.06411359,-0.07185733,-37.36333,-38.86211,20.64487
22.685435295,15.57089,16.37794,-7.65518600000002,1.030114,0.06583657,-0.06985828,-37.36333,-38.86211,20.64487
22.695293426,15.94359,19.53192,-6.67433799999998,1.060175,0.06518725,-0.05447862,-37.36333,-38.86211,20.64487
22.705151081,16.0057,22.7454,-5.69349,1.085732,0.06154074,-0.04912325,-37.35731,-39.96655,20.65619
22.715009212,15.88147,26.13741,-4.773945,1.09878,0.04807674,-0.03696365,-37.35731,-39.96655,20.65619
22.724866867,16.62686,29.23187,-4.222218,1.10982,0.03995159,-0.02377199,-37.35731,-39.96655,20.65619
22.73718977,17.5586,33.93308,-3.486583,1.108277,0.02931134,-0.002755024,-37.35731,-39.96655,20.65619
22.747047424,19.67054,38.21772,-2.383129,1.098789,0.03796197,-0.009255583,-37.35731,-39.96655,20.65619
22.756905556,22.09306,41.72875,-1.770099,1.100818,0.05118179,0.007599057,-36.99035,-39.23993,20.26263
22.766763687,21.03709,44.46616,-1.58619,1.12201,0.06299522,-0.006500072,-36.99035,-39.23993,20.26263
22.776621342,17.43437,47.62014,-1.524887,1.153427,0.04865665,-0.01138164,-36.99035,-39.23993,20.26263
22.786479473,16.62686,51.96429,-0.3601296,1.179768,0.04593991,-0.01944719,-36.99035,-39.23993,20.26263
22.796337128,18.05553,55.89188,0.0689914200000002,1.190488,0.04553504,-0.02295779,-36.99035,-39.23993,20.26263
22.806195259,20.22959,59.2838899999999,0.3755064,1.181972,0.04979835,-0.03382202,-37.00357,-38.52145,18.97481
22.81605339,22.58999,62.0213000000001,0.5594154,1.159839,0.06275155,-0.03100126,-37.00357,-38.52145,18.97481
22.825911045,23.14903,63.4495100000002,-0.1149176,1.144222,0.09324656,-0.03723011,-37.00357,-38.52145,18.97481
22.835769176,21.8446,64.9372300000001,-0.727947499999999,1.128645,0.1198471,-0.0439716,-37.00357,-38.52145,18.97481
22.845626831,19.4842,66.1274200000001,-1.034463,1.118233,0.1255752,-0.04904605,-37.00357,-38.52145,18.97481
22.855484962,16.93744,67.8531699999999,-0.973159599999999,1.111523,0.1216483,-0.04227477,-37.755,-38.89254,18.15027
22.865343094,16.0057,68.9243299999998,-1.463584,1.097167,0.1025686,-0.03552239,-37.755,-38.89254,18.15027
22.875200748,16.68898,69.8764800000002,-2.199219,1.092997,0.09185486,-0.02788617,-37.755,-38.89254,18.15027
22.88505888,19.23573,71.0666599999998,-2.505734,1.080166,0.07719884,-0.01297182,-37.755,-38.89254,18.15027
22.894917488,22.77634,71.95929,-2.199219,1.06457,0.07854126,-0.007467006,-37.755,-38.89254,18.15027
22.904775143,26.1306,72.3758500000001,-2.199219,1.058166,0.09556012,0.004268685,-38.14626,-37.80606,16.54054
22.917097092,27.12445,73.6850500000001,-1.708796,1.073552,0.1152866,0.03775983,-38.14626,-37.80606,16.54054
22.926955223,25.50944,75.2917899999999,-1.892705,1.115076,0.1143092,0.06830774,-38.14626,-37.80606,16.54054
22.936812878,23.52173,77.7911700000002,-2.873553,1.159056,0.1118916,0.09832926,-38.14626,-37.80606,16.54054
22.946671009,22.40364,81.3617,-5.69349,1.214408,0.09167865,0.1572697,-38.14626,-37.80606,16.54054
22.956529617,22.40364,86.12241,-8.75863999999999,1.287502,0.04982428,0.2426098,-38.52718,-38.18771,15.26597
22.966387749,22.71422,93.9775900000001,-11.70118,1.403917,-0.007547458,0.3698503,-38.52718,-38.18771,15.26597
22.976245403,26.19271,106.0579,-14.092,1.51154,-0.06095237,0.5375023,-38.52718,-38.18771,15.26597
22.986103535,28.30466,119.1499,-18.01539,1.517654,-0.05337241,0.5978583,-38.52718,-38.18771,15.26597
22.995961189,24.76405,127.7192,-21.14185,1.485847,-0.03852184,0.6104169,-38.52718,-38.18771,15.26597
23.005819321,16.19205,138.1332,-20.2223,1.494456,-0.02860013,0.6405675,-39.66309,-38.20327,13.22332
23.015677452,10.72585,150.8086,-16.54412,1.515608,-0.05620942,0.6246986,-39.66309,-38.20327,13.22332
23.025535107,8.551796,164.0196,-13.72418,1.554369,-0.09036318,0.6387131,-39.66309,-38.20327,13.22332
23.035393238,8.42756399999998,179.1944,-10.41382,1.613227,-0.1505569,0.6685142,-39.66309,-38.20327,13.22332
23.045250893,14.76339,193.417,-6.490429,1.658815,-0.1680566,0.6955104,-39.66309,-38.20327,13.22332
23.055109024,23.33538,205.3783,-2.62834,1.71646,-0.1172807,0.7339325,-39.32484,-37.16016,9.113194
23.064967155,26.68964,215.0783,1.417657,1.783859,-0.06740298,0.7693328,-39.32484,-37.16016,9.113194
23.07482481,24.5777,224.7187,8.09968399999998,1.835228,-0.04400013,0.7898828,-39.32484,-37.16016,9.113194
23.087147713,18.80092,234.0021,18.39859,1.851585,-0.0258671,0.78549,-39.32484,-37.16016,9.113194
23.097005367,10.66374,239.1199,25.14192,1.811738,-0.02774605,0.7678325,-38.98975,-37.23932,3.734103
23.106863499,3.706754,243.9996,33.11131,1.742436,-0.05579075,0.7197052,-38.98975,-37.23932,3.734103
23.116721153,1.656929,248.1653,42.67458,1.666709,-0.04582875,0.700263,-38.98975,-37.23932,3.734103
23.126579285,2.278088,251.2597,50.95048,1.606372,-0.04836207,0.6862464,-38.98975,-37.23932,3.734103
23.136436939,2.153856,254.6517,57.3872900000002,1.541737,-0.03492844,0.6580498,-38.98975,-37.23932,3.734103
23.146295071,4.390029,258.9364,63.27238,1.480689,-0.0588761,0.644821,-38.98975,-37.23932,3.734103
23.156153202,9.297187,263.102,70.0157100000001,1.397713,-0.06129479,0.5851249,-39.05714,-35.88166,-4.538761
23.166010857,15.07397,265.7204,74.7973400000003,1.331386,-0.02414998,0.5255253,-39.05714,-35.88166,-4.538761
23.175868988,22.15518,266.494,77.0655500000002,1.292376,0.01272703,0.4597838,-39.05714,-35.88166,-4.538761
23.185726643,31.34834,265.2443,78.5368300000001,1.267875,0.1008152,0.3909133,-39.05714,-35.88166,-4.538761
23.195584774,38.92648,261.1977,76.5751300000003,1.243166,0.1850733,0.3392646,-39.05714,-35.88166,-4.538761
23.205442905,44.95172,255.7229,73.6325800000002,1.1873,0.240427,0.30938,-37.25559,-33.49091,-11.99979
23.21530056,49.05137,248.5223,70.3222200000002,1.093152,0.3237241,0.2951321,-37.25559,-33.49091,-11.99979
23.225158691,50.85273,239.2389,64.9888599999999,1.015792,0.4052602,0.2906932,-37.25559,-33.49091,-11.99979
