Time (s),Gyroscope X (deg/s),Gyroscope Y (deg/s),Gyroscope Z (deg/s),Accelerometer X (g),Accelerometer Y (g),Accelerometer Z (g),Magnetometer X (uT),Magnetometer Y (uT),Magnetometer Z (uT)
97.961523533,21.31931,-3.260183,-3.769361,0.8255644,-0.5255283,-0.2443645,-58.34687,20.78534,0.06681919
97.971521378,20.82705,-3.794354,-3.525478,0.8067135,-0.533667,-0.2433723,-58.34687,20.78534,0.06681919
97.981519699,19.35025,-3.794354,-3.769361,0.8183783,-0.531926,-0.2376502,-58.34687,20.78534,0.06681919
97.99151659,17.13505,-4.684639,-4.440039,0.8545504,-0.5380672,-0.2434546,-57.98028,21.16904,0.1320724
98.001514912,16.76585,-2.310545,-3.403537,0.8486529,-0.561601,-0.2534884,-57.98028,21.16904,0.1320724
98.011512756,16.51972,-2.844716,-3.281595,0.8505349,-0.5582456,-0.2625854,-57.98028,21.16904,0.1320724
98.021510601,16.95045,-2.132488,-2.793829,0.8505377,-0.5581578,-0.2530139,-57.98028,21.16904,0.1320724
98.031508923,17.68885,-1.301555,-2.184121,0.8617409,-0.5579453,-0.2539907,-57.98028,21.16904,0.1320724
98.041506767,18.24265,-0.767383199999997,-1.696355,0.8577938,-0.5549673,-0.2386701,-58.34715,20.78588,0.13132
98.051504135,17.44272,-0.05515479,-1.147618,0.8583302,-0.5316271,-0.2381985,-58.34715,20.78588,0.13132
98.06150198,15.41212,0.3009594,-0.598881400000002,0.8634927,-0.5206764,-0.2209816,-58.34715,20.78588,0.13132
98.071499825,12.76619,0.894483100000001,0.1937385,0.8528529,-0.4990193,-0.2209686,-58.34715,20.78588,0.13132
98.081498146,8.76653499999999,0.3009594,0.620533899999998,0.8546024,-0.488237,-0.214753,-58.34715,20.78588,0.13132
98.091495991,3.966942,0.597721199999998,1.1083,0.8560208,-0.4856959,-0.2056631,-58.71037,20.39563,-0.7079372
98.101493835,-0.586516899999998,1.013188,1.90092,0.8468122,-0.4882812,-0.202775,-58.71037,20.39563,-0.7079372
98.111491203,-4.524643,1.488007,2.69354,0.8504834,-0.5023975,-0.2133064,-58.71037,20.39563,-0.7079372
98.121489048,-8.27817099999997,2.496997,3.242276,0.8483129,-0.5165195,-0.2118632,-58.71037,20.39563,-0.7079372
98.13148737,-10.98563,3.446635,3.48616,0.8484297,-0.5228915,-0.2180833,-58.71037,20.39563,-0.7079372
98.141485214,-12.9547,4.396273,3.851984,0.8447417,-0.5341716,-0.221424,-58.71823,20.77598,-0.7099657
98.151483059,-14.30843,5.227206,4.034896,0.8371387,-0.5445574,-0.2247581,-58.71823,20.77598,-0.7099657
98.161481381,-15.29296,5.702025,4.095867,0.8373121,-0.5537825,-0.2242775,-58.71823,20.77598,-0.7099657
98.171478272,-15.53909,6.29554899999997,4.156838,0.8277586,-0.5642681,-0.2343082,-58.71823,20.77598,-0.7099657
98.181476593,-16.03136,6.59230999999998,4.156838,0.8215084,-0.5687606,-0.2338176,-58.71823,20.77598,-0.7099657
98.191474438,-16.64669,6.17684400000002,3.851984,0.8142191,-0.5699073,-0.2371546,-57.95919,20.39798,-1.089377
98.201472282,-16.70822,5.82073000000003,4.034896,0.8143176,-0.5753077,-0.2433749,-57.95919,20.39798,-1.089377
98.211470604,-16.64669,5.464615,3.608101,0.8104641,-0.5778837,-0.2510247,-57.95919,20.39798,-1.089377
98.221468449,-15.84676,4.811739,3.059364,0.810103,-0.5847511,-0.2572438,-57.95919,20.39798,-1.089377
98.231466293,-14.36996,4.099511,2.571598,0.8087299,-0.5897297,-0.2672902,-57.95919,20.39798,-1.089377
98.241463661,-12.46243,3.624692,1.96189,0.8048138,-0.5888659,-0.2706336,-58.35135,21.15915,-0.7092133
98.251461506,-10.43183,2.853111,1.352183,0.8029126,-0.591285,-0.2653654,-58.35135,21.15915,-0.7092133
98.261459827,-8.58583600000001,2.022178,1.291212,0.799998,-0.5918592,-0.2687102,-58.35135,21.15915,-0.7092133
98.271457672,-7.04750599999997,1.666064,1.047329,0.8073035,-0.59175,-0.2725515,-58.35135,21.15915,-0.7092133
98.281455517,-5.693775,1.07254,0.803446099999999,0.8122222,-0.594021,-0.2658595,-58.35135,21.15915,-0.7092133
98.291452885,-4.216978,0.894483100000001,0.620533899999998,0.8224989,-0.5961908,-0.2596553,-57.98277,21.53905,-1.095461
98.301450729,-2.617113,1.013188,0.0717969800000001,0.81827,-0.6045353,-0.2596458,-57.98277,21.53905,-1.095461
98.311449051,-0.955716300000001,1.191245,-0.3549984,0.8216435,-0.6025161,-0.2586951,-57.98277,21.53905,-1.095461
98.321446896,0.705681,1.191245,-0.7817937,0.8181262,-0.5966929,-0.2519904,-57.98277,21.53905,-1.095461
98.33144474,1.874812,1.191245,-1.086647,0.8243129,-0.5887868,-0.251046,-57.98277,21.53905,-1.095461
98.341442108,2.797811,1.131893,-1.26956,0.8216677,-0.577658,-0.2505657,-58.72779,21.15961,-0.3249912
98.351439953,3.105477,1.191245,-1.147618,0.8234875,-0.5708495,-0.2539207,-58.72779,21.15961,-0.3249912
98.361438274,2.797811,0.953835399999999,-1.147618,0.8199239,-0.5626195,-0.2496094,-58.72779,21.15961,-0.3249912
98.371436119,2.428612,0.953835399999999,-0.903735200000002,0.820681,-0.5508806,-0.2429137,-58.72779,21.15961,-0.3249912
98.381433964,1.628679,0.775778400000001,-0.598881400000002,0.8180932,-0.5425829,-0.2333398,-57.9783,21.16523,-0.3194304
98.391432285,0.02881546,0.4790165,-0.2940276,0.8136823,-0.5411991,-0.2318967,-57.9783,21.16523,-0.3194304
98.401429176,-1.386449,0.4790165,-0.1720861,0.815017,-0.5343345,-0.2280722,-57.9783,21.16523,-0.3194304
98.411427498,-2.801713,0.3603118,-0.05014454,0.8145828,-0.5373157,-0.2342921,-57.9783,21.16523,-0.3194304
98.421425343,-4.032378,0.3603118,-0.1720861,0.8142411,-0.5451151,-0.2362039,-57.9783,21.16523,-0.3194304
98.431423187,-4.955376,0.3009594,-0.4159691,0.8148447,-0.5514862,-0.2433819,-58.33732,20.40171,-0.3181553
98.441421509,-5.93990799999998,0.5383689,-0.4769399,0.8213338,-0.5595707,-0.2381268,-58.33732,20.40171,-0.3181553
98.451419354,-6.73984000000002,0.5383689,-0.598881400000002,0.8188525,-0.5571944,-0.2386017,-58.33732,20.40171,-0.3181553
98.461416721,-7.10903899999999,0.4790165,-0.4769399,0.8185914,-0.5694139,-0.2457767,-58.33732,20.40171,-0.3181553
98.471414566,-7.47823899999999,0.4790165,-0.2940276,0.8161924,-0.5714007,-0.2452935,-58.33732,20.40171,-0.3181553
98.481412411,-7.539772,0.5383689,-0.1720861,0.8216164,-0.5746381,-0.2390806,-57.97044,20.78488,-0.3174019
98.491410732,-7.66283799999999,0.4790165,0.0717969800000001,0.8148655,-0.578795,-0.2539036,-57.97044,20.78488,-0.3174019
98.501408577,-7.35517199999998,0.3009594,0.1937385,0.8124844,-0.5817665,-0.2548558,-57.97044,20.78488,-0.3174019
98.511406422,-6.678307,0.1822547,0.0717969800000001,0.8110493,-0.5832877,-0.2586816,-57.97044,20.78488,-0.3174019
98.52140379,-5.816842,0.004197581,-0.1720861,0.8111651,-0.5896904,-0.2682516,-57.97044,20.78488,-0.3174019
98.531401634,-4.216978,-0.05515479,-0.4769399,0.8170663,-0.5924544,-0.2644326,-58.72162,20.78252,0.06403828
98.541399956,-2.432514,-0.1145072,-0.7817937,0.8156033,-0.5925359,-0.270173,-58.72162,20.78252,0.06403828
98.551397801,-1.078783,0.06354995,-0.8427644,0.8238853,-0.5923372,-0.2663588,-58.72162,20.78252,0.06403828
98.561395645,0.02881546,-0.1145072,-0.8427644,0.8201836,-0.5768602,-0.2663563,-58.72162,20.78252,0.06403828
98.571393967,0.3980148,-0.05515479,-0.659852100000001,0.8167673,-0.5763584,-0.2572576,-58.72162,20.78252,0.06403828
98.581390858,0.644147799999998,-0.05515479,-0.5379106,0.8152882,-0.5753982,-0.255341,-58.71992,20.77925,-0.3229637
98.591389179,0.5210813,-0.2925643,-0.4769399,0.8161527,-0.5695586,-0.2563011,-58.71992,20.77925,-0.3229637
98.601387024,0.4595481,-0.2332119,-0.4159691,0.8161712,-0.5705257,-0.2558223,-58.71992,20.77925,-0.3229637
98.611384869,0.1518819,-0.4706214,-0.4159691,0.8126255,-0.5632759,-0.252468,-58.71992,20.77925,-0.3229637
98.62138319,-0.586516899999998,-0.5299737,-0.2940276,0.8124329,-0.5531057,-0.2558203,-58.71992,20.77925,-0.3229637
98.631381035,-1.140316,-0.826735599999998,-0.2330568,0.8143189,-0.5496229,-0.2510387,-58.72162,20.78252,0.06403828
98.641378403,-1.817181,-1.123497,-0.2940276,0.8163943,-0.5564071,-0.2534334,-58.72162,20.78252,0.06403828
98.651376247,-2.063314,-1.123497,-0.4159691,0.8158798,-0.5549595,-0.2534329,-58.72162,20.78252,0.06403828
98.661374092,-2.186381,-1.301555,-0.5379106,0.8208321,-0.5592657,-0.2567905,-58.72162,20.78252,0.06403828
98.671372414,-2.001781,-1.004793,-0.5379106,0.8234482,-0.5689899,-0.263014,-58.72162,20.78252,0.06403828
98.681370258,-1.447982,-0.708030899999999,-0.7817937,0.8215193,-0.5699648,-0.2591818,-58.3609,21.54278,-0.3242388
98.691368103,-1.017249,-0.648678499999998,-0.964705900000002,0.8243124,-0.5631635,-0.2654099,-58.3609,21.54278,-0.3242388
98.701365471,-0.4019172,-0.648678499999998,-0.964705900000002,0.8248547,-0.5660509,-0.2634958,-58.3609,21.54278,-0.3242388
98.711363316,-0.894183000000003,-0.648678499999998,-0.964705900000002,0.8189288,-0.5617462,-0.2582223,-58.3609,21.54278,-0.3242388
98.721361637,-0.832649800000001,-0.648678499999998,-0.964705900000002,0.8179567,-0.5616996,-0.2510419,-58.3609,21.54278,-0.3242388
98.731359482,-1.324916,-0.411269,-0.903735200000002,0.820385,-0.5611087,-0.2448248,-57.96427,20.40779,0.07162762
98.741357326,-1.878715,-0.4706214,-0.598881400000002,0.8168896,-0.5569139,-0.2567842,-57.96427,20.40779,0.07162762
98.751355648,-2.55558,-0.589326100000003,-0.3549984,0.8150783,-0.5642301,-0.255822,-57.96427,20.40779,0.07162762
98.761352539,-3.047846,-0.886087999999999,-0.05014454,0.8189405,-0.562153,-0.2496078,-57.96427,20.40779,0.07162762
98.771350861,-3.170913,-0.886087999999999,-0.2940276,0.8159436,-0.5583642,-0.2539108,-57.96427,20.40779,0.07162762
98.781348705,-3.109379,-0.9454404,-0.3549984,0.8158609,-0.5540099,-0.255826,-58.72779,21.15961,-0.3249912
98.79134655,-3.417045,-1.064145,-0.2330568,0.8085256,-0.5527408,-0.2605993,-58.72779,21.15961,-0.3249912
98.801344871,-3.847778,-1.123497,-0.4769399,0.8085629,-0.5546575,-0.2577274,-58.72779,21.15961,-0.3249912
98.811342716,-4.278511,-1.360907,-0.4159691,0.8144049,-0.554643,-0.2687449,-58.72779,21.15961,-0.3249912
98.821340084,-4.524643,-1.18285,-0.598881400000002,0.8194579,-0.5642796,-0.2706655,-58.72779,21.15961,-0.3249912
98.831337929,-4.216978,-0.767383199999997,-0.659852100000001,0.8318636,-0.5761873,-0.2711627,-58.33115,20.02462,0.07087517
98.841335773,-3.170913,-0.2925643,-0.8427644,0.8343815,-0.5805023,-0.2702088,-58.33115,20.02462,0.07087517
98.851334095,-2.124848,0.1822547,-0.903735200000002,0.8255952,-0.5797084,-0.2706722,-58.33115,20.02462,0.07087517
98.86133194,-1.447982,0.2416071,-1.025677,0.8220772,-0.5739071,-0.2663604,-58.33115,20.02462,0.07087517
98.871329784,-1.078783,0.1229023,-0.903735200000002,0.8195959,-0.5715309,-0.2668353,-58.33115,20.02462,0.07087517
98.881327152,-0.894183000000003,0.06354995,-0.720822899999998,0.8160142,-0.5623248,-0.2620456,-58.38029,22.31057,0.5102091
98.891324997,-1.078783,-0.2925643,-0.659852100000001,0.8135968,-0.5633488,-0.2625197,-58.38029,22.31057,0.5102091
98.901323318,-0.894183000000003,-0.648678499999998,-0.7817937,0.8140478,-0.5613831,-0.2610853,-58.38029,22.31057,0.5102091
98.911321163,-0.586516899999998,-0.886087999999999,-0.720822899999998,0.8165465,-0.5647572,-0.2634816,-58.38029,22.31057,0.5102091
98.921319008,0.2749484,-0.767383199999997,-0.720822899999998,0.8194484,-0.563807,-0.2721013,-58.72948,21.16288,0.06201077
98.931317329,1.013347,-0.9454404,-0.7817937,0.8194683,-0.5647258,-0.2663582,-58.72948,21.16288,0.06201077
98.94131422,1.690213,-0.886087999999999,-0.7817937,0.8262303,-0.5617643,-0.2759423,-58.72948,21.16288,0.06201077
98.951312542,1.936346,-0.767383199999997,-0.720822899999998,0.8285211,-0.5539045,-0.2716411,-58.72948,21.16288,0.06201077
98.961310387,1.997879,-0.3519166,-0.8427644,0.8266196,-0.5563322,-0.26733,-58.72948,21.16288,0.06201077
98.971308231,1.690213,-0.1145072,-0.659852100000001,0.8251055,-0.5533807,-0.2601495,-58.34885,20.78915,0.518321
98.981306553,1.07488,0.1822547,-0.4769399,0.8226541,-0.5523871,-0.2524883,-58.34885,20.78915,0.518321
98.991304398,0.5210813,0.3009594,-0.2330568,0.8207446,-0.5542897,-0.2438701,-58.34885,20.78915,0.518321
99.001301765,-0.894183000000003,0.2416071,0.01082622,0.8196059,-0.5455739,-0.2448275,-58.34885,20.78915,0.518321
99.01129961,-2.247914,0.3603118,0.5595631,0.8196687,-0.5490093,-0.2486553,-58.34885,20.78915,0.518321
99.021297455,-3.478579,0.4196641,0.925387699999998,0.8192824,-0.5543449,-0.2467389,-57.97411,20.79196,0.521102
99.031295776,-4.093911,0.5383689,1.230241,0.8189285,-0.561755,-0.2591794,-57.97411,20.79196,0.521102
99.041293621,-4.216978,0.597721199999998,1.291212,0.8209131,-0.5636727,-0.2606181,-57.97411,20.79196,0.521102
99.051291466,-3.970845,0.716426,1.291212,0.8224453,-0.5675958,-0.2677984,-57.97411,20.79196,0.521102
99.061288834,-3.540112,0.953835399999999,1.1083,0.8219832,-0.5691373,-0.275933,-57.97411,20.79196,0.521102
99.071286678,-3.293979,1.131893,0.864416900000002,0.8190171,-0.566696,-0.2682712,-58.72162,20.78252,0.06403828
99.081285,-2.801713,1.30995,0.803446099999999,0.8194312,-0.5628003,-0.268273,-58.72162,20.78252,0.06403828
99.091282845,-2.55558,1.369302,0.4985923,0.8175089,-0.5643356,-0.2725764,-58.72162,20.78252,0.06403828
99.101280689,-2.432514,1.428654,0.4985923,0.8146695,-0.5687301,-0.2687417,-58.72162,20.78252,0.06403828
99.111278534,-1.755648,1.369302,0.1327677,0.8171688,-0.5720867,-0.2692238,-58.72162,20.78252,0.06403828
99.121275902,-0.955716300000001,1.606712,0.1937385,0.8183266,-0.5817475,-0.2653947,-57.97044,20.78488,-0.3174019
99.131274223,-0.1557842,1.666064,-0.05014454,0.821008,-0.5948282,-0.2668318,-57.97044,20.78488,-0.3174019
99.141272068,1.25948,1.547359,-0.2330568,0.8222277,-0.6079552,-0.2701805,-57.97044,20.78488,-0.3174019
99.151269913,3.105477,1.07254,-0.598881400000002,0.822328,-0.6132985,-0.2701793,-57.97044,20.78488,-0.3174019
99.161268234,4.643808,0.894483100000001,-0.4159691,0.8209916,-0.6194448,-0.2486395,-57.97044,20.78488,-0.3174019
99.171266079,4.766874,0.597721199999998,-0.2330568,0.8235245,-0.6240611,-0.2275854,-58.71992,20.77925,-0.3229637
99.181263447,4.274609,0.06354995,0.2547093,0.8213688,-0.6384934,-0.2069991,-58.71992,20.77925,-0.3229637
99.191261292,3.043944,0.716426,2.083832,0.838051,-0.6700649,-0.1883556,-58.71992,20.77925,-0.3229637
99.201259136,1.997879,1.131893,5.13237,0.8456787,-0.6876361,-0.2132503,-58.71992,20.77925,-0.3229637
99.211257458,1.44408,0.597721199999998,8.36382100000002,0.8506747,-0.6951994,-0.2539361,-58.71992,20.77925,-0.3229637
99.221255302,1.936346,-0.3519166,11.77818,0.8614273,-0.7233558,-0.2740477,-58.35671,21.1695,0.5162926
99.231253147,0.2749484,-2.904068,15.37546,0.8590876,-0.7545331,-0.2773857,-58.35671,21.1695,0.5162926
99.241250515,1.44408,-2.844716,20.37506,0.8421329,-0.8373421,-0.2624989,-58.35671,21.1695,0.5162926
99.25124836,8.64346799999999,-0.411269,25.86243,0.8338091,-0.9134669,-0.279215,-58.35671,21.1695,0.5162926
99.261246681,15.90439,0.716426,29.21582,0.8668348,-0.9594429,-0.2768678,-58.35671,21.1695,0.5162926
99.271244526,19.28872,4.930444,34.8861,0.9277017,-1.009431,-0.295147,-57.97213,20.78815,0.06960011
99.281242371,21.75005,12.34949,49.39714,0.9758394,-1.028328,-0.2339683,-57.97213,20.78815,0.06960011
99.291240215,8.82806800000001,15.02035,66.8347899999999,0.9088987,-0.9399083,-0.1979811,-57.97213,20.78815,0.06960011
99.301237583,-17.63122,15.55452,84.6992199999999,0.8729282,-0.865183,-0.1323728,-57.97213,20.78815,0.06960011
99.311235905,-56.95096,15.79193,102.6246,0.7987424,-0.7757518,0.08261419,-57.97213,20.78815,0.06960011
99.321233749,-95.40923,21.48975,111.8922,0.7029625,-0.6848566,0.02676435,-58.00975,22.68666,-0.3275423
99.331231594,-125.3759,23.09227,107.6242,0.6020879,-0.7418087,-0.1903187,-58.00975,22.68666,-0.3275423
99.341229916,-159.4038,13.65524,115.8553,0.5424113,-0.7843341,-0.3007547,-58.00975,22.68666,-0.3275423
99.35122776,-185.3093,0.894483100000001,125.2448,0.6850026,-0.9015031,-0.1904221,-58.00975,22.68666,-0.3275423
99.361225128,-173.8641,-4.625287,131.1589,0.8426924,-0.9943277,-0.1605228,-58.00975,22.68666,-0.3275423
99.371222973,-144.082,-9.67023799999998,133.3539,0.9750059,-1.242977,-0.2171614,-55.84698,26.52071,1.281369
99.381220818,-101.501,-9.01736299999997,136.8902,0.9875121,-1.469999,-0.3066185,-55.84698,26.52071,1.281369
99.391219139,-43.47518,-12.34109,136.2805,0.8878155,-1.40544,-0.4174909,-55.84698,26.52071,1.281369
99.401216984,13.19693,-17.26734,128.903,0.8025615,-1.119963,-0.3676439,-55.84698,26.52071,1.281369
99.411214829,48.94773,-17.62346,117.3186,0.7512047,-0.8223411,-0.2853159,-55.84698,26.52071,1.281369
99.421212196,59.7775799999999,-17.74216,110.8557,0.7480818,-0.6298779,-0.27531,-52.63807,33.80056,4.557379
99.431210041,52.57819,-20.94719,108.173,0.7412395,-0.5250629,-0.2767607,-52.63807,33.80056,4.557379
99.441208363,42.24061,-23.20258,103.3563,0.723094,-0.492815,-0.2714731,-52.63807,33.80056,4.557379
99.451206207,38.97935,-24.38963,97.1372499999999,0.6857929,-0.53203,-0.3340914,-52.63807,33.80056,4.557379
99.461204052,46.671,-26.70437,88.78426,0.6354678,-0.5518805,-0.3765918,-52.63807,33.80056,4.557379
99.471201897,62.0543099999999,-24.62704,78.7240800000001,0.6667067,-0.5018322,-0.3383731,-48.21613,37.63079,3.731963
99.481199265,75.6531500000001,-18.21698,68.7858499999999,0.6929788,-0.4471631,-0.3154613,-48.21613,37.63079,3.731963
99.491197586,83.3448100000003,-11.45081,60.0670199999998,0.667652,-0.369869,-0.3106513,-48.21613,37.63079,3.731963
99.501195431,83.0371399999998,-8.42383900000002,51.89694,0.5967789,-0.3082864,-0.3842444,-48.21613,37.63079,3.731963
99.511193276,71.6535000000002,-7.83031500000001,47.56802,0.5324356,-0.2837783,-0.4875109,-43.88758,43.28531,1.283772
99.52119112,54.48572,-8.00837199999998,45.37307,0.5114727,-0.2311327,-0.4774378,-43.88758,43.28531,1.283772
99.531189442,41.13301,-11.0947,38.60532,0.4322286,-0.2968937,-0.6419129,-43.88758,43.28531,1.283772
99.54118681,16.70432,-12.63786,43.90977,0.4058703,-0.3714214,-0.6045189,-43.88758,43.28531,1.283772
99.551184654,9.87413200000002,-12.34109,42.75133,0.376005,-0.4685349,-0.6379421,-43.88758,43.28531,1.283772
99.561182499,8.58193500000002,-12.99397,40.49541,0.3367594,-0.4812492,-0.6680207,-42.03996,44.81045,0.0640583
99.571180821,19.53485,-9.551534,27.69155,0.2964656,-0.3836956,-0.5942749,-42.03996,44.81045,0.0640583
99.581178665,30.85696,1.013188,7.51023000000002,0.2891542,-0.251141,-0.4842238,-42.03996,44.81045,0.0640583
99.59117651,32.51836,9.79733799999999,-11.26876,0.2337221,-0.152762,-0.4468235,-42.03996,44.81045,0.0640583
99.601173878,22.24231,14.90164,-26.08466,0.1565914,-0.1192322,-0.439519,-42.03996,44.81045,0.0640583
99.611171723,4.397675,15.91063,-39.1324,0.1264041,-0.1465949,-0.4437666,-39.8336,47.09965,-1.092431
99.621170044,-12.9547,15.67322,-51.0217,0.187798,-0.2240562,-0.4385893,-39.8336,47.09965,-1.092431
99.631167889,-26.18434,17.39444,-61.9964399999998,0.2682592,-0.304345,-0.4119087,-39.8336,47.09965,-1.092431
99.641165733,-34.30673,21.07429,-70.4713700000002,0.3312019,-0.4380353,-0.3947552,-39.8336,47.09965,-1.092431
99.651163578,-35.47586,26.35665,-76.8733000000002,0.392184,-0.545734,-0.4005767,-39.8336,47.09965,-1.092431
99.661160946,-30.3686,32.05448,-82.11678,0.4600171,-0.6025665,-0.3853659,-40.56905,46.33658,-0.7069359
99.671159267,-21.87701,38.82065,-87.4822199999998,0.5360252,-0.6276468,-0.3696989,-40.56905,46.33658,-0.7069359
99.681157112,-10.9241,43.33143,-94.3109399999999,0.5778224,-0.6220538,-0.3798233,-40.56905,46.33658,-0.7069359
99.691154957,0.5210813,46.06164,-104.0663,0.6479956,-0.5956387,-0.3531522,-40.56905,46.33658,-0.7069359
99.701152801,7.720469,47.54544,-114.5532,0.712863,-0.5715432,-0.303021,-40.56905,46.33658,-0.7069359
99.711151123,13.44306,47.24868,-126.1377,0.7746053,-0.5632921,-0.2782448,-43.51812,44.02868,-1.104013
99.721148968,19.59638,44.81524,-136.9905,0.8504385,-0.5784202,-0.236737,-43.51812,44.02868,-1.104013
99.731146336,25.44204,42.6192,-145.6483,0.9484732,-0.6074423,-0.168464,-43.51812,44.02868,-1.104013
99.74114418,30.24163,41.84762,-151.6844,1.025069,-0.6114225,-0.1317462,-43.51812,44.02868,-1.104013
99.751142502,31.2877,41.78827,-155.5866,1.090416,-0.6132085,-0.096445,-43.51812,44.02868,-1.104013
99.761140346,26.73424,40.89798,-154.3062,1.121256,-0.6201724,-0.07448247,-47.85537,39.79078,-3.565622
99.771138191,20.15018,35.43756,-147.7213,1.131229,-0.6056374,-0.04770334,-47.85537,39.79078,-3.565622
99.781136036,12.39699,27.5437,-138.8196,1.146897,-0.5833333,-0.03385769,-47.85537,39.79078,-3.565622
99.791133404,11.474,15.25776,-127.7229,1.14411,-0.5899548,-0.008008022,-47.85537,39.79078,-3.565622
99.801131725,3.413143,6.41425300000001,-117.6627,1.117705,-0.5587191,0.01069443,-47.85537,39.79078,-3.565622
99.81112957,-1.571049,-3.022773,-107.4197,1.08444,-0.5771149,0.03707884,-52.56403,32.19687,-5.174056
99.821127415,-2.986313,-9.72959,-96.3839399999998,1.061778,-0.563172,0.06965793,-52.56403,32.19687,-5.174056
99.831125259,-5.139976,-14.53713,-86.1408500000002,1.057771,-0.556684,0.09694208,-52.56403,32.19687,-5.174056
99.841123581,-9.57036899999999,-16.43641,-77.9098099999998,1.078598,-0.5235389,0.1160403,-52.56403,32.19687,-5.174056
99.851120949,-16.76976,-14.71519,-73.8247600000001,1.098681,-0.5032668,0.1107357,-52.56403,32.19687,-5.174056
99.861118793,-29.4456,-11.2134,-71.0810799999999,1.107897,-0.5284117,0.05138269,-55.42831,25.70833,-5.161825
99.871116638,-44.27511,-8.18642900000001,-66.1424499999998,1.10271,-0.5906236,0.008335907,-55.42831,25.70833,-5.161825
99.881114483,-57.8739600000001,-4.625287,-61.3867300000001,1.073245,-0.6322274,-0.06673846,-55.42831,25.70833,-5.161825
99.891112804,-66.73474,-1.657669,-57.7284899999999,1.026732,-0.6997652,-0.1245477,-55.42831,25.70833,-5.161825
99.901110649,-68.4576700000002,2.378292,-57.11878,0.9954624,-0.7748777,-0.1933888,-55.42831,25.70833,-5.161825
99.911108017,-63.59655,6.82971999999999,-54.55801,0.9552495,-0.8409955,-0.2689167,-57.59562,21.51789,-3.930695
99.921105862,-52.3975,10.68762,-51.50947,0.8966565,-0.8621479,-0.3295882,-57.59562,21.51789,-3.930695
99.931103706,-41.99838,11.10309,-47.11957,0.8358454,-0.8422311,-0.3582019,-57.59562,21.51789,-3.930695
99.941102028,-32.953,9.61928199999999,-44.01006,0.8043779,-0.8016794,-0.3725148,-57.59562,21.51789,-3.930695
99.951099873,-26.55354,9.559929,-42.11997,0.8032499,-0.7669849,-0.3490715,-57.59562,21.51789,-3.930695
99.961097717,-25.81514,11.87467,-37.60814,0.7932922,-0.7033522,-0.3304061,-58.67437,19.23059,-3.539867
99.971095085,-31.53773,13.18042,-31.2062,0.7943227,-0.6284968,-0.3304272,-58.67437,19.23059,-3.539867
99.981093407,-44.70584,12.94301,-25.47495,0.7933075,-0.5738809,-0.3074678,-58.67437,19.23059,-3.539867
99.991091251,-60.33529,13.47719,-21.26797,0.7956306,-0.5673248,-0.2864162,-58.67437,19.23059,-3.539867
100.001089096,-71.22667,14.48618,-20.53632,0.811516,-0.635205,-0.3041337,-58.67437,19.23059,-3.539867
100.011086941,-73.5649299999999,17.5725,-22.06059,0.7901821,-0.6946194,-0.3782605,-59.74694,16.5662,-2.760009
100.021085262,-69.25761,15.13905,-22.18253,0.7482435,-0.7459035,-0.4222032,-59.74694,16.5662,-2.760009
100.031083107,-64.2118800000002,11.39985,-19.31691,0.765815,-0.8252289,-0.4198205,-59.74694,16.5662,-2.760009
100.041080475,-59.2892199999999,9.26316700000002,-10.90294,0.8227177,-0.9481635,-0.3825592,-59.74694,16.5662,-2.760009
100.05107832,-42.79832,9.32251899999998,-4.561981,0.8737522,-1.096803,-0.380217,-60.4765,15.42659,-1.920982
100.061076164,-11.8471,12.82431,-3.342566,0.8614566,-1.117123,-0.3969405,-60.4765,15.42659,-1.920982
100.071074486,22.61151,13.23978,-2.488975,0.8188412,-1.02762,-0.4011964,-60.4765,15.42659,-1.920982
100.08107233,48.8862,12.88366,-1.025677,0.8306403,-0.8763016,-0.3529197,-60.4765,15.42659,-1.920982
100.091070175,65.25404,14.60488,0.1327677,0.8661709,-0.7428665,-0.2922369,-60.4765,15.42659,-1.920982
100.101067543,73.86869,16.68221,2.632569,0.8797786,-0.6363728,-0.260702,-60.83803,15.03307,-3.147241
100.111065388,77.5606800000002,16.56351,6.473727,0.9006833,-0.555683,-0.2502306,-60.83803,15.03307,-3.147241
100.121063709,77.25302,14.78294,10.071,0.934031,-0.4888133,-0.2369058,-60.83803,15.03307,-3.147241
100.131061554,73.5610299999997,12.76496,12.93663,0.9645807,-0.4024865,-0.2154453,-60.83803,15.03307,-3.147241
100.141059399,66.6077699999998,11.16244,15.4974,0.9810048,-0.3428377,-0.2111821,-60.83803,15.03307,-3.147241
100.15105772,57.8700499999997,8.31352900000002,18.30205,0.9754,-0.3041915,-0.2241039,-60.44799,14.70203,-5.14228
100.161054611,49.44,4.336921,20.74088,0.9688808,-0.2683212,-0.2197946,-60.44799,14.70203,-5.14228
100.171052933,42.79441,1.30995,20.80186,0.9776726,-0.2432987,-0.2126377,-60.44799,14.70203,-5.14228
100.181050777,37.87175,-0.3519166,19.82632,0.9867922,-0.2357855,-0.2078698,-60.44799,14.70203,-5.14228
100.191048622,34.61049,-1.123497,17.63138,0.9947621,-0.2191279,-0.2102808,-60.44799,14.70203,-5.14228
100.201046944,31.16463,-0.648678499999998,14.58284,0.9950116,-0.2065017,-0.2117202,-59.69314,14.6973,-6.362225
100.211044788,27.16497,0.3603118,11.47333,0.9847567,-0.2051938,-0.2059598,-59.69314,14.6973,-6.362225
100.221042156,21.81158,1.250597,10.19294,0.9662268,-0.2046363,-0.211192,-59.69314,14.6973,-6.362225
100.231040001,14.79679,0.716426,10.61974,0.9375959,-0.211064,-0.2144904,-59.69314,14.6973,-6.362225
100.241037846,6.55133799999999,-1.420259,11.83915,0.9137241,-0.2116453,-0.2264131,-59.69314,14.6973,-6.362225
100.251036167,-2.063314,-4.328525,12.93663,0.8930882,-0.2285925,-0.228287,-59.71711,15.77825,-5.980968
100.261034012,-9.44730199999998,-7.71161000000001,13.60731,0.8720937,-0.2523194,-0.2268086,-59.71711,15.77825,-5.980968
100.271031857,-14.24689,-10.14506,12.38789,0.8602313,-0.2689178,-0.2095549,-59.71711,15.77825,-5.980968
100.281029224,-16.46209,-10.67923,7.81508400000003,0.8507538,-0.2831974,-0.2095347,-59.71711,15.77825,-5.980968
100.291027069,-16.76976,-9.551534,2.144803,0.8508053,-0.3118581,-0.2085703,-59.71711,15.77825,-5.980968
100.301025391,-15.16989,-7.47420100000002,-3.159653,0.8533202,-0.3419105,-0.2056955,-59.739,16.91605,-6.374055
100.311023235,-13.20083,-5.87168699999998,-7.12275300000002,0.8661442,-0.3762029,-0.2104947,-59.739,16.91605,-6.374055
100.32102108,-11.41637,-4.091116,-9.50061200000003,0.8699549,-0.3975266,-0.2124102,-59.739,16.91605,-6.374055
100.331019402,-9.44730199999998,-3.082125,-11.45168,0.8640392,-0.4200888,-0.2224442,-59.739,16.91605,-6.374055
100.341017246,-7.41670600000002,-3.082125,-13.09789,0.8540744,-0.4343825,-0.2229017,-59.739,16.91605,-6.374055
100.351014614,-5.201509,-3.43824,-14.80507,0.8616009,-0.4458656,-0.2195618,-59.36765,16.9254,-5.59727
100.361012459,-3.540112,-4.328525,-16.39031,0.8728994,-0.4503878,-0.2071374,-59.36765,16.9254,-5.59727
100.371010304,-2.370981,-4.981401,-18.03652,0.8765661,-0.4638734,-0.201876,-59.36765,16.9254,-5.59727
100.381008625,-1.694115,-5.515573,-19.37788,0.8825976,-0.473359,-0.1894411,-59.36765,16.9254,-5.59727
100.39100647,-1.140316,-5.45622,-20.29244,0.8865436,-0.4755968,-0.1770044,-59.36765,16.9254,-5.59727
100.401004315,-0.4634504,-4.981401,-21.207,0.8959641,-0.4841182,-0.1727114,-59.72864,16.16568,-5.144493
100.411001682,1.07488,-4.625287,-22.60933,0.9036194,-0.5023713,-0.16602,-59.72864,16.16568,-5.144493
100.420999527,3.905409,-4.625287,-23.40195,0.9166072,-0.5197796,-0.1847026,-59.72864,16.16568,-5.144493
100.430997849,8.15120200000001,-4.684639,-23.28,0.9413996,-0.5426456,-0.18809,-59.72864,16.16568,-5.144493
100.440995693,12.39699,-3.022773,-21.32894,0.9663171,-0.5459795,-0.1814325,-59.72864,16.16568,-5.144493
100.450993538,13.75073,-1.360907,-17.91458,0.963555,-0.5284787,-0.1747321,-60.09891,15.78906,-4.371242
100.46099186,11.59706,-0.1738595,-15.29283,0.9491693,-0.4888676,-0.1694529,-60.09891,15.78906,-4.371242
100.470988751,6.79747099999997,0.4790165,-14.62216,0.9425774,-0.4747475,-0.1522163,-60.09891,15.78906,-4.371242
100.480987072,1.25948,1.013188,-13.89051,0.9292935,-0.4939837,-0.1545811,-60.09891,15.78906,-4.371242
100.490984917,-0.894183000000003,0.8351307,-13.82954,0.9255549,-0.5286339,-0.1627015,-60.09891,15.78906,-4.371242
100.500982761,0.767214200000001,0.1822547,-13.64662,0.9394858,-0.5959748,-0.1703656,-60.43227,13.94132,-5.138224
100.510981083,9.074201,0.1822547,-12.06138,0.9383224,-0.6634164,-0.1564675,-60.43227,13.94132,-5.138224
100.520978928,22.91918,1.488007,-10.17129,0.9321197,-0.695926,-0.1377839,-60.43227,13.94132,-5.138224
100.530976772,36.70262,3.624692,-7.48857699999998,0.9149318,-0.6882756,-0.1143056,-60.43227,13.94132,-5.138224
100.54097414,46.671,7.423244,-6.26916200000001,0.9185185,-0.6452664,-0.09517993,-60.43227,13.94132,-5.138224
100.550971985,51.83979,11.4592,-7.18372300000002,0.9169396,-0.6125334,-0.07269254,-60.4244,13.56096,-5.136196
100.560970307,51.90133,15.55452,-7.91537200000002,0.9345114,-0.5885023,-0.08660806,-60.4244,13.56096,-5.136196
100.570968151,49.87073,19.76854,-8.15925599999997,0.9527752,-0.5998952,-0.04356512,-60.4244,13.56096,-5.136196
100.580965996,46.3018,23.74514,-7.42760699999997,0.9716997,-0.6476821,-0.04932871,-60.4244,13.56096,-5.136196
100.590963841,44.70194,25.34766,-4.927805,0.9827421,-0.6914487,-0.07661553,-60.40331,12.7899,-6.357646
100.600961208,46.79407,25.46636,-3.891303,0.9863548,-0.7532884,-0.04501989,-60.40331,12.7899,-6.357646
100.61095953,53.37812,26.05989,-1.757326,0.9774989,-0.8269721,-0.05934276,-60.40331,12.7899,-6.357646
100.620957374,67.0385099999998,25.52571,0.1327677,0.9846495,-0.8706577,-0.06939407,-60.40331,12.7899,-6.357646
100.630955219,84.20628,26.2973,0.803446099999999,1.004269,-0.8760829,-0.01439063,-60.40331,12.7899,-6.357646
100.640953064,97.74358,32.11383,1.839949,1.021247,-0.8438357,0.07410805,-60.74374,11.62532,-8.805353
100.650951385,103.22,38.40518,3.181306,1.014017,-0.7692742,0.1128661,-60.74374,11.62532,-8.805353
100.660948753,96.1437199999998,45.29005,2.266744,1.030494,-0.7367002,0.185094,-60.74374,11.62532,-8.805353
100.670946598,81.62188,53.36198,3.54713,1.063088,-0.7591357,0.2118432,-60.74374,11.62532,-8.805353
100.680944443,68.1461000000001,57.8727599999998,5.315282,1.052901,-0.8403629,0.1726386,-60.74374,11.62532,-8.805353
100.690942764,60.3929100000001,56.92312,11.04653,1.092912,-0.9997805,0.1362382,-60.72347,11.22099,-11.64134
100.700940609,63.2234399999998,55.91413,20.80186,1.161416,-1.145519,0.09930591,-60.72347,11.22099,-11.64134
100.710938454,76.4530899999999,56.03283,32.3863,1.210219,-1.227879,0.07435608,-60.72347,11.22099,-11.64134
100.720936298,95.9591199999999,56.74506,43.90977,1.250167,-1.227668,0.06423628,-60.72347,11.22099,-11.64134
100.730933666,115.7113,56.98247,51.95791,1.241939,-1.152339,0.0828957,-60.72347,11.22099,-11.64134
100.740931988,131.0946,57.16053,58.3598400000001,1.216449,-1.091166,0.1317391,-59.20084,10.82138,-15.24021
100.750929832,142.4782,56.50765,64.27401,1.192735,-1.021444,0.1552128,-59.20084,10.82138,-15.24021
100.760927677,149.6161,56.62636,69.3345900000003,1.187421,-0.9976019,0.1700517,-59.20084,10.82138,-15.24021
100.770925522,151.4006,56.74506,75.3706899999997,1.239576,-0.9970214,0.2269112,-59.20084,10.82138,-15.24021
100.780923843,148.6316,61.84936,80.4312599999998,1.30567,-0.9866396,0.2626866,-59.20084,10.82138,-15.24021
100.790921211,141.6783,67.6658900000002,81.5287399999999,1.330171,-0.9939306,0.2626457,-57.69446,11.54866,-20.52217
100.800919056,133.6175,77.6964399999998,85.5527999999997,1.363015,-1.02939,0.2994479,-57.69446,11.54866,-20.52217
100.810916901,125.6181,84.6406700000001,94.5764800000002,1.362385,-1.048718,0.2597322,-57.69446,11.54866,-20.52217
100.820914745,117.865,87.1334699999998,104.3318,1.316896,-1.067261,0.1904227,-57.69446,11.54866,-20.52217
100.830913067,116.019,85.2341900000003,113.9042,1.320484,-1.129855,0.1397035,-57.69446,11.54866,-20.52217
100.840910912,122.8491,81.1982300000003,125.3057,1.329669,-1.231381,0.07079871,-55.06554,12.28765,-25.40878
100.850908279,137.0633,73.4824300000002,139.5119,1.361308,-1.33481,0.01094818,-55.06554,12.28765,-25.40878
100.860906124,156.6924,65.4105100000002,154.2668,1.427608,-1.413382,0.043396,-55.06554,12.28765,-25.40878
100.870904446,184.69,67.4284800000002,160.6688,1.482899,-1.29406,0.1121838,-55.06554,12.28765,-25.40878
100.88090229,209.4264,81.1388899999999,149.816,1.438263,-1.042978,0.1921192,-55.06554,12.28765,-25.40878
100.890900135,211.7031,95.1460400000003,137.256,1.379509,-0.8703846,0.2749709,-50.95448,14.16589,-31.83837
100.90089798,194.843,109.9248,131.7686,1.338791,-0.7506308,0.3329187,-50.95448,14.16589,-31.83837
100.910896301,165.0609,119.3618,131.1589,1.314437,-0.7238631,0.3899048,-50.95448,14.16589,-31.83837
100.920893669,132.6329,126.7809,136.8292,1.323385,-0.836823,0.3994898,-50.95448,14.16589,-31.83837
100.930891514,115.7113,131.7071,146.5236,1.309589,-0.9866095,0.3105373,-50.95448,14.16589,-31.83837
100.940889359,117.6804,133.4283,157.3154,1.31988,-1.095543,0.226318,-46.8261,15.21947,-38.32806
100.950887203,127.6487,133.6064,170.2412,1.298024,-1.100139,0.196207,-46.8261,15.21947,-38.32806
100.960885525,138.294,131.1136,180.2404,1.272785,-1.026279,0.2503111,-46.8261,15.21947,-38.32806
100.970883369,149.5546,131.5291,185.6058,1.25465,-0.8895873,0.3048652,-46.8261,15.21947,-38.32806
100.980880737,160.569,135.2089,182.0695,1.197435,-0.6686538,0.4097162,-46.8261,15.21947,-38.32806
100.990878582,164.8148,142.9841,169.0218,1.132593,-0.4316339,0.4834689,-39.39864,16.74547,-44.34405
101.000876427,155.6464,152.243,154.7546,1.058657,-0.2293131,0.5553321,-39.39864,16.74547,-44.34405
101.010874748,133.4944,160.5524,144.8773,0.9995083,-0.1151601,0.5721559,-39.39864,16.74547,-44.34405
101.020872593,100.328,163.5793,139.8168,0.9504876,-0.1003688,0.5420874,-39.39864,16.74547,-44.34405
101.030870438,73.99176,162.3923,138.8412,0.9018949,-0.1589498,0.5646802,-39.39864,16.74547,-44.34405
101.040867805,60.1467800000003,162.1549,142.3166,0.8746119,-0.3189068,0.4025317,-32.24415,16.36734,-50.35222
101.05086565,57.74699,156.6351,148.6575,0.8494655,-0.4083406,0.3485194,-32.24415,16.36734,-50.35222
101.060863972,64.6387099999998,151.8276,153.7181,0.8322541,-0.4270728,0.3035681,-32.24415,16.36734,-50.35222
101.070861816,75.16089,147.9103,156.9496,0.7894959,-0.3817575,0.3031524,-32.24415,16.36734,-50.35222
101.080859661,84.6370100000002,148.2664,155.974,0.7319043,-0.2458633,0.3558612,-32.24415,16.36734,-50.35222
101.090857983,86.9137299999999,152.5991,148.2917,0.6371135,-0.07523906,0.4076687,-23.25504,14.55785,-54.79117
101.100855827,77.6222199999998,155.9822,138.4144,0.5068851,0.06126819,0.4188678,-23.25504,14.55785,-54.79117
101.110853195,58.9776499999998,159.2466,129.5737,0.4043204,0.1251588,0.4003657,-23.25504,14.55785,-54.79117
101.12085104,32.27223,160.6711,128.6591,0.3429393,0.1486448,0.3382518,-23.25504,14.55785,-54.79117
101.130848885,2.736278,159.4247,132.6832,0.3248619,0.1496744,0.2775039,-23.25504,14.55785,-54.79117
101.140847206,-26.18434,156.2196,139.451,0.3126504,0.1235018,0.2052669,-14.61399,14.21494,-57.9502
101.150845051,-49.19777,150.5812,146.9503,0.2770335,0.0720092,0.1249415,-14.61399,14.21494,-57.9502
101.160842896,-62.3658799999999,142.0938,155.6692,0.2262445,0.02414388,0.04894876,-14.61399,14.21494,-57.9502
101.170840263,-66.1809499999999,133.547,159.9371,0.1481454,0.03142239,0.05721883,-14.61399,14.21494,-57.9502
101.180838108,-65.1348799999998,128.9175,158.047,0.04055316,0.05368683,0.1205727,-5.210598,12.75729,-58.64658
101.19083643,-63.1042800000002,126.0093,152.6816,-0.08283471,0.08686848,0.1896942,-5.210598,12.75729,-58.64658
101.200834274,-63.59655,124.7629,145.1822,-0.1903715,0.1318855,0.2434706,-5.210598,12.75729,-58.64658
101.210832119,-61.3813499999999,122.3294,141.524,-0.2889025,0.214983,0.2440996,-5.210598,12.75729,-58.64658
101.220830441,-71.1036,121.7359,132.9881,-0.249503,-0.01524942,0.2235114,-5.210598,12.75729,-58.64658
101.230827332,-86.1792400000001,116.2755,133.3539,-0.203198,0.139687,0.2209979,3.640062,16.57102,-57.82624
101.240825653,-105.8083,107.3726,135.7927,-0.3470516,0.1435111,0.1532899,3.640062,16.57102,-57.82624
101.250823498,-126.1143,96.03632,141.7678,-0.3080857,0.1177813,0.1249926,3.640062,16.57102,-57.82624
101.260821343,-141.1284,84.58132,147.1333,-0.3334676,0.06821291,0.1264853,3.640062,16.57102,-57.82624
101.270819664,-148.0201,77.9338499999998,143.414,-0.4560451,0.08375438,0.1779026,3.640062,16.57102,-57.82624
101.280817509,-149.1277,76.0939300000001,129.0249,-0.6041223,0.08170953,0.2212331,11.80908,19.69971,-54.94328
101.290815353,-149.4969,77.1029200000002,115.3065,-0.6819124,0.04602074,0.2065421,11.80908,19.69971,-54.94328
101.300812721,-153.1889,77.1029200000002,107.8071,-0.6863247,-0.004696466,0.1965127,11.80908,19.69971,-54.94328
101.310810566,-161.8036,77.1029200000002,104.9415,-0.638104,-0.03025218,0.1672421,11.80908,19.69971,-54.94328
101.320808888,-173.5564,73.8385399999998,104.7586,-0.6224097,-0.08868497,0.1203294,11.80908,19.69971,-54.94328
101.330806732,-184.9401,69.2090499999999,107.5632,-0.6322356,-0.1638028,0.05767236,18.06588,24.34939,-50.46982
101.340804577,-191.7087,62.50224,111.3434,-0.6470083,-0.2352141,-0.01406991,18.06588,24.34939,-50.46982
101.350802898,-192.7548,56.21089,114.2091,-0.6399371,-0.2752155,-0.04613653,18.06588,24.34939,-50.46982
101.360800743,-188.4475,53.65874,111.7702,-0.6819593,-0.2429271,-0.0379358,18.06588,24.34939,-50.46982
101.370798111,-183.2171,53.36198,102.2588,-0.77259,-0.1648259,-0.01626199,18.06588,24.34939,-50.46982
101.380795956,-183.3402,53.18392,90.3085299999997,-0.8665884,-0.1149759,0.005424961,24.22342,30.53037,-44.77943
101.3907938,-188.3244,52.7091,81.7726200000003,-0.8841786,-0.1388065,-0.01176698,24.22342,30.53037,-44.77943
101.400792122,-196.816,52.64975,78.0534100000002,-0.8469133,-0.1768754,-0.00416492,24.22342,30.53037,-44.77943
101.410789967,-207.0305,53.36198,77.5046699999998,-0.7863655,-0.2098574,-0.02196929,24.22342,30.53037,-44.77943
101.420787811,-220.014,53.48068,80.9800000000001,-0.7469683,-0.2334647,-0.08472536,24.22342,30.53037,-44.77943
101.430785179,-232.3822,48.49508,83.60175,-0.7801917,-0.2574965,-0.1961695,28.97839,34.80914,-37.86406
101.440783024,-241.5507,42.32244,84.1504800000001,-0.7710567,-0.3046463,-0.2703525,28.97839,34.80914,-37.86406
101.450781345,-245.6734,40.77927,82.9310600000001,-0.7527236,-0.3231237,-0.3641807,28.97839,34.80914,-37.86406
101.46077919,-249.8576,39.05806,81.4067899999997,-0.7639896,-0.344775,-0.3162979,28.97839,34.80914,-37.86406
101.470777035,-252.9958,39.05806,78.2972899999999,-0.8018563,-0.326681,-0.3282009,28.97839,34.80914,-37.86406
101.48077488,-261.3028,38.70194,74.6390400000001,-0.8556159,-0.3435205,-0.2998668,32.95874,39.8003,-28.50696
101.490772247,-271.6404,35.61562,74.15128,-0.9130142,-0.3754969,-0.3246445,32.95874,39.8003,-28.50696
101.500770569,-281.1165,31.75772,78.1143699999998,-0.8755705,-0.5018774,-0.3562633,32.95874,39.8003,-28.50696
101.510768414,-284.1932,26.65341,83.8456299999998,-0.8555116,-0.5857078,-0.4266273,32.95874,39.8003,-28.50696
101.520766258,-280.3781,20.71817,88.0526000000001,-0.7802881,-0.6226119,-0.4798709,32.95874,39.8003,-28.50696
101.530764103,-272.6249,20.24335,90.5524100000001,-0.727576,-0.5762736,-0.5216109,36.95263,43.73069,-17.14459
101.540762425,-268.3176,21.19299,92.7473600000001,-0.6821733,-0.529392,-0.5413237,36.95263,43.73069,-17.14459
101.550760269,-270.0405,22.14263,94.5155100000002,-0.6550806,-0.4935848,-0.5633947,36.95263,43.73069,-17.14459
101.560757637,-276.44,22.49874,96.7104600000003,-0.6357094,-0.4618396,-0.587844,36.95263,43.73069,-17.14459
101.570755482,-283.2086,20.0653,100.9784,-0.6232089,-0.4792663,-0.6074829,36.95263,43.73069,-17.14459
101.580753803,-289.2389,15.85128,102.9295,-0.6021832,-0.4568695,-0.5950823,40.25993,44.6126,-5.77157
101.590751648,-294.0385,10.27216,101.9539,-0.612335,-0.4344053,-0.5610915,40.25993,44.6126,-5.77157
101.600749493,-293.1155,7.36389100000001,97.6250199999997,-0.5909055,-0.4589526,-0.5285794,40.25993,44.6126,-5.77157
101.610747337,-287.4544,7.00777700000002,93.0522099999998,-0.5625312,-0.5158901,-0.492721,40.25993,44.6126,-5.77157
101.620744705,-275.3324,10.68762,87.3209600000001,-0.50872,-0.5253939,-0.4262902,40.25993,44.6126,-5.77157
101.630743027,-259.7645,17.27574,80.5532099999999,-0.4405866,-0.5454503,-0.3756748,44.00238,42.82448,4.392925
101.640740871,-242.8428,26.2973,73.2976800000002,-0.4121218,-0.5287937,-0.3163853,44.00238,42.82448,4.392925
101.650738716,-228.0133,34.78469,62.4448899999999,-0.4766311,-0.4909727,-0.2392318,44.00238,42.82448,4.392925
101.660736561,-214.476,41.72891,55.61616,-0.5059472,-0.5138272,-0.2836824,44.00238,42.82448,4.392925
101.670734882,-204.2615,47.84221,52.32374,-0.4843276,-0.4196352,-0.2861372,44.00238,42.82448,4.392925
101.680732727,-198.1697,55.91413,44.51948,-0.4517393,-0.3917621,-0.3374088,47.37905,37.66945,14.12059
101.690730095,-193.3086,61.9680699999999,37.44687,-0.4297322,-0.3193825,-0.3877163,47.37905,37.66945,14.12059
101.70072794,-190.355,66.2414399999999,28.11835,-0.4274511,-0.3110546,-0.3853296,47.37905,37.66945,14.12059
101.710725784,-185.5554,72.7108500000001,14.52187,-0.4133204,-0.3098596,-0.3384541,47.37905,37.66945,14.12059
101.720724106,-172.0796,84.1065,-2.184121,-0.4732474,-0.3363169,-0.3388214,48.94835,32.79765,21.44661
101.73072195,-152.6967,95.2053899999998,-17.00002,-0.6006452,-0.3254512,-0.3630095,48.94835,32.79765,21.44661
101.740719795,-136.2673,106.2449,-31.02329,-0.7008639,-0.2822431,-0.3633244,48.94835,32.79765,21.44661
101.750718117,-122.9146,114.673,-41.32735,-0.7496285,-0.3074519,-0.410612,48.94835,32.79765,21.44661
101.760715485,-115.0383,123.8726,-52.60694,-0.7231999,-0.2602214,-0.3513268,48.94835,32.79765,21.44661
101.770713329,-112.4539,134.556,-60.4112000000001,-0.6657884,-0.3342642,-0.3887367,47.89446,27.90615,28.75317
101.780711174,-108.9465,144.5866,-65.2278800000001,-0.656611,-0.3295735,-0.3739181,47.89446,27.90615,28.75317
101.790709019,-102.2394,156.9319,-72.1785499999998,-0.6950195,-0.3606318,-0.3925076,47.89446,27.90615,28.75317
101.80070734,-92.6402399999999,169.1584,-80.22669,-0.7265815,-0.4178999,-0.3694662,47.89446,27.90615,28.75317
101.810705185,-79.8413200000001,181.6818,-88.9455099999999,-0.7605091,-0.5048398,-0.3444987,47.89446,27.90615,28.75317
101.820702553,-60.6429500000003,195.5109,-99.5544199999998,-0.7757136,-0.5776157,-0.3521107,43.83234,26.41964,36.47119
101.830700397,-35.29126,208.2123,-112.2363,-0.7864643,-0.6814793,-0.4209801,43.83234,26.41964,36.47119
101.840698242,-0.955716300000001,220.8544,-123.7598,-0.7905862,-0.7252282,-0.5726703,43.83234,26.41964,36.47119
101.850696564,34.24129,233.3184,-133.3322,-0.7670802,-0.6826862,-0.700502,43.83234,26.41964,36.47119
101.860694408,57.13165,240.5594,-144.0021,-0.7219292,-0.5715696,-0.7628242,43.83234,26.41964,36.47119
101.870692253,66.3000999999999,241.2122,-153.2697,-0.6342865,-0.5702162,-0.8572569,36.29775,26.80531,43.70209
101.880690575,67.5307699999999,238.6007,-158.2693,-0.4538822,-0.6550987,-0.91115,36.29775,26.80531,43.70209
101.890687466,72.0227,237.8291,-161.9275,-0.3000256,-0.6752447,-0.9492205,36.29775,26.80531,43.70209
101.900685787,83.3448100000003,240.4406,-167.171,-0.1931105,-0.7136858,-1.026448,36.29775,26.80531,43.70209
101.910683632,98.4204499999998,242.1025,-171.4999,-0.1761759,-0.683566,-1.116936,36.29775,26.80531,43.70209
101.920681477,111.9578,242.4586,-178.6335,-0.1909477,-0.5723588,-1.146132,24.57845,30.93254,47.2056
101.930679798,119.4033,240.2626,-188.5108,-0.1527091,-0.4814462,-1.171108,24.57845,30.93254,47.2056
101.940677643,121.1262,235.7518,-195.0956,-0.02922985,-0.4922938,-1.189506,24.57845,30.93254,47.2056
101.950675011,119.4648,229.9353,-200.522,0.0766249,-0.5506083,-1.205947,24.57845,30.93254,47.2056
101.960672855,119.2802,220.7357,-206.1923,0.1568864,-0.6481381,-1.25727,24.57845,30.93254,47.2056
101.9706707,121.3108,208.6871,-209.1189,0.2110036,-0.7278887,-1.274094,10.27828,36.90528,46.29395
101.980669022,127.218,197.1728,-210.3993,0.2199717,-0.7376487,-1.244914,10.27828,36.90528,46.29395
101.990666866,133.9867,188.9821,-211.2529,0.2123932,-0.7216211,-1.176468,10.27828,36.90528,46.29395
102.000664711,142.109,183.3437,-210.7041,0.1817742,-0.6726415,-1.121391,10.27828,36.90528,46.29395
102.010662556,145.801,181.9786,-212.5942,0.149517,-0.5345598,-0.9907193,10.27828,36.90528,46.29395
102.020659924,141.7399,183.7591,-216.4964,0.1522688,-0.445178,-0.8940749,-4.728416,41.63308,41.25513
102.030658245,135.5865,187.3796,-222.8983,0.1899164,-0.4523847,-0.9132817,-4.728416,41.63308,41.25513
102.04065609,128.4487,188.8634,-228.3247,0.2732544,-0.5589253,-1.000022,-4.728416,41.63308,41.25513
102.050653934,121.7415,183.3437,-231.3732,0.380888,-0.6886399,-1.122692,-4.728416,41.63308,41.25513
102.060652256,116.7574,168.3275,-228.0808,0.4974746,-0.8534629,-1.224789,-4.728416,41.63308,41.25513
102.070650101,114.296,146.4858,-217.4719,0.5842544,-0.9597019,-1.233049,-18.98223,43.74351,33.46177
102.080647945,117.065,121.4391,-202.7779,0.560996,-1.016867,-1.1636,-18.98223,43.74351,33.46177
102.090645313,132.8175,93.12806,-193.2665,0.4518599,-1.014371,-1.027016,-18.98223,43.74351,33.46177
102.100643158,158.0462,70.9896200000002,-192.4129,0.3740754,-0.9675555,-0.8412051,-18.98223,43.74351,33.46177
102.11064148,187.7052,52.94651,-195.4614,0.3615343,-0.9172748,-0.6301442,-18.98223,43.74351,33.46177
102.120639324,214.8413,41.13539,-197.7783,0.4316897,-0.8355002,-0.5015506,-33.10452,42.43447,26.07411
102.130637169,234.8396,35.20015,-199.6075,0.4701589,-0.7815226,-0.4743526,-33.10452,42.43447,26.07411
102.140635014,245.6695,35.49691,-200.2781,0.693024,-0.7122084,-0.4441301,-33.10452,42.43447,26.07411
102.150632381,247.8847,36.3872,-203.0828,0.8089653,-0.6583334,-0.4362103,-33.10452,42.43447,26.07411
102.160630703,243.7619,39.77029,-206.863,0.8720487,-0.6181415,-0.4286734,-33.10452,42.43447,26.07411
102.170628548,234.655,44.16236,-210.4603,0.8988217,-0.6158609,-0.3966561,-41.633,39.63865,17.89732
102.180626392,222.533,47.54544,-212.4723,0.9027663,-0.5917306,-0.3703475,-41.633,39.63865,17.89732
102.190624237,209.7341,47.01127,-215.216,0.8631376,-0.5832675,-0.3688449,-41.633,39.63865,17.89732
102.200622559,202.4731,40.60122,-218.6913,0.8116959,-0.6209005,-0.38741,-41.633,39.63865,17.89732
102.210620403,198.9042,30.33326,-219.5449,0.8223862,-0.668165,-0.2653795,-41.633,39.63865,17.89732
102.220617771,195.2738,23.8045,-216.0695,0.8668576,-0.7512655,-0.2027422,-48.93172,35.00354,8.57812
102.230615616,198.535,15.55452,-204.9729,0.9338006,-0.8637093,-0.1559295,-48.93172,35.00354,8.57812
102.240613937,200.8733,6.88907200000001,-186.5597,1.051143,-0.9096254,-0.116879,-48.93172,35.00354,8.57812
102.250611782,194.72,1.428654,-163.2079,1.174253,-0.8732289,-0.06972393,-48.93172,35.00354,8.57812
102.260609627,174.6601,-2.547954,-137.7831,1.215306,-0.7748523,-0.0286633,-48.93172,35.00354,8.57812
102.270607472,143.5858,-8.30513400000001,-119.3699,1.167697,-0.6784818,-0.01520499,-54.69835,25.02134,2.910331
102.280605793,112.8192,-15.60548,-110.2853,1.114187,-0.6834528,-0.01798188,-54.69835,25.02134,2.910331
102.290603161,92.8824599999999,-23.26193,-107.7245,1.11519,-0.7897367,-0.05815665,-54.69835,25.02134,2.910331
102.300601006,84.9446699999999,-29.55328,-105.1028,1.178829,-0.9610457,-0.06444497,-54.69835,25.02134,2.910331
102.31059885,85.1292699999998,-31.80867,-97.6033599999999,1.277427,-1.151544,-0.06600352,-59.01971,16.97997,0.53304
102.320596695,92.5747899999999,-28.663,-85.2872600000001,1.356639,-1.27016,-0.08286124,-59.01971,16.97997,0.53304
102.330595017,98.6050499999997,-26.58566,-73.7028200000002,1.394666,-1.349186,-0.09200011,-59.01971,16.97997,0.53304
102.340592861,107.2197,-22.49035,-65.2888599999997,1.372745,-1.400927,-0.06993409,-59.01971,16.97997,0.53304
102.350590229,119.5879,-17.97957,-59.19178,1.287209,-1.438371,-0.04728226,-59.01971,16.97997,0.53304
102.360588074,135.8327,-14.59649,-53.33859,1.180542,-1.440167,-0.01311695,-60.40543,11.33331,1.326003
102.370585919,152.6928,-11.92563,-45.90016,1.092694,-1.378934,0.07077125,-60.40543,11.33331,1.326003
102.38058424,164.3841,-6.287153,-38.76658,1.046723,-1.263692,0.1780227,-60.40543,11.33331,1.326003
102.390582085,171.3373,1.30995,-34.98639,1.039085,-1.14234,0.1799191,-60.40543,11.33331,1.326003
102.400579929,176.9369,2.793759,-34.19377,1.008749,-1.088153,0.007192089,-60.40543,11.33331,1.326003
102.410578251,183.9516,2.853111,-29.80388,1.049151,-1.138734,-0.03162998,-61.10238,9.035199,0.1071043
102.420575142,191.7664,2.675054,-20.7802,1.09769,-1.130036,-0.08866739,-61.10238,9.035199,0.1071043
102.430573464,198.2274,2.31894,-15.71963,1.131643,-1.071036,-0.1399494,-61.10238,9.035199,0.1071043
102.440571308,202.9039,5.88008199999999,-12.36624,1.189638,-0.967181,-0.1209342,-61.10238,9.035199,0.1071043
102.450569153,193.797,15.0797,-11.45168,1.302835,-0.8416486,0.02336611,-61.10238,9.035199,0.1071043
102.460567474,161.6766,31.69836,-2.306063,1.415324,-0.8063169,0.2423488,-61.03859,6.355819,-1.87821
102.470565319,117.3727,49.50407,15.68031,1.454464,-0.8871429,0.4586177,-61.03859,6.355819,-1.87821
102.480563164,81.5603500000002,65.8259699999999,32.26436,1.396658,-1.051044,0.5152326,-61.03859,6.355819,-1.87821
102.490560532,66.3616299999997,77.5183900000002,41.65385,1.297192,-1.282952,0.4522937,-61.03859,6.355819,-1.87821
102.500558376,73.4379599999997,86.3025400000002,46.59249,1.215538,-1.478498,0.3419354,-61.03859,6.355819,-1.87821
102.510556698,105.866,93.0687099999999,45.49501,1.134819,-1.620847,0.2014114,-60.62785,5.193593,-4.707358
102.520554543,152.262,97.9356000000001,41.53191,1.102031,-1.644189,0.005258344,-60.62785,5.193593,-4.707358
102.530552387,197.9197,100.369,36.47134,1.177759,-1.604366,-0.05470593,-60.62785,5.193593,-4.707358
102.540550709,237.6702,103.8115,36.10551,1.318739,-1.482345,-0.0353615,-60.62785,5.193593,-4.707358
102.5505476,261.9142,112.4176,39.51988,1.404997,-1.32555,0.02570549,-60.62785,5.193593,-4.707358
102.560545921,273.421,124.8222,44.21463,1.417942,-1.209898,0.0505391,-59.8833,6.669429,-10.77294
102.570543766,273.7902,135.0902,49.51908,1.446822,-1.138813,0.05621336,-59.8833,6.669429,-10.77294
102.580541611,265.5447,146.4858,59.76217,1.475561,-1.034135,0.06905787,-59.8833,6.669429,-10.77294
102.590539932,252.8073,157.8815,68.2371100000001,1.456628,-0.8817264,0.09058755,-59.8833,6.669429,-10.77294
102.600537777,237.3625,165.0038,73.6025400000002,1.420644,-0.8066295,0.1437529,-59.8833,6.669429,-10.77294
102.610535622,225.8558,168.4462,79.6996199999998,1.295993,-0.7601525,0.1286438,-58.32153,5.463882,-19.72128
102.620532989,218.041,166.547,82.8091200000002,1.179921,-0.7288455,0.1364953,-58.32153,5.463882,-19.72128
102.630530834,213.6107,163.0452,81.46777,1.115579,-0.700447,0.1925935,-58.32153,5.463882,-19.72128
102.640529156,209.1187,160.493,78.6021400000002,1.088092,-0.689774,0.1969459,-58.32153,5.463882,-19.72128
102.650527,207.6419,156.7538,76.95593,1.092086,-0.6695223,0.1710906,-58.32153,5.463882,-19.72128
102.660524845,205.5498,154.3204,77.5656399999997,1.105085,-0.6096351,0.1557381,-53.75593,3.904294,-28.19383
102.67052269,200.1349,154.7358,75.1877700000002,1.093702,-0.5985025,0.2284987,-53.75593,3.904294,-28.19383
102.680521011,196.0122,157.6441,75.3097199999998,1.043997,-0.6498558,0.2467844,-53.75593,3.904294,-28.19383
102.690518379,195.1507,159.0092,78.6021400000002,1.000632,-0.6751974,0.2794097,-53.75593,3.904294,-28.19383
102.700516224,195.0276,161.0865,79.21185,0.9629121,-0.6640869,0.3005299,-53.75593,3.904294,-28.19383
102.710514069,196.5044,163.5793,80.0044700000001,0.9256856,-0.6543072,0.2814493,-49.54515,1.207909,-35.82459
102.72051239,198.1043,166.725,79.15088,0.8642708,-0.6016029,0.2791499,-49.54515,1.207909,-35.82459
102.730510235,196.6275,169.8113,77.3217500000003,0.8044572,-0.5304189,0.2749286,-49.54515,1.207909,-35.82459
102.740508079,192.3817,172.6602,74.0293400000001,0.7500331,-0.4596879,0.3156843,-49.54515,1.207909,-35.82459
102.750505924,184.0132,175.8653,73.4196200000001,0.6948242,-0.4000228,0.3172009,-49.54515,1.207909,-35.82459
102.760503292,178.106,177.5865,73.6635100000001,0.6582535,-0.346004,0.3517082,-44.69174,0.4282646,-42.29938
102.770501614,171.5219,177.4084,72.6879699999998,0.6361403,-0.3098769,0.364659,-44.69174,0.4282646,-42.29938
102.780499458,166.9069,174.7969,72.87089,0.6518655,-0.2904127,0.3866411,-44.69174,0.4282646,-42.29938
102.790497303,162.4765,171.2358,71.7124399999999,0.620313,-0.2183939,0.4125206,-44.69174,0.4282646,-42.29938
102.800495148,160.569,165.4193,67.38352,0.4808874,-0.191315,0.3275702,-44.69174,0.4282646,-42.29938
102.810493469,159.8306,163.4013,63.7252700000002,0.5872793,-0.1190645,0.4522744,-38.58652,-3.754778,-47.45711
102.820491314,157.3078,161.2052,60.8596500000002,0.5917484,-0.04478411,0.4881407,-38.58652,-3.754778,-47.45711
102.830488682,151.4621,160.0182,57.14043,0.5821089,0.05541547,0.5723611,-38.58652,-3.754778,-47.45711
102.840486526,143.0936,159.4247,52.32374,0.5516183,0.1232572,0.6173829,-38.58652,-3.754778,-47.45711
102.850484371,134.602,158.8311,47.08025,0.5333327,0.1891068,0.630798,-32.48807,-7.924746,-51.06683
102.860482693,125.0643,157.466,40.98318,0.5218357,0.2315689,0.6757932,-32.48807,-7.924746,-51.06683
102.870480537,114.9729,155.5668,34.21542,0.4898797,0.2464219,0.6686665,-32.48807,-7.924746,-51.06683
102.880478382,107.4658,153.9642,27.32573,0.4531332,0.2567629,0.6567635,-32.48807,-7.924746,-51.06683
102.89047575,99.4665099999997,153.7862,20.497,0.4045002,0.2520637,0.6731211,-32.48807,-7.924746,-51.06683
102.900473595,90.2365300000001,154.8545,14.15604,0.3705871,0.2409652,0.6487757,-25.22739,-13.92466,-54.6584
102.910471916,81.49881,157.1099,10.13197,0.3404825,0.2605343,0.6220229,-25.22739,-13.92466,-54.6584
102.920469761,67.7768999999997,157.5254,7.32731800000001,0.3220374,0.2575744,0.6569918,-25.22739,-13.92466,-54.6584
102.930467606,52.45513,159.484,6.90052199999999,0.3007152,0.2249406,0.641723,-25.22739,-13.92466,-54.6584
102.940465927,38.48708,162.0362,9.15644099999999,0.277883,0.1946102,0.6159275,-25.22739,-13.92466,-54.6584
102.950463772,26.91884,163.4013,12.75372,0.2152815,0.1799109,0.5787114,-18.46864,-17.30751,-55.75156
102.96046114,20.82705,163.7574,15.98516,0.151273,0.1886712,0.5591992,-18.46864,-17.30751,-55.75156
102.970458984,13.81226,161.502,17.9972,0.12269,0.1534686,0.5444222,-18.46864,-17.30751,-55.75156
102.980456829,12.64313,159.8995,19.27759,0.1051162,0.1806666,0.5276957,-18.46864,-17.30751,-55.75156
102.990455151,14.79679,160.493,18.05817,0.1018513,0.2248491,0.5305614,-18.46864,-17.30751,-55.75156
103.000452995,14.55066,164.8851,17.50943,0.03077984,0.2707811,0.4464441,-11.65752,-19.94008,-58.13834
103.01045084,10.79713,163.2232,17.20458,-0.08129207,0.4002527,0.4461276,-11.65752,-19.94008,-58.13834
103.020449162,3.597743,161.4426,16.35099,-0.1428213,0.2262963,0.4740371,-11.65752,-19.94008,-58.13834
103.030446053,-4.586177,156.5757,21.77739,-0.2041937,0.2244092,0.4535657,-11.65752,-19.94008,-58.13834
103.040444374,-10.80103,151.8276,28.66708,-0.188974,0.218419,0.4564122,-11.65752,-19.94008,-58.13834
103.050442219,-14.43149,151.4121,32.99601,-0.1823055,0.2269389,0.4702771,-3.784264,-19.8881,-58.91845
103.060440063,-16.09289,152.6585,34.4593,-0.2234285,0.2630668,0.4712967,-3.784264,-19.8881,-58.91845
103.070438385,-18.49269,153.5488,33.66669,-0.2488193,0.2924663,0.4995693,-3.784264,-19.8881,-58.91845
103.08043623,-23.78455,154.2017,32.32533,-0.2851782,0.334603,0.5096719,-3.784264,-19.8881,-58.91845
103.090434074,-30.5532,154.4984,33.11795,-0.3515275,0.3634371,0.4585725,-3.784264,-19.8881,-58.91845
103.100431442,-38.61406,152.4211,35.43484,-0.3643459,0.4227792,0.4394366,4.403502,-20.20324,-58.40421
103.110429287,-48.64397,153.1927,36.7762,-0.3351369,0.4756406,0.4178361,4.403502,-20.20324,-58.40421
103.120427609,-62.5504799999999,156.279,38.05658,-0.2916204,0.4926144,0.3732483,4.403502,-20.20324,-58.40421
103.130425453,-77.3184599999997,159.6027,40.61735,-0.3475144,0.4830288,0.2962975,4.403502,-20.20324,-58.40421
103.140423298,-93.7478300000002,160.0182,45.61695,-0.3344653,0.4877864,0.2570303,4.403502,-20.20324,-58.40421
103.150421143,-111.654,158.1783,50.92141,-0.3822143,0.4608074,0.2264916,11.49832,-19.00546,-57.97046
103.16041851,-126.6681,152.4804,56.46975,-0.4566672,0.4026689,0.1940932,11.49832,-19.00546,-57.97046
103.170416832,-137.1903,145.2988,62.5668299999998,-0.5108352,0.3285145,0.1731494,11.49832,-19.00546,-57.97046
103.180414677,-140.6977,138.8887,69.3955499999999,-0.5355904,0.2709816,0.1526286,11.49832,-19.00546,-57.97046
103.190412521,-140.39,135.1496,75.0658299999997,-0.5142279,0.2233174,0.1549965,11.49832,-19.00546,-57.97046
103.200410843,-138.2979,132.0632,80.12641,-0.5117229,0.2450149,0.1310577,18.91116,-15.13912,-57.16112
103.210408688,-138.8517,129.2143,81.7726200000003,-0.5105084,0.283016,0.08605967,18.91116,-15.13912,-57.16112
103.220406532,-143.2821,124.9409,82.99203,-0.53237,0.279007,0.06695578,18.91116,-15.13912,-57.16112
103.2304039,-148.1432,118.1748,85.1260100000001,-0.6042874,0.2676217,0.04028381,18.91116,-15.13912,-57.16112
103.240401745,-152.2044,109.9841,87.1380499999997,-0.6742786,0.2322449,0.04280782,18.91116,-15.13912,-57.16112
103.250400066,-158.0501,102.7431,90.91824,-0.7446018,0.189376,0.07692036,24.72914,-9.759256,-55.91998
103.260397911,-162.6651,98.11366,96.4056000000003,-0.7878181,0.1819865,0.1061907,24.72914,-9.759256,-55.91998
103.270395756,-166.1724,93.36547,99.5151099999998,-0.7700337,0.1692833,0.1133416,24.72914,-9.759256,-55.91998
103.280393601,-170.5413,92.1784199999999,101.3442,-0.689181,0.1721991,0.1510075,24.72914,-9.759256,-55.91998
103.290391922,-176.2024,94.4931600000003,102.0759,-0.6226373,0.1837668,0.1561528,24.72914,-9.759256,-55.91998
103.30038929,-179.7713,95.6802099999998,100.4906,-0.6530484,0.193554,0.1231816,29.85186,-4.064317,-54.29862
103.310387135,-183.0941,94.31511,99.3931699999999,-0.7277977,0.1772358,0.0946015,29.85186,-4.064317,-54.29862
103.320384979,-186.3553,91.4661899999999,100.0029,-0.7764217,0.1712797,0.07985194,29.85186,-4.064317,-54.29862
103.330382824,-184.9401,83.8097399999999,98.3566699999999,-0.8980937,0.2126438,-0.02236189,29.85186,-4.064317,-54.29862
103.340381146,-185.1247,74.1946600000002,92.8083300000001,-0.9019724,0.1595337,-0.02952009,29.85186,-4.064317,-54.29862
103.35037899,-187.4629,71.76121,91.1621199999998,-0.8234408,0.1062108,0.08042924,33.84956,1.319386,-51.00691
103.360376835,-190.8473,78.5867299999998,93.4180399999998,-0.7587994,0.09045464,0.1305711,33.84956,1.319386,-51.00691
103.370374203,-194.2931,83.3942699999999,92.8083300000001,-0.7573741,0.1173139,0.08892557,33.84956,1.319386,-51.00691
103.380372048,-202.5386,89.0921,90.7353199999999,-0.690695,0.09590609,0.1012578,33.84956,1.319386,-51.00691
103.390370369,-213.4915,97.4607800000001,90.3695000000002,-0.6442071,0.1121519,0.1298872,33.84956,1.319386,-51.00691
103.400368214,-227.0903,105.7701,87.6258200000001,-0.6586435,0.1283844,0.1294296,36.72779,6.32029,-47.01202
103.410366058,-239.0278,109.6874,84.4553299999999,-0.7507389,0.1006905,0.06355376,36.72779,6.32029,-47.01202
103.42036438,-251.396,108.6784,85.4308599999998,-0.8543166,0.08796123,0.0115728,36.72779,6.32029,-47.01202
103.430362225,-261.7951,103.2773,87.1380499999997,-0.8984312,0.1008574,-0.02376824,36.72779,6.32029,-47.01202
103.440359593,-276.3784,101.7935,89.0281399999997,-0.8680516,0.09162908,-0.03578323,41.47409,11.34615,-41.7132
103.450357437,-291.7618,105.2359,88.9061999999998,-0.8124198,0.088189,-0.0009432714,41.47409,11.34615,-41.7132
103.460355282,-302.7147,113.0111,86.1015499999998,-0.7911991,0.04688651,-0.04643435,41.47409,11.34615,-41.7132
103.470353603,-310.4679,115.9194,85.3699000000002,-0.786813,-0.03220555,-0.09619354,41.47409,11.34615,-41.7132
103.480351448,-316.1905,116.4535,85.4308599999998,-0.7680909,-0.09577473,-0.1268387,41.47409,11.34615,-41.7132
103.490349293,-318.0365,117.1064,84.9431000000003,-0.7881652,-0.1693784,-0.1612422,46.11172,17.86063,-32.74611
103.500347614,-312.4369,116.6316,82.3823200000003,-0.8083815,-0.2094417,-0.1942184,46.11172,17.86063,-32.74611
103.510344505,-305.5452,117.7593,80.4922300000003,-0.8004321,-0.2175281,-0.1923159,46.11172,17.86063,-32.74611
103.520342827,-297.6074,121.6172,75.3706899999997,-0.8319693,-0.1722139,-0.1640366,46.11172,17.86063,-32.74611
103.530340672,-290.3465,125.4158,66.5908999999999,-0.9195735,-0.1793086,-0.2189183,46.11172,17.86063,-32.74611
103.540338516,-285.67,129.9265,59.76217,-0.9431896,-0.1678372,-0.2418517,50.45256,23.30816,-22.22759
103.550336838,-285.2393,136.2772,51.89694,-0.8817387,-0.1432531,-0.1840575,50.45256,23.30816,-22.22759
103.560334683,-282.4702,146.5452,38.48338,-0.8602831,-0.1444274,-0.199409,50.45256,23.30816,-22.22759
103.570332527,-275.1478,156.6351,25.9234,-0.8291323,-0.167894,-0.176007,50.45256,23.30816,-22.22759
103.580329895,-262.8412,163.9948,11.47333,-0.8125889,-0.1937827,-0.2262797,50.45256,23.30816,-22.22759
103.59032774,-247.2117,165.4786,-6.02527899999998,-0.8122486,-0.2660428,-0.3171911,54.12138,24.58359,-9.628305
103.600326061,-228.9979,167.1405,-21.99962,-0.7455569,-0.3422014,-0.3933814,54.12138,24.58359,-9.628305
103.610323906,-207.3382,165.8941,-32.60853,-0.7130531,-0.491852,-0.4613573,54.12138,24.58359,-9.628305
103.620321751,-185.6785,166.9624,-39.5592,-0.7108759,-0.5288098,-0.4158868,54.12138,24.58359,-9.628305
103.630319595,-167.0339,173.6099,-46.26598,-0.6901565,-0.5667099,-0.3541769,54.12138,24.58359,-9.628305
103.640317917,-154.3581,180.6135,-46.20501,-0.6311522,-0.5409743,-0.2714927,55.15915,26.21969,2.949486
103.650315285,-147.6509,188.626,-45.47336,-0.6329927,-0.5204738,-0.2576161,55.15915,26.21969,2.949486
103.660313129,-144.8204,195.0954,-47.91219,-0.6959916,-0.4352033,-0.255614,55.15915,26.21969,2.949486
103.670310974,-140.5746,201.8616,-56.50907,-0.7408664,-0.3805347,-0.238321,55.15915,26.21969,2.949486
103.680309296,-134.6674,210.2896,-66.7521499999998,-0.7002629,-0.3889566,-0.2374325,55.15915,26.21969,2.949486
103.69030714,-125.2528,216.1062,-74.7393299999998,-0.6224902,-0.5107634,-0.3342091,53.95829,27.45475,15.06112
103.700304985,-108.8235,221.804,-84.3727,-0.5682743,-0.6751546,-0.4137049,53.95829,27.45475,15.06112
103.71030283,-82.0565200000001,226.6709,-93.5792899999997,-0.607689,-0.7585233,-0.5174657,53.95829,27.45475,15.06112
103.720300198,-55.35109,233.9712,-103.2736,-0.6997543,-0.7363005,-0.5981903,53.95829,27.45475,15.06112
103.730298519,-35.72199,236.5234,-113.4558,-0.886731,-0.6685017,-0.6974256,53.95829,27.45475,15.06112
103.740296364,-23.78455,229.4605,-119.6138,-1.040762,-0.5365716,-0.7101127,49.41173,27.51688,26.3798
103.750294208,-18.86189,223.2285,-131.3812,-1.090183,-0.4732063,-0.6885069,49.41173,27.51688,26.3798
103.760292053,-18.30809,215.9281,-141.0755,-1.033355,-0.5145789,-0.6594022,49.41173,27.51688,26.3798
103.770290375,-16.40056,215.0378,-148.6969,-0.9136218,-0.6085287,-0.5643501,49.41173,27.51688,26.3798
103.780288219,-7.78590499999999,217.5306,-155.2207,-0.8271655,-0.6978979,-0.5869708,49.41173,27.51688,26.3798
103.790285587,7.47433699999998,223.8813,-164.1834,-0.7873668,-0.7421076,-0.6186149,41.50893,30.19923,35.59573
103.800283432,27.4111,229.3418,-172.4755,-0.7280378,-0.8178531,-0.7929004,41.50893,30.19923,35.59573
103.810281277,52.57819,229.5198,-175.3411,-0.6759494,-0.8737453,-1.065287,41.50893,30.19923,35.59573
103.820279598,76.9453500000001,228.4515,-176.8654,-0.5976133,-0.8205864,-1.266439,41.50893,30.19923,35.59573
103.830277443,91.52873,220.6763,-176.9873,-0.5225258,-0.6683566,-1.308245,41.50893,30.19923,35.59573
103.840275288,97.2513199999999,208.4497,-178.0238,-0.5063809,-0.5686609,-1.33462,31.27957,34.35515,41.17437
103.850273609,95.1591899999998,192.0685,-181.0114,-0.4921099,-0.5497727,-1.319336,31.27957,34.35515,41.17437
103.8602705,96.2052499999997,176.1027,-185.4013,-0.4774116,-0.5778669,-1.235125,31.27957,34.35515,41.17437
103.870268822,103.5277,165.8347,-195.7663,-0.4663536,-0.5139434,-1.071009,31.27957,34.35515,41.17437
103.880266666,100.451,162.8078,-206.3752,-0.3783177,-0.4752213,-0.9065423,31.27957,34.35515,41.17437
103.890264511,97.4974500000003,159.8401,-211.9845,-0.3163106,-0.5354189,-0.9808141,18.09369,40.65984,41.04337
103.900262833,97.2513199999999,154.7358,-216.0086,-0.2112469,-0.5785761,-1.038415,18.09369,40.65984,41.04337
103.910260677,99.03578,150.9373,-218.6303,-0.1019555,-0.5870076,-1.080718,18.09369,40.65984,41.04337
103.920258522,100.2664,152.7178,-221.435,-0.04080775,-0.4664392,-0.9415904,18.09369,40.65984,41.04337
103.93025589,95.6514600000003,155.0919,-228.9954,0.03444569,-0.3175032,-0.759901,18.09369,40.65984,41.04337
103.940253735,86.8522000000001,155.5074,-238.5678,0.1305485,-0.3468168,-0.6662601,4.51119,45.48306,38.53039
103.950252056,84.5139400000002,154.6765,-245.4575,0.2369402,-0.5356363,-0.6075321,4.51119,45.48306,38.53039
103.960249901,96.4513899999998,149.038,-249.1157,0.3421085,-0.765051,-0.6277566,4.51119,45.48306,38.53039
103.970247746,124.8797,143.5776,-254.5421,0.416948,-0.9664847,-0.8168728,4.51119,45.48306,38.53039
103.980246067,153.6158,137.9391,-253.6275,0.4108017,-1.085727,-1.036019,-8.954342,48.01044,34.35303
103.990243912,163.5841,126.2467,-245.8843,0.4587021,-1.018923,-1.16725,-8.954342,48.01044,34.35303
104.00024128,150.1084,110.1622,-235.1534,0.4914675,-0.8432136,-1.153952,-8.954342,48.01044,34.35303
104.010239124,121.5569,93.7215800000002,-222.7763,0.4766319,-0.6991056,-1.039583,-8.954342,48.01044,34.35303
104.020236969,91.8979299999999,79.0021999999998,-217.228,0.4367501,-0.6218251,-0.8988325,-8.954342,48.01044,34.35303
104.030235291,73.00723,65.1731000000002,-215.8257,0.4237975,-0.6810175,-0.7547433,-23.91018,47.83257,26.50178
104.040233135,73.6225600000002,52.7091,-213.9356,0.487246,-0.8133433,-0.642833,-23.91018,47.83257,26.50178
104.05023098,96.3283199999998,44.51847,-213.5088,0.5648628,-0.9230545,-0.5859895,-23.91018,47.83257,26.50178
104.060228825,132.4483,46.71451,-217.5329,0.6466021,-0.9664381,-0.5119416,-23.91018,47.83257,26.50178
104.070226192,166.2301,60.7810199999998,-228.3857,0.6785655,-0.9561887,-0.5230072,-23.91018,47.83257,26.50178
104.080224514,181.8595,68.14072,-232.1049,0.6958337,-0.8905655,-0.5579903,-35.01969,45.42185,21.14196
104.090222359,182.3518,68.6748900000001,-228.2027,0.720677,-0.8108039,-0.4982321,-35.01969,45.42185,21.14196
104.100220203,172.9987,68.9716500000002,-225.1542,0.7240559,-0.7550187,-0.4101943,-35.01969,45.42185,21.14196
104.110218048,159.646,66.83496,-221.6789,0.7039155,-0.7973338,-0.3709051,-35.01969,45.42185,21.14196
104.12021637,147.0317,55.2019,-213.3868,0.6943828,-0.8879521,-0.4287728,-35.01969,45.42185,21.14196
104.130214214,136.3865,32.46994,-199.5465,0.689442,-0.9640812,-0.506274,-43.87603,40.34163,13.03905
104.140211582,129.2486,5.345911,-183.7551,0.7168334,-0.9956649,-0.5120565,-43.87603,40.34163,13.03905
104.150209427,125.2489,-19.9382,-171.6219,0.791273,-0.9884583,-0.4695948,-43.87603,40.34163,13.03905
104.160207748,123.4645,-35.48852,-165.8906,0.882814,-0.9567082,-0.3840975,-43.87603,40.34163,13.03905
104.170205593,126.1104,-43.91655,-161.2568,0.9708921,-0.973353,-0.2693884,-43.87603,40.34163,13.03905
104.180203438,124.9413,-37.38779,-157.8425,1.010077,-0.9835624,-0.2483968,-51.11111,31.56673,8.96669
104.190201283,128.5717,-25.87344,-152.7209,1.074163,-1.048117,-0.2192987,-51.11111,31.56673,8.96669
104.200199604,135.4019,-11.03534,-144.0021,1.070817,-1.052351,-0.2499207,-51.11111,31.56673,8.96669
104.210196972,145.3088,0.716426,-136.5027,1.020137,-1.001945,-0.3139745,-51.11111,31.56673,8.96669
104.220194817,149.1238,6.65166300000002,-132.4786,0.9612871,-0.9318457,-0.3856764,-51.11111,31.56673,8.96669
104.230192661,143.2782,6.71101499999999,-132.8445,0.898349,-0.8764797,-0.4123812,-55.49117,26.19492,7.413708
104.240190506,130.91,1.784769,-133.4542,0.839168,-0.839492,-0.4376521,-55.49117,26.19492,7.413708
104.250188828,114.4806,-10.73858,-129.9788,0.7534728,-0.8431508,-0.4398946,-55.49117,26.19492,7.413708
104.260186672,94.8515199999999,-28.72235,-124.2476,0.7529974,-0.8948532,-0.4068587,-55.49117,26.19492,7.413708
104.270184517,80.0835500000003,-43.91655,-113.9435,0.7918264,-0.9638161,-0.3801084,-55.49117,26.19492,7.413708
104.280182839,71.1612299999997,-55.01545,-101.4445,0.8379601,-1.031921,-0.328485,-58.32283,18.54787,5.368012
104.29017973,64.1464399999999,-57.09278,-88.1528899999998,0.849166,-1.030854,-0.2892616,-58.32283,18.54787,5.368012
104.300178051,61.68511,-54.42192,-80.9583400000002,0.8583876,-0.9773449,-0.3031702,-58.32283,18.54787,5.368012
104.310175896,56.70092,-45.16295,-71.7517499999999,0.8733435,-0.943581,-0.309905,-58.32283,18.54787,5.368012
104.32017374,47.4094,-42.78886,-62.4842,0.8793235,-0.8731154,-0.3223766,-58.32283,18.54787,5.368012
104.330172062,26.61117,-43.38238,-53.27762,0.9802722,-0.9264505,-0.2091163,-61.20164,12.51342,6.603384
104.340169907,-2.863246,-40.23671,-32.97436,1.092038,-1.191608,-0.06088427,-61.20164,12.51342,6.603384
104.350167751,-22.92308,-35.54787,-1.940238,1.108385,-1.486423,0.1325079,-61.20164,12.51342,6.603384
104.360165119,-8.58583600000001,-25.93279,21.04574,1.132637,-1.682755,0.3440468,-61.20164,12.51342,6.603384
104.370162964,33.19522,-9.72959,32.56921,1.125739,-1.831505,0.4594339,-61.20164,12.51342,6.603384
104.380161285,82.7294800000001,10.03475,39.03211,1.122178,-1.90014,0.5073154,-60.38228,8.732383,8.628735
104.39015913,132.5099,32.23254,45.98278,1.120854,-1.881013,0.5293273,-60.38228,8.732383,8.628735
104.400156975,178.6598,53.89615,52.56762,1.101859,-1.726693,0.4943846,-60.38228,8.732383,8.628735
104.41015482,217.2411,70.3367499999999,54.15286,1.115887,-1.490964,0.3631696,-60.38228,8.732383,8.628735
104.420153141,236.1318,80.54536,52.75053,1.138934,-1.218298,0.160143,-60.38228,8.732383,8.628735
104.430150509,239.5777,73.4230699999998,51.10432,1.057139,-1.024358,-0.2412897,-60.764,9.473393,6.622388
104.440148354,230.6554,51.22529,55.31131,1.153793,-1.011945,-0.4209274,-60.764,9.473393,6.622388
104.450146198,229.3632,32.05448,67.2615800000002,1.307051,-0.9781219,-0.6135909,-60.764,9.473393,6.622388
104.46014452,240.1315,32.5293,78.84602,1.483903,-0.9510754,-0.6421421,-60.764,9.473393,6.622388
104.470142365,250.5921,47.18933,77.6266100000003,1.624479,-0.9329064,-0.4476114,-60.764,9.473393,6.622388
104.480140209,266.96,79.18025,74.2122400000002,1.758352,-0.9196845,-0.19516,-60.05679,12.84719,0.09516621
104.490138054,279.2666,112.5956,75.00487,1.701326,-0.7316006,0.0365218,-60.05679,12.84719,0.09516621
104.500135422,274.9593,136.6333,77.6266100000003,1.530354,-0.4948134,0.3138544,-60.05679,12.84719,0.09516621
104.510133743,235.455,140.6693,90.91824,1.319936,-0.2895761,0.4151479,-60.05679,12.84719,0.09516621
104.520131588,166.4762,137.9985,106.1609,1.249589,-0.2554888,0.3626184,-60.05679,12.84719,0.09516621
104.530129433,93.5593300000002,135.6244,125.2448,1.219915,-0.4179623,0.1961675,-58.59986,16.53051,-7.976192
104.540127278,44.57887,132.7161,135.9756,1.193038,-0.6776215,0.02399385,-58.59986,16.53051,-7.976192
104.550125599,26.48811,126.6622,143.597,1.140367,-0.9906789,-0.1395067,-58.59986,16.53051,-7.976192
104.560123444,40.82535,114.1388,152.8035,1.08937,-1.289935,-0.3384284,-58.59986,16.53051,-7.976192
104.570121288,79.5912799999999,112.1208,164.327,1.131718,-1.443134,-0.3375056,-55.6065,18.75288,-17.70566
104.580118656,123.526,115.0291,170.8509,1.106827,-1.388442,-0.3078046,-55.6065,18.75288,-17.70566
104.590116501,157.5539,120.6676,173.8994,1.040656,-1.263032,-0.2670426,-55.6065,18.75288,-17.70566
104.600114823,179.3367,126.5434,177.1309,0.9736701,-1.093701,-0.204276,-55.6065,18.75288,-17.70566
104.610112667,183.2748,131.5291,184.0815,0.9165231,-0.9288554,-0.1219037,-55.6065,18.75288,-17.70566
104.620110512,168.8145,136.6927,195.605,0.87191,-0.8355377,-0.0768638,-50.47395,25.95036,-25.8323
104.630108833,146.0472,143.1028,210.4209,0.8337622,-0.7487333,-0.01412618,-50.47395,25.95036,-25.8323
104.640106678,122.6645,143.4589,222.0054,0.6940081,-0.7034003,-0.0684519,-50.47395,25.95036,-25.8323
104.650104046,112.2654,141.9751,225.6636,0.6443349,-0.7311962,-0.07792967,-50.47395,25.95036,-25.8323
104.66010189,116.5112,140.8474,229.3219,0.5756193,-0.7305136,-0.06728137,-50.47395,25.95036,-25.8323
104.670099735,119.5879,138.3546,231.3949,0.5175756,-0.6999679,-0.002580292,-43.06891,28.98034,-33.92042
104.680098057,114.7268,136.7521,234.4434,0.4650308,-0.7028963,0.05637692,-43.06891,28.98034,-33.92042
104.690095901,106.6659,136.7521,240.1747,0.3956313,-0.7419286,0.1359516,-43.06891,28.98034,-33.92042
104.700093746,98.05125,136.6333,247.3082,0.3426478,-0.798498,0.2284237,-43.06891,28.98034,-33.92042
104.710092068,93.5593300000002,136.8708,251.5762,0.296183,-0.7883744,0.2667882,-43.06891,28.98034,-33.92042
104.720088959,92.69786,135.9805,253.5882,0.237113,-0.7548501,0.3405832,-32.62287,32.80109,-41.15137
104.73008728,97.8051099999999,137.4643,251.8201,0.1519392,-0.7076843,0.368477,-32.62287,32.80109,-41.15137
104.740085125,110.6656,136.0398,245.1133,-0.02053238,-0.6329526,0.3051078,-32.62287,32.80109,-41.15137
104.75008297,123.5875,128.9175,234.3215,-0.1131025,-0.5802499,0.3698634,-32.62287,32.80109,-41.15137
104.760081291,141.3707,126.2467,219.5665,-0.175626,-0.5450781,0.418778,-32.62287,32.80109,-41.15137
104.770079136,157.677,121.4985,206.2139,-0.2443352,-0.5441935,0.4514408,-20.70636,34.74118,-47.13602
104.780076981,170.1067,115.9194,193.9588,-0.2912997,-0.5585777,0.5209199,-20.70636,34.74118,-47.13602
104.790074348,183.8286,112.0615,184.0206,-0.2758055,-0.5760346,0.6505914,-20.70636,34.74118,-47.13602
104.800072193,192.1356,113.9607,181.155,-0.2324561,-0.6227099,0.8194652,-20.70636,34.74118,-47.13602
104.810070515,196.0122,118.5902,177.8625,-0.3268199,-0.6311449,0.8449965,-20.70636,34.74118,-47.13602
104.820068359,203.3961,122.6262,170.1802,-0.4494408,-0.6387495,0.9160414,-8.652157,32.88473,-52.32594
104.830066204,210.6571,125.5938,159.7542,-0.5231358,-0.5794663,0.968798,-8.652157,32.88473,-52.32594
104.840064049,215.3336,126.4841,151.2793,-0.5578469,-0.522019,0.9492221,-8.652157,32.88473,-52.32594
104.85006237,212.9953,127.2557,145.1822,-0.4594256,-0.3918297,0.9442312,-8.652157,32.88473,-52.32594
104.860059738,208.8726,123.8132,136.7682,-0.5294504,-0.3218237,0.9395494,-8.652157,32.88473,-52.32594
104.870057583,211.2724,126.128,120.9158,-0.5381466,-0.2497622,0.8677597,0.8404999,24.9257,-57.11632
104.880055428,222.1638,129.8672,96.4056000000003,-0.5235243,-0.2009863,0.749992,0.8404999,24.9257,-57.11632
104.890053272,232.5014,128.5614,76.2852499999997,-0.4770421,-0.2128789,0.677649,0.8404999,24.9257,-57.11632
104.900051594,236.8702,117.9967,67.0176900000001,-0.4820767,-0.2578131,0.6106687,0.8404999,24.9257,-57.11632
104.910049438,237.1779,102.6244,63.7862400000001,-0.4882144,-0.2423974,0.6092397,0.8404999,24.9257,-57.11632
104.920047283,234.3474,89.8636800000001,56.71363,-0.4728377,-0.1788861,0.6130251,10.0636,14.38647,-59.37965
104.930045605,225.425,80.9014700000002,46.10472,-0.4014862,-0.1638043,0.6200755,10.0636,14.38647,-59.37965
104.940042973,216.995,73.4824300000002,37.32493,-0.362978,-0.1109196,0.6869954,10.0636,14.38647,-59.37965
104.950040817,222.9022,66.83496,21.9603,-0.4108447,0.02308078,0.6181294,10.0636,14.38647,-59.37965
104.960038662,231.7014,59.6533300000001,4.034896,-0.4058624,0.1992217,0.6324326,10.0636,14.38647,-59.37965
104.970036507,237.6086,55.02385,-17.85361,-0.3756272,0.3027036,0.6706394,15.95037,1.499833,-58.88199
104.980034828,240.8699,51.10659,-35.29124,-0.2809584,0.1390556,0.6379733,15.95037,1.499833,-58.88199
104.990032673,243.6389,44.28107,-53.64344,-0.3767479,0.360954,0.6131972,15.95037,1.499833,-58.88199
105.000030518,234.9012,36.68396,-66.9960399999999,-0.3556932,0.276281,0.554796,15.95037,1.499833,-58.88199
105.010027885,213.303,25.11025,-73.5199099999998,-0.3317637,0.3781586,0.5906213,15.95037,1.499833,-58.88199
105.02002573,180.075,15.13905,-78.0317500000003,-0.304693,0.4412352,0.5747648,19.1643,-9.423888,-56.35026
105.030024052,144.9396,9.38187199999997,-78.39757,-0.2334231,0.3814619,0.5267984,19.1643,-9.423888,-56.35026
105.040021896,115.0344,6.948425,-76.38554,-0.1942645,0.2942758,0.526274,19.1643,-9.423888,-56.35026
105.050019741,96.3898500000002,6.05813900000001,-72.9102,-0.173366,0.00882153,0.4057099,19.1643,-9.423888,-56.35026
105.060018063,96.08219,1.547359,-66.9960399999999,-0.213653,-0.158335,0.2813934,19.1643,-9.423888,-56.35026
105.070015907,108.1427,-4.387877,-62.42323,-0.3160866,-0.2596287,0.1605183,22.35425,-19.26667,-53.43727
105.080013275,127.0949,-13.94361,-55.47257,-0.4697517,-0.1750699,0.06839927,22.35425,-19.26667,-53.43727
105.09001112,140.8784,-21.1846,-59.49664,-0.5766144,0.0663062,0.07187343,22.35425,-19.26667,-53.43727
105.100008965,134.602,-28.42559,-63.64265,-0.5991685,0.2305475,0.1197281,22.35425,-19.26667,-53.43727
105.110007286,112.1424,-31.33385,-62.9719699999998,-0.5476178,0.3672236,0.1813393,23.86064,-23.04255,-51.40681
105.120005131,81.8680099999998,-29.31587,-62.1793500000002,-0.4983496,0.4178254,0.2410624,23.86064,-23.04255,-51.40681
105.130002975,54.97799,-23.97416,-63.0329399999997,-0.500155,0.3586364,0.2554381,23.86064,-23.04255,-51.40681
105.14000082,45.13267,-18.21698,-65.0449799999999,-0.5653886,0.2505886,0.2187293,23.86064,-23.04255,-51.40681
105.149999142,47.65553,-16.79252,-66.4473000000001,-0.5921344,0.1675974,0.128825,23.86064,-23.04255,-51.40681
105.15999651,55.22412,-18.09828,-65.8375899999998,-0.5593462,0.105513,0.01775414,24.32607,-27.59693,-50.5412
105.169994354,61.6235800000002,-22.96517,-64.9839999999997,-0.5380629,0.1392441,-0.006220456,24.32607,-27.59693,-50.5412
105.179992199,57.5623900000001,-28.60365,-64.0694400000002,-0.5150869,0.2130226,-0.01202242,24.32607,-27.59693,-50.5412
105.189990521,40.88688,-34.71694,-62.3622600000001,-0.4945013,0.3107229,-0.0005976375,24.32607,-27.59693,-50.5412
105.199988365,14.36606,-39.93995,-60.2282900000003,-0.4857374,0.3900133,0.04243851,24.32607,-27.59693,-50.5412
105.20998621,-14.55456,-42.78886,-59.8014899999998,-0.4910897,0.4436955,0.1319277,24.33643,-28.34729,-49.31164
105.219984055,-39.16785,-43.50109,-62.1183800000003,-0.4822691,0.4424304,0.1869489,24.33643,-28.34729,-49.31164
105.229981422,-52.82823,-43.38238,-66.3863300000002,-0.5310006,0.3910789,0.2033187,24.33643,-28.34729,-49.31164
105.239979744,-52.08983,-46.2313,-72.1785499999998,-0.5924159,0.3140016,0.1972241,24.33643,-28.34729,-49.31164
105.249977589,-38.73712,-48.72409,-77.6659199999997,-0.5573394,0.2355992,0.1565042,24.33643,-28.34729,-49.31164
105.259975433,-21.26168,-53.88775,-79.4950399999998,-0.496354,0.1792919,0.1377479,24.71654,-28.35483,-50.53436
105.269973278,-7.29363900000002,-61.6629100000002,-79.6779599999999,-0.3945625,0.1816354,0.1208197,24.71654,-28.35483,-50.53436
105.2799716,-4.401577,-71.2780000000001,-77.8488300000002,-0.3238717,0.2323446,0.1460479,24.71654,-28.35483,-50.53436
105.289969444,-10.98563,-82.7330099999998,-75.8977700000002,-0.3123615,0.2944138,0.1598906,24.71654,-28.35483,-50.53436
105.299966812,-23.41535,-94.0099600000001,-72.9102,-0.3005978,0.3171794,0.1794858,24.71654,-28.35483,-50.53436
105.309964657,-39.04479,-102.438,-71.5078700000002,-0.2952048,0.3160606,0.2048413,24.28006,-24.95187,-52.6194
105.319962502,-54.2435,-108.67,-72.7882600000001,-0.2982715,0.272546,0.2354867,24.28006,-24.95187,-52.6194
105.329960823,-65.87328,-114.4272,-74.19059,-0.2688619,0.1864988,0.2742222,24.28006,-24.95187,-52.6194
105.339958668,-71.4112699999999,-116.92,-72.1175799999999,-0.1996019,0.1324752,0.3277159,24.28006,-24.95187,-52.6194
105.349956513,-70.2421299999997,-118.5818,-71.2030199999998,-0.1534402,0.1149882,0.3879405,24.28006,-24.95187,-52.6194
105.359954834,-62.18128,-117.6322,-73.7637900000001,-0.1464963,0.08257604,0.3888939,21.68286,-22.70966,-55.10159
105.369952679,-54.0589,-116.4452,-77.2391300000001,-0.175107,0.1008792,0.3798462,21.68286,-22.70966,-55.10159
105.379950047,-53.62816,-114.3678,-81.0193100000002,-0.17233,0.08230595,0.3621388,21.68286,-22.70966,-55.10159
105.389947891,-62.18128,-112.8247,-82.2387199999999,-0.1149234,0.06016663,0.3146654,21.68286,-22.70966,-55.10159
105.399945736,-81.3181199999999,-115.6736,-82.6655199999998,-0.09991463,0.0388975,0.2945445,21.68286,-22.70966,-55.10159
105.409944058,-106.7313,-122.9739,-83.8849399999999,-0.1372796,-0.07384854,0.268317,16.73714,-18.58628,-57.99805
105.419941902,-126.1143,-132.589,-80.7754299999998,-0.1726863,-0.2126607,0.2569286,16.73714,-18.58628,-57.99805
105.429939747,-134.852,-138.5836,-77.36107,-0.0595146,-0.2961513,0.2878603,16.73714,-18.58628,-57.99805
105.439938068,-136.8826,-138.5836,-75.10515,0.04335507,-0.323892,0.3264527,16.73714,-18.58628,-57.99805
105.44993496,-135.4674,-137.7526,-74.80029,0.10264,-0.3140562,0.3703759,16.73714,-18.58628,-57.99805
105.459933281,-142.1129,-135.1411,-76.9342700000001,0.1898556,-0.4164946,0.4047077,12.15882,-14.44592,-59.21474
105.469931126,-154.4811,-131.7581,-73.5808800000003,0.1913408,-0.2354407,0.4324159,12.15882,-14.44592,-59.21474
105.47992897,-172.3258,-133.4793,-73.7028200000002,0.1695325,-0.3193394,0.4449185,12.15882,-14.44592,-59.21474
105.489927292,-183.9556,-137.812,-69.73972,0.1790771,-0.4388942,0.4229181,12.15882,-14.44592,-59.21474
105.499925137,-186.8476,-142.7976,-66.9960399999999,0.2442293,-0.5082738,0.4534513,12.15882,-14.44592,-59.21474
105.509922981,-186.4784,-143.1537,-67.6057399999999,0.3021578,-0.5557268,0.5060058,6.402826,-7.71545,-60.51812
105.519920826,-186.8476,-142.7976,-70.10555,0.335994,-0.5913803,0.5724781,6.402826,-7.71545,-60.51812
105.529918194,-187.7706,-141.2544,-73.3979600000002,0.3605945,-0.5776378,0.5872675,6.402826,-7.71545,-60.51812
105.539916515,-191.0934,-138.2275,-78.7633999999999,0.4275254,-0.5342876,0.6129828,6.402826,-7.71545,-60.51812
105.54991436,-200.8157,-134.8444,-83.7629899999997,0.4678647,-0.5278426,0.6459326,6.402826,-7.71545,-60.51812
105.559912205,-216.5682,-133.1232,-87.6041600000002,0.4498241,-0.5528505,0.6603277,-1.298143,2.120818,-60.23946
105.56991005,-230.8439,-133.2419,-89.4332700000001,0.4548557,-0.6400899,0.6215768,-1.298143,2.120818,-60.23946
105.579908371,-242.7813,-135.1411,-87.54318,0.5013765,-0.730791,0.5928045,-1.298143,2.120818,-60.23946
105.589906216,-253.4266,-139.4739,-88.2138600000003,0.5660067,-0.7989555,0.5979737,-1.298143,2.120818,-60.23946
105.599903584,-265.8563,-142.0854,-89.4942500000003,0.6215426,-0.8761563,0.5911967,-1.298143,2.120818,-60.23946
105.609901428,-272.8711,-141.5512,-94.4328799999998,0.6455922,-0.8869771,0.525114,-8.568438,11.6078,-56.66601
105.619899273,-273.3018,-137.9901,-104.7979,0.6963496,-0.9675457,0.5853469,-8.568438,11.6078,-56.66601
105.629897594,-274.2863,-130.9271,-105.1028,0.7487593,-1.083954,0.6551576,-8.568438,11.6078,-56.66601
105.639895439,-271.3943,-123.8048,-104.9808,0.7003646,-1.156389,0.544231,-8.568438,11.6078,-56.66601
105.649893284,-257.6724,-118.8786,-114.0045,0.6079425,-1.118341,0.3352446,-8.568438,11.6078,-56.66601
105.659891605,-240.1354,-120.7185,-131.1983,0.6388049,-1.179757,0.3012277,-16.32973,22.96039,-49.49358
105.66988945,-232.8745,-126.357,-137.6002,0.6766367,-1.145336,0.263824,-16.32973,22.96039,-49.49358
105.679886818,-233.9205,-138.2868,-140.6487,0.7473255,-1.093917,0.3134594,-16.32973,22.96039,-49.49358
105.689884663,-243.5197,-144.6969,-139.6732,0.8654826,-1.180678,0.4539771,-16.32973,22.96039,-49.49358
105.699882507,-248.3808,-144.4595,-138.027,0.8809142,-1.250608,0.4257323,-24.8211,32.87003,-39.86794
105.709880829,-241.1199,-142.7976,-145.9532,0.9159283,-1.325566,0.3897973,-24.8211,32.87003,-39.86794
105.719878673,-221.5524,-137.3372,-159.7935,0.9441768,-1.32821,0.2523974,-24.8211,32.87003,-39.86794
105.729876518,-198.6005,-133.3012,-175.7679,0.9994087,-1.314084,0.1369607,-24.8211,32.87003,-39.86794
105.73987484,-167.9569,-135.9721,-190.5838,1.011824,-1.276729,0.05030713,-24.8211,32.87003,-39.86794
105.749871731,-144.2051,-143.0944,-199.1197,1.065013,-1.279657,0.09328701,-33.90601,37.84678,-28.22152
105.759870052,-133.7444,-149.0889,-196.4979,1.146617,-1.28929,0.1917339,-33.90601,37.84678,-28.22152
105.769867897,-130.7293,-146.9523,-191.9251,1.166759,-1.270267,0.2620446,-33.90601,37.84678,-28.22152
105.779865742,-131.7138,-141.4325,-196.5589,1.145055,-1.202418,0.3419872,-33.90601,37.84678,-28.22152
105.789864063,-136.9442,-129.2653,-205.5216,1.104962,-1.222,0.3066475,-33.90601,37.84678,-28.22152
105.799861908,-131.8369,-117.2761,-212.1674,1.041368,-1.236505,0.2397614,-42.56152,37.48727,-18.1569
105.809859753,-129.5602,-107.8391,-218.8742,1.04417,-1.205333,0.1885409,-42.56152,37.48727,-18.1569
105.819857597,-122.6684,-94.6034800000003,-230.2148,1.117826,-1.131464,0.1893506,-42.56152,37.48727,-18.1569
105.829854965,-112.3309,-80.7150300000001,-239.7262,1.236032,-1.122598,0.1063486,-42.56152,37.48727,-18.1569
105.839853287,-88.1483099999998,-73.8895,-244.2381,1.367208,-1.259893,0.007089996,-42.56152,37.48727,-18.1569
105.849851131,-57.6893600000002,-72.2869900000002,-233.2023,1.432443,-1.438521,-0.005899285,-51.03156,31.41309,-9.222397
105.859848976,-32.82993,-72.2276400000002,-207.5336,1.46797,-1.563962,0.06920753,-51.03156,31.41309,-9.222397
105.869846821,-18.36962,-70.6251200000001,-175.463,1.403096,-1.506679,0.1497066,-51.03156,31.41309,-9.222397
105.879845142,-15.96982,-66.70787,-152.66,1.291214,-1.307468,0.229294,-51.03156,31.41309,-9.222397
105.889842987,-24.03068,-64.0370099999998,-136.1979,1.193788,-1.125394,0.3165178,-51.03156,31.41309,-9.222397
105.899840355,-39.10632,-59.8823399999999,-123.272,1.110674,-1.0047,0.4094754,-57.56417,19.99647,-3.922583
105.9098382,-50.98223,-57.3895400000002,-110.773,1.016457,-0.9431918,0.4311597,-57.56417,19.99647,-3.922583
105.919836521,-51.96677,-50.74208,-104.9199,0.9710659,-0.9912424,0.4293369,-57.56417,19.99647,-3.922583
105.929834366,-41.93685,-48.24928,-100.9567,1.002162,-1.118218,0.3465218,-57.56417,19.99647,-3.922583
105.939832211,-15.04683,-41.66116,-97.9082100000002,1.160159,-1.280505,0.3257093,-57.56417,19.99647,-3.922583
105.949830055,22.85765,-27.95077,-93.6402600000003,1.291445,-1.370013,0.2972675,-60.43153,12.84438,0.09238529
105.959828377,63.5926400000002,-14.29972,-88.3358000000002,1.328328,-1.414836,0.2579715,-60.43153,12.84438,0.09238529
105.969826221,105.1891,-4.387877,-82.2997000000001,1.294378,-1.398382,0.2178261,-60.43153,12.84438,0.09238529
105.979823589,144.9396,1.30995,-75.7148599999998,1.232329,-1.337928,0.2140901,-60.43153,12.84438,0.09238529
105.989821434,175.6447,5.049149,-66.6302099999999,1.198138,-1.256134,0.1988142,-60.43153,12.84438,0.09238529
105.999819279,193.797,8.076119,-55.59451,1.193564,-1.11619,0.2078791,-61.80667,6.751252,0.5652132
106.0098176,201.7347,11.16244,-47.11957,1.210555,-0.9576213,0.1877084,-61.80667,6.751252,0.5652132
106.019815445,198.7811,12.29014,-39.07143,1.270326,-0.8972959,0.1722743,-61.80667,6.751252,0.5652132
106.02981329,188.5051,12.64625,-27.48699,1.345573,-0.9078218,0.1869817,-61.80667,6.751252,0.5652132
106.039811611,177.4906,14.72359,-12.2443,1.408243,-0.9492062,0.2021975,-61.80667,6.751252,0.5652132
106.049809456,169.799,15.49516,6.04693200000002,1.48738,-1.036035,0.2604682,-62.09742,2.934531,-0.6427937
106.059806824,166.0455,20.30271,28.66708,1.586526,-1.124381,0.3220544,-62.09742,2.934531,-0.6427937
106.069804668,170.6605,27.24693,50.67753,1.620072,-1.145226,0.3612445,-62.09742,2.934531,-0.6427937
106.079802513,178.4752,34.13181,67.0786699999997,1.632076,-1.109331,0.3813145,-62.09742,2.934531,-0.6427937
106.089800835,185.3054,45.17135,78.5411699999997,1.653661,-1.038018,0.4276804,-62.09742,2.934531,-0.6427937
106.099798679,189.0589,61.0777799999999,86.2844499999999,1.654204,-0.9367687,0.4453607,-61.67265,1.014863,-3.080885
106.109796524,187.7667,77.16228,88.5403699999999,1.617916,-0.8473066,0.4229079,-61.67265,1.014863,-3.080885
106.119794369,180.875,91.5848999999997,86.0405700000002,1.559763,-0.7883708,0.3512077,-61.67265,1.014863,-3.080885
106.129791737,168.5068,105.7108,77.4436999999999,1.573058,-0.6910592,0.3889669,-61.67265,1.014863,-3.080885
106.139790058,148.8777,123.9319,72.2611800000002,1.579713,-0.6821983,0.3870387,-61.67265,1.014863,-3.080885
106.149787903,121.9261,137.5236,71.83439,1.525603,-0.7071268,0.3818752,-61.34303,4.026197,-7.157848
106.159785748,103.9584,145.4769,75.1268099999999,1.487062,-0.7843531,0.3101758,-61.34303,4.026197,-7.157848
106.169783592,90.0519300000002,150.7592,78.7240800000001,1.521282,-0.8683406,0.2981734,-61.34303,4.026197,-7.157848
106.179781914,83.5909400000001,159.3653,80.3093199999999,1.599122,-0.9639461,0.35597,-61.34303,4.026197,-7.157848
106.189779758,88.8828000000002,170.1081,82.99203,1.618373,-1.081348,0.3358665,-61.34303,4.026197,-7.157848
106.199777603,104.6968,178.8329,86.1015499999998,1.616281,-1.126359,0.3071672,-58.72977,6.256104,-15.66459
106.209774971,122.5415,187.1422,87.6867799999998,1.611248,-1.092005,0.3019028,-58.72977,6.256104,-15.66459
106.219773293,137.1248,194.2052,86.52834,1.603293,-1.031244,0.321044,-58.72977,6.256104,-15.66459
106.229771137,146.9702,202.8112,84.6382400000003,1.580132,-0.965644,0.3177175,-58.72977,6.256104,-15.66459
106.239768982,153.9234,210.6458,83.1749500000001,1.537589,-0.9064428,0.2943262,-55.73023,8.101385,-25.00503
106.249766827,154.2926,219.0144,81.46777,1.508063,-0.838889,0.3058461,-55.73023,8.101385,-25.00503
106.259765148,147.7086,227.6799,79.6996199999998,1.469834,-0.7741114,0.3513608,-55.73023,8.101385,-25.00503
106.269762993,135.8942,235.3957,77.9924299999999,1.448277,-0.7412039,0.3829759,-55.73023,8.101385,-25.00503
106.279760361,122.0492,241.509,77.1388399999998,1.409043,-0.7791904,0.4055471,-55.73023,8.101385,-25.00503
106.289758205,111.404,246.6726,78.6021400000002,1.373647,-0.8407376,0.3941389,-50.07715,8.812211,-35.86793
106.29975605,105.6198,251.5395,81.0409700000001,1.334239,-0.8967171,0.362636,-50.07715,8.812211,-35.86793
106.309754372,104.0815,256.3471,84.33339,1.288314,-0.9175138,0.3134281,-50.07715,8.812211,-35.86793
106.319752216,105.6198,260.6798,86.0405700000002,1.225773,-0.9100693,0.2532346,-50.07715,8.812211,-35.86793
106.329750061,109.4964,263.2913,85.5527999999997,1.165391,-0.8873293,0.2136122,-50.07715,8.812211,-35.86793
106.339748383,113.1269,267.2086,85.0650400000002,1.125341,-0.8565782,0.2088883,-41.43861,6.892385,-45.53384
106.349746227,117.988,272.9064,85.1260100000001,1.089992,-0.8171584,0.1854896,-41.43861,6.892385,-45.53384
106.359743595,121.3723,278.8416,85.18698,1.028747,-0.7473946,0.1884498,-41.43861,6.892385,-45.53384
106.36974144,119.6494,281.3938,87.4429,0.9719307,-0.6799775,0.1909244,-41.43861,6.892385,-45.53384
106.379739285,117.1266,284.0053,89.2110500000002,0.9042456,-0.6059816,0.1393371,-41.43861,6.892385,-45.53384
106.389737606,110.4194,282.7589,90.61338,0.8283349,-0.5599248,0.1322789,-30.90859,6.899219,-53.97003
106.399735451,102.6662,281.8092,91.9547300000003,0.7553666,-0.5155003,0.09985153,-30.90859,6.899219,-53.97003
106.409733296,95.09766,277.2985,94.6374500000001,0.6878737,-0.4773287,0.06263043,-30.90859,6.899219,-53.97003
106.41973114,87.3444699999999,271.2445,97.6859900000002,0.6283423,-0.4212252,0.05601969,-30.90859,6.899219,-53.97003
106.429729462,80.51428,265.606,100.7955,0.5697099,-0.3605111,0.07333501,-30.90859,6.899219,-53.97003
106.43972683,74.1763599999999,261.214,102.1369,0.5147212,-0.3116893,0.1107472,-17.77519,4.286754,-59.535
106.449724674,68.76144,257.2967,101.893,0.442783,-0.2942281,0.1563329,-17.77519,4.286754,-59.535
106.459722519,66.6693000000003,255.1007,101.6491,0.3470888,-0.2845219,0.1493186,-17.77519,4.286754,-59.535
106.469720841,63.96184,249.6996,100.1248,0.2625161,-0.2694471,0.1738695,-17.77519,4.286754,-59.535
106.479718685,63.2234399999998,247.0881,98.8444300000001,0.1956597,-0.2638069,0.1912133,-17.77519,4.286754,-59.535
106.48971653,67.6538300000003,243.7644,97.92987,0.1424222,-0.2569828,0.2023116,-3.449022,0.5759068,-61.08607
106.499714375,69.49983,238.6007,98.2956899999997,0.09034283,-0.2092913,0.1631469,-3.449022,0.5759068,-61.08607
106.509711743,63.2849799999999,227.4425,96.5275400000002,0.02393814,-0.174476,0.2345615,-3.449022,0.5759068,-61.08607
106.519710064,56.94705,219.4893,97.01531,-0.02745943,-0.1617534,0.2490051,-3.449022,0.5759068,-61.08607
106.529707909,51.90133,210.1709,99.5760800000003,-0.09246809,-0.1515112,0.2342799,-3.449022,0.5759068,-61.08607
106.539705753,46.05567,199.8436,100.9784,-0.1507311,-0.1093161,0.2980213,9.669909,-2.738975,-59.74545
106.549703598,42.54827,189.9911,99.7589999999998,-0.213103,-0.08328299,0.3038662,9.669909,-2.738975,-59.74545
106.55970192,42.24061,180.6135,97.8689000000001,-0.2236671,-0.06542853,0.312973,9.669909,-2.738975,-59.74545
106.569699764,43.71741,173.1351,97.2591899999998,-0.2460571,-0.06688225,0.3087052,9.669909,-2.738975,-59.74545
106.579697609,47.16327,167.0811,98.4176399999999,-0.2396182,-0.2296253,0.2469996,9.669909,-2.738975,-59.74545
106.589694977,50.30146,161.8581,95.4910400000002,-0.2863059,-0.0005044101,0.2680793,19.85416,-6.442623,-56.81208
106.599692822,52.33206,155.8042,97.6859900000002,-0.2945834,0.1284258,0.2498747,19.85416,-6.442623,-56.81208
106.609691143,49.74767,149.216,96.7104600000003,-0.3673021,0.0813623,0.2026345,19.85416,-6.442623,-56.81208
106.619688988,44.94807,142.9247,97.3201599999997,-0.3714338,0.1196306,0.1983247,19.85416,-6.442623,-56.81208
106.629686832,37.56408,137.6423,97.99084,-0.3875538,0.1473914,0.1868598,19.85416,-6.442623,-56.81208
106.639685154,30.24163,130.4607,99.5760800000003,-0.4073659,0.1645158,0.1892828,27.72084,-10.08987,-52.67068
106.649682999,26.36504,121.4985,102.1369,-0.4481125,0.17926,0.1362281,27.72084,-10.08987,-52.67068
106.659680843,26.24197,109.1532,102.1369,-0.4789689,0.2136732,0.1401016,27.72084,-10.08987,-52.67068
106.669678211,28.3341,101.1406,101.2833,-0.4741798,0.244562,0.159707,27.72084,-10.08987,-52.67068
106.679676056,31.34923,96.2737400000002,100.2468,-0.4582316,0.2781405,0.1835993,27.72084,-10.08987,-52.67068
106.689674377,35.28735,94.7899199999998,99.6370500000002,-0.4395487,0.3213163,0.1883414,34.54447,-14.57246,-48.91978
106.699672222,37.13335,97.2827299999998,99.6370500000002,-0.4396912,0.3812554,0.2069907,34.54447,-14.57246,-48.91978
106.709670067,32.82603,101.4967,98.3566699999999,-0.4807495,0.4396545,0.1989114,34.54447,-14.57246,-48.91978
106.719668388,21.81158,103.2773,97.1372499999999,-0.5293092,0.4815973,0.1611778,34.54447,-14.57246,-48.91978
106.729666233,5.074541,101.8529,97.4421099999999,-0.548848,0.5090056,0.1186115,34.54447,-14.57246,-48.91978
106.739664078,-14.00076,97.9356000000001,100.2468,-0.5649778,0.535688,0.04253914,37.2305,-18.32582,-45.26802
106.749661446,-34.12213,91.4661899999999,102.6856,-0.5731898,0.5563809,-0.014881,37.2305,-18.32582,-45.26802
106.759660244,-52.52057,84.81873,104.6976,-0.5610586,0.5582529,-0.04888153,37.2305,-18.32582,-45.26802
106.769657612,-66.6732100000001,79.41766,107.8681,-0.5499156,0.5612089,-0.06852333,37.2305,-18.32582,-45.26802
106.779655456,-75.6570599999999,77.16228,109.3314,-0.5552984,0.58906,-0.04028514,37.2305,-18.32582,-45.26802
106.789653301,-81.6873199999998,76.27199,108.051,-0.5864294,0.6123789,-0.02683674,39.55472,-22.47216,-42.77802
106.799651146,-85.0716499999998,74.3727099999999,105.1854,-0.5853988,0.6095362,-0.02109489,39.55472,-22.47216,-42.77802
106.809649467,-86.67151,72.3547300000002,103.905,-0.541338,0.5995809,0.01711695,39.55472,-22.47216,-42.77802
106.819646835,-85.8715700000002,71.3457400000001,102.1978,-0.5266818,0.5981286,0.03910627,39.55472,-22.47216,-42.77802
106.82964468,-84.82552,71.4050900000001,99.0883200000001,-0.5323828,0.5901883,0.03337534,40.7112,-24.35188,-41.14703
106.839642525,-85.7485099999999,71.99862,96.6494800000001,-0.5312814,0.6090345,0.01948986,40.7112,-24.35188,-41.14703
106.849640369,-91.5941699999997,72.8295500000002,94.8813299999999,-0.522491,0.6596539,0.009411406,40.7112,-24.35188,-41.14703
106.859638691,-102.6086,73.8979000000001,91.7108499999999,-0.5260864,0.7212625,0.005573202,40.7112,-24.35188,-41.14703
106.869636536,-117.9304,73.0669600000002,88.72329,-0.5221207,0.7429669,-0.02076098,40.7112,-24.35188,-41.14703
106.87963438,-132.5138,69.2090499999999,85.4308599999998,-0.5391067,0.7384235,-0.05566625,40.71709,-24.72842,-40.6935
106.889632702,-142.1129,64.1641100000001,80.7970900000003,-0.5458969,0.7104767,-0.0680902,40.71709,-24.72842,-40.6935
106.899629593,-143.959,61.3151899999999,73.6025400000002,-0.539414,0.6509129,-0.0594718,40.71709,-24.72842,-40.6935
106.909627914,-138.1133,61.2558399999998,64.7617799999998,-0.5264983,0.5861309,-0.05086326,40.71709,-24.72842,-40.6935
106.919625759,-126.8527,63.0957600000002,53.84801,-0.5285949,0.5681535,-0.04606922,40.71709,-24.72842,-40.6935
106.929623604,-114.423,65.9446799999998,40.3125,-0.5381192,0.582684,-0.03074192,41.8256,-23.95927,-40.68922
106.939621925,-106.6698,68.7342400000002,26.65505,-0.5148629,0.5900343,-0.02121283,41.8256,-23.95927,-40.68922
106.94961977,-104.5777,70.0993399999999,14.33895,-0.4762771,0.5848031,-0.03898606,41.8256,-23.95927,-40.68922
106.959617615,-107.3467,68.7935900000002,2.75451,-0.4722307,0.5764465,-0.05813401,41.8256,-23.95927,-40.68922
106.969615459,-112.0847,64.9950400000003,-9.31770000000002,-0.5003372,0.5416955,-0.07769768,41.8256,-23.95927,-40.68922
106.979612827,-116.0229,59.83139,-22.18253,-0.4926184,0.493617,-0.09109888,42.89478,-21.28834,-40.69507
106.989611149,-119.038,54.90514,-34.68154,-0.4196599,0.4488852,-0.09217171,42.89478,-21.28834,-40.69507
106.999608994,-120.5148,53.54004,-47.30249,-0.3430617,0.4177835,-0.09851871,42.89478,-21.28834,-40.69507
107.009606838,-123.8376,54.66773,-58.8259599999998,-0.3063216,0.407245,-0.1081516,42.89478,-21.28834,-40.69507
107.01960516,-131.96,56.3296,-70.8981599999998,-0.2790535,0.4082433,-0.1110708,42.89478,-21.28834,-40.69507
107.029603004,-143.8359,57.6946999999999,-85.2872600000001,-0.3173845,0.3990802,-0.1267947,44.68031,-17.0871,-40.31647
107.039600849,-156.5733,56.92312,-101.5665,-0.3921363,0.3306258,-0.1706757,44.68031,-17.0871,-40.31647
107.049598694,-166.6647,53.42133,-119.0651,-0.4140971,0.2535219,-0.2117751,44.68031,-17.0871,-40.31647
107.059596062,-171.772,47.78286,-137.7221,-0.4291901,0.1742073,-0.243793,44.68031,-17.0871,-40.31647
107.069594383,-172.4488,41.55086,-158.0864,-0.4171229,0.1017728,-0.2729885,44.68031,-17.0871,-40.31647
107.079592228,-171.0951,38.10842,-179.0603,-0.3726825,0.04643169,-0.2036582,46.34468,-10.21675,-39.11403
107.089590073,-170.2952,39.65158,-198.571,-0.3638468,0.01536906,-0.2716234,46.34468,-10.21675,-39.11403
107.099587917,-174.2948,42.97531,-216.5573,-0.3751276,-0.005205388,-0.212255,46.34468,-10.21675,-39.11403
107.109586239,-183.5248,48.19832,-235.0315,-0.3407097,-0.04637244,-0.1654039,46.34468,-10.21675,-39.11403
107.119584084,-194.7239,55.14255,-253.8714,-0.2788608,-0.1217406,-0.1449136,46.34468,-10.21675,-39.11403
107.129581928,-201.8617,62.2054700000002,-272.7114,-0.2666366,-0.2287923,-0.187022,47.95319,2.29928,-37.55421
107.139579296,-200.9387,67.4284800000002,-293.6244,-0.2986115,-0.3450581,-0.2907874,47.95319,2.29928,-37.55421
107.149577141,-193.6163,69.2090499999999,-315.9396,-0.346724,-0.4582192,-0.3921325,47.95319,2.29928,-37.55421
107.159575462,-187.3399,69.3277599999998,-335.938,-0.3755994,-0.557135,-0.4652788,47.95319,2.29928,-37.55421
107.169573307,-187.586,64.1641100000001,-350.571,-0.3225079,-0.6090196,-0.5146513,47.95319,2.29928,-37.55421
107.179571152,-193.4317,61.5525999999999,-361.3019,-0.1913099,-0.6912777,-0.4411581,47.25615,16.73454,-31.95769
107.189569473,-199.4004,63.1551100000002,-370.2646,-0.04946712,-0.7452954,-0.4375629,47.25615,16.73454,-31.95769
107.199567318,-203.8308,66.59755,-382.5807,0.06462818,-0.8008508,-0.4358332,47.25615,16.73454,-31.95769
107.209565163,-203.8308,72.8889000000003,-398.0673,0.1383967,-0.9145175,-0.4311468,47.25615,16.73454,-31.95769
107.219562531,-197.1852,79.3583099999999,-414.0416,0.1243532,-1.049686,-0.4621949,47.25615,16.73454,-31.95769
107.229560375,-185.0016,80.54536,-426.9674,0.05695349,-1.225319,-0.551526,40.92916,34.24793,-24.80646
107.239558697,-164.9418,71.5831500000001,-435.0765,-0.01213248,-1.364637,-0.704514,40.92916,34.24793,-24.80646
107.249556542,-144.4512,51.99687,-438.0641,0.02794771,-1.503194,-0.7978705,40.92916,34.24793,-24.80646
107.259554386,-125.7451,26.17859,-433.3693,0.1713869,-1.590167,-0.7880481,40.92916,34.24793,-24.80646
107.269552708,-105.8083,6.23619700000001,-426.2357,0.4274823,-1.602267,-0.6989977,40.92916,34.24793,-24.80646
107.279550552,-87.5945100000001,0.597721199999998,-421.48,0.6981986,-1.664356,-0.528602,27.05289,50.89794,-15.64292
107.289548397,-71.5958699999998,3.387283,-414.7123,0.817998,-1.735973,-0.4359486,27.05289,50.89794,-15.64292
107.299545765,-63.5350200000001,-0.886087999999999,-402.4572,0.9887065,-1.820371,-0.3630023,27.05289,50.89794,-15.64292
107.30954361,-63.2273500000002,-1.360907,-392.8847,0.7640524,-1.743207,-0.4195811,27.05289,50.89794,-15.64292
107.319541931,-71.0420700000001,-13.94361,-381.1784,0.6643712,-1.757415,-0.5352191,27.05289,50.89794,-15.64292
107.329539776,-82.4257100000003,-30.50292,-364.7772,0.6398695,-1.75245,-0.6299357,7.038774,59.9291,-9.775467
107.339537621,-86.1177100000002,-42.90756,-348.1322,0.6557047,-1.713923,-0.6491163,7.038774,59.9291,-9.775467
107.349535465,-85.6254399999998,-48.48669,-331.4262,0.7155699,-1.682462,-0.5798352,7.038774,59.9291,-9.775467
107.359533787,-82.11805,-49.9705,-317.5858,0.7741148,-1.63331,-0.5392709,7.038774,59.9291,-9.775467
107.369531632,-78.1799200000003,-50.50467,-307.1599,0.8582612,-1.623162,-0.4618909,7.038774,59.9291,-9.775467
107.379528999,-76.0877900000002,-46.88417,-292.5269,0.9607446,-1.707533,-0.3979187,-12.41467,60.20508,-5.019601
107.389526844,-68.82687,-41.30505,-275.2112,0.9702016,-1.770826,-0.4314192,-12.41467,60.20508,-5.019601
107.399524689,-59.1661499999998,-39.82124,-259.4197,0.938486,-1.82133,-0.4653298,-12.41467,60.20508,-5.019601
107.40952301,-45.07505,-35.48852,-245.2136,0.9124162,-1.757649,-0.5126798,-12.41467,60.20508,-5.019601
107.419520855,-32.52227,-31.15579,-231.3732,0.9311475,-1.585508,-0.4342703,-28.75197,54.79768,-0.2755699
107.4295187,-46.05958,-23.08387,-211.6187,0.8745668,-1.321774,-0.3796819,-28.75197,54.79768,-0.2755699
107.439517021,-61.9966899999998,-24.33027,-205.6436,0.96551,-1.231415,-0.2606982,-28.75197,54.79768,-0.2755699
107.449514866,-113.6231,-4.625287,-188.9376,1.032297,-1.331781,-0.06217976,-28.75197,54.79768,-0.2755699
107.459512234,-140.0208,16.86027,-171.6219,1.257485,-1.246654,0.3628599,-28.75197,54.79768,-0.2755699
107.469510079,-143.3436,47.6048,-167.171,1.120846,-1.164782,0.09986017,-39.86093,47.5176,3.356061
107.479507923,-144.2051,66.7162599999999,-170.8293,1.030063,-1.444295,0.02016819,-39.86093,47.5176,3.356061
107.489506245,-119.7149,81.0795300000001,-162.7811,0.8957981,-1.616869,-0.1743338,-39.86093,47.5176,3.356061
107.499504089,-59.1661499999998,75.9752299999999,-167.8417,0.7579613,-1.54914,-0.4401992,-39.86093,47.5176,3.356061
107.509501934,10.24333,62.97706,-178.2677,0.7789261,-1.503782,-0.6795355,-39.86093,47.5176,3.356061
107.519500256,85.2523399999999,38.46453,-187.4133,0.7727078,-1.358817,-0.8614209,-46.84575,40.26464,6.566777
107.5294981,147.647,17.09768,-186.6207,0.9128157,-1.241336,-0.8052233,-46.84575,40.26464,6.566777
107.539495468,182.4133,8.49158700000002,-175.0972,1.068769,-1.158875,-0.5748429,-46.84575,40.26464,6.566777
107.549493313,199.7041,4.455625,-156.8669,1.150396,-0.9851786,-0.3563206,-46.84575,40.26464,6.566777
107.559491158,204.4422,-3.497592,-147.3555,1.012269,-0.6633434,-0.4140704,-46.84575,40.26464,6.566777
107.569489479,191.6433,-18.09828,-145.8312,0.8207696,-0.2239974,-0.4722359,-53.32349,31.11502,2.502004
107.579487324,140.0784,-21.06589,-140.9536,0.9018438,0.1402384,-0.03505254,-53.32349,31.11502,2.502004
107.589485169,79.2836200000002,-19.40403,-141.9901,0.8809013,0.2696807,-0.02308496,-53.32349,31.11502,2.502004
107.599483013,19.84252,-18.45439,-136.7466,1.061579,0.01866714,0.08817293,-53.32349,31.11502,2.502004
107.609481335,-17.93889,-11.0947,-129.552,1.220053,-0.1928818,0.1525589,-53.32349,31.11502,2.502004
107.619478702,-34.6144,10.74698,-127.7839,1.413608,-0.3187887,0.5250646,-56.90295,23.45908,0.0637455
107.629476547,-39.41399,39.71093,-130.1618,1.381349,-0.4962133,0.4825733,-56.90295,23.45908,0.0637455
107.639474392,-46.98257,58.1101699999998,-121.321,1.33327,-0.6875611,0.4396345,-56.90295,23.45908,0.0637455
107.649472237,-51.72063,71.99862,-111.9925,1.243831,-0.7804205,0.3096417,-56.90295,23.45908,0.0637455
107.659470558,-32.2146,80.1892499999998,-110.895,1.225029,-0.9796345,0.03454452,-56.90295,23.45908,0.0637455
107.669468403,0.0903486900000002,88.5579299999999,-107.3587,1.22618,-1.205445,-0.3224171,-59.39864,17.35043,-0.3102722
107.679466247,49.56306,74.0759499999998,-82.9094099999999,1.041052,-1.453886,-0.8379354,-59.39864,17.35043,-0.3102722
107.689464569,102.297,35.79368,-53.5215,0.872577,-1.279536,-0.8568296,-59.39864,17.35043,-0.3102722
107.69946146,120.9416,17.15703,-37.66911,0.9456607,-0.6979536,-0.4412242,-59.39864,17.35043,-0.3102722
107.709459782,134.4174,11.28115,-48.58287,1.019594,0.01104346,-0.3879351,-59.39864,17.35043,-0.3102722
107.719457626,90.1750000000002,19.88724,-50.22908,1.218352,0.2314973,0.01366553,-61.12222,10.89939,-4.353558
107.729455471,9.25880099999997,34.96274,-20.90215,1.156682,0.2985564,0.04055604,-61.12222,10.89939,-4.353558
107.739453793,-81.8719200000002,23.32968,12.50983,0.9997216,0.2189052,-0.1462731,-61.12222,10.89939,-4.353558
107.749451637,-175.7101,9.44122399999999,42.87327,1.002879,-0.1045686,-0.135188,-61.12222,10.89939,-4.353558
107.759449482,-207.1536,5.108501,43.60492,0.9867009,-0.5401998,-0.1249976,-61.12222,10.89939,-4.353558
107.769447327,-170.2952,0.004197581,28.97194,1.022984,-0.8637069,-0.1359848,-61.78603,7.076582,-5.951346
107.779444694,-131.0985,11.2218,24.4601,1.228548,-1.37237,0.1226975,-61.78603,7.076582,-5.951346
107.789443016,-82.8564500000002,9.50057699999998,43.54395,1.042697,-1.393702,-0.1071681,-61.78603,7.076582,-5.951346
107.799440861,-22.00008,0.4196641,37.56881,1.149262,-0.9647566,0.1246451,-61.78603,7.076582,-5.951346
107.809438705,20.95011,15.43581,18.36302,1.221221,-0.5907431,0.2167885,-61.78603,7.076582,-5.951346
107.819437027,38.79475,32.94476,20.43603,1.346904,-0.6392434,0.274011,-61.44642,8.607902,-5.118174
107.829434872,28.58023,48.91055,51.53112,1.43131,-0.7474546,0.3207922,-61.44642,8.607902,-5.118174
107.839432716,2.551678,57.10118,81.3458300000001,1.538576,-0.5906101,0.5009879,-61.44642,8.607902,-5.118174
107.849430561,-24.95368,74.7288299999998,81.4067899999997,1.533252,-0.3316549,0.5597954,-61.44642,8.607902,-5.118174
107.859427929,-45.87498,91.8816599999998,62.3229399999997,1.351352,-0.4584184,0.376372,-61.44642,8.607902,-5.118174
107.86942625,-49.56697,92.95,64.0911000000001,1.219245,-0.8737001,0.2589795,-61.47867,10.49606,-6.74082
107.879424095,-27.66114,93.0093500000001,72.9928299999999,1.343701,-1.089633,0.342569,-61.47867,10.49606,-6.74082
107.88942194,7.96660199999998,96.8079099999998,71.1637000000001,1.472051,-1.126792,0.305983,-61.47867,10.49606,-6.74082
107.899419785,47.9632,102.7431,69.8833199999998,1.567725,-1.266114,0.2742661,-61.47867,10.49606,-6.74082
107.909418106,87.6521399999998,108.0255,75.4316600000002,1.645166,-1.316944,0.2344223,-61.47867,10.49606,-6.74082
107.919415951,107.9581,113.4859,82.8091200000002,1.665216,-1.164067,0.2759842,-60.40208,13.88302,-12.03976
107.929413795,113.6192,123.3384,83.2359200000001,1.689208,-0.9886975,0.2711114,-60.40208,13.88302,-12.03976
107.939411163,118.0496,136.0398,78.4192299999998,1.648652,-0.9329253,0.1874169,-60.40208,13.88302,-12.03976
107.949409008,118.3572,148.2664,74.15128,1.600598,-0.9175546,0.1654823,-60.40208,13.88302,-12.03976
107.95940733,115.5267,160.5524,71.9563299999999,1.622315,-0.9585884,0.1482262,-57.0633,17.1995,-20.15968
107.969405174,109.0657,169.93,77.4436999999999,1.649775,-1.020597,0.1099082,-57.0633,17.1995,-20.15968
107.979403019,102.4816,175.6279,82.6262099999998,1.668936,-1.107461,0.0816612,-57.0633,17.1995,-20.15968
107.98940134,94.4207900000002,182.1566,92.9912399999999,1.733277,-1.238467,0.07057552,-57.0633,17.1995,-20.15968
107.999399185,87.3444699999999,188.0325,108.4168,1.707479,-1.239935,0.0720566,-57.0633,17.1995,-20.15968
108.00939703,85.9292100000002,197.8256,115.6114,1.637107,-1.149937,0.1286281,-53.30472,18.66678,-29.87953
108.019394398,86.5445399999998,209.9335,113.3555,1.589908,-1.1003,0.1851695,-53.30472,18.66678,-29.87953
108.029392242,94.78999,223.7033,112.0751,1.512761,-1.118583,0.1594656,-53.30472,18.66678,-29.87953
108.039390564,102.4816,234.1493,110.9166,1.46933,-1.038776,0.1063989,-53.30472,18.66678,-29.87953
108.049388409,103.5892,241.1529,106.8926,1.452311,-0.9379361,0.06428786,-53.30472,18.66678,-29.87953
108.059386253,97.3128499999998,244.714,102.7466,1.468348,-0.8828781,0.09870321,-45.0923,19.39955,-40.40093
108.069384575,90.4826700000001,246.1978,101.771,1.433425,-0.8679145,0.004002173,-45.0923,19.39955,-40.40093
108.07938242,80.51428,243.527,104.3318,1.375147,-0.8782461,0.009849341,-45.0923,19.39955,-40.40093
108.089380264,76.39156,238.8975,109.1485,1.300448,-0.8960773,0.02817004,-45.0923,19.39955,-40.40093
108.099377632,81.49881,235.9299,111.2825,1.209221,-0.8649848,0.01204948,-45.0923,19.39955,-40.40093
108.109375477,86.6060700000003,235.9299,107.5023,1.123183,-0.7980222,0.02797524,-34.59821,21.30162,-49.62126
108.119373798,87.7752000000002,238.482,105.1244,1.106586,-0.7427544,0.1026478,-34.59821,21.30162,-49.62126
108.129371643,84.8216100000001,241.3309,103.5392,1.094942,-0.7189539,0.1265908,-34.59821,21.30162,-49.62126
108.139369488,76.3300199999999,241.9838,107.9291,1.092433,-0.7151467,0.1232442,-34.59821,21.30162,-49.62126
108.149367332,61.7466399999999,240.4406,118.8428,1.141951,-0.704725,0.1461268,-34.59821,21.30162,-49.62126
108.159365654,45.748,239.9658,132.6222,1.150312,-0.6841205,0.096335,-21.49429,20.20677,-55.64585
108.169363499,31.59536,236.1079,140.7923,1.074623,-0.623989,0.08687994,-21.49429,20.20677,-55.64585
108.179361343,22.79611,232.3094,145.3041,0.969676,-0.5872169,0.1368254,-21.49429,20.20677,-55.64585
108.189358711,20.95011,227.9767,147.8649,0.8194882,-0.5540744,0.2064721,-21.49429,20.20677,-55.64585
108.199356556,20.45785,224.1187,148.2307,0.6773647,-0.5354518,0.2651014,-21.49429,20.20677,-55.64585
108.209354878,17.87345,220.4389,146.7674,0.5811981,-0.5509396,0.3203093,-7.94228,17.99864,-58.7586
108.219352722,12.39699,217.1152,147.9259,0.5042553,-0.5797821,0.3084864,-7.94228,17.99864,-58.7586
108.229350567,6.92053700000001,212.1296,151.4012,0.4612571,-0.5996272,0.3037807,-7.94228,17.99864,-58.7586
108.239348888,3.105477,208.2123,153.3523,0.4293481,-0.5871591,0.3014403,-7.94228,17.99864,-58.7586
108.249346733,-1.509515,203.8202,155.9131,0.4023559,-0.5770192,0.2995704,-7.94228,17.99864,-58.7586
108.259344578,-0.5249836,201.4461,153.962,0.3529453,-0.5420368,0.2465256,5.105886,18.10696,-57.43623
108.269341946,-1.940248,199.4282,150.9744,0.2786091,-0.55449,0.2145938,5.105886,18.10696,-57.43623
108.27933979,-4.032378,193.7303,150.9744,0.2192763,-0.5611961,0.1941202,5.105886,18.10696,-57.43623
108.289338112,-3.724712,186.43,151.5232,0.1843311,-0.5687249,0.1903544,5.105886,18.10696,-57.43623
108.299335957,0.4595481,181.2663,151.767,0.1451863,-0.5603531,0.180849,5.105886,18.10696,-57.43623
108.309333801,5.136074,176.9336,149.816,0.1019381,-0.5143685,0.2014913,17.50098,16.3187,-54.88332
108.319332123,6.428272,175.3311,146.4626,0.05208426,-0.4282779,0.2116061,17.50098,16.3187,-54.88332
108.329329968,3.16701,170.2861,144.3286,-0.03375696,-0.4490386,0.2524401,17.50098,16.3187,-54.88332
108.339327812,0.02881546,166.1315,146.0968,-0.06216892,-0.4430258,0.1744802,17.50098,16.3187,-54.88332
108.34932518,-6.18604100000003,157.4067,152.9865,-0.07162593,-0.4061452,0.189323,17.50098,16.3187,-54.88332
108.359323025,-13.8777,148.8599,159.0835,-0.0874175,-0.3438145,0.1845488,28.32825,14.59192,-51.18132
108.369321346,-19.72335,142.6279,161.7663,-0.09822971,-0.3128971,0.1879097,28.32825,14.59192,-51.18132
108.379319191,-21.13862,137.8798,161.8272,-0.154619,-0.2676055,0.214318,28.32825,14.59192,-51.18132
108.389317036,-21.38475,133.547,160.9736,-0.2262385,-0.2158775,0.2335726,28.32825,14.59192,-51.18132
108.39931488,-23.29228,129.2737,159.9981,-0.2747009,-0.1793745,0.1853115,28.32825,14.59192,-51.18132
108.409313202,-26.61507,124.4661,160.3639,-0.3151758,-0.1777225,0.1877745,36.25333,10.8921,-45.81362
108.419311047,-32.89146,118.1154,162.6198,-0.3279669,-0.146254,0.1495026,36.25333,10.8921,-45.81362
108.429308891,-39.10632,111.1118,165.8513,-0.32227,-0.3995066,0.07585717,36.25333,10.8921,-45.81362
108.439306259,-47.29024,100.191,169.8754,-0.3786368,-0.04347418,0.1265928,36.25333,10.8921,-45.81362
108.449304104,-59.8430200000002,91.1694299999998,175.9115,-0.3854492,-0.01773982,0.1390411,36.25333,10.8921,-45.81362
108.459302425,-64.2118800000002,82.2072199999998,178.4113,-0.4206925,0.04291094,0.1520084,43.06572,6.796401,-41.29074
108.46930027,-65.0118099999997,74.1946600000002,177.5577,-0.4589832,0.00551143,0.1305489,43.06572,6.796401,-41.29074
108.479298115,-60.8275500000002,65.1731000000002,176.0334,-0.5060228,0.01827521,0.08707717,43.06572,6.796401,-41.29074
108.489296436,-56.21256,56.21089,175.4237,-0.5581988,0.04501227,0.04169651,43.06572,6.796401,-41.29074
108.499294281,-52.70517,47.12998,172.9849,-0.6062329,0.08508317,0.01066249,43.06572,6.796401,-41.29074
108.509292126,-50.61304,38.64259,170.4241,-0.6218833,0.1138471,0.001589422,47.94701,2.676367,-37.94323
108.519289494,-51.6591,31.2829,169.3266,-0.6000073,0.1695943,0.04556593,47.94701,2.676367,-37.94323
108.529287338,-55.90489,25.94118,168.7169,-0.6047753,0.2155285,0.03072656,47.94701,2.676367,-37.94323
108.53928566,-59.7199599999998,15.61387,170.0583,-0.6570129,0.2177777,-0.0883484,47.94701,2.676367,-37.94323
108.549283505,-62.5504799999999,2.259588,172.619,-0.6767913,0.2592832,-0.07683878,49.94117,-3.384911,-36.67138
108.559281349,-66.9808699999998,-3.675649,168.4121,-0.7357261,0.336759,-0.032727,49.94117,-3.384911,-36.67138
108.569279194,-72.7034699999999,-7.59290600000003,162.254,-0.8338205,0.3164805,-0.1249159,49.94117,-3.384911,-36.67138
108.579277516,-77.3799900000002,-17.80151,161.4614,-0.8715681,0.274669,-0.2047616,49.94117,-3.384911,-36.67138
108.58927536,-81.5027199999998,-25.69538,157.3764,-0.8423055,0.3004776,-0.1560045,49.94117,-3.384911,-36.67138
108.599272728,-85.0716499999998,-29.79069,152.9255,-0.8066458,0.2958543,-0.1541512,50.04993,-8.646499,-36.64332
108.609270573,-87.5945100000001,-35.84463,151.889,-0.7980978,0.3084262,-0.1264119,50.04993,-8.646499,-36.64332
108.619268894,-90.2404399999999,-39.70254,151.3403,-0.7663397,0.3315307,-0.05995112,50.04993,-8.646499,-36.64332
108.629266739,-90.9788400000001,-42.72951,151.4622,-0.7697564,0.3584312,-0.0336304,50.04993,-8.646499,-36.64332
108.639264584,-93.9324300000002,-41.30505,152.9865,-0.7516242,0.3816788,0.07784022,50.04993,-8.646499,-36.64332
108.649262428,-102.1779,-31.63061,152.9255,-0.6610889,0.4185951,0.3049965,48.27174,-12.86191,-38.69893
108.65926075,-111.7771,-17.92022,151.95,-0.7313091,0.4979126,0.2562838,48.27174,-12.86191,-38.69893
108.669258594,-128.0834,-6.22780099999998,149.2063,-0.764416,0.5498288,0.3190216,48.27174,-12.86191,-38.69893
108.679256439,-149.0662,5.642673,142.7434,-0.8318108,0.5553995,0.223901,48.27174,-12.86191,-38.69893
108.689253807,-170.7874,13.06172,139.2071,-0.8508795,0.4766255,0.04735994,48.27174,-12.86191,-38.69893
108.699251652,-190.2319,18.64084,140.7923,-0.7878825,0.4161633,-0.004899106,45.40202,-15.56713,-41.15752
108.709249973,-208.9996,30.92678,140.8533,-0.7391685,0.3643984,-0.03177096,45.40202,-15.56713,-41.15752
108.719247818,-221.7985,36.50591,143.2921,-0.8683181,0.3341356,-0.2449829,45.40202,-15.56713,-41.15752
108.729245663,-241.4891,39.77029,147.1333,-0.7616019,0.2574654,-0.1982488,45.40202,-15.56713,-41.15752
108.739243984,-262.2874,49.02925,153.7181,-0.6143908,0.2567022,-0.121933,45.40202,-15.56713,-41.15752
108.749241829,-282.0395,59.0598000000002,157.6812,-0.6281123,0.2600203,-0.1544532,43.15444,-15.22054,-43.17575
108.759239674,-299.7611,64.7576300000002,160.4249,-0.8145561,0.3005345,-0.2096534,43.15444,-15.22054,-43.17575
108.769237041,-313.5445,66.9536699999999,150.9135,-1.099205,0.3288731,-0.2680293,43.15444,-15.22054,-43.17575
108.779234886,-327.0203,71.1676899999998,137.7438,-1.171133,0.240236,-0.2932456,43.15444,-15.22054,-43.17575
108.789233208,-334.5274,76.27199,129.8176,-1.064226,0.1245914,-0.3637529,43.15444,-15.22054,-43.17575
108.799231052,-336.0042,79.3583099999999,128.3543,-0.9903916,0.03246425,-0.3949654,42.72047,-12.18759,-44.03326
108.809228897,-335.5734,76.6874500000003,127.1349,-1.041262,-0.03587268,-0.4245308,42.72047,-12.18759,-44.03326
108.819226742,-333.5428,70.0993399999999,122.2572,-1.121784,-0.0826176,-0.4731931,42.72047,-12.18759,-44.03326
108.829225063,-328.0664,58.46628,114.1481,-1.201092,-0.1426695,-0.5448258,42.72047,-12.18759,-44.03326
108.839222908,-323.2668,44.99329,105.8561,-1.170665,-0.2304298,-0.48312,42.72047,-12.18759,-44.03326
108.849220753,-315.8828,34.60663,98.1737499999998,-1.12911,-0.261351,-0.3941693,44.42502,-4.239099,-42.8361
108.859218121,-307.8219,26.17859,85.8576599999997,-1.160625,-0.2666075,-0.2634617,44.42502,-4.239099,-42.8361
108.869216442,-301.484,20.48076,72.9318599999999,-1.164361,-0.2732423,-0.1840099,44.42502,-4.239099,-42.8361
108.879214287,-294.1616,10.92503,59.5792600000002,-1.212845,-0.2871636,-0.219815,44.42502,-4.239099,-42.8361
108.889212131,-290.6542,-2.785364,46.59249,-1.16101,-0.3488523,-0.2227609,44.42502,-4.239099,-42.8361
108.899209976,-290.1004,-15.48677,39.15405,-1.019191,-0.452589,-0.182781,46.44473,3.401856,-40.79642
108.909208298,-289.3004,-24.56768,34.82513,-0.9266074,-0.5297359,-0.157558,46.44473,3.401856,-40.79642
108.919206142,-290.1619,-29.37523,29.70359,-0.8451249,-0.6123904,-0.1260928,46.44473,3.401856,-40.79642
108.929203987,-290.4081,-32.75831,24.64301,-0.7797052,-0.6172914,-0.05968351,46.44473,3.401856,-40.79642
108.939201355,-290.285,-36.14139,17.50943,-0.784779,-0.6316321,-0.02282061,46.44473,3.401856,-40.79642
108.9491992,-286.9006,-40.23671,7.99799599999998,-0.79813,-0.6452557,0.05712838,46.27507,11.03294,-37.99897
108.959197521,-277.9783,-44.51008,-3.403537,-0.776624,-0.6992289,0.1130982,46.27507,11.03294,-37.99897
108.969195366,-264.0718,-41.77987,-13.76857,-0.7238086,-0.7078858,0.1680446,46.27507,11.03294,-37.99897
108.979193211,-248.3808,-37.20974,-21.45088,-0.6804329,-0.7078472,0.1847191,46.27507,11.03294,-37.99897
108.989191532,-233.859,-32.93637,-30.35261,-0.6552554,-0.6733514,0.1827521,46.27507,11.03294,-37.99897
108.999189377,-225.4289,-29.01911,-39.31532,-0.5811915,-0.6455104,0.2505736,45.39441,19.73982,-34.82536
109.009187222,-222.8445,-24.44898,-46.81472,-0.4657721,-0.6401599,0.3202431,45.39441,19.73982,-34.82536
109.019185066,-221.3062,-21.89683,-54.19218,-0.3897329,-0.6401671,0.3674896,45.39441,19.73982,-34.82536
109.029182434,-217.3681,-18.75115,-62.6671099999998,-0.3162104,-0.688648,0.3802954,45.39441,19.73982,-34.82536
109.039180756,-209.2457,-15.84289,-71.7517499999999,-0.2492555,-0.7253382,0.3682238,45.39441,19.73982,-34.82536
109.0491786,-195.4007,-11.86628,-83.70203,-0.2389136,-0.7572806,0.3600782,43.32825,28.13117,-30.43336
109.059176445,-178.356,-6.88067700000001,-95.6522999999999,-0.3011016,-0.7673308,0.3520533,43.32825,28.13117,-30.43336
109.06917429,-161.5574,-2.073135,-105.5296,-0.3476122,-0.7555583,0.3583529,43.32825,28.13117,-30.43336
109.079172611,-148.8201,2.496997,-113.6387,-0.3386929,-0.7373452,0.3645541,43.32825,28.13117,-30.43336
109.089170456,-139.467,7.12648200000003,-120.8942,-0.3288886,-0.7406057,0.358795,41.25504,36.53615,-24.42885
109.099168301,-132.2061,11.04374,-127.479,-0.3158999,-0.7579877,0.3429838,41.25504,36.53615,-24.42885
109.109165669,-126.1143,14.01136,-132.9054,-0.3007441,-0.786994,0.3266933,41.25504,36.53615,-24.42885
109.11916399,-118.6073,16.74156,-138.6977,-0.3075352,-0.8149716,0.3109193,41.25504,36.53615,-24.42885
109.129161835,-110.1157,20.36206,-145.0996,-0.2842802,-0.8604888,0.2783473,41.25504,36.53615,-24.42885
109.139159679,-101.2549,23.9232,-148.453,-0.2380793,-0.9070185,0.2979004,36.22004,43.32727,-19.21214
109.149157524,-95.40923,28.84945,-152.1722,-0.2567827,-0.9500685,0.2539151,36.22004,43.32727,-19.21214
109.159155846,-87.8406399999999,31.75772,-153.9404,-0.3185394,-1.008516,0.2664807,36.22004,43.32727,-19.21214
109.16915369,-79.59518,32.23254,-155.0378,-0.3833253,-1.06187,0.2579931,36.22004,43.32727,-19.21214
109.179151535,-72.0266000000001,32.35124,-155.7085,-0.4308785,-1.072502,0.2609501,36.22004,43.32727,-19.21214
109.189149857,-62.6120099999997,35.43756,-157.7205,-0.4676355,-1.140193,0.2184384,31.96833,48.65891,-14.82059
109.199146748,-51.41297,36.50591,-158.6351,-0.5337289,-1.201878,0.2051693,31.96833,48.65891,-14.82059
109.209145069,-39.78319,35.85303,-160.2813,-0.5474189,-1.250401,0.2425347,31.96833,48.65891,-14.82059
