Time (s),Gyroscope X (deg/s),Gyroscope Y (deg/s),Gyroscope Z (deg/s),Accelerometer X (g),Accelerometer Y (g),Accelerometer Z (g),Magnetometer X (uT),Magnetometer Y (uT),Magnetometer Z (uT),Barometer (hPa)
0.000000000,-7.416706,-1.242202,-6.147221,0.936048,-0.2737646,0.2114611,-29.29888,-2.128369,-35.78531,956.6442
0.027487278,-8.401237,-3.260183,-6.513045,0.9394746,-0.2747127,0.2066696,-29.2986,-2.128914,-35.84981,956.6442
0.032485485,-8.339704,-3.675649,-6.634986,0.9394738,-0.274739,0.2037982,-29.2986,-2.128914,-35.84981,956.6459
0.042480469,-7.601305,-4.20982,-7.061782,0.9389959,-0.2752301,0.2042777,-29.2986,-2.128914,-35.84981,956.6459
0.052475929,-6.73984,-4.862697,-7.488577,0.9443342,-0.2742053,0.1985252,-29.2986,-2.128914,-35.84981,956.6459
0.062471390,-6.247574,-5.218811,-7.854402,0.9486531,-0.2707579,0.1942096,-29.2986,-2.128914,-35.84981,956.6459
0.072466373,-6.432174,-5.396868,-8.403138,0.9476255,-0.2678187,0.1989964,-29.2986,-2.128914,-35.84981,956.6436
0.082461834,-6.73984,-5.634277,-9.012846,0.9480405,-0.2638966,0.2018661,-29.2986,-2.128914,-35.84981,956.6436
0.092457294,-7.047506,-5.931039,-9.744495,0.9465708,-0.2634178,0.2042615,-29.2986,-2.128914,-35.84981,956.6436
0.102452278,-7.355172,-6.168448,-10.23226,0.9504489,-0.2623825,0.2028187,-29.2986,-2.128914,-35.84981,956.6436
0.112447739,-7.478239,-6.46521,-10.65906,0.945263,-0.2717529,0.1990016,-29.2986,-2.128914,-35.84981,956.6497
0.122443199,-7.785905,-6.761972,-10.781,0.9440431,-0.2586347,0.2013932,-29.6682,-2.445965,-35.5284,956.6497
0.132438660,-8.155105,-7.118086,-10.84197,0.950404,-0.2599317,0.205211,-29.6682,-2.445965,-35.5284,956.6497
0.142433643,-8.708903,-7.177439,-10.84197,0.9533349,-0.260386,0.2023346,-29.6682,-2.445965,-35.5284,956.6497
0.152429104,-9.385769,-7.118086,-10.781,0.9602255,-0.2641988,0.1956235,-29.6682,-2.445965,-35.5284,956.65
0.162424564,-9.939568,-7.355496,-10.59809,0.9683689,-0.2567664,0.1936931,-29.6682,-2.445965,-35.5284,956.65
0.172419548,-10.7395,-7.592906,-10.3542,0.9653471,-0.2514413,0.1980042,-30.03649,-2.82641,-35.20665,956.65
0.182415009,-11.90863,-7.830315,-10.3542,0.9712107,-0.2522973,0.1979941,-30.03649,-2.82641,-35.20665,956.65
0.192410469,-12.52396,-7.949019,-10.17129,0.9721853,-0.2522649,0.1994282,-30.03649,-2.82641,-35.20665,956.6556
0.202405453,-12.89316,-8.008372,-9.988379,0.9790236,-0.2530841,0.2013308,-30.03649,-2.82641,-35.20665,956.6556
0.212400913,-13.20083,-8.067724,-10.04935,0.9862831,-0.2505592,0.1960531,-30.04604,-2.442785,-34.82168,956.6556
0.222396374,-13.26236,-8.245782,-10.04935,0.9883502,-0.2568312,0.1965297,-30.04604,-2.442785,-34.82168,956.6556
0.232391834,-13.3239,-8.127077,-10.41517,0.9848406,-0.2515421,0.1979702,-30.04604,-2.442785,-34.82168,956.6559
0.242386818,-13.44696,-8.245782,-10.53712,0.991262,-0.2563448,0.190303,-30.04604,-2.442785,-34.82168,956.6559
0.252382279,-13.07776,-8.008372,-10.53712,0.9873852,-0.2573362,0.1965315,-30.04604,-2.442785,-34.82168,956.6559
0.262378216,-13.01623,-7.830315,-10.47614,0.9893335,-0.2573021,0.1960495,-30.04576,-2.44333,-34.88618,956.6559
0.272373676,-12.70856,-7.414848,-10.3542,0.982091,-0.260838,0.1970202,-30.04576,-2.44333,-34.88618,956.6603
0.282368660,-12.09323,-7.236791,-10.11032,0.9806652,-0.2628407,0.1936732,-30.04576,-2.44333,-34.88618,956.6603
0.292364121,-11.60097,-7.058734,-9.927407,0.975216,-0.2580802,0.1946386,-30.04576,-2.44333,-34.88618,956.6603
0.302359581,-11.60097,-6.880677,-9.744495,0.973642,-0.2523808,0.1836327,-30.04576,-2.44333,-34.88618,956.6603
0.312354565,-11.72403,-6.70262,-9.683525,0.9703162,-0.256763,0.1898611,-30.4383,-1.742286,-34.11867,956.662
0.322350025,-12.09323,-6.524563,-9.622554,0.9741371,-0.2528921,0.1798033,-30.4383,-1.742286,-34.11867,956.662
0.332345486,-11.78556,-6.109096,-9.134788,0.9723721,-0.2626151,0.1831589,-30.4383,-1.742286,-34.11867,956.662
0.342340946,-11.90863,-5.990392,-8.951876,0.9762217,-0.260162,0.1774087,-30.4383,-1.742286,-34.11867,956.662
0.352335930,-11.97016,-5.931039,-8.890904,0.9814687,-0.2542796,0.1716551,-30.4383,-1.742286,-34.11867,956.6646
0.362331390,-11.6625,-5.990392,-8.647021,0.9844849,-0.2590092,0.1793083,-30.8079,-2.059337,-33.79726,956.6646
0.372326851,-11.6625,-5.634277,-8.707993,0.9839337,-0.255623,0.1788298,-30.8079,-2.059337,-33.79726,956.6646
0.382321835,-11.97016,-5.634277,-8.829934,0.9888124,-0.2560608,0.1735571,-30.8079,-2.059337,-33.79726,956.6646
0.392317295,-12.4009,-5.45622,-8.768963,0.9892787,-0.2551586,0.1649417,-30.8079,-2.059337,-33.79726,956.6663
0.402312756,-13.07776,-5.752982,-8.829934,0.996596,-0.2554517,0.1701933,-30.8079,-2.059337,-33.79726,956.6663
0.412307739,-13.20083,-5.45622,-8.890904,0.9972726,-0.265709,0.1630161,-30.8079,-2.059337,-33.79726,956.6663
0.422303200,-12.9547,-5.278163,-9.012846,0.999166,-0.2627691,0.1615763,-30.8079,-2.059337,-33.79726,956.6663
0.432298660,-12.83163,-5.159458,-9.073817,0.9861133,-0.268403,0.1582505,-30.8079,-2.059337,-33.79726,956.6666
0.442294598,-12.2163,-5.278163,-8.829934,0.9827117,-0.2689869,0.1549066,-30.8079,-2.059337,-33.79726,956.6666
0.452290058,-11.90863,-5.396868,-8.768963,0.989072,-0.2703059,0.1563315,-30.8079,-2.059337,-33.79726,956.6666
0.462285042,-11.78556,-5.574925,-8.829934,0.9876554,-0.2727899,0.1534632,-30.8096,-2.056068,-33.41026,956.6666
0.472280502,-11.41637,-4.981401,-8.829934,0.9862225,-0.2742409,0.1572947,-30.8096,-2.056068,-33.41026,956.6683
0.482275963,-10.9241,-4.862697,-8.707993,0.9867285,-0.2751809,0.1596869,-30.8096,-2.056068,-33.41026,956.6683
0.492270947,-10.7395,-4.803344,-8.707993,0.991103,-0.2746217,0.1582434,-30.8096,-2.056068,-33.41026,956.6683
0.502266407,-9.939568,-4.387877,-8.707993,0.9950439,-0.2770261,0.1524943,-30.8096,-2.056068,-33.41026,956.6683
0.512261868,-9.139636,-4.328525,-8.586051,0.9921846,-0.2804974,0.1510644,-31.56049,-2.058969,-33.09332,956.6686
0.522256851,-8.46277,-4.031764,-8.342168,0.9937277,-0.2848535,0.1496271,-31.56049,-2.058969,-33.09332,956.6686
0.532252312,-7.724371,-3.972411,-8.159256,0.9966244,-0.2832946,0.1544074,-31.56049,-2.058969,-33.09332,956.6686
0.542247772,-7.232106,-3.972411,-7.976343,0.9937455,-0.2858382,0.1481916,-31.56049,-2.058969,-33.09332,956.6686
0.552243233,-6.309107,-4.031764,-7.854402,1.002153,-0.2925016,0.1453072,-31.56049,-2.058969,-33.09332,956.6664
0.562238217,-5.078443,-3.735002,-7.305665,1.002605,-0.2905094,0.1496131,-31.93693,-2.058513,-32.7091,956.6664
0.572233677,-3.909311,-3.735002,-6.634986,1.01051,-0.2961231,0.1563008,-31.93693,-2.058513,-32.7091,956.6664
0.582229138,-2.494047,-3.20083,-6.08625,1.005575,-0.2928234,0.15583,-31.93693,-2.058513,-32.7091,956.6664
0.592224121,-1.078783,-2.963421,-5.232659,1.006532,-0.2917932,0.1601352,-31.93693,-2.058513,-32.7091,956.6683
0.602219582,-0.3403839,-2.369897,-4.50101,0.9985659,-0.2827001,0.1620611,-31.93693,-2.058513,-32.7091,956.6683
0.612215519,-0.094251,-2.073135,-3.769361,0.9979777,-0.2773883,0.1596679,-31.56705,-1.742006,-33.09501,956.6683
0.622210979,-0.7711166,-1.895078,-2.8548,0.9948361,-0.2657878,0.1596704,-31.56705,-1.742006,-33.09501,956.6683
0.632206440,-2.124848,-1.776374,-1.940238,0.9971247,-0.2579982,0.1563143,-31.56705,-1.742006,-33.09501,956.6677
0.642201424,-3.355512,-1.479612,-0.7208229,0.9877682,-0.2528684,0.1529793,-31.56705,-1.742006,-33.09501,956.6677
0.652196884,-4.893843,-1.420259,0.01082622,0.9935951,-0.2517902,0.1520117,-31.56705,-1.742006,-33.09501,956.6677
0.662192345,-5.878375,-1.479612,0.8034461,0.9920853,-0.2494781,0.1424422,-31.92906,-2.438869,-32.70707,956.6677
0.672187328,-6.493707,-0.9454404,1.1083,0.9905883,-0.2475375,0.1453158,-31.92906,-2.438869,-32.70707,956.6711
0.682182789,-6.985973,-0.8267356,1.657037,0.9889979,-0.2408053,0.1410096,-31.92906,-2.438869,-32.70707,956.6711
0.692178249,-7.908971,-1.123497,1.718008,0.9796866,-0.2381262,0.1352823,-31.92906,-2.438869,-32.70707,956.6711
0.702173233,-8.708903,-1.123497,1.535095,0.9778302,-0.242996,0.1381582,-31.92906,-2.438869,-32.70707,956.6711
0.712168693,-8.46277,-1.360907,1.413154,0.9736091,-0.2518658,0.1338607,-31.56218,-2.055701,-32.70631,956.6705
0.722164154,-7.170573,-1.895078,0.9863584,0.9683952,-0.2598009,0.1276503,-31.56218,-2.055701,-32.70631,956.6705
0.732159138,-4.46311,-1.776374,0.4985923,0.9716191,-0.2757645,0.128606,-31.56218,-2.055701,-32.70631,956.6705
0.742155552,-0.7711166,-2.013783,0.1937385,0.9770481,-0.279615,0.1209403,-31.56218,-2.055701,-32.70631,956.6705
0.752150536,2.551678,-2.19184,0.01082622,0.9821786,-0.2673519,0.1223639,-31.56218,-2.055701,-32.70631,956.6719
0.762145996,4.582274,-1.835726,-0.2940276,0.9837706,-0.2483863,0.1204419,-31.56846,-1.739282,-32.77251,956.6719
0.772141457,5.382206,-1.717021,-0.5379106,0.9874753,-0.2381258,0.1185185,-31.56846,-1.739282,-32.77251,956.6719
0.782136440,5.320673,-1.657669,-0.5379106,0.9873382,-0.2308482,0.1175597,-31.56846,-1.739282,-32.77251,956.6719
0.792131901,4.459208,-1.835726,-0.2940276,0.9892045,-0.2264379,0.1175554,-31.56846,-1.739282,-32.77251,956.6689
0.802127361,3.290077,-1.776374,-0.4159691,0.9950849,-0.2283093,0.1127598,-31.56846,-1.739282,-32.77251,956.6689
0.812122345,2.490145,-1.95443,-0.2330568,0.9896822,-0.2259513,0.1165972,-32.31308,-2.058601,-32.38937,956.6689
0.822117805,1.690213,-1.95443,0.01082622,0.9906477,-0.2254331,0.1180311,-32.31308,-2.058601,-32.38937,956.6689
0.832113266,0.2749484,-2.251192,0.6205339,0.9875705,-0.2172153,0.1199487,-32.31308,-2.058601,-32.38937,956.6717
0.842108726,-1.694115,-2.726011,0.8644169,0.9908971,-0.2128112,0.1161132,-32.31308,-2.058601,-32.38937,956.6717
0.852103710,-4.093911,-3.082125,1.291212,0.9894151,-0.2119432,0.1079797,-32.32133,-1.738369,-32.00407,956.6717
0.862099171,-6.616774,-3.378887,1.839949,0.9907857,-0.2070435,0.1094118,-32.32133,-1.738369,-32.00407,956.6717
0.872095108,-9.385769,-3.853706,2.571598,0.9902774,-0.2061694,0.09984095,-32.32133,-1.738369,-32.00407,956.6762
0.882090569,-11.97016,-4.328525,3.059364,0.9871448,-0.195059,0.09936497,-32.32133,-1.738369,-32.00407,956.6762
0.892085552,-15.41603,-4.922049,3.608101,0.9914722,-0.1921149,0.09313519,-32.32133,-1.738369,-32.00407,956.6762
0.902081013,-18.43115,-5.278163,4.156838,0.9804682,-0.2030669,0.08837142,-31.94489,-1.738826,-32.38828,956.6762
0.912076473,-20.40022,-6.168448,4.583633,0.9795475,-0.2060358,0.08454518,-31.94489,-1.738826,-32.38828,956.6733
0.922071457,-22.00008,-6.761972,5.010429,0.9849395,-0.2079564,0.07544333,-31.94489,-1.738826,-32.38828,956.6733
0.932066917,-23.47688,-7.533553,5.498195,0.9780822,-0.2061876,0.07114764,-31.94489,-1.738826,-32.38828,956.6733
0.942062378,-25.44594,-8.542543,5.864019,0.9707273,-0.2039865,0.06206696,-31.94489,-1.738826,-32.38828,956.6733
0.952057838,-26.98427,-9.788943,5.498195,0.9654111,-0.2066353,0.04963392,-31.56529,-2.049708,-31.99681,956.6737
0.962052822,-27.72267,-10.91664,5.0714,0.9645806,-0.214497,0.04198018,-31.56529,-2.049708,-31.99681,956.6737
0.972048283,-27.35347,-12.16304,4.888487,0.9657421,-0.2248148,0.02714495,-31.56529,-2.049708,-31.99681,956.6737
0.982044220,-26.18434,-13.35009,4.034896,0.9595693,-0.2338285,0.01136502,-31.56529,-2.049708,-31.99681,956.6737
0.992039680,-24.64601,-14.35908,3.242276,0.9639989,-0.2361706,0.01135791,-31.56529,-2.049708,-31.99681,956.6708
1.002034664,-22.92308,-15.42742,2.510627,0.9675236,-0.2425323,-0.001089578,-32.72135,-0.5968456,-31.62593,956.6708
1.012030125,-19.78489,-16.73317,1.596066,0.9691577,-0.2517504,-0.003004357,-32.72135,-0.5968456,-31.62593,956.6708
1.022025585,-16.46209,-17.80151,0.6205339,0.978007,-0.255971,-0.005411577,-32.72135,-0.5968456,-31.62593,956.6708
1.032021046,-13.57003,-18.8105,-0.1720861,0.9896728,-0.2542037,0.003182,-32.72135,-0.5968456,-31.62593,956.6712
1.042016029,-10.80103,-19.76014,-0.7208229,0.9911456,-0.254586,0.01131532,-32.72135,-0.5968456,-31.62593,956.6712
1.052011490,-8.46277,-20.70978,-1.452472,0.9833326,-0.2538036,0.007500134,-32.74385,0.1769414,-30.08198,956.6712
1.062006950,-6.062974,-21.42201,-2.549946,0.9865621,-0.2439508,0.01514918,-32.74385,0.1769414,-30.08198,956.6712
1.072001934,-4.278511,-22.07488,-3.586449,0.9825385,-0.2371964,0.01850449,-32.74385,0.1769414,-30.08198,956.6717
1.081997395,-3.170913,-22.90582,-4.135185,0.9834776,-0.2351902,0.0232881,-32.74385,0.1769414,-30.08198,956.6717
1.091993332,-3.170913,-23.85546,-4.440039,0.976272,-0.240656,0.02569495,-32.74385,0.1769414,-30.08198,956.6717
1.101988792,-3.663178,-24.56768,-4.744893,0.9807839,-0.2473656,0.02616739,-32.76126,0.9409218,-29.69903,956.6717
1.111983776,-3.847778,-25.51732,-4.988776,0.9872349,-0.2535554,0.02615773,-32.76126,0.9409218,-29.69903,956.6698
1.121979237,-2.92478,-26.34826,-5.3546,0.9786298,-0.2625162,0.02138928,-32.76126,0.9409218,-29.69903,956.6698
1.131974697,-1.140316,-26.58566,-5.964308,0.9919394,-0.2704354,0.02998249,-32.76126,0.9409218,-29.69903,956.6698
1.141970158,1.628679,-26.88243,-6.634986,0.9949522,-0.2752659,0.02662845,-32.76126,0.9409218,-29.69903,956.6698
1.151965141,4.828408,-26.88243,-6.93984,0.9984186,-0.2780561,0.03284461,-33.49671,0.1778545,-29.31354,956.672
1.161960602,7.35127,-26.52631,-7.610519,1.006564,-0.2705446,0.03952854,-33.49671,0.1778545,-29.31354,956.672
1.171956062,9.197267,-26.34826,-7.549548,1.00402,-0.2647592,0.04001006,-33.49671,0.1778545,-29.31354,956.672
1.181951046,9.751066,-26.05149,-7.061782,1.005538,-0.2675835,0.04670821,-33.49671,0.1778545,-29.31354,956.672
1.191946983,9.997199,-25.93279,-6.513045,1.004113,-0.2695641,0.04575405,-33.49671,0.1778545,-29.31354,956.6698
1.201942444,10.3664,-25.87344,-5.598484,1.003689,-0.2729872,0.04431994,-34.25127,0.1820354,-28.15809,956.6698
1.211937904,10.7356,-25.81408,-5.171688,1.007642,-0.2757853,0.04862096,-34.25127,0.1820354,-28.15809,956.6698
1.221933365,11.04326,-25.75473,-4.379068,1.011104,-0.2786984,0.04143703,-34.25127,0.1820354,-28.15809,956.6698
1.231928349,12.39699,-25.33926,-3.830332,1.014163,-0.2859534,0.03856211,-34.25127,0.1820354,-28.15809,956.6737
1.241923809,13.87379,-24.80509,-3.159653,1.019531,-0.2862938,0.04286002,-34.25127,0.1820354,-28.15809,956.6737
1.251919270,15.04292,-24.09286,-2.367033,1.031247,-0.2868149,0.06676854,-34.996,-0.1979523,-27.45212,956.6737
1.261914253,15.84286,-23.20258,-1.330531,1.040488,-0.2855507,0.07871651,-34.996,-0.1979523,-27.45212,956.6737
1.271909714,16.76585,-21.89683,-0.05014454,1.049854,-0.2911312,0.08588026,-34.996,-0.1979523,-27.45212,956.6719
1.281905651,18.91952,-20.47237,0.8034461,1.041119,-0.2925774,0.105996,-34.996,-0.1979523,-27.45212,956.6719
1.291901112,21.01165,-18.75115,2.022861,1.057174,-0.2905787,0.1303749,-34.996,-0.1979523,-27.45212,956.6719
1.301896095,23.22684,-15.66483,3.059364,1.068917,-0.2925483,0.1552409,-35.73145,-0.96102,-27.06663,956.6719
1.311891556,25.38051,-11.45081,3.364218,1.077948,-0.2793362,0.1987722,-35.73145,-0.96102,-27.06663,956.67
1.321887016,26.73424,-6.70262,3.059364,1.065199,-0.2488465,0.2126653,-35.73145,-0.96102,-27.06663,956.67
1.331882477,24.45751,-3.735002,2.388686,1.050942,-0.2168026,0.1873173,-35.73145,-0.96102,-27.06663,956.67
1.341877461,19.16565,-0.9454404,2.75451,1.041848,-0.2001805,0.1648359,-35.73145,-0.96102,-27.06663,956.67
1.351872921,12.88926,1.666064,3.425189,1.035535,-0.2020131,0.1375685,-36.10003,-1.34092,-26.68037,956.6678
1.361868382,7.412803,3.921454,4.217809,1.033345,-0.2159829,0.1026399,-36.10003,-1.34092,-26.68037,956.6678
1.371863365,3.966942,5.642673,4.522663,1.034564,-0.229881,0.06818382,-36.10003,-1.34092,-26.68037,956.6678
1.381859303,3.35161,7.541948,4.27878,1.025559,-0.2438407,0.04906007,-36.10003,-1.34092,-26.68037,956.6678
1.391854763,3.966942,9.322519,4.33975,1.016426,-0.251013,0.02849907,-36.10003,-1.34092,-26.68037,956.6717
1.401850224,4.090009,10.39086,4.33975,1.010325,-0.2375315,0.02802766,-36.1062,-0.9638329,-27.06941,956.6717
1.414344311,1.813279,12.11208,4.156838,1.004224,-0.2240413,0.0285134,-36.1062,-0.9638329,-27.06941,956.6717
1.421840668,-1.078783,13.00237,4.156838,1.002561,-0.213423,0.02420638,-36.1062,-0.9638329,-27.06941,956.6717
1.431836128,-5.078443,13.65524,4.034896,0.992437,-0.2195771,0.01082548,-36.1062,-0.9638329,-27.06941,956.6698
1.441831589,-9.324236,14.07071,4.156838,0.9940037,-0.225509,-0.003533003,-36.1062,-0.9638329,-27.06941,956.6698
1.454326153,-13.63156,13.952,4.156838,0.9989709,-0.2308879,-0.01789756,-36.85399,-0.9727263,-27.46197,956.6698
1.461822033,-14.43149,14.01136,3.973926,0.9919287,-0.2451237,-0.01836019,-36.85399,-0.9727263,-27.46197,956.6698
1.474316597,-14.18536,13.952,3.608101,0.9926297,-0.2569303,-0.03558712,-36.85399,-0.9727263,-27.46197,956.6728
1.481813431,-13.1393,13.65524,3.303247,0.995129,-0.260287,-0.03606918,-36.85399,-0.9727263,-27.46197,956.6728
1.494307518,-10.49337,13.29913,2.998394,0.9956517,-0.2622467,-0.03894105,-35.73593,-0.5872021,-27.84265,956.6728
1.504302502,-8.155105,12.46819,2.815481,0.9935551,-0.2545832,-0.04659658,-35.73593,-0.5872021,-27.84265,956.6728
1.514297962,-5.878375,11.63726,2.327715,0.9911024,-0.2536247,-0.04276394,-35.73593,-0.5872021,-27.84265,956.6686
1.524293423,-3.909311,10.62827,2.144803,0.9885023,-0.2449423,-0.04419737,-35.73593,-0.5872021,-27.84265,956.6686
1.534289360,-2.55558,9.559929,1.96189,0.986832,-0.2337679,-0.04084731,-35.73593,-0.5872021,-27.84265,956.6686
1.544284344,-1.509515,8.432234,1.718008,0.9858593,-0.2337389,-0.03558128,-35.36119,-0.5843897,-27.83987,956.6686
1.554279804,-1.324916,7.126482,1.413154,0.9852802,-0.2289172,-0.03845297,-35.36119,-0.5843897,-27.83987,956.6698
1.564275265,-1.386449,5.880082,1.1083,0.9804184,-0.2294949,-0.03796577,-35.36119,-0.5843897,-27.83987,956.6698
1.574270249,-1.817181,4.752387,1.047329,0.9789661,-0.2300138,-0.03844168,-35.36119,-0.5843897,-27.83987,956.6698
1.584265709,-2.370981,3.446635,1.1083,0.9845185,-0.2400256,-0.02935584,-35.36119,-0.5843897,-27.83987,956.6698
1.594261170,-2.309447,2.55635,1.047329,0.9831035,-0.2424613,-0.02695986,-35.7438,-0.2068462,-27.84468,956.6697
1.604256630,-1.940248,1.488007,1.230241,0.9876423,-0.2506414,-0.02792282,-35.7438,-0.2068462,-27.84468,956.6697
1.614252567,-1.324916,0.6570736,1.291212,0.9877586,-0.2570266,-0.0355786,-35.7438,-0.2068462,-27.84468,956.6697
1.624247551,-0.2788507,0.1229023,0.9253877,0.9882472,-0.2569731,-0.0307937,-35.7438,-0.2068462,-27.84468,956.6697
1.634243011,0.8902807,-0.4706214,0.6205339,0.9837797,-0.2527317,-0.03557277,-35.7438,-0.2068462,-27.84468,956.6652
1.644238472,1.25948,-1.123497,0.1327677,0.9826333,-0.2434863,-0.03174454,-35.73254,-0.5937395,-28.61666,956.6652
1.654233456,1.628679,-1.538964,-0.1720861,0.9767423,-0.241173,-0.03173487,-35.73254,-0.5937395,-28.61666,956.6652
1.664228916,1.136414,-2.251192,-0.1720861,0.985456,-0.2380677,-0.02983655,-35.73254,-0.5937395,-28.61666,956.6652
1.674224377,0.6441478,-3.022773,-0.1720861,0.979108,-0.2371423,-0.02121135,-35.73254,-0.5937395,-28.61666,956.6684
1.684219837,0.1518819,-3.319535,-0.05014454,0.9855688,-0.2437959,-0.01882802,-35.73254,-0.5937395,-28.61666,956.6684
1.694215774,-0.2788507,-3.616297,0.1327677,0.9841339,-0.2453128,-0.02217516,-35.36119,-0.5843897,-27.83987,956.6684
1.704210758,-0.6480501,-3.972411,0.1327677,0.9798352,-0.2496703,-0.0111593,-35.36119,-0.5843897,-27.83987,956.6684
1.714206219,-0.7711166,-4.150468,0.2547093,0.9890817,-0.2489841,-0.009261291,-35.36119,-0.5843897,-27.83987,956.6673
1.724201679,-1.078783,-4.328525,0.1327677,0.9836702,-0.2461315,-0.004466832,-35.36119,-0.5843897,-27.83987,956.6673
1.734196663,-1.878715,-4.506582,0.31568,0.9881087,-0.2489638,-0.004952416,-35.36119,-0.5843897,-27.83987,956.6673
1.744192123,-2.801713,-4.803344,0.3766508,0.9871618,-0.2504448,-0.00542896,-34.98644,-0.5815773,-27.83709,956.6673
1.754187584,-3.601645,-4.981401,0.4985923,0.9954812,-0.2521584,0.00173562,-34.98644,-0.5815773,-27.83709,956.6719
1.764182568,-3.417045,-5.159458,0.6205339,0.9906446,-0.2542591,-0.004955473,-34.98644,-0.5815773,-27.83709,956.6719
1.774178982,-3.109379,-5.218811,0.4985923,0.9933286,-0.2672607,0.002221837,-34.98644,-0.5815773,-27.83709,956.6719
1.784173965,-2.186381,-5.278163,0.5595631,0.9952672,-0.2667584,-0.0001745523,-34.98644,-0.5815773,-27.83709,956.6719
1.794169426,-1.078783,-5.337515,0.6205339,0.9947434,-0.2648337,-0.001131287,-35.37075,-0.2007647,-27.4549,956.6769
1.804164886,-0.2788507,-5.100106,0.4985923,0.9952133,-0.2638175,0.00269624,-35.37075,-0.2007647,-27.4549,956.6769
1.814159870,0.4595481,-5.159458,0.6205339,0.9937526,-0.2638288,0.004613094,-35.37075,-0.2007647,-27.4549,956.6769
1.824155331,0.5826145,-5.040754,0.7424754,0.9966942,-0.2647206,0.007001076,-35.37075,-0.2007647,-27.4549,956.6769
1.834150791,0.705681,-5.218811,0.9253877,0.998119,-0.2627487,0.006998084,-35.37075,-0.2007647,-27.4549,956.6758
1.844145775,0.7672142,-4.743992,0.8644169,0.9976169,-0.2616858,0.01800594,-35.74549,-0.203577,-27.45768,956.6758
1.854142189,0.7672142,-4.625287,0.6205339,1.000675,-0.268954,0.01369529,-35.74549,-0.203577,-27.45768,956.6758
1.864137173,0.5826145,-4.44723,0.7424754,0.9951509,-0.2603733,0.007481223,-35.74549,-0.203577,-27.45768,956.6758
1.874132633,-0.03271778,-4.031764,0.8034461,0.9951599,-0.2608634,0.007002758,-35.74549,-0.203577,-27.45768,956.6767
1.884128094,-0.5249836,-3.675649,1.1083,0.991668,-0.256559,0.007007737,-35.74549,-0.203577,-27.45768,956.6767
1.894123077,-1.017249,-3.497592,1.230241,0.9961708,-0.2627784,0.00795864,-35.741,-0.5773954,-26.68165,956.6767
1.904118538,-1.571049,-2.904068,1.474125,0.9892876,-0.2595085,0.008448374,-35.741,-0.5773954,-26.68165,956.6767
1.914113998,-1.694115,-2.904068,1.535095,0.9942044,-0.2618366,0.008918978,-35.741,-0.5773954,-26.68165,956.6756
1.924109936,-1.755648,-2.369897,1.657037,0.991786,-0.2628914,0.005094857,-35.741,-0.5773954,-26.68165,956.6756
1.934104919,-1.509515,-2.013783,1.535095,0.9946634,-0.260396,0.006046351,-35.741,-0.5773954,-26.68165,956.6756
1.944100380,-1.140316,-1.479612,1.718008,0.99812,-0.262718,0.01034811,-35.74718,-0.2003083,-27.07068,956.6756
1.954095840,-0.7711166,-1.360907,1.535095,1.002106,-0.2675644,0.003163766,-35.74718,-0.2003083,-27.07068,956.6789
1.964091301,-0.2173175,-0.7673832,1.535095,1.00261,-0.2685746,-0.002101189,-35.74718,-0.2003083,-27.07068,956.6789
1.974086285,0.1518819,-0.6486785,1.474125,0.9992,-0.268642,-0.002095228,-35.74718,-0.2003083,-27.07068,956.6789
1.984081745,0.6441478,-0.411269,1.535095,1.00796,-0.2679611,0.000282207,-35.37244,-0.1974959,-27.0679,956.6789
1.994077682,1.136414,-0.1738595,1.413154,1.003503,-0.2641572,0.000767573,-35.37244,-0.1974959,-27.0679,956.6778
2.004073143,1.997879,0.06354995,1.169271,1.003898,-0.2593163,-0.002105818,-35.37244,-0.1974959,-27.0679,956.6778
2.014068127,2.182479,0.3009594,1.047329,0.9990647,-0.2613073,0.003167456,-35.37244,-0.1974959,-27.0679,956.6778
2.024063587,2.059412,0.6570736,0.9863584,1.003239,-0.250057,0.002200131,-35.37244,-0.1974959,-27.0679,956.6778
2.034059048,1.690213,0.7757784,0.8034461,1.006106,-0.2470934,0.001237217,-35.75504,0.1800475,-27.07271,956.6767
2.044054508,0.8287475,1.131893,0.6815046,1.005094,-0.2452311,-0.005461562,-35.75504,0.1800475,-27.07271,956.6767
2.054049492,-0.2788507,1.369302,0.4985923,1.003981,-0.237999,-0.009290094,-35.75504,0.1800475,-27.07271,956.6767
2.064044952,-0.6480501,1.250597,0.31568,1.012247,-0.2375384,-0.02988339,-35.75504,0.1800475,-27.07271,956.6767
2.074040890,-1.447982,1.428654,0.1937385,1.020332,-0.2273099,-0.04473598,-35.75504,0.1800475,-27.07271,956.6756
2.084036350,-1.694115,1.250597,0.4376215,1.025241,-0.229875,-0.0701084,-35.38817,0.5632162,-27.07195,956.6756
2.094031334,-1.694115,0.4196641,0.5595631,1.0188,-0.2249201,-0.09881302,-35.38817,0.5632162,-27.07195,956.6756
2.104026794,-1.078783,-2.42925,0.4985923,0.9948337,-0.2207448,-0.121744,-35.38817,0.5632162,-27.07195,956.6756
2.114022255,-1.201849,-6.287153,1.1083,0.9731541,-0.2080702,-0.1236237,-35.38817,0.5632162,-27.07195,956.6731
2.124017239,-2.247914,-10.85729,1.169271,0.959929,-0.2044484,-0.1240802,-35.38817,0.5632162,-27.07195,956.6731
2.134012699,-4.032378,-15.66483,0.6205339,0.9572161,-0.215683,-0.1245511,-35.75504,0.1800475,-27.07271,956.6731
2.144008637,-3.109379,-20.23496,-0.6598521,0.9603835,-0.2544344,-0.1178466,-35.75504,0.1800475,-27.07271,956.6731
2.154004097,1.321013,-22.84646,-0.9647059,0.9896251,-0.3310853,-0.06092731,-35.75504,0.1800475,-27.07271,956.6721
2.163999558,7.966602,-20.23496,2.144803,1.052253,-0.4453335,0.06342271,-35.75504,0.1800475,-27.07271,956.6721
2.173994541,17.99652,-12.93462,6.168873,1.090202,-0.4654641,0.1710413,-35.75504,0.1800475,-27.07271,956.6721
2.183990002,25.25744,-4.565935,7.327318,1.078988,-0.3859903,0.2241624,-36.12531,-0.1965833,-26.29946,956.6721
2.193985462,23.53451,4.040159,8.729645,1.080325,-0.3526435,0.2543018,-36.12531,-0.1965833,-26.29946,956.671
2.203981400,21.93465,11.10309,8.851586,1.05211,-0.278209,0.2184386,-36.12531,-0.1965833,-26.29946,956.671
2.213976860,18.61185,13.06172,4.095867,0.9832779,-0.1708691,0.09601545,-36.12531,-0.1965833,-26.29946,956.671
2.223971844,8.951134,10.03475,-0.9647059,0.941595,-0.1067572,0.02332804,-36.12531,-0.1965833,-26.29946,956.671
2.233967304,-0.8326498,4.633682,-3.891303,0.899102,-0.07705356,-0.03738469,-37.2574,0.1753349,-26.30982,956.6742
2.243962765,-7.601305,-4.031764,-8.281198,0.8606161,-0.05384678,-0.1263387,-37.2574,0.1753349,-26.30982,956.6742
2.253957748,-14.12383,-13.76555,-12.79303,0.8745638,-0.04450062,-0.1440728,-37.2574,0.1753349,-26.30982,956.6742
2.263953209,-18.30809,-20.47237,-16.69516,0.9108093,-0.05451032,-0.147962,-37.2574,0.1753349,-26.30982,956.6742
2.273949146,-20.21562,-25.45797,-17.48778,0.9163126,-0.1150356,-0.1891135,-37.2574,0.1753349,-26.30982,956.6731
2.283944607,-25.01521,-22.31229,-5.842367,1.131036,-0.3592845,0.05656314,-36.86862,-0.5792952,-25.91599,956.6731
2.293939591,-16.15442,-7.770963,11.9611,1.235254,-0.5599962,0.2009631,-36.86862,-0.5792952,-25.91599,956.6731
2.303935051,-0.7095833,11.63726,12.87566,1.093356,-0.4759118,0.2437821,-36.86862,-0.5792952,-25.91599,956.6731
2.313930512,9.997199,25.22895,5.254312,1.117828,-0.3248688,0.2877295,-36.86862,-0.5792952,-25.91599,956.674
2.323925972,2.736278,37.33684,0.8034461,1.012035,-0.1674482,0.2481516,-36.86862,-0.5792952,-25.91599,956.674
2.333920956,-19.90795,43.33143,-7.549548,0.929784,-0.01762616,0.2300706,-37.61024,-0.9652762,-25.91952,956.674
2.343916893,-56.27409,47.12998,-16.57322,0.8935267,0.06971726,0.1884751,-37.61024,-0.9652762,-25.91952,956.674
2.353912354,-93.80936,44.81524,-21.81671,0.8672678,0.03724628,0.04256358,-37.61024,-0.9652762,-25.91952,956.673
2.363907814,-122.2377,36.62461,-20.23147,0.9059853,-0.08263233,-0.1307176,-37.61024,-0.9652762,-25.91952,956.673
2.373902798,-134.4828,29.08686,-15.84157,0.9612918,-0.2541648,-0.2494567,-37.61024,-0.9652762,-25.91952,956.673
2.383898258,-123.4068,23.98255,-11.87847,0.9916774,-0.4473386,-0.3427822,-37.23997,-0.5886455,-26.69277,956.673
2.393893719,-88.08678,19.70918,-10.65906,1.013575,-0.6030171,-0.4093024,-37.23997,-0.5886455,-26.69277,956.6702
2.403889656,-34.36826,14.66423,-12.18333,0.9872307,-0.6801857,-0.4480013,-37.23997,-0.5886455,-26.69277,956.6702
2.413885117,28.45717,7.957415,-15.71963,0.934067,-0.651576,-0.4460016,-37.23997,-0.5886455,-26.69277,956.6702
2.423880100,91.71333,1.369302,-20.23147,0.9080946,-0.5646012,-0.3909425,-37.23997,-0.5886455,-26.69277,956.6702
2.433875561,148.3239,-3.675649,-26.99922,0.9102001,-0.4406865,-0.28952,-36.52364,0.9416723,-26.30832,956.6675
2.443871021,192.997,-6.405858,-34.68154,0.9425815,-0.2935702,-0.1608773,-36.52364,0.9416723,-26.30832,956.6675
2.453866005,223.2714,-5.396868,-41.51026,0.9967065,-0.1625289,-0.03035419,-36.52364,0.9416723,-26.30832,956.6675
2.463861466,236.9317,-1.538964,-47.85122,1.045096,-0.03744092,0.09922336,-36.52364,0.9416723,-26.30832,956.6675
2.473857403,232.8706,3.209226,-50.77782,1.079757,0.06590227,0.2187803,-36.52364,0.9416723,-26.30832,956.6667
2.483852863,209.1803,8.254177,-47.97316,1.105118,0.1450795,0.3196953,-36.13596,0.5543222,-27.46452,956.6667
2.493848324,169.8605,11.81532,-42.18094,1.100931,0.1613794,0.3575059,-36.13596,0.5543222,-27.46452,956.6667
2.503843308,121.6185,12.46819,-33.94989,1.06667,0.1694933,0.3623493,-36.13596,0.5543222,-27.46452,956.6667
2.513838768,71.03816,10.03475,-25.71884,1.030986,0.1228291,0.3317946,-36.13596,0.5543222,-27.46452,956.6639
2.523834229,24.76517,6.473606,-17.85361,1.015673,0.0287213,0.2768094,-36.13596,0.5543222,-27.46452,956.6639
2.533830166,-14.55456,3.090521,-9.866437,1.019974,-0.07174072,0.2284915,-35.62656,-5.484778,-29.75164,956.6639
2.543825150,-43.29058,0.4196641,-2.184121,1.030353,-0.1848268,0.168202,-35.62656,-5.484778,-29.75164,956.6639
2.553820610,-60.39682,-1.123497,5.985961,1.046077,-0.2703138,0.1385248,-35.62656,-5.484778,-29.75164,956.6628
2.563816071,-72.9496,-0.5299737,16.16808,1.074478,-0.2774356,0.1485273,-35.62656,-5.484778,-29.75164,956.6628
2.573811531,-92.45564,3.268578,23.66748,1.076695,-0.1608307,0.1944367,-35.62656,-5.484778,-29.75164,956.6628
2.583806515,-124.9452,9.025758,24.94787,1.06931,-0.0003132285,0.22743,-35.57153,-8.147268,-29.73744,956.6628
2.593802452,-167.3416,17.39444,23.66748,1.071877,0.1492549,0.2637587,-35.57153,-8.147268,-29.73744,956.662
2.603797913,-215.4606,30.33326,21.41156,1.106078,0.3008313,0.2918961,-35.57153,-8.147268,-29.73744,956.662
2.613793373,-269.056,45.76487,16.9607,1.099288,0.5060092,0.2655334,-35.57153,-8.147268,-29.73744,956.662
2.623788357,-329.0509,58.28822,9.766149,1.071623,0.6796295,0.1813076,-34.86304,-6.236596,-29.35502,956.662
2.633783817,-393.3531,63.51123,4.400721,1.000885,0.7315379,0.006258667,-34.86304,-6.236596,-29.35502,956.6593
2.643779278,-451.9328,58.34758,4.583633,0.9287434,0.6236833,-0.2065541,-34.86304,-6.236596,-29.35502,956.6593
2.653775215,-492.2986,47.84221,5.92499,0.9111131,0.3903599,-0.3883222,-34.86304,-6.236596,-29.35502,956.6593
2.663770676,-503.7437,38.52388,7.876054,0.9559084,0.02548165,-0.5309221,-34.86304,-6.236596,-29.35502,956.6593
2.673765659,-479.3766,33.30088,10.43683,1.020857,-0.3728292,-0.6003262,-35.01681,0.572566,-26.29517,956.6599
2.683761120,-417.1665,29.26491,9.217411,1.032277,-0.7744212,-0.6471432,-35.01681,0.572566,-26.29517,956.6599
2.693756580,-317.2981,20.83688,4.156838,0.9134346,-1.168755,-0.7344139,-35.01681,0.572566,-26.29517,956.6599
2.703751564,-194.97,7.06713,2.69354,0.8087631,-1.510903,-0.725529,-35.01681,0.572566,-26.29517,956.6599
2.713747501,-54.4281,-7.830315,5.437224,0.7731567,-1.61181,-0.6833262,-35.01681,0.572566,-26.29517,956.6555
2.723742962,83.52941,-20.53172,0.9253877,0.8154893,-1.504434,-0.6705061,-34.86779,10.07972,-19.37672,956.6555
2.733738422,207.3958,-30.32486,-3.647419,0.8593441,-1.321273,-0.6103292,-34.86779,10.07972,-19.37672,956.6555
2.743733883,322.1553,-32.69896,-13.89051,0.9318209,-1.131194,-0.5463753,-34.86779,10.07972,-19.37672,956.6555
2.753728867,435.3764,-23.32128,-31.02329,0.9937932,-0.9011472,-0.499642,-34.86779,10.07972,-19.37672,956.6564
2.763724327,541.2751,-9.551534,-51.0217,1.004157,-0.6231286,-0.5155247,-34.86779,10.07972,-19.37672,956.6564
2.773720264,624.5911,0.8351307,-67.42283,1.014539,-0.2676257,-0.5074986,-34.5222,11.9647,-21.70609,956.6564
2.783715725,667.4798,8.8477,-78.03175,1.115327,0.1284617,-0.4020109,-34.5222,11.9647,-21.70609,956.6564
2.793710709,655.85,16.38545,-82.90941,1.199896,0.5856644,-0.2208958,-34.5222,11.9647,-21.70609,956.6553
2.803706169,583.4869,18.87825,-82.48261,1.173471,0.9083455,-0.003180669,-34.5222,11.9647,-21.70609,956.6553
2.813701630,465.4046,21.60846,-79.19019,1.051334,1.164033,0.2161542,-34.5222,11.9647,-21.70609,956.6553
2.823697090,319.8785,22.91421,-71.4469,0.9449884,1.200442,0.3886176,-34.29729,2.827091,-30.2363,956.6553
2.833693027,169.6759,19.29372,-56.63101,0.884807,1.111461,0.4595747,-34.29729,2.827091,-30.2363,956.6542
2.843688011,27.7803,11.16244,-43.03453,0.8990638,0.9752677,0.4677207,-34.29729,2.827091,-30.2363,956.6542
2.853683472,-100.3934,2.496997,-27.6699,0.9056051,0.8857205,0.4390178,-34.29729,2.827091,-30.2363,956.6542
2.863678932,-220.3832,-6.643268,-12.54915,0.9234627,0.8155363,0.377747,-34.29729,2.827091,-30.2363,956.6542
2.873673916,-332.1276,-12.28174,2.510627,1.003149,0.6709027,0.3312235,-34.3483,-12.28605,-32.86765,956.6517
2.883669376,-431.1346,-10.26376,23.05777,1.07305,0.4742054,0.1923652,-34.3483,-12.28605,-32.86765,956.6517
2.893665314,-507.3742,-7.296144,44.82433,1.06169,0.2693212,-0.02818579,-34.3483,-12.28605,-32.86765,956.6517
2.903660774,-551.4319,-7.652258,59.45732,0.9984525,0.07739123,-0.2079707,-34.3483,-12.28605,-32.86765,956.6517
2.913656235,-554.7548,-7.592906,62.68877,0.9890828,-0.1533163,-0.3342391,-34.3483,-12.28605,-32.86765,956.6523
2.923651218,-516.1735,-4.743992,56.53072,0.9976071,-0.4017808,-0.4217694,-34.02303,-10.36184,-30.55299,956.6523
2.933646679,-438.3954,-4.150468,45.86084,0.9441456,-0.7237666,-0.5503302,-34.02303,-10.36184,-30.55299,956.6523
2.943642139,-327.6972,-8.186429,31.53271,0.9198562,-1.067121,-0.6344289,-34.02303,-10.36184,-30.55299,956.6523
2.953638077,-185.9246,-11.2134,15.00963,0.9178857,-1.352242,-0.669288,-34.02303,-10.36184,-30.55299,956.653
2.963633060,-30.184,-12.69721,2.998394,0.926581,-1.530766,-0.7080219,-34.02303,-10.36184,-30.55299,956.653
2.973628521,116.6958,-17.5641,2.022861,0.9763252,-1.402028,-0.6602842,-33.95918,3.26583,-23.65651,956.653
2.983623981,243.7004,-18.6918,1.1083,1.022888,-1.129325,-0.5919992,-33.95918,3.26583,-23.65651,956.653
2.993619442,351.0144,-15.72418,-9.012846,0.993663,-0.8174943,-0.5446495,-33.95918,3.26583,-23.65651,956.6539
3.003615379,436.5456,-12.34109,-24.07262,0.9689999,-0.4882534,-0.4633334,-33.95918,3.26583,-23.65651,956.6539
3.013610363,489.3411,-7.889668,-37.54716,1.016235,-0.1195121,-0.3098877,-33.95918,3.26583,-23.65651,956.6539
3.023605824,495.8021,-2.19184,-45.96113,1.06552,0.2447435,-0.1200727,-34.43253,8.504992,-26.00936,956.6539
3.033601284,453.3441,3.802749,-52.11917,1.072972,0.6317917,0.1018739,-34.43253,8.504992,-26.00936,956.6544
3.043596268,369.1667,7.779358,-53.5215,1.065539,0.7720892,0.2616951,-34.43253,8.504992,-26.00936,956.6544
3.053591728,255.9455,11.39985,-51.38753,1.005118,0.9582973,0.4550973,-34.43253,8.504992,-26.00936,956.6544
3.063587666,127.8949,11.39985,-39.31532,0.9563033,0.9128114,0.5284162,-34.43253,8.504992,-26.00936,956.6544
3.073583126,6.120605,7.06713,-25.10913,0.93515,0.7154029,0.5084037,-34.20086,-1.680322,-30.9863,956.6534
3.083578587,-93.62476,0.4790165,-9.012846,0.9607779,0.4643651,0.4213229,-34.20086,-1.680322,-30.9863,956.6534
3.118562222,-272.0096,-12.93462,33.48377,1.038982,-0.04769096,0.1604944,-34.4118,-9.607213,-30.94683,956.6541
3.123560429,-276.9938,-12.75656,36.59328,1.039474,-0.1267766,0.1198349,-34.4118,-9.607213,-30.94683,956.6541
3.133555412,-271.3327,-11.56951,40.19056,1.04962,-0.2535394,0.05237066,-34.4118,-9.607213,-30.94683,956.6541
3.143550873,-247.6424,-9.907648,40.43444,1.049699,-0.362902,-0.003594717,-34.4118,-9.607213,-30.94683,956.6541
3.153546333,-210.4764,-6.94003,38.66629,1.043884,-0.4436227,-0.04998567,-34.4118,-9.607213,-30.94683,956.655
3.163541794,-164.4495,-5.396868,35.19096,1.024843,-0.4951027,-0.1116755,-34.4118,-9.607213,-30.94683,956.655
3.173537731,-112.577,-4.684639,29.15485,1.007231,-0.5180716,-0.1408321,-34.55431,-3.184945,-28.65896,956.655
3.183532715,-58.98156,-4.150468,21.71642,1.000128,-0.5295992,-0.1637884,-34.55431,-3.184945,-28.65896,956.655
3.193528175,-9.631902,-3.556944,15.25352,1.010001,-0.5104699,-0.1657248,-34.55431,-3.184945,-28.65896,956.6555
3.203523636,30.05703,-2.726011,10.98556,1.017058,-0.4452449,-0.1691039,-34.55431,-3.184945,-28.65896,956.6555
3.213518620,57.25472,-2.666659,9.156441,1.004806,-0.3631611,-0.1470892,-34.55431,-3.184945,-28.65896,956.6555
3.223514557,73.68409,-4.031764,9.034499,0.9836543,-0.3002312,-0.1279255,-33.93778,2.859324,-26.7505,956.6555
3.233510017,81.80648,-5.871687,8.607703,0.9708521,-0.2403799,-0.0915468,-33.93778,2.859324,-26.7505,956.6544
3.243505478,83.22174,-6.94003,7.815084,0.9686756,-0.1754462,-0.05375223,-33.93778,2.859324,-26.7505,956.6544
3.253500938,78.79135,-6.94003,5.620136,0.9792092,-0.1126954,-0.01645781,-33.93778,2.859324,-26.7505,956.6544
3.263495922,70.5459,-5.69363,2.571598,0.9871792,-0.06885048,0.03137461,-34.29172,2.085993,-27.91023,956.6544
3.273491859,59.65451,-4.091116,-0.1111153,0.9935727,-0.04502612,0.0720363,-34.29172,2.085993,-27.91023,956.6554
3.283487320,48.1478,-2.785364,-1.574414,1.00482,-0.04651958,0.09690303,-34.29172,2.085993,-27.91023,956.6554
3.293482781,36.64109,-1.776374,-2.123151,1.012282,-0.05384455,0.1299137,-34.29172,2.085993,-27.91023,956.6554
3.303477764,25.31897,-1.18285,-1.757326,1.015988,-0.06919426,0.1437898,-34.29172,2.085993,-27.91023,956.6554
3.313473225,15.35059,-0.6486785,-1.025677,1.017624,-0.07834657,0.1490537,-34.63949,0.9355764,-28.68093,956.652
3.323468685,6.797471,-0.1738595,0.31568,1.02036,-0.09437247,0.1442673,-34.63949,0.9355764,-28.68093,956.652
3.333464623,-0.6480501,-0.1738595,1.291212,1.025016,-0.108885,0.1413915,-34.63949,0.9355764,-28.68093,956.652
3.343460083,-7.293639,-0.4706214,2.510627,1.020299,-0.1172787,0.1370946,-34.63949,0.9355764,-28.68093,956.652
3.353455067,-13.07776,-0.7673832,3.242276,1.018223,-0.1369197,0.119396,-34.63949,0.9355764,-28.68093,956.6526
3.363450527,-17.07742,-1.420259,4.217809,1.02204,-0.1588257,0.106952,-34.25688,0.558033,-28.67612,956.6526
3.373445988,-19.53875,-1.776374,5.010429,1.016382,-0.1692607,0.09404302,-34.25688,0.558033,-28.67612,956.6526
3.383441925,-20.58482,-1.657669,5.803049,1.013169,-0.1801596,0.07825842,-34.25688,0.558033,-28.67612,956.6526
3.393436909,-20.64635,-2.19184,6.107903,1.012858,-0.1900776,0.05720416,-34.25688,0.558033,-28.67612,956.6532
3.403432369,-19.53875,-2.013783,6.351786,1.007514,-0.1912998,0.04142079,-34.25688,0.558033,-28.67612,956.6532
3.413427830,-17.01589,-1.95443,5.985961,1.002628,-0.1910771,0.02324336,-34.62376,0.1748643,-28.67687,956.6532
3.423423290,-13.75463,-1.538964,5.0714,1.004124,-0.1930483,0.01701977,-34.62376,0.1748643,-28.67687,956.6532
3.433419228,-9.693435,-1.004793,3.608101,1.005546,-0.191151,0.008881005,-34.62376,0.1748643,-28.67687,956.6525
3.443414211,-5.324575,-0.5299737,2.022861,0.9992408,-0.192751,0.006978105,-34.62376,0.1748643,-28.67687,956.6525
3.453409672,-0.6480501,-0.2925643,0.4376215,0.9996828,-0.190295,0.008891007,-34.62376,0.1748643,-28.67687,956.6525
3.463405132,3.043944,-0.2925643,-0.6598521,0.9965951,-0.1816354,0.006022703,-35.02379,1.316388,-28.29874,956.6525
3.473400116,5.812939,-0.6486785,-1.26956,0.9917633,-0.1835869,0.01560315,-35.02379,1.316388,-28.29874,956.653
3.483395577,7.720469,-1.064145,-1.574414,0.9936775,-0.1815351,0.0232565,-35.02379,1.316388,-28.29874,956.653
3.493391514,8.951134,-1.301555,-1.696355,0.998259,-0.1658199,0.03138026,-35.02379,1.316388,-28.29874,956.653
3.503386974,8.828068,-1.242202,-2.367033,1.004944,-0.1583109,0.04093819,-35.02379,1.316388,-28.29874,956.653
3.513382435,7.35127,-0.8267356,-3.098683,1.001356,-0.1485577,0.05242776,-34.27261,1.318745,-28.68018,956.6554
3.523377419,5.44374,-0.7673832,-3.70839,1.007753,-0.151811,0.05481033,-34.27261,1.318745,-28.68018,956.6554
3.533372879,2.920877,-0.6486785,-3.952273,1.005364,-0.1542484,0.05912231,-34.27261,1.318745,-28.68018,956.6554
3.543368817,0.09034869,-0.5299737,-3.830332,1.007358,-0.1566432,0.05864087,-34.27261,1.318745,-28.68018,956.6554
3.553364277,-2.74018,-0.6486785,-3.525478,1.010886,-0.1628951,0.05815776,-34.27261,1.318745,-28.68018,956.6559
3.563359738,-5.01691,-0.7673832,-3.586449,1.012106,-0.1760089,0.0562447,-35.02995,1.693475,-28.68777,956.6559
3.573354721,-6.062974,-0.9454404,-3.464507,1.011781,-0.18485,0.04667602,-35.02995,1.693475,-28.68777,956.6559
3.583350182,-5.939908,-1.123497,-3.525478,1.011373,-0.1893061,0.03854209,-35.02995,1.693475,-28.68777,956.6559
3.593346119,-5.139976,-1.123497,-3.586449,1.015415,-0.1970189,0.03662273,-35.02995,1.693475,-28.68777,956.6569
3.603341580,-3.540112,-1.538964,-3.403537,1.017444,-0.2013961,0.03183455,-35.02995,1.693475,-28.68777,956.6569
3.613336563,-1.694115,-1.123497,-3.70839,1.011683,-0.205844,0.03615293,-34.65073,1.32247,-27.90895,956.6569
3.623332024,0.3364816,-1.242202,-3.70839,1.012665,-0.2063456,0.03232273,-34.65073,1.32247,-27.90895,956.6569
3.633327484,2.244012,-1.064145,-3.525478,1.007667,-0.1996192,0.0347226,-34.65073,1.32247,-27.90895,956.6558
3.643323421,2.982411,-0.9454404,-3.464507,1.008973,-0.1913456,0.03328246,-34.65073,1.32247,-27.90895,956.6558
3.653318882,2.120945,-0.7673832,-3.281595,1.009197,-0.1771699,0.04189279,-34.65073,1.32247,-27.90895,956.6558
3.663313866,-0.3403839,-0.411269,-3.037712,1.003207,-0.1695,0.04333699,-34.63501,0.561758,-27.90489,956.6558
3.673309326,-2.92478,-0.2925643,-2.732858,1.003253,-0.1719069,0.0457304,-34.63501,0.561758,-27.90489,956.6547
3.683304787,-5.078443,-0.1145072,-2.367033,1.006469,-0.187332,0.05242883,-34.63501,0.561758,-27.90489,956.6547
3.693300724,-6.186041,0.1229023,-2.184121,1.009553,-0.1961146,0.04189705,-34.63501,0.561758,-27.90489,956.6547
3.703295708,-6.062974,0.06354995,-2.06218,1.01209,-0.2013791,0.04524402,-34.63501,0.561758,-27.90489,956.6547
3.713291168,-4.340044,0.1822547,-1.879267,1.01911,-0.2119574,0.04236304,-34.62885,0.1846709,-27.51587,956.6556
3.723286629,-2.186381,-0.05515479,-1.635384,1.016314,-0.2188466,0.03901966,-34.62885,0.1846709,-27.51587,956.6556
3.733282089,0.09034869,-0.1738595,-0.8427644,1.02306,-0.2148213,0.03948544,-34.62885,0.1846709,-27.51587,956.6556
3.743278027,1.505613,-0.2332119,-0.5988814,1.024809,-0.2040742,0.04187251,-34.62885,0.1846709,-27.51587,956.6556
3.753273010,1.874812,-0.1738595,-0.4159691,1.026594,-0.1952481,0.04665288,-34.62885,0.1846709,-27.51587,956.6563
3.763268471,1.628679,-0.1738595,-0.3549984,1.022654,-0.1928392,0.05288061,-34.25858,0.5613012,-28.28912,956.6563
3.773263931,1.321013,-0.1145072,-0.05014454,1.017799,-0.193964,0.04666788,-34.25858,0.5613012,-28.28912,956.6563
3.783258915,0.8902807,0.004197581,0.5595631,1.013487,-0.1979586,0.04428354,-34.25858,0.5613012,-28.28912,956.6563
3.793254852,0.8287475,0.004197581,1.352183,1.012881,-0.1916841,0.04093295,-34.25858,0.5613012,-28.28912,956.6569
3.803250313,0.7672142,-0.2925643,2.144803,1.007975,-0.1897803,0.0471625,-34.25858,0.5613012,-28.28912,956.6569
3.813245773,0.5826145,-0.05515479,2.327715,1.008868,-0.185376,0.04859554,-34.65073,1.32247,-27.90895,956.6569
3.823241234,-0.3403839,0.1822547,2.388686,1.014027,-0.1745132,0.05624097,-34.65073,1.32247,-27.90895,956.6569
3.833237171,-1.324916,0.06354995,2.632569,1.008704,-0.1766147,0.05050788,-34.65073,1.32247,-27.90895,956.6561
3.843232155,-2.494047,0.06354995,2.876452,1.009289,-0.1820143,0.0433296,-34.65073,1.32247,-27.90895,956.6561
3.853227615,-2.863246,0.06354995,3.059364,1.011409,-0.1912579,0.03758538,-34.65073,1.32247,-27.90895,956.6561
3.863223076,-2.309447,0.06354995,2.998394,1.017374,-0.1974442,0.0390123,-34.26813,0.9449263,-27.90414,956.6561
3.873218060,-1.324916,0.3009594,2.69354,1.010085,-0.1985645,0.03854672,-34.26813,0.9449263,-27.90414,956.6527
3.883214474,0.3364816,0.3603118,2.327715,1.00765,-0.1985994,0.0399867,-34.26813,0.9449263,-27.90414,956.6527
3.893209457,2.428612,0.5977212,1.90092,1.014562,-0.203296,0.04284732,-34.26813,0.9449263,-27.90414,956.6527
3.903204918,4.151542,0.716426,1.413154,1.014001,-0.1994283,0.04189015,-34.27599,1.325282,-27.90617,956.6527
3.913200378,5.382206,0.9538354,0.9863584,1.012475,-0.1960875,0.03854192,-34.27599,1.325282,-27.90617,956.6533
3.923195362,6.305205,0.7757784,0.9253877,1.008946,-0.1898532,0.03711073,-34.27599,1.325282,-27.90617,956.6533
3.933191299,6.551338,0.8351307,1.1083,1.012237,-0.1834841,0.03566763,-34.27599,1.325282,-27.90617,956.6533
3.943186760,5.751406,0.8351307,1.047329,1.016311,-0.166864,0.03757055,-34.27599,1.325282,-27.90617,956.6533
3.953182220,4.151542,0.8944831,1.1083,1.012748,-0.1586296,0.0423604,-35.01592,0.9360323,-28.29671,956.6539
3.963177204,2.797811,0.6570736,0.9863584,1.010916,-0.1650532,0.03470803,-35.01592,0.9360323,-28.29671,956.6539
3.973172665,1.751746,0.8351307,0.9253877,1.010466,-0.1669795,0.03758077,-35.01592,0.9360323,-28.29671,956.6539
3.983168602,1.25948,0.6570736,0.8034461,1.012083,-0.1751954,0.03901579,-35.01592,0.9360323,-28.29671,956.6539
3.993164062,1.382547,0.3603118,0.9863584,1.008782,-0.1810963,0.03854449,-35.01592,0.9360323,-28.29671,956.6545
4.003159523,2.059412,0.4196641,1.169271,1.005554,-0.1908965,0.03663834,-34.27599,1.325282,-27.90617,956.6545
4.013154507,2.982411,0.3009594,1.352183,1.013809,-0.1892317,0.04140928,-34.27599,1.325282,-27.90617,956.6545
4.023150444,4.028476,0.1822547,1.1083,1.006347,-0.1811356,0.0395059,-34.27599,1.325282,-27.90617,956.6545
4.033145905,4.889941,0.3603118,0.8644169,1.009279,-0.1815768,0.03806517,-34.27599,1.325282,-27.90617,956.6555
4.043141365,4.766874,0.5977212,0.9253877,1.005661,-0.1704058,0.04524725,-34.27599,1.325282,-27.90617,956.6555
4.053136826,3.966942,0.3603118,0.9253877,1.003676,-0.1684969,0.04572879,-34.64905,1.319201,-28.29596,956.6555
4.063131809,2.797811,0.2416071,0.9253877,1.001311,-0.1725057,0.03759815,-34.64905,1.319201,-28.29596,956.6555
4.073127747,2.120945,0.3009594,1.047329,1.002756,-0.1714571,0.0428597,-34.64905,1.319201,-28.29596,956.6561
4.083123207,1.874812,0.4196641,0.6815046,1.008213,-0.1767341,0.03854436,-34.64905,1.319201,-28.29596,956.6561
4.093118668,1.936346,0.6570736,0.3766508,1.00824,-0.1782221,0.03519467,-34.64905,1.319201,-28.29596,956.6561
4.103113651,2.120945,0.5977212,0.2547093,1.00961,-0.173318,0.03710531,-35.01592,0.9360323,-28.29671,956.6561
4.113109112,2.367078,0.6570736,0.07179698,1.007735,-0.177247,0.03663102,-35.01592,0.9360323,-28.29671,956.655
4.123105049,2.120945,1.013188,0.07179698,1.008701,-0.1766981,0.04141496,-35.01592,0.9360323,-28.29671,956.655
4.133100510,1.813279,1.013188,0.01082622,1.009135,-0.1737388,0.04524205,-35.01592,0.9360323,-28.29671,956.655
4.143095970,1.567146,0.9538354,-0.1111153,1.005713,-0.1734082,0.0356764,-35.01592,0.9360323,-28.29671,956.655
4.153090954,1.628679,1.191245,-0.2330568,1.003331,-0.1763972,0.03280987,-35.01592,0.9360323,-28.29671,956.6533
4.163086891,1.505613,0.8351307,-0.1720861,1.006256,-0.1762912,0.03806908,-35.01592,0.9360323,-28.29671,956.6533
4.173082352,1.44408,0.4790165,-0.1111153,1.006652,-0.1714196,0.03854572,-35.01592,0.9360323,-28.29671,956.6533
4.183077812,0.9518139,0.3009594,0.01082622,1.003252,-0.1719464,0.04142323,-35.01592,0.9360323,-28.29671,956.6533
4.193072796,0.8287475,0.004197581,-0.05014454,1.005832,-0.1797055,0.03759212,-35.01592,0.9360323,-28.29671,956.6542
4.203068256,0.9518139,-0.1738595,0.2547093,1.00494,-0.1840923,0.03807338,-34.2524,0.1842146,-27.90009,956.6542
4.213064194,0.8902807,-0.3519166,0.5595631,1.007275,-0.1787139,0.0366322,-34.2524,0.1842146,-27.90009,956.6542
4.223059654,0.9518139,-0.3519166,0.5595631,1.011615,-0.1761414,0.04284546,-34.2524,0.1842146,-27.90009,956.6542
4.233055115,0.3364816,-0.6486785,0.8034461,1.010086,-0.1728753,0.03136146,-34.2524,0.1842146,-27.90009,956.6548
4.243050098,-0.4634504,-0.6486785,0.9253877,1.009547,-0.169887,0.04045457,-34.2524,0.1842146,-27.90009,956.6548
4.253046036,-1.324916,-0.8267356,1.169271,1.012497,-0.1713041,0.03853549,-34.26644,0.9416571,-28.29115,956.6548
4.263041496,-1.940248,-0.886088,1.230241,1.009648,-0.1752128,0.04237007,-34.26644,0.9416571,-28.29115,956.6548
4.273036957,-2.124848,-0.9454404,1.474125,1.014961,-0.1726737,0.04283873,-34.26644,0.9416571,-28.29115,956.6555
4.283032417,-2.494047,-1.004793,1.352183,1.015124,-0.1814613,0.03805495,-34.26644,0.9416571,-28.29115,956.6555
4.293027401,-2.863246,-0.8267356,1.596066,1.012213,-0.1819302,0.04619594,-34.26644,0.9416571,-28.29115,956.6555
4.303023338,-3.293979,-0.7080309,1.413154,1.012275,-0.1853745,0.04141096,-35.3845,0.5561333,-27.91046,956.6555
4.313018799,-3.417045,-0.6486785,1.291212,1.005778,-0.1767646,0.04046291,-35.3845,0.5561333,-27.91046,956.6561
4.323014259,-3.847778,-0.5299737,1.291212,1.007348,-0.1825868,0.0380688,-35.3845,0.5561333,-27.91046,956.6561
4.333009243,-3.909311,-0.5299737,0.9253877,1.004878,-0.1806305,0.04477267,-35.3845,0.5561333,-27.91046,956.6561
4.343005180,-3.417045,-0.1738595,0.8034461,1.003112,-0.1903974,0.04334253,-35.3845,0.5561333,-27.91046,956.6561
4.353000641,-2.801713,-0.1738595,0.3766508,1.004021,-0.1870129,0.03951146,-34.64118,0.9388447,-28.29393,956.657
4.362996101,-2.001781,0.1822547,-0.1720861,0.9997923,-0.1953531,0.03999956,-34.64118,0.9388447,-28.29393,956.657
4.372991562,-1.017249,0.4790165,-0.6598521,1.001192,-0.191858,0.04717486,-34.64118,0.9388447,-28.29393,956.657
4.382986546,-0.6480501,0.8351307,-1.025677,1.00314,-0.1918327,0.04573573,-34.64118,0.9388447,-28.29393,956.657
4.392982483,-0.5249836,1.013188,-1.513443,1.001605,-0.1880062,0.04238739,-34.64118,0.9388447,-28.29393,956.6593
4.402977944,-0.2788507,1.131893,-1.574414,1.003156,-0.1928788,0.03760018,-34.65073,1.32247,-27.90895,956.6593
4.412973404,0.09034869,1.191245,-1.696355,0.994794,-0.1886311,0.04192085,-34.65073,1.32247,-27.90895,956.6593
4.422968388,0.3364816,1.250597,-1.879267,1.001686,-0.1924044,0.03951693,-34.65073,1.32247,-27.90895,956.6593
4.432964802,0.5826145,0.8351307,-1.757326,1.004932,-0.1835801,0.04094473,-34.65073,1.32247,-27.90895,956.6599
4.442959786,0.3980148,0.8351307,-1.696355,1.007249,-0.1772083,0.0418962,-34.65073,1.32247,-27.90895,956.6599
4.452955246,0.02881546,0.716426,-1.757326,1.010335,-0.1859119,0.03997875,-34.66646,2.08318,-27.91301,956.6599
4.462950707,-0.4634504,0.716426,-1.513443,1.007882,-0.1849841,0.04046137,-34.66646,2.08318,-27.91301,956.6599
4.472945690,-0.8326498,0.716426,-1.452472,1.010795,-0.1844449,0.03997757,-34.66646,2.08318,-27.91301,956.6591
4.482941628,-1.263382,0.4196641,-1.513443,1.01323,-0.1844144,0.03805901,-34.66646,2.08318,-27.91301,956.6591
4.492937088,-2.124848,0.4196641,-1.147618,1.005355,-0.180179,0.03998596,-34.66646,2.08318,-27.91301,956.6591
4.502932549,-2.432514,0.1822547,-1.147618,1.00448,-0.1855592,0.03807456,-34.65243,1.325739,-27.52195,956.6591
4.512927532,-2.55558,-0.05515479,-1.26956,1.00401,-0.1865842,0.03328989,-34.65243,1.325739,-27.52195,956.6597
4.522923947,-2.063314,0.004197581,-1.208589,1.012356,-0.1897946,0.03614762,-34.65243,1.325739,-27.52195,956.6597
4.532918930,-1.263382,-0.1145072,-1.086647,1.01299,-0.1975352,0.03854139,-34.65243,1.325739,-27.52195,956.6597
4.542914391,-0.4634504,-0.05515479,-0.7817937,1.010499,-0.1946644,0.03902357,-34.27599,1.325282,-27.90617,956.6597
4.552909851,-0.4019172,-0.1145072,-0.7208229,1.009875,-0.1873876,0.03902278,-34.27599,1.325282,-27.90617,956.657
4.562905789,-0.9557163,-0.05515479,-0.5379106,1.009309,-0.1829507,0.04715842,-34.27599,1.325282,-27.90617,956.657
4.572900772,-1.755648,0.1229023,-0.3549984,1.007212,-0.1752785,0.04046003,-34.27599,1.325282,-27.90617,956.657
4.582896233,-2.863246,-0.1145072,-0.1720861,1.004325,-0.1773144,0.03663698,-34.27599,1.325282,-27.90617,956.657
4.592891693,-3.847778,-0.1738595,-0.2330568,1.004287,-0.1753977,0.0337651,-34.64905,1.319201,-28.29596,956.6563
4.602887154,-4.093911,-0.411269,-0.4769399,1.002089,-0.18808,0.03329362,-34.64905,1.319201,-28.29596,956.6563
4.612883091,-3.417045,-0.411269,-0.4769399,1.002207,-0.1944212,0.03042359,-34.64905,1.319201,-28.29596,956.6563
4.622878075,-2.74018,-0.411269,-0.5988814,1.00329,-0.2002443,0.02898747,-34.64905,1.319201,-28.29596,956.6563
4.632873535,-1.447982,-0.3519166,-0.7208229,1.007196,-0.2006487,0.02945935,-34.64905,1.319201,-28.29596,956.6569
4.642868996,-0.2173175,-0.3519166,-0.9037352,1.008694,-0.2025716,0.02850008,-34.64288,0.9421139,-27.90692,956.6569
4.652864933,0.8902807,-0.2332119,-1.025677,1.013905,-0.1947243,0.02513894,-34.64288,0.9421139,-27.90692,956.6569
4.662859917,1.321013,-0.2332119,-1.26956,1.011425,-0.1922909,0.03088555,-34.64288,0.9421139,-27.90692,956.6569
4.672855377,1.197947,-0.1145072,-1.635384,1.007934,-0.187982,0.0313691,-34.64288,0.9421139,-27.90692,956.6534
4.682850838,0.7672142,-0.3519166,-1.574414,1.011795,-0.1859445,0.03327615,-34.64288,0.9421139,-27.90692,956.6534
4.692846775,0.5826145,-0.411269,-1.391501,1.007907,-0.1865116,0.0328045,-35.03165,1.696743,-28.30076,956.6534
4.702842235,0.2749484,-0.411269,-1.452472,1.013762,-0.1868687,0.03423011,-35.03165,1.696743,-28.30076,956.6534
4.712837219,0.3364816,-0.6486785,-1.208589,1.018128,-0.185793,0.03613653,-35.03165,1.696743,-28.30076,956.6541
4.722832680,-0.03271778,-0.6486785,-1.086647,1.012843,-0.1897893,0.03566819,-35.03165,1.696743,-28.30076,956.6541
4.732828140,-0.2173175,-0.8267356,-0.5379106,1.016604,-0.1823952,0.03900976,-35.03165,1.696743,-28.30076,956.6541
4.742824078,-0.5249836,-0.9454404,-0.4769399,1.010399,-0.189321,0.03902237,-34.26982,0.9481955,-27.51714,956.6541
4.752819538,-0.6480501,-1.004793,-0.05014454,1.00947,-0.1917778,0.03806746,-34.26982,0.9481955,-27.51714,956.6547
4.762814522,-0.2788507,-1.360907,0.01082622,1.012854,-0.1902224,0.0414112,-34.26982,0.9481955,-27.51714,956.6547
4.772809982,-0.4019172,-1.420259,0.07179698,1.006962,-0.1879311,0.039028,-34.26982,0.9481955,-27.51714,956.6547
4.782805920,-0.2173175,-1.301555,0.3766508,1.012835,-0.1892509,0.04141098,-34.26982,0.9481955,-27.51714,956.6547
4.792801380,-0.1557842,-1.360907,0.4985923,1.008561,-0.1951711,0.04094138,-35.01762,0.9393015,-27.9097,956.6539
4.802796364,0.1518819,-1.360907,0.4985923,1.012403,-0.1921576,0.04332679,-35.01762,0.9393015,-27.9097,956.6539
4.812791824,0.5210813,-1.004793,0.3766508,1.010454,-0.1922224,0.04045875,-35.01762,0.9393015,-27.9097,956.6539
4.822787762,0.5210813,-0.7673832,0.5595631,1.006494,-0.1888771,0.04285767,-35.01762,0.9393015,-27.9097,956.6539
4.832783222,0.5210813,-0.5299737,0.31568,1.009453,-0.190758,0.04333157,-35.01762,0.9393015,-27.9097,956.6545
4.842778683,0.5826145,-0.3519166,0.1327677,1.009986,-0.193186,0.04237412,-34.27599,1.325282,-27.90617,956.6545
4.852773666,0.8287475,-0.2332119,0.01082622,1.014369,-0.1931213,0.03997358,-34.27599,1.325282,-27.90617,956.6545
4.862769604,1.013347,-0.1738595,0.01082622,1.012366,-0.1902452,0.03997633,-34.27599,1.325282,-27.90617,956.6545
4.872765064,1.505613,0.1229023,0.1937385,1.011006,-0.1955955,0.04237296,-34.27599,1.325282,-27.90617,956.6534
4.882760525,1.997879,0.1229023,0.01082622,1.011492,-0.1955903,0.04189353,-34.27599,1.325282,-27.90617,956.6534
4.892755508,2.367078,0.3009594,0.1937385,1.016264,-0.1901243,0.04475526,-34.64288,0.9421139,-27.90692,956.6534
4.902751923,2.490145,0.4790165,0.31568,1.010345,-0.1863845,0.04141458,-34.64288,0.9421139,-27.90692,956.6534
4.912746906,1.997879,0.5383689,0.4376215,1.009254,-0.1800361,0.04715776,-34.64288,0.9421139,-27.90692,956.6544
4.922742367,1.07488,0.6570736,0.5595631,1.009686,-0.1771163,0.04667769,-34.64288,0.9421139,-27.90692,956.6544
4.932737827,-0.094251,0.716426,0.6815046,1.013719,-0.1843346,0.04571536,-34.64288,0.9421139,-27.90692,956.6544
4.942732811,-0.4634504,0.8944831,0.6205339,1.010346,-0.1863625,0.04380746,-34.66029,1.706094,-27.52398,956.6544
4.952728748,-0.3403839,1.191245,0.7424754,1.009333,-0.1845002,0.03710868,-34.66029,1.706094,-27.52398,956.655
4.962724209,-0.094251,1.07254,0.4985923,1.012853,-0.1902444,0.03901833,-34.66029,1.706094,-27.52398,956.655
4.972719669,0.2134152,1.488007,0.5595631,1.007016,-0.1908588,0.03759293,-34.66029,1.706094,-27.52398,956.655
4.982715130,1.07488,1.606712,0.4985923,1.012835,-0.1892509,0.04141098,-34.66029,1.706094,-27.52398,956.655
4.992711067,1.25948,1.488007,0.3766508,1.01083,-0.1864231,0.03614941,-35.03334,1.700012,-27.91376,956.6555
5.002706051,1.382547,2.022178,0.1937385,1.01165,-0.1781328,0.03758158,-35.03334,1.700012,-27.91376,956.6555
5.012701511,1.136414,1.844121,0.01082622,1.010713,-0.1800731,0.03997659,-35.03334,1.700012,-27.91376,956.6555
5.022696972,0.5210813,1.844121,-0.05014454,1.008269,-0.1796135,0.04237361,-35.03334,1.700012,-27.91376,956.6555
5.032692909,-0.094251,1.844121,-0.05014454,1.008268,-0.1796399,0.03950216,-35.03334,1.700012,-27.91376,956.6564
5.042687893,-0.4019172,1.725416,-0.05014454,1.008718,-0.1777311,0.03471513,-34.65691,1.699555,-28.29798,956.6564
5.052683353,-0.4634504,1.666064,0.01082622,1.004813,-0.1772697,0.04046473,-34.65691,1.699555,-28.29798,956.6564
5.062678814,-0.7095833,1.547359,0.07179698,1.005372,-0.1811812,0.03663616,-34.65691,1.699555,-28.29798,956.6564
5.072674751,-0.5249836,1.488007,0.01082622,1.005849,-0.180721,0.0328066,-34.65691,1.699555,-28.29798,956.6514
5.082670212,-0.6480501,1.488007,-0.05014454,1.003883,-0.1797791,0.03376693,-34.65691,1.699555,-28.29798,956.6514
5.092665195,-0.5865169,1.30995,-0.2940276,1.001622,-0.1889909,0.04095189,-35.01931,0.9425707,-27.5227,956.6514
5.102660656,-0.5249836,1.547359,-0.5988814,1.003578,-0.1894952,0.03472712,-35.01931,0.9425707,-27.5227,956.6514
5.112656593,-0.2173175,1.250597,-0.5379106,1.004507,-0.1870384,0.03568202,-35.01931,0.9425707,-27.5227,956.652
5.122652054,-0.03271778,1.131893,-0.7817937,1.004977,-0.1860309,0.0385524,-35.01931,0.9425707,-27.5227,956.652
5.132647514,0.09034869,1.191245,-0.5988814,1.003993,-0.1855644,0.03855399,-35.01931,0.9425707,-27.5227,956.652
5.142642498,-0.2173175,1.131893,-0.7817937,1.008221,-0.1772593,0.0342373,-34.26982,0.9481955,-27.51714,956.652
5.152638435,-0.5249836,1.07254,-0.4159691,1.006244,-0.1758801,0.0299332,-34.26982,0.9481955,-27.51714,956.6509
5.162633896,-1.263382,0.5383689,-0.4159691,1.008717,-0.1777487,0.03280083,-34.26982,0.9481955,-27.51714,956.6509
5.172629356,-1.694115,0.4196641,-0.4159691,1.006338,-0.1806674,0.03759149,-34.26982,0.9481955,-27.51714,956.6509
5.182624340,-2.001781,0.6570736,-0.4159691,1.012634,-0.1785905,0.03853713,-35.01762,0.9393015,-27.9097,956.6509
5.192620277,-2.247914,0.4196641,-0.6598521,1.011705,-0.1810254,0.03997511,-35.01762,0.9393015,-27.9097,956.6498
5.202615738,-2.494047,0.3009594,-0.4769399,1.010352,-0.1869229,0.0356718,-35.01762,0.9393015,-27.9097,956.6498
5.212611198,-1.878715,0.4196641,-0.5988814,1.002071,-0.1870909,0.0352077,-35.01762,0.9393015,-27.9097,956.6498
5.222606659,-1.386449,0.3009594,-0.7208229,0.9958767,-0.1944717,0.03857043,-35.01762,0.9393015,-27.9097,956.6498
5.232602596,-1.017249,0.06354995,-0.7817937,0.9996191,-0.1861192,0.04047606,-34.27769,1.328551,-27.51917,956.6508
5.242597580,-0.2173175,0.06354995,-0.8427644,1.001676,-0.191945,0.03664537,-34.27769,1.328551,-27.51917,956.6508
5.252593041,-0.1557842,-0.1738595,-1.26956,1.004379,-0.1802377,0.03568049,-34.27769,1.328551,-27.51917,956.6508
5.262588501,-0.2788507,-0.1145072,-1.513443,1.00265,-0.1919169,0.03760082,-34.27769,1.328551,-27.51917,956.6508
5.272584438,-0.2788507,-0.2925643,-1.513443,1.005141,-0.1947834,0.03759721,-34.27769,1.328551,-27.51917,956.6514
5.282579899,-0.2788507,-0.05515479,-1.696355,1.009028,-0.194225,0.03711171,-34.64288,0.9421139,-27.90692,956.6514
5.292574883,-0.03271778,-0.2332119,-1.757326,1.008578,-0.1961777,0.037113,-34.64288,0.9421139,-27.90692,956.6514
5.302570343,0.7672142,-0.3519166,-1.635384,1.006186,-0.1987073,0.03137491,-34.64288,0.9421139,-27.90692,956.6514
5.312566280,1.25948,-0.3519166,-1.513443,1.008153,-0.1996403,0.03137172,-34.64288,0.9421139,-27.90692,956.6503
5.322561741,2.059412,-0.4706214,-1.452472,1.000343,-0.1987657,0.0376066,-34.64288,0.9421139,-27.90692,956.6503
5.332556725,2.305545,-0.6486785,-1.025677,1.004746,-0.1996023,0.04286347,-34.64118,0.9388447,-28.29393,956.6503
5.342552185,2.428612,-0.5299737,-0.7208229,1.006098,-0.1937619,0.04094531,-34.64118,0.9388447,-28.29393,956.6503
5.352548122,1.813279,-0.5893261,-0.5379106,1.007909,-0.186437,0.04094027,-34.64118,0.9388447,-28.29393,956.6486
5.362543583,0.8902807,-0.5299737,-0.1720861,1.009381,-0.18685,0.04572357,-34.64118,0.9388447,-28.29393,956.6486
5.372539044,-0.2788507,-0.4706214,0.01082622,1.008398,-0.1863791,0.04620374,-34.64118,0.9388447,-28.29393,956.6486
5.382534027,-1.263382,-0.5299737,0.4985923,1.005032,-0.1889235,0.04094592,-34.64905,1.319201,-28.29596,956.6486
5.392529965,-1.386449,-0.6486785,0.5595631,1.008045,-0.1937673,0.03615616,-34.64905,1.319201,-28.29596,956.6478
5.402525425,-0.7711166,-0.7080309,0.6815046,1.007704,-0.2015447,0.03663733,-34.64905,1.319201,-28.29596,956.6478
5.412520886,0.1518819,-0.9454404,0.8034461,1.010057,-0.1971423,0.03471779,-34.64905,1.319201,-28.29596,956.6478
5.422515869,1.136414,-1.064145,0.6205339,1.005729,-0.2000996,0.03951186,-34.64905,1.319201,-28.29596,956.6478
5.432512283,2.120945,-1.242202,0.5595631,1.006262,-0.20251,0.0404687,-34.6586,1.702825,-27.91098,956.6467
5.442507267,2.674744,-1.242202,0.8034461,1.011052,-0.1980156,0.04333065,-34.6586,1.702825,-27.91098,956.6467
5.452502728,2.982411,-1.18285,0.6815046,1.0105,-0.1946424,0.04141644,-34.6586,1.702825,-27.91098,956.6467
5.462498188,2.920877,-1.064145,0.7424754,1.008497,-0.191762,0.04189777,-34.6586,1.702825,-27.91098,956.6467
5.472494125,2.982411,-1.064145,0.8034461,1.013302,-0.1883224,0.03566701,-34.6586,1.702825,-27.91098,956.6473
5.482489109,2.736278,-0.886088,0.8644169,1.009838,-0.1854665,0.03662947,-35.02886,1.326195,-27.13773,956.6473
5.492484570,2.551678,-0.7080309,0.8644169,1.004482,-0.1855021,0.04429603,-35.02886,1.326195,-27.13773,956.6473
5.502480507,2.120945,-0.886088,1.230241,1.008441,-0.1888957,0.03663279,-35.02886,1.326195,-27.13773,956.6473
5.512475968,2.367078,-1.004793,1.169271,1.002623,-0.1904728,0.03616476,-35.02886,1.326195,-27.13773,956.6479
5.522471428,2.490145,-0.7673832,1.413154,1.009029,-0.1942119,0.03854744,-35.02886,1.326195,-27.13773,956.6479
5.532466412,3.043944,-0.9454404,1.352183,1.007594,-0.1957287,0.0352003,-35.02547,1.319657,-27.91173,956.6479
5.542462349,3.290077,-1.123497,1.535095,1.009433,-0.1898567,0.03567415,-35.02547,1.319657,-27.91173,956.6479
5.552457810,3.474676,-1.123497,1.596066,1.00641,-0.1845623,0.03663521,-35.02547,1.319657,-27.91173,956.6545
5.562453270,3.474676,-1.004793,1.352183,1.009196,-0.177205,0.03806419,-35.02547,1.319657,-27.91173,956.6545
5.572448254,3.228544,-1.064145,1.169271,1.00539,-0.1821703,0.03472207,-35.02547,1.319657,-27.91173,956.6545
5.582444668,2.736278,-1.004793,0.9863584,1.006264,-0.1767901,0.03663347,-35.0412,2.080368,-27.91579,956.6545
5.592439652,2.182479,-0.9454404,0.9253877,1.008772,-0.1806544,0.03375863,-35.0412,2.080368,-27.91579,956.6512
5.602435112,2.120945,-1.123497,0.8644169,1.008329,-0.1831236,0.03041001,-35.0412,2.080368,-27.91579,956.6512
5.612430572,2.367078,-0.9454404,0.9253877,1.011353,-0.1883741,0.0342347,-35.0412,2.080368,-27.91579,956.6512
5.622426510,3.105477,-1.004793,0.7424754,1.008468,-0.1903661,0.0351974,-35.0412,2.080368,-27.91579,956.6512
5.632421493,3.843876,-1.18285,0.6205339,1.01037,-0.187912,0.03375772,-34.64457,0.9453831,-27.51992,956.6518
5.642416954,4.336142,-1.360907,0.6205339,1.011722,-0.1820584,0.03327528,-34.64457,0.9453831,-27.51992,956.6518
5.652412414,4.274609,-1.301555,0.6205339,1.005769,-0.1762657,0.04189853,-34.64457,0.9453831,-27.51992,956.6518
5.662408352,3.53621,-1.420259,0.3766508,1.011631,-0.1771744,0.03614563,-34.64457,0.9453831,-27.51992,956.6518
5.672403812,3.043944,-1.538964,0.4376215,1.005363,-0.1807086,0.03520032,-34.64457,0.9453831,-27.51992,956.6527
5.682398796,2.182479,-1.420259,0.4376215,1.009133,-0.1737959,0.03902058,-35.02547,1.319657,-27.91173,956.6527
5.692394257,1.197947,-1.420259,0.4985923,1.009684,-0.177191,0.03854192,-35.02547,1.319657,-27.91173,956.6527
5.702390194,0.8287475,-1.360907,0.4985923,1.008755,-0.1796434,0.03806559,-35.02547,1.319657,-27.91173,956.6527
5.712385654,0.9518139,-1.360907,0.4376215,1.01129,-0.1849562,0.03614823,-35.02547,1.319657,-27.91173,956.6591
5.722380638,1.321013,-1.123497,0.4376215,1.011731,-0.1825397,0.03375396,-35.02547,1.319657,-27.91173,956.6591
5.732377052,1.997879,-0.9454404,0.5595631,1.010701,-0.1796664,0.03136213,-35.03503,1.703281,-27.52676,956.6591
5.742372036,1.936346,-0.886088,0.3766508,1.008232,-0.1777012,0.03902315,-35.03503,1.703281,-27.52676,956.6591
5.752367496,1.813279,-1.064145,0.5595631,1.010657,-0.1772024,0.03519019,-35.03503,1.703281,-27.52676,956.6556
5.762362957,1.628679,-1.064145,0.5595631,1.013075,-0.1761696,0.03662144,-35.03503,1.703281,-27.52676,956.6556
5.772358894,1.136414,-0.886088,0.4376215,1.015465,-0.1736751,0.03853093,-35.03503,1.703281,-27.52676,956.6556
5.782353878,0.5826145,-0.8267356,0.31568,1.012091,-0.1757119,0.03566588,-34.64288,0.9421139,-27.90692,956.6556
5.792349338,0.1518819,-0.6486785,0.01082622,1.01304,-0.1741651,0.04332105,-34.64288,0.9421139,-27.90692,956.6548
5.802344799,-0.2788507,-0.4706214,-0.2330568,1.008812,-0.1824878,0.04572344,-34.64288,0.9421139,-27.90692,956.6548
5.812340736,-0.4019172,-0.2925643,-0.5379106,1.005318,-0.1782359,0.03998552,-34.64288,0.9421139,-27.90692,956.6548
5.822336197,-0.6480501,-0.1145072,-0.5988814,1.007383,-0.1845694,0.03376206,-34.6367,0.5650272,-27.51789,956.6548
5.832331181,-0.5865169,0.004197581,-0.8427644,1.004381,-0.180185,0.04142338,-34.6367,0.5650272,-27.51789,956.6555
5.842326641,-0.5249836,-0.1738595,-0.8427644,1.00346,-0.1831628,0.03664,-34.6367,0.5650272,-27.51789,956.6555
5.852322578,-0.3403839,0.06354995,-0.9037352,1.003514,-0.1861037,0.0337692,-34.6367,0.5650272,-27.51789,956.6555
5.862318039,-0.1557842,0.004197581,-1.025677,1.008284,-0.1806816,0.03184519,-34.6367,0.5650272,-27.51789,956.6555
5.872313499,-0.1557842,0.1229023,-0.9647059,1.007853,-0.1835707,0.03567529,-35.02717,1.322927,-27.52473,956.6561
5.882309437,-0.094251,0.1822547,-0.6598521,1.011732,-0.1825266,0.03518969,-35.02717,1.322927,-27.52473,956.6561
5.892304420,-0.6480501,-0.05515479,-0.5988814,1.015969,-0.1746809,0.03374455,-35.02717,1.322927,-27.52473,956.6561
5.902299881,-1.509515,0.2416071,-0.6598521,1.018486,-0.1790091,0.0332627,-35.02717,1.322927,-27.52473,956.6561
5.912295341,-2.063314,0.1229023,-0.4159691,1.011723,-0.1820189,0.03758245,-35.02717,1.322927,-27.52473,956.6567
5.922291279,-2.55558,-0.05515479,-0.6598521,1.009342,-0.1849903,0.03663021,-35.02886,1.326195,-27.13773,956.6567
5.932286262,-2.494047,-0.1738595,-0.7817937,1.010341,-0.1864942,0.02945022,-35.02886,1.326195,-27.13773,956.6567
5.942281723,-2.309447,0.06354995,-1.086647,1.010848,-0.1874078,0.03471391,-35.02886,1.326195,-27.13773,956.6567
5.952277184,-1.755648,-0.05515479,-1.208589,1.012953,-0.1955965,0.03806238,-35.02886,1.326195,-27.13773,956.6577
5.962273121,-1.263382,0.3009594,-1.26956,1.012465,-0.1956281,0.03567035,-35.02886,1.326195,-27.13773,956.6577
5.972268581,-0.8326498,0.4196641,-1.330531,1.011509,-0.1966101,0.03662943,-35.02717,1.322927,-27.52473,956.6577
5.982263565,-0.7095833,0.6570736,-1.330531,1.010058,-0.1970852,0.04093926,-35.02717,1.322927,-27.52473,956.6577
5.992259502,-1.017249,0.8944831,-1.086647,1.003616,-0.1914119,0.037599,-35.02717,1.322927,-27.52473,956.6583
6.002254963,-1.263382,0.716426,-0.9037352,1.000594,-0.1860912,0.04143151,-35.02717,1.322927,-27.52473,956.6583
6.012250423,-1.817181,0.5977212,-0.6598521,1.003002,-0.1845902,0.04094835,-35.02717,1.322927,-27.52473,956.6583
6.022245884,-2.247914,0.6570736,-0.6598521,1.001096,-0.1871277,0.03329511,-35.01931,0.9425707,-27.5227,956.6583
6.032241821,-2.309447,0.5977212,-0.6598521,1.010022,-0.1951466,0.04046025,-35.01931,0.9425707,-27.5227,956.6605
6.042236805,-2.063314,0.7757784,-0.7208229,1.00967,-0.2024909,0.03519842,-35.01931,0.9425707,-27.5227,956.6605
6.052232265,-1.571049,0.8351307,-0.7208229,1.017545,-0.2067395,0.03183575,-35.01931,0.9425707,-27.5227,956.6605
6.062227726,-0.894183,0.8351307,-0.8427644,1.014588,-0.2047971,0.0380619,-35.01931,0.9425707,-27.5227,956.6605
6.072223663,-0.094251,0.7757784,-0.8427644,1.012106,-0.2024252,0.03710846,-34.65073,1.32247,-27.90895,956.6597
6.082218647,0.8902807,0.8944831,-0.9647059,1.013071,-0.2019202,0.03710665,-34.65073,1.32247,-27.90895,956.6597
6.092214108,1.628679,1.131893,-1.208589,1.016426,-0.1989383,0.03710003,-34.65073,1.32247,-27.90895,956.6597
6.102210045,1.567146,0.9538354,-1.330531,1.015507,-0.2018501,0.03949526,-34.65073,1.32247,-27.90895,956.6597
6.112205505,1.567146,1.250597,-0.9647059,1.01585,-0.1940288,0.04379984,-34.65073,1.32247,-27.90895,956.6581
6.122200966,1.382547,1.250597,-0.4769399,1.014884,-0.1945602,0.0409302,-34.64457,0.9453831,-27.51992,956.6581
6.132195950,0.9518139,1.428654,-0.4159691,1.010969,-0.19367,0.04045822,-34.64457,0.9453831,-27.51992,956.6581
6.142191887,0.5210813,1.30995,-0.1720861,1.00569,-0.1982092,0.03376852,-34.64457,0.9453831,-27.51992,956.6581
6.152187347,0.3364816,1.07254,0.07179698,1.008109,-0.1971589,0.03711407,-34.64457,0.9453831,-27.51992,956.6627
6.162182808,0.3980148,1.131893,0.2547093,1.006758,-0.2029773,0.04142511,-34.64457,0.9453831,-27.51992,956.6627
6.172178268,0.8902807,1.07254,0.31568,1.004393,-0.2069818,0.03377305,-35.01931,0.9425707,-27.5227,956.6627
6.182174206,1.936346,0.9538354,0.3766508,1.003374,-0.2045591,0.03520993,-35.01931,0.9425707,-27.5227,956.6627
6.192169189,2.736278,0.9538354,0.4376215,1.00683,-0.2069073,0.03664024,-35.01931,0.9425707,-27.5227,956.6593
6.202164650,3.228544,1.013188,0.6815046,1.006664,-0.1982031,0.0323311,-35.01931,0.9425707,-27.5227,956.6593
6.212160587,3.659276,0.8944831,0.8034461,1.004671,-0.1957865,0.03520541,-35.01931,0.9425707,-27.5227,956.6593
6.222156048,3.905409,0.7757784,0.5595631,1.012473,-0.1961358,0.03327759,-35.03165,1.696743,-28.30076,956.6593
6.232151508,3.966942,0.5977212,0.6205339,1.006086,-0.1933727,0.03041656,-35.03165,1.696743,-28.30076,956.6602
6.242146492,4.090009,0.6570736,0.5595631,1.006051,-0.1913814,0.03568044,-35.03165,1.696743,-28.30076,956.6602
6.252142429,4.151542,0.4196641,0.4985923,1.00798,-0.1903933,0.03328395,-35.03165,1.696743,-28.30076,956.6602
6.262137890,4.459208,0.4196641,0.6205339,1.0115,-0.19612,0.03710789,-35.03165,1.696743,-28.30076,956.6602
6.272133350,4.705341,0.3603118,0.31568,1.008172,-0.2005811,0.03472196,-34.6367,0.5650272,-27.51789,956.6591
6.282129288,5.25914,0.1229023,0.3766508,1.010049,-0.196617,0.03902486,-34.6367,0.5650272,-27.51789,956.6591
6.292124271,5.44374,0.1822547,0.2547093,1.001245,-0.1948165,0.04238977,-34.6367,0.5650272,-27.51789,956.6591
6.302119732,5.44374,0.1822547,0.4376215,1.008081,-0.1957191,0.03519945,-34.6367,0.5650272,-27.51789,956.6591
6.312115192,5.320673,-0.05515479,0.6205339,1.003164,-0.1933821,0.03568599,-34.6367,0.5650272,-27.51789,956.6597
6.322111130,5.505273,-0.2332119,0.6815046,0.9987335,-0.1910751,0.03186451,-34.6367,0.5650272,-27.51789,956.6597
6.332106590,5.62834,-0.2925643,1.047329,1.005038,-0.1895058,0.03041739,-34.6367,0.5650272,-27.51789,956.6597
6.342101574,5.505273,-0.3519166,1.413154,1.008359,-0.1845019,0.03902468,-34.6367,0.5650272,-27.51789,956.6597
6.352097511,5.25914,-0.5299737,1.535095,1.001465,-0.1808032,0.03329283,-34.6367,0.5650272,-27.51789,956.6586
6.362092972,4.951474,-0.886088,1.778978,1.007338,-0.1821274,0.03519724,-34.6367,0.5650272,-27.51789,956.6586
6.372088432,4.766874,-1.123497,1.535095,1.001962,-0.1812486,0.03664212,-34.63332,0.5584888,-28.2919,956.6586
6.382083893,4.336142,-1.064145,1.596066,1.005958,-0.1865633,0.03137218,-34.63332,0.5584888,-28.2919,956.6586
6.392079830,4.459208,-1.18285,1.352183,1.009423,-0.1894104,0.03136687,-34.63332,0.5584888,-28.2919,956.6553
6.402074814,4.397675,-1.004793,1.291212,1.005969,-0.186992,0.03759376,-34.63332,0.5584888,-28.2919,956.6553
6.412070274,4.643808,-1.123497,1.230241,1.010885,-0.1893377,0.03615006,-34.63332,0.5584888,-28.2919,956.6553
6.422066212,4.705341,-0.9454404,1.291212,1.010829,-0.186467,0.03136366,-34.63501,0.561758,-27.90489,956.6553
6.432061672,4.889941,-0.8267356,1.352183,1.009728,-0.1796724,0.03279956,-34.63501,0.561758,-27.90489,956.6563
6.442056656,4.274609,-0.8267356,1.291212,1.011077,-0.1738759,0.02609565,-34.63501,0.561758,-27.90489,956.6563
6.452052116,3.474676,-0.7673832,1.047329,1.012522,-0.1728272,0.0313572,-34.63501,0.561758,-27.90489,956.6563
6.462048054,2.490145,-0.7080309,0.9863584,1.010162,-0.1766956,0.03854096,-35.00975,0.5589457,-27.90767,956.6563
6.472043514,2.059412,-0.886088,0.8034461,1.008791,-0.1816084,0.03567315,-35.00975,0.5589457,-27.90767,956.6568
6.482038975,2.059412,-0.7080309,0.8034461,1.013176,-0.1814779,0.04045123,-35.00975,0.5589457,-27.90767,956.6568
6.492033959,2.367078,-0.7080309,0.5595631,1.006915,-0.1855242,0.03663458,-35.00975,0.5589457,-27.90767,956.6568
6.502029896,2.674744,-0.8267356,0.31568,1.008917,-0.1884573,0.03041036,-35.00975,0.5589457,-27.90767,956.6568
6.512025356,2.982411,-0.6486785,0.07179698,1.001485,-0.1817176,0.03951452,-35.02379,1.316388,-28.29874,956.6574
6.522020817,3.474676,-0.5893261,0.1327677,1.003477,-0.184165,0.03329019,-35.02379,1.316388,-28.29874,956.6574
6.532016754,3.782343,-0.7673832,-0.2330568,1.003403,-0.180314,0.02946072,-35.02379,1.316388,-28.29874,956.6574
6.542012215,3.905409,-0.8267356,-0.4159691,0.9989547,-0.1770223,0.02707475,-35.02379,1.316388,-28.29874,956.6574
6.552007198,3.659276,-0.7080309,-0.5379106,1.003728,-0.1715036,0.03567937,-35.02379,1.316388,-28.29874,956.6583
6.562003136,3.413143,-0.5893261,-0.7208229,1.003248,-0.1720649,0.02850171,-34.26027,0.5645704,-27.90211,956.6583
6.571998596,3.043944,-0.9454404,-0.8427644,1.001346,-0.1745102,0.03089854,-34.26027,0.5645704,-27.90211,956.6583
6.581994057,2.674744,-0.886088,-0.7817937,1.00676,-0.1772707,0.03615415,-34.26027,0.5645704,-27.90211,956.6583
6.591989517,2.797811,-0.9454404,-0.9037352,1.003843,-0.1779239,0.024195,-34.26027,0.5645704,-27.90211,956.6606
6.601985455,2.428612,-1.064145,-0.9647059,1.005215,-0.1729803,0.03041283,-34.26027,0.5645704,-27.90211,956.6606
6.611980438,2.428612,-1.064145,-1.147618,1.010691,-0.1792201,0.02705485,-35.00975,0.5589457,-27.90767,956.6606
6.621975899,2.305545,-1.18285,-1.330531,1.009102,-0.1724351,0.0284916,-35.00975,0.5589457,-27.90767,956.6606
6.631971836,1.936346,-1.18285,-1.513443,1.006779,-0.1782378,0.03663294,-35.00975,0.5589457,-27.90767,956.6555
6.641967297,1.25948,-1.064145,-1.574414,1.006685,-0.1734416,0.02993181,-35.00975,0.5589457,-27.90767,956.6555
6.651962280,0.705681,-1.301555,-1.696355,0.9992694,-0.1677524,0.03042185,-35.00975,0.5589457,-27.90767,956.6555
6.661957741,0.1518819,-1.18285,-1.940238,1.000831,-0.1730713,0.02994192,-34.64288,0.9421139,-27.90692,956.6555
6.671953678,-0.2788507,-1.242202,-1.818297,0.9974678,-0.1755368,0.03329845,-34.64288,0.9421139,-27.90692,956.6561
6.681949139,-0.4634504,-1.004793,-2.001209,0.999432,-0.1765488,0.02468091,-34.64288,0.9421139,-27.90692,956.6561
6.691944599,-0.4019172,-1.360907,-1.940238,0.9986239,-0.1852503,0.03138463,-34.64288,0.9421139,-27.90692,956.6561
6.701940536,-0.3403839,-1.301555,-2.001209,1.003116,-0.1910411,0.02611395,-34.64288,0.9421139,-27.90692,956.6561
6.711935520,0.02881546,-1.360907,-1.879267,1.007456,-0.1884818,0.03089149,-35.00189,0.1785898,-27.90565,956.6554
6.721930981,0.09034869,-1.242202,-1.757326,1.013245,-0.1854737,0.02848774,-35.00189,0.1785898,-27.90565,956.6554
6.731926441,0.02881546,-1.123497,-1.757326,1.013227,-0.1844978,0.0289661,-35.00189,0.1785898,-27.90565,956.6554
6.741922378,-0.094251,-1.004793,-2.123151,1.018216,-0.190756,0.02465183,-35.00189,0.1785898,-27.90565,956.6554
6.751917839,-0.2173175,-0.8267356,-2.06218,1.019117,-0.1868418,0.0256064,-35.00189,0.1785898,-27.90565,956.6583
6.761912823,-0.6480501,-1.004793,-1.879267,1.013704,-0.1840551,0.02322224,-35.37833,0.1790462,-27.52143,956.6583
6.771908760,-1.201849,-0.8267356,-1.452472,1.014302,-0.1898044,0.03087989,-35.37833,0.1790462,-27.52143,956.6583
6.781904221,-1.447982,-0.8267356,-1.330531,1.01193,-0.1932748,0.02849204,-35.37833,0.1790462,-27.52143,956.6583
6.791899681,-0.7711166,-1.242202,-1.208589,1.017831,-0.1960475,0.03135392,-35.37833,0.1790462,-27.52143,956.6566
6.801895618,-0.5249836,-0.9454404,-0.7817937,1.015359,-0.1941482,0.03183632,-35.37833,0.1790462,-27.52143,956.6566
6.811891079,-0.4634504,-1.004793,-0.4769399,1.009983,-0.1932694,0.0332812,-35.36708,-0.2078471,-28.29341,956.6566
6.821886063,-1.017249,-1.123497,-0.3549984,1.005582,-0.1923581,0.03616009,-35.36708,-0.2078471,-28.29341,956.6566
6.831881523,-1.571049,-1.004793,0.07179698,1.004559,-0.1900451,0.0256326,-35.36708,-0.2078471,-28.29341,956.6572
6.841877460,-1.878715,-1.18285,0.1937385,1.005526,-0.1894874,0.03137369,-35.36708,-0.2078471,-28.29341,956.6572
6.851872921,-1.940248,-1.123497,-0.05014454,1.010082,-0.1986566,0.02849665,-35.36708,-0.2078471,-28.29341,956.6572
6.861867905,-1.324916,-0.7673832,0.2547093,1.011606,-0.2020632,0.02466626,-35.00359,0.1818585,-27.51865,956.6572
6.871864319,-0.6480501,-0.7673832,0.1327677,1.01259,-0.2025034,0.02753611,-35.00359,0.1818585,-27.51865,956.6599
6.881859302,-0.1557842,-0.7673832,0.07179698,1.015483,-0.2010542,0.02035206,-35.00359,0.1818585,-27.51865,956.6599
6.891854763,0.6441478,-0.5893261,-0.05014454,1.014446,-0.1976424,0.02370302,-35.00359,0.1818585,-27.51865,956.6599
6.901850700,1.197947,-0.5299737,-0.1111153,1.009171,-0.2020938,0.02658482,-35.00359,0.1818585,-27.51865,956.6599
6.911846161,1.44408,-0.411269,-0.1111153,1.008134,-0.1986864,0.02945721,-35.37047,-0.2013097,-27.5194,956.6605
6.921841145,1.567146,-0.2925643,-0.1111153,1.004246,-0.1992667,0.02754983,-35.37047,-0.2013097,-27.5194,956.6605
6.931836605,1.690213,-0.3519166,-0.05014454,1.005175,-0.1968098,0.02850473,-35.37047,-0.2013097,-27.5194,956.6605
6.941832542,1.690213,-0.6486785,0.31568,1.014465,-0.198592,0.02609611,-35.37047,-0.2013097,-27.5194,956.6605
6.951828003,1.628679,-0.2925643,0.6205339,1.010018,-0.1952519,0.02897446,-35.37047,-0.2013097,-27.5194,956.6594
6.961823463,1.25948,-0.4706214,0.6815046,1.007673,-0.2001796,0.02658694,-34.62715,0.1814022,-27.90287,956.6594
6.974318027,1.013347,-0.5893261,1.230241,1.00861,-0.1982436,0.02371335,-34.62715,0.1814022,-27.90287,956.6594
6.981814384,1.07488,-0.411269,1.474125,1.016412,-0.1986237,0.01843551,-34.62715,0.1814022,-27.90287,956.6594
6.991809845,1.321013,-0.411269,1.535095,1.012969,-0.1966295,0.03136255,-34.62715,0.1814022,-27.90287,956.6603
7.001805305,1.690213,-0.411269,1.474125,1.015394,-0.1961483,0.02561529,-34.62715,0.1814022,-27.90287,956.6603
7.011801243,2.059412,-0.2925643,1.718008,1.012562,-0.2010768,0.02418577,-35.3845,0.5561333,-27.91046,956.6603
7.021796703,2.120945,-0.1738595,2.083832,1.014962,-0.1990549,0.02753109,-35.3845,0.5561333,-27.91046,956.6603
7.031791687,2.120945,0.004197581,2.266744,1.013952,-0.1971224,0.02848951,-35.3845,0.5561333,-27.91046,956.6609
7.041787624,2.059412,-0.1145072,2.388686,1.012382,-0.1912957,0.0313622,-35.3845,0.5561333,-27.91046,956.6609
7.054281712,1.813279,-0.2332119,2.510627,1.01341,-0.1942218,0.02801113,-35.00189,0.1785898,-27.90565,956.6609
7.064277649,1.628679,-0.2925643,2.205774,1.013842,-0.1913108,0.0265739,-35.00189,0.1785898,-27.90565,956.6609
7.074273109,1.628679,-0.1738595,2.205774,1.011425,-0.1922997,0.0299284,-35.00189,0.1785898,-27.90565,956.6616
7.084268570,1.690213,-0.1145072,2.327715,1.015329,-0.1927787,0.0222645,-35.00189,0.1785898,-27.90565,956.6616
7.094264507,1.936346,0.1229023,2.144803,1.008564,-0.1958412,0.02084135,-35.00189,0.1785898,-27.90565,956.6616
7.104259491,2.182479,0.1822547,2.205774,1.011513,-0.1972714,0.01748655,-34.62885,0.1846709,-27.51587,956.6616
7.114254952,2.551678,0.5383689,1.96189,1.012968,-0.196669,0.02705538,-34.62885,0.1846709,-27.51587,956.6621
7.124250412,2.982411,0.5383689,1.778978,1.007997,-0.1914087,0.02849842,-34.62885,0.1846709,-27.51587,956.6621
7.134246349,3.35161,0.4196641,1.718008,1.00273,-0.1963546,0.03042318,-34.62885,0.1846709,-27.51587,956.6621
7.144241810,3.474676,0.4790165,1.657037,1.008051,-0.1943452,0.0261062,-34.62885,0.1846709,-27.51587,956.6621
7.154236794,3.782343,0.4196641,1.474125,1.000249,-0.1939652,0.03138404,-34.62856,0.1841264,-27.58037,956.663
7.164232731,3.966942,0.3603118,1.1083,1.005172,-0.196902,0.01845466,-34.62856,0.1841264,-27.58037,956.663
7.174228191,4.397675,0.4790165,0.9863584,1.005606,-0.1938988,0.0270675,-34.62856,0.1841264,-27.58037,956.663
7.184223652,4.705341,0.3603118,0.8644169,1.006073,-0.1929791,0.02036638,-34.62856,0.1841264,-27.58037,956.663
7.194219589,4.705341,0.4790165,0.8644169,1.002664,-0.1930202,0.02324379,-34.62856,0.1841264,-27.58037,956.6619
7.204215050,4.520741,0.3603118,1.047329,1.00646,-0.1876173,0.02132148,-35.36877,-0.2045784,-27.9064,956.6619
7.214210033,4.028476,0.3603118,1.169271,1.002968,-0.1833172,0.02084788,-35.36877,-0.2045784,-27.9064,956.6619
7.224205494,3.105477,-0.05515479,1.230241,1.005818,-0.179369,0.02132047,-35.36877,-0.2045784,-27.9064,956.6619
7.234201431,2.736278,-0.1738595,1.657037,1.004412,-0.1822949,0.02323798,-35.36877,-0.2045784,-27.9064,956.6586
7.244196892,2.244012,-0.3519166,1.596066,1.001083,-0.186778,0.01845918,-35.36877,-0.2045784,-27.9064,956.6586
7.254191876,2.059412,-0.6486785,1.657037,0.9990978,-0.1848822,0.017505,-35.00189,0.1785898,-27.90565,956.6586
7.264187813,2.244012,-1.004793,1.96189,0.9982244,-0.1902317,0.01894363,-35.00189,0.1785898,-27.90565,956.6586
7.274183273,2.736278,-1.360907,1.90092,0.9977731,-0.1922063,0.01655204,-35.00189,0.1785898,-27.90565,956.6592
7.284178734,3.105477,-1.598316,1.596066,0.9963116,-0.1922396,0.01607602,-35.00189,0.1785898,-27.90565,956.6592
7.294174671,3.843876,-1.360907,1.230241,0.9962742,-0.1903272,0.01272557,-35.00189,0.1785898,-27.90565,956.6592
7.304170132,4.151542,-1.717021,1.169271,1.000226,-0.1931385,0.01559086,-35.00975,0.5589457,-27.90767,956.6592
7.314165115,4.028476,-1.538964,0.9253877,1.00647,-0.1880899,0.02275731,-35.00975,0.5589457,-27.90767,956.6567
7.324161053,3.228544,-1.657669,0.6205339,1.010707,-0.1802662,0.0189193,-35.00975,0.5589457,-27.90767,956.6567
7.334156513,2.305545,-1.242202,0.1327677,1.003412,-0.180813,0.02802511,-35.00975,0.5589457,-27.90767,956.6567
7.344151974,1.567146,-1.123497,-0.6598521,1.009446,-0.1910038,0.01653139,-35.00975,0.5589457,-27.90767,956.6567
7.354147911,1.197947,-1.004793,-0.9037352,1.004684,-0.196916,0.01797694,-35.00806,0.5556765,-28.29468,956.6539
7.364143372,1.505613,-0.8267356,-1.635384,1.008076,-0.1958683,0.01892791,-35.00806,0.5556765,-28.29468,956.6539
7.374138355,1.567146,-0.6486785,-1.818297,1.004188,-0.1964574,0.01606338,-35.00806,0.5556765,-28.29468,956.6539
7.384133816,2.428612,-0.6486785,-1.940238,1.00481,-0.2037781,0.01127842,-35.00806,0.5556765,-28.29468,956.6539
7.394129753,3.720809,-1.004793,-1.818297,1.002312,-0.2003996,0.01415336,-35.00806,0.5556765,-28.29468,956.6545
7.404125214,4.643808,-0.9454404,-1.879267,1.007138,-0.197835,0.01845147,-34.6384,0.5682955,-27.13089,956.6545
7.414120674,4.766874,-1.123497,-1.574414,1.003519,-0.1867211,0.01941207,-34.6384,0.5682955,-27.13089,956.6545
7.424116612,4.274609,-1.360907,-1.696355,1.009236,-0.1798181,0.0179646,-34.6384,0.5682955,-27.13089,956.6545
7.434111595,2.736278,-1.479612,-1.391501,1.011258,-0.1836438,0.02035494,-34.6384,0.5682955,-27.13089,956.6555
7.444107056,1.628679,-1.301555,-1.391501,1.009311,-0.183634,0.02562267,-34.6384,0.5682955,-27.13089,956.6555
7.454102993,0.4595481,-1.420259,-1.26956,1.011404,-0.1914116,0.02083526,-35.37663,0.1757774,-27.90843,956.6555
7.464098454,0.09034869,-1.242202,-1.025677,1.015797,-0.1918239,0.01939198,-35.37663,0.1757774,-27.90843,956.6555
7.474093437,0.2749484,-1.301555,-1.147618,1.013049,-0.2010716,0.02370634,-35.37663,0.1757774,-27.90843,956.6578
7.484089851,1.07488,-1.301555,-1.086647,1.006301,-0.2051275,0.01989054,-35.37663,0.1757774,-27.90843,956.6578
7.494084835,1.936346,-1.420259,-0.9037352,1.007211,-0.2017387,0.01653805,-35.37663,0.1757774,-27.90843,956.6578
7.504080296,2.859344,-1.242202,-1.086647,1.005697,-0.1987784,0.02467572,-34.99572,-0.1984973,-27.51662,956.6578
7.514075756,3.16701,-1.242202,-1.086647,1.011958,-0.1947013,0.03184239,-34.99572,-0.1984973,-27.51662,956.6567
7.524071694,3.290077,-1.18285,-1.025677,1.007535,-0.1929283,0.0227567,-34.99572,-0.1984973,-27.51662,956.6567
7.534066677,2.736278,-1.064145,-1.025677,1.009467,-0.1918744,0.02753882,-34.99572,-0.1984973,-27.51662,956.6567
7.544062138,2.059412,-0.886088,-1.086647,1.009017,-0.1938139,0.02897584,-35.37663,0.1757774,-27.90843,956.6567
7.554058075,1.690213,-0.9454404,-1.025677,1.009971,-0.192867,0.02418817,-35.37663,0.1757774,-27.90843,956.6573
7.564053536,1.751746,-0.7673832,-1.025677,1.009134,-0.2001683,0.02467008,-35.37663,0.1757774,-27.90843,956.6573
7.574048996,2.305545,-0.7673832,-1.147618,1.010119,-0.2005953,0.02897566,-35.37663,0.1757774,-27.90843,956.6573
7.584044933,3.043944,-0.7080309,-0.9647059,1.013518,-0.2000685,0.02609814,-35.37663,0.1757774,-27.90843,956.6573
7.594039917,3.53621,-0.5299737,-1.086647,1.016829,-0.1946139,0.03087673,-34.98757,-0.5793977,-27.57909,956.6566
7.604035378,3.966942,-0.5893261,-0.5988814,1.014917,-0.1965954,0.03088057,-34.98757,-0.5793977,-27.57909,956.6566
7.614031315,3.474676,-0.3519166,-0.7208229,1.018218,-0.1907033,0.03039473,-34.98757,-0.5793977,-27.57909,956.6566
7.624026775,3.35161,-0.2332119,-0.5379106,1.019219,-0.1921545,0.02895762,-34.98757,-0.5793977,-27.57909,956.6566
7.634022236,3.413143,-0.1738595,-0.3549984,1.024633,-0.1949281,0.03277751,-34.98757,-0.5793977,-27.57909,956.6588
7.644018173,3.35161,0.06354995,0.01082622,1.0183,-0.1950664,0.03135286,-34.98785,-0.5788531,-27.51459,956.6588
7.654013157,3.105477,0.1822547,0.1327677,1.015304,-0.19126,0.02896422,-34.98785,-0.5788531,-27.51459,956.6588
7.664008617,2.982411,0.3603118,0.31568,1.013308,-0.1889091,0.02465991,-34.98785,-0.5788531,-27.51459,956.6588
7.674004555,2.613211,0.4196641,0.6815046,1.011875,-0.1903734,0.02705566,-34.98785,-0.5788531,-27.51459,956.6594
7.684000015,2.367078,0.4790165,0.8034461,1.013209,-0.1835263,0.02896588,-34.98785,-0.5788531,-27.51459,956.6594
7.693995476,2.551678,0.5383689,0.8034461,1.011922,-0.1927758,0.02992766,-35.36232,-0.5822101,-27.58187,956.6594
7.703990459,3.105477,0.5977212,0.9253877,1.012271,-0.1854973,0.02801087,-35.36232,-0.5822101,-27.58187,956.6594
7.713986397,3.35161,0.4790165,0.8644169,1.009891,-0.1884469,0.02945151,-35.36232,-0.5822101,-27.58187,956.6561
7.723981857,3.905409,0.716426,0.9863584,1.010748,-0.1820688,0.03423413,-35.36232,-0.5822101,-27.58187,956.6561
7.733977318,3.905409,0.9538354,0.8034461,1.009278,-0.1815988,0.0356723,-35.36232,-0.5822101,-27.58187,956.6561
7.743973255,3.597743,1.131893,0.5595631,1.006813,-0.1802335,0.03089048,-35.36091,-0.5849342,-27.90437,956.6561
7.753968716,3.413143,1.30995,0.3766508,1.010657,-0.1772068,0.03471161,-35.36091,-0.5849342,-27.90437,956.6553
7.763963699,2.797811,1.784769,0.1937385,1.010684,-0.1786729,0.03375479,-35.36091,-0.5849342,-27.90437,956.6553
7.773959637,2.120945,2.081531,-0.1111153,1.013128,-0.1791105,0.03375064,-35.36091,-0.5849342,-27.90437,956.6553
7.783955097,1.813279,2.081531,-0.3549984,1.008304,-0.1815961,0.03806688,-35.36091,-0.5849342,-27.90437,956.6553
7.793950558,1.936346,2.378292,-0.5379106,1.012677,-0.1810895,0.03088048,-34.99234,-0.2050347,-28.29062,956.6575
7.803946495,2.367078,2.615702,-0.5988814,1.011657,-0.1786712,0.03183879,-34.99234,-0.2050347,-28.29062,956.6575
7.813941479,2.859344,2.615702,-0.7208229,1.00981,-0.1840487,0.03232197,-34.99234,-0.2050347,-28.29062,956.6575
7.823936939,2.982411,2.912464,-0.5988814,1.010822,-0.1859066,0.03949932,-34.99234,-0.2050347,-28.29062,956.6575
7.833932877,2.920877,2.793759,-0.5379106,1.007772,-0.1791637,0.0395029,-34.99234,-0.2050347,-28.29062,956.6564
7.843928337,2.305545,2.675054,-0.4159691,1.00336,-0.1778282,0.03568165,-35.36063,-0.5854793,-27.96887,956.6564
7.853923798,1.628679,2.971816,-0.5379106,1.005749,-0.17536,0.03471969,-35.36063,-0.5854793,-27.96887,956.6564
7.863919735,1.013347,2.912464,-0.2330568,1.000933,-0.178362,0.03568601,-35.36063,-0.5854793,-27.96887,956.6564
7.873914719,0.705681,2.734407,-0.3549984,1.004902,-0.1821887,0.03376577,-35.36063,-0.5854793,-27.96887,956.6557
7.883910179,0.5826145,2.615702,-0.2940276,1.003476,-0.1842089,0.02850444,-35.36063,-0.5854793,-27.96887,956.6557
7.893906116,0.8287475,2.55635,-0.4159691,1.007905,-0.1865511,0.02849733,-35.35921,-0.588203,-28.29138,956.6557
7.903901577,1.136414,2.496997,-0.4769399,1.009919,-0.1898778,0.03232328,-35.35921,-0.588203,-28.29138,956.6557
7.913897037,1.44408,2.496997,-0.4769399,1.013326,-0.1898894,0.02370298,-35.35921,-0.588203,-28.29138,956.6563
7.923892975,1.628679,2.793759,-0.5988814,1.00978,-0.1826485,0.02610017,-35.35921,-0.588203,-28.29138,956.6563
7.933887959,1.382547,2.734407,-0.6598521,1.006793,-0.1793234,0.02419022,-35.35921,-0.588203,-28.29138,956.6563
7.943883419,1.07488,2.615702,-0.5988814,1.000479,-0.1804288,0.02324436,-34.99234,-0.2050347,-28.29062,956.6563
7.953879356,0.4595481,2.496997,-0.6598521,1.000037,-0.1828629,0.02372433,-34.99234,-0.2050347,-28.29062,956.6552
7.963874817,0.1518819,2.437645,-0.4159691,0.9955348,-0.1766346,0.02373058,-34.99234,-0.2050347,-28.29062,956.6552
7.973870277,-0.094251,2.140883,-0.4769399,0.9970677,-0.1805357,0.01894315,-34.99234,-0.2050347,-28.29062,956.6552
7.983866215,-0.2788507,1.784769,-0.5988814,0.9970496,-0.1795598,0.01942151,-34.99234,-0.2050347,-28.29062,956.6552
7.993861198,-0.2788507,1.369302,-0.5988814,0.9956597,-0.183523,0.01416061,-35.35107,-0.9691038,-28.35385,956.6558
8.003856659,-0.2173175,0.9538354,-0.7208229,1.00156,-0.1863133,0.0151082,-35.35107,-0.9691038,-28.35385,956.6558
8.013852596,0.1518819,0.6570736,-0.8427644,0.9941873,-0.1831276,0.007463013,-35.35107,-0.9691038,-28.35385,956.6558
8.023848057,0.2749484,0.5977212,-1.086647,0.9962562,-0.1893469,0.0136825,-35.35107,-0.9691038,-28.35385,956.6558
8.033843517,1.07488,0.4790165,-1.147618,0.9977154,-0.1893839,0.006501322,-35.35107,-0.9691038,-28.35385,956.655
8.043839455,1.690213,0.1822547,-1.391501,0.9924862,-0.1962509,0.01081939,-34.28761,-0.9644036,-28.73297,956.655
8.053834438,2.182479,0.004197581,-1.513443,0.9973007,-0.1932972,0.004588748,-34.28761,-0.9644036,-28.73297,956.655
8.063829899,2.613211,-0.2925643,-1.574414,1.000648,-0.1897987,0.007932045,-34.28761,-0.9644036,-28.73297,956.655
8.073825359,2.551678,-0.5299737,-1.391501,1.001493,-0.1830052,0.005057365,-34.28761,-0.9644036,-28.73297,956.6556
8.083821297,2.551678,-0.6486785,-1.208589,1.003469,-0.184424,0.005054286,-34.28761,-0.9644036,-28.73297,956.6556
8.093816757,1.874812,-1.123497,-0.7817937,1.005815,-0.17947,0.01031326,-34.60328,-0.9602103,-27.96129,956.6556
8.103811741,1.07488,-1.301555,-0.2940276,1.000888,-0.1766867,0.006492522,-34.60328,-0.9602103,-27.96129,956.6556
8.113807678,-0.7095833,-1.717021,0.4376215,1.00842,-0.1623491,0.01700437,-34.60328,-0.9602103,-27.96129,956.6563
8.123803139,-2.617113,-2.19184,1.230241,1.008401,-0.1614039,0.01413271,-34.60328,-0.9602103,-27.96129,956.6563
8.133798599,-4.278511,-2.844716,1.90092,1.005137,-0.1692566,0.01270469,-34.60328,-0.9602103,-27.96129,956.6563
8.143794537,-4.770776,-3.497592,2.327715,1.007616,-0.1717076,0.005043782,-34.60945,-0.5831232,-28.35032,956.6563
8.153789520,-5.201509,-4.20982,2.510627,1.002249,-0.1713101,0.00696734,-34.60945,-0.5831232,-28.35032,956.6555
8.163784981,-5.386109,-4.565935,2.449656,1.003324,-0.1766167,0.008881137,-34.60945,-0.5831232,-28.35032,956.6555
8.173780918,-5.01691,-4.862697,2.083832,1.005456,-0.1862539,0.01318708,-34.60945,-0.5831232,-28.35032,956.6555
8.183776379,-4.46311,-5.100106,1.96189,1.00448,-0.1863302,0.006967318,-35.3448,-1.285522,-28.28766,956.6555
8.193771839,-4.278511,-5.159458,1.474125,1.000862,-0.1751724,0.01271367,-35.3448,-1.285522,-28.28766,956.6544
8.203767777,-4.093911,-4.981401,0.7424754,1.006826,-0.181385,0.01126914,-35.3448,-1.285522,-28.28766,956.6544
8.213762760,-3.540112,-4.684639,-0.05014454,1.006314,-0.1798627,0.01940543,-35.3448,-1.285522,-28.28766,956.6544
8.223758221,-3.047846,-4.20982,-0.4159691,1.00966,-0.1763994,0.01892013,-35.3448,-1.285522,-28.28766,956.6544
8.233754158,-2.74018,-3.913059,-1.208589,1.009641,-0.1754454,0.01700562,-35.73537,-0.5882916,-27.97165,956.655
8.243749619,-2.92478,-3.616297,-1.635384,1.008227,-0.1778417,0.02370876,-35.73537,-0.5882916,-27.97165,956.655
8.253745079,-3.047846,-3.43824,-2.001209,1.009119,-0.1734549,0.0232275,-35.73537,-0.5882916,-27.97165,956.655
8.263741016,-2.986313,-3.260183,-2.245092,1.0092,-0.1778707,0.01844274,-35.73537,-0.5882916,-27.97165,956.655
8.273736000,-3.047846,-3.319535,-2.306063,1.002941,-0.1818512,0.02180471,-35.73537,-0.5882916,-27.97165,956.6556
8.283731461,-2.92478,-3.497592,-2.671887,1.008411,-0.1874998,0.02993242,-34.99544,-0.1990418,-27.58112,956.6556
8.293727398,-2.617113,-3.319535,-2.976741,1.010758,-0.1825239,0.03758426,-34.99544,-0.1990418,-27.58112,956.6556
8.303722858,-2.74018,-3.378887,-3.159653,1.013662,-0.1814946,0.03757893,-34.99544,-0.1990418,-27.58112,956.6556
8.313718319,-3.109379,-3.319535,-3.159653,1.011812,-0.1869599,0.02849062,-34.99544,-0.1990418,-27.58112,956.6531
8.323714256,-3.232446,-2.963421,-3.342566,1.011876,-0.1903602,0.02849139,-34.99544,-0.1990418,-27.58112,956.6531
8.333709240,-3.109379,-2.785364,-3.525478,1.015421,-0.19761,0.02513704,-34.98757,-0.5793977,-27.57909,956.6531
8.343704701,-2.92478,-2.251192,-3.403537,1.016323,-0.1936915,0.02657019,-34.98757,-0.5793977,-27.57909,956.6531
8.353700638,-2.92478,-1.895078,-3.403537,1.017775,-0.1931637,0.02800325,-34.98757,-0.5793977,-27.57909,956.6498
8.363696098,-2.801713,-1.301555,-3.281595,1.017316,-0.1945999,0.03135445,-34.98757,-0.5793977,-27.57909,956.6498
8.373691559,-2.863246,-1.004793,-3.098683,1.020285,-0.1969621,0.03230703,-34.98757,-0.5793977,-27.57909,956.6498
8.383687496,-2.74018,-0.7080309,-2.732858,1.020403,-0.2033034,0.02943701,-35.35615,-0.9592972,-27.19284,956.6498
8.393682480,-2.92478,-0.5299737,-2.367033,1.019403,-0.2018127,0.03518128,-35.35615,-0.9592972,-27.19284,956.6504
8.403677940,-3.232446,-0.2332119,-2.06218,1.010091,-0.1991424,0.02849676,-35.35615,-0.9592972,-27.19284,956.6504
8.413673878,-3.417045,-0.1738595,-1.818297,1.005293,-0.2031291,0.02802758,-35.35615,-0.9592972,-27.19284,956.6504
8.423669338,-3.540112,-0.05515479,-1.391501,1.005717,-0.1997016,0.02994025,-35.35615,-0.9592972,-27.19284,956.6504
8.433664799,-3.970845,0.004197581,-1.147618,1.015432,-0.1980431,0.03088005,-35.37188,-0.1985855,-27.1969,956.651
8.443660736,-3.970845,-0.05515479,-0.9037352,1.014142,-0.2073497,0.02562035,-35.37188,-0.1985855,-27.1969,956.651
8.453655720,-3.847778,0.2416071,-0.7208229,1.019968,-0.2063197,0.01938844,-35.37188,-0.1985855,-27.1969,956.651
8.463651657,-2.863246,0.4196641,-0.7208229,1.019453,-0.2048852,0.01795324,-35.37188,-0.1985855,-27.1969,956.651
8.473647118,-2.247914,0.4790165,-0.5988814,1.018469,-0.2044231,0.01747626,-35.37188,-0.1985855,-27.1969,956.6519
8.483642578,-1.694115,0.6570736,-0.4159691,1.016963,-0.2020056,0.01939257,-35.73089,-0.9621096,-27.19562,956.6519
8.493638516,-1.201849,0.9538354,0.01082622,1.016483,-0.2025493,0.01412921,-35.73089,-0.9621096,-27.19562,956.6519
8.503633976,-0.8326498,0.9538354,0.31568,1.014528,-0.2020406,0.02083256,-35.73089,-0.9621096,-27.19562,956.6519
8.513628960,-0.7095833,1.250597,0.6205339,1.014987,-0.2005825,0.01987422,-35.73089,-0.9621096,-27.19562,956.6525
8.523624897,-0.9557163,1.131893,0.9253877,1.013975,-0.1986938,0.01604689,-35.73089,-0.9621096,-27.19562,956.6525
8.533620358,-1.263382,1.191245,1.474125,1.023646,-0.1945669,0.02129331,-35.36849,-0.2051234,-27.9709,956.6525
8.543615818,-1.571049,1.250597,1.413154,1.018343,-0.1975829,0.02178191,-35.36849,-0.2051234,-27.9709,956.6525
8.553611755,-1.694115,1.30995,1.535095,1.018757,-0.1936872,0.02178018,-35.36849,-0.2051234,-27.9709,956.6531
8.563607216,-1.755648,1.30995,1.718008,1.014481,-0.1996513,0.01652484,-35.36849,-0.2051234,-27.9709,956.6531
8.573602200,-1.447982,1.131893,1.535095,1.009057,-0.1964227,0.009354819,-35.36849,-0.2051234,-27.9709,956.6531
8.583598137,-0.5249836,1.191245,1.291212,1.010574,-0.1992688,0.01366009,-34.98927,-0.576129,-27.19209,956.6531
8.593593598,0.4595481,1.131893,0.9863584,1.012549,-0.2007008,0.01222129,-34.98927,-0.576129,-27.19209,956.6541
8.603589058,1.690213,1.07254,0.5595631,1.009673,-0.2031786,0.01318409,-34.98927,-0.576129,-27.19209,956.6541
8.613584995,2.736278,1.131893,0.3766508,1.010692,-0.2056101,0.01079006,-34.98927,-0.576129,-27.19209,956.6541
8.623580456,3.597743,1.30995,-0.05014454,1.013551,-0.2021432,0.01174134,-34.98927,-0.576129,-27.19209,956.6541
8.633575439,4.213075,1.30995,-0.1720861,1.009627,-0.2007585,0.0122264,-35.75448,0.1789579,-27.20171,956.6564
8.643571377,4.828408,1.488007,-0.2330568,1.016916,-0.1996163,0.01508485,-35.75448,0.1789579,-27.20171,956.6564
8.653566837,4.951474,1.725416,-0.1111153,1.012846,-0.1904507,0.01652532,-35.75448,0.1789579,-27.20171,956.6564
8.663562298,4.213075,1.784769,0.1327677,1.014261,-0.1880325,0.01221504,-35.75448,0.1789579,-27.20171,956.6564
8.673558235,3.720809,1.666064,0.6205339,1.012709,-0.1831818,0.01460938,-35.75448,0.1789579,-27.20171,956.6569
8.683553219,3.105477,1.191245,1.047329,1.004861,-0.1803817,0.01892952,-35.37188,-0.1985855,-27.1969,956.6569
8.693548679,2.797811,0.8944831,1.596066,1.002517,-0.1853006,0.01749915,-35.37188,-0.1985855,-27.1969,956.6569
8.703544617,2.305545,0.5383689,1.657037,1.002941,-0.1818643,0.02036898,-35.37188,-0.1985855,-27.1969,956.6569
8.713540077,1.813279,0.2416071,1.718008,0.9987118,-0.1902133,0.01989993,-35.37188,-0.1985855,-27.1969,956.6519
8.723535538,1.628679,0.06354995,1.718008,1.006488,-0.1890571,0.02323611,-35.37188,-0.1985855,-27.1969,956.6519
8.733531475,1.197947,0.1229023,1.657037,1.004521,-0.1881416,0.02132499,-35.35276,-0.9658351,-27.96685,956.6519
8.743526459,0.9518139,0.2416071,1.657037,1.005044,-0.1901057,0.01797456,-35.35276,-0.9658351,-27.96685,956.6519
8.753521919,0.6441478,0.3603118,1.596066,1.013803,-0.1894336,0.01939484,-35.35276,-0.9658351,-27.96685,956.6525
8.763517857,0.3980148,0.4790165,1.535095,1.009335,-0.1852098,0.01270148,-35.35276,-0.9658351,-27.96685,956.6525
8.773513317,0.5210813,0.8944831,1.535095,1.004898,-0.1823248,0.01892996,-35.35276,-0.9658351,-27.96685,956.6525
8.783508778,0.9518139,0.5383689,1.596066,1.007782,-0.1803766,0.01318152,-35.72919,-0.9653783,-27.58263,956.6525
8.793504715,1.567146,0.5977212,1.291212,1.005882,-0.1827781,0.02036409,-35.72919,-0.9653783,-27.58263,956.6534
8.803499699,2.120945,0.6570736,0.9863584,1.004016,-0.1871797,0.02132563,-35.72919,-0.9653783,-27.58263,956.6534
8.813495636,2.244012,0.6570736,0.5595631,1.00941,-0.1890256,0.02035955,-35.72919,-0.9653783,-27.58263,956.6534
8.823491096,2.367078,0.716426,0.4376215,1.007361,-0.1837383,0.01844745,-36.49271,-0.2135611,-27.97925,956.6534
8.833486557,1.751746,0.8351307,0.1327677,1.00775,-0.1782932,0.02849547,-36.49271,-0.2135611,-27.97925,956.6523
8.843482494,1.628679,1.07254,-0.1720861,1.007794,-0.1807702,0.0232317,-36.49271,-0.2135611,-27.97925,956.6523
8.853477955,1.382547,0.8351307,-0.5988814,1.004926,-0.1837733,0.01988744,-36.49271,-0.2135611,-27.97925,956.6523
8.863472939,1.382547,0.8944831,-0.7817937,1.002923,-0.180884,0.02132591,-36.49271,-0.2135611,-27.97925,956.6523
8.873468876,1.321013,1.07254,-0.8427644,0.9989439,-0.1765892,0.02133174,-35.37019,-0.2018542,-27.5839,956.6489
8.883464336,1.382547,1.07254,-1.330531,0.9980064,-0.1785427,0.02229103,-35.37019,-0.2018542,-27.5839,956.6489
8.893459797,1.505613,1.07254,-1.513443,1.001435,-0.1794293,0.02419959,-35.37019,-0.2018542,-27.5839,956.6489
8.903455734,1.567146,1.250597,-1.574414,1.003335,-0.1770454,0.01510272,-35.37019,-0.2018542,-27.5839,956.6489
8.913451195,1.197947,0.9538354,-1.635384,1.006709,-0.1750042,0.01844634,-35.37019,-0.2018542,-27.5839,956.6495
8.923446178,1.07488,0.9538354,-1.635384,1.00239,-0.178478,0.01989049,-35.36063,-0.5854793,-27.96887,956.6495
8.933442116,0.8902807,0.9538354,-1.757326,0.9999071,-0.1761412,0.01510846,-35.36063,-0.5854793,-27.96887,956.6495
8.943437576,0.3980148,0.7757784,-1.818297,1.008143,-0.17354,0.01605058,-35.36063,-0.5854793,-27.96887,956.6495
8.953433037,-0.03271778,0.6570736,-2.001209,1.006726,-0.1760197,0.01366081,-35.36063,-0.5854793,-27.96887,956.6505
8.963428974,-0.3403839,0.5977212,-2.245092,1.014685,-0.1845874,0.01604202,-35.36063,-0.5854793,-27.96887,956.6505
8.973424435,-0.2173175,0.716426,-2.610917,1.012229,-0.1837255,0.009346019,-34.97971,-0.9597535,-27.57707,956.6505
8.983419418,0.2749484,0.8351307,-2.793829,1.011253,-0.1838018,0.003126252,-34.97971,-0.9597535,-27.57707,956.6505
8.993415356,1.136414,0.5977212,-3.098683,1.00587,-0.1823626,0.01270679,-34.97971,-0.9597535,-27.57707,956.6494
9.003410816,1.567146,0.5977212,-3.159653,1.002994,-0.1848404,0.01366959,-34.97971,-0.9597535,-27.57707,956.6494
9.013406277,2.244012,0.2416071,-3.464507,1.003056,-0.1882802,0.009363183,-34.97971,-0.9597535,-27.57707,956.6494
9.023402214,2.920877,0.004197581,-3.70839,1.000619,-0.1883722,0.004581694,-35.36063,-0.5854793,-27.96887,956.6494
9.033397675,3.16701,-0.1738595,-3.830332,1.001118,-0.1887562,0.01463102,-35.36063,-0.5854793,-27.96887,956.6483
9.043393612,3.35161,-0.1738595,-3.891303,0.9963108,-0.1922659,0.01320458,-35.36063,-0.5854793,-27.96887,956.6483
9.053388596,3.105477,-0.4706214,-3.70839,1.001136,-0.189754,0.01175979,-35.36063,-0.5854793,-27.96887,956.6483
9.063384056,2.797811,-0.5299737,-3.525478,1.003545,-0.1882223,0.01462665,-35.36063,-0.5854793,-27.96887,956.6483
9.073379993,2.305545,-0.5893261,-3.220624,1.003571,-0.1897366,0.008405509,-35.72919,-0.9653783,-27.58263,956.6492
9.083375454,2.059412,-0.5893261,-2.793829,1.009379,-0.1876913,0.006959129,-35.72919,-0.9653783,-27.58263,956.6492
9.093370914,1.874812,-0.886088,-2.245092,1.006944,-0.1877262,0.008399111,-35.72919,-0.9653783,-27.58263,956.6492
9.103366852,1.321013,-1.123497,-1.513443,1.007368,-0.1842943,0.01079037,-35.72919,-0.9653783,-27.58263,956.6492
9.113361836,1.013347,-1.479612,-0.8427644,1.00928,-0.182304,0.01174367,-35.72919,-0.9653783,-27.58263,956.6441
9.123357296,0.9518139,-1.95443,-0.3549984,1.008443,-0.1895789,0.01509704,-35.34791,-1.279529,-27.57816,956.6441
9.133353233,0.8902807,-2.310545,-0.2330568,1.010329,-0.1861269,0.01652859,-35.34791,-1.279529,-27.57816,956.6441
9.143348694,1.07488,-2.547954,0.01082622,1.013837,-0.1914424,0.01221666,-35.34791,-1.279529,-27.57816,956.6441
9.153344154,1.321013,-2.726011,0.07179698,1.013387,-0.1933863,0.0131751,-35.34791,-1.279529,-27.57816,956.6487
9.163340092,1.25948,-2.785364,-0.1111153,1.013821,-0.1904183,0.01795934,-35.34791,-1.279529,-27.57816,956.6487
9.173335075,1.44408,-2.607306,-0.05014454,1.012946,-0.1958204,0.01365507,-35.36063,-0.5854793,-27.96887,956.6487
9.183331013,1.751746,-2.904068,-0.1720861,1.009959,-0.1924953,0.01174512,-35.36063,-0.5854793,-27.96887,956.6487
9.193326473,2.059412,-2.726011,-0.2330568,1.006082,-0.1934868,0.01797362,-35.36063,-0.5854793,-27.96887,956.6476
9.203321934,2.613211,-2.369897,-0.3549984,1.00801,-0.1925339,0.01174852,-35.36063,-0.5854793,-27.96887,956.6476
9.213317871,3.16701,-2.488602,-0.4159691,1.007505,-0.1915544,0.01366345,-35.36063,-0.5854793,-27.96887,956.6476
9.223313332,3.843876,-2.547954,-0.2940276,1.008083,-0.1964156,0.01222797,-34.97971,-0.9597535,-27.57707,956.6476
9.233308315,4.582274,-2.251192,-0.1111153,1.015409,-0.1972076,0.01604401,-34.97971,-0.9597535,-27.57707,956.6469
9.243304253,5.505273,-2.132488,0.1327677,1.011946,-0.1943165,0.02083507,-34.97971,-0.9597535,-27.57707,956.6469
9.253299713,6.182138,-2.251192,0.07179698,1.017304,-0.1942238,0.01938997,-34.97971,-0.9597535,-27.57707,956.6469
9.263295174,6.551338,-2.19184,0.4985923,1.012775,-0.1865207,0.02131019,-34.97971,-0.9597535,-27.57707,956.6469
9.273291111,5.751406,-2.310545,0.8034461,1.01612,-0.1830618,0.02034632,-36.11011,-0.5911045,-27.97444,956.6458
9.283286572,4.889941,-2.19184,1.169271,1.012684,-0.1816455,0.0232234,-36.11011,-0.5911045,-27.97444,956.6458
9.293281555,4.459208,-2.42925,1.535095,1.017482,-0.1776764,0.02177828,-36.11011,-0.5911045,-27.97444,956.6458
9.303277493,3.905409,-2.369897,1.839949,1.014615,-0.180618,0.02513407,-36.11011,-0.5911045,-27.97444,956.6458
9.313272953,3.597743,-2.073135,2.205774,1.022488,-0.184906,0.01746423,-36.11011,-0.5911045,-27.97444,956.6464
9.323268890,3.53621,-1.95443,2.266744,1.017553,-0.181602,0.01747198,-35.72919,-0.9653783,-27.58263,956.6464
9.333264351,3.53621,-1.657669,2.449656,1.020928,-0.179552,0.02177276,-35.72919,-0.9653783,-27.58263,956.6464
9.343259335,3.53621,-1.598316,2.510627,1.017517,-0.1796414,0.01938585,-35.72919,-0.9653783,-27.58263,956.6464
9.353255749,3.720809,-1.479612,2.449656,1.017426,-0.1747969,0.01794903,-35.72919,-0.9653783,-27.58263,956.6456
9.363250733,3.905409,-1.18285,2.449656,1.009218,-0.1788334,0.0194001,-35.72919,-0.9653783,-27.58263,956.6456
9.373246193,4.274609,-1.123497,2.632569,1.009182,-0.1768992,0.01844252,-35.72265,-1.282341,-27.58094,956.6456
9.383242130,4.397675,-1.123497,2.449656,1.008648,-0.1744975,0.01652853,-35.72265,-1.282341,-27.58094,956.6456
9.393237591,4.336142,-0.886088,2.205774,1.012563,-0.1754009,0.01556478,-35.72265,-1.282341,-27.58094,956.6445
9.403232575,4.397675,-0.5893261,1.96189,1.014908,-0.1704864,0.01651658,-35.72265,-1.282341,-27.58094,956.6445
9.413228989,3.659276,-0.5299737,2.022861,1.012896,-0.1671069,0.01843352,-35.72265,-1.282341,-27.58094,956.6445
9.423223972,3.043944,-0.6486785,2.205774,1.016903,-0.1728415,0.02034232,-35.72265,-1.282341,-27.58094,956.6445
9.433219910,2.490145,-0.5893261,2.327715,1.015937,-0.1733773,0.01699411,-35.72265,-1.282341,-27.58094,956.6451
9.443215370,2.490145,-0.2332119,2.022861,1.014448,-0.1719533,0.01651776,-35.72265,-1.282341,-27.58094,956.6451
9.453210831,2.736278,0.06354995,1.90092,1.010495,-0.169142,0.01365247,-35.72265,-1.282341,-27.58094,956.6451
9.463206768,3.043944,0.3603118,1.657037,1.008564,-0.1701784,0.01078465,-36.48038,-0.9677348,-27.20119,956.6451
9.473202229,2.920877,0.4790165,1.596066,1.011875,-0.1647413,0.01364893,-36.48038,-0.9677348,-27.20119,956.6443
9.483197212,2.490145,0.5383689,1.657037,1.008881,-0.1608471,0.02083179,-36.48038,-0.9677348,-27.20119,956.6443
9.493193150,1.751746,0.4790165,1.778978,1.00509,-0.1668805,0.006961247,-36.48038,-0.9677348,-27.20119,956.6443
9.503188610,1.013347,0.3603118,1.596066,1.00481,-0.1517341,0.01652936,-36.48038,-0.9677348,-27.20119,956.6443
9.513184071,-0.094251,0.4790165,1.535095,1.005902,-0.1580342,0.0160505,-35.72265,-1.282341,-27.58094,956.645
9.523180008,-1.078783,0.3009594,1.230241,1.007859,-0.158499,0.0141329,-35.72265,-1.282341,-27.58094,956.645
9.533174992,-1.694115,0.4790165,0.7424754,1.003113,-0.1654837,0.004571454,-35.72265,-1.282341,-27.58094,956.645
9.543171406,-1.878715,0.3009594,0.4985923,1.012378,-0.1657515,0.008383978,-35.72265,-1.282341,-27.58094,956.645
9.553166390,-1.878715,0.6570736,-0.1111153,1.014879,-0.1690861,0.01029478,-35.72265,-1.282341,-27.58094,956.6473
9.563161850,-2.124848,0.8351307,-0.5379106,1.009961,-0.1667843,0.006952731,-35.72265,-1.282341,-27.58094,956.6473
9.573157787,-2.063314,0.7757784,-0.7817937,1.012404,-0.167279,0.0007271111,-35.72265,-1.282341,-27.58094,956.6473
9.583153248,-2.309447,0.7757784,-1.452472,1.007597,-0.1707668,0.001693541,-35.72265,-1.282341,-27.58094,956.6473
9.593148232,-2.063314,0.8351307,-1.696355,1.004757,-0.1751613,0.005528231,-35.72265,-1.282341,-27.58094,956.6495
9.603144646,-1.571049,0.8351307,-2.123151,1.002753,-0.1723071,0.003138109,-35.72265,-1.282341,-27.58094,956.6495
9.613139629,-1.447982,0.8351307,-2.428004,1.010638,-0.1770239,0.001689851,-36.47699,-0.9742727,-27.97519,956.6495
9.623135090,-1.632582,0.7757784,-2.488975,1.007157,-0.1731481,0.00791641,-36.47699,-0.9742727,-27.97519,956.6495
9.633131027,-2.063314,0.9538354,-2.367033,1.006707,-0.1750876,0.009353422,-36.47699,-0.9742727,-27.97519,956.6505
9.643126488,-2.74018,0.9538354,-2.610917,1.010998,-0.1701917,0.004080344,-36.47699,-0.9742727,-27.97519,956.6505
9.653122425,-3.601645,0.7757784,-2.488975,1.010006,-0.169235,0.004560404,-36.47699,-0.9742727,-27.97519,956.6505
9.663117886,-4.401577,0.8944831,-2.428004,1.008644,-0.1746336,0.001692711,-36.10394,-0.9681911,-27.58541,956.6505
9.673112869,-5.447642,0.8351307,-2.610917,1.007184,-0.1746273,0.005523864,-36.10394,-0.9681911,-27.58541,956.6528
9.683108807,-5.755308,0.7757784,-2.488975,1.005253,-0.1756549,0.00361319,-36.10394,-0.9681911,-27.58541,956.6528
9.693104267,-5.878375,0.7757784,-2.549946,1.006235,-0.1761741,-0.0021313,-36.10394,-0.9681911,-27.58541,956.6528
9.703099728,-5.693775,0.4790165,-2.488975,1.00529,-0.1775892,0.004570776,-36.10394,-0.9681911,-27.58541,956.6528
9.713095665,-5.570708,0.4196641,-2.428004,1.004481,-0.1863083,0.00936019,-35.72919,-0.9653783,-27.58263,956.6552
9.723090649,-5.447642,0.3603118,-2.671887,1.000049,-0.1840319,0.00218869,-35.72919,-0.9653783,-27.58263,956.6552
9.733087063,-5.201509,0.3603118,-2.610917,0.9991398,-0.1874252,0.005062606,-35.72919,-0.9653783,-27.58263,956.6552
9.743082046,-5.078443,0.2416071,-3.037712,1.005005,-0.1882373,0.009838351,-35.72919,-0.9653783,-27.58263,956.6552
9.753077507,-4.709243,0.004197581,-3.037712,0.9976952,-0.1884738,-0.0001989425,-35.72919,-0.9653783,-27.58263,956.6561
9.763073444,-4.46311,0.1822547,-3.098683,1.005055,-0.1912792,-0.00403966,-35.72919,-0.9653783,-27.58263,956.6561
9.773068905,-4.46311,0.06354995,-3.342566,1.001115,-0.1888483,0.004580952,-35.72919,-0.9653783,-27.58263,956.6561
9.783063888,-4.340044,0.2416071,-3.220624,0.9963068,-0.1923888,-0.0001955143,-35.72919,-0.9653783,-27.58263,956.6561
9.793060303,-4.278511,0.1229023,-3.220624,0.9963623,-0.1952814,0.002198014,-35.72919,-0.9653783,-27.58263,956.6566
9.803055286,-4.216978,0.004197581,-2.91577,0.9973108,-0.1937522,0.007938879,-35.72919,-0.9653783,-27.58263,956.6566
9.813051224,-4.401577,-0.1145072,-2.428004,0.9933566,-0.190998,-0.001147881,-36.10394,-0.9681911,-27.58541,956.6566
9.823046684,-4.955376,-0.4706214,-1.879267,0.988828,-0.1832686,0.003643783,-36.10394,-0.9681911,-27.58541,956.6566
9.833042145,-5.755308,-0.8267356,-0.9037352,0.9893774,-0.1867076,-0.001620625,-36.10394,-0.9681911,-27.58541,956.6589
9.843038082,-6.493707,-1.360907,-0.05014454,0.9897637,-0.1813677,-0.003058402,-36.10394,-0.9681911,-27.58541,956.6589
9.853033066,-7.355172,-1.835726,0.8034461,0.99164,-0.1774168,-0.0001912339,-36.10394,-0.9681911,-27.58541,956.6589
9.863028526,-8.401237,-2.42925,1.413154,0.9882653,-0.1794711,-0.004970583,-36.47213,-1.287967,-27.5865,956.6589
9.873024464,-9.139636,-3.082125,2.388686,0.9898167,-0.1843393,-0.009279218,-36.47213,-1.287967,-27.5865,956.6595
9.883019924,-10.24723,-3.794354,3.120335,0.9989989,-0.180266,-0.008817698,-36.47213,-1.287967,-27.5865,956.6595
9.893015861,-10.30877,-4.387877,3.608101,0.9986307,-0.1865818,-0.007858278,-36.47213,-1.287967,-27.5865,956.6595
9.903011322,-10.06263,-4.862697,3.730042,1.004575,-0.1918535,-0.01265304,-36.47213,-1.287967,-27.5865,956.6595
9.913006306,-9.078103,-5.337515,3.791013,1.002166,-0.1933765,-0.01456276,-35.35615,-0.9592972,-27.19284,956.6605
9.923002720,-8.401237,-5.69363,3.791013,1.004628,-0.194812,-0.01743814,-35.35615,-0.9592972,-27.19284,956.6605
9.932997704,-8.032038,-6.049744,3.669072,1.010004,-0.1957128,-0.02127588,-35.35615,-0.9592972,-27.19284,956.6605
9.942993164,-7.539772,-6.287153,3.669072,1.011374,-0.1908219,-0.02080095,-35.35615,-0.9592972,-27.19284,956.6605
9.952989101,-6.862906,-6.346506,3.059364,1.012386,-0.192715,-0.0174522,-35.35615,-0.9592972,-27.19284,956.6594
9.962984562,-5.570708,-6.227801,2.69354,1.012825,-0.1903292,-0.02319649,-35.35615,-0.9592972,-27.19284,956.6594
9.972979546,-4.524643,-6.46521,2.083832,1.015913,-0.1989888,-0.02032819,-35.35615,-0.9592972,-27.19284,956.6594
9.982975960,-3.663178,-6.583915,1.657037,1.021118,-0.1905768,-0.01507509,-35.35615,-0.9592972,-27.19284,956.6594
9.992970943,-3.540112,-6.46521,1.413154,1.015814,-0.1936016,-0.01554364,-35.35615,-0.9592972,-27.19284,956.6583
10.002966881,-3.663178,-6.227801,1.169271,1.019611,-0.188168,-0.01411593,-35.35615,-0.9592972,-27.19284,956.6583
10.012962341,-4.032378,-6.168448,1.1083,1.021055,-0.1871545,-0.01268298,-36.4978,-0.2037544,-26.81824,956.6583
10.022957802,-4.586177,-6.287153,0.9863584,1.019088,-0.1862302,-0.01363694,-36.4978,-0.2037544,-26.81824,956.6583
10.032953739,-4.64771,-6.346506,1.169271,1.027387,-0.1870206,-0.0117369,-36.4978,-0.2037544,-26.81824,956.6575
10.042948723,-4.770776,-6.346506,1.230241,1.027938,-0.1904332,-0.01412986,-36.4978,-0.2037544,-26.81824,956.6575
10.052945137,-4.893843,-6.405858,1.291212,1.029454,-0.1933058,-0.01269604,-36.4978,-0.2037544,-26.81824,956.6575
10.062940121,-4.524643,-6.287153,1.291212,1.02848,-0.1933206,-0.01221576,-36.50566,0.1766019,-26.82026,956.6575
10.072935581,-4.46311,-6.287153,1.352183,1.036817,-0.1960277,-0.007443838,-36.50566,0.1766019,-26.82026,956.6564
10.082931519,-3.909311,-6.168448,1.413154,1.036889,-0.1999357,-0.009835838,-36.50566,0.1766019,-26.82026,956.6564
10.092926979,-3.540112,-5.752982,1.413154,1.033473,-0.1994427,-0.001694216,-36.50566,0.1766019,-26.82026,956.6564
10.102921963,-3.355512,-5.100106,1.413154,1.036451,-0.2022776,0.0006942025,-36.12644,-0.1944041,-26.04146,956.6564
10.112918377,-2.678647,-4.862697,1.291212,1.034932,-0.1994577,-0.006482518,-36.12644,-0.1944041,-26.04146,956.6553
10.122913361,-2.124848,-4.44723,0.6205339,1.039299,-0.1983689,-0.003140378,-36.12644,-0.1944041,-26.04146,956.6553
10.132909298,-1.201849,-3.497592,0.1327677,1.045769,-0.2055126,-0.001235513,-36.12644,-0.1944041,-26.04146,956.6553
10.142904758,-0.1557842,-2.904068,-0.2940276,1.044343,-0.2075153,-0.004582544,-36.12644,-0.1944041,-26.04146,956.6553
10.152900219,1.382547,-2.132488,-0.9647059,1.042054,-0.2153312,-0.004097965,-36.88379,0.1803265,-26.04904,956.6545
10.162896156,2.797811,-1.301555,-1.635384,1.037155,-0.2139877,-0.006004075,-36.88379,0.1803265,-26.04904,956.6545
10.172891617,4.582274,-0.1738595,-2.123151,1.034656,-0.2106092,-0.003129133,-36.88379,0.1803265,-26.04904,956.6545
10.182886601,6.059072,0.7757784,-3.037712,1.031257,-0.211136,-0.0002516137,-36.88379,0.1803265,-26.04904,956.6545
10.192882538,7.720469,2.022178,-3.891303,1.026909,-0.2131656,-0.0002435122,-36.88379,0.1803265,-26.04904,956.6534
10.202877998,9.012668,3.090521,-4.50101,1.021927,-0.2074854,-0.005979202,-36.88548,0.1835952,-25.66204,956.6534
10.212873936,10.1818,3.802749,-4.866835,1.022378,-0.2055239,-0.005023342,-36.88548,0.1835952,-25.66204,956.6534
10.222869396,10.7356,4.752387,-4.805864,1.023741,-0.2000815,0.002630098,-36.88548,0.1835952,-25.66204,956.6534
10.232864380,10.7356,5.286559,-4.866835,1.023704,-0.1981604,0.0002367878,-36.88548,0.1835952,-25.66204,956.6541
10.242860794,10.48946,5.998787,-4.622952,1.026158,-0.1990706,0.001668472,-36.88548,0.1835952,-25.66204,956.6541
10.252855778,10.30486,6.414253,-4.622952,1.021755,-0.1982076,-0.0007169552,-36.87423,-0.2032976,-26.43402,956.6541
10.262851715,10.42793,6.651663,-4.196156,1.019841,-0.2002462,-0.006934582,-36.87423,-0.2032976,-26.43402,956.6541
10.272847176,9.997199,6.82972,-3.586449,1.018199,-0.190516,-0.002148465,-36.87423,-0.2032976,-26.43402,956.653
10.282842636,9.135734,6.82972,-3.159653,1.019631,-0.1890913,-0.008851392,-36.87423,-0.2032976,-26.43402,956.653
10.292838574,7.966602,6.711015,-2.367033,1.014255,-0.1882081,-0.006927944,-36.87423,-0.2032976,-26.43402,956.653
10.302834034,6.612871,6.770368,-1.635384,1.009898,-0.1897739,-0.009312825,-36.49332,-0.5775723,-26.04221,956.653
10.312829018,5.505273,6.770368,-0.8427644,1.009745,-0.1814457,-0.001657486,-36.49332,-0.5775723,-26.04221,956.6522
10.322824955,4.274609,6.82972,-0.5988814,1.010321,-0.1863508,-0.007878717,-36.49332,-0.5775723,-26.04221,956.6522
10.332820416,3.474676,6.651663,-0.05014454,1.00693,-0.1873897,-0.007872538,-36.49332,-0.5775723,-26.04221,956.6522
10.342816353,3.105477,6.59231,0.4376215,1.003206,-0.1967181,-0.01025652,-36.49332,-0.5775723,-26.04221,956.6522
10.352811813,3.290077,6.473606,0.9863584,1.002177,-0.1938184,-0.009776901,-36.49162,-0.5808411,-26.42921,956.6511
10.362806797,3.782343,6.117492,1.230241,1.00363,-0.1932862,-0.007865266,-36.49162,-0.5808411,-26.42921,956.6511
10.372803211,4.397675,5.82073,1.474125,1.007056,-0.1942474,-0.01409248,-36.49162,-0.5808411,-26.42921,956.6511
10.382798195,4.951474,5.58332,1.535095,1.001699,-0.1943138,-0.009775939,-36.49162,-0.5808411,-26.42921,956.6511
10.392794132,5.566806,5.405263,1.535095,0.9991798,-0.1900295,-0.01407984,-36.49162,-0.5808411,-26.42921,956.6501
10.402789593,6.120605,5.108501,1.657037,0.9991338,-0.1876139,-0.01551611,-36.47552,-1.281429,-26.81249,956.6501
10.412785053,6.366738,4.930444,1.718008,1.000991,-0.182709,-0.01456345,-36.47552,-1.281429,-26.81249,956.6501
10.422780991,6.305205,4.693035,1.839949,1.002362,-0.1778181,-0.01408853,-36.47552,-1.281429,-26.81249,956.6501
10.432776451,5.566806,4.633682,1.474125,1.003253,-0.1734446,-0.01600551,-36.47552,-1.281429,-26.81249,956.6493
10.442771435,5.197607,4.336921,1.474125,1.01067,-0.1790899,-0.0117098,-36.47552,-1.281429,-26.81249,956.6493
10.452767372,4.828408,4.396273,1.352183,1.004788,-0.1772755,-0.01313575,-36.09908,-1.281886,-27.19671,956.6493
10.462762833,4.828408,4.336921,1.1083,1.004725,-0.1738664,-0.01217936,-36.09908,-1.281886,-27.19671,956.6493
10.472758770,5.013007,4.158864,0.8644169,1.009788,-0.1839448,-0.009314135,-36.09908,-1.281886,-27.19671,956.6482
10.482754231,5.382206,4.040159,0.6205339,1.006451,-0.1878939,-0.008828726,-36.09908,-1.281886,-27.19671,956.6482
10.492750168,5.689873,4.040159,0.5595631,1.004521,-0.188917,-0.01026083,-36.09908,-1.281886,-27.19671,956.6482
10.502745628,5.812939,3.862102,0.7424754,0.9946609,-0.1827727,-0.007852338,-35.36401,-0.5789413,-27.19487,956.6482
10.512740612,5.936006,3.624692,0.8034461,0.999036,-0.1821915,-0.006902962,-35.36401,-0.5789413,-27.19487,956.6448
10.522736549,5.689873,3.149873,1.047329,0.9994591,-0.1787816,-0.006904578,-35.36401,-0.5789413,-27.19487,956.6448
10.532732010,5.074541,2.793759,1.230241,0.9931,-0.1774318,-0.004979536,-35.36401,-0.5789413,-27.19487,956.6448
10.542727471,4.151542,2.55635,1.778978,0.9939293,-0.1696053,-0.001154388,-35.36401,-0.5789413,-27.19487,956.6448
10.552723408,2.736278,1.962826,2.327715,0.9934416,-0.1696324,-0.003067835,-35.72265,-1.282341,-27.58094,956.6437
10.562718868,1.751746,1.666064,2.815481,1.000766,-0.1704772,-0.00499469,-35.72265,-1.282341,-27.58094,956.6437
10.572714806,0.8287475,1.30995,2.998394,0.9988712,-0.1734654,-0.008819226,-35.72265,-1.282341,-27.58094,956.6437
10.582709789,0.5210813,0.9538354,3.181306,1.00335,-0.1781179,0.004095717,-35.72265,-1.282341,-27.58094,956.6437
10.592705250,0.3980148,0.9538354,3.303247,1.000003,-0.1816075,0.001709569,-35.72265,-1.282341,-27.58094,956.6429
10.602701187,0.8902807,0.8351307,3.181306,1.007823,-0.182981,-0.005960924,-36.84857,-1.28751,-27.20227,956.6429
10.612696648,1.628679,0.5383689,2.815481,1.011206,-0.1814169,-0.001660041,-36.84857,-1.28751,-27.20227,956.6429
10.622692108,2.490145,0.4196641,2.571598,1.016547,-0.1803088,0.001680395,-36.84857,-1.28751,-27.20227,956.6429
10.632688045,3.043944,0.3603118,2.327715,1.003855,-0.1791148,0.0002664863,-36.84857,-1.28751,-27.20227,956.6418
10.642683029,3.105477,0.1822547,2.205774,1.009195,-0.1780199,0.002171199,-36.84857,-1.28751,-27.20227,956.6418
10.652678966,2.982411,0.1229023,2.022861,1.005824,-0.1799689,0.008877642,-35.36232,-0.5822101,-27.58187,956.6418
10.662674427,2.428612,0.004197581,1.718008,1.004271,-0.1751402,0.008879106,-35.36232,-0.5822101,-27.58187,956.6418
10.672669887,1.813279,0.06354995,1.778978,1.000859,-0.1752777,0.001227872,-35.36232,-0.5822101,-27.58187,956.6407
10.682665825,1.07488,-0.1145072,1.839949,1.004676,-0.1707762,0.006962973,-35.36232,-0.5822101,-27.58187,956.6407
10.692661285,0.4595481,0.004197581,1.90092,1.005625,-0.1692251,0.01509671,-35.36232,-0.5822101,-27.58187,956.6407
10.702657223,0.02881546,-0.1145072,1.778978,1.006202,-0.1741126,0.01078978,-36.10225,-0.9714603,-27.97241,956.6407
10.712652206,-0.3403839,0.3009594,1.839949,1.008232,-0.1784547,0.009830206,-36.10225,-0.9714603,-27.97241,956.6414
10.722647667,-0.7095833,0.4196641,1.90092,1.00818,-0.175448,0.01987962,-36.10225,-0.9714603,-27.97241,956.6414
10.732643604,-1.324916,0.2416071,1.778978,1.011147,-0.1778629,0.01508931,-36.10225,-0.9714603,-27.97241,956.6414
10.742639065,-1.447982,0.2416071,1.657037,1.010709,-0.1802092,0.02514077,-35.72919,-0.9653783,-27.58263,956.6414
10.752635002,-1.324916,0.06354995,1.535095,1.008776,-0.1812894,0.01748721,-35.72919,-0.9653783,-27.58263,956.6406
10.762630463,-1.078783,-0.1145072,1.596066,1.01168,-0.1802689,0.01652473,-35.72919,-0.9653783,-27.58263,956.6406
10.772625446,-1.017249,-0.2332119,1.352183,1.016003,-0.176703,0.02513064,-35.72919,-0.9653783,-27.58263,956.6406
10.782621384,-1.017249,-0.2925643,1.047329,1.015598,-0.1810932,0.02417533,-35.72919,-0.9653783,-27.58263,956.6406
10.792616844,-0.9557163,-0.05515479,0.8644169,1.009357,-0.1860672,0.02514464,-36.11349,-0.5845666,-27.20043,956.6412
