Time (s),Gyroscope X (deg/s),Gyroscope Y (deg/s),Gyroscope Z (deg/s),Accelerometer X (g),Accelerometer Y (g),Accelerometer Z (g),Magnetometer X (uT),Magnetometer Y (uT),Magnetometer Z (uT)
67.44,19.96558,1.725416,4.095867,1.010378,-0.1340625,0.1299376,-57.92027,-10.46627,-21.89348
67.45,13.87379,3.684045,4.522663,1.008428,-0.1341537,0.1241981,-58.66359,-10.84898,-21.51002
67.46,7.843536,5.58332,4.949458,1.008437,-0.1346395,0.1241982,-58.66359,-10.84898,-21.51002
67.47,2.120945,7.18583399999999,5.498195,1.004126,-0.138599,0.1256425,-58.66359,-10.84898,-21.51002
67.48,-2.74018,8.90705299999997,5.98596099999998,1.005641,-0.1415198,0.121812,-58.66359,-10.84898,-21.51002
67.49,-6.80137299999998,10.56892,6.71760999999998,1.008792,-0.1536105,0.1213311,-58.66359,-10.84898,-21.51002
67.5,-10.30877,11.93402,7.14440499999997,1.008498,-0.163786,0.1251628,-59.04002,-10.84852,-21.1258
67.51,-12.89316,13.18042,7.63217200000002,1.007226,-0.1740597,0.1203819,-59.04002,-10.84852,-21.1258
67.52,-14.67763,14.18941,7.87605399999997,1.005393,-0.1805185,0.1089009,-59.04002,-10.84852,-21.1258
67.53,-16.15442,14.54553,8.30284999999999,1.01032,-0.1833192,0.1108074,-59.04002,-10.84852,-21.1258
67.54,-17.20049,14.84229,8.42479100000002,1.006033,-0.1888458,0.1002876,-59.04002,-10.84852,-21.1258
67.55,-17.69275,14.66423,8.42479100000002,1.003668,-0.1928414,0.09359267,-58.29474,-10.46962,-21.96076
67.56,-17.69275,14.42682,8.42479100000002,1.000874,-0.1996955,0.09407789,-58.29474,-10.46962,-21.96076
67.57,-17.38509,13.71459,8.11993799999998,0.9960175,-0.2008642,0.08307941,-58.29474,-10.46962,-21.96076
67.58,-16.64669,12.7056,7.81508400000003,0.9907442,-0.2052541,0.09266125,-58.29474,-10.46962,-21.96076
67.59,-15.29296,11.51856,7.32731800000001,0.9796222,-0.2098692,0.09028896,-58.29474,-10.46962,-21.96076
67.6,-13.1393,10.50957,6.53469799999998,0.9767888,-0.2148461,0.08359511,-58.29752,-10.09907,-23.1238
67.61,-10.67797,8.96640499999999,5.98596099999998,0.9695286,-0.2173929,0.08647988,-58.29752,-10.09907,-23.1238
67.62,-7.84743800000001,7.54194799999998,4.827517,0.9686744,-0.2236831,0.09126874,-58.29752,-10.09907,-23.1238
67.63,-4.586177,5.642673,3.730042,0.9661843,-0.2208123,0.09175093,-58.29752,-10.09907,-23.1238
67.64,-1.263382,4.218216,2.876452,0.9696587,-0.2241189,0.09461717,-58.29752,-10.09907,-23.1238
67.65,2.367078,2.675054,1.657037,0.9736299,-0.2278885,0.09891841,-58.29555,-10.10289,-23.5753
67.66,6.12060500000003,1.369302,0.7424754,0.9722211,-0.2309022,0.09126442,-58.29555,-10.10289,-23.5753
67.67,9.75106599999998,0.06354995,-0.1720861,0.9731804,-0.2298061,0.1027483,-58.29555,-10.10289,-23.5753
67.68,12.82773,-0.5299737,-0.903735200000002,0.9725596,-0.2224283,0.1137547,-58.29555,-10.10289,-23.5753
67.69,15.59672,-1.420259,-1.330531,0.9738821,-0.2151745,0.1070505,-58.29555,-10.10289,-23.5753
67.7,17.31965,-2.013783,-1.330531,0.972295,-0.2083412,0.1137516,-57.56965,-8.956196,-23.57582
67.71,18.98105,-2.132488,-0.903735200000002,0.9765148,-0.1995109,0.1137419,-57.56965,-8.956196,-23.57582
67.72,19.16565,-2.310545,0.01082622,0.9743556,-0.1884076,0.1103928,-57.56965,-8.956196,-23.57582
67.73,19.16565,-2.607306,1.169271,0.9893001,-0.1798733,0.1079717,-57.56965,-8.956196,-23.57582
67.74,18.11959,-2.963421,2.266744,0.9969304,-0.1709493,0.1108275,-58.31326,-9.338363,-23.12786
67.75,16.82739,-3.20083,3.120335,1.000618,-0.1596778,0.1132111,-58.31326,-9.338363,-23.12786
67.76,15.28906,-3.556944,3.425189,1.002676,-0.1654641,0.1136876,-58.31326,-9.338363,-23.12786
67.77,13.50459,-3.556944,3.54713,1.007466,-0.1609653,0.1170281,-58.31326,-9.338363,-23.12786
67.78,10.85866,-3.735002,3.851984,1.010869,-0.1603332,0.1256364,-58.31326,-9.338363,-23.12786
67.79,8.58193500000002,-3.735002,3.791013,1.004115,-0.1638375,0.1289991,-57.56377,-9.332738,-23.12229
67.8,5.93600600000003,-4.031764,3.973926,0.9992275,-0.162892,0.1366646,-57.56377,-9.332738,-23.12229
67.81,3.966942,-4.20982,3.425189,0.9866259,-0.1665645,0.1342946,-57.56377,-9.332738,-23.12229
67.82,2.305545,-4.743992,3.181306,0.9798147,-0.1672113,0.1314352,-57.56377,-9.332738,-23.12229
67.83,1.197947,-5.218811,2.571598,0.9678209,-0.1771188,0.136723,-57.56377,-9.332738,-23.12229
67.84,0.2749484,-5.81233500000002,1.474125,0.9585844,-0.1782688,0.1372179,-57.93064,-9.715906,-23.12304
67.85,-0.03271778,-6.58391499999997,0.4985923,0.9480042,-0.1857845,0.135324,-57.93064,-9.715906,-23.12304
67.86,-0.0942510000000003,-6.99938200000001,-0.598881400000002,0.9475731,-0.1886692,0.1396327,-57.93064,-9.715906,-23.12304
67.87,0.02881546,-7.47420100000002,-1.635384,0.9491542,-0.1949201,0.1434602,-57.93064,-9.715906,-23.12304
67.88,0.8287475,-7.65225799999999,-2.306063,0.9472077,-0.1948972,0.1501636,-57.93064,-9.715906,-23.12304
67.89,1.567146,-7.83031500000001,-3.159653,0.9467755,-0.197817,0.1506437,-58.67395,-10.09862,-22.73958
67.9,2.551678,-7.59290600000003,-3.70839,0.944681,-0.1900833,0.1506453,-58.67395,-10.09862,-22.73958
67.91,3.105477,-7.41484800000003,-4.318098,0.9475477,-0.1871505,0.1463324,-58.67395,-10.09862,-22.73958
67.92,3.659276,-7.236791,-4.683922,0.95149,-0.1895111,0.145369,-58.67395,-10.09862,-22.73958
67.93,3.228544,-6.82132499999999,-4.988776,0.9563339,-0.1879488,0.1463173,-58.67395,-10.09862,-22.73958
67.94,2.797811,-6.287153,-5.232659,0.9634777,-0.1790168,0.1510883,-58.29921,-10.09581,-22.7368
67.95,1.936346,-5.634277,-5.171688,0.9703801,-0.183232,0.1534702,-58.29921,-10.09581,-22.7368
67.96,1.013347,-5.278163,-5.110718,0.9738805,-0.1880398,0.1515511,-58.29921,-10.09581,-22.7368
67.97,0.5826145,-4.565935,-4.744893,0.9835223,-0.182504,0.1515328,-58.29921,-10.09581,-22.7368
67.98,-0.03271778,-3.378887,-4.805864,0.9938331,-0.1866913,0.1496017,-58.29921,-10.09581,-22.7368
67.99,-0.4634504,-3.022773,-4.440039,0.9957452,-0.1847009,0.1505549,-58.67734,-10.09208,-21.96557
68,-0.894183000000003,-2.013783,-4.074214,1.002095,-0.1855869,0.1462369,-58.67734,-10.09208,-21.96557
68.01,-1.201849,-1.18285,-3.525478,1.001717,-0.1914388,0.1448034,-58.67734,-10.09208,-21.96557
68.02,-1.694115,-0.4706214,-3.098683,1.010851,-0.1849981,0.1385643,-58.67734,-10.09208,-21.96557
68.03,-2.309447,-0.1738595,-2.549946,1.013837,-0.1883845,0.1337742,-58.67734,-10.09208,-21.96557
68.04,-2.986313,0.3603118,-1.940238,1.018653,-0.1853606,0.1352007,-57.92616,-10.08972,-22.34702
68.05,-3.663178,0.657073599999999,-1.879267,1.018323,-0.1935755,0.1409464,-57.92616,-10.08972,-22.34702
68.06,-3.970845,0.8351307,-1.879267,1.017944,-0.1994581,0.1361628,-57.92616,-10.08972,-22.34702
68.07,-4.032378,0.8351307,-2.245092,1.022399,-0.2033103,0.1304131,-57.92616,-10.08972,-22.34702
68.08,-3.417045,1.07254,-2.549946,1.020479,-0.2047797,0.1332883,-57.92616,-10.08972,-22.34702
68.09,-2.863246,0.953835399999999,-3.098683,1.011306,-0.2093344,0.1333054,-58.30457,-10.08545,-21.51129
68.1,-2.186381,0.716426,-3.769361,1.006453,-0.2104022,0.1333142,-58.30457,-10.08545,-21.51129
68.11,-1.263382,0.4790165,-4.318098,0.9976472,-0.2086762,0.1285433,-58.30457,-10.08545,-21.51129
68.12,-0.1557842,0.1229023,-5.232659,0.9864909,-0.2112781,0.1338278,-58.30457,-10.08545,-21.51129
68.13,0.644147799999998,-0.1145072,-5.90333699999997,0.9758558,-0.2158881,0.130976,-58.30457,-10.08545,-21.51129
68.14,2.059412,-0.767383199999997,-6.695957,0.9734204,-0.2159318,0.1314589,-58.66948,-10.47244,-21.96354
68.15,3.35161,-0.886087999999999,-7.18372300000002,0.9636693,-0.2156341,0.1319544,-58.66948,-10.47244,-21.96354
68.16,4.828408,-1.004793,-7.73246000000002,0.9573981,-0.2192429,0.1228733,-58.66948,-10.47244,-21.96354
68.17,6.18213799999999,-1.004793,-7.976343,0.9641933,-0.2175544,0.1333897,-58.66948,-10.47244,-21.96354
68.18,7.16667,-1.064145,-8.03731400000003,0.968505,-0.2135597,0.135774,-58.66948,-10.47244,-21.96354
68.19,7.90506900000002,-0.708030899999999,-7.61051899999998,0.9669879,-0.2107047,0.1324259,-57.91212,-10.84717,-21.95596
68.2,7.96660199999998,-0.4706214,-7.244694,0.9712893,-0.2062594,0.1309815,-57.91212,-10.84717,-21.95596
68.21,7.90506900000002,0.3009594,-6.39110400000002,0.9790176,-0.2027578,0.1252242,-57.91212,-10.84717,-21.95596
68.22,7.41280299999999,0.894483100000001,-5.659454,0.9764077,-0.1936072,0.1218764,-57.91212,-10.84717,-21.95596
68.23,6.73593800000001,1.488007,-4.50101,0.9890648,-0.1928273,0.1266399,-57.91212,-10.84717,-21.95596
68.24,5.505273,2.081531,-3.525478,0.991435,-0.1894227,0.1218491,-58.67146,-10.46862,-21.51204
68.25,3.843876,2.675054,-2.245092,1.000691,-0.1892136,0.1247044,-58.67146,-10.46862,-21.51204
68.26,2.674744,3.209226,-0.598881400000002,1.000167,-0.1872889,0.1237476,-58.67146,-10.46862,-21.51204
68.27,1.382547,3.387283,0.3766508,1.002649,-0.1896564,0.1251796,-58.67146,-10.46862,-21.51204
68.28,0.644147799999998,3.921454,1.535095,1.010072,-0.195884,0.1189468,-58.67146,-10.46862,-21.51204
68.29,-0.1557842,4.099511,2.205774,1.011019,-0.1943899,0.1208591,-58.63803,-11.99386,-21.95543
68.3,-0.7711166,4.277568,2.937423,1.012966,-0.1944129,0.1141556,-58.63803,-11.99386,-21.95543
68.31,-1.817181,4.277568,3.48616,1.01247,-0.1939324,0.114635,-58.63803,-11.99386,-21.95543
68.32,-2.432514,4.218216,3.669072,1.007563,-0.1920505,0.1184716,-58.63803,-11.99386,-21.95543
68.33,-3.355512,4.099511,4.034896,1.002673,-0.1912235,0.1132156,-58.27115,-11.61069,-21.95468
68.34,-3.663178,3.921454,4.156838,0.9959006,-0.1937255,0.1199281,-58.27115,-11.61069,-21.95468
68.35,-3.847778,3.56534,4.217809,0.989162,-0.1982673,0.1161124,-58.27115,-11.61069,-21.95468
68.36,-3.417045,3.149873,4.156838,0.9794465,-0.1999433,0.1132584,-58.27115,-11.61069,-21.95468
68.37,-2.494047,2.55635,3.912955,0.9711736,-0.2006278,0.1094444,-58.27115,-11.61069,-21.95468
68.38,-1.263382,2.081531,3.669072,0.9619946,-0.2046002,0.11999,-57.88685,-11.9915,-22.33687
68.39,0.0903486900000002,1.547359,3.364218,0.9585937,-0.2051621,0.119039,-57.88685,-11.9915,-22.33687
68.4,1.690213,1.250597,2.998394,0.9555902,-0.2008085,0.1233503,-57.88685,-11.9915,-22.33687
68.41,2.736278,0.953835399999999,2.75451,0.9545529,-0.1974011,0.1262227,-57.88685,-11.9915,-22.33687
68.42,3.597743,0.716426,2.510627,0.9574862,-0.1977852,0.1310034,-57.88685,-11.9915,-22.33687
68.43,3.905409,0.597721199999998,2.327715,0.9534866,-0.192589,0.1233518,-58.27732,-11.2336,-22.34371
68.44,3.843876,0.657073599999999,1.90092,0.9538735,-0.187236,0.1233498,-58.27732,-11.2336,-22.34371
68.45,3.290077,0.8351307,1.96189,0.9644527,-0.1797467,0.1223722,-58.27732,-11.2336,-22.34371
68.46,2.613211,1.191245,1.96189,0.9652897,-0.1724542,0.1209332,-58.27732,-11.2336,-22.34371
68.47,1.628679,1.191245,2.144803,0.9702165,-0.1752374,0.1247539,-58.27732,-11.2336,-22.34371
68.48,0.890280700000001,1.547359,2.388686,0.97756,-0.1770229,0.1261773,-58.28349,-10.85652,-22.73274
68.49,0.644147799999998,1.725416,2.632569,0.9794515,-0.1741401,0.118516,-58.28349,-10.85652,-22.73274
68.5,0.5210813,2.022178,2.876452,0.9873815,-0.1812901,0.1165898,-58.28349,-10.85652,-22.73274
68.51,0.1518819,2.140883,3.059364,0.9888899,-0.1836461,0.1213735,-58.28349,-10.85652,-22.73274
68.52,-0.1557842,2.140883,3.242276,0.9960696,-0.1766748,0.1242306,-58.28349,-10.85652,-22.73274
68.53,-0.709583300000001,2.437645,2.998394,1.004285,-0.1731591,0.1189511,-57.89301,-11.61442,-22.7259
68.54,-1.632582,2.378292,2.815481,1.002934,-0.179004,0.1203907,-57.89301,-11.61442,-22.7259
68.55,-2.494047,2.140883,2.632569,1.00534,-0.1775424,0.1156003,-57.89301,-11.61442,-22.7259
68.56,-3.663178,1.844121,2.083832,1.00737,-0.1819109,0.1117693,-57.89301,-11.61442,-22.7259
68.57,-4.46311,1.547359,1.718008,0.9958081,-0.1889074,0.1156199,-57.89301,-11.61442,-22.7259
68.58,-4.770776,1.07254,0.864416900000002,0.9898625,-0.1836752,0.1161075,-59.02511,-11.2425,-22.73627
68.59,-4.524643,0.4790165,0.3766508,0.9837297,-0.1945265,0.1118138,-59.02511,-11.2425,-22.73627
68.6,-3.724712,0.1229023,-0.2330568,0.976488,-0.1980361,0.1156559,-59.02511,-11.2425,-22.73627
68.61,-2.432514,-0.5299737,-1.208589,0.9662948,-0.2001944,0.1142385,-59.02511,-11.2425,-22.73627
68.62,-1.140316,-1.004793,-1.513443,0.9634183,-0.2026634,0.1161585,-59.02511,-11.2425,-22.73627
68.63,0.0903486900000002,-1.598316,-2.306063,0.9652866,-0.1981916,0.1228541,-58.65823,-10.85933,-22.73552
68.64,1.382547,-2.073135,-2.91577,0.9609019,-0.1983002,0.1204689,-58.65823,-10.85933,-22.73552
68.65,1.874812,-2.251192,-3.342566,0.9632458,-0.1934076,0.1190278,-58.65823,-10.85933,-22.73552
68.66,2.244012,-2.488602,-3.830332,0.9612456,-0.1904394,0.1290807,-58.65823,-10.85933,-22.73552
68.67,1.874812,-2.666659,-3.769361,0.9632195,-0.1919152,0.1228561,-58.65823,-10.85933,-22.73552
68.68,1.690213,-2.963421,-3.830332,0.9689568,-0.1859267,0.1276303,-57.90874,-10.8537,-22.72996
68.69,1.321013,-3.082125,-3.891303,0.9783029,-0.1906058,0.1271366,-57.90874,-10.8537,-22.72996
68.7,1.07488,-3.20083,-3.952273,0.9875585,-0.1904054,0.1290348,-57.90874,-10.8537,-22.72996
68.71,0.951813900000003,-2.963421,-4.013244,0.9909966,-0.1917646,0.1323791,-57.90874,-10.8537,-22.72996
68.72,0.8287475,-3.022773,-4.074214,0.9958784,-0.1921059,0.1376351,-57.90874,-10.8537,-22.72996
68.73,1.013347,-2.844716,-3.952273,0.9992872,-0.1920692,0.1342791,-57.90874,-10.8537,-22.72996
68.74,1.013347,-2.607306,-3.70839,0.9997559,-0.1910925,0.1337994,-57.90874,-10.8537,-22.72996
68.75,0.644147799999998,-2.547954,-3.403537,0.996356,-0.1916236,0.1361984,-57.90874,-10.8537,-22.72996
68.76,0.1518819,-2.42925,-3.037712,0.9893727,-0.1829971,0.1381226,-57.90874,-10.8537,-22.72996
68.77,-0.5249836,-2.310545,-2.488975,0.991827,-0.1839073,0.1395543,-57.90874,-10.8537,-22.72996
68.78,-1.017249,-2.369897,-2.184121,0.9904187,-0.1869035,0.1338146,-57.89668,-11.60733,-21.8874
68.79,-1.324916,-2.42925,-2.06218,0.9807411,-0.1904743,0.1362253,-57.89668,-11.60733,-21.8874
68.8,-1.509515,-2.310545,-1.757326,0.9847115,-0.1942659,0.1381337,-57.89668,-11.60733,-21.8874
68.81,-1.386449,-2.19184,-1.513443,0.9817894,-0.1943104,0.1395745,-57.89668,-11.60733,-21.8874
68.82,-1.017249,-2.132488,-1.635384,0.9813843,-0.1986919,0.1395763,-57.89668,-11.60733,-21.8874
68.83,-0.709583300000001,-1.598316,-1.635384,0.980272,-0.1914643,0.1352692,-58.27143,-11.61015,-21.89018
68.84,-0.0942510000000003,-1.717021,-1.696355,0.9779662,-0.1982472,0.1424536,-58.27143,-11.61015,-21.89018
68.85,0.02881546,-1.242202,-1.452472,0.9695838,-0.1931069,0.1381597,-58.27143,-11.61015,-21.89018
68.86,0.1518819,-1.004793,-1.452472,0.9695941,-0.1935576,0.1419885,-58.27143,-11.61015,-21.89018
68.87,0.2749484,-0.708030899999999,-1.391501,0.970513,-0.1906413,0.1400718,-58.27143,-11.61015,-21.89018
68.88,-0.1557842,-0.2332119,-1.452472,0.9723887,-0.1867079,0.1410247,-57.89668,-11.60733,-21.8874
68.89,-1.017249,0.004197581,-1.086647,0.9782507,-0.1876123,0.1357503,-57.89668,-11.60733,-21.8874
68.9,-2.001781,0.4196641,-0.903735200000002,0.9821098,-0.1856317,0.1314359,-57.89668,-11.60733,-21.8874
68.91,-3.109379,0.8351307,-0.7817937,0.9821309,-0.1865155,0.1410076,-57.89668,-11.60733,-21.8874
68.92,-3.909311,0.953835399999999,-0.720822899999998,0.9870454,-0.1889139,0.133821,-58.65573,-11.22933,-21.50799
68.93,-4.524643,1.250597,-0.3549984,0.9909712,-0.1902459,0.1390789,-58.65573,-11.22933,-21.50799
68.94,-4.586177,1.666064,-0.2330568,0.9925249,-0.1950395,0.142906,-58.65573,-11.22933,-21.50799
68.95,-4.278511,1.784769,0.1937385,0.994481,-0.1955307,0.138117,-58.65573,-11.22933,-21.50799
68.96,-4.032378,2.022178,0.681504599999997,0.9954618,-0.1960806,0.1290225,-58.65573,-11.22933,-21.50799
68.97,-3.601645,2.259588,1.1083,0.9964733,-0.197978,0.1318926,-58.65206,-11.23642,-22.34649
68.98,-3.170913,2.675054,1.778978,0.9914657,-0.1907747,0.1333352,-58.65206,-11.23642,-22.34649
68.99,-2.801713,2.496997,2.205774,0.9899476,-0.1879548,0.1261585,-58.65206,-11.23642,-22.34649
69,-3.109379,2.793759,2.632569,0.9884243,-0.1845219,0.1328603,-58.65206,-11.23642,-22.34649
69.01,-3.355512,2.734407,3.242276,0.9918614,-0.1859162,0.1323761,-58.65206,-11.23642,-22.34649
69.02,-3.909311,2.675054,3.181306,0.9879816,-0.1869999,0.1285546,-58.65206,-11.23642,-22.34649
69.03,-4.278511,2.55635,3.364218,0.9820653,-0.1831678,0.135264,-58.65206,-11.23642,-22.34649
69.04,-4.524643,2.496997,3.364218,0.9856476,-0.1923562,0.1323886,-58.65206,-11.23642,-22.34649
69.05,-4.46311,2.437645,2.937423,0.9823296,-0.1972637,0.13431,-58.65206,-11.23642,-22.34649
69.06,-4.155444,2.378292,2.571598,0.9744357,-0.1920699,0.134801,-58.65206,-11.23642,-22.34649
69.07,-3.847778,2.378292,2.388686,0.9764915,-0.1979263,0.1276203,-58.6442,-11.61677,-22.34446
69.08,-3.417045,2.140883,1.90092,0.9754537,-0.1945365,0.1285784,-58.6442,-11.61677,-22.34446
69.09,-3.047846,1.962826,1.474125,0.9739771,-0.1935017,0.1386307,-58.6442,-11.61677,-22.34446
69.1,-2.863246,2.200235,1.047329,0.9822092,-0.1910058,0.1280871,-58.6442,-11.61677,-22.34446
69.11,-2.863246,2.022178,0.4985923,0.9768612,-0.1915623,0.1319252,-58.6442,-11.61677,-22.34446
69.12,-3.109379,2.022178,0.0717969800000001,0.9744509,-0.193138,0.1242726,-57.9166,-10.47335,-22.73199
69.13,-3.355512,1.844121,-0.2940276,0.9842779,-0.1972295,0.133828,-57.9166,-10.47335,-22.73199
69.14,-3.724712,1.666064,-0.2940276,0.9862517,-0.1987098,0.1271249,-57.9166,-10.47335,-22.73199
69.15,-4.278511,1.369302,0.0717969800000001,0.9888331,-0.2064382,0.1266438,-57.9166,-10.47335,-22.73199
69.16,-4.278511,1.013188,1.047329,0.9840547,-0.2113482,0.1314391,-57.9166,-10.47335,-22.73199
69.17,-4.093911,0.3009594,2.083832,0.9871069,-0.2180341,0.137657,-57.9183,-10.47008,-22.34499
69.18,-3.109379,-0.3519166,3.181306,0.9828424,-0.2244092,0.1405376,-57.9183,-10.47008,-22.34499
69.19,-1.694115,-1.064145,4.400721,0.9835483,-0.2360623,0.1400608,-57.9183,-10.47008,-22.34499
69.2,-0.955716300000001,-1.538964,6.59566799999998,0.9849718,-0.2597751,0.1477216,-57.9183,-10.47008,-22.34499
69.21,-1.078783,-2.369897,9.58323599999998,0.9788147,-0.2690682,0.1544348,-57.9183,-10.47008,-22.34499
69.22,-2.432514,-3.913059,13.97313,0.9829571,-0.2821331,0.1515595,-58.3009,-10.09254,-22.34979
69.23,-4.216978,-5.337515,18.72885,0.9791598,-0.2875798,0.1486961,-58.3009,-10.09254,-22.34979
69.24,-6.06297400000002,-6.82132499999999,23.60651,0.9774061,-0.2984894,0.1286017,-58.3009,-10.09254,-22.34979
69.25,-7.539772,-8.245782,28.36223,0.9730638,-0.326773,0.1271808,-58.3009,-10.09254,-22.34979
69.26,-7.539772,-8.89865800000003,33.23989,0.9837362,-0.3761413,0.1257392,-58.3009,-10.09254,-22.34979
69.27,-5.75530800000001,-9.848295,38.60532,0.9821497,-0.4213477,0.1276679,-57.92446,-10.09299,-22.73401
69.28,-3.540112,-10.38247,44.09269,0.9939365,-0.4522326,0.125741,-57.92446,-10.09299,-22.73401
69.29,-1.571049,-9.67023799999998,49.76297,1.022107,-0.4729391,0.1386188,-57.92446,-10.09299,-22.73401
69.3,0.8287475,-7.94901899999999,55.86004,1.027789,-0.4897032,0.1529705,-57.92446,-10.09299,-22.73401
69.31,1.874812,-6.46521000000002,62.2009999999998,1.02548,-0.4965695,0.151062,-57.92446,-10.09299,-22.73401
69.32,1.628679,-5.159458,68.6029400000001,1.019582,-0.520134,0.1376782,-58.33722,-8.25742,-22.7466
69.33,1.25948,-4.387877,74.5780700000001,1.003631,-0.5273796,0.1238292,-58.33722,-8.25742,-22.7466
69.34,0.767214200000001,-4.031764,80.3093199999999,1.004025,-0.5482234,0.1286196,-58.33722,-8.25742,-22.7466
69.35,0.5210813,-3.616297,86.9551300000002,0.9828553,-0.5627735,0.1243531,-58.33722,-8.25742,-22.7466
69.36,-0.4634504,-4.44723,93.3570600000002,0.9682735,-0.5908041,0.1196,-58.33722,-8.25742,-22.7466
69.37,-0.2173175,-5.159458,99.9419100000002,0.9610009,-0.6186157,0.1229698,-58.39593,-5.587847,-21.92229
69.38,1.567146,-5.87168699999998,105.978,0.9458519,-0.6422227,0.1249166,-58.39593,-5.587847,-21.92229
69.39,4.643808,-6.761972,111.7702,0.9402159,-0.6535283,0.1230151,-58.39593,-5.587847,-21.92229
69.4,8.15120200000001,-7.53355299999998,116.6479,0.9384309,-0.6623368,0.120149,-58.39593,-5.587847,-21.92229
69.41,13.19693,-8.48319099999998,120.7939,0.9334647,-0.6833391,0.1192059,-58.39593,-5.587847,-21.92229
69.42,19.59638,-9.72959,123.5376,0.9190147,-0.6924023,0.1158834,-58.85885,-1.403477,-21.56038
69.43,27.4111,-10.50117,125.1838,0.9043424,-0.6899126,0.1010725,-58.85885,-1.403477,-21.56038
69.44,34.17976,-12.81591,126.6471,0.8881354,-0.7092195,0.09727708,-58.85885,-1.403477,-21.56038
69.45,41.19455,-15.01195,129.5127,0.893416,-0.7310132,0.09392345,-58.85885,-1.403477,-21.56038
69.46,47.0402,-17.50475,132.1954,0.89846,-0.740164,0.09200271,-58.85885,-1.403477,-21.56038
69.47,52.51666,-19.76014,135.183,0.9077463,-0.7413156,0.105387,-58.60374,4.307941,-21.20102
69.48,57.19318,-21.95618,137.9267,0.912771,-0.7495211,0.1005945,-58.60374,4.307941,-21.20102
69.49,62.7927100000001,-24.21157,140.6704,0.9122475,-0.7475877,0.100595,-58.60374,4.307941,-21.20102
69.5,68.4537700000001,-25.69538,142.0117,0.9084042,-0.7506145,0.09677383,-58.60374,4.307941,-21.20102
69.51,72.1457599999998,-28.18818,143.3531,0.8991755,-0.7522853,0.09344032,-57.61487,10.7857,-20.84015
69.52,76.0223499999999,-30.85903,144.5725,0.9097123,-0.7422705,0.1029909,-57.61487,10.7857,-20.84015
69.53,77.1914799999999,-31.92738,145.0603,0.9088323,-0.72141,0.1010727,-57.61487,10.7857,-20.84015
69.54,75.7146900000003,-34.00471,144.8773,0.8922099,-0.6925951,0.09965858,-57.61487,10.7857,-20.84015
69.55,71.7150300000001,-35.48852,142.5605,0.8598632,-0.683218,0.07913378,-57.61487,10.7857,-20.84015
69.56,64.7002400000002,-39.52448,144.7554,0.8610104,-0.6411509,0.05375642,-56.2345,16.4427,-20.4076
69.57,55.22412,-43.61979,143.7799,0.8400207,-0.6134424,0.04708581,-56.2345,16.4427,-20.4076
69.58,45.19421,-47.41834,141.5849,0.8244414,-0.6150379,0.0126559,-56.2345,16.4427,-20.4076
69.59,34.67202,-51.86977,139.0851,0.8024353,-0.6376471,-0.02080024,-56.2345,16.4427,-20.4076
69.6,30.5493,-54.54063,137.6828,0.7923948,-0.6481379,-0.03035156,-56.2345,16.4427,-20.4076
69.61,26.36504,-57.8643600000002,134.1465,0.7935001,-0.681226,-0.0375236,-53.4282,22.55696,-19.64427
69.62,25.19591,-58.8139999999997,131.3418,0.782254,-0.6789263,-0.02745449,-53.4282,22.55696,-19.64427
69.63,24.08831,-58.8733499999998,126.4642,0.7666999,-0.654862,-0.01929778,-53.4282,22.55696,-19.64427
69.64,23.22684,-58.3391800000003,120.672,0.7568785,-0.6241785,0.009426001,-53.4282,22.55696,-19.64427
69.65,19.84252,-57.6269500000002,114.5749,0.7396117,-0.5871812,0.0008322065,-53.4282,22.55696,-19.64427
69.66,12.76619,-57.7456600000001,108.2339,0.726848,-0.5563987,-0.00633211,-50.55107,27.92514,-17.1994
69.67,4.520741,-57.5676000000001,105.0635,0.7183678,-0.5458362,-0.002012862,-50.55107,27.92514,-17.1994
69.68,-5.447642,-57.03343,101.771,0.7121621,-0.5527882,-0.00487171,-50.55107,27.92514,-17.1994
69.69,-14.80069,-56.49926,97.8079300000001,0.7131534,-0.55378,-0.009180368,-50.55107,27.92514,-17.1994
69.7,-20.40022,-52.93811,95.9788100000001,0.7726394,-0.6066793,0.02901564,-50.55107,27.92514,-17.1994
69.71,-22.86155,-53.23487,93.3570600000002,0.7369561,-0.6284342,-0.04078866,-48.44987,34.73865,-15.60638
69.72,-18.92342,-49.13956,85.4918400000001,0.7376078,-0.584327,-0.001557915,-48.44987,34.73865,-15.60638
69.73,-10.49337,-42.90756,76.8339799999998,0.7592512,-0.6206949,0.01324958,-48.44987,34.73865,-15.60638
69.74,-9.63190200000001,-38.15937,73.7244800000001,0.7678553,-0.6109939,0.04577525,-48.44987,34.73865,-15.60638
69.75,-12.9547,-34.65759,71.89536,0.7522563,-0.6101239,0.06829529,-48.44987,34.73865,-15.60638
69.76,-16.89282,-29.67199,67.44449,0.7224585,-0.6056339,0.0922749,-46.29836,38.9596,-13.22549
69.77,-22.24621,-23.73675,60.9206200000001,0.6929024,-0.615171,0.0698358,-46.29836,38.9596,-13.22549
69.78,-25.19981,-18.27633,55.18937,0.6648335,-0.6518344,0.05362258,-46.29836,38.9596,-13.22549
69.79,-29.261,-14.77454,52.38471,0.6175076,-0.7010486,0.03505329,-46.29836,38.9596,-13.22549
69.8,-31.16853,-13.05332,50.55559,0.5742428,-0.7325178,0.03513681,-46.29836,38.9596,-13.22549
69.81,-31.107,-10.67923,46.65346,0.54181,-0.7701778,0.02563153,-43.37403,42.04565,-10.76846
69.82,-29.261,-9.78894299999998,42.99521,0.488492,-0.8117617,0.00419926,-43.37403,42.04565,-10.76846
69.83,-27.7842,-9.61088600000001,38.42241,0.4323062,-0.8306684,-0.02871967,-43.37403,42.04565,-10.76846
69.84,-28.21494,-11.56951,34.52028,0.3840688,-0.8312802,-0.04442843,-43.37403,42.04565,-10.76846
69.85,-28.27647,-13.35009,29.52067,0.3307567,-0.7685611,-0.03190867,-43.37403,42.04565,-10.76846
69.86,-35.16819,-14.12167,25.86243,0.3343631,-0.8554681,0.02170794,-41.92563,44.34557,-9.995501
69.87,-46.24417,-14.41843,30.923,0.3908681,-1.060258,0.0891414,-41.92563,44.34557,-9.995501
69.88,-38.92172,-15.84289,35.12998,0.3667001,-1.099031,-0.006521704,-41.92563,44.34557,-9.995501
69.89,-16.64669,-14.9526,24.52107,0.2771268,-0.9747319,-0.03654785,-41.92563,44.34557,-9.995501
69.9,-4.64771,-18.33569,18.48497,0.2079441,-0.898042,-0.05606861,-40.84188,45.89286,-7.931259
69.91,-1.940248,-21.95618,14.39993,0.2321146,-0.8350919,-0.02645524,-40.84188,45.89286,-7.931259
69.92,-5.87837500000002,-25.33926,12.69274,0.2789894,-0.8911912,0.007934964,-40.84188,45.89286,-7.931259
69.93,-7.84743800000001,-27.59465,12.81469,0.2936438,-0.970403,0.02898716,-40.84188,45.89286,-7.931259
69.94,-4.401577,-28.30688,12.20498,0.2860445,-1.032727,0.03188791,-40.84188,45.89286,-7.931259
69.95,3.105477,-28.60365,10.071,0.2921935,-1.048559,0.04097421,-39.75446,47.43308,-6.705523
69.96,9.75106599999998,-30.44357,7.754113,0.2796969,-1.032555,0.01132016,-39.75446,47.43308,-6.705523
69.97,12.76619,-34.06406,6.04693200000002,0.2625512,-1.002569,-0.02024369,-39.75446,47.43308,-6.705523
69.98,12.08933,-40.35541,5.0714,0.2282458,-0.9927801,-0.04459378,-39.75446,47.43308,-6.705523
69.99,9.074201,-48.18993,5.559165,0.2188389,-1.01102,-0.05270848,-39.75446,47.43308,-6.705523
70,8.028135,-55.54962,6.65663900000001,0.2396026,-1.052931,-0.05751965,-39.75785,47.43962,-5.93152
70.01,14.85832,-60.5352199999999,6.90052199999999,0.2786582,-1.134086,-0.03603091,-39.75785,47.43962,-5.93152
70.02,32.33376,-63.0280200000002,6.53469799999998,0.3339746,-1.251703,-0.05141149,-39.75785,47.43962,-5.93152
70.03,58.6699799999998,-62.67191,8.72964499999998,0.4500331,-1.359588,-0.03722875,-39.75785,47.43962,-5.93152
70.04,100.8202,-56.14314,7.57120099999999,0.5709199,-1.305594,0.1319625,-39.75785,47.43962,-5.93152
70.05,147.0932,-39.76189,-0.7817937,0.616183,-1.142769,0.3031719,-39.40419,48.21349,-4.707289
70.06,181.2442,-25.69538,-12.36624,0.5054257,-0.8749878,0.3329678,-39.40419,48.21349,-4.707289
70.07,181.798,-18.51374,-18.82914,0.3708465,-0.6877828,0.3709617,-39.40419,48.21349,-4.707289
70.08,151.4621,-20.23496,-14.80507,0.3063345,-0.6780036,0.3576715,-39.40419,48.21349,-4.707289
70.09,113.7422,-30.38422,-6.26916200000001,0.2832236,-0.8244498,0.2821345,-39.40419,48.21349,-4.707289
70.1,89.6211999999999,-44.68813,3.059364,0.2631557,-1.005059,0.1309859,-38.99426,47.418,-9.150974
70.11,92.0825299999998,-60.0603999999999,8.60770299999997,0.2732585,-1.129318,0.0716569,-38.99426,47.418,-9.150974
70.12,118.5418,-68.7851999999998,6.41275599999997,0.3070166,-1.216389,-0.01069462,-38.99426,47.418,-9.150974
70.13,161.6766,-75.6107299999999,0.2547093,0.309436,-1.268137,-0.04179296,-38.99426,47.418,-9.150974
70.14,212.8107,-76.3822999999997,-13.09789,0.3515773,-1.251581,0.08303767,-38.99426,47.418,-9.150974
70.15,272.0672,-77.2132299999999,-32.6695,0.3825085,-1.18648,0.06765255,-39.69818,45.86371,-12.37344
70.16,307.0181,-78.8751,-31.26718,0.3245943,-1.009586,0.03468621,-39.69818,45.86371,-12.37344
70.17,327.8163,-80.7150300000001,-31.69397,0.3795438,-0.7675242,0.1350291,-39.69818,45.86371,-12.37344
70.18,326.5857,-82.02077,-32.85241,0.4305519,-0.6536103,0.2062186,-39.69818,45.86371,-12.37344
70.19,315.4482,-80.2995600000001,-32.60853,0.4591934,-0.5683756,0.2717117,-39.69818,45.86371,-12.37344
70.2,303.3876,-77.92546,-36.81551,0.4138156,-0.4862585,0.3157986,-40.74335,43.51157,-19.65815
70.21,290.0965,-75.49202,-42.36385,0.3390082,-0.4212941,0.301555,-40.74335,43.51157,-19.65815
70.22,271.5134,-77.0351800000003,-45.41239,0.294486,-0.3864421,0.2767377,-40.74335,43.51157,-19.65815
70.23,248.5,-80.3589100000002,-44.80268,0.256308,-0.3775127,0.2729734,-40.74335,43.51157,-19.65815
70.24,226.0404,-83.32653,-46.38792,0.2462369,-0.4122925,0.2643855,-40.74335,43.51157,-19.65815
70.25,213.0569,-85.7006199999998,-49.74131,0.2437953,-0.4374035,0.2868893,-43.1985,36.59427,-25.70413
70.26,204.4422,-84.6322800000002,-56.50907,0.2439107,-0.4686891,0.3194404,-43.1985,36.59427,-25.70413
70.27,201.9193,-83.4452399999998,-60.1673199999997,0.2745138,-0.5143095,0.3658206,-43.1985,36.59427,-25.70413
70.28,197.2428,-81.3678999999998,-64.5572100000001,0.3387395,-0.4819525,0.4173865,-43.1985,36.59427,-25.70413
70.29,182.2902,-79.76539,-63.5816699999998,0.3847509,-0.4917991,0.4632522,-43.1985,36.59427,-25.70413
70.3,162.1689,-79.6466800000002,-59.61858,0.3869862,-0.4554057,0.4527102,-46.02809,29.00408,-28.52418
70.31,141.7399,-80.5963200000002,-59.61858,0.3921102,-0.4169326,0.4507771,-46.02809,29.00408,-28.52418
70.32,120.5109,-81.6053099999998,-57.9723700000003,0.3976996,-0.3768127,0.4684643,-46.02809,29.00408,-28.52418
70.33,98.48199,-81.1304899999998,-58.3991599999999,0.4259408,-0.3222266,0.5310944,-46.02809,29.00408,-28.52418
70.34,80.6373399999998,-78.7563999999999,-62.1793500000002,0.4568842,-0.3088009,0.5506586,-46.02809,29.00408,-28.52418
70.35,71.46889,-77.6286999999999,-69.1300100000003,0.4753772,-0.335387,0.473104,-49.62782,21.75246,-28.12644
70.36,67.5307699999999,-75.3139600000001,-73.6418500000002,0.5730234,-0.3434028,0.5542938,-49.62782,21.75246,-28.12644
70.37,67.6538300000003,-72.8805200000001,-79.6169799999997,0.5429462,-0.3509318,0.5399908,-49.62782,21.75246,-28.12644
70.38,68.3922299999999,-72.5244000000003,-85.7750299999999,0.5976574,-0.358883,0.5087901,-49.62782,21.75246,-28.12644
70.39,57.9315800000002,-73.9488500000001,-86.62862,0.7016019,-0.2862782,0.6244056,-49.62782,21.75246,-28.12644
70.4,30.30317,-71.4560499999998,-81.20222,0.7725932,-0.2757197,0.7219086,-52.87585,15.27853,-26.05299
70.41,7.28973700000001,-67.8949099999998,-79.9828100000002,0.7963419,-0.3217922,0.6807215,-52.87585,15.27853,-26.05299
70.42,-3.293979,-66.1143400000001,-80.1657200000001,0.8264249,-0.3940988,0.6266086,-52.87585,15.27853,-26.05299
70.43,-6.30910700000001,-62.9686700000001,-76.8123300000002,0.8869706,-0.504078,0.6380172,-52.87585,15.27853,-26.05299
70.44,0.3980148,-62.1377300000002,-71.93467,0.9218051,-0.5171673,0.6192954,-52.87585,15.27853,-26.05299
70.45,9.62799900000003,-61.48486,-68.1544799999997,0.9560636,-0.4476401,0.6024676,-55.41057,10.40159,-23.20841
70.46,13.81226,-61.6629100000002,-62.7890500000002,0.9658184,-0.4229495,0.5713368,-55.41057,10.40159,-23.20841
70.47,16.95045,-63.5028400000002,-57.11878,0.9529823,-0.3626183,0.5541149,-55.41057,10.40159,-23.20841
70.48,16.27359,-64.0370099999998,-53.15568,0.9598181,-0.3371046,0.5660608,-55.41057,10.40159,-23.20841
70.49,18.61185,-65.0459999999999,-47.72928,0.9864043,-0.3524278,0.5334753,-57.1573,6.611676,-19.97655
70.5,20.45785,-65.58017,-41.93706,1.044663,-0.3139592,0.5754785,-57.1573,6.611676,-19.97655
70.51,19.22718,-60.83198,-34.92542,1.069029,-0.2859527,0.6625296,-57.1573,6.611676,-19.97655
70.52,18.48878,-54.42192,-29.92582,1.066272,-0.2690825,0.6534371,-57.1573,6.611676,-19.97655
70.53,19.10412,-47.00288,-25.65787,1.06963,-0.2660172,0.6625234,-57.1573,6.611676,-19.97655
70.54,19.35025,-39.28707,-21.38991,1.038689,-0.2529476,0.6707098,-58.23693,3.960907,-17.58419
70.55,18.79645,-33.52989,-17.30487,1.00733,-0.2446676,0.6343905,-58.23693,3.960907,-17.58419
70.56,17.93499,-30.50292,-15.17089,0.9722697,-0.2465383,0.611959,-58.23693,3.960907,-17.58419
70.57,17.62732,-27.29789,-14.3173,0.9372407,-0.224107,0.5899999,-58.23693,3.960907,-17.58419
70.58,12.64313,-26.34826,-12.18333,0.8873215,-0.2131334,0.5695053,-58.23693,3.960907,-17.58419
70.59,3.597743,-25.10185,-8.95187600000001,0.8942974,-0.1948007,0.5929387,-58.94996,1.69385,-15.12657
70.6,-3.047846,-22.5497,-7.85440200000002,0.8751343,-0.186485,0.587227,-58.94996,1.69385,-15.12657
70.61,-4.278511,-19.87885,-7.42760699999997,0.8741354,-0.2113799,0.577185,-58.94996,1.69385,-15.12657
70.62,-3.232446,-17.50475,-7.91537200000002,0.8555037,-0.2311681,0.579137,-58.94996,1.69385,-15.12657
70.63,0.3364816,-16.0803,-9.07381699999998,0.8357639,-0.2443637,0.5605103,-58.94996,1.69385,-15.12657
70.64,4.459208,-15.78353,-10.41517,0.8135294,-0.2284213,0.5452306,-60.07954,1.695764,-13.90941
70.65,6.12060500000003,-15.78353,-12.18333,0.7979363,-0.2024929,0.5447724,-60.07954,1.695764,-13.90941
70.66,4.397675,-15.48677,-13.89051,0.7890941,-0.1988196,0.5404797,-60.07954,1.695764,-13.90941
70.67,1.751746,-16.199,-14.80507,0.8312375,-0.2116986,0.5289237,-60.07954,1.695764,-13.90941
70.68,-0.4019172,-15.66483,-15.23186,0.8456916,-0.2032792,0.5150177,-60.07954,1.695764,-13.90941
70.69,-0.709583300000001,-15.13066,-14.98798,0.8656837,-0.2045482,0.4924901,-60.04979,0.1776099,-13.51429
70.7,-3.909311,-13.52814,-16.87807,0.8449371,-0.1900562,0.4748152,-60.04979,0.1776099,-13.51429
70.71,-5.201509,-12.63786,-16.14643,0.8728543,-0.2242785,0.4451036,-60.04979,0.1776099,-13.51429
70.72,-2.063314,-10.61988,-15.90254,0.9629821,-0.2228653,0.4578677,-60.04979,0.1776099,-13.51429
70.73,-7.47823899999999,-7.47420100000002,-17.91458,0.9091912,-0.1606679,0.467517,-60.04979,0.1776099,-13.51429
70.74,-9.26270200000001,-5.931039,-19.25594,0.9095522,-0.2074087,0.4038778,-60.0456,-0.1956635,-12.67376
70.75,-11.72403,-4.625287,-19.37788,0.8978918,-0.1320778,0.3770784,-60.0456,-0.1956635,-12.67376
70.76,-12.9547,-5.218811,-18.2804,0.9292843,-0.1439351,0.3411336,-60.0456,-0.1956635,-12.67376
70.77,-17.87736,-5.75298199999998,-18.76817,0.9103395,-0.09523804,0.3401969,-60.0456,-0.1956635,-12.67376
70.78,-25.26134,-6.94003,-17.54875,0.9046909,-0.07975126,0.3454671,-60.0456,-0.1956635,-12.67376
70.79,-34.86053,-8.89865800000003,-15.41478,0.9105092,-0.1038106,0.3588633,-60.78104,-0.9587307,-12.28826
70.8,-42.36758,-10.02635,-12.48818,0.9302651,-0.1437095,0.3636249,-60.78104,-0.9587307,-12.28826
70.81,-46.85951,-10.02635,-9.01284600000001,0.9386048,-0.1719741,0.3899393,-60.78104,-0.9587307,-12.28826
70.82,-49.13624,-9.43282899999999,-5.29363,0.9482986,-0.1943147,0.4234285,-60.78104,-0.9587307,-12.28826
70.83,-49.19777,-8.245782,-3.647419,0.95397,-0.2106282,0.4339515,-60.78104,-0.9587307,-12.28826
70.84,-49.19777,-7.29614399999999,-1.391501,0.9378154,-0.2065081,0.4411572,-60.76701,-1.716173,-11.89721
70.85,-48.58244,-6.64326800000002,0.3766508,0.9223834,-0.2150652,0.4421435,-60.76701,-1.716173,-11.89721
70.86,-47.53637,-6.52456300000001,1.047329,0.9243896,-0.2178447,0.4526694,-60.76701,-1.716173,-11.89721
70.87,-45.38271,-5.515573,2.75451,0.9269187,-0.2482249,0.472773,-60.76701,-1.716173,-11.89721
70.88,-41.44458,-4.684639,4.156838,0.9161212,-0.2960912,0.4694541,-60.76701,-1.716173,-11.89721
70.89,-33.75293,-3.616297,5.254312,0.9047841,-0.3666319,0.485285,-60.02907,-1.323111,-11.05517
70.9,-23.16921,-2.785364,7.022464,0.8840535,-0.4044678,0.4843737,-60.02907,-1.323111,-11.05517
70.91,-12.33936,-2.132488,7.26634699999998,0.8593203,-0.3843802,0.5025976,-60.02907,-1.323111,-11.05517
70.92,-3.970845,-1.004793,7.38828800000001,0.8326523,-0.3390312,0.5241683,-60.02907,-1.323111,-11.05517
70.93,1.44408,-0.1145072,7.022464,0.8115622,-0.3059793,0.5174965,-60.02907,-1.323111,-11.05517
70.94,6.24367199999998,-0.1145072,5.80304899999998,0.7986184,-0.2918235,0.4993295,-60.77855,-1.328735,-11.06073
70.95,11.72013,-1.064145,4.095867,0.7972168,-0.2697391,0.4730046,-60.77855,-1.328735,-11.06073
70.96,15.35059,-2.785364,2.632569,0.8012577,-0.2518505,0.4543285,-60.77855,-1.328735,-11.06073
70.97,17.56579,-4.20982,2.327715,0.8166106,-0.2652456,0.4442551,-60.77855,-1.328735,-11.06073
70.98,19.41178,-5.100106,2.571598,0.8472974,-0.2646701,0.4408514,-60.77855,-1.328735,-11.06073
70.99,22.61151,-4.031764,2.205774,0.8830675,-0.2743251,0.4766848,-60.79427,-0.5680237,-11.06479
71,26.8573,-4.091116,1.657037,0.8763178,-0.2792179,0.4345831,-60.79427,-0.5680237,-11.06479
71.01,29.19557,-4.44723,1.778978,0.883566,-0.2242116,0.4292919,-60.79427,-0.5680237,-11.06479
71.02,27.47264,-4.506582,2.510627,0.8892877,-0.1915229,0.4311879,-60.79427,-0.5680237,-11.06479
71.03,23.78064,-4.328525,2.815481,0.8926507,-0.1890619,0.4273528,-60.79427,-0.5680237,-11.06479
71.04,20.76551,-4.269173,2.632569,0.9000284,-0.192865,0.4206408,-60.42122,-0.5619421,-10.675
71.05,17.62732,-4.150468,2.205774,0.8935927,-0.1877389,0.4106006,-60.42122,-0.5619421,-10.675
71.06,13.99686,-3.735002,1.96189,0.8959117,-0.2077264,0.3986373,-60.42122,-0.5619421,-10.675
71.07,11.474,-3.497592,1.90092,0.9037794,-0.2114278,0.4019746,-60.42122,-0.5619421,-10.675
71.08,8.21273500000003,-2.904068,1.657037,0.8973111,-0.2042357,0.405334,-60.78024,-1.325466,-10.67373
71.09,4.274609,-2.132488,1.596066,0.8942423,-0.1965257,0.4048588,-60.78024,-1.325466,-10.67373
71.1,0.767214200000001,-1.598316,1.413154,0.8875796,-0.2048657,0.4106155,-60.78024,-1.325466,-10.67373
71.11,-2.247914,-1.479612,1.169271,0.8844254,-0.21853,0.4111031,-60.78024,-1.325466,-10.67373
71.12,-3.601645,-1.242202,1.1083,0.8865944,-0.2301015,0.4163666,-60.78024,-1.325466,-10.67373
71.13,-3.786245,-0.708030899999999,1.474125,0.8909441,-0.2280016,0.4240158,-60.42461,-0.5554047,-9.901001
71.14,-4.216978,0.3009594,2.022861,0.8928304,-0.2245057,0.430233,-60.42461,-0.5554047,-9.901001
71.15,-4.83231,0.894483100000001,2.510627,0.881119,-0.2238486,0.4211603,-60.42461,-0.5554047,-9.901001
71.16,-5.139976,1.250597,2.449656,0.8803149,-0.2331982,0.4101569,-60.42461,-0.5554047,-9.901001
71.17,-5.078443,2.200235,3.059364,0.8887331,-0.2403035,0.4120583,-60.42461,-0.5554047,-9.901001
71.18,-5.139976,3.446635,3.973926,0.8954287,-0.2332496,0.4249664,-60.79765,-0.5614858,-10.29078
71.19,-5.816842,4.752387,4.888487,0.9025718,-0.2243396,0.4273445,-60.79765,-0.5614858,-10.29078
71.2,-6.43217400000002,5.76137699999998,5.437224,0.8886256,-0.2344129,0.4187571,-60.79765,-0.5614858,-10.29078
71.21,-7.539772,5.93943499999998,6.04693200000002,0.8779908,-0.239014,0.4168625,-60.79765,-0.5614858,-10.29078
71.22,-7.60130500000002,6.17684400000002,6.53469799999998,0.8841735,-0.2568761,0.4163777,-60.79765,-0.5614858,-10.29078
71.23,-6.370641,6.17684400000002,6.71760999999998,0.8889462,-0.2770203,0.4350391,-60.78979,-0.9418416,-10.28875
71.24,-3.847778,6.41425300000001,6.53469799999998,0.8827539,-0.2843309,0.446059,-60.78979,-0.9418416,-10.28875
71.25,-0.709583300000001,6.17684400000002,5.742078,0.8845345,-0.3013036,0.4460603,-60.78979,-0.9418416,-10.28875
71.26,2.859344,6.117492,5.193341,0.8801441,-0.3008211,0.4551608,-60.78979,-0.9418416,-10.28875
71.27,7.78200200000001,5.58332,4.400721,0.868869,-0.2971125,0.4599652,-60.78979,-0.9418416,-10.28875
71.28,12.33546,4.57433,3.851984,0.8676237,-0.2824799,0.468578,-61.1749,-0.194294,-11.5211
71.29,16.15052,3.802749,3.059364,0.8579783,-0.2617136,0.4752895,-61.1749,-0.194294,-11.5211
71.3,18.91952,2.615702,2.083832,0.8499551,-0.249763,0.4709933,-61.1749,-0.194294,-11.5211
71.31,21.44238,1.428654,0.986358399999998,0.8477889,-0.2381081,0.4748226,-61.1749,-0.194294,-11.5211
71.32,24.08831,0.597721199999998,0.1937385,0.8517232,-0.2399434,0.4781663,-61.1749,-0.194294,-11.5211
71.33,27.4111,-0.2925643,-0.3549984,0.8543411,-0.2496149,0.4776856,-60.81589,0.5692301,-11.52237
71.34,30.7339,-1.895078,-1.26956,0.842989,-0.2421475,0.4686105,-60.81589,0.5692301,-11.52237
71.35,33.68749,-3.794354,-1.696355,0.8382651,-0.2243312,0.460957,-60.81589,0.5692301,-11.52237
71.36,35.16429,-5.99039199999999,-1.757326,0.8302001,-0.2098377,0.4691031,-60.81589,0.5692301,-11.52237
71.37,35.96422,-7.94901899999999,-1.574414,0.8378224,-0.2003928,0.4757874,-60.81589,0.5692301,-11.52237
71.38,36.08729,-8.83930499999998,-1.696355,0.8620427,-0.1925725,0.4814861,-61.19849,0.9467735,-11.52718
71.39,36.64109,-8.364487,-1.757326,0.8686069,-0.2044729,0.4943992,-61.19849,0.9467735,-11.52718
71.4,37.87175,-6.88067700000001,-1.635384,0.8899656,-0.1994275,0.5216395,-61.19849,0.9467735,-11.52718
71.41,40.14848,-5.040754,-1.940238,0.9095829,-0.2056764,0.5397929,-61.19849,0.9467735,-11.52718
71.42,43.34821,-1.538964,-1.574414,0.9426244,-0.1998703,0.5717983,-61.19849,0.9467735,-11.52718
71.43,45.87107,4.336921,-1.635384,0.9812243,-0.1790173,0.5899116,-60.03861,-0.9394855,-10.67019
71.44,47.47094,11.3405,-1.208589,0.9939565,-0.1556414,0.6209909,-60.03861,-0.9394855,-10.67019
71.45,48.82467,17.39444,0.01082622,0.9743654,-0.1501138,0.6301165,-60.03861,-0.9394855,-10.67019
71.46,48.39393,21.90522,2.876452,0.9726875,-0.05916533,0.6951824,-60.03861,-0.9394855,-10.67019
71.47,40.57921,27.5437,4.705575,0.9868563,0.0706699,0.7803108,-60.03861,-0.9394855,-10.67019
71.48,32.08763,36.03109,5.86401899999998,1.021576,0.09195497,0.8539455,-60.41756,-0.569025,-11.51351
71.49,24.88824,43.45013,6.77858100000002,1.03956,0.07009391,0.9218775,-60.41756,-0.569025,-11.51351
71.5,23.41144,51.81882,5.742078,1.079716,0.03493731,0.9758956,-60.41756,-0.569025,-11.51351
71.51,25.56511,60.7216700000003,4.583633,1.113479,0.003156896,1.040931,-60.41756,-0.569025,-11.51351
71.52,29.50323,69.8619299999999,3.730042,1.136845,-0.02018727,1.094497,-60.41756,-0.569025,-11.51351
71.53,33.74902,78.7054400000002,3.54713,1.1415,-0.03320599,1.148572,-60.40263,-0.9630008,-13.12399
71.54,38.73322,86.8367099999997,2.571598,1.134824,-0.04041208,1.172035,-60.40263,-0.9630008,-13.12399
71.55,44.88654,93.9589900000002,-0.1111153,1.112833,-0.03613094,1.209401,-60.40263,-0.9630008,-13.12399
71.56,51.83979,100.9032,-3.037712,1.095799,-0.03677797,1.228574,-60.40263,-0.9630008,-13.12399
71.57,59.1622500000003,107.1946,-6.20819099999998,1.063719,-0.04065107,1.246338,-60.40263,-0.9630008,-13.12399
71.58,66.6693000000003,113.1298,-9.86643700000001,1.067244,-0.02059202,1.253506,-59.24939,-1.37578,-17.95114
71.59,74.2994200000003,118.5309,-15.17089,1.068737,0.003747704,1.254933,-59.24939,-1.37578,-17.95114
71.6,80.39121,123.7539,-21.26797,1.043742,0.01158945,1.26311,-59.24939,-1.37578,-17.95114
71.61,85.6830700000001,128.324,-26.99922,1.019821,0.01412462,1.273201,-59.24939,-1.37578,-17.95114
71.62,89.8673300000003,132.0039,-33.34018,0.9942251,0.001229121,1.246927,-59.24939,-1.37578,-17.95114
71.63,95.22073,135.1496,-39.74211,1.002831,-0.0162088,1.234474,-58.08997,-2.165646,-22.38927
71.64,101.5586,138.8887,-45.90016,1.011658,-0.04521721,1.231595,-58.08997,-2.165646,-22.38927
71.65,106.5428,143.3402,-51.50947,1.033091,-0.04479815,1.231079,-58.08997,-2.165646,-22.38927
71.66,107.9581,148.1477,-55.59451,1.036021,-0.01885376,1.245424,-58.08997,-2.165646,-22.38927
71.67,104.7584,153.5488,-58.8869299999997,1.033187,0.002550625,1.254038,-54.31219,-5.238586,-29.18273
71.68,100.328,158.7124,-61.4477,1.043315,0.008060984,1.25019,-54.31219,-5.238586,-29.18273
71.69,98.3589199999999,163.52,-63.0939100000003,1.04054,-0.0004741577,1.226268,-54.31219,-5.238586,-29.18273
71.7,99.03578,167.0218,-65.5327400000001,1.005508,-0.03018336,1.18853,-54.31219,-5.238586,-29.18273
71.71,103.22,169.93,-68.1544799999997,0.9956231,-0.04969884,1.148352,-54.31219,-5.238586,-29.18273
71.72,108.6965,172.6009,-71.2639899999998,1.003611,-0.03402598,1.144505,-50.43287,-10.51672,-34.41589
71.73,111.8347,175.2717,-74.4954399999997,1.007243,-0.01987509,1.143059,-50.43287,-10.51672,-34.41589
71.74,111.4655,177.6458,-76.9952400000001,1.00941,-0.03149925,1.14258,-50.43287,-10.51672,-34.41589
71.75,110.1118,179.0703,-77.4830099999999,1.013818,-0.0850368,1.123922,-50.43287,-10.51672,-34.41589
71.76,109.4964,178.4768,-76.6903899999998,1.009158,-0.1490811,1.091882,-50.43287,-10.51672,-34.41589
71.77,109.9887,176.6369,-74.80029,1.002971,-0.1834123,1.070844,-44.28664,-16.60481,-39.95049
71.78,111.7732,174.4408,-73.0321399999999,0.9832871,-0.1738596,1.042161,-44.28664,-16.60481,-39.95049
71.79,114.0499,171.5919,-71.02011,0.9194142,-0.09472277,1.013059,-44.28664,-16.60481,-39.95049
71.8,115.8959,168.5649,-68.0935099999998,0.872551,-0.01184299,1.037527,-44.28664,-16.60481,-39.95049
71.81,118.9725,166.4876,-63.5206999999999,0.8581853,0.02607834,1.017442,-44.28664,-16.60481,-39.95049
71.82,125.5566,166.3095,-59.49664,0.8162059,0.05507466,0.9844857,-37.79773,-21.53268,-43.55337
71.83,135.525,166.4282,-57.6675100000003,0.7302902,0.0622592,0.9463475,-37.79773,-21.53268,-43.55337
71.84,145.678,165.6567,-57.9723700000003,0.6353878,0.08092879,0.908222,-37.79773,-21.53268,-43.55337
71.85,152.5082,164.4103,-61.3257600000001,0.5442607,0.1323144,0.8791746,-37.79773,-21.53268,-43.55337
71.86,154.2311,161.7394,-65.4717700000001,0.4746969,0.1774106,0.8596625,-37.79773,-21.53268,-43.55337
71.87,149.3084,158.2376,-68.9470999999999,0.3955659,0.1867212,0.8267764,-30.60275,-27.95284,-44.30502
71.88,140.8168,152.1243,-70.4713700000002,0.3214567,0.1620888,0.7910187,-30.60275,-27.95284,-44.30502
71.89,133.0021,144.9427,-72.1785499999998,0.2756636,0.1346142,0.7552124,-30.60275,-27.95284,-44.30502
71.9,127.7103,139.601,-75.7148599999998,0.2643473,0.1393456,0.7126377,-30.60275,-27.95284,-44.30502
71.91,123.9567,136.5146,-80.3486299999999,0.2701016,0.1443275,0.7135835,-30.60275,-27.95284,-44.30502
71.92,119.0341,134.6154,-84.67756,0.2653495,0.1635704,0.7025796,-22.21033,-35.05433,-44.20566
71.93,113.6807,134.7341,-87.6651199999999,0.2735153,0.1958038,0.702557,-22.21033,-35.05433,-44.20566
71.94,108.8196,136.2772,-90.6526900000001,0.2651863,0.19799,0.6939566,-22.21033,-35.05433,-44.20566
71.95,106.1121,138.6513,-92.7257000000002,0.2453419,0.1900018,0.6604929,-22.21033,-35.05433,-44.20566
71.96,105.3122,140.6693,-93.94511,0.2054143,0.1617327,0.6313767,-22.21033,-35.05433,-44.20566
71.97,107.0966,141.619,-95.1035600000001,0.1810199,0.1623444,0.5916973,-14.66117,-41.06681,-42.05405
71.98,109.4349,140.5506,-94.3719099999999,0.1689111,0.1829602,0.5342839,-14.66117,-41.06681,-42.05405
71.99,108.8196,138.1172,-91.7501700000003,0.1315034,0.22814,0.5075372,-14.66117,-41.06681,-42.05405
72,107.0351,135.3869,-89.6771600000001,0.08979145,0.2687867,0.4726635,-14.66117,-41.06681,-42.05405
72.01,105.3122,134.3186,-87.9699799999999,0.0784226,0.2508576,0.4497163,-14.66117,-41.06681,-42.05405
72.02,109.681,133.3096,-84.2507600000001,0.05792984,0.4350588,0.4970835,-6.705976,-45.55513,-39.97182
72.03,113.3115,132.1819,-81.9338799999999,0.04439108,0.3789266,0.5521578,-6.705976,-45.55513,-39.97182
72.04,115.0344,136.6333,-80.2876700000002,0.1080975,0.4118109,0.5563455,-6.705976,-45.55513,-39.97182
72.05,113.25,144.1118,-79.31213,0.1481617,0.4320138,0.553399,-6.705976,-45.55513,-39.97182
72.06,109.558,152.8959,-80.22669,0.1425519,0.4184448,0.5165619,-6.705976,-45.55513,-39.97182
72.07,100.3895,159.6027,-78.9463,0.07421758,0.3963509,0.427193,1.223154,-49.2019,-35.82996
72.08,86.6060700000003,162.7484,-75.2880599999999,-0.03455884,0.3482064,0.3398156,1.223154,-49.2019,-35.82996
72.09,74.5455599999998,161.1459,-68.3983600000001,-0.1229315,0.2249074,0.2265789,1.223154,-49.2019,-35.82996
72.1,70.9766299999998,157.3473,-59.8014899999998,-0.1980169,0.1730069,0.1338794,1.223154,-49.2019,-35.82996
72.11,71.2227600000002,150.5812,-53.5215,-0.290324,0.1556575,0.03067237,1.223154,-49.2019,-35.82996
72.12,72.0842299999999,142.0938,-47.97316,-0.3830614,0.2139188,-0.04001022,9.460804,-52.89993,-30.52444
72.13,70.9766299999998,132.4193,-45.71725,-0.3639646,0.311501,-0.09127627,9.460804,-52.89993,-30.52444
72.14,65.9924400000002,123.5165,-44.07103,-0.6061063,0.3610986,-0.09565268,9.460804,-52.89993,-30.52444
72.15,57.74699,113.5453,-44.01006,-0.6246465,0.3869766,-0.1482704,9.460804,-52.89993,-30.52444
72.16,51.65519,103.396,-44.86366,-0.6638926,0.3742491,-0.1797847,9.460804,-52.89993,-30.52444
72.17,48.1478,93.36547,-45.96113,-0.6799419,0.3459921,-0.2060712,16.2086,-53.94951,-25.63078
72.18,46.05567,83.5723299999999,-46.93666,-0.6869112,0.3278658,-0.2070115,16.2086,-53.94951,-25.63078
72.19,44.08661,74.3727099999999,-47.97316,-0.6636052,0.332919,-0.1831246,16.2086,-53.94951,-25.63078
72.2,40.39462,67.1317200000001,-48.5219,-0.6413906,0.3435363,-0.1860375,16.2086,-53.94951,-25.63078
72.21,33.62596,62.08677,-48.39996,-0.6431637,0.3343299,-0.179332,21.47036,-55.40051,-21.90723
72.22,23.65758,58.2882200000001,-46.0221,-0.6650301,0.3052975,-0.1716292,21.47036,-55.40051,-21.90723
72.23,12.39699,55.08319,-43.46133,-0.6534402,0.2588059,-0.1792946,21.47036,-55.40051,-21.90723
72.24,3.105477,52.17493,-40.83958,-0.6446001,0.2286504,-0.2013168,21.47036,-55.40051,-21.90723
72.25,-3.786245,47.66415,-38.76658,-0.6366365,0.2186941,-0.2443999,21.47036,-55.40051,-21.90723
72.26,-8.46277000000003,42.67855,-35.71804,-0.6317727,0.2442074,-0.2812654,25.5039,-54.58917,-19.49465
72.27,-13.75463,36.68396,-32.12077,-0.6556467,0.2692011,-0.3128162,25.5039,-54.58917,-19.49465
72.28,-18.24655,29.38362,-28.21864,-0.6644399,0.2697799,-0.3367298,25.5039,-54.58917,-19.49465
72.29,-20.58482,20.89623,-23.64583,-0.6808258,0.2595268,-0.3596703,25.5039,-54.58917,-19.49465
72.3,-20.33868,10.39086,-19.07302,-0.7011341,0.250711,-0.3763827,25.5039,-54.58917,-19.49465
72.31,-18.30809,-1.835726,-14.37827,-0.7120644,0.2615446,-0.3902452,28.11726,-54.18531,-19.02571
72.32,-16.70822,-14.83389,-9.50061200000003,-0.7154748,0.2878715,-0.3734958,28.11726,-54.18531,-19.02571
72.33,-15.90829,-28.18818,-4.561981,-0.7095857,0.3126885,-0.3294835,28.11726,-54.18531,-19.02571
72.34,-15.35449,-41.00829,1.1083,-0.6652349,0.3135438,-0.278832,28.11726,-54.18531,-19.02571
72.35,-14.55456,-51.75107,7.205376,-0.6191607,0.3010329,-0.205687,28.11726,-54.18531,-19.02571
72.36,-12.4009,-58.8733499999998,13.11954,-0.5871475,0.2848821,-0.1282093,28.86594,-53.81295,-20.63468
72.37,-10.5549,-62.8499600000003,17.38749,-0.5765889,0.2955859,-0.04352248,28.86594,-53.81295,-20.63468
72.38,-10.24723,-64.6898899999997,20.61894,-0.5671917,0.3158321,0.02441372,28.86594,-53.81295,-20.63468
72.39,-12.52396,-65.4021100000001,22.69195,-0.5765361,0.3477513,0.08089377,28.86594,-53.81295,-20.63468
72.4,-16.70822,-66.2924000000001,23.97233,-0.5838658,0.3763876,0.1459855,28.86594,-53.81295,-20.63468
72.41,-21.01555,-66.88593,24.94787,-0.55986,0.3952355,0.1358887,27.72518,-52.69394,-22.26162
72.42,-24.95368,-67.0046300000001,25.86243,-0.5408669,0.4483118,0.1597707,27.72518,-52.69394,-22.26162
72.43,-30.30707,-66.05499,26.59408,-0.5143986,0.4921537,0.1673705,27.72518,-52.69394,-22.26162
72.44,-36.21426,-65.2834099999999,27.9964,-0.5358326,0.518107,0.1822371,27.72518,-52.69394,-22.26162
72.45,-39.84472,-66.23305,30.06941,-0.5906876,0.5074843,0.201957,27.72518,-52.69394,-22.26162
72.46,-40.58312,-67.7762100000002,31.83756,-0.6171311,0.488518,0.2044009,25.48914,-52.73479,-25.11632
72.47,-39.96778,-70.3877100000001,32.26436,-0.6211308,0.4680602,0.2077632,25.48914,-52.73479,-25.11632
72.48,-40.09085,-74.60173,32.20339,-0.634474,0.4515982,0.1900834,25.48914,-52.73479,-25.11632
72.49,-40.89079,-81.3678999999998,32.87407,-0.6143271,0.4692455,0.2163654,25.48914,-52.73479,-25.11632
72.5,-42.67525,-88.8463000000001,33.8496,-0.5479746,0.5166681,0.2104946,25.48914,-52.73479,-25.11632
72.51,-45.81344,-93.29773,35.3129,-0.5022127,0.5454814,0.233379,22.56268,-52.77425,-27.2021
72.52,-47.04411,-96.0872899999999,37.44687,-0.4683047,0.5315478,0.283574,22.56268,-52.77425,-27.2021
72.53,-44.76738,-97.6898000000002,39.64182,-0.4496955,0.4760156,0.3347635,22.56268,-52.77425,-27.2021
72.54,-40.27545,-98.8768500000003,42.26356,-0.4161219,0.4016782,0.3696602,22.56268,-52.77425,-27.2021
72.55,-35.10666,-101.3103,44.39754,-0.4072242,0.3694713,0.388796,22.56268,-52.77425,-27.2021
72.56,-33.62986,-104.456,45.12919,-0.3757836,0.3824516,0.4117095,18.79961,-51.31146,-30.85004
72.57,-36.95266,-108.0765,48.8484,-0.313851,0.4597067,0.4891109,18.79961,-51.31146,-30.85004
72.58,-44.02898,-108.7887,51.65306,-0.2592119,0.5349169,0.5181894,18.79961,-51.31146,-30.85004
72.59,-51.35143,-105.4056,53.90898,-0.2253282,0.5745942,0.5855994,18.79961,-51.31146,-30.85004
72.6,-52.7667,-99.6484299999998,54.39674,-0.2237972,0.5714027,0.6052191,18.79961,-51.31146,-30.85004
72.61,-48.39784,-93.6538400000002,53.84801,-0.2145786,0.4958306,0.6109654,13.56732,-51.37808,-34.11399
72.62,-43.78285,-89.2617599999998,55.55519,-0.2333228,0.4297178,0.5957007,13.56732,-51.37808,-34.11399
72.63,-40.82925,-88.1340700000001,55.98198,-0.2646807,0.4123833,0.5747025,13.56732,-51.37808,-34.11399
72.64,-43.96745,-89.1430600000002,56.04295,-0.2321792,0.4460256,0.5698515,13.56732,-51.37808,-34.11399
72.65,-54.6127,-90.3301100000003,57.7501400000001,-0.1929442,0.5112389,0.6018308,13.56732,-51.37808,-34.11399
72.66,-64.4580200000003,-91.3390999999998,58.9695499999999,-0.1358194,0.5577926,0.6270838,8.690663,-50.67463,-36.6052
72.67,-70.3651999999998,-88.6682400000002,60.0060499999998,-0.1115371,0.5372856,0.6701186,8.690663,-50.67463,-36.6052
72.68,-68.9499400000001,-84.27617,61.5912900000001,-0.1360888,0.4955701,0.6783079,8.690663,-50.67463,-36.6052
72.69,-63.16581,-79.5873300000001,62.2009999999998,-0.1758371,0.4582559,0.6692939,8.690663,-50.67463,-36.6052
72.7,-58.3662199999997,-77.50999,62.6887700000002,-0.207983,0.4569506,0.6492501,8.690663,-50.67463,-36.6052
72.71,-59.1046199999999,-77.7474099999997,61.2254699999998,-0.2267621,0.4697648,0.6033362,2.744093,-49.59825,-39.04182
72.72,-63.16581,-81.2492000000002,59.3353799999998,-0.2198226,0.5149146,0.5836909,2.744093,-49.59825,-39.04182
72.73,-67.96541,-87.83731,57.9940199999999,-0.2053297,0.599939,0.6037439,2.744093,-49.59825,-39.04182
72.74,-74.5494599999999,-91.6358599999999,55.31131,-0.1642878,0.621042,0.6438673,2.744093,-49.59825,-39.04182
72.75,-76.5800600000001,-93.5351400000001,54.21383,-0.1003675,0.5659453,0.6978492,2.744093,-49.59825,-39.04182
72.76,-73.3187899999998,-93.00097,54.21383,-0.06393567,0.4958239,0.7624115,-1.783764,-47.80724,-40.6975
72.77,-68.0269399999999,-91.0423399999998,53.29927,-0.0531902,0.4433449,0.7925566,-1.783764,-47.80724,-40.6975
72.78,-65.87328,-88.07472,51.95791,-0.04593055,0.3945881,0.8121781,-1.783764,-47.80724,-40.6975
72.79,-69.25761,-86.94702,50.55559,-0.03742416,0.3825286,0.803552,-1.783764,-47.80724,-40.6975
72.8,-77.5645900000001,-87.7779500000002,50.25073,-0.01013723,0.4082183,0.7905762,-7.452885,-45.20055,-42.36591
72.81,-85.50238,-90.5675199999997,51.28724,0.04605979,0.4515792,0.7875956,-7.452885,-45.20055,-42.36591
72.82,-90.1788999999997,-93.1196700000001,51.71403,0.07738643,0.4438318,0.7760572,-7.452885,-45.20055,-42.36591
72.83,-89.2559099999999,-94.4847699999998,53.05539,0.1109304,0.3965267,0.7913253,-7.452885,-45.20055,-42.36591
72.84,-82.5487799999997,-94.7221799999999,54.03092,0.1339022,0.341185,0.8008711,-7.452885,-45.20055,-42.36591
72.85,-76.0877900000002,-94.5441300000002,54.33577,0.1217652,0.3134878,0.827221,-12.39414,-41.45099,-44.48635
72.86,-73.9341300000003,-93.5351400000001,54.03092,0.1290599,0.3155722,0.8798512,-12.39414,-41.45099,-44.48635
72.87,-78.1183899999998,-91.9919700000001,52.07986,0.1536816,0.3284353,0.9046909,-12.39414,-41.45099,-44.48635
72.88,-88.3329099999998,-90.0927000000003,51.04335,0.1823572,0.3324079,0.9051185,-12.39414,-41.45099,-44.48635
72.89,-99.4088900000002,-88.4901899999999,49.21423,0.2292317,0.327586,0.914131,-12.39414,-41.45099,-44.48635
72.9,-106.8544,-86.94702,47.93384,0.2809399,0.2983608,0.9011267,-17.27857,-37.69007,-45.31632
72.91,-107.5313,-87.0657299999999,47.20219,0.2935914,0.2469079,0.8800606,-17.27857,-37.69007,-45.31632
72.92,-99.9011499999998,-88.4901899999999,47.62899,0.3086733,0.1961119,0.8723902,-17.27857,-37.69007,-45.31632
72.93,-88.2098399999997,-90.0333500000002,49.88491,0.3306201,0.1694292,0.8828874,-17.27857,-37.69007,-45.31632
72.94,-81.01045,-91.7545600000001,52.99442,0.3464805,0.1815587,0.8996068,-17.27857,-37.69007,-45.31632
72.95,-82.0565200000001,-92.7635599999999,55.61616,0.3581911,0.2072871,0.9244657,-22.61565,-33.17226,-46.21809
72.96,-91.7172300000001,-93.4164399999999,56.59169,0.3675648,0.2019261,0.9555582,-22.61565,-33.17226,-46.21809
72.97,-105.2545,-92.8822600000001,57.4452800000001,0.3989009,0.1952483,1.00767,-22.61565,-33.17226,-46.21809
72.98,-114.8537,-91.6358599999999,56.83558,0.3758711,0.2028886,1.042644,-22.61565,-33.17226,-46.21809
72.99,-117.8689,-87.8966600000001,54.51868,0.3591135,0.2141684,1.09005,-22.61565,-33.17226,-46.21809
73,-114.8537,-83.7419999999999,50.3117,0.3566583,0.1894027,1.097239,-27.2086,-28.63847,-45.88879
73.01,-108.0235,-80.6556699999997,46.71443,0.3664781,0.1330257,1.075222,-27.2086,-28.63847,-45.88879
73.02,-102.7317,-79.3499200000001,42.99521,0.3721378,0.09070268,1.057994,-27.2086,-28.63847,-45.88879
73.03,-102.3009,-80.5369700000001,39.03211,0.3725417,0.06786168,1.00392,-27.2086,-28.63847,-45.88879
73.04,-107.039,-83.8607000000001,35.25193,0.3557225,0.08106995,0.9967676,-27.2086,-28.63847,-45.88879
73.05,-113.9923,-87.8966600000001,32.99601,0.3565502,0.1152601,1.013986,-31.43167,-23.78817,-45.9454
73.06,-119.5918,-90.4488099999999,33.11795,0.3708276,0.1343457,1.050807,-31.43167,-23.78817,-45.9454
73.07,-120.1456,-90.9236299999999,33.78863,0.3867552,0.117535,1.090984,-31.43167,-23.78817,-45.9454
73.08,-113.3769,-90.3894700000001,32.8131,0.4006779,0.05148608,1.118255,-31.43167,-23.78817,-45.9454
73.09,-100.9472,-89.8552900000003,30.13038,0.4270229,-0.0282659,1.10818,-31.43167,-23.78817,-45.9454
73.1,-89.8097100000002,-89.0837100000001,27.02087,0.4719141,-0.05754683,1.103802,-35.685,-17.72307,-44.78293
73.11,-86.67151,-88.4308300000002,24.58204,0.5024618,-0.04975506,1.092739,-35.685,-17.72307,-44.78293
73.12,-91.4095699999998,-88.6088900000001,22.26515,0.5122619,-0.02673535,1.09128,-35.685,-17.72307,-44.78293
73.13,-96.5168199999998,-88.6088900000001,20.98477,0.5281923,-0.01858852,1.097472,-35.685,-17.72307,-44.78293
73.14,-98.3628200000001,-88.6088900000001,20.43603,0.5366406,-0.02783873,1.07736,-35.685,-17.72307,-44.78293
73.15,-94.7938999999999,-88.4308300000002,20.9238,0.5358213,-0.0625366,1.057748,-39.47923,-12.79248,-43.22413
73.16,-87.1022400000003,-88.8463000000001,21.28962,0.553257,-0.1088995,1.051508,-39.47923,-12.79248,-43.22413
73.17,-77.1953900000003,-88.6682400000002,20.67991,0.5753217,-0.1162738,1.047643,-39.47923,-12.79248,-43.22413
73.18,-72.08813,-88.1340700000001,19.0337,0.6016453,-0.1430936,1.033726,-39.47923,-12.79248,-43.22413
73.19,-68.5192000000001,-89.02436,17.93623,0.6124554,-0.1484316,1.011215,-39.47923,-12.79248,-43.22413
73.2,-67.4116099999997,-89.1430600000002,17.08264,0.6370572,-0.1354207,0.9992043,-42.95567,-8.296213,-40.82214
73.21,-68.9499400000001,-88.78695,15.61934,0.6529076,-0.1236072,0.9814664,-42.95567,-8.296213,-40.82214
73.22,-70.8574700000002,-88.3714800000001,14.52187,0.6531308,-0.1359049,0.9647189,-42.95567,-8.296213,-40.82214
73.23,-68.0269399999999,-88.1934200000001,14.15604,0.6385706,-0.1391608,0.9590022,-42.95567,-8.296213,-40.82214
73.24,-63.16581,-88.1934200000001,13.30245,0.6431439,-0.1493454,0.9513396,-42.95567,-8.296213,-40.82214
73.25,-56.76636,-87.1250799999999,12.5708,0.6532012,-0.1662863,0.9369692,-46.41154,-4.874352,-38.0274
73.26,-50.24384,-86.6502599999999,11.16848,0.6560929,-0.1648854,0.9245209,-46.41154,-4.874352,-38.0274
73.27,-46.79797,-85.7006199999998,9.94906,0.6827643,-0.1580675,0.9216011,-46.41154,-4.874352,-38.0274
73.28,-46.85951,-84.3948700000002,9.46129399999998,0.7027983,-0.1611128,0.9172598,-46.41154,-4.874352,-38.0274
73.29,-49.01317,-82.85171,8.79061600000001,0.719335,-0.1856699,0.90623,-46.41154,-4.874352,-38.0274
73.3,-50.3669,-81.6053099999998,7.51023000000002,0.7273793,-0.1992709,0.8894694,-49.08367,-3.338838,-34.05596
73.31,-49.13624,-80.5963200000002,6.35178600000003,0.7383535,-0.2133569,0.8664822,-49.08367,-3.338838,-34.05596
73.32,-45.32118,-79.1125100000001,6.16887299999999,0.7437354,-0.2148225,0.8540303,-49.08367,-3.338838,-34.05596
73.33,-41.25998,-77.3319399999998,6.29081499999999,0.7656174,-0.2124902,0.8492057,-49.08367,-3.338838,-34.05596
73.34,-39.59859,-75.7294199999998,6.77858100000002,0.7857863,-0.1964671,0.8573022,-49.08367,-3.338838,-34.05596
73.35,-40.82925,-73.8301499999999,7.08343500000003,0.7754536,-0.1914224,0.8467903,-51.00294,-1.804236,-30.85296
73.36,-43.16751,-71.69347,7.022464,0.7818647,-0.1957744,0.8352944,-51.00294,-1.804236,-30.85296
73.37,-45.50578,-69.2006699999997,6.96149300000002,0.7981762,-0.2080954,0.834312,-51.00294,-1.804236,-30.85296
73.38,-47.35178,-66.4111000000002,6.90052199999999,0.8135005,-0.2193018,0.8510383,-51.00294,-1.804236,-30.85296
73.39,-46.67491,-63.5028400000002,5.86401899999998,0.8205666,-0.2322738,0.8519865,-52.92249,-0.2690907,-27.58547
73.4,-42.61372,-60.9506899999998,4.461692,0.8019328,-0.2521279,0.8467597,-52.92249,-0.2690907,-27.58547
73.41,-35.59893,-57.8643600000002,2.815481,0.8022927,-0.2717163,0.8295354,-52.92249,-0.2690907,-27.58547
73.42,-28.5226,-55.96508,1.657037,0.810959,-0.2670103,0.7941045,-52.92249,-0.2690907,-27.58547
73.43,-23.53841,-53.70969,0.5595631,0.8139949,-0.247789,0.7639439,-52.92249,-0.2690907,-27.58547
73.44,-22.36928,-52.46329,-0.05014454,0.8028775,-0.2273895,0.7338077,-55.21651,1.262698,-24.38524
73.45,-24.21528,-50.97948,-0.4159691,0.8105528,-0.2216829,0.7036426,-55.21651,1.262698,-24.38524
73.46,-28.39954,-49.67373,-1.208589,0.8287279,-0.2296813,0.6930844,-55.21651,1.262698,-24.38524
73.47,-33.62986,-49.02086,-2.184121,0.8272449,-0.2552603,0.6624646,-55.21651,1.262698,-24.38524
73.48,-37.62952,-49.55503,-2.793829,0.8199983,-0.2853398,0.6304204,-55.21651,1.262698,-24.38524
73.49,-37.50646,-50.50467,-2.06218,0.843366,-0.3101734,0.6275146,-56.36887,2.038943,-21.55963
73.5,-34.49133,-51.75107,0.620533899999998,0.8543237,-0.2968189,0.6294064,-56.36887,2.038943,-21.55963
73.51,-33.1376,-50.97948,1.90092,0.8842071,-0.2791548,0.6365284,-56.36887,2.038943,-21.55963
73.52,-30.9224,-49.67373,3.364218,0.8783466,-0.2782066,0.6465885,-56.36887,2.038943,-21.55963
73.53,-26.92274,-47.18093,4.33975,0.8784802,-0.2848229,0.6666902,-56.36887,2.038943,-21.55963
73.54,-21.26168,-45.51907,6.41275599999997,0.8690925,-0.2775877,0.6810619,-57.46128,3.185662,-19.96108
73.55,-16.70822,-43.79785,7.63217200000002,0.8429468,-0.2598568,0.710296,-57.46128,3.185662,-19.96108
73.56,-12.52396,-41.18634,8.05896700000001,0.8193728,-0.2229655,0.7567495,-57.46128,3.185662,-19.96108
73.57,-8.955036,-37.15038,7.69314200000002,0.8128529,-0.2112202,0.8328515,-57.46128,3.185662,-19.96108
73.58,-9.75496900000002,-31.57126,6.473727,0.8195203,-0.0963035,0.9500613,-57.46128,3.185662,-19.96108
73.59,-26.06128,-24.50833,6.71760999999998,0.8366234,-0.04529074,1.017976,-58.60579,3.581553,-17.13344
73.6,-39.16785,-15.24936,5.376253,0.8071041,-0.08009852,1.101309,-58.60579,3.581553,-17.13344
73.61,-39.90625,-6.16844799999999,3.425189,0.8371702,-0.2811492,1.050579,-58.60579,3.581553,-17.13344
73.62,-11.90863,2.675054,-1.147618,0.8323027,-0.5173272,0.953976,-58.60579,3.581553,-17.13344
73.63,25.44204,9.14446299999999,-5.964308,0.8136091,-0.431077,0.9142647,-58.60579,3.581553,-17.13344
73.64,43.22514,13.29913,-7.91537200000002,0.8073043,-0.251605,0.892215,-59.0033,4.353071,-15.52777
73.65,42.17908,15.49516,-6.63498599999997,0.8179553,-0.1703388,0.8816468,-59.0033,4.353071,-15.52777
73.66,33.50289,16.56351,-3.586449,0.8587641,-0.1387876,0.8428029,-59.0033,4.353071,-15.52777
73.67,27.5957,18.87825,-2.8548,0.8570602,-0.2040603,0.8294225,-59.0033,4.353071,-15.52777
73.68,31.41076,22.43939,-2.367033,0.8884151,-0.2388794,0.8332055,-59.0033,4.353071,-15.52777
73.69,40.21001,27.89981,-2.732858,0.9183019,-0.2467508,0.8642628,-59.37437,4.343176,-16.36905
73.7,47.71707,34.84404,-3.70839,0.9373551,-0.2220675,0.9183024,-59.37437,4.343176,-16.36905
73.71,50.79373,42.5005,-4.50101,0.9610124,-0.1832712,0.964673,-59.37437,4.343176,-16.36905
73.72,48.02473,49.56343,-5.3546,0.9537048,-0.1570344,0.9799935,-59.37437,4.343176,-16.36905
73.73,45.25574,55.55801,-6.75692799999998,0.9382861,-0.1923575,0.9766793,-59.37437,4.343176,-16.36905
73.74,47.28633,61.2558399999998,-7.61051899999998,0.9541622,-0.2333401,0.9776194,-58.98642,3.955281,-17.58975
73.75,53.43966,67.48784,-9.01284600000001,0.980349,-0.2521025,0.9948074,-58.98642,3.955281,-17.58975
73.76,57.9931199999998,74.3133599999998,-10.65906,0.984754,-0.2264877,1.023029,-58.98642,3.955281,-17.58975
73.77,58.0546500000002,80.3673000000001,-12.00041,0.9753287,-0.2173402,1.03405,-58.98642,3.955281,-17.58975
73.78,54.11652,86.7773600000002,-13.82954,0.9743816,-0.2188254,1.033095,-58.98642,3.955281,-17.58975
73.79,49.9938,92.71259,-15.17089,0.9556013,-0.2309249,1.025952,-57.80877,2.034699,-20.79628
73.8,46.671,98.11366,-16.02448,0.9469218,-0.2616844,1.028847,-57.80877,2.034699,-20.79628
73.81,44.76347,103.8708,-15.96351,0.9556874,-0.2615858,1.020696,-57.80877,2.034699,-20.79628
73.82,43.28667,108.619,-16.08545,0.9416125,-0.2384728,1.027893,-57.80877,2.034699,-20.79628
73.83,43.96354,113.0705,-16.69516,0.913889,-0.2672184,1.026513,-57.80877,2.034699,-20.79628
73.84,49.56306,116.4535,-17.2439,0.9047078,-0.2969018,1.041851,-56.31009,0.09957314,-26.00001
73.85,58.3007899999997,120.6082,-17.79264,0.9023954,-0.2774835,1.044722,-56.31009,0.09957314,-26.00001
73.86,65.9309,125.0596,-17.79264,0.8994248,-0.2495418,1.02462,-56.31009,0.09957314,-26.00001
73.87,73.7456300000002,128.2647,-17.00002,0.8631588,-0.2393975,0.9902226,-56.31009,0.09957314,-26.00001
73.88,82.0526099999997,129.6298,-16.26837,0.854448,-0.2431861,0.9667885,-56.31009,0.09957314,-26.00001
73.89,90.3596000000001,130.0452,-15.71963,0.8418995,-0.2241762,0.9471838,-53.26543,-1.063669,-31.26071
73.9,96.3898500000002,129.5704,-14.98798,0.8202519,-0.1871689,0.9491263,-53.26543,-1.063669,-31.26071
73.91,99.2203799999999,129.6891,-15.23186,0.7970839,-0.1466408,0.9673422,-53.26543,-1.063669,-31.26071
73.92,100.5741,130.2827,-15.84157,0.7827356,-0.1345872,0.9879429,-53.26543,-1.063669,-31.26071
73.93,102.2355,131.5291,-16.87807,0.7772477,-0.1271871,1.011879,-49.43056,-4.125789,-36.8282
73.94,103.097,132.8348,-18.21943,0.7673731,-0.1199527,1.027209,-49.43056,-4.125789,-36.8282
73.95,101.7432,133.6064,-19.49982,0.7602299,-0.1024508,1.043489,-49.43056,-4.125789,-36.8282
73.96,98.9742500000001,134.7341,-20.23147,0.7521406,-0.1120488,1.074134,-49.43056,-4.125789,-36.8282
73.97,97.1282499999999,136.4553,-20.65826,0.7412897,-0.1041284,1.113394,-49.43056,-4.125789,-36.8282
73.98,98.1127900000002,139.7197,-21.45088,0.7423925,-0.08369612,1.166509,-45.23192,-6.798748,-41.68544
73.99,99.4665099999997,143.1621,-22.12156,0.7450917,-0.07057844,1.213401,-45.23192,-6.798748,-41.68544
74,101.5586,146.1891,-22.73127,0.7143275,-0.09304924,1.213939,-45.23192,-6.798748,-41.68544
74.01,105.7429,148.8599,-22.6703,0.6836382,-0.09370382,1.208729,-45.23192,-6.798748,-41.68544
74.02,110.0502,151.4715,-22.97515,0.6801296,-0.06273429,1.202027,-45.23192,-6.798748,-41.68544
74.03,112.3885,153.5488,-23.03612,0.6594302,-0.0242109,1.208274,-40.26884,-10.52959,-44.85437
74.04,113.9268,155.0326,-22.97515,0.6356211,-0.001815725,1.211182,-40.26884,-10.52959,-44.85437
74.05,116.142,156.8132,-23.40195,0.6082546,0.02823598,1.208829,-40.26884,-10.52959,-44.85437
74.06,118.1726,158.9498,-25.04816,0.5928143,0.0458362,1.200715,-40.26884,-10.52959,-44.85437
74.07,120.4493,161.3833,-27.42602,0.5431234,0.04467022,1.180702,-40.26884,-10.52959,-44.85437
74.08,122.603,162.689,-29.55999,0.5061348,0.04184215,1.164017,-34.58428,-15.84336,-48.39675
74.09,123.3414,163.4606,-30.47455,0.4815456,0.05332503,1.144435,-34.58428,-15.84336,-48.39675
74.1,123.0953,162.3923,-29.98679,0.448106,0.06822671,1.092804,-34.58428,-15.84336,-48.39675
74.11,122.7876,160.1369,-29.19417,0.4113337,0.07930221,1.055057,-34.58428,-15.84336,-48.39675
74.12,124.5105,157.2286,-28.58446,0.3712147,0.1132956,1.033104,-34.58428,-15.84336,-48.39675
74.13,128.7563,154.7952,-30.04776,0.3082261,0.1452916,1.00162,-27.34508,-21.13234,-50.37953
74.14,133.5559,151.5308,-31.81591,0.2710414,0.1789404,0.9887542,-27.34508,-21.13234,-50.37953
74.15,137.1864,148.6819,-33.15727,0.2437183,0.2064886,0.978266,-27.34508,-21.13234,-50.37953
74.16,139.4016,146.6046,-36.0229,0.2071104,0.2352411,0.9601366,-27.34508,-21.13234,-50.37953
74.17,141.6168,144.7646,-39.92502,0.1705704,0.2343043,0.9367503,-27.34508,-21.13234,-50.37953
74.18,144.3242,142.0344,-42.66871,0.1759418,0.2332806,0.9195125,-20.09131,-27.54495,-50.29223
74.19,145.2472,138.77,-44.80268,0.1667151,0.2309001,0.8917717,-20.09131,-27.54495,-50.29223
74.2,145.1857,134.7341,-45.35142,0.135216,0.2207159,0.8559361,-20.09131,-27.54495,-50.29223
74.21,143.5858,129.9859,-45.77822,0.106052,0.2159232,0.8200949,-20.09131,-27.54495,-50.29223
74.22,140.3246,125.8906,-46.93666,0.1002062,0.2150235,0.7875621,-20.09131,-27.54495,-50.29223
74.23,138.3555,121.9733,-49.25355,0.09286638,0.2153811,0.7363672,-13.29463,-33.49639,-47.75951
74.24,139.9554,119.065,-53.15568,0.09092414,0.2139935,0.6952134,-13.29463,-33.49639,-47.75951
74.25,142.2936,116.6316,-56.4481,0.1034685,0.2197306,0.6578611,-13.29463,-33.49639,-47.75951
74.26,144.2627,114.3169,-59.25275,0.1184524,0.2256386,0.6339047,-13.29463,-33.49639,-47.75951
74.27,145.6164,112.7737,-60.9599300000002,0.1046296,0.2342738,0.598512,-13.29463,-33.49639,-47.75951
74.28,145.4934,111.7054,-61.3867300000001,0.09425663,0.241143,0.575078,-6.794895,-40.27101,-44.83773
74.29,143.4012,110.3996,-61.3867300000001,0.08522468,0.2543034,0.5458972,-6.794895,-40.27101,-44.83773
74.3,140.14,109.0345,-60.8379899999997,0.03946467,0.2768376,0.5052922,-6.794895,-40.27101,-44.83773
74.31,133.7405,109.3313,-61.2647900000002,0.01857182,0.2726767,0.4675223,-6.794895,-40.27101,-44.83773
74.32,128.0179,111.7647,-62.7280799999997,0.008272424,0.3013226,0.4340326,-6.794895,-40.27101,-44.83773
74.33,117.9265,114.4949,-62.4842,-0.004895803,0.2749084,0.3905119,-0.3258018,-45.89094,-40.30952
74.34,105.989,118.4122,-62.1793500000002,-0.02223404,0.2630076,0.348909,-0.3258018,-45.89094,-40.30952
74.35,96.6359900000003,121.2017,-59.9844000000002,-0.05111942,0.2437957,0.3298213,-0.3258018,-45.89094,-40.30952
74.36,90.8518600000003,123.5758,-57.17975,-0.08409535,0.2338709,0.2724522,-0.3258018,-45.89094,-40.30952
74.37,88.4520600000002,126.0686,-54.55801,-0.150149,0.2208628,0.2151416,-0.3258018,-45.89094,-40.30952
74.38,87.3444699999999,127.9086,-51.99723,-0.2229277,0.2293796,0.1879874,5.679502,-50.30642,-35.40397
74.39,86.2368699999999,128.9769,-49.37549,-0.2944959,0.2509005,0.1455134,5.679502,-50.30642,-35.40397
74.4,83.2217400000002,128.6801,-48.76578,-0.3504216,0.2954644,0.09152031,5.679502,-50.30642,-35.40397
74.41,77.9298899999998,128.2647,-48.64384,-0.3614422,0.3104151,0.04989954,5.679502,-50.30642,-35.40397
74.42,71.2227600000002,125.4158,-47.72928,-0.5160029,0.3135417,-0.01778962,5.679502,-50.30642,-35.40397
74.43,63.7157100000002,120.4302,-46.75375,-0.4900745,0.3331671,-0.0532545,12.44133,-52.11345,-30.11925
74.44,56.63939,114.6136,-44.92463,-0.5142162,0.345735,-0.1144734,12.44133,-52.11345,-30.11925
74.45,49.13233,107.9068,-42.36385,-0.5513778,0.3257289,-0.1493395,12.44133,-52.11345,-30.11925
74.46,43.65588,100.2503,-38.70561,-0.5672886,0.3158834,-0.1818524,12.44133,-52.11345,-30.11925
74.47,40.02541,92.5345399999998,-35.90095,-0.5770148,0.3138781,-0.2205996,12.44133,-52.11345,-30.11925
74.48,36.27189,84.4626199999998,-33.15727,-0.6008466,0.310688,-0.2521433,17.70757,-53.93826,-25.61966
74.49,31.90303,74.7881799999998,-29.80388,-0.6495009,0.3317423,-0.2889142,17.70757,-53.93826,-25.61966
74.5,26.73424,64.5202200000002,-27.85281,-0.6840198,0.35259,-0.3257098,17.70757,-53.93826,-25.61966
74.51,20.82705,53.30262,-24.98719,-0.6987258,0.3571106,-0.3309496,17.70757,-53.93826,-25.61966
74.52,15.96592,41.84762,-21.57282,-0.6947659,0.3529899,-0.3649344,22.59656,-55.39588,-22.35039
74.53,11.90473,30.98614,-18.03652,-0.6916201,0.3671619,-0.3630292,22.59656,-55.39588,-22.35039
74.54,6.79747099999997,20.59947,-15.23186,-0.7028441,0.3942581,-0.3515308,22.59656,-55.39588,-22.35039
74.55,1.321013,10.2128,-12.36624,-0.7088431,0.4024445,-0.3467367,22.59656,-55.39588,-22.35039
74.56,-3.663178,0.775778400000001,-9.80546599999998,-0.7160781,0.3991412,-0.3204015,22.59656,-55.39588,-22.35039
74.57,-7.97050500000002,-9.01736299999997,-7.67149000000001,-0.7238866,0.4000685,-0.3084237,24.7553,-54.23132,-21.50175
74.58,-10.80103,-17.50475,-5.78139599999999,-0.7081627,0.3938479,-0.2787778,24.7553,-54.23132,-21.50175
74.59,-12.0317,-25.33926,-3.037712,-0.6759287,0.3909701,-0.2381543,24.7553,-54.23132,-21.50175
74.6,-13.38543,-32.46155,0.01082622,-0.646441,0.3788972,-0.1874736,24.7553,-54.23132,-21.50175
74.61,-15.90829,-38.8716,4.095867,-0.63742,0.3669366,-0.1334071,24.7553,-54.23132,-21.50175
74.62,-18.36962,-45.16295,8.18090799999998,-0.6345361,0.3704093,-0.07885536,25.49862,-53.84861,-21.88521
74.63,-20.89248,-50.56402,11.59527,-0.6167901,0.3867793,-0.02768287,25.49862,-53.84861,-21.88521
74.64,-22.12315,-55.01545,15.4974,-0.6065774,0.415193,0.0282854,25.49862,-53.84861,-21.88521
74.65,-23.35381,-57.9237099999997,18.66788,-0.5988066,0.4433566,0.06224351,25.49862,-53.84861,-21.88521
74.66,-24.76908,-60.4758600000001,21.89933,-0.6093799,0.4624679,0.1024574,25.49862,-53.84861,-21.88521
74.67,-24.70754,-62.9093200000001,24.70398,-0.6297824,0.4591886,0.106801,24.38931,-54.25102,-23.50403
74.68,-24.03068,-65.75823,27.44767,-0.6402347,0.4712886,0.1240449,24.38931,-54.25102,-23.50403
74.69,-22.86155,-68.1916699999999,29.52067,-0.6235571,0.4924048,0.1651679,24.38931,-54.25102,-23.50403
74.7,-21.69242,-70.8031800000001,30.49621,-0.6072497,0.5071439,0.2005503,24.38931,-54.25102,-23.50403
74.71,-22.18468,-72.0495800000002,31.53271,-0.5901997,0.5339321,0.2234853,24.38931,-54.25102,-23.50403
74.72,-25.13828,-73.4740399999997,32.8131,-0.590124,0.5565502,0.2521939,22.58091,-53.90496,-25.97051
74.73,-29.8148,-75.1952599999999,33.4228,-0.578528,0.5623,0.2713153,22.58091,-53.90496,-25.97051
74.74,-34.73746,-76.0855400000002,33.97154,-0.557846,0.5511909,0.2870751,22.58091,-53.90496,-25.97051
74.75,-39.29092,-76.6790599999998,34.09348,-0.5563467,0.5229043,0.2727225,22.58091,-53.90496,-25.97051
74.76,-43.65978,-77.2725900000003,34.27639,-0.5393575,0.5003613,0.2683915,22.58091,-53.90496,-25.97051
74.77,-47.78251,-78.40028,35.06901,-0.5244778,0.5130362,0.2937268,19.20911,-53.56681,-27.99708
74.78,-50.98223,-79.1718699999998,35.55678,-0.491618,0.5285839,0.3286016,19.20911,-53.56681,-27.99708
74.79,-50.24384,-79.8247400000001,35.49581,-0.4766469,0.5620509,0.3424456,19.20911,-53.56681,-27.99708
74.8,-48.76704,-77.92546,35.00804,-0.4634006,0.583966,0.3720886,19.20911,-53.56681,-27.99708
74.81,-48.95164,-77.2132299999999,34.64222,-0.4718621,0.5679294,0.3902933,19.20911,-53.56681,-27.99708
74.82,-49.0747,-78.5783399999999,33.54474,-0.4634605,0.535432,0.3788012,15.46991,-53.24564,-31.70343
74.83,-50.61304,-80.41827,32.44727,-0.4415833,0.5119698,0.3696762,15.46991,-53.24564,-31.70343
74.84,-53.8743,-82.85171,31.65465,-0.4138225,0.5131533,0.3858991,15.46991,-53.24564,-31.70343
74.85,-58.24316,-86.0567400000003,32.14242,-0.3776109,0.531582,0.40976,15.46991,-53.24564,-31.70343
74.86,-62.5504799999999,-87.5999,34.27639,-0.3313174,0.5587121,0.4599228,15.46991,-53.24564,-31.70343
74.87,-64.2734100000001,-86.4722100000002,35.49581,-0.314369,0.5915796,0.5101352,10.57555,-51.77766,-33.7472
74.88,-62.6120099999997,-82.67365,35.00804,-0.2965695,0.5785794,0.5378649,10.57555,-51.77766,-33.7472
74.89,-57.6893600000002,-78.3409299999999,33.91057,-0.2993087,0.5431919,0.5531933,10.57555,-51.77766,-33.7472
74.9,-53.3205,-75.25461,32.75212,-0.2899174,0.5096545,0.5321282,10.57555,-51.77766,-33.7472
74.91,-52.88977,-74.9578499999999,32.08144,-0.3007675,0.4896427,0.492909,10.57555,-51.77766,-33.7472
74.92,-58.92002,-77.4506500000002,31.3498,-0.2806466,0.4815995,0.4732544,7.203225,-51.07332,-37.4528
74.93,-66.9193399999999,-81.6053099999998,32.14242,-0.2472192,0.4927322,0.5023864,7.203225,-51.07332,-37.4528
74.94,-74.2418000000002,-84.51358,33.48377,-0.1980149,0.5203224,0.5434511,7.203225,-51.07332,-37.4528
74.95,-80.0874600000001,-85.1071000000002,35.12998,-0.1664437,0.5273609,0.6070448,7.203225,-51.07332,-37.4528
74.96,-82.8564500000002,-82.0801299999998,36.53231,-0.1337556,0.5001291,0.6404952,7.203225,-51.07332,-37.4528
74.97,-82.4257100000003,-77.92546,36.71523,-0.1158694,0.4564855,0.6648827,3.110973,-49.21508,-39.04107
74.98,-81.1950499999999,-74.8391400000001,36.16648,-0.130612,0.4108877,0.652477,3.110973,-49.21508,-39.04107
74.99,-82.3641799999998,-72.99921,35.43484,-0.1181709,0.3705897,0.6294941,3.110973,-49.21508,-39.04107
75,-87.2253099999997,-72.2869900000002,34.15445,-0.09880321,0.377351,0.6361586,3.110973,-49.21508,-39.04107
75.01,-90.6711700000002,-73.8895,34.52028,-0.04522004,0.4048655,0.6595084,3.110973,-49.21508,-39.04107
75.02,-92.3940999999998,-75.5513700000001,37.26396,-0.0001681705,0.4195593,0.680962,-1.439306,-45.92008,-42.76887
75.03,-91.7787700000002,-74.7204399999999,40.86124,0.02797974,0.4004638,0.7105896,-1.439306,-45.92008,-42.76887
75.04,-86.5484399999999,-71.7528200000001,44.39754,0.04792262,0.3766353,0.7186968,-1.439306,-45.92008,-42.76887
75.05,-82.7333800000002,-68.4884400000003,47.08025,0.05415494,0.3828836,0.7507489,-1.439306,-45.92008,-42.76887
75.06,-85.1331800000002,-65.6988799999999,48.78743,0.04085143,0.3909914,0.7627344,-1.439306,-45.92008,-42.76887
75.07,-95.16309,-62.0783800000001,49.2752,0.05898877,0.3592557,0.760318,-5.239195,-42.92552,-45.19941
75.08,-106.7313,-59.5855799999998,50.00685,0.08578344,0.3342583,0.7851637,-5.239195,-42.92552,-45.19941
75.09,-111.8386,-60.9506899999998,51.53112,0.06875066,0.3336507,0.8086438,-5.239195,-42.92552,-45.19941
75.1,-110.9771,-62.67191,53.78704,0.05251141,0.3164184,0.8192052,-5.239195,-42.92552,-45.19941
75.11,-104.9469,-63.1467199999998,56.46975,0.07098945,0.2932224,0.8464578,-9.429264,-39.1736,-47.70129
75.12,-95.16309,-63.9182999999999,58.6647000000001,0.04306597,0.3016019,0.8666045,-9.429264,-39.1736,-47.70129
75.13,-88.0252399999998,-66.5891600000002,58.48178,-0.01420118,0.3149917,0.8604794,-9.429264,-39.1736,-47.70129
75.14,-86.67151,-69.9128999999998,56.34781,-0.01961257,0.3178487,0.8657525,-9.429264,-39.1736,-47.70129
75.15,-90.5481000000002,-73.5927399999999,54.64063,-0.004302662,0.3069657,0.8647714,-9.429264,-39.1736,-47.70129
75.16,-97.2552299999997,-78.40028,53.11636,0.0229866,0.3070847,0.8719025,-13.26399,-34.65108,-49.36594
75.17,-102.5471,-84.27617,51.95791,0.02934258,0.3064051,0.8900774,-13.26399,-34.65108,-49.36594
75.18,-105.0699,-89.6772299999997,50.86044,0.03764288,0.2799914,0.9063414,-13.26399,-34.65108,-49.36594
75.19,-103.4701,-93.4164399999999,49.76297,0.05101455,0.2429741,0.9211634,-13.26399,-34.65108,-49.36594
75.2,-97.68596,-95.7311800000003,48.2387,0.06056745,0.227797,0.9412509,-13.26399,-34.65108,-49.36594
75.21,-93.0709700000002,-97.33369,44.58045,0.07774732,0.2222095,0.9838157,-17.79529,-29.75008,-50.65071
75.22,-91.5326300000001,-97.1556300000001,41.47094,0.1312532,0.2021879,1.016749,-17.79529,-29.75008,-50.65071
75.23,-93.7478300000002,-96.2653400000001,38.60532,0.1576881,0.1967833,1.059298,-17.79529,-29.75008,-50.65071
75.24,-97.56289,-94.5441300000002,34.82513,0.1886059,0.1860781,1.097054,-17.79529,-29.75008,-50.65071
75.25,-102.4855,-91.5765099999999,31.16688,0.2091649,0.155498,1.109469,-17.79529,-29.75008,-50.65071
75.26,-106.1775,-88.3714800000001,27.69155,0.2381158,0.1185297,1.096028,-22.78358,-24.1447,-50.71694
75.27,-108.8235,-85.9380299999998,24.70398,0.2682356,0.09712142,1.081145,-22.78358,-24.1447,-50.71694
75.28,-109.9311,-85.1071000000002,22.26515,0.2835549,0.08499043,1.050014,-22.78358,-24.1447,-50.71694
75.29,-109.5003,-84.4542200000002,21.22865,0.3105012,0.07727057,1.050927,-22.78358,-24.1447,-50.71694
75.3,-107.4082,-83.7419999999999,21.41156,0.3378786,0.07320647,1.078637,-22.78358,-24.1447,-50.71694
75.31,-106.5467,-82.85171,22.38709,0.371312,0.05811168,1.109212,-27.7434,-19.99408,-50.3884
75.32,-105.5622,-82.2581899999997,23.17971,0.3731437,0.03888127,1.127878,-27.7434,-19.99408,-50.3884
75.33,-104.0239,-81.5459600000003,22.93583,0.3629376,0.03786127,1.144646,-27.7434,-19.99408,-50.3884
75.34,-100.8242,-81.6646700000001,22.38709,0.3623671,0.04295505,1.171446,-27.7434,-19.99408,-50.3884
75.35,-97.0706299999998,-82.1988400000002,22.02127,0.3729789,0.02273323,1.16904,-27.7434,-19.99408,-50.3884
75.36,-92.5171699999999,-82.91106,22.20418,0.4080977,-0.005370681,1.155107,-31.22983,-14.68733,-49.60331
75.37,-87.34837,-83.1484799999997,23.11874,0.43093,-0.02786849,1.143109,-31.22983,-14.68733,-49.60331
75.38,-83.9640499999997,-83.32653,24.21622,0.4490725,-0.06021289,1.127293,-31.22983,-14.68733,-49.60331
75.39,-82.11805,-84.3355200000001,25.80146,0.4600345,-0.09878391,1.136855,-31.22983,-14.68733,-49.60331
75.4,-79.8413200000001,-86.0567400000003,27.20378,0.4827782,-0.142757,1.114812,-31.22983,-14.68733,-49.60331
75.41,-77.5645900000001,-86.7096200000003,27.87446,0.4984128,-0.1448296,1.12005,-35.07249,-10.51466,-47.65392
75.42,-76.8261899999999,-85.9380299999998,27.87446,0.5180449,-0.1265145,1.114268,-35.07249,-10.51466,-47.65392
75.43,-78.6721900000001,-84.03876,26.71602,0.4929096,-0.03301384,1.137259,-35.07249,-10.51466,-47.65392
75.44,-79.2259899999999,-79.8247400000001,26.53311,0.4973911,-0.06400363,1.139652,-35.07249,-10.51466,-47.65392
75.45,-75.9647299999999,-74.8391400000001,24.94787,0.4992506,-0.1110944,1.140618,-35.07249,-10.51466,-47.65392
75.46,-68.7038,-69.5567799999999,23.30166,0.5019314,-0.1506089,1.118131,-38.12576,-5.257665,-45.63974
75.47,-60.3968199999999,-65.58017,21.10671,0.4964602,-0.1714116,1.087038,-38.12576,-5.257665,-45.63974
75.48,-54.85883,-62.3751400000002,18.97273,0.4850423,-0.1613764,1.040155,-38.12576,-5.257665,-45.63974
75.49,-55.41263,-59.5855799999998,17.32652,0.4937533,-0.1334847,0.9894036,-38.12576,-5.257665,-45.63974
75.5,-61.31982,-57.3895400000002,15.19255,0.4963395,-0.1161897,0.9621157,-38.12576,-5.257665,-45.63974
75.51,-68.4576700000002,-56.73666,13.24148,0.4865587,-0.1409212,0.9358174,-41.96226,-1.462075,-43.30132
75.52,-73.1342000000002,-56.97408,11.47333,0.4820003,-0.1838707,0.9253078,-41.96226,-1.462075,-43.30132
75.53,-73.6879999999999,-58.1611199999998,10.31489,0.4811369,-0.2153204,0.9420676,-41.96226,-1.462075,-43.30132
75.54,-71.2881999999999,-58.8139999999997,8.79061600000001,0.5075794,-0.2220301,0.9482447,-41.96226,-1.462075,-43.30132
75.55,-68.0269399999999,-58.4578900000001,7.32731800000001,0.5177244,-0.2167553,0.9716758,-41.96226,-1.462075,-43.30132
75.56,-66.1809499999999,-56.85537,6.35178600000003,0.5264371,-0.2136807,0.9702242,-43.52502,1.206056,-41.32713
75.57,-64.8272099999998,-54.54063,4.949458,0.5344835,-0.2272158,0.9606422,-43.52502,1.206056,-41.32713
75.58,-62.6735499999999,-51.75107,3.669072,0.5477041,-0.2573944,0.926648,-43.52502,1.206056,-41.32713
75.59,-60.5814199999998,-49.9705,1.96189,0.5579467,-0.2847293,0.8912225,-43.52502,1.206056,-41.32713
75.6,-58.6738900000002,-49.55503,0.5595631,0.5720868,-0.3119698,0.8577045,-43.52502,1.206056,-41.32713
75.61,-56.02796,-51.3356,0.0717969800000001,0.5842311,-0.3361058,0.8490752,-46.22182,4.249916,-38.9118
75.62,-53.1359,-53.11617,0.3766508,0.6048977,-0.3205149,0.8619567,-46.22182,4.249916,-38.9118
75.63,-51.8437,-53.65034,1.230241,0.6150467,-0.2894676,0.8872955,-46.22182,4.249916,-38.9118
75.64,-51.53603,-53.59099,2.327715,0.6024743,-0.268124,0.9102836,-46.22182,4.249916,-38.9118
75.65,-51.04377,-52.99747,3.48616,0.6170633,-0.2662815,0.9207864,-47.77083,6.161148,-36.48206
75.66,-49.19777,-51.57301,3.851984,0.6227756,-0.285173,0.9150383,-47.77083,6.161148,-36.48206
75.67,-45.32118,-49.73309,3.364218,0.623089,-0.302359,0.894942,-47.77083,6.161148,-36.48206
75.68,-40.89079,-48.48669,3.059364,0.6290299,-0.3077361,0.8786615,-47.77083,6.161148,-36.48206
75.69,-38.79866,-47.12158,2.937423,0.6314961,-0.3098109,0.8590361,-47.77083,6.161148,-36.48206
75.7,-38.24486,-45.87518,3.059364,0.6399189,-0.3175468,0.8451447,-49.2881,6.550411,-34.1087
75.71,-38.86019,-44.86619,2.876452,0.6288484,-0.3251775,0.8317658,-49.2881,6.550411,-34.1087
75.72,-39.29092,-43.97591,2.75451,0.6231797,-0.3344215,0.8427854,-49.2881,6.550411,-34.1087
75.73,-38.67559,-43.26368,2.327715,0.6297789,-0.3483132,0.8504347,-49.2881,6.550411,-34.1087
75.74,-37.99872,-41.77987,1.230241,0.63716,-0.3520067,0.8556871,-49.2881,6.550411,-34.1087
75.75,-37.56799,-39.82124,0.4376215,0.6351104,-0.3467282,0.8528178,-50.44466,7.69993,-32.12361
75.76,-37.56799,-37.32844,-0.4159691,0.6266002,-0.3347872,0.8485224,-50.44466,7.69993,-32.12361
75.77,-37.75259,-34.77629,-1.818297,0.6164768,-0.3409326,0.8360987,-50.44466,7.69993,-32.12361
75.78,-37.32186,-32.22414,-3.098683,0.6152508,-0.3536483,0.8298826,-50.44466,7.69993,-32.12361
75.79,-36.46039,-29.55328,-4.196156,0.619426,-0.3687747,0.8140862,-50.44466,7.69993,-32.12361
75.8,-34.67593,-27.23854,-5.110718,0.6250747,-0.3842571,0.8092945,-51.61893,9.613975,-29.69108
75.81,-32.5838,-25.33926,-5.415571,0.6352382,-0.3807118,0.8030545,-51.61893,9.613975,-29.69108
75.82,-30.61473,-23.55869,-5.537513,0.6378312,-0.3632061,0.7987382,-51.61893,9.613975,-29.69108
75.83,-29.38407,-22.49035,-5.415571,0.6372226,-0.3569886,0.7891662,-51.61893,9.613975,-29.69108
75.84,-28.338,-22.19359,-5.232659,0.6403244,-0.3667514,0.7776775,-51.61893,9.613975,-29.69108
75.85,-27.16887,-22.37165,-5.171688,0.6390806,-0.3784825,0.7728969,-52.41675,11.52756,-27.64277
75.86,-25.32288,-22.49035,-5.232659,0.6332178,-0.3776045,0.7752998,-52.41675,11.52756,-27.64277
75.87,-23.90761,-21.71877,-5.049747,0.6398761,-0.3686339,0.785336,-52.41675,11.52756,-27.64277
75.88,-21.87701,-20.82848,-4.683922,0.6521786,-0.3488698,0.7944024,-52.41675,11.52756,-27.64277
75.89,-18.55422,-19.99755,-4.135185,0.6554106,-0.338938,0.8106657,-52.41675,11.52756,-27.64277
75.9,-14.86223,-19.58208,-3.647419,0.6574024,-0.3406275,0.8341129,-53.51292,10.00424,-26.86899
75.91,-10.7395,-18.45439,-2.306063,0.6701093,-0.3421448,0.8532342,-53.51292,10.00424,-26.86899
75.92,-6.43217400000002,-17.20799,-1.391501,0.6812776,-0.3391698,0.8886286,-53.51292,10.00424,-26.86899
75.93,-1.694115,-14.47778,-0.4769399,0.6955116,-0.3175851,0.9331058,-53.51292,10.00424,-26.86899
75.94,3.228544,-9.78894299999998,-0.05014454,0.7378366,-0.2873731,0.956953,-53.51292,10.00424,-26.86899
75.95,8.028135,-5.159458,0.0717969800000001,0.7145905,-0.2944031,0.9823599,-53.91294,11.14576,-26.49086
75.96,14.67372,-1.360907,0.5595631,0.7047309,-0.3138908,0.9981752,-53.91294,11.14576,-26.49086
75.97,22.79611,2.437645,1.291212,0.7304282,-0.3063211,1.026364,-53.91294,11.14576,-26.49086
75.98,29.9955,6.82971999999999,1.535095,0.7453477,-0.2954838,1.063186,-53.91294,11.14576,-26.49086
75.99,36.02575,12.5869,2.388686,0.7447709,-0.2898165,1.099557,-53.91294,11.14576,-26.49086
76,40.21001,18.87825,2.144803,0.7655909,-0.2817651,1.137805,-54.32935,12.98842,-25.66494
76.01,42.91748,26.47535,1.291212,0.7758362,-0.2818337,1.161237,-54.32935,12.98842,-25.66494
76.02,45.25574,33.95375,0.0717969800000001,0.7583027,-0.2821012,1.169882,-54.32935,12.98842,-25.66494
76.03,46.79407,40.30445,-0.2330568,0.741844,-0.2876928,1.178527,-54.32935,12.98842,-25.66494
76.04,48.7016,46.77386,-0.4159691,0.756693,-0.2993067,1.204826,-54.32935,12.98842,-25.66494
76.05,52.45513,54.01485,-0.659852100000001,0.7828403,-0.3154471,1.24307,-53.51908,10.38133,-27.25803
76.06,57.8085199999999,61.9087100000001,-1.025677,0.8049237,-0.3230086,1.271748,-53.51908,10.38133,-27.25803
76.07,64.2079800000001,70.9302700000001,-1.635384,0.8024124,-0.3184874,1.293288,-53.51908,10.38133,-27.25803
76.08,71.0381599999997,80.4860099999999,-1.452472,0.8143558,-0.3055248,1.303313,-53.51908,10.38133,-27.25803
76.09,77.6222199999998,89.4482100000002,-0.4769399,0.7951727,-0.2955192,1.322966,-53.51908,10.38133,-27.25803
76.1,84.5139400000002,97.87625,0.620533899999998,0.7812375,-0.3060212,1.3206,-53.10047,8.838744,-30.08515
76.11,91.7748599999998,104.7611,1.718008,0.7786326,-0.3231289,1.315345,-53.10047,8.838744,-30.08515
76.12,99.2203799999999,111.1712,1.778978,0.7746861,-0.3209044,1.301472,-53.10047,8.838744,-30.08515
76.13,103.4662,117.0471,1.169271,0.7741479,-0.2922401,1.301944,-53.10047,8.838744,-30.08515
76.14,103.7123,122.2701,-0.1111153,0.7647492,-0.2845805,1.309616,-53.10047,8.838744,-30.08515
76.15,103.2816,127.4337,-1.879267,0.7600092,-0.2913721,1.321112,-50.05779,7.679317,-34.89434
76.16,106.6044,132.5974,-4.927805,0.757822,-0.3044699,1.328298,-50.05779,7.679317,-34.89434
76.17,114.296,137.761,-8.890904,0.7332949,-0.295669,1.334081,-50.05779,7.679317,-34.89434
76.18,122.2953,143.6369,-13.21983,0.732534,-0.2803391,1.364707,-50.05779,7.679317,-34.89434
76.19,127.7718,149.3348,-16.26837,0.7133864,-0.2466664,1.368561,-50.05779,7.679317,-34.89434
76.2,130.9715,154.7358,-18.40234,0.71277,-0.2391525,1.394403,-47.70588,3.84469,-40.53341
76.21,133.5559,158.5344,-20.10953,0.7067387,-0.2553078,1.394418,-47.70588,3.84469,-40.53341
76.22,136.6941,162.0362,-21.02409,0.6937131,-0.2624122,1.389656,-47.70588,3.84469,-40.53341
76.23,140.8784,164.8257,-21.32894,0.6621561,-0.2418199,1.424642,-47.70588,3.84469,-40.53341
76.24,145.1857,166.547,-21.93865,0.613525,-0.2200458,1.466357,-41.99532,0.792819,-46.53851
76.25,149.9238,168.1495,-23.46292,0.5680451,-0.2111115,1.478877,-41.99532,0.792819,-46.53851
76.26,154.8464,169.752,-25.96272,0.5281243,-0.1871084,1.479898,-41.99532,0.792819,-46.53851
76.27,157.1847,170.4642,-29.49902,0.4732974,-0.1478804,1.477591,-41.99532,0.792819,-46.53851
76.28,157.4924,169.8113,-34.19377,0.4519099,-0.1251006,1.464222,-41.99532,0.792819,-46.53851
76.29,157.8616,169.0397,-38.15687,0.4446579,-0.128935,1.432649,-35.91833,-5.282665,-50.52554
76.3,159.8306,167.1998,-41.14444,0.4415127,-0.1438605,1.401551,-35.91833,-5.282665,-50.52554
76.31,163.8918,164.6477,-43.76618,0.4359769,-0.135644,1.355615,-35.91833,-5.282665,-50.52554
76.32,167.3377,161.9175,-45.77822,0.435957,-0.1354962,1.318765,-35.91833,-5.282665,-50.52554
76.33,170.4143,158.5937,-47.24152,0.3991892,-0.1250513,1.265226,-35.91833,-5.282665,-50.52554
76.34,173.0603,154.5578,-49.31452,0.3380895,-0.09025148,1.217466,-28.2571,-12.79029,-52.81622
76.35,174.4755,150.1063,-50.89976,0.3003094,-0.05151917,1.177322,-28.2571,-12.79029,-52.81622
76.36,173.8602,145.002,-53.09471,0.2985886,-0.01242876,1.151471,-28.2571,-12.79029,-52.81622
76.37,171.8296,140.2538,-54.55801,0.3096473,0.02047407,1.1122,-28.2571,-12.79029,-52.81622
76.38,169.2452,135.8618,-56.26519,0.3204342,0.04159488,1.06049,-28.2571,-12.79029,-52.81622
76.39,167.8915,131.9445,-59.0698400000002,0.3128106,0.03056837,0.9872839,-20.19881,-21.85977,-52.70916
76.4,169.9836,129.4517,-61.5696399999999,0.310639,0.01486911,0.9226838,-20.19881,-21.85977,-52.70916
76.41,174.1063,126.0093,-63.64265,0.2826956,0.02185428,0.8437657,-20.19881,-21.85977,-52.70916
76.42,178.3521,120.905,-65.34982,0.2248675,0.03755209,0.7725547,-20.19881,-21.85977,-52.70916
76.43,181.4903,115.0291,-65.4717700000001,0.1638821,0.06590096,0.7099602,-20.19881,-21.85977,-52.70916
76.44,181.6134,107.7287,-65.65468,0.116139,0.09039678,0.6755797,-13.00183,-28.95328,-50.61909
76.45,180.8134,101.4967,-66.56924,0.08417596,0.1306756,0.6325532,-13.00183,-28.95328,-50.61909
76.46,179.8904,95.0273400000001,-69.9226299999999,0.08969565,0.1740115,0.6301395,-13.00183,-28.95328,-50.61909
76.47,171.1527,90.3978500000002,-70.1665199999999,0.08220694,0.1571792,0.6124496,-13.00183,-28.95328,-50.61909
76.48,161.2459,87.4302400000002,-71.4469000000002,0.05852708,0.1720509,0.5895154,-13.00183,-28.95328,-50.61909
76.49,152.6312,86.5399500000002,-75.5319400000002,0.04817009,0.1778784,0.5584245,-6.463659,-37.99314,-45.68562
76.5,144.8165,87.3708799999998,-78.5804799999998,0.05693397,0.1779244,0.5445305,-6.463659,-37.99314,-45.68562
76.51,136.8787,88.7359800000001,-80.0437800000002,0.06486198,0.1442966,0.516768,-6.463659,-37.99314,-45.68562
76.52,131.5869,90.5165600000001,-79.9828100000002,0.05589725,0.154162,0.4990737,-6.463659,-37.99314,-45.68562
76.53,127.4026,92.8312999999999,-79.6779599999999,0.04548833,0.1629919,0.4775537,-6.463659,-37.99314,-45.68562
76.54,123.8337,95.6208599999997,-79.3730999999999,0.02118226,0.1850702,0.4469615,0.01946449,-44.37052,-40.76635
76.55,120.2032,99.1820000000002,-79.3730999999999,-0.001923988,0.221361,0.4268923,0.01946449,-44.37052,-40.76635
76.56,115.0344,102.8618,-80.6534899999999,-0.02613246,0.2636534,0.3747588,0.01946449,-44.37052,-40.76635
76.57,112.0808,106.9572,-81.3241700000002,-0.07731748,0.4455657,0.3446509,0.01946449,-44.37052,-40.76635
76.58,104.143,110.5777,-83.39717,-0.1088963,0.3885419,0.3413706,0.01946449,-44.37052,-40.76635
76.59,96.4513899999998,113.0705,-82.9094099999999,-0.1204551,0.301622,0.2672338,6.040211,-49.54617,-35.79224
76.6,88.2674599999998,114.1388,-81.1412500000001,-0.152372,0.2874279,0.2189569,6.040211,-49.54617,-35.79224
76.61,80.6373399999998,114.4949,-79.0682399999999,-0.1867846,0.2767046,0.1836051,6.040211,-49.54617,-35.79224
76.62,72.1457599999998,113.3672,-75.4709699999997,-0.2259675,0.2605549,0.1496986,6.040211,-49.54617,-35.79224
76.63,63.2849799999999,111.4679,-71.99564,-0.2691772,0.2510586,0.1081403,6.040211,-49.54617,-35.79224
76.64,55.65485,109.3906,-67.7276799999998,-0.3064559,0.2630609,0.06656605,13.57878,-52.49572,-31.33439
76.65,49.2554,108.1442,-62.6671099999998,-0.3459009,0.2874891,0.05992845,13.57878,-52.49572,-31.33439
76.66,44.64041,106.3043,-57.9723700000003,-0.4448632,0.2884486,0.006978782,13.57878,-52.49572,-31.33439
76.67,40.70228,103.5741,-53.58247,-0.3967674,0.2961976,0.006414367,13.57878,-52.49572,-31.33439
76.68,39.84081,99.8348800000002,-51.08267,-0.4470273,0.2986316,-0.04374913,13.57878,-52.49572,-31.33439
76.69,40.45615,95.7395599999999,-49.68034,-0.4909496,0.3013487,-0.076695,19.94565,-53.17102,-26.83254
76.7,40.33308,90.6352600000002,-46.57084,-0.5232301,0.3074,-0.08908326,19.94565,-53.17102,-26.83254
76.71,38.36402,85.7683599999998,-43.21745,-0.533499,0.3346897,-0.1115655,19.94565,-53.17102,-26.83254
76.72,34.11823,80.78277,-39.80308,-0.5551209,0.3173545,-0.153638,19.94565,-53.17102,-26.83254
76.73,30.3647,74.0759499999998,-35.29124,-0.5852072,0.2831239,-0.2181845,19.94565,-53.17102,-26.83254
76.74,28.27257,65.2917999999998,-30.47455,-0.6359732,0.2600815,-0.2898765,25.12137,-53.48142,-23.11553
76.75,27.2265,55.49866,-26.38951,-0.6818299,0.2616569,-0.337176,25.12137,-53.48142,-23.11553
76.76,24.94977,43.8656,-22.91418,-0.7263062,0.2684436,-0.3490646,25.12137,-53.48142,-23.11553
76.77,21.99618,33.41958,-19.25594,-0.7135601,0.3163572,-0.344792,25.12137,-53.48142,-23.11553
76.78,15.78132,24.21996,-15.90254,-0.7055508,0.3311595,-0.3376311,28.47208,-53.04851,-19.86752
76.79,8.95113399999999,15.61387,-12.12236,-0.7059979,0.3293165,-0.3256654,28.47208,-53.04851,-19.86752
76.8,4.213075,7.72000599999998,-8.03731400000003,-0.7214458,0.3218055,-0.3165436,28.47208,-53.04851,-19.86752
76.81,2.367078,-0.2332119,-4.257127,-0.7233067,0.3175664,-0.2978748,28.47208,-53.04851,-19.86752
76.82,2.120945,-8.00837199999998,-1.26956,-0.728321,0.3253301,-0.2882966,28.47208,-53.04851,-19.86752
76.83,1.321013,-14.89325,1.778978,-0.7310672,0.3425514,-0.2591031,29.96569,-53.02691,-18.63089
76.84,-1.140316,-21.77812,4.827517,-0.7296669,0.3724847,-0.2303987,29.96569,-53.02691,-18.63089
76.85,-6.49370699999998,-27.83206,7.26634699999998,-0.7155769,0.4011362,-0.2098518,29.96569,-53.02691,-18.63089
76.86,-13.5085,-33.94535,9.94906,-0.7016866,0.3884438,-0.1931226,29.96569,-53.02691,-18.63089
76.87,-17.69275,-40.94894,12.9976,-0.6743985,0.3628824,-0.1778492,29.96569,-53.02691,-18.63089
76.88,-19.10802,-47.24029,16.29002,-0.6399757,0.3467388,-0.1578048,29.95533,-52.27655,-19.86045
76.89,-18.30809,-52.76006,19.88729,-0.6325755,0.3685164,-0.1305445,29.95533,-52.27655,-19.86045
76.9,-16.89282,-57.21148,22.93583,-0.6228561,0.3967229,-0.09611124,29.95533,-52.27655,-19.86045
76.91,-16.70822,-60.5352199999999,25.61855,-0.5998024,0.4154741,-0.06169878,29.95533,-52.27655,-19.86045
76.92,-18.30809,-63.1467199999998,28.66708,-0.5798295,0.416688,-0.02536213,29.95533,-52.27655,-19.86045
76.93,-21.26168,-66.3517500000001,32.26436,-0.5694399,0.4087946,-0.007670893,28.47297,-52.68504,-21.86905
76.94,-24.33834,-69.2006699999997,35.80066,-0.5528953,0.3844876,0.00857811,28.47297,-52.68504,-21.86905
76.95,-25.56901,-72.2276400000002,40.06861,-0.5514032,0.3831645,0.02006168,28.47297,-52.68504,-21.86905
76.96,-27.04581,-75.49202,44.88531,-0.5694742,0.4115789,0.03109311,28.47297,-52.68504,-21.86905
76.97,-29.8148,-79.29057,49.51908,-0.5835071,0.4321489,0.02584794,28.47297,-52.68504,-21.86905
76.98,-33.07607,-83.4452399999998,52.8115,-0.5948774,0.4413589,0.04787989,26.61784,-53.10017,-24.33194
76.99,-36.27579,-87.8966600000001,55.25034,-0.5906212,0.4226009,0.0598417,26.61784,-53.10017,-24.33194
77,-39.53705,-92.4667999999999,58.1159599999998,-0.5740538,0.3982383,0.1229911,26.61784,-53.10017,-24.33194
77.01,-41.69072,-97.8085100000001,60.4938200000002,-0.5304953,0.3893415,0.1717323,26.61784,-53.10017,-24.33194
77.02,-42.85985,-100.3607,60.9206200000001,-0.477017,0.423601,0.2419809,26.61784,-53.10017,-24.33194
77.03,-44.09051,-99.4703800000002,60.4938200000002,-0.4386396,0.4839609,0.3294778,22.18794,-52.77706,-27.20489
77.04,-44.95198,-96.7401699999998,58.1159599999998,-0.4181613,0.5362699,0.3725006,22.18794,-52.77706,-27.20489
77.05,-48.27477,-92.82291,56.83558,-0.4253247,0.554682,0.3820798,22.18794,-52.77706,-27.20489
77.06,-53.07436,-90.0333500000002,56.7746,-0.4583816,0.5507063,0.3907528,22.18794,-52.77706,-27.20489
77.07,-58.1816199999998,-88.3714800000001,55.67713,-0.478717,0.5177156,0.3874467,22.18794,-52.77706,-27.20489
77.08,-63.8426799999998,-87.8966600000001,54.51868,-0.4916151,0.4781566,0.3937009,16.96521,-53.2273,-30.8538
77.09,-71.1036,-88.54954,53.78704,-0.4657155,0.449447,0.4396064,16.96521,-53.2273,-30.8538
77.1,-76.76466,-89.3804700000002,52.62859,-0.4028212,0.4493994,0.5108047,16.96521,-53.2273,-30.8538
77.11,-79.1644499999997,-87.4811900000001,49.88491,-0.3285287,0.4907592,0.5685722,16.96521,-53.2273,-30.8538
77.12,-81.6873199999998,-83.38588,46.71443,-0.3054578,0.53492,0.6182925,16.96521,-53.2273,-30.8538
77.13,-85.37931,-79.4092700000001,43.72686,-0.3164944,0.5780954,0.6340936,11.72703,-52.91738,-34.57128
77.14,-90.1173699999999,-76.7384200000002,40.25153,-0.3448015,0.5804474,0.6336637,11.72703,-52.91738,-34.57128
77.15,-94.7323600000003,-75.3139600000001,36.89814,-0.3370232,0.5552489,0.6245638,11.72703,-52.91738,-34.57128
77.16,-95.2246199999999,-75.7887800000001,34.52028,-0.3021413,0.5141383,0.6235564,11.72703,-52.91738,-34.57128
77.17,-92.33257,-77.2725900000003,32.50824,-0.259189,0.4843462,0.6206177,11.72703,-52.91738,-34.57128
77.18,-88.0252399999998,-78.2815799999998,31.3498,-0.2354265,0.4907611,0.6330176,7.563935,-50.31306,-37.84108
77.19,-85.0716499999998,-79.8247400000001,30.25232,-0.2221992,0.4872095,0.6411313,7.563935,-50.31306,-37.84108
77.2,-85.4408399999999,-80.4776200000001,30.61815,-0.2116677,0.4714165,0.6449456,7.563935,-50.31306,-37.84108
77.21,-88.4559700000001,-83.32653,31.77659,-0.1931778,0.4470515,0.6506625,7.563935,-50.31306,-37.84108
77.22,-92.5171699999999,-86.8876699999999,33.4228,-0.1718967,0.403781,0.6554223,7.563935,-50.31306,-37.84108
77.23,-95.7169,-90.8642799999998,35.19096,-0.1642861,0.3623422,0.6774342,2.716812,-47.78057,-41.50264
77.24,-95.40923,-95.2563600000002,36.95911,-0.1422199,0.3557873,0.7099406,2.716812,-47.78057,-41.50264
77.25,-91.4095699999998,-98.2833300000001,39.33697,-0.1114866,0.3811478,0.7596524,2.716812,-47.78057,-41.50264
77.26,-87.5329699999999,-98.8768500000003,41.40997,-0.07860832,0.3957283,0.795006,2.716812,-47.78057,-41.50264
77.27,-85.0101100000002,-97.9865599999997,44.03172,-0.05618158,0.3952478,0.8002313,2.716812,-47.78057,-41.50264
77.28,-84.0255800000002,-97.6898000000002,44.70239,-0.05633125,0.3772606,0.7997577,-1.088963,-44.40947,-44.38671
77.29,-85.1331800000002,-98.1052700000002,43.66589,-0.04619874,0.3565039,0.7930453,-1.088963,-44.40947,-44.38671
77.3,-86.1792400000001,-99.1736099999998,43.11715,-0.01535249,0.3497286,0.8355865,-1.088963,-44.40947,-44.38671
77.31,-86.7330399999998,-99.6484299999998,43.17812,0.01722071,0.3545712,0.8695074,-1.088963,-44.40947,-44.38671
77.32,-85.37931,-98.7581500000001,44.39754,0.04636602,0.3610933,0.9350199,-1.088963,-44.40947,-44.38671
77.33,-81.3796499999998,-95.6124699999998,46.83637,0.05755505,0.3631757,0.9790288,-6.779978,-40.66499,-46.44821
77.34,-77.3184599999997,-91.7545600000001,48.78743,0.06764375,0.3456759,1.009645,-6.779978,-40.66499,-46.44821
77.35,-74.4264000000001,-87.6592599999997,50.12879,0.07991909,0.3148445,1.012503,-6.779978,-40.66499,-46.44821
77.36,-74.3033300000001,-85.3445100000002,49.88491,0.06657948,0.2977212,0.9756799,-6.779978,-40.66499,-46.44821
77.37,-78.2414599999999,-84.1574600000002,48.72646,0.07385129,0.2990902,0.9503023,-11.35435,-36.53226,-48.56789
77.38,-83.7794499999998,-84.5729300000001,47.93384,0.101897,0.3365671,0.9492866,-11.35435,-36.53226,-48.56789
77.39,-88.2098399999997,-86.4722100000002,47.56802,0.1204809,0.3587183,0.9401556,-11.35435,-36.53226,-48.56789
77.4,-89.6251100000003,-86.5315599999998,47.32413,0.1318426,0.3507783,0.9506665,-11.35435,-36.53226,-48.56789
77.41,-85.6254399999998,-85.9973799999999,47.38511,0.1496164,0.3385169,0.9530315,-11.35435,-36.53226,-48.56789
77.42,-80.5181899999998,-85.7006199999998,47.14122,0.1707891,0.3011107,0.9616186,-16.97423,-33.5344,-49.01237
77.43,-77.9337899999999,-85.8786799999998,46.10472,0.1792198,0.2672087,0.9558697,-16.97423,-33.5344,-49.01237
77.44,-79.7797900000002,-86.6502599999999,44.70239,0.1829798,0.2481558,0.9367251,-16.97423,-33.5344,-49.01237
77.45,-86.6099800000001,-88.7275900000003,43.11715,0.188888,0.2448402,0.9333656,-16.97423,-33.5344,-49.01237
77.46,-94.30163,-91.3390999999998,41.65385,0.2338748,0.2628993,0.9509898,-16.97423,-33.5344,-49.01237
77.47,-99.3473500000001,-93.06032,40.67832,0.2752181,0.2679809,0.9920741,-21.93854,-29.00996,-49.45985
77.48,-99.9626800000003,-92.9416100000002,40.00764,0.2978183,0.23263,1.009751,-21.93854,-29.00996,-49.45985
77.49,-95.0400300000002,-91.2204000000003,38.60532,0.3067075,0.1745146,1.012143,-21.93854,-29.00996,-49.45985
77.5,-86.8561099999999,-89.0837100000001,37.26396,0.2990114,0.1432886,1.015036,-21.93854,-29.00996,-49.45985
77.51,-82.4257100000003,-86.5315599999998,35.49581,0.3014556,0.1428334,1.013118,-21.93854,-29.00996,-49.45985
77.52,-84.7639799999998,-83.32653,34.39833,0.3091506,0.1491545,1.049953,-26.165,-24.15313,-48.74246
77.53,-90.9173,-80.8930799999997,32.99601,0.3006106,0.1376039,1.0806,-26.165,-24.15313,-48.74246
77.54,-96.7014199999997,-78.9938000000002,30.67912,0.3301351,0.09641376,1.082473,-26.165,-24.15313,-48.74246
77.55,-99.1627599999999,-77.5693499999998,27.9964,0.3560544,0.03958914,1.082921,-26.165,-24.15313,-48.74246
77.56,-98.3628200000001,-75.90749,24.64301,0.377973,-0.01207445,1.071889,-26.165,-24.15313,-48.74246
77.57,-94.7323600000003,-74.4830200000002,21.71642,0.3786088,-0.02052467,1.049876,-29.99891,-19.99734,-48.79258
77.58,-94.0555000000002,-73.1179199999999,19.21662,0.3676845,0.01613842,1.044142,-29.99891,-19.99734,-48.79258
77.59,-96.9475599999998,-71.8715199999997,17.02167,0.3643642,0.01116077,1.038407,-29.99891,-19.99734,-48.79258
77.6,-99.9011499999998,-70.74383,15.13157,0.3732682,0.004021247,1.035522,-29.99891,-19.99734,-48.79258
77.61,-99.9626800000003,-70.32836,14.21701,0.3688882,-0.02235438,1.030272,-29.99891,-19.99734,-48.79258
77.62,-96.7014199999997,-69.9722400000002,14.09507,0.3768946,-0.03328513,1.039832,-33.4932,-14.31023,-48.00951
77.63,-93.8093600000001,-69.6754800000001,14.52187,0.418171,-0.05131169,1.051729,-33.4932,-14.31023,-48.00951
77.64,-91.3480399999999,-70.0316,14.4609,0.4482866,-0.07208058,1.053596,-33.4932,-14.31023,-48.00951
77.65,-89.74817,-70.8625300000001,13.85119,0.471358,-0.1071467,1.048301,-33.4932,-14.31023,-48.00951
77.66,-88.5790400000001,-71.39671,12.69274,0.492984,-0.1432879,1.034872,-33.4932,-14.31023,-48.00951
77.67,-88.3944400000002,-71.9308800000001,11.9611,0.4914424,-0.1388879,1.041095,-36.95156,-10.51837,-46.44231
77.68,-89.3174399999998,-71.4560499999998,11.71721,0.4912753,-0.10382,1.050179,-36.95156,-10.51837,-46.44231
77.69,-90.4865700000003,-69.7941899999999,12.50983,0.5052086,-0.1190203,1.058295,-36.95156,-10.51837,-46.44231
77.7,-85.5639099999999,-68.0136200000003,12.5708,0.5033,-0.1208965,1.069785,-36.95156,-10.51837,-46.44231
77.71,-79.1029199999998,-66.1143400000001,12.81469,0.5011908,-0.1385023,1.062135,-36.95156,-10.51837,-46.44231
77.72,-71.7804600000001,-64.3337699999999,12.44886,0.5034195,-0.1536014,1.053521,-39.59219,-7.157619,-44.09272
77.73,-66.6732100000001,-63.7995999999998,11.41236,0.5094888,-0.1657572,1.039635,-39.59219,-7.157619,-44.09272
77.74,-65.1348799999998,-63.1467199999998,10.43683,0.5328431,-0.1902367,1.022372,-39.59219,-7.157619,-44.09272
77.75,-67.0424099999999,-63.0873700000003,9.70517700000002,0.5513264,-0.2148125,1.005117,-39.59219,-7.157619,-44.09272
77.76,-69.8729400000002,-63.0873700000003,8.85158600000001,0.5626038,-0.2448628,0.9893123,-39.59219,-7.157619,-44.09272
77.77,-70.4267300000002,-62.8499600000003,7.937025,0.5726786,-0.2627971,0.9725491,-42.68198,-2.985854,-42.91177
77.78,-69.25761,-62.0190300000001,7.51023000000002,0.5768441,-0.2510346,0.974453,-42.68198,-2.985854,-42.91177
77.79,-66.1809499999999,-60.6539200000001,7.754113,0.5871077,-0.2264296,0.9859147,-42.68198,-2.985854,-42.91177
77.8,-62.6735499999999,-58.8139999999997,8.24187900000002,0.5813381,-0.2047025,0.9830477,-42.68198,-2.985854,-42.91177
77.81,-58.3046899999999,-57.21148,7.99799599999998,0.5739796,-0.2026155,0.9615241,-42.68198,-2.985854,-42.91177
77.82,-54.55116,-55.78703,7.022464,0.5731145,-0.2092482,0.928984,-44.62315,-0.3134542,-40.10185
77.83,-51.78217,-55.31221,5.437224,0.585328,-0.2117392,0.8959417,-44.62315,-0.3134542,-40.10185
77.84,-51.41297,-55.49026,3.608101,0.5947846,-0.2229922,0.8672135,-44.62315,-0.3134542,-40.10185
77.85,-53.75123,-56.61796,3.54713,0.5915731,-0.233821,0.8590862,-44.62315,-0.3134542,-40.10185
77.86,-56.82789,-58.2204699999998,3.791013,0.5983005,-0.2545002,0.8681727,-44.62315,-0.3134542,-40.10185
77.87,-58.3662199999997,-58.4578900000001,4.522663,0.6082118,-0.2628978,0.8849077,-46.54491,1.59115,-38.12638
77.88,-58.24316,-57.7456600000001,4.33975,0.6122332,-0.268947,0.905481,-46.54491,1.59115,-38.12638
77.89,-55.96643,-55.25286,3.851984,0.6202059,-0.2778513,0.9241339,-46.54491,1.59115,-38.12638
77.9,-52.3975,-52.28524,2.876452,0.620353,-0.2855884,0.9279642,-46.54491,1.59115,-38.12638
77.91,-47.96711,-49.19891,0.5595631,0.6242814,-0.287608,0.9112077,-46.54491,1.59115,-38.12638
77.92,-43.59825,-47.00288,-1.147618,0.6152724,-0.3016863,0.8791625,-49.21029,3.113589,-35.70295
77.93,-40.39852,-45.99389,-2.91577,0.6240571,-0.3033039,0.8427758,-49.21029,3.113589,-35.70295
77.94,-40.09085,-46.2313,-4.013244,0.6211239,-0.3036908,0.8068878,-49.21029,3.113589,-35.70295
77.95,-41.44458,-47.71511,-3.891303,0.6121437,-0.3191825,0.7796286,-49.21029,3.113589,-35.70295
77.96,-43.10598,-49.79244,-2.610917,0.6191018,-0.3262771,0.7858398,-50.00364,4.653359,-32.87861
77.97,-43.72131,-51.39495,-1.26956,0.6423563,-0.3182127,0.8202547,-50.00364,4.653359,-32.87861
77.98,-42.73678,-50.86078,-0.1720861,0.6583834,-0.3147523,0.8451118,-50.00364,4.653359,-32.87861
77.99,-40.89079,-48.78345,0.7424754,0.6646953,-0.3129548,0.8685505,-50.00364,4.653359,-32.87861
78,-37.99872,-46.05324,1.1083,0.6713559,-0.3303259,0.8675863,-50.00364,4.653359,-32.87861
78.01,-32.953,-42.67015,1.291212,0.6638598,-0.3466197,0.8556392,-51.54449,6.183689,-30.51133
78.02,-27.35347,-39.58383,1.535095,0.6651298,-0.3371522,0.8254842,-51.54449,6.183689,-30.51133
78.03,-22.92308,-37.15038,1.291212,0.656419,-0.3152912,0.7905577,-51.54449,6.183689,-30.51133
78.04,-20.76942,-35.96334,1.352183,0.6424101,-0.2970549,0.7427198,-51.54449,6.183689,-30.51133
78.05,-20.21562,-36.61621,0.986358399999998,0.6348927,-0.2868285,0.7082728,-51.54449,6.183689,-30.51133
78.06,-20.76942,-37.6252,0.681504599999997,0.6515479,-0.2920597,0.6847949,-53.07607,7.330941,-28.46453
78.07,-21.87701,-38.8716,0.4376215,0.6599181,-0.2968108,0.67856,-53.07607,7.330941,-28.46453
78.08,-23.72301,-39.28707,0.4376215,0.6787215,-0.3119456,0.6833169,-53.07607,7.330941,-28.46453
78.09,-25.32288,-38.99031,0.2547093,0.6918239,-0.3350251,0.6818643,-53.07607,7.330941,-28.46453
78.1,-25.99974,-38.33743,-0.3549984,0.6974119,-0.3734225,0.6689429,-53.07607,7.330941,-28.46453
78.11,-24.95368,-37.86261,-0.720822899999998,0.7051253,-0.3952559,0.6560135,-53.85004,8.102918,-26.47463
78.12,-23.78455,-37.32844,-0.659852100000001,0.7213507,-0.4033323,0.6411515,-53.85004,8.102918,-26.47463
78.13,-22.86155,-37.03168,-1.025677,0.7169988,-0.4054981,0.6263237,-53.85004,8.102918,-26.47463
78.14,-22.24621,-38.15937,-1.147618,0.7185459,-0.4104979,0.6076578,-53.85004,8.102918,-26.47463
78.15,-21.81548,-40.47412,-0.903735200000002,0.7149383,-0.4262027,0.5985752,-53.85004,8.102918,-26.47463
78.16,-21.38475,-43.73849,-0.1720861,0.7264389,-0.4677796,0.5971302,-54.97176,7.724475,-25.25544
78.17,-20.58482,-45.57842,-0.659852100000001,0.7597571,-0.4508089,0.627218,-54.97176,7.724475,-25.25544
78.18,-20.76942,-45.63777,-0.05014454,0.7944828,-0.4316395,0.6290668,-54.97176,7.724475,-25.25544
78.19,-19.47722,-43.97591,-1.574414,0.8037081,-0.430074,0.6209146,-54.97176,7.724475,-25.25544
78.2,-17.20049,-41.77987,-0.964705900000002,0.815059,-0.4639928,0.6070248,-54.97176,7.724475,-25.25544
78.21,-13.38543,-39.46513,0.4376215,0.8216525,-0.4780646,0.5950525,-55.75893,8.887158,-22.04207
78.22,-9.20116899999999,-37.86261,1.96189,0.821107,-0.4752737,0.5826098,-55.75893,8.887158,-22.04207
78.23,-6.24757399999999,-36.43816,3.242276,0.8099303,-0.4513291,0.5682659,-55.75893,8.887158,-22.04207
78.24,-4.340044,-35.31046,4.583633,0.80168,-0.4272037,0.5673168,-55.75893,8.887158,-22.04207
78.25,-4.524643,-33.70795,5.742078,0.7997099,-0.3999642,0.5744919,-55.75893,8.887158,-22.04207
78.26,-5.509175,-31.51191,6.29081499999999,0.8033656,-0.3866092,0.5921894,-56.1469,9.275052,-20.82137
78.27,-7.10903899999999,-28.60365,6.04693200000002,0.8317159,-0.3642817,0.6342489,-56.1469,9.275052,-20.82137
78.28,-29.261,-26.70437,8.54673300000003,0.8830507,-0.1094145,0.8140384,-56.1469,9.275052,-20.82137
78.29,-62.9196800000002,-21.77812,11.71721,0.8809615,-0.1007473,0.8628545,-56.1469,9.275052,-20.82137
78.3,-75.6570599999999,-14.12167,10.4978,0.8819078,-0.3067547,0.8643417,-56.1469,9.275052,-20.82137
78.31,-58.8584900000002,-4.684639,7.81508400000003,0.9026867,-0.5307834,0.8715418,-56.93041,10.43065,-18.44651
78.32,-24.03068,4.752387,2.205774,0.9081435,-0.6394212,0.883046,-56.93041,10.43065,-18.44651
78.33,15.35059,13.18042,-2.123151,0.8913772,-0.706887,0.8749569,-56.93041,10.43065,-18.44651
78.34,47.10173,20.42141,-6.02527899999998,0.8982958,-0.6344327,0.8653547,-56.93041,10.43065,-18.44651
78.35,66.4231699999999,27.5437,-7.73246000000002,0.9467293,-0.5405338,0.8791248,-56.93041,10.43065,-18.44651
78.36,70.7920299999999,35.02209,-5.598484,0.9539561,-0.4054167,0.9192777,-57.70546,11.56991,-18.00665
78.37,49.9938,42.08503,-2.671887,0.9280226,-0.1641301,1.00349,-57.70546,11.56991,-18.00665
78.38,17.62732,48.49508,1.535095,0.9277117,-0.1468651,1.032201,-57.70546,11.56991,-18.00665
78.39,-1.694115,54.60838,5.80304899999998,0.9123707,-0.2908192,0.9997215,-57.70546,11.56991,-18.00665
78.4,2.244012,61.3151899999999,7.99799599999998,0.8881274,-0.4268057,1.007456,-57.70546,11.56991,-18.00665
78.41,19.53485,67.01302,9.40032399999997,0.8751506,-0.4618875,1.025195,-56.93122,10.79739,-20.06105
78.42,37.68715,71.99862,11.65624,0.8496537,-0.4265535,1.064952,-56.93122,10.79739,-20.06105
78.43,49.56306,75.79717,15.13157,0.8281535,-0.3700871,1.121926,-56.93122,10.79739,-20.06105
78.44,56.51632,79.6550799999997,17.75332,0.8199638,-0.3479253,1.171706,-56.93122,10.79739,-20.06105
78.45,61.3159100000002,84.2252000000001,19.76535,0.8100528,-0.3379725,1.218621,-56.93122,10.79739,-20.06105
78.46,65.8693700000002,89.9230300000002,20.61894,0.7974467,-0.3402476,1.262673,-56.15807,10.39215,-23.66548
78.47,72.7610899999999,96.7485599999997,20.55797,0.79856,-0.3466735,1.301437,-56.15807,10.39215,-23.66548
78.48,82.2987400000001,104.5831,19.76535,0.8027984,-0.3644424,1.315313,-56.15807,10.39215,-23.66548
78.49,94.5438499999999,113.0705,18.24108,0.799566,-0.3736163,1.328721,-56.15807,10.39215,-23.66548
78.5,105.7429,121.2017,15.4974,0.7917655,-0.37321,1.336871,-54.24747,9.604638,-28.48504
78.51,114.9114,129.6891,11.47333,0.782213,-0.3572486,1.349326,-54.24747,9.604638,-28.48504
78.52,121.1877,138.4139,7.205376,0.7872278,-0.3385785,1.360798,-54.24747,9.604638,-28.48504
78.53,123.5875,146.6046,2.632569,0.7857988,-0.339911,1.377551,-54.24747,9.604638,-28.48504
78.54,124.2029,153.9642,-1.879267,0.7972984,-0.3558734,1.360785,-54.24747,9.604638,-28.48504
78.55,124.6336,160.9678,-5.964308,0.8020306,-0.3742018,1.365568,-51.23088,9.956283,-34.52785
78.56,125.5566,167.4966,-10.11032,0.8040171,-0.3760581,1.370829,-51.23088,9.956283,-34.52785
78.57,125.8643,174.2628,-14.68313,0.81354,-0.389857,1.382302,-51.23088,9.956283,-34.52785
78.58,127.8949,180.4948,-18.09749,0.8153289,-0.4065708,1.410539,-51.23088,9.956283,-34.52785
78.59,130.1716,187.0235,-20.65826,0.8084397,-0.4027185,1.421557,-51.23088,9.956283,-34.52785
78.6,131.4023,193.6116,-22.60933,0.7767432,-0.4013395,1.428312,-46.58416,4.223132,-41.75259
78.61,132.8791,200.2591,-23.95068,0.751485,-0.379358,1.442229,-46.58416,4.223132,-41.75259
78.62,135.2789,207.144,-26.38951,0.7483176,-0.3406067,1.435525,-46.58416,4.223132,-41.75259
78.63,137.6171,212.8418,-28.58446,0.7367454,-0.3215161,1.422618,-46.58416,4.223132,-41.75259
78.64,139.6477,215.8688,-30.1697,0.7054036,-0.3142428,1.382471,-46.58416,4.223132,-41.75259
78.65,142.109,217.4119,-30.53553,0.6649136,-0.3130648,1.333248,-38.97263,0.03717327,-48.57621
78.66,146.2318,215.8094,-29.98679,0.6188538,-0.3001018,1.309396,-38.97263,0.03717327,-48.57621
78.67,150.5391,213.1979,-29.07223,0.5868063,-0.2804,1.301311,-38.97263,0.03717327,-48.57621
78.68,155.6464,209.1619,-27.36505,0.5728598,-0.2640658,1.310902,-38.97263,0.03717327,-48.57621
78.69,162.2919,204.1763,-25.1701,0.550025,-0.2672923,1.326257,-38.97263,0.03717327,-48.57621
78.7,169.5529,198.3598,-22.48738,0.5180007,-0.2748203,1.316265,-30.26119,-6.405516,-53.31577
78.71,176.1985,192.1278,-20.96312,0.4794941,-0.2748241,1.292882,-30.26119,-6.405516,-53.31577
78.72,182.2287,185.6584,-19.92661,0.4582605,-0.2611084,1.244579,-30.26119,-6.405516,-53.31577
78.73,186.2899,179.7232,-19.68273,0.4197087,-0.233796,1.179553,-30.26119,-6.405516,-53.31577
78.74,188.9974,172.4228,-20.04856,0.3599142,-0.2163897,1.139931,-30.26119,-6.405516,-53.31577
78.75,192.9355,165.0038,-20.41438,0.3365927,-0.1955095,1.082537,-21.11055,-13.51827,-55.21035
78.76,197.3659,157.5254,-21.08506,0.3304223,-0.1795744,1.031815,-21.11055,-13.51827,-55.21035
78.77,200.9348,150.9373,-22.2435,0.3328395,-0.1536849,0.9882535,-21.11055,-13.51827,-55.21035
78.78,203.4577,144.6459,-23.28,0.3145577,-0.1413161,0.9456889,-21.11055,-13.51827,-55.21035
78.79,202.2885,138.77,-24.56039,0.2873488,-0.1209898,0.8892591,-21.11055,-13.51827,-55.21035
78.8,200.0733,133.6064,-26.02369,0.2459972,-0.09991847,0.8385967,-12.35655,-23.32968,-53.48162
78.81,196.4429,128.4427,-27.91378,0.2159454,-0.08409642,0.7740373,-12.35655,-23.32968,-53.48162
78.82,193.5508,122.9823,-30.77941,0.1881616,-0.05958349,0.6984645,-12.35655,-23.32968,-53.48162
78.83,192.3817,118.6496,-34.49863,0.1703759,-0.02204993,0.6434495,-12.35655,-23.32968,-53.48162
78.84,191.2126,113.3672,-39.01046,0.1518899,0.0008959263,0.5889181,-12.35655,-23.32968,-53.48162
78.85,189.6127,108.2036,-41.87609,0.1338949,0.0239743,0.547786,-5.44129,-32.31042,-49.38422
78.86,188.8128,103.3367,-44.80268,0.08317529,0.07776958,0.5354176,-5.44129,-32.31042,-49.38422
78.87,187.3975,97.8168900000002,-49.25355,0.03051226,0.104497,0.4900378,-5.44129,-32.31042,-49.38422
78.88,188.5666,95.2647500000001,-54.07024,0.01777549,0.1338089,0.4814382,-5.44129,-32.31042,-49.38422
78.89,189.1204,94.4931600000003,-57.17975,-0.01033785,0.1780872,0.4953544,-5.44129,-32.31042,-49.38422
78.9,185.3054,94.1370500000001,-59.61858,-0.0117611,0.2025799,0.519758,0.3279953,-40.58812,-43.62186
78.91,178.4137,95.7989200000002,-63.33779,0.01035446,0.2185846,0.5216296,0.3279953,-40.58812,-43.62186
78.92,170.722,99.3600600000002,-66.0814700000002,0.01957793,0.220093,0.5072559,0.3279953,-40.58812,-43.62186
78.93,163.0919,103.9895,-69.06905,0.005365215,0.2232743,0.460858,0.3279953,-40.58812,-43.62186
78.94,151.4006,108.2629,-69.1300100000003,-0.003033508,0.2279054,0.4010494,0.3279953,-40.58812,-43.62186
78.95,138.8478,113.2485,-68.4593399999997,-0.03280901,0.2028217,0.3264499,5.998014,-47.33451,-36.64258
78.96,128.7563,117.3438,-67.2399200000003,-0.07542042,0.1867875,0.2595277,5.998014,-47.33451,-36.64258
78.97,123.7106,120.5489,-67.1789499999997,-0.1075997,0.1595634,0.1686613,5.998014,-47.33451,-36.64258
78.98,120.9416,123.3978,-66.4473000000001,-0.1381067,0.146876,0.06965252,5.998014,-47.33451,-36.64258
78.99,117.8034,125.0596,-65.1059400000002,-0.19012,0.16405,-0.01209774,5.998014,-47.33451,-36.64258
79,112.327,124.7035,-62.42323,-0.2492106,0.1689708,-0.09000389,12.82026,-52.48391,-29.27594
79.01,104.7584,122.7449,-58.3991599999999,-0.2881469,0.1910003,-0.1473708,12.82026,-52.48391,-29.27594
79.02,94.2361900000003,120.5489,-55.16771,-0.2392599,0.2069242,-0.2120679,12.82026,-52.48391,-29.27594
79.03,81.62188,116.5129,-51.0217,-0.3990399,0.2027244,-0.2725674,12.82026,-52.48391,-29.27594
79.04,68.2691700000002,112.5363,-47.42443,-0.4256469,0.2166269,-0.3419182,12.82026,-52.48391,-29.27594
79.05,55.28566,106.6604,-43.88812,-0.4861912,0.2217601,-0.3935002,18.8351,-54.66656,-22.76925
79.06,43.47128,99.47877,-39.86405,-0.5551565,0.2082656,-0.4445841,18.8351,-54.66656,-22.76925
79.07,35.53349,90.7539700000001,-36.51066,-0.6177702,0.1939555,-0.4923289,18.8351,-54.66656,-22.76925
79.08,31.77996,79.9518399999998,-33.82795,-0.6568216,0.1959977,-0.5563905,18.8351,-54.66656,-22.76925
79.09,29.4417,69.8025799999998,-31.14523,-0.6791692,0.2176551,-0.5841146,23.64475,-55.72686,-17.43846
79.1,25.99584,59.1191599999999,-27.85281,-0.6826911,0.2489787,-0.6051738,23.64475,-55.72686,-17.43846
79.11,18.42725,48.67314,-24.43845,-0.6990181,0.3136451,-0.6190407,23.64475,-55.72686,-17.43846
79.12,7.720469,37.45554,-21.38991,-0.7092642,0.3400993,-0.6266869,23.64475,-55.72686,-17.43846
79.13,-5.01691,25.76312,-18.34137,-0.7097429,0.339582,-0.6290788,23.64475,-55.72686,-17.43846
79.14,-15.96982,14.18941,-15.23186,-0.6772041,0.320017,-0.607116,26.63225,-55.6842,-15.0297
79.15,-22.18468,1.07254,-11.45168,-0.64421,0.301783,-0.5999902,26.63225,-55.6842,-15.0297
79.16,-24.46141,-11.15405,-8.22022599999998,-0.6120154,0.300756,-0.5694172,26.63225,-55.6842,-15.0297
79.17,-26.43047,-23.02452,-3.220624,-0.6106601,0.3074948,-0.5263494,26.63225,-55.6842,-15.0297
79.18,-28.5226,-34.71694,2.144803,-0.600016,0.338802,-0.4737326,26.63225,-55.6842,-15.0297
79.19,-31.53773,-46.11259,7.32731800000001,-0.5849811,0.3696353,-0.4292592,28.48576,-54.53561,-15.79589
79.2,-34.55286,-55.84638,12.81469,-0.5831822,0.3788784,-0.3790143,28.48576,-54.53561,-15.79589
79.21,-36.89112,-64.86794,17.5704,-0.5784041,0.3853217,-0.3225523,28.48576,-54.53561,-15.79589
79.22,-38.30639,-72.5837499999998,21.77739,-0.5522511,0.3693612,-0.264686,28.48576,-54.53561,-15.79589
79.23,-38.30639,-79.29057,26.10631,-0.5387723,0.3536231,-0.2082335,28.48576,-54.53561,-15.79589
79.24,-37.75259,-85.1071000000002,30.00844,-0.5416983,0.3550064,-0.1570211,27.36609,-54.18766,-18.64427
79.25,-37.87566,-90.0927000000003,33.72766,-0.5438408,0.3666321,-0.1034199,27.36609,-54.18766,-18.64427
79.26,-39.53705,-94.9595899999999,38.05658,-0.5544026,0.3853322,-0.05507009,27.36609,-54.18766,-18.64427
79.27,-42.85985,-99.2329599999999,41.83677,-0.5508665,0.4057424,-0.009616789,27.36609,-54.18766,-18.64427
79.28,-47.90557,-102.9128,44.88531,-0.5496386,0.419295,0.03488515,27.36609,-54.18766,-18.64427
79.29,-53.75123,-106.2365,46.83637,-0.5293834,0.4054283,0.06883232,25.13988,-54.61268,-21.94844
79.3,-59.22769,-108.5513,48.48258,-0.5093273,0.4030766,0.1401058,25.13988,-54.61268,-21.94844
79.31,-64.1503400000001,-109.7383,48.72646,-0.4599432,0.4216349,0.2027084,25.13988,-54.61268,-21.94844
79.32,-68.4576700000002,-110.8067,49.2752,-0.4441214,0.4364082,0.2428774,25.13988,-54.61268,-21.94844
79.33,-71.5958699999998,-109.5009,50.67753,-0.4256261,0.4650425,0.3050527,25.13988,-54.61268,-21.94844
79.34,-74.9186600000003,-107.2455,51.28724,-0.4169627,0.4719696,0.3528934,21.46821,-54.30084,-26.81533
79.35,-77.0723299999999,-104.7527,51.47015,-0.410214,0.4504154,0.3725088,21.46821,-54.30084,-26.81533
79.36,-78.73372,-103.0909,51.28724,-0.4077514,0.4233522,0.3835187,21.46821,-54.30084,-26.81533
