Time (s),Gyroscope X (deg/s),Gyroscope Y (deg/s),Gyroscope Z (deg/s),Accelerometer X (g),Accelerometer Y (g),Accelerometer Z (g),Magnetometer X (uT),Magnetometer Y (uT),Magnetometer Z (uT)
34.301107407,0.4146104,-0.2845563,0.3142034,0.9274241,0.3130924,0.1871885,-48.09961,-37.22683,1.54125
34.310966492,0.3524944,-0.2845563,0.0689914200000002,0.9229016,0.3193661,0.1839515,-48.09961,-37.22683,1.54125
34.3208251,-0.3928965,-0.939154599999998,0.0689914200000002,0.9229855,0.3145078,0.1858261,-48.09961,-37.22683,1.54125
34.330684662,-1.138287,-0.879645599999998,0.3142034,0.9205826,0.3081514,0.1834107,-48.09961,-37.22683,1.54125
34.34054327,-0.703476100000001,-0.879645599999998,0.1915974,0.9177175,0.3022867,0.1834021,-48.09961,-37.22683,1.54125
34.350402355,-0.1444329,-1.236699,-0.2988266,0.9211757,0.2993973,0.1833284,-48.09961,-37.22683,1.54125
34.360260964,0.2903785,-1.355717,-0.3601296,0.914228,0.3061436,0.1820468,-48.09961,-37.22683,1.54125
34.370119572,0.4146104,-1.712771,0.007688423,0.9147627,0.3061609,0.1853937,-48.09961,-37.22683,1.54125
34.379978657,0.2282626,-1.593753,0.007688423,0.9123324,0.3076084,0.1878365,-48.09961,-37.22683,1.54125
34.389837265,0.04191487,-2.010315,0.007688423,0.917667,0.3164309,0.1921477,-48.0976,-37.59498,1.545021
34.402161598,-0.1444329,-2.188842,-0.05361458,0.9146869,0.3163921,0.1888355,-48.0976,-37.59498,1.545021
34.412020207,-0.3307806,-2.188842,0.007688423,0.9206296,0.3091413,0.1877312,-48.0976,-37.59498,1.545021
34.421879292,-0.1444329,-2.188842,0.0689914200000002,0.9230751,0.3091628,0.1876965,-48.0976,-37.59498,1.545021
34.4317379,-0.0823169599999999,-2.188842,-0.1149176,0.9230895,0.3057493,0.1857507,-48.47334,-37.22252,1.543182
34.441596985,0.4146104,-2.188842,-0.2375236,0.9241465,0.3062687,0.1919696,-48.47334,-37.22252,1.543182
34.451455593,0.787305800000002,-2.010315,-0.2375236,0.9231496,0.311137,0.1949001,-48.47334,-37.22252,1.543182
34.461315155,0.725189899999998,-1.950806,-0.05361458,0.924604,0.3155403,0.1977917,-48.47334,-37.22252,1.543182
34.471173763,0.911537699999999,-2.010315,-0.1762206,0.9221295,0.3135576,0.1939767,-48.47334,-37.22252,1.543182
34.481032848,0.3524944,-1.77228,-0.2375236,0.9250497,0.3169969,0.1958809,-48.47334,-37.22252,1.543182
34.490891457,0.4146104,-1.474735,-0.1762206,0.9290324,0.3116808,0.1962585,-48.46811,-37.58443,1.995049
34.500751019,0.4767263,-1.236699,-0.2988266,0.9256673,0.3072733,0.1967484,-48.46811,-37.58443,1.995049
34.510609627,0.600958099999998,-0.879645599999998,-0.05361458,0.9226974,0.3052845,0.1924612,-48.46811,-37.58443,1.995049
34.520468712,1.160001,-0.820136700000001,-0.1762206,0.9284189,0.3111528,0.1866788,-48.46811,-37.58443,1.995049
34.53032732,1.284233,-0.879645599999998,-0.4214326,0.9275015,0.3126262,0.1924547,-48.46811,-37.58443,1.995049
34.540185928,1.03577,-0.879645599999998,-0.3601296,0.9283857,0.3150491,0.1876705,-48.84907,-36.85005,1.541344
34.550045014,0.663074000000001,-1.058172,-0.4214326,0.9206052,0.3188989,0.1945227,-48.84907,-36.85005,1.541344
34.559903622,0.5388422,-0.879645599999998,-0.2988266,0.9225891,0.3155063,0.1935074,-48.84907,-36.85005,1.541344
34.569763183,0.3524944,-0.998663500000001,-0.1149176,0.9215695,0.3140213,0.1891966,-48.84907,-36.85005,1.541344
34.582086086,0.1040308,-1.058172,0.0689914200000002,0.9255683,0.3106627,0.1924657,-48.47012,-37.21628,1.991279
34.591945648,0.2282626,-1.296208,-0.05361458,0.9240547,0.3101483,0.1886493,-48.47012,-37.21628,1.991279
34.601804256,0.3524944,-1.17719,0.007688423,0.9314409,0.3087624,0.1909283,-48.47012,-37.21628,1.991279
34.611663341,0.849421699999999,-1.117681,0.007688423,0.9319097,0.3082727,0.1890007,-48.47012,-37.21628,1.991279
34.62152195,0.725189899999998,-0.998663500000001,0.1915974,0.9329653,0.3078152,0.194253,-48.47012,-37.21628,1.991279
34.631381512,0.4767263,-0.939154599999998,0.1915974,0.9319618,0.3082876,0.1928337,-48.47012,-37.21628,1.991279
34.64124012,0.2282626,-0.998663500000001,0.3755064,0.929622,0.3048786,0.1976303,-48.47012,-37.21628,1.991279
34.651099205,0.1040308,-0.939154599999998,0.3755064,0.9256565,0.3087349,0.1972401,-48.47012,-37.21628,1.991279
34.660957813,0.1040308,-0.4035742,0.4368094,0.9241365,0.3126128,0.1968153,-48.47012,-37.21628,1.991279
34.670816898,-0.1444329,-0.760627799999999,0.927233400000001,0.9202251,0.3091612,0.1939667,-48.47012,-37.21628,1.991279
34.680675507,-0.2065488,-0.701118900000002,1.356354,0.9304795,0.3155938,0.1981877,-48.47012,-37.21628,1.991279
34.690535068,-0.1444329,-0.641609900000002,1.295051,0.9349607,0.3078435,0.1971,-48.47012,-37.21628,1.991279
34.700393677,0.04191487,-0.4630831,1.049839,0.9271374,0.3048459,0.1947902,-48.47012,-37.21628,1.991279
34.710252762,0.1661467,-0.641609900000002,1.049839,0.9193511,0.3047882,0.1977759,-48.47012,-37.21628,1.991279
34.72011137,-0.3307806,-0.641609900000002,0.927233400000001,0.915288,0.3086167,0.1901989,-48.47012,-37.21628,1.991279
34.729969978,-1.200403,-0.4630831,1.295051,0.9217417,0.3116293,0.1997163,-48.47012,-37.21628,1.991279
34.73982954,-2.00791,-0.3440652,1.356354,0.924026,0.3213693,0.1964116,-48.47012,-37.21628,1.991279
34.752152443,-2.877533,-0.2250474,1.47896,0.9210696,0.3154786,0.1896952,-48.47012,-37.21628,1.991279
34.762012005,-2.504838,-0.2250474,1.846778,0.9196514,0.3047386,0.1838744,-48.47012,-37.21628,1.991279
34.771870613,-1.324635,-0.04652058,1.662869,0.9207727,0.300394,0.1905305,-48.47012,-37.21628,1.991279
34.781729698,0.1040308,0.1320062,1.540263,0.9256305,0.3087275,0.1953236,-48.47012,-37.21628,1.991279
34.791588306,0.663074000000001,0.5485688,1.356354,0.929007,0.3077677,0.1909546,-48.47012,-37.21628,1.991279
34.801447391,0.04191487,0.5485688,1.724172,0.9270102,0.3111566,0.1910117,-48.47012,-37.21628,1.991279
34.811306,-0.02020105,0.965131299999997,1.724172,0.9269958,0.31457,0.1929575,-48.47012,-37.21628,1.991279
34.821165562,-0.1444329,1.203167,1.417657,0.927937,0.3116388,0.1876481,-48.47012,-37.21628,1.991279
34.83102417,-0.1444329,0.846113400000001,1.295051,0.9239802,0.3125682,0.1853164,-48.47413,-36.47998,1.983737
34.840883255,-0.5171283,0.786604499999998,0.8659304,0.9216215,0.3096421,0.1891589,-48.47413,-36.47998,1.983737
34.850741863,-0.641360199999998,0.667586600000001,0.743324399999998,0.9206817,0.3091561,0.1915642,-48.47413,-36.47998,1.983737
34.860601425,-0.4550124,0.727095499999998,0.743324399999998,0.9200776,0.3105837,0.1843969,-48.47413,-36.47998,1.983737
34.870460033,-0.827707900000002,0.370042,0.4368094,0.9152555,0.3130014,0.191674,-48.47413,-36.47998,1.983737
34.880319118,-0.951939799999999,0.370042,0.3755064,0.9206427,0.3135391,0.1925601,-48.10362,-36.49054,1.53371
34.890177727,-1.200403,0.370042,0.3755064,0.9220253,0.3135279,0.1863107,-48.10362,-36.49054,1.53371
34.900036812,-1.448867,0.2510241,0.5594154,0.9209026,0.3212897,0.1825586,-48.10362,-36.49054,1.53371
34.90989542,-1.386751,0.1915152,0.620718400000002,0.9166461,0.3139689,0.1868703,-48.10362,-36.49054,1.53371
34.919754028,-0.889823900000002,0.2510241,0.2529004,0.92004,0.3115495,0.1824887,-48.10362,-36.49054,1.53371
34.932077885,-0.4550124,0.1320062,0.1302944,0.9172472,0.3061935,0.1882337,-48.1004,-36.4843,1.981806
34.941937447,0.04191487,0.1915152,0.0689914200000002,0.9192621,0.3018334,0.1886474,-48.1004,-36.4843,1.981806
34.951796055,0.725189899999998,0.1320062,-0.05361458,0.9177153,0.3008214,0.1819521,-48.1004,-36.4843,1.981806
34.961654663,0.663074000000001,-0.04652058,0.0689914200000002,0.9181675,0.3066739,0.1843911,-48.1004,-36.4843,1.981806
34.971513748,0.725189899999998,-0.04652058,-0.05361458,0.9195719,0.3125276,0.1848996,-48.1004,-36.4843,1.981806
34.981372356,0.2903785,-0.2250474,-0.1762206,0.9195849,0.3125313,0.1858579,-48.47012,-37.21628,1.991279
34.991231918,0.4146104,0.07249729,0.007688423,0.9202041,0.3037846,0.1876921,-48.47012,-37.21628,1.991279
35.001090527,0.2282626,-0.2250474,0.007688423,0.9166417,0.3066443,0.1800998,-48.47012,-37.21628,1.991279
35.010949612,0.4767263,-0.2845563,0.0689914200000002,0.9137136,0.3110144,0.1844912,-48.47012,-37.21628,1.991279
35.02080822,0.600958099999998,-0.582100999999999,-0.1149176,0.9190943,0.302762,0.1771569,-48.47012,-37.21628,1.991279
35.030667305,0.600958099999998,-0.582100999999999,-0.05361458,0.9196246,0.3042428,0.1814746,-48.10162,-36.85868,1.53748
35.040525913,0.663074000000001,-0.5225921,0.007688423,0.9206925,0.3033005,0.1872018,-48.10162,-36.85868,1.53748
35.050385475,1.097885,-0.701118900000002,0.007688423,0.9172399,0.3013092,0.1834006,-48.10162,-36.85868,1.53748
35.060244083,1.284233,-0.879645599999998,-0.1149176,0.9216959,0.3028281,0.1886211,-48.10162,-36.85868,1.53748
35.070103169,1.532697,-0.939154599999998,0.0689914200000002,0.9249981,0.3086823,0.1847899,-48.10162,-36.85868,1.53748
35.079961777,1.470581,-0.998663500000001,0.1302944,0.9230852,0.3116069,0.1905922,-48.84585,-36.84381,1.98944
35.089821339,1.346349,-1.236699,0.1915974,0.9260927,0.3082359,0.1929169,-48.84585,-36.84381,1.98944
35.102144241,1.097885,-1.415226,0.3142034,0.9195784,0.3081354,0.1815081,-48.84585,-36.84381,1.98944
35.112003803,1.222117,-1.593753,0.4368094,0.9197215,0.3037822,0.1881781,-48.84585,-36.84381,1.98944
35.121862412,1.03577,-1.77228,0.4368094,0.9202258,0.3052555,0.1905794,-48.84585,-36.84381,1.98944
35.131721497,1.03577,-1.831789,0.4368094,0.9236568,0.3057759,0.1914932,-48.84907,-36.85005,1.541344
35.141580105,0.5388422,-2.010315,0.804627399999999,0.9231684,0.30626,0.1919835,-48.84907,-36.85005,1.541344
35.15143919,0.4146104,-2.069824,0.8659304,0.9242507,0.3019043,0.1957649,-48.84907,-36.85005,1.541344
35.161297798,0.2282626,-1.950806,0.927233400000001,0.9246659,0.3004229,0.1890377,-48.84907,-36.85005,1.541344
35.171156406,0.4767263,-1.950806,0.8659304,0.9202049,0.3086672,0.192046,-48.84907,-36.85005,1.541344
35.181015968,0.787305800000002,-1.891297,0.682021400000003,0.9229897,0.3086503,0.1809846,-48.09639,-37.2206,1.989347
35.190874577,0.663074000000001,-2.010315,0.743324399999998,0.9219984,0.3086379,0.1800403,-48.09639,-37.2206,1.989347
35.200733662,0.600958099999998,-2.069824,0.743324399999998,0.9215882,0.3091443,0.18628,-48.09639,-37.2206,1.989347
35.21059227,0.600958099999998,-1.77228,0.8659304,0.9275391,0.3072664,0.1904921,-48.09639,-37.2206,1.989347
35.220451832,0.663074000000001,-1.653262,0.988536299999999,0.9284651,0.3072602,0.1866453,-48.09639,-37.2206,1.989347
35.23031044,0.3524944,-1.534244,1.295051,0.9261751,0.2980066,0.1899542,-48.46735,-37.21093,2.375361
35.240169525,0.5388422,-1.474735,1.540263,0.9241993,0.3023779,0.1924153,-48.46735,-37.21093,2.375361
35.250028133,0.787305800000002,-1.236699,1.417657,0.9252056,0.2994652,0.1918971,-48.46735,-37.21093,2.375361
35.259887219,0.849421699999999,-1.355717,1.601566,0.925171,0.3067787,0.1957929,-48.46735,-37.21093,2.375361
35.269745827,1.284233,-1.117681,1.233748,0.9304613,0.307777,0.1899756,-48.46735,-37.21093,2.375361
35.282069683,1.03577,-1.355717,1.233748,0.9269812,0.3048013,0.1832913,-48.84309,-36.83847,2.373523
35.291928291,0.2903785,-1.891297,1.049839,0.9236937,0.3087159,0.1967887,-48.84309,-36.83847,2.373523
35.301787853,-1.014056,-2.069824,1.356354,0.9289717,0.3145928,0.1943671,-48.84309,-36.83847,2.373523
35.311646462,-2.566953,-2.248351,1.601566,0.9339356,0.3112391,0.1966641,-48.84309,-36.83847,2.373523
35.321505547,-3.312345,-2.30786,1.47896,0.9329234,0.3102444,0.1933157,-48.84309,-36.83847,2.373523
35.331364155,-3.436576,-2.724423,1.724172,0.928612,0.3053491,0.1957318,-49.21682,-36.83415,2.375454
35.341223717,-3.063881,-2.545896,1.47896,0.9340635,0.3010228,0.1970552,-49.21682,-36.83415,2.375454
35.351082325,-2.380606,-1.950806,1.111142,0.9290279,0.3005854,0.2220417,-49.21682,-36.83415,2.375454
35.36094141,-1.883678,-0.4035742,1.049839,0.9353973,0.2827154,0.2428848,-49.21682,-36.83415,2.375454
35.370800018,0.663074000000001,1.322185,0.927233400000001,0.9192848,0.2791636,0.2421261,-49.21682,-36.83415,2.375454
35.380659103,3.955218,3.047944,0.927233400000001,0.9379909,0.2780321,0.2854571,-49.21883,-36.466,2.371683
35.390517712,6.68831799999999,5.725846,1.601566,0.9378361,0.2839819,0.3152199,-49.21883,-36.466,2.371683
35.400377274,9.66988199999998,7.68964099999998,2.643717,0.9307782,0.321455,0.3328879,-49.21883,-36.466,2.371683
35.410235882,11.09855,8.64178400000002,4.482807,0.942684,0.3552937,0.3746942,-49.21883,-36.466,2.371683
35.42009449,8.05486800000002,10.12951,5.83147299999998,0.9257083,0.3931302,0.3829226,-49.21883,-36.466,2.371683
35.429953575,2.215972,9.29638199999997,5.77016999999999,0.9128236,0.411658,0.4230362,-48.09363,-37.21525,2.373429
35.439812183,-6.29390900000001,9.05834700000001,7.18013899999999,0.9236985,0.4159617,0.5067774,-48.09363,-37.21525,2.373429
35.45213604,-19.95941,10.12951,8.89662299999997,0.9369025,0.4251359,0.5862138,-48.09363,-37.21525,2.373429
35.461994648,-32.25836,12.21232,9.93877400000001,0.971452,0.4266382,0.6456339,-48.09363,-37.21525,2.373429
35.47185421,-43.00441,17.50862,10.91962,0.9919321,0.4166838,0.6677804,-48.09363,-37.21525,2.373429
35.481712818,-52.01122,23.4,11.16483,1.01274,0.3692294,0.6809801,-49.22481,-36.47759,1.539504
35.491571903,-56.2351,31.07665,11.10353,1.040484,0.3247901,0.7032112,-49.22481,-36.47759,1.539504
35.501430512,-54.74432,39.22938,11.10353,1.033307,0.2920598,0.6862653,-49.22481,-36.47759,1.539504
35.511289597,-48.09792,45.06125,11.90047,1.033301,0.326722,0.7162683,-49.22481,-36.47759,1.539504
35.521148205,-42.07267,50.17902,12.32959,1.070763,0.4080426,0.772487,-49.22481,-36.47759,1.539504
35.531007767,-41.94844,57.08206,12.14568,1.11942,0.4539415,0.8292057,-48.87303,-35.78035,-0.9665079
35.540866375,-44.74366,65.6513399999998,11.53265,1.148311,0.4650816,0.8768078,-48.87303,-35.78035,-0.9665079
35.55072546,-46.17233,75.23228,10.18399,1.167567,0.4643246,0.8889861,-48.87303,-35.78035,-0.9665079
35.560584068,-47.29041,83.8610800000002,7.36404799999998,1.189916,0.4358101,0.888427,-48.87303,-35.78035,-0.9665079
35.57044363,-45.79963,93.38251,4.605413,1.221678,0.4083878,0.8973268,-48.87303,-35.78035,-0.9665079
35.580302238,-41.45152,103.618,2.521111,1.242655,0.3653758,0.9268545,-49.64931,-35.5175,-4.7426
35.590161323,-37.60033,114.5677,2.214596,1.25577,0.3314254,0.9259018,-49.64931,-35.5175,-4.7426
35.600019932,-33.06587,125.8744,3.992383,1.259815,0.3285682,0.933008,-49.64931,-35.5175,-4.7426
35.609879017,-26.171,134.9792,5.218443,1.235913,0.3438634,0.9157474,-49.64931,-35.5175,-4.7426
35.619737625,-21.94712,143.608,4.666717,1.222092,0.3554245,0.9170004,-49.64931,-35.5175,-4.7426
35.632061958,-18.46863,151.8798,5.341049,1.205892,0.3801647,0.9346913,-48.5777,-34.88235,-11.0933
35.641920566,-19.02767,157.1166,6.81232100000002,1.228637,0.4019151,0.971449,-48.5777,-34.88235,-11.0933
35.651779652,-24.74234,164.0791,8.89662299999997,1.238689,0.4468599,0.9946866,-48.5777,-34.88235,-11.0933
35.66163826,-32.63105,167.7092,11.59396,1.282201,0.4391563,0.9139751,-48.5777,-34.88235,-11.0933
35.671497345,-37.97302,174.8502,12.88132,1.301252,0.4238291,0.9341798,-48.5777,-34.88235,-11.0933
35.681355953,-42.13479,179.4919,12.69741,1.335849,0.3562349,0.8645908,-47.14033,-33.89496,-18.28189
35.691215515,-39.96073,186.9306,12.63611,1.34201,0.3295173,0.8623607,-47.14033,-33.89496,-18.28189
35.701074123,-35.79897,191.3937,12.75871,1.325489,0.2833732,0.7941604,-47.14033,-33.89496,-18.28189
35.710933208,-27.91025,194.4882,12.32959,1.330776,0.2824177,0.7864097,-47.14033,-33.89496,-18.28189
35.720791817,-21.45019,195.6784,10.06138,1.324052,0.2983687,0.7737018,-47.14033,-33.89496,-18.28189
35.730650902,-18.40651,196.2735,7.54795700000002,1.302788,0.3199521,0.7401639,-43.8363,-33.67702,-26.30477
35.74050951,-18.22017,194.8452,6.81232100000002,1.26331,0.380401,0.7326111,-43.8363,-33.67702,-26.30477
35.750368118,-24.80445,192.7029,5.402352,1.236674,0.409045,0.777798,-43.8363,-33.67702,-26.30477
35.76022768,-38.90476,192.5839,4.605413,1.198401,0.3954918,0.7576236,-43.8363,-33.67702,-26.30477
35.770086288,-53.12931,191.3342,5.15714,1.151699,0.3655861,0.6789689,-43.8363,-33.67702,-26.30477
35.779945373,-60.0241699999997,189.8465,6.3832,1.09878,0.3342,0.6094952,-38.72469,-33.10557,-33.89267
35.789803982,-64.8071000000002,187.2281,6.32189799999997,1.064477,0.2812864,0.5946823,-38.72469,-33.10557,-33.89267
35.802127838,-68.9688600000002,185.0263,6.19929100000001,0.9948705,0.2031378,0.5518869,-38.72469,-33.10557,-33.89267
35.811986446,-67.4159699999999,181.3367,8.03838099999998,0.9114306,0.1843928,0.5514804,-38.72469,-33.10557,-33.89267
35.821846008,-65.4282600000003,177.4686,9.20313699999998,0.8456551,0.1780247,0.5657816,-38.72469,-33.10557,-33.89267
35.831704617,-63.8753600000003,175.0883,11.53265,0.7863992,0.1657647,0.5507091,-32.80337,-31.42744,-40.66387
35.841563702,-62.1361200000001,173.6006,14.16868,0.7399062,0.1370303,0.5242941,-32.80337,-31.42744,-40.66387
35.85142231,-54.80644,169.6134,15.63995,0.6722937,0.1133207,0.4603657,-32.80337,-31.42744,-40.66387
35.861281395,-45.05424,165.3883,16.25298,0.6397017,0.1052712,0.4669919,-32.80337,-31.42744,-40.66387
35.871140003,-41.51363,160.6276,17.04992,0.5850819,0.09813424,0.5094005,-32.80337,-31.42744,-40.66387
35.880999565,-40.02285,157.1166,20.54419,0.5190423,0.08046162,0.494379,-25.75213,-29.74533,-46.22461
35.890858173,-37.4761,152.9509,24.89671,0.4459979,0.07928355,0.4824717,-25.75213,-29.74533,-46.22461
35.900717258,-34.24607,147.4761,27.53273,0.4026811,0.08454933,0.4318592,-25.75213,-29.74533,-46.22461
35.910575867,-28.53141,140.9897,27.96185,0.3682283,0.0700277,0.4039549,-25.75213,-29.74533,-46.22461
35.920435429,-22.69251,134.6222,27.59404,0.3527485,0.04943325,0.3987305,-25.75213,-29.74533,-46.22461
35.930294037,-16.17034,128.3143,26.12277,0.3166659,0.0530519,0.4107761,-19.499,-27.28728,-49.61224
35.940153122,-11.07683,122.8989,24.03846,0.2792675,0.07023601,0.4100165,-19.499,-27.28728,-49.61224
35.95001173,-10.02086,116.2339,22.32198,0.2325477,0.06012464,0.4192227,-19.499,-27.28728,-49.61224
35.959870815,-11.88434,109.6284,22.13807,0.1985894,0.02377383,0.4083783,-19.499,-27.28728,-49.61224
35.969729424,-12.1328,103.023,23.85456,0.1795664,-0.01090828,0.4179407,-19.499,-27.28728,-49.61224
35.982053757,-14.24475,96.2389399999999,22.93501,0.1567736,-0.06693088,0.4551703,-14.29001,-25.90452,-51.76682
35.991912365,-14.24475,91.6567499999999,20.11507,0.112684,-0.1492256,0.4143722,-14.29001,-25.90452,-51.76682
36.00177145,-9.08912500000002,84.9917400000003,17.96947,0.06445191,-0.2148854,0.4073175,-14.29001,-25.90452,-51.76682
36.011630058,-1.014056,77.0175500000001,16.6208,0.02616448,-0.2287958,0.4216427,-14.29001,-25.90452,-51.76682
36.021489143,2.40232,69.0433500000002,17.60165,0.007776007,-0.2141212,0.4852829,-14.29001,-25.90452,-51.76682
36.031347752,-0.2065488,63.2709799999999,19.13422,-3.730226e-05,-0.1327879,0.5220206,-9.880013,-24.86363,-52.69718
36.041207314,-5.113706,57.4986199999999,18.21468,-0.01219811,-0.05565406,0.4873841,-9.880013,-24.86363,-52.69718
36.051065922,-10.51779,50.77411,15.88517,-0.02252749,-0.004144279,0.4927581,-9.880013,-24.86363,-52.69718
36.060925007,-16.23246,45.29929,11.96177,-0.03924441,-0.02322136,0.5057737,-9.880013,-24.86363,-52.69718
36.070783615,-21.20173,39.34839,9.69356200000002,-0.05257297,-0.06321965,0.6412395,-9.880013,-24.86363,-52.69718
36.0806427,-10.45567,36.78951,3.624565,-0.0562095,-0.08506281,0.5347248,-7.267883,-25.27357,-53.53912
36.090501308,-5.67275,32.32634,0.0689914200000002,-0.07013563,-0.08644373,0.5885819,-7.267883,-25.27357,-53.53912
36.10036087,-1.324635,28.39875,-2.750947,-0.08468455,-0.08214352,0.6017639,-7.267883,-25.27357,-53.53912
36.110219479,0.4146104,24.76871,-3.609189,-0.0795062,-0.02112534,0.6405411,-7.267883,-25.27357,-53.53912
36.120078564,-4.119852,21.4362,-4.957854,-0.0738392,0.05636156,0.6578862,-7.267883,-25.27357,-53.53912
36.129937172,-13.56147,17.03254,-5.570884,-0.07419263,0.08178373,0.6902121,-5.032745,-24.56941,-54.00635
36.139796734,-21.76077,13.99759,-6.490429,-0.07462137,0.05752048,0.7091815,-5.032745,-24.56941,-54.00635
36.152119637,-25.11503,10.12951,-7.34867099999999,-0.09229446,-0.03319309,0.6966879,-5.032745,-24.56941,-54.00635
36.161979198,-20.51845,6.558971,-6.00000499999998,-0.1088652,-0.04588152,0.7260481,-5.032745,-24.56941,-54.00635
36.171837807,-15.54918,3.166962,-5.81609599999999,-0.115798,-0.05901315,0.7442456,-5.032745,-24.56941,-54.00635
36.181696892,-10.57991,-0.4035742,-4.528733,-0.1214082,-0.06436146,0.7586564,-3.913105,-24.21332,-53.95189
36.1915555,-4.865242,-3.617057,-3.547885,-0.1082176,-0.0393499,0.7792851,-3.913105,-24.21332,-53.95189
36.201415062,-1.759447,-6.23544999999998,-2.812249,-0.09346072,-0.02210883,0.8003051,-3.913105,-24.21332,-53.95189
36.21127367,-0.0823169599999999,-7.90170000000001,-2.015311,-0.09392417,-0.0006238485,0.8210986,-3.913105,-24.21332,-53.95189
36.221132755,-0.0823169599999999,-9.56794999999997,-2.62834,-0.109678,-0.01237322,0.8394335,-3.913105,-24.21332,-53.95189
36.230991364,0.663074000000001,-11.17469,-3.302674,-0.1275478,-0.009050311,0.8593634,-3.54862,-23.11943,-54.41323
36.240850449,1.656929,-13.13849,-4.712642,-0.1151995,0.006715075,0.8818429,-3.54862,-23.11943,-54.41323
36.250709057,-0.579244300000001,-14.80474,-3.609189,-0.1001545,-0.004631879,0.9347239,-3.54862,-23.11943,-54.41323
36.260568619,-4.057736,-15.39983,-2.383129,-0.08029807,-0.01316427,0.9482656,-3.54862,-23.11943,-54.41323
36.270427227,-4.989474,-15.57835,-2.076613,-0.07109191,-0.03982446,0.9541389,-3.54862,-23.11943,-54.41323
36.280285835,-2.753301,-15.8759,-1.831402,-0.05863598,-0.03476937,0.9750889,-3.181625,-23.50882,-55.62766
36.29014492,-0.0823169599999999,-16.05442,-3.180068,-0.04878344,-0.0439394,0.9719958,-3.181625,-23.50882,-55.62766
36.300003529,4.017333,-15.93541,-3.486583,-0.03829656,-0.06478117,0.9692745,-3.181625,-23.50882,-55.62766
36.309862614,8.48967900000002,-15.8759,-3.425279,-0.0213803,-0.06406468,0.9906034,-3.181625,-23.50882,-55.62766
36.322186947,10.85008,-14.98326,-2.812249,-0.02852751,-0.04210511,1.023955,-3.181625,-23.50882,-55.62766
36.332045555,9.98046100000001,-14.62621,-2.137917,-0.03602616,-0.01145768,1.039176,-4.669807,-23.10648,-54.40744
36.34190464,6.874665,-14.86425,-1.218372,-0.0319049,0.001818347,1.066065,-4.669807,-23.10648,-54.40744
36.351763249,1.967508,-13.97161,-1.463584,-0.01894926,-0.007766027,1.074904,-4.669807,-23.10648,-54.40744
36.361622334,-0.951939799999999,-13.01947,-0.6666446,-0.01939005,-0.01898577,1.068586,-4.669807,-23.10648,-54.40744
36.371480942,-1.510983,-12.00782,-1.034463,0.001373466,0.002605054,1.067514,-4.669807,-23.10648,-54.40744
36.38133955,-2.753301,-10.69862,-1.831402,0.00983688,-0.006555619,1.070191,-5.419275,-22.7297,-54.40735
36.391199112,-2.132142,-9.74647699999998,-1.402281,0.006857233,-0.02368224,1.051879,-5.419275,-22.7297,-54.40735
36.40105772,0.663074000000001,-8.91335200000002,-1.095766,0.0138086,-0.02798633,1.055578,-5.419275,-22.7297,-54.40735
36.410916805,2.837131,-7.60415499999998,-1.340978,0.006260737,-0.04262285,1.063229,-5.419275,-22.7297,-54.40735
36.420775414,4.576376,-6.94955700000003,-1.279675,-0.01359024,-0.05152989,1.070625,-5.419275,-22.7297,-54.40735
36.430634976,6.56408599999997,-6.59250300000002,-1.095766,-0.01112612,-0.06077935,1.063802,-6.164724,-23.08922,-54.39971
36.440493107,6.439854,-5.93790500000001,-0.973159599999999,-0.0009780135,-0.04705362,1.066649,-6.164724,-23.08922,-54.39971
36.450352669,5.81869499999997,-4.926253,-0.850553500000001,0.004149843,-0.02413152,1.068207,-6.164724,-23.08922,-54.39971
36.460211277,3.644638,-3.855092,-0.4827355,0.01147739,0.0129006,1.064102,-6.164724,-23.08922,-54.39971
36.470070362,1.03577,-3.319512,-1.095766,0.02123109,0.02030207,1.068338,-6.164724,-23.08922,-54.39971
36.47992897,-2.194258,-2.783932,-0.6666446,0.01778128,0.01147639,1.058729,-6.167944,-23.09545,-54.84781
36.489788532,-2.380606,-2.129333,-0.789250600000002,-0.001295741,-0.01212708,1.038196,-6.167944,-23.09545,-54.84781
36.502111435,-1.076172,-1.534244,-0.2375236,0.005168661,-0.01936423,1.039481,-6.167944,-23.09545,-54.84781
36.511970997,-0.3928965,-0.701118900000002,-1.095766,0.01150457,-0.008085404,1.047632,-6.167944,-23.09545,-54.84781
36.521829605,-0.2065488,0.1320062,-0.973159599999999,0.00760833,-0.01885613,1.03945,-6.167944,-23.09545,-54.84781
36.53168869,0.4146104,0.786604499999998,-0.5440385,-0.001814527,-0.01458099,1.03387,-6.160709,-23.82551,-54.39217
36.541547299,-0.4550124,1.441203,-0.2988266,-0.009990264,-0.02193798,1.037758,-6.160709,-23.82551,-54.39217
36.55140686,-0.5171283,1.857765,0.620718400000002,-0.006634601,-0.0194861,1.034856,-6.160709,-23.82551,-54.39217
36.561265468,-0.2065488,2.452855,0.3755064,0.001885789,0.004433718,1.034936,-6.160709,-23.82551,-54.39217
36.571124554,-0.579244300000001,3.28598,-0.2375236,0.01981356,0.005033142,1.022706,-6.160709,-23.82551,-54.39217
36.580983162,-0.5171283,3.583524,-1.279675,0.004508472,0.0004647975,1.00851,-6.160709,-23.82551,-54.39217
36.590842247,0.04191487,3.464506,-1.831402,-0.00104164,-0.003889936,1.028199,-6.160709,-23.82551,-54.39217
36.600700855,-2.00791,3.82156,-1.647493,-0.001478307,-0.0297553,1.009298,-6.160709,-23.82551,-54.39217
36.610560417,-3.063881,4.059596,-0.2988266,-0.007251672,-0.01868562,0.9903058,-6.160709,-23.82551,-54.39217
36.620419025,-4.741011,4.476159,-0.727947499999999,-0.00449463,-0.03224559,1.001174,-6.160709,-23.82551,-54.39217
36.63027811,-5.113706,4.773703,-0.3601296,0.004100327,-0.04918037,1.006659,-6.536446,-23.45305,-54.39401
36.640136719,-4.119852,5.130757,-0.3601296,0.006954742,-0.03745995,1.01103,-6.536446,-23.45305,-54.39401
36.649995804,-4.368315,4.654685,-0.4214326,-0.0151623,-0.04829027,1.029942,-6.536446,-23.45305,-54.39401
36.659854412,-4.678895,4.535667,0.620718400000002,-0.02852963,-0.03917635,1.026376,-6.536446,-23.45305,-54.39401
36.672178745,-5.486402,4.892721,0.743324399999998,-0.01793697,-0.008018035,1.005403,-6.536446,-23.45305,-54.39401
36.682037353,-7.16353100000001,5.368793,1.540263,-0.02066305,-0.004213774,0.9882231,-5.784218,-23.82448,-54.01003
36.691896439,-9.896631,5.90437299999999,0.804627399999999,-0.01796536,-0.02329633,0.9540005,-5.784218,-23.82448,-54.01003
36.701755047,-10.20721,5.78535500000003,1.172445,-0.02383182,-0.0383471,0.9769586,-5.784218,-23.82448,-54.01003
36.711614132,-9.33758799999999,6.0829,1.049839,-0.0213711,-0.03246249,0.9832029,-5.784218,-23.82448,-54.01003
36.72147274,-9.46182000000001,6.38044500000002,0.620718400000002,-0.024199,-0.01341707,1.007843,-5.784218,-23.82448,-54.01003
36.731332302,-10.70414,6.91602500000001,0.682021400000003,-0.02966655,-0.0154423,0.9997575,-5.422495,-22.73594,-54.85545
36.74119091,-12.31915,6.79700699999999,1.111142,-0.03434857,-0.02811967,1.00403,-5.422495,-22.73594,-54.85545
36.751049995,-12.87819,6.02339100000001,1.785475,-0.0535671,-0.03321088,0.9894058,-5.422495,-22.73594,-54.85545
36.760908604,-16.48092,3.940578,3.31805,-0.07482159,-0.03931847,0.9680932,-5.422495,-22.73594,-54.85545
36.770768166,-24.68022,3.404998,5.83147299999998,-0.06333942,-0.03196476,0.9555324,-5.422495,-22.73594,-54.85545
36.780626774,-33.50068,2.333837,7.793169,-0.04151108,-0.01704062,0.990808,-5.422495,-22.73594,-54.85545
36.790485859,-43.50134,2.274328,8.528805,-0.04886405,-0.02017446,0.9511129,-5.422495,-22.73594,-54.85545
36.800344467,-53.25354,3.583524,14.29129,-0.05651976,0.005545913,0.9504806,-5.422495,-22.73594,-54.85545
36.810203552,-70.4596499999999,2.809908,17.29513,-0.05332366,0.0324988,0.9933112,-5.422495,-22.73594,-54.85545
36.82006216,-83.50399,1.084149,17.84686,-0.05182004,-0.004094926,0.9637498,-5.422495,-22.73594,-54.85545
36.829921722,-91.1442499999999,0.07249729,17.90816,-0.05229671,-0.08082999,1.004799,-5.428183,-21.69285,-54.86613
36.839780331,-90.21251,0.01298836,17.47904,-0.05633754,-0.1738819,0.9853829,-5.428183,-21.69285,-54.86613
36.852104187,-85.9265099999998,-0.641609900000002,18.6438,-0.09643894,-0.1970452,1.002052,-5.428183,-21.69285,-54.86613
36.861963272,-88.3490300000002,-1.17719,20.54419,-0.08189594,-0.209647,0.9811325,-5.428183,-21.69285,-54.86613
36.87182188,-93.3804199999998,-0.939154599999998,25.08061,-0.03995907,-0.1404724,1.031914,-4.710756,-18.41132,-56.56828
36.881680489,-98.1012300000002,-1.236699,20.7281,-0.03756659,-0.1069136,1.02162,-4.710756,-18.41132,-56.56828
36.89154005,-100.1511,-0.5225921,17.60165,-0.00689836,-0.2229642,1.015891,-4.710756,-18.41132,-56.56828
36.901398659,-94.62274,-1.712771,18.82771,-0.005304233,-0.2984551,0.9946259,-4.710756,-18.41132,-56.56828
36.911257744,-84.4978400000003,-2.010315,20.97331,-0.03817677,-0.3448842,1.018662,-4.710756,-18.41132,-56.56828
36.921116352,-77.9756700000002,-8.67531599999998,26.12277,-0.04134789,-0.4049467,0.840897,-4.710756,-18.41132,-56.56828
36.930975437,-71.2671500000002,-9.09187900000003,32.25307,-0.0607195,-0.3427063,0.8742839,-5.85725,-14.35498,-57.05206
36.940834045,-61.7634200000002,-9.56794999999997,32.43697,-0.06502954,-0.298155,0.9561852,-5.85725,-14.35498,-57.05206
36.950693607,-58.4091599999999,-8.67531599999998,31.27222,-0.04895265,-0.2625256,0.9466727,-5.85725,-14.35498,-57.05206
36.960552216,-53.75047,-8.02071800000003,28.39098,-0.05250388,-0.277592,0.9600138,-5.85725,-14.35498,-57.05206
36.970411301,-50.64467,-7.78268199999998,23.79325,-0.0408281,-0.2465303,0.910752,-5.85725,-14.35498,-57.05206
36.980269909,-46.91772,-6.17594099999999,19.01162,-0.006900264,-0.2124941,0.9532045,-5.88335,-9.569066,-57.10108
36.990129471,-44.30885,-4.390673,15.82386,0.002047345,-0.2547161,0.9623046,-5.88335,-9.569066,-57.10108
36.999988079,-42.44537,-4.390673,14.90432,-0.003607643,-0.3024178,0.9720458,-5.88335,-9.569066,-57.10108
37.009847164,-37.53821,-3.914601,16.37559,0.01119573,-0.3193393,0.9664208,-5.88335,-9.569066,-57.10108
37.019705772,-32.13413,-3.200494,13.12653,0.02714876,-0.2497045,0.9418628,-5.88335,-9.569066,-57.10108
37.032029629,-29.15257,-1.415226,7.30274499999998,0.04868731,-0.2631802,0.9308996,-6.6493,-6.681956,-57.51084
37.041888714,-25.48773,0.4890598,3.195444,0.06204091,-0.315615,0.9312252,-6.6493,-6.681956,-57.51084
37.051747322,-21.38808,2.512363,-1.340978,0.0464981,-0.3907737,0.9092485,-6.6493,-6.681956,-57.51084
37.06160593,-19.02767,1.917274,-0.850553500000001,-0.003068045,-0.4928902,0.9158019,-6.6493,-6.681956,-57.51084
37.071465492,-16.60515,1.381694,4.482807,-0.007462475,-0.4836505,0.9245681,-7.412819,-3.728143,-57.53715
37.081324577,-13.74782,1.679239,4.728019,-0.02396082,-0.3207443,0.9343245,-7.412819,-3.728143,-57.53715
37.091183186,-17.599,1.679239,2.275899,-0.003452759,-0.2567506,0.9518234,-7.412819,-3.728143,-57.53715
37.101042748,-23.00309,2.214819,0.007688423,-0.004547403,-0.2563042,0.9436964,-7.412819,-3.728143,-57.53715
37.110901356,-23.99694,2.036292,-1.58619,0.002230984,-0.3103216,0.9268511,-7.412819,-3.728143,-57.53715
37.120759964,-21.26385,1.143658,-2.812249,-0.009387373,-0.3782543,0.8761275,-7.414827,-3.359995,-57.54092
37.130619049,-18.15805,0.2510241,-2.137917,-0.03742022,-0.3731732,0.8698611,-7.414827,-3.359995,-57.54092
37.140477657,-14.92802,-0.04652058,-3.057462,-0.01945631,-0.3745164,0.8585721,-7.414827,-3.359995,-57.54092
37.150336742,-12.69185,-0.641609900000002,-2.812249,-0.05725355,-0.3665872,0.8563026,-7.414827,-3.359995,-57.54092
37.160195351,-9.399704,-2.069824,-1.279675,-0.05257865,-0.3878174,0.8934343,-7.414827,-3.359995,-57.54092
37.170054913,-3.063881,-2.724423,1.295051,-0.06761742,-0.3411811,0.9079391,-7.414827,-3.359995,-57.54092
37.179913521,1.222117,-3.43853,0.988536299999999,-0.05048091,-0.2772027,0.9293195,-7.42407,-2.261789,-58.00031
37.189772606,2.712899,-4.033619,-1.58619,-0.05015704,-0.2484401,0.942496,-7.42407,-2.261789,-58.00031
37.202096462,-2.877533,-4.747726,-2.689644,-0.02311711,-0.3149154,0.9295696,-7.42407,-2.261789,-58.00031
37.211955071,-6.231793,-3.319512,-4.222218,-0.02081942,-0.416705,0.9008843,-7.42407,-2.261789,-58.00031
37.221814632,-7.10141600000002,-3.617057,-5.69349,-0.04994188,-0.5022042,0.8785346,-7.050343,-2.266105,-58.00225
37.231673241,-6.231793,-4.033619,-3.302674,-0.04371205,-0.517673,0.8912537,-7.050343,-2.266105,-58.00225
37.241532326,-4.927359,-4.50969,-2.383129,-0.03607639,-0.4406535,0.909046,-7.050343,-2.266105,-58.00225
37.251390934,-2.504838,-4.093128,-1.157069,-0.03852455,-0.339395,0.9262282,-7.050343,-2.266105,-58.00225
37.261250019,-1.014056,-4.152637,-2.199219,-0.02782161,-0.2867233,0.9322706,-7.050343,-2.266105,-58.00225
37.271108627,1.284233,-3.140985,-1.892705,-0.01964824,-0.2889963,0.9556157,-7.049129,-1.891721,-57.55793
37.280968189,5.259652,-2.188842,-3.118764,-0.01078111,-0.2986652,0.9515741,-7.049129,-1.891721,-57.55793
37.290826798,7.68217200000001,-1.17719,-4.835248,-0.01852699,-0.3449578,0.9527315,-7.049129,-1.891721,-57.55793
37.300685883,9.04872300000001,-1.117681,-5.203066,-0.0256141,-0.4126796,0.947469,-7.049129,-1.891721,-57.55793
37.310544491,8.30333200000001,-1.236699,-5.141763,-0.02146044,-0.4131999,0.9287165,-7.049129,-1.891721,-57.55793
37.320404053,5.259652,-1.77228,-5.570884,-0.02651501,-0.4219425,0.9450076,-7.79458,-2.251236,-57.55029
37.330262661,3.45829,-2.248351,-3.8544,-0.04274885,-0.4108821,0.9482076,-7.79458,-2.251236,-57.55029
37.340121746,4.079449,-2.486387,-4.957854,-0.01088271,-0.3609169,0.9611134,-7.79458,-2.251236,-57.55029
37.349980354,5.81869499999997,-1.950806,-6.30652000000001,-0.007100543,-0.3350437,0.9742162,-7.79458,-2.251236,-57.55029
37.359839439,7.930636,-0.641609900000002,-5.509581,-0.01276774,-0.3356611,0.9527279,-7.79458,-2.251236,-57.55029
37.369698048,10.04258,0.1320062,-4.528733,-0.04126948,-0.3344845,0.9445184,-7.420851,-2.255552,-57.55222
37.382021904,14.14223,0.310533,-5.08046,-0.01269149,-0.3201513,0.9360856,-7.422857,-1.887404,-57.556
37.391880512,14.26646,1.679239,-7.40997399999998,0.01990222,-0.3319834,0.9479805,-7.422857,-1.887404,-57.556
37.401740074,14.32858,3.107453,-7.83909500000001,-0.002826067,-0.3803112,0.9608349,-7.422857,-1.887404,-57.556
37.411598682,16.62686,3.524015,-5.93870199999998,-0.01778069,-0.4116321,0.9488037,-7.422857,-1.887404,-57.556
37.421457768,19.42208,2.274328,-4.406127,-0.001585992,-0.3792514,0.9809526,-7.418842,-2.6237,-57.54845
37.431316376,21.16133,2.393346,-3.302674,0.03402606,-0.305241,1.038574,-7.418842,-2.6237,-57.54845
37.441175938,20.35382,3.107453,-6.06130799999997,0.02275275,-0.2824003,1.057137,-7.418842,-2.6237,-57.54845
37.451034546,25.26097,3.464506,-8.08430800000001,0.01804345,-0.3257086,1.068339,-7.418842,-2.6237,-57.54845
37.460893631,32.21796,5.130757,-12.13031,0.04355494,-0.3243506,1.110636,-7.418842,-2.6237,-57.54845
37.470752239,40.78996,7.451605,-18.138,0.02188949,-0.3304403,1.095079,-7.410057,-3.722797,-57.15306
37.480611324,49.61042,9.772454,-19.85448,-0.007617001,-0.3644321,1.054002,-7.410057,-3.722797,-57.15306
37.490469933,58.7414600000001,10.78411,-21.14185,-0.03371621,-0.3788694,1.028854,-7.410057,-3.722797,-57.15306
37.500329495,68.9905899999997,12.27183,-23.22615,-0.01392242,-0.3683788,1.054538,-7.410057,-3.722797,-57.15306
37.510188103,82.5318499999999,12.98594,-24.08439,-0.01841688,-0.368797,1.08335,-7.410057,-3.722797,-57.15306
37.520047188,99.1168000000002,13.16446,-24.207,-0.05059642,-0.4281279,1.039222,-7.033068,-4.836902,-57.52776
37.529905796,123.2799,12.50986,-19.73188,-0.08150969,-0.4297574,1.066963,-7.033068,-4.836902,-57.52776
37.539765358,143.6539,13.93808,-20.77403,-0.06844373,-0.3706054,1.108487,-7.033068,-4.836902,-57.52776
37.552088261,169.1214,17.33009,-23.34875,-0.0626445,-0.4533544,0.958675,-7.033068,-4.836902,-57.52776
37.561947822,198.8129,19.94848,-18.32191,-0.01981637,-0.2943623,1.082081,-7.033068,-4.836902,-57.52776
37.571806431,218.193,21.07915,-27.63996,0.03402628,-0.05345117,1.224232,-7.00931,-9.193316,-57.48315
37.581665516,240.8653,27.86317,-39.96186,0.06765593,-0.005799454,1.00564,-7.00931,-9.193316,-57.48315
37.591524124,246.9527,33.51652,-39.83926,-0.0240733,-0.02509866,1.006784,-7.00931,-9.193316,-57.48315
37.601383209,243.5984,33.81406,-30.33729,-0.03017323,-0.01588738,1.141604,-7.00931,-9.193316,-57.48315
37.611241817,243.9711,37.02755,-18.87363,-0.03173852,0.004930326,1.116884,-7.00931,-9.193316,-57.48315
37.621101379,222.7275,36.43246,-10.22991,-0.0400349,-0.07675424,1.154169,-4.699589,-17.64563,-54.46337
37.630959988,189.6197,44.40665,1.601566,-0.09011321,-0.3367665,0.8407297,-4.699589,-17.64563,-54.46337
37.640819073,181.9173,36.43246,16.31429,-0.1879993,-0.4919265,0.7013684,-4.699589,-17.64563,-54.46337
37.650677681,190.7999,33.21898,20.91201,0.007286272,-0.4653224,0.5871561,-4.699589,-17.64563,-54.46337
37.660537243,202.5398,27.56563,8.89662299999997,-0.03662184,-0.413303,0.6778313,-4.699589,-17.64563,-54.46337
37.670395851,206.4531,23.34049,28.8814,-0.0522791,-0.02752555,0.945349,-2.356157,-30.06304,-49.73839
37.680254936,212.1057,31.55272,24.09977,-0.02191256,0.327071,1.223928,-2.356157,-30.06304,-49.73839
37.690113544,189.806,39.94349,22.50589,0.003266813,0.5096842,1.329576,-2.356157,-30.06304,-49.73839
37.699972629,160.3631,49.70295,15.63995,-0.04323886,0.6529148,1.094723,-2.356157,-30.06304,-49.73839
37.709831238,141.2935,46.13241,4.911928,-0.1035275,0.59965,0.7884447,-2.356157,-30.06304,-49.73839
37.722155094,132.2867,31.96929,-4.283521,-0.2037075,0.5249117,0.3004583,-2.27597,-38.03054,-44.59898
37.732014656,134.5229,19.11536,-3.793097,-0.1217351,0.6714764,0.5209586,-2.27597,-38.03054,-44.59898
37.741873264,122.5345,19.76995,0.2529004,-0.1926715,0.7455457,0.5863282,-2.27597,-38.03054,-44.59898
37.751732349,86.3209199999998,13.93808,1.601566,-0.2842225,0.8303723,0.5845154,-2.27597,-38.03054,-44.59898
37.761590958,58.8035699999999,9.41540100000002,0.2529004,-0.2581638,0.8160451,0.7249077,-2.27597,-38.03054,-44.59898
37.77145052,34.64048,9.89147200000003,2.521111,-0.2212245,0.6066089,0.845768,0.0261364,-43.89334,-40.70941
37.781309128,13.45895,10.96263,3.685868,-0.2275235,0.3237211,0.8166351,0.0261364,-43.89334,-40.70941
37.791168213,11.84394,7.27307799999999,2.582414,-0.2105928,0.0868105,0.6658427,0.0261364,-43.89334,-40.70941
37.801026821,26.75176,2.69089,3.685868,-0.1294163,0.1320853,0.7388645,0.0261364,-43.89334,-40.70941
37.810885906,30.91352,0.4295509,4.605413,-0.1129136,0.3329395,0.7983075,0.0261364,-43.89334,-40.70941
37.820744514,18.80092,-3.617057,-0.973159599999999,-0.1538609,0.5141322,0.6815788,0.8083935,-47.55494,-38.62712
37.830604076,8.17909999999999,-8.49678899999997,-6.00000499999998,-0.0936532,0.5913274,0.7518145,0.8083935,-47.55494,-38.62712
37.840462685,-5.175822,-6.652012,-4.528733,-0.05845693,0.5094447,0.8929441,0.8083935,-47.55494,-38.62712
37.85032177,-14.99014,-3.081476,1.417657,-0.1295188,0.3841989,0.8813991,0.8083935,-47.55494,-38.62712
37.860180378,-11.88434,-3.617057,4.54411,-0.1774577,0.3167525,0.7866316,0.8083935,-47.55494,-38.62712
37.87003994,-0.4550124,-6.29495900000002,3.501959,-0.1842892,0.3942724,0.7126281,0.8108616,-47.9222,-38.55934
37.879898548,5.88081099999999,-10.34157,0.1302944,-0.1752081,0.5038745,0.72157,0.8108616,-47.9222,-38.55934
37.889757633,3.396174,-12.00782,-0.4214326,-0.1448617,0.5424998,0.828325,0.8108616,-47.9222,-38.55934
37.902081013,-6.85295199999998,-10.69862,1.601566,-0.1337904,0.5170777,0.9003117,0.8108616,-47.9222,-38.55934
37.911940098,-10.64202,-10.34157,0.927233400000001,-0.1363,0.4406566,0.9001818,0.8108616,-47.9222,-38.55934
37.921798706,-11.13895,-9.21089600000002,4.298898,-0.1123063,0.404529,0.9417045,0.06018448,-47.9198,-39.00357
37.931657791,-9.21335600000002,-7.12808399999997,5.77016999999999,-0.1114251,0.4049982,0.9349871,0.06018448,-47.9198,-39.00357
37.941516399,-7.03929899999998,-6.41397600000001,6.19929100000001,-0.1349402,0.464562,0.9133025,0.06018448,-47.9198,-39.00357
37.951375961,-5.486402,-6.71152099999998,3.256747,-0.1214524,0.4787822,0.9103551,0.06018448,-47.9198,-39.00357
37.96123457,-5.175822,-6.47348499999999,1.172445,-0.1138256,0.4983235,0.9128073,0.06018448,-47.9198,-39.00357
37.971093655,-5.486402,-6.11643200000001,-1.892705,-0.1056541,0.5115379,0.9137608,-0.3155537,-47.54734,-39.00541
37.980952263,-7.22564700000002,-6.29495900000002,-3.915704,-0.1098204,0.5334014,0.9144839,-0.3155537,-47.54734,-39.00541
37.990811825,-9.64816799999999,-5.699869,-5.570884,-0.1020526,0.5515183,0.9260269,-0.3155537,-47.54734,-39.00541
38.000670433,-14.67956,-5.342815,-5.754793,-0.1114436,0.5553142,0.9223591,-0.3155537,-47.54734,-39.00541
38.010529518,-19.46248,-4.926253,-4.590036,-0.09874286,0.5326102,0.9368417,-0.3155537,-47.54734,-39.00541
38.020388126,-23.18944,-3.43853,-3.302674,-0.1149963,0.4920481,0.9290638,-0.697731,-47.18735,-39.90344
38.030247211,-23.62425,-2.724423,-2.812249,-0.1253536,0.4261577,0.9008619,-0.697731,-47.18735,-39.90344
38.04010582,-18.77921,-2.010315,-3.118764,-0.1139844,0.3854151,0.9094607,-0.697731,-47.18735,-39.90344
38.049965382,-12.31915,-1.355717,-2.505734,-0.1274886,0.3434965,0.922717,-0.697731,-47.18735,-39.90344
38.05982399,-5.73486500000002,-0.5225921,-0.789250600000002,-0.130003,0.3278321,0.9039319,-0.697731,-47.18735,-39.90344
38.072147846,1.160001,0.01298836,-2.505734,-0.1293031,0.4363655,0.9072338,-0.7037544,-46.0829,-39.91476
38.082006931,0.1040308,0.608077699999999,-2.996159,-0.1168506,0.494366,0.9027539,-0.7037544,-46.0829,-39.91476
38.09186554,-6.91506799999999,-0.04652058,-3.180068,-0.1230404,0.5228931,0.8685805,-0.7037544,-46.0829,-39.91476
38.101725101,-11.57376,-0.3440652,-3.670491,-0.1038077,0.4641658,0.8639771,-0.7037544,-46.0829,-39.91476
38.11158371,-13.56147,-0.2845563,-2.873553,-0.1133273,0.4348609,0.8576359,-0.7037544,-46.0829,-39.91476
38.121442795,-14.18263,-0.701118900000002,-3.8544,-0.117565,0.4270573,0.8629016,0.04094315,-46.09688,-40.3027
38.131301403,-14.24475,-1.593753,-4.712642,-0.1293024,0.4274425,0.8635514,0.04094315,-46.09688,-40.3027
38.141160488,-14.8659,-2.010315,-5.509581,-0.1290161,0.418736,0.8768914,0.04094315,-46.09688,-40.3027
38.151019096,-14.55532,-1.653262,-4.773945,-0.1278826,0.4051186,0.8762811,0.04094315,-46.09688,-40.3027
38.160878658,-13.6857,-1.950806,-5.325672,-0.1285045,0.3778709,0.8784561,0.04094315,-46.09688,-40.3027
38.170737267,-11.69799,-2.367369,-4.160915,-0.1325457,0.3579177,0.88745,-0.3327866,-46.09257,-40.30077
38.180596352,-9.46182000000001,-1.891297,-2.260523,-0.1334275,0.3613541,0.8975548,-0.3327866,-46.09257,-40.30077
38.19045496,-7.34987899999998,-1.593753,-2.689644,-0.1210538,0.3848032,0.8927844,-0.3327866,-46.09257,-40.30077
38.200314522,-6.29390900000001,-2.069824,-3.731794,-0.132908,0.4065019,0.8677388,-0.3327866,-46.09257,-40.30077
38.21017313,-6.91506799999999,-2.962458,-4.590036,-0.1269306,0.4391604,0.8684084,-0.3327866,-46.09257,-40.30077
38.220032215,-10.51779,-3.498039,-6.61303499999999,-0.1333371,0.4459259,0.8709528,0.4094429,-45.73929,-40.7565
38.229890823,-14.36898,-4.271655,-9.55557899999999,-0.1348667,0.4384366,0.8239499,0.4094429,-45.73929,-40.7565
38.239749909,-17.22631,-6.830539,-14.45982,-0.1449519,0.4654695,0.7898194,0.4094429,-45.73929,-40.7565
38.252073288,-23.74848,-11.47224,-23.83918,-0.1385604,0.508852,0.7944072,0.4094429,-45.73929,-40.7565
38.26193285,-29.89796,-13.43603,-31.44075,-0.1107691,0.5170194,0.8304992,0.4094429,-45.73929,-40.7565
38.271791935,-39.58804,-13.9121,-32.36029,-0.09491517,0.4584099,0.8652394,-0.3407764,-45.736,-41.13672
38.281650543,-51.82487,-13.43603,-26.3526,-0.1034863,0.4316815,0.8948463,-0.3407764,-45.736,-41.13672
38.291509152,-61.7013099999999,-14.15014,-19.60927,-0.1355074,0.4066543,0.7848756,-0.3407764,-45.736,-41.13672
38.301368237,-71.1429199999997,-18.13724,-16.66673,-0.181389,0.4141705,0.6916699,-0.3407764,-45.736,-41.13672
38.311227799,-77.4166300000001,-23.9096,-19.79318,-0.2038539,0.4422467,0.5757816,-0.3407764,-45.736,-41.13672
38.321086407,-86.60979,-31.11018,-23.53266,-0.2264439,0.4787222,0.4939891,0.7651844,-44.66233,-42.4341
38.330945492,-104.0644,-39.14389,-25.61696,-0.2038502,0.4912883,0.5474434,0.7651844,-44.66233,-42.4341
38.3408041,-133.6315,-43.8451,-24.2683,-0.1698052,0.4938108,0.75016,0.7651844,-44.66233,-42.4341
38.350663185,-172.8267,-48.72483,-9.24906400000001,-0.1998332,0.3779185,0.6705421,0.7651844,-44.66233,-42.4341
38.360521793,-215.1276,-49.49844,4.850626,-0.2496694,0.3034186,0.6457053,0.7651844,-44.66233,-42.4341
38.370381355,-243.9494,-51.8788,14.5978,-0.2019899,0.1665469,0.7569617,0.350256,-42.13354,-46.23538
38.380239964,-275.9391,-55.50885,29.55573,-0.2005878,0.01359106,0.5817015,0.350256,-42.13354,-46.23538
38.390099049,-305.2578,-65.8038899999999,48.37576,-0.2349956,-0.1154634,0.6357314,0.350256,-42.13354,-46.23538
38.399957657,-333.3963,-59.0793800000001,63.2110699999999,-0.004328435,-0.1751962,1.031113,0.350256,-42.13354,-46.23538
38.409817219,-353.2113,-46.88005,77.6172799999997,0.228733,-0.4170306,1.262475,0.350256,-42.13354,-46.23538
38.422140122,-325.0107,-30.45559,76.7590400000001,0.1620558,-0.6239115,1.141879,-1.974274,-34.88802,-52.18785
38.431999683,-268.361,-23.79058,56.52905,-0.01218837,-0.7587966,1.268775,-1.974274,-34.88802,-52.18785
38.441858292,-196.4307,-35.81139,41.69373,-0.04873466,-1.070517,1.148782,-1.974274,-34.88802,-52.18785
38.451717377,-119.966,-33.8476,45.86233,0.09269137,-0.9761867,1.055077,-1.974274,-34.88802,-52.18785
38.461575985,-66.48423,-33.01447,51.4409,0.1336334,-0.6127822,0.9329681,-1.974274,-34.88802,-52.18785
38.471435547,-46.97983,-33.66907,45.00409,0.05427144,-0.3535317,0.8303841,-5.822701,-19.49658,-56.10308
38.481294155,-47.41464,-35.2163,41.26461,-0.03737211,-0.4454171,0.80983,-5.822701,-19.49658,-56.10308
38.49115324,-39.029,-34.44268,42.49067,-0.09905341,-0.4131291,0.8713607,-5.822701,-19.49658,-56.10308
38.501011849,-17.84747,-33.25251,34.70518,-0.08547899,-0.2242342,0.9925612,-5.822701,-19.49658,-56.10308
38.510870934,-10.9526,-30.75313,29.67834,0.02901108,-0.008041877,1.147535,-5.822701,-19.49658,-56.10308
38.520729542,-16.29457,-28.67032,28.14577,0.05384116,0.2647412,1.163381,-7.729494,-12.48019,-56.16506
38.530589104,-29.52526,-27.83719,22.32198,0.1052074,0.4146766,1.187394,-7.729494,-12.48019,-56.16506
38.540448189,-42.44537,-25.15929,16.31429,0.1551149,0.4149863,1.152183,-7.729494,-12.48019,-56.16506
38.550306797,-42.07267,-22.60041,9.01922900000002,0.161086,0.2422873,1.15112,-7.729494,-12.48019,-56.16506
38.560165882,-24.30752,-18.31576,1.356354,0.1661371,-0.003367456,1.161913,-7.729494,-12.48019,-56.16506
38.57002449,3.582522,-14.38817,-5.325672,0.1460854,-0.255634,1.155757,-9.987135,-10.25165,-56.6242
38.579884052,26.68964,-10.69862,-5.87739899999999,0.07802967,-0.4280563,1.143771,-9.987135,-10.25165,-56.6242
38.58974266,38.18109,-9.03236999999999,-5.69349,0.04044694,-0.4842415,1.172585,-9.987135,-10.25165,-56.6242
38.602066517,33.02547,-6.59250300000002,1.908081,0.05488232,-0.4382867,1.195289,-9.987135,-10.25165,-56.6242
38.611925125,15.69513,-5.283307,4.482807,0.06576186,-0.338477,1.183997,-9.987135,-10.25165,-56.6242
38.62178421,-1.386751,-3.914601,3.869777,0.08675085,-0.3364861,1.146337,-11.4298,-8.394362,-56.63564
38.631642818,-10.20721,-0.998663500000001,0.007688423,0.1203491,-0.2885205,1.140991,-11.4298,-8.394362,-56.63564
38.64150238,-15.42495,1.857765,-2.199219,0.1202344,-0.2701358,1.112875,-11.4298,-8.394362,-56.63564
38.651360989,-17.9717,4.119105,-0.5440385,0.0899759,-0.2754015,1.077802,-11.4298,-8.394362,-56.63564
38.661220074,-16.72938,5.78535500000003,2.09199,0.08317827,-0.2944885,1.064799,-11.4298,-8.394362,-56.63564
38.671078682,-8.71642900000001,7.33258699999997,2.643717,0.04457922,-0.2998348,1.027926,-11.04206,-9.859687,-55.79031
38.680938244,0.973653600000002,7.154061,2.827626,0.03287891,-0.2883451,1.005189,-11.04206,-9.859687,-55.79031
38.690796375,5.632347,7.03504299999997,3.685868,0.03891184,-0.2235829,1.002295,-11.04206,-9.859687,-55.79031
38.700655937,3.644638,6.61847999999998,3.992383,0.04002427,-0.1997481,0.9972088,-11.04206,-9.859687,-55.79031
38.710514545,0.973653600000002,6.0829,4.176292,0.05731698,-0.1879653,0.9841234,-11.04206,-9.859687,-55.79031
38.72037363,-2.00791,6.14240899999998,3.685868,0.05245855,-0.1974106,0.9424225,-10.36166,-9.504798,-56.18171
38.730232239,-5.610633,5.487811,3.072838,0.03442768,-0.2234272,0.9247296,-10.36166,-9.504798,-56.18171
38.740091801,-8.03315400000002,5.666337,0.927233400000001,0.03710101,-0.2711869,0.89937,-10.36166,-9.504798,-56.18171
38.749950886,-5.79698099999998,5.725846,0.007688423,0.01920194,-0.2874014,0.8999675,-10.36166,-9.504798,-56.18171
38.759809494,-3.560808,4.833212,-2.567038,0.02629745,-0.2830115,0.8860066,-10.36166,-9.504798,-56.18171
38.77213335,-2.256374,3.583524,-1.524887,0.0139481,-0.2733894,0.8857846,-10.36689,-9.142887,-56.63358
38.781991959,-3.188113,3.464506,-0.6053416,0.0200637,-0.239715,0.8974825,-10.36689,-9.142887,-56.63358
38.79185152,-4.492547,2.869417,-0.5440385,0.003503475,-0.2330066,0.9087967,-10.36689,-9.142887,-56.63358
38.801710129,-4.554663,2.274328,-0.5440385,0.01360231,-0.2211126,0.9422971,-10.36689,-9.142887,-56.63358
38.811569214,-1.945794,2.393346,-1.034463,0.02025765,-0.2312247,0.9550553,-10.36689,-9.142887,-56.63358
38.821427822,1.967508,2.15531,-0.789250600000002,0.009060428,-0.2438676,0.9838601,-10.36488,-9.511035,-56.62981
38.831286907,6.37773799999999,1.500712,-0.3601296,0.01379905,-0.2194566,0.9940618,-10.36488,-9.511035,-56.62981
38.841145515,9.11083900000002,0.608077699999999,-2.076613,0.0444743,-0.1674726,1.029045,-10.36488,-9.511035,-56.62981
38.851005077,9.297187,0.4890598,-5.81609599999999,0.0656801,-0.1765139,1.033458,-10.36488,-9.511035,-56.62981
38.860863686,14.63916,1.262676,-7.47127699999998,0.03576643,-0.2471038,0.966201,-10.36488,-9.511035,-56.62981
38.870722771,17.80707,2.393346,-6.36782300000001,0.01134749,-0.2409619,0.9747473,-10.36768,-8.400355,-56.19302
38.880581379,20.97498,2.214819,-10.41382,0.04935956,-0.2060011,0.994627,-10.36768,-8.400355,-56.19302
38.890440464,24.14289,4.95223,-16.85064,0.09734514,-0.211152,1.064821,-10.36768,-8.400355,-56.19302
38.900299072,30.4166,6.49946299999999,-24.45221,0.08862501,-0.285281,1.041797,-10.36768,-8.400355,-56.19302
38.910158634,42.34285,8.225222,-26.22999,0.02060969,-0.3754517,1.03338,-10.36768,-8.400355,-56.19302
38.920017242,53.64795,7.451605,-21.44836,0.03729895,-0.3605062,1.08646,-9.991152,-9.51535,-56.63174
38.929876327,59.1141500000002,9.772454,-19.30276,0.06134963,-0.2735018,1.132854,-9.991152,-9.51535,-56.63174
38.939735889,62.0957100000001,10.30803,-15.74718,0.05223107,-0.1976409,1.140812,-9.991152,-9.51535,-56.63174
38.952058792,61.78514,11.67674,-12.92724,0.0377298,-0.1105989,1.158526,-9.991152,-9.51535,-56.63174
38.961918354,65.8847899999997,13.81906,-15.56327,0.05374239,-0.06508812,1.188871,-9.991152,-9.51535,-56.63174
38.971776962,75.5748700000002,15.66384,-21.69357,0.0720268,-0.06536344,1.202026,-9.98036,-10.9826,-56.23257
38.981636047,94.27176,19.47241,-28.92733,0.06714007,-0.1178634,1.228008,-9.98036,-10.9826,-56.23257
38.991494656,118.0622,21.13866,-39.22623,0.0234759,-0.1929313,1.296523,-9.98036,-10.9826,-56.23257
39.001354218,138.2498,17.68714,-58.65928,-0.02628499,-0.4197888,0.9996511,-9.98036,-10.9826,-56.23257
39.011212826,182.5385,31.79076,-48.7895,-0.0954007,-0.5995059,0.4729586,-9.98036,-10.9826,-56.23257
39.021071911,204.0927,16.49696,-32.4829,-0.1933972,-0.4456499,0.5973704,-9.214373,-14.30367,-56.13849
39.030930519,208.6272,17.33009,-20.2223,0.008911001,-0.09971789,0.8844469,-9.214373,-14.30367,-56.13849
39.040789604,200.8006,24.29263,-18.138,0.1108138,0.1858627,1.146089,-9.214373,-14.30367,-56.13849
39.050648212,172.3515,33.21898,-16.54412,0.1355252,0.1975155,1.210527,-9.214373,-14.30367,-56.13849
39.060507774,142.5979,39.11036,-9.55557899999999,0.07258314,0.1596801,1.261421,-9.214373,-14.30367,-56.13849
39.070366383,121.2922,42.44286,-6.61303499999999,0.03965686,0.09907708,1.269046,-7.279636,-22.01002,-52.74024
39.080225468,114.6458,43.57353,-5.203066,0.02696912,0.0317332,1.248053,-7.279636,-22.01002,-52.74024
39.090084076,106.8192,46.25143,-10.29121,-0.03070853,-0.1026741,1.097751,-7.279636,-22.01002,-52.74024
39.099943161,97.5017899999999,43.395,-10.65903,-0.1063899,-0.3425884,0.7541775,-7.279636,-22.01002,-52.74024
39.109802723,120.5468,34.88522,-0.911856500000002,-0.1255571,-0.3053244,0.744702,-7.279636,-22.01002,-52.74024
39.122126102,143.7781,32.20732,-0.1149176,-0.07829741,-0.0537924,0.8798479,-4.971006,-30.77446,-50.10142
39.131985188,133.4048,32.44536,2.643717,-0.09403956,-0.04687287,0.556671,-4.971006,-30.77446,-50.10142
39.141843796,135.641,27.92268,10.67441,-0.1315308,0.1890931,0.6339518,-4.971006,-30.77446,-50.10142
39.151702881,129.9884,22.68589,12.02308,-0.03983297,0.4316381,0.8627908,-4.971006,-30.77446,-50.10142
39.161561489,119.5529,31.79076,17.60165,0.003302237,0.4752783,0.9789898,-4.971006,-30.77446,-50.10142
39.171421051,97.1912100000001,35.95639,27.65534,-0.04593527,0.4790655,1.066938,-3.434845,-34.43222,-47.1268
39.181279659,83.4635899999998,40.36005,30.53658,-0.08690068,0.4445618,1.046146,-3.434845,-34.43222,-47.1268
39.191138744,81.5379899999999,38.7533,27.28752,-0.1389731,0.3781296,0.9720513,-3.434845,-34.43222,-47.1268
39.200997353,82.9666600000001,34.7662,21.03462,-0.1519095,0.3607318,0.905001,-3.434845,-34.43222,-47.1268
39.210856915,79.7987500000003,31.96929,16.13038,-0.1872551,0.34045,0.7706785,-3.434845,-34.43222,-47.1268
39.220715523,72.5933099999997,26.97054,16.98862,-0.165329,0.3075558,0.7710468,-2.261164,-40.23408,-44.19227
39.230574608,57.00221,23.69754,18.5825,-0.1167034,0.2745708,0.6842987,-2.261164,-40.23408,-44.19227
39.240433216,57.6854899999998,21.07915,21.21853,-0.1006731,0.3299339,0.6169703,-2.261164,-40.23408,-44.19227
39.250292301,64.9530499999998,18.22272,18.95032,-0.06853774,0.4386982,0.7372301,-2.261164,-40.23408,-44.19227
39.260151863,58.0581799999999,15.36629,16.43689,-0.08574584,0.5069564,0.6834226,-2.261164,-40.23408,-44.19227
39.270010471,49.29984,9.89147200000003,10.06138,-0.1606559,0.6028916,0.6201288,-1.856188,-43.15417,-42.05158
39.279869556,44.4548,5.011739,2.275899,-0.1673606,0.5595551,0.6284842,-1.856188,-43.15417,-42.05158
39.289728165,36.56607,1.679239,5.034534,-0.1578174,0.4519978,0.7314268,-1.856188,-43.15417,-42.05158
39.302052021,28.67735,3.524015,13.06523,-0.1395707,0.4010713,0.7331328,-1.856188,-43.15417,-42.05158
39.311910629,29.79544,2.571872,15.45604,-0.1469734,0.4131935,0.7390911,-1.856188,-43.15417,-42.05158
39.321770191,30.66506,-1.534244,13.18783,-0.1443293,0.4737593,0.6633719,-1.450001,-45.69989,-39.46656
39.3316288,29.79544,-6.830539,8.467502,-0.1641878,0.5418547,0.7020863,-1.450001,-45.69989,-39.46656
39.341487885,20.22959,-11.2342,3.256747,-0.1363751,0.525752,0.754266,-1.450001,-45.69989,-39.46656
39.351346493,12.96203,-12.48389,0.5594154,-0.1050435,0.4522311,0.7987229,-1.450001,-45.69989,-39.46656
39.361205578,10.85008,-11.76978,3.992383,-0.08235786,0.3374487,0.8903956,-1.450001,-45.69989,-39.46656
39.371064186,12.89991,-8.97285999999998,9.14183399999998,-0.09515348,0.3639488,0.9799327,-1.811726,-46.78843,-38.62115
39.380923748,14.39069,-6.89004799999999,9.14183399999998,-0.1211952,0.4555558,0.9446577,-1.811726,-46.78843,-38.62115
39.390782833,16.87533,-7.78268199999998,5.218443,-0.1321647,0.5186005,0.9132398,-1.811726,-46.78843,-38.62115
39.400641441,12.21663,-7.84219100000002,5.279747,-0.1070536,0.5431439,0.910693,-1.811726,-46.78843,-38.62115
39.410501003,5.197536,-6.77103000000002,6.13798800000002,-0.1013048,0.5752491,0.8941101,-1.811726,-46.78843,-38.62115
39.420359612,1.160001,-6.05692300000003,4.728019,-0.09598965,0.5456312,0.8990555,-2.552406,-47.51075,-38.22566
39.430218697,1.594813,-5.580852,4.911928,-0.08412843,0.5068467,0.9095808,-2.552406,-47.51075,-38.22566
39.440077305,2.899247,-4.093128,2.459808,-0.07098116,0.5326872,0.8918811,-2.552406,-47.51075,-38.22566
39.44993639,3.644638,-3.855092,2.582414,-0.08214306,0.556048,0.9190725,-2.552406,-47.51075,-38.22566
39.459794998,-1.759447,-2.545896,4.053687,-0.09464706,0.5804079,0.9563547,-2.552406,-47.51075,-38.22566
39.472118855,-7.22564700000002,-0.1060295,3.563262,-0.09886608,0.5205046,0.9530341,-3.674347,-47.8713,-38.60018
39.481977463,-6.977184,-0.04652058,1.172445,-0.1002663,0.5037758,0.9073889,-3.674347,-47.8713,-38.60018
39.491837025,-4.430431,-1.058172,-1.279675,-0.08543262,0.523833,0.9006379,-3.674347,-47.8713,-38.60018
39.501695633,-5.36217,-0.820136700000001,-3.425279,-0.07686824,0.5380009,0.8953642,-3.674347,-47.8713,-38.60018
39.511554718,-8.03315400000002,-0.820136700000001,-3.670491,-0.07490112,0.5321625,0.8909742,-3.668365,-47.85971,-37.768
39.52141428,-9.08912500000002,-0.2250474,-5.754793,-0.07794793,0.5223401,0.8741627,-3.668365,-47.85971,-37.768
39.531272888,-9.21335600000002,-0.1060295,-7.65518600000002,-0.08592179,0.5144172,0.8564791,-3.668365,-47.85971,-37.768
39.541131973,-9.52393499999999,-0.820136700000001,-9.37167100000003,-0.1017696,0.5050822,0.8700438,-3.668365,-47.85971,-37.768
39.550990581,-11.13895,-0.701118900000002,-10.16861,-0.1052394,0.47051,0.8721974,-3.668365,-47.85971,-37.768
39.560849666,-10.76625,-0.4630831,-11.45597,-0.09885101,0.4603218,0.8653117,-3.668365,-47.85971,-37.768
39.570708275,-8.53008099999998,-0.820136700000001,-13.90809,-0.1084293,0.4738289,0.8564574,-2.928898,-47.51178,-38.60781
39.580567837,-8.21950099999998,-2.010315,-15.68588,-0.1066186,0.5019866,0.834626,-2.928898,-47.51178,-38.60781
39.590426445,-8.654313,-2.486387,-17.34106,-0.09477293,0.5254202,0.8269877,-2.928898,-47.51178,-38.60781
39.60028553,-10.89049,-3.795583,-19.11885,-0.08810054,0.539101,0.8260497,-2.928898,-47.51178,-38.60781
39.610144138,-15.36283,-4.628708,-21.50966,-0.09482956,0.5565155,0.8143126,-2.928898,-47.51178,-38.60781
39.6200037,-18.96556,-5.521342,-25.31045,-0.09898102,0.6007063,0.7998895,-2.190681,-46.42221,-39.07108
39.629862308,-25.17715,-7.36611899999999,-31.44075,-0.1212606,0.6502347,0.8241059,-2.190681,-46.42221,-39.07108
39.639721394,-34.86723,-11.53174,-36.46759,-0.1579078,0.6388277,0.8532839,-2.190681,-46.42221,-39.07108
39.65204525,-50.89314,-13.9121,-41.37183,-0.1597664,0.5997801,0.8261456,-2.190681,-46.42221,-39.07108
39.661903858,-61.8876500000001,-17.00657,-43.88526,-0.1733632,0.5083892,0.753209,-1.817707,-46.80001,-39.45332
39.671762943,-66.42211,-17.8992,-39.04232,-0.1632646,0.3175862,0.7159941,-1.817707,-46.80001,-39.45332
39.681621551,-62.1361200000001,-18.07773,-26.96563,-0.1472834,0.1770434,0.8315049,-1.817707,-46.80001,-39.45332
39.691481113,-53.12931,-16.53049,-20.89663,-0.1442365,0.1906365,0.8157625,-1.817707,-46.80001,-39.45332
39.701339722,-40.64401,-16.11393,-21.44836,-0.174922,0.3440881,0.6737351,-1.817707,-46.80001,-39.45332
39.711198807,-39.27746,-22.83844,-26.47521,-0.1998939,0.5080701,0.601199,-1.091455,-45.73361,-41.58096
39.721057415,-48.34638,-29.92001,-29.78557,-0.1907624,0.6513742,0.6434895,-1.091455,-45.73361,-41.58096
39.730916977,-69.9627200000002,-34.85925,-28.06908,-0.1528209,0.7672777,0.8370442,-1.091455,-45.73361,-41.58096
39.740775585,-104.6855,-27.71818,-22.00009,-0.09905357,0.7834177,0.9911956,-1.091455,-45.73361,-41.58096
39.75063467,-148.5394,-28.49179,-14.58243,-0.2054292,0.7180511,0.8105434,-1.091455,-45.73361,-41.58096
39.760493278,-194.0082,-23.37402,-11.82379,-0.1857068,0.4709252,0.7837375,-0.7401867,-43.92124,-43.33011
39.770352364,-217.488,-32.41938,-3.731794,-0.1386852,0.2162032,0.7430609,-0.7401867,-43.92124,-43.33011
39.780210972,-233.4518,-36.34697,1.111142,-0.1220527,-0.01794583,0.6804686,-0.7401867,-43.92124,-43.33011
39.790070534,-253.7637,-48.5463,13.92347,-0.2482154,-0.03841362,0.4515991,-0.7401867,-43.92124,-43.33011
39.799929619,-261.9009,-56.5205,21.40244,-0.2631243,-0.04525765,0.6079729,-0.7401867,-43.92124,-43.33011
39.809788227,-274.4483,-57.5916600000001,34.9504,0.02015025,-0.186639,1.165802,-0.7401867,-43.92124,-43.33011
39.822112083,-298.4872,-33.07398,55.18039,0.2822259,-0.2546058,1.238165,-1.564068,-38.85209,-50.10049
39.831970692,-293.9527,-21.64826,59.9007200000001,0.1600692,-0.3529412,1.126943,-1.564068,-38.85209,-50.10049
39.841830254,-261.3419,-13.85259,52.48306,0.06617199,-0.4756344,1.201043,-1.564068,-38.85209,-50.10049
39.851688862,-221.0907,-12.90045,42.73588,0.05652282,-0.6045745,1.097543,-1.564068,-38.85209,-50.10049
39.861547947,-167.9816,-14.44768,36.85079,0.05579442,-0.7327803,1.038968,-5.022663,-27.52617,-54.80836
39.871406555,-131.2711,-16.35197,33.54043,0.06765892,-0.801128,0.9519661,-5.022663,-27.52617,-54.80836
39.88126564,-71.2050399999998,-19.14889,34.09216,-0.06648947,-0.7819763,0.9257669,-5.022663,-27.52617,-54.80836
39.891124248,-46.42079,-16.82804,34.03085,-0.1273224,-0.6439592,0.8913795,-5.022663,-27.52617,-54.80836
39.90098381,-31.14028,-15.63786,37.40252,-0.06430422,-0.2757601,0.9573222,-5.022663,-27.52617,-54.80836
39.910842419,-33.9976,-13.198,24.22237,0.04891372,0.006686158,1.005533,-6.970449,-14.6986,-56.21032
39.920701504,-41.45152,-11.29371,14.16868,0.09458766,0.03678691,1.00897,-6.970449,-14.6986,-56.21032
39.930561066,-48.90543,-12.12683,14.78171,0.03335312,-0.007719588,0.9639429,-6.970449,-14.6986,-56.21032
39.940419674,-54.12316,-14.03112,19.50204,0.01321033,0.009519222,0.9370611,-6.970449,-14.6986,-56.21032
39.950278759,-54.80644,-15.63786,19.19553,0.03317121,0.01859278,0.9737515,-6.970449,-14.6986,-56.21032
39.960137367,-49.65082,-15.34032,15.51735,0.01677868,0.01558452,0.9888149,-7.362206,-12.49698,-57.06319
39.969996452,-39.029,-15.28081,7.54795700000002,-0.00843206,-0.0400987,0.992538,-7.362206,-12.49698,-57.06319
39.979855061,-23.37579,-13.61456,0.620718400000002,-0.008444326,-0.08244275,0.990264,-7.362206,-12.49698,-57.06319
39.989714622,-10.89049,-10.46058,-7.83909500000001,0.005914561,-0.1124028,1.012329,-7.362206,-12.49698,-57.06319
40.002037525,-2.504838,-7.18759300000001,-12.13031,0.007453924,-0.2144914,1.035405,-7.362206,-12.49698,-57.06319
40.011897087,-2.504838,-6.77103000000002,-10.53643,0.006903281,-0.3487232,1.056324,-8.496695,-9.533506,-56.70348
40.021755695,-3.063881,-6.89004799999999,-3.670491,-0.006416481,-0.3513131,1.045949,-8.496695,-9.533506,-56.70348
40.03161478,-6.60448799999999,-7.48513700000001,-1.095766,0.02321934,-0.3315782,1.048089,-8.496695,-9.533506,-56.70348
40.041474342,-11.76011,-8.31826200000003,2.275899,0.02309189,-0.2956209,1.034498,-8.496695,-9.533506,-56.70348
40.051332951,-13.80993,-8.67531599999998,3.072838,0.03888215,-0.3110666,1.030788,-8.496695,-9.533506,-56.70348
40.061192036,-8.59219699999999,-7.12808399999997,0.4368094,0.0466553,-0.3241948,1.015232,-8.877201,-8.798241,-57.09317
40.071050644,-1.076172,-5.223798,-2.812249,0.03056318,-0.3663107,0.9820411,-8.877201,-8.798241,-57.09317
40.080909729,7.80640399999998,-3.379021,-2.260523,0.04332861,-0.3246855,1.021984,-8.877201,-8.798241,-57.09317
40.090768337,10.35316,-1.712771,-3.731794,0.03867859,-0.2818311,1.04158,-8.877201,-8.798241,-57.09317
40.100627899,7.55793999999999,-1.296208,-3.609189,0.03030154,-0.2540932,1.061581,-8.877201,-8.798241,-57.09317
40.110486507,1.160001,-1.474735,-1.034463,0.03852104,-0.2268416,1.042526,-9.252937,-8.425777,-57.09501
40.120345593,-5.921213,-2.129333,-1.58619,0.03485234,-0.1744835,0.9989333,-9.252937,-8.425777,-57.09501
40.130204201,-10.45567,-1.831789,-1.892705,0.03186738,-0.2082113,0.9656265,-9.252937,-8.425777,-57.09501
40.140063763,-10.08298,-1.77228,-2.199219,0.02690827,-0.2662376,0.9455602,-9.252937,-8.425777,-57.09501
40.149922371,-4.492547,-1.17719,-3.915704,0.03323655,-0.2818135,0.929525,-9.252937,-8.425777,-57.09501
40.159781456,1.594813,-1.058172,-5.08046,0.01801792,-0.3062392,0.9400782,-8.875193,-9.166389,-57.0894
40.172105312,7.49582399999998,-1.236699,-6.00000499999998,0.006221965,-0.3014768,0.9402865,-8.875193,-9.166389,-57.0894
40.181963921,7.930636,-2.069824,-4.712642,-0.009217637,-0.2996014,0.9577735,-8.875193,-9.166389,-57.0894
40.191823006,5.073304,-2.605405,-2.383129,-0.01390127,-0.2792149,0.9551371,-8.875193,-9.166389,-57.0894
40.201681614,1.097885,-3.379021,-0.6666446,-0.009016289,-0.2874734,0.9473307,-8.875193,-9.166389,-57.0894
40.211541176,0.3524944,-4.271655,0.0689914200000002,0.004525749,-0.2761672,0.9457954,-9.616669,-9.146173,-56.25336
40.221399784,-0.3928965,-4.747726,0.1915974,0.01399914,-0.2429696,0.9521702,-9.616669,-9.146173,-56.25336
40.231258869,-0.703476100000001,-4.926253,-1.402281,0.0341747,-0.2048116,0.9584343,-9.616669,-9.146173,-56.25336
40.241117477,-0.0823169599999999,-4.450181,-4.099612,0.04753978,-0.2197849,0.9566798,-9.616669,-9.146173,-56.25336
40.250977039,2.526551,-3.319512,-5.570884,0.04699078,-0.2548234,0.9573503,-9.616669,-9.146173,-56.25336
40.260836124,5.321767,-2.605405,-7.47127699999998,0.05427254,-0.2731919,0.9729051,-9.248171,-8.788579,-56.70716
40.270694733,9.85623000000002,-2.188842,-8.88124700000001,0.07961608,-0.2796934,0.9959698,-9.248171,-8.788579,-56.70716
40.280553818,14.70127,-0.1060295,-11.82379,0.0889401,-0.3102258,1.00708,-9.248171,-8.788579,-56.70716
40.290412426,22.2173,0.965131299999997,-12.49812,0.04945726,-0.3816824,0.9907469,-9.248171,-8.788579,-56.70716
40.300271988,32.40431,0.9056224,-10.78164,0.02245488,-0.3633957,0.9999117,-9.248171,-8.788579,-56.70716
40.310130596,39.05071,-0.04652058,-10.78164,0.0421109,-0.2853513,1.003165,-9.621439,-8.783372,-56.64121
40.319989681,43.27459,-1.117681,-9.86209499999999,0.02136999,-0.2539893,0.9807242,-9.621439,-8.783372,-56.64121
40.32984829,39.7961,-1.593753,-5.754793,0.005919334,-0.2210057,0.9888899,-9.621439,-8.783372,-56.64121
40.339707851,41.28688,-2.010315,-8.75863999999999,0.05808907,-0.1343106,1.016192,-9.621439,-8.783372,-56.64121
40.352031708,48.49233,0.965131299999997,-20.59012,0.1042461,-0.1112603,1.084734,-9.621439,-8.783372,-56.64121
40.361890316,60.6670500000002,4.238123,-31.19554,0.09127441,-0.1924382,1.138383,-9.987597,-10.25254,-56.68822
40.371749401,75.5127599999998,6.97553399999999,-38.06147,0.08621968,-0.2521743,1.181558,-9.987597,-10.25254,-56.68822
40.381608009,91.3523099999999,10.90312,-40.02317,0.079519,-0.2667044,1.215554,-9.987597,-10.25254,-56.68822
40.391467095,104.2103,14.11661,-37.20323,0.05871482,-0.2502252,1.247138,-9.987597,-10.25254,-56.68822
40.401325703,112.3475,15.12826,-33.34114,0.02872721,-0.2353964,1.249607,-9.987597,-10.25254,-56.68822
40.411185265,114.8942,17.44911,-31.25684,0.00362598,-0.2800895,1.199272,-9.587809,-13.92675,-55.82026
40.421043873,121.3543,22.38835,-28.98863,0.01286892,-0.4661715,0.9958265,-9.587809,-13.92675,-55.82026
40.430902958,147.5672,25.72085,-10.10731,-0.08093605,-0.5611668,0.6705062,-9.587809,-13.92675,-55.82026
40.440761566,168.8109,17.33009,-1.58619,-0.1292294,-0.2976139,0.7333186,-9.587809,-13.92675,-55.82026
40.450621128,168.3761,12.86692,-8.08430800000001,-0.02914023,-0.01122097,0.8267946,-9.587809,-13.92675,-55.82026
40.460479736,170.7365,15.18777,-12.13031,0.07706369,0.215159,0.9929944,-8.43734,-17.60335,-54.50807
40.470338822,157.4436,20.60308,-16.97324,0.1245706,0.2879052,1.204258,-8.43734,-17.60335,-54.50807
40.480197907,136.8212,28.22022,-15.44067,0.1451367,0.2329757,1.300779,-8.43734,-17.60335,-54.50807
40.490056515,125.7024,36.49197,-9.739489,0.1234169,0.183824,1.35099,-8.43734,-17.60335,-54.50807
40.499916077,121.0437,39.58643,-5.69349,0.05342257,0.1156824,1.252697,-8.43734,-17.60335,-54.50807
40.509774685,115.3291,38.15821,-4.160915,-0.06039535,0.03229183,1.084458,-7.625633,-25.98239,-51.86528
40.522098541,88.30863,36.49197,-6.00000499999998,-0.229144,-0.2284674,0.4631409,-7.625633,-25.98239,-51.86528
40.53195715,97.6260199999997,19.29388,14.96562,-0.2586334,-0.06358072,0.3830097,-7.625633,-25.98239,-51.86528
40.541816235,96.2594700000002,8.87982000000001,6.50580599999999,-0.0597098,0.4308884,0.839587,-7.625633,-25.98239,-51.86528
40.551674843,93.7748299999998,19.05585,-5.264369,0.0584311,0.4759956,1.040027,-7.625633,-25.98239,-51.86528
40.561534405,72.0963699999998,28.0417,0.743324399999998,0.01351827,0.4128298,1.170955,-5.335951,-31.86925,-49.70409
40.57139349,53.95853,34.40915,5.708868,-0.03426147,0.3145879,1.168411,-5.335951,-31.86925,-49.70409
40.581252098,67.3134500000002,39.28889,1.724172,-0.000688077,0.16522,1.095271,-5.335951,-31.86925,-49.70409
40.591111183,92.0355799999998,35.77786,-1.708796,-0.004543076,0.1030621,1.009025,-5.335951,-31.86925,-49.70409
40.600969791,113.9625,32.86192,-0.727947499999999,-0.03165367,0.1825641,0.992352,-5.335951,-31.86925,-49.70409
40.610829353,114.0867,30.48156,-0.4214326,-0.1446966,0.2882858,0.9038075,-3.801004,-35.90139,-47.1738
40.620687961,91.6007799999999,24.41165,-0.6666446,-0.226401,0.2442727,0.6496665,-3.801004,-35.90139,-47.1738
40.630547047,87.4390100000002,13.04545,5.647564,-0.1877141,0.4064475,0.7233221,-3.801004,-35.90139,-47.1738
40.640405655,84.0847499999999,13.70004,5.218443,-0.05906181,0.5110071,0.9217178,-3.801004,-35.90139,-47.1738
40.650265217,61.4124400000002,21.4362,11.41005,-0.009189799,0.4293371,0.9552993,-3.801004,-35.90139,-47.1738
40.660123825,51.47389,26.19692,18.52119,-0.06220331,0.4174531,0.8960547,-2.271955,-38.76684,-44.59143
40.66998291,55.75989,24.47116,16.98862,-0.09233972,0.403081,0.8978005,-2.271955,-38.76684,-44.59143
40.679841995,49.23772,24.82821,14.72041,-0.1004822,0.3383406,0.7818832,-2.271955,-38.76684,-44.59143
40.689700603,44.82749,20.12701,17.23383,-0.1652221,0.2750404,0.5350047,-2.271955,-38.76684,-44.59143
40.702024937,59.1762699999997,11.3792,23.30283,-0.1270855,0.2921601,0.727723,-2.271955,-38.76684,-44.59143
40.711883545,57.9339500000001,13.64053,27.47143,-0.1387149,0.309446,0.8229162,-1.866188,-42.42947,-42.8913
40.72174263,55.57354,13.93808,25.44843,-0.2010142,0.3754633,0.7970468,-1.866188,-42.42947,-42.8913
40.731601238,51.90871,8.46325700000001,16.86601,-0.2063686,0.4296992,0.7391185,-1.866188,-42.42947,-42.8913
40.741460323,49.29984,6.0829,12.69741,-0.1334822,0.4657666,0.8418912,-1.866188,-42.42947,-42.8913
40.751318932,30.97564,4.535667,10.3679,-0.1328137,0.4632458,0.816942,-1.866188,-42.42947,-42.8913
40.761178493,20.16747,2.333837,8.528805,-0.08401124,0.4061702,0.7937216,-1.838957,-44.60895,-40.75622
40.771037579,20.04324,2.631382,8.40619900000001,-0.06478743,0.3434519,0.8925918,-1.838957,-44.60895,-40.75622
40.780896187,19.42208,3.940578,6.93492700000001,-0.09346752,0.3267837,0.9273623,-1.838957,-44.60895,-40.75622
40.790755272,20.54017,3.047944,4.176292,-0.1316149,0.3311955,0.8963161,-1.838957,-44.60895,-40.75622
40.80061388,20.16747,1.203167,2.214596,-0.12741,0.3686364,0.8788418,-1.838957,-44.60895,-40.75622
40.810473442,16.31628,0.1915152,0.4981124,-0.1003419,0.3892914,0.8728798,-2.20068,-45.69749,-39.9108
40.82033205,10.29104,-1.236699,0.743324399999998,-0.09964544,0.4084784,0.7973183,-2.20068,-45.69749,-39.9108
40.830191135,7.49582399999998,-3.140985,2.459808,-0.09847917,0.4080524,0.8107157,-2.20068,-45.69749,-39.9108
40.840049744,4.949072,-1.891297,5.402352,-0.08587039,0.4282861,0.8562307,-2.20068,-45.69749,-39.9108
40.849909306,3.209827,-0.820136700000001,10.4905,-0.1078561,0.3921055,0.8624683,-2.20068,-45.69749,-39.9108
40.859767914,5.13542,0.667586600000001,12.69741,-0.1117627,0.3657086,0.8397788,-1.819715,-46.43187,-39.45709
40.87209177,16.19205,-2.069824,8.528805,-0.1032061,0.386439,0.7679519,-1.819715,-46.43187,-39.45709
40.881950855,22.03095,-4.093128,6.32189799999997,-0.07871347,0.4680638,0.8061484,-1.819715,-46.43187,-39.45709
40.891809463,18.11765,-4.390673,5.034534,-0.09427115,0.5513043,0.8506799,-1.819715,-46.43187,-39.45709
40.901669025,9.23507000000002,-5.759378,4.053687,-0.1136091,0.5453376,0.8624058,-1.819715,-46.43187,-39.45709
40.911527634,2.153856,-4.985762,6.26059400000001,-0.08985917,0.4687528,0.8863394,-2.192688,-46.05406,-39.07485
40.921386719,0.1661467,-3.081476,9.50965299999998,-0.0871237,0.4196813,0.9002623,-2.192688,-46.05406,-39.07485
40.931245327,3.706754,-2.90295,8.28359300000002,-0.09185118,0.4107617,0.8686272,-2.192688,-46.05406,-39.07485
40.941104412,11.47124,-4.271655,5.95407899999997,-0.07750092,0.4259338,0.8580084,-2.192688,-46.05406,-39.07485
40.95096302,15.69513,-5.402325,3.624565,-0.06789654,0.5068798,0.8801185,-2.192688,-46.05406,-39.07485
40.960822582,12.27875,-5.64036,0.804627399999999,-0.0878457,0.6006902,0.8989249,-3.304632,-47.13932,-38.60965
40.970681667,1.905392,-6.23544999999998,-2.873553,-0.08842025,0.6386081,0.8901484,-3.304632,-47.13932,-38.60965
40.980540276,-9.46182000000001,-7.30661099999998,-5.08046,-0.09011812,0.6497586,0.8830787,-3.304632,-47.13932,-38.60965
40.990399361,-21.13961,-6.77103000000002,-5.570884,-0.08393814,0.5500828,0.8898166,-3.304632,-47.13932,-38.60965
41.000257969,-27.22697,-5.521342,-5.570884,-0.08541332,0.4634337,0.8847935,-3.304632,-47.13932,-38.60965
41.010117531,-24.43176,-6.05692300000003,-8.08430800000001,-0.09818444,0.4317065,0.8890206,-2.930904,-47.14363,-38.61158
41.019976139,-18.84132,-7.06857499999999,-10.78164,-0.08034585,0.3783577,0.8945457,-2.930904,-47.14363,-38.61158
41.029835224,-11.69799,-6.29495900000002,-9.43297400000002,-0.07094257,0.3268542,0.8930187,-2.930904,-47.14363,-38.61158
41.039693832,-0.4550124,-5.223798,-9.06515500000003,-0.05028283,0.3747796,0.9075046,-2.930904,-47.14363,-38.61158
41.052017689,5.75657900000002,-3.855092,-7.28736799999999,-0.04882222,0.498883,0.9085312,-2.930904,-47.14363,-38.61158
41.061877251,4.514261,-3.140985,-8.39082200000002,-0.05884436,0.576086,0.8872824,-2.932913,-46.77548,-38.61535
41.071735859,-1.448867,-3.260003,-8.14561100000001,-0.06465451,0.5980214,0.9110311,-2.932913,-46.77548,-38.61535
41.081594944,-14.0584,-2.783932,-10.35252,-0.0742019,0.6402075,0.8937929,-2.932913,-46.77548,-38.61535
41.091453552,-24.12118,-4.807235,-16.60542,-0.07446402,0.6688029,0.8638483,-2.932913,-46.77548,-38.61535
41.101313114,-33.68703,-8.25875400000001,-25.73957,-0.067605,0.6810722,0.8753549,-2.932913,-46.77548,-38.61535
41.111171246,-46.35867,-11.35322,-31.25684,-0.07427379,0.6704571,0.915134,-2.941362,-46.41982,-39.51531
41.121030808,-61.7013099999999,-12.5434,-34.99632,-0.07755256,0.637404,0.9326321,-2.941362,-46.41982,-39.51531
41.130889893,-76.3606599999998,-9.21089600000002,-36.46759,-0.1033969,0.4087603,0.881234,-2.941362,-46.41982,-39.51531
41.140748501,-78.34837,-8.43728100000002,-26.78172,-0.1300948,0.1560026,0.8895447,-2.941362,-46.41982,-39.51531
41.150608063,-61.2043800000002,-4.5692,-20.09969,-0.1211014,0.07912951,0.8715165,-2.941362,-46.41982,-39.51531
41.160466671,-39.15322,-4.50969,-15.74718,-0.1056069,0.07482862,0.855925,-2.581602,-46.07914,-41.18538
41.170325756,-21.885,-6.71152099999998,-13.66288,-0.1235499,0.237811,0.7597995,-2.581602,-46.07914,-41.18538
41.180184364,-8.654313,-12.36487,-17.83148,-0.1671457,0.4783528,0.6445678,-2.581602,-46.07914,-41.18538
41.190043449,-8.34373400000002,-20.75563,-25.18784,-0.1495534,0.6697007,0.6320352,-2.581602,-46.07914,-41.18538
41.199902058,-23.56213,-26.17094,-27.63996,-0.1390178,0.7968882,0.6554808,-2.581602,-46.07914,-41.18538
41.20976162,-55.55183,-30.21755,-25.86217,-0.1395819,0.817015,0.7035787,-1.860165,-43.53391,-42.87999
41.222085476,-101.6418,-27.30161,-16.91194,-0.07071446,0.7059486,1.027995,-1.860165,-43.53391,-42.87999
41.231944084,-130.5257,-14.44768,-10.10731,-0.04570574,0.5411357,1.13838,-1.860165,-43.53391,-42.87999
41.241803169,-158.7264,-9.56794999999997,-3.609189,-0.1124335,0.2395245,0.9307297,-1.860165,-43.53391,-42.87999
41.251661778,-169.8451,-13.9121,2.09199,-0.219041,0.0874053,0.5849834,-1.860165,-43.53391,-42.87999
41.261521339,-160.4035,-30.03902,-0.4827355,-0.3138596,0.09491885,0.3472777,-2.249075,-43.55899,-44.99051
41.271379948,-157.5462,-48.60581,-2.076613,-0.2927926,0.1788189,0.3515191,-2.249075,-43.55899,-44.99051
41.281239033,-174.1311,-61.8763000000002,10.18399,-0.2800364,0.3526459,0.220066,-2.249075,-43.55899,-44.99051
41.291097641,-249.4777,-67.6486699999999,27.53273,-0.2362138,0.4039408,0.4292845,-2.249075,-43.55899,-44.99051
41.300956726,-355.5096,-77.46764,59.34899,-0.117404,0.3193181,0.4211266,-2.249075,-43.55899,-44.99051
41.310816288,-399.2392,-72.70693,75.9620999999997,0.1746043,0.06868398,1.021037,-2.317255,-36.68435,-49.28644
41.320674896,-378.9273,-42.89295,69.1574600000001,0.3937904,-0.2479687,1.317136,-2.317255,-36.68435,-49.28644
41.330533981,-328.8618,-24.62371,56.77427,0.2199919,-0.663457,1.229851,-2.317255,-36.68435,-49.28644
41.34039259,-245.0054,-26.46849,48.37576,-0.0743059,-1.108779,0.9978754,-2.317255,-36.68435,-49.28644
41.350252152,-148.2909,-31.8838,38.87379,-0.1467929,-1.281166,0.8762162,-2.317255,-36.68435,-49.28644
41.36011076,-75.3046900000001,-35.81139,47.08839,0.1184624,-1.079723,1.024125,-6.911808,-24.94003,-55.72128
41.369969845,-31.20239,-32.24085,47.211,0.1314529,-0.5531645,1.004903,-6.911808,-24.94003,-55.72128
41.379828453,-21.63654,-33.193,32.55958,0.05846873,-0.284441,0.947832,-6.911808,-24.94003,-55.72128
41.389687538,-19.64883,-32.89545,22.19937,0.04115738,-0.2769178,1.048295,-6.911808,-24.94003,-55.72128
41.402011871,-18.77921,-31.64577,18.27598,0.06561016,-0.3431019,0.9894047,-6.911808,-24.94003,-55.72128
41.41187048,-16.60515,-31.16969,18.15338,0.04079464,-0.345373,0.9614665,-9.226086,-12.8382,-56.66568
41.421729565,-13.6857,-30.45559,18.09207,0.03949701,-0.3290082,0.9165784,-9.226086,-12.8382,-56.66568
41.431588173,-12.00857,-26.82554,17.23383,0.09440409,-0.1739917,0.9894631,-9.226086,-12.8382,-56.66568
41.441447258,-16.29457,-25.45683,11.90047,0.1335325,-0.04733149,1.06425,-9.226086,-12.8382,-56.66568
41.451305866,-16.85361,-23.67157,6.19929100000001,0.1631898,0.004144351,1.095889,-9.226086,-12.8382,-56.66568
41.461165428,-17.78535,-21.82679,3.072838,0.1804236,-0.04387127,1.097634,-11.09276,-12.06874,-55.83138
41.471024513,-13.99628,-19.08938,1.662869,0.1293299,-0.07451895,1.090916,-11.09276,-12.06874,-55.83138
41.480883122,-8.09526999999998,-17.48264,-0.1762206,0.0830683,-0.113305,1.108499,-11.09276,-12.06874,-55.83138
41.490742207,-2.629069,-16.29246,-1.708796,0.08994789,-0.1686231,1.133811,-11.09276,-12.06874,-55.83138
41.500600815,6.06715799999999,-13.55505,-2.996159,0.1088717,-0.09149349,1.154319,-11.09276,-12.06874,-55.83138
41.510460377,7.99275200000001,-11.11518,-6.73564099999998,0.1108118,-0.06755781,1.17414,-12.1617,-10.21578,-55.84476
41.520318985,6.99889700000002,-9.68696799999999,-8.94255000000001,0.08542131,-0.1433096,1.147027,-12.1617,-10.21578,-55.84476
41.53017807,6.874665,-8.55629800000001,-9.06515500000003,0.09745218,-0.2507505,1.14547,-12.1617,-10.21578,-55.84476
41.540036678,6.439854,-7.66366400000002,-5.81609599999999,0.09139697,-0.3093073,1.11631,-12.1617,-10.21578,-55.84476
41.54989624,4.576376,-6.47348499999999,0.1915974,0.1079134,-0.2974757,1.118091,-12.1617,-10.21578,-55.84476
41.559755325,2.899247,-4.866744,-1.034463,0.1309622,-0.2487035,1.093256,-12.52497,-10.93528,-54.93909
41.572078705,3.334059,-3.081476,-4.712642,0.110399,-0.2762311,1.067919,-12.52497,-10.93528,-54.93909
41.58193779,7.43370899999999,-2.188842,-6.98085300000002,0.1254781,-0.2878386,1.051314,-12.52497,-10.93528,-54.93909
41.591796398,9.483534,-0.641609900000002,-7.961701,0.1327219,-0.2415541,1.049205,-12.52497,-10.93528,-54.93909
41.60165596,6.37773799999999,0.310533,-8.39082200000002,0.13366,-0.2167925,1.03215,-12.52497,-10.93528,-54.93909
41.611514568,3.085595,1.203167,-6.73564099999998,0.1203472,-0.2408625,1.003384,-12.90192,-10.9372,-55.38526
41.621373653,2.588667,0.9056224,-4.283521,0.09763397,-0.2543039,0.9762801,-12.90192,-10.9372,-55.38526
41.631232738,3.520406,1.143658,-2.873553,0.08697597,-0.2608517,0.9423536,-12.90192,-10.9372,-55.38526
41.641091347,5.383883,1.262676,-2.321826,0.0799957,-0.2541147,0.9386764,-12.90192,-10.9372,-55.38526
41.650950909,6.00504300000001,0.965131299999997,-3.180068,0.07665084,-0.2151994,0.942886,-12.90192,-10.9372,-55.38526
41.660809517,5.632347,0.608077699999999,-4.835248,0.07744199,-0.1922975,0.9492976,-12.89992,-11.30535,-55.38149
41.670668602,3.76887,0.310533,-5.325672,0.07507016,-0.2040154,0.9444406,-12.89992,-11.30535,-55.38149
41.68052721,1.967508,-0.04652058,-4.957854,0.09086733,-0.193095,0.9644339,-12.89992,-11.30535,-55.38149
41.690386295,-0.579244300000001,-0.04652058,-6.429126,0.1043938,-0.1573818,0.9832313,-12.89992,-11.30535,-55.38149
41.700244903,-2.753301,-0.2845563,-7.77779200000001,0.100895,-0.1983093,0.9776646,-12.89992,-11.30535,-55.38149
41.710104465,-1.821563,-0.4035742,-8.08430800000001,0.08160502,-0.2374616,0.9637123,-12.52418,-11.67781,-55.37965
41.719963551,0.3524944,-0.3440652,-7.71648900000002,0.09456529,-0.2265391,0.9909341,-12.52418,-11.67781,-55.37965
41.729822159,2.464436,0.4890598,-9.37167100000003,0.1103692,-0.203058,0.9865943,-12.52418,-11.67781,-55.37965
41.739681721,3.893102,1.084149,-10.90425,0.1179102,-0.2097703,0.995535,-12.52418,-11.67781,-55.37965
41.752004623,7.55793999999999,1.679239,-13.23376,0.1215436,-0.2559266,1.006115,-12.52418,-11.67781,-55.37965
41.761864185,13.2726,2.69089,-15.31806,0.1264918,-0.2864904,1.019204,-12.89268,-12.03541,-54.92585
41.771722794,22.09306,3.702542,-18.138,0.1377945,-0.2810056,1.027715,-12.89268,-12.03541,-54.92585
41.781581879,31.34834,4.41665,-22.55181,0.1394058,-0.2804634,1.038718,-12.89268,-12.03541,-54.92585
41.791441441,45.13807,5.011739,-23.90048,0.1281622,-0.2986252,1.023391,-12.89268,-12.03541,-54.92585
41.801300049,48.98926,8.46325700000001,-21.93878,0.1365603,-0.3153458,1.086384,-12.89268,-12.03541,-54.92585
41.811159134,56.50528,9.47490899999998,-15.31806,0.1274984,-0.2705801,1.107018,-12.51895,-12.03973,-54.92778
41.821017742,62.7168700000002,9.772454,-14.092,0.1069192,-0.2137842,1.118812,-12.51895,-12.03973,-54.92778
41.830876827,67.0028800000001,10.96263,-15.62458,0.1198659,-0.1901717,1.156204,-12.51895,-12.03973,-54.92778
41.840735435,77.8731600000001,12.86692,-18.07669,0.1061283,-0.1718871,1.133553,-12.51895,-12.03973,-54.92778
41.850594997,96.2594700000002,14.7712,-23.65527,0.09739419,-0.1690154,1.141369,-12.51895,-12.03973,-54.92778
41.860453606,117.1925,16.61598,-28.92733,0.1063438,-0.1757314,1.145976,-12.13117,-14.62107,-54.90332
41.870312691,139.4921,15.78286,-30.58251,0.09677254,-0.1364814,1.124401,-12.13117,-14.62107,-54.90332
41.880171776,160.2389,20.00799,-33.34114,0.08858318,-0.09835451,1.059668,-12.13117,-14.62107,-54.90332
41.890030384,169.6805,22.86442,-33.58635,0.09700033,-0.145828,1.097005,-12.13117,-14.62107,-54.90332
41.899889946,184.2156,26.25643,-30.3986,0.09148667,-0.1351725,1.096694,-12.13117,-14.62107,-54.90332
41.909748554,188.4395,32.32634,-33.46375,0.0517382,-0.1823459,0.9387264,-11.35443,-18.29337,-53.5892
41.922072411,207.6333,32.62389,-25.55566,0.003624838,-0.02531015,0.8851502,-11.35443,-18.29337,-53.5892
41.931931496,213.2237,34.88522,-24.75872,0.07130571,0.02358877,1.048005,-11.35443,-18.29337,-53.5892
41.941790104,213.7828,40.77661,-19.60927,0.1034664,0.07838508,1.050885,-11.35443,-18.29337,-53.5892
41.951649666,208.2545,42.85942,-11.88509,0.0377341,0.1695697,0.8671408,-11.35443,-18.29337,-53.5892
41.961508274,201.4217,39.88398,-9.49427599999999,0.009286046,0.318424,0.9210352,-10.22576,-26.6653,-50.17986
41.971367359,192.0422,38.81281,-9.61688199999998,0.02910931,0.408857,0.9833326,-10.22576,-26.6653,-50.17986
41.981225967,170.6743,42.62139,-4.590036,0.07715965,0.3873952,1.115684,-10.22576,-26.6653,-50.17986
41.991085529,148.9338,51.30969,-2.750947,0.04338562,0.2865159,1.025704,-10.22576,-26.6653,-50.17986
42.000944138,136.0137,49.04835,1.233748,-0.06030741,0.1671804,0.8507876,-10.22576,-26.6653,-50.17986
42.010803223,137.3802,41.3717,0.8659304,-0.08158988,0.2143643,0.7666708,-7.153355,-36.21287,-45.87237
42.020662308,138.9952,33.93308,-9.24906400000001,-0.08658265,0.3045617,0.6951441,-7.153355,-36.21287,-45.87237
42.030520916,136.2,28.7558,-7.226065,-0.03315056,0.4339573,0.816712,-7.153355,-36.21287,-45.87237
42.040380478,121.4164,30.30304,-2.750947,-0.007416466,0.5667117,0.9909357,-7.153355,-36.21287,-45.87237
42.050239086,95.3898499999998,34.58768,3.195444,-0.002291467,0.5920742,0.9944312,-7.153355,-36.21287,-45.87237
42.060098171,73.0902300000003,36.13491,7.30274499999998,-0.0219554,0.6024791,0.9607761,-5.588293,-42.3569,-40.75953
42.069956779,64.4561200000002,37.3846,6.44450299999999,-0.01633174,0.5907434,0.9323242,-5.588293,-42.3569,-40.75953
42.079815865,56.44317,35.59933,4.728019,-0.07454843,0.5912861,0.8253385,-5.588293,-42.3569,-40.75953
42.089674473,42.65343,29.94598,-0.6053416,-0.1468627,0.4932418,0.6741148,-5.588293,-42.3569,-40.75953
42.101998806,34.14355,18.63928,-1.524887,-0.1156388,0.4147553,0.5627915,-3.677608,-46.76151,-38.22741
42.111857891,37.31147,14.7117,-5.141763,-0.06221455,0.4619088,0.6831863,-3.677608,-46.76151,-38.22741
42.121716499,27.86984,16.02089,-3.793097,-0.06830268,0.4242012,0.6340765,-3.677608,-46.76151,-38.22741
42.131575584,28.61523,13.70004,3.379353,-0.08312747,0.467263,0.732887,-3.677608,-46.76151,-38.22741
42.141434193,25.69579,15.54482,4.482807,-0.09139457,0.4945441,0.7605495,-3.677608,-46.76151,-38.22741
42.151293755,20.72651,14.53317,6.01538200000003,-0.1245314,0.4752451,0.7531917,-4.032099,-48.58011,-36.92634
42.16115284,17.62072,13.81906,8.95792600000003,-0.1374267,0.4177417,0.7615158,-4.032099,-48.58011,-36.92634
42.171011448,15.81936,11.4387,9.38704699999999,-0.1684138,0.3989509,0.625227,-4.032099,-48.58011,-36.92634
42.18087101,19.17362,4.535667,6.26059400000001,-0.1446075,0.406575,0.6556208,-4.032099,-48.58011,-36.92634
42.190729618,17.99341,0.965131299999997,3.747171,-0.1082522,0.3981518,0.6593444,-4.032099,-48.58011,-36.92634
42.200588703,17.99341,-1.653262,3.379353,-0.06390208,0.3986339,0.6831555,-4.032099,-48.58011,-36.92634
42.210447311,16.93744,-3.43853,2.950232,-0.04294476,0.419927,0.7319148,-2.5312,-48.58579,-36.10189
42.220306397,17.06167,-4.747726,5.89277599999998,-0.03426948,0.452326,0.7866935,-2.5312,-48.58579,-36.10189
42.230165958,15.44666,-3.319512,8.528805,-0.03126253,0.505101,0.8383702,-2.5312,-48.58579,-36.10189
42.240024567,11.84394,-1.474735,8.77401600000001,-0.07552516,0.5022027,0.8188503,-2.5312,-48.58579,-36.10189
42.249883652,8.61391200000001,-2.783932,8.467502,-0.1316462,0.5306312,0.7465726,-2.5312,-48.58579,-36.10189
42.25974226,6.31562199999998,-5.10478,6.68971499999997,-0.1304845,0.5991266,0.7126317,-3.264643,-50.03817,-35.25076
42.272066116,0.787305800000002,-7.54464599999999,5.279747,-0.08698002,0.6098906,0.7552304,-3.264643,-50.03817,-35.25076
42.281925678,-1.573099,-6.35446700000003,4.421504,-0.06159623,0.5445954,0.8012792,-3.264643,-50.03817,-35.25076
42.291784287,0.600958099999998,-5.87839600000002,3.440656,-0.04188956,0.493815,0.8384265,-3.264643,-50.03817,-35.25076
42.301643372,6.56408599999997,-5.223798,2.643717,-0.0226487,0.4070432,0.8815063,-3.638372,-50.03385,-35.24883
42.31150198,13.70742,-3.498039,3.501959,-0.03769548,0.4533241,0.9309897,-3.638372,-50.03385,-35.24883
42.321361065,14.8255,-3.498039,1.662869,-0.06835131,0.5726608,0.9046402,-3.638372,-50.03385,-35.24883
42.331219673,10.29104,-4.331164,-0.2375236,-0.07108721,0.6860428,0.9113864,-3.638372,-50.03385,-35.24883
42.341079235,-0.951939799999999,-3.200494,-0.727947499999999,-0.09871789,0.7280734,0.895363,-3.638372,-50.03385,-35.24883
42.350937843,-13.43724,-3.021967,-1.463584,-0.1069943,0.7565462,0.8516349,-3.631138,-50.76391,-34.79319
42.360796928,-24.18329,-3.260003,-0.4214326,-0.08503313,0.6564218,0.8313089,-3.631138,-50.76391,-34.79319
42.37065649,-27.53755,-2.367369,0.2529004,-0.07631706,0.5638465,0.7791291,-3.631138,-50.76391,-34.79319
42.380515099,-23.25155,-3.498039,-1.279675,-0.07714067,0.5025005,0.7723935,-3.631138,-50.76391,-34.79319
42.390374184,-15.98399,-3.914601,-2.873553,-0.04962748,0.4485011,0.8410296,-3.631138,-50.76391,-34.79319
42.400232792,-6.29390900000001,-2.188842,-4.406127,-0.05085469,0.4442978,0.8908483,-3.63917,-49.29132,-34.80828
42.410091877,-0.2686647,-2.069824,-8.14561100000001,-0.05281911,0.4817366,0.8873587,-3.63917,-49.29132,-34.80828
42.419950485,3.271943,-2.486387,-9.98470000000001,-0.02592205,0.5272423,0.8907138,-3.63917,-49.29132,-34.80828
42.429810047,1.470581,-1.891297,-8.14561100000001,-0.02125229,0.5876274,0.891636,-3.63917,-49.29132,-34.80828
42.442133904,-9.83451600000002,-0.939154599999998,-6.61303499999999,-0.05426857,0.6382619,0.84701,-3.63917,-49.29132,-34.80828
42.451992512,-18.46863,-1.117681,-6.00000499999998,-0.0717599,0.6881569,0.8280331,-4.014864,-50.03488,-35.63098
42.461851597,-27.97236,-1.415226,-8.206914,-0.09874515,0.6918017,0.8255733,-4.014864,-50.03488,-35.63098
42.471710205,-39.77439,-3.379021,-8.32951900000003,-0.1198181,0.5901887,0.769429,-4.014864,-50.03488,-35.63098
42.481569767,-40.83036,-4.688217,-9.55557899999999,-0.09226593,0.5217714,0.7564789,-4.014864,-50.03488,-35.63098
42.491428375,-36.54436,-5.10478,-13.41767,-0.07205325,0.4859999,0.7721817,-4.014864,-50.03488,-35.63098
42.50128746,-31.26451,-5.521342,-15.80848,-0.07364342,0.4058,0.8002795,-2.898907,-49.68592,-36.08865
42.511146546,-25.61196,-4.390673,-12.13031,-0.0475387,0.2799525,0.9176868,-2.898907,-49.68592,-36.08865
42.521005154,-18.28228,-0.2250474,-9.31036799999998,-0.04044515,0.2532305,0.912089,-2.898907,-49.68592,-36.08865
42.530864716,-8.15738599999999,-0.582100999999999,-8.88124700000001,-0.07600085,0.3484632,0.828102,-2.898907,-49.68592,-36.08865
42.540723324,-0.765591999999998,-3.379021,-11.02685,-0.06288567,0.4472582,0.8004761,-2.898907,-49.68592,-36.08865
42.550582409,-1.883678,-6.05692300000003,-8.39082200000002,-0.07719079,0.5814438,0.8022916,-3.656361,-48.95258,-36.9245
42.560441017,-15.85976,-9.62745900000001,-8.14561100000001,-0.1247803,0.7349409,0.7122591,-3.656361,-48.95258,-36.9245
42.570300579,-38.34572,-17.12559,-11.21076,-0.1407536,0.8770858,0.6346184,-3.656361,-48.95258,-36.9245
42.580159664,-65.7388400000001,-22.06483,-14.82764,-0.1037427,0.9227724,0.66227,-3.656361,-48.95258,-36.9245
42.590018272,-97.4800700000001,-22.36237,-15.50197,-0.0919724,0.8221447,0.791116,-3.656361,-48.95258,-36.9245
42.599877357,-128.3517,-18.01822,-10.59773,-0.1149952,0.5510714,0.8375556,-2.922119,-48.24273,-38.21619
42.609735966,-135.5571,-13.67407,-3.363976,-0.1180956,0.142863,0.86099,-2.922119,-48.24273,-38.21619
42.622059822,-96.2998699999999,-9.32991399999999,0.927233400000001,-0.06894415,-0.1232919,0.7511817,-2.922119,-48.24273,-38.21619
42.631919384,-59.2787799999998,-18.61331,-4.957854,-0.1480126,0.02263855,0.5345461,-2.922119,-48.24273,-38.21619
42.641777992,-40.08496,-34.02612,-11.76249,-0.1660356,0.3440015,0.5001376,-2.922119,-48.24273,-38.21619
42.651637077,-52.88084,-49.02237,-12.92724,-0.1845604,0.6451213,0.5187564,-3.337049,-45.71394,-42.01746
42.661495685,-118.1647,-59.8530000000002,-7.53257999999997,-0.2217686,0.8390453,0.5439249,-3.337049,-45.71394,-42.01746
42.671355247,-202.3938,-72.5879100000002,5.95407899999997,-0.2080782,0.8953934,0.4852638,-3.337049,-45.71394,-42.01746
42.681213856,-300.537,-77.76519,24.46758,-0.1481696,0.8022696,0.8142716,-3.337049,-45.71394,-42.01746
42.691072941,-373.958,-62.8879500000001,34.09216,0.1286572,0.5220152,1.207613,-3.337049,-45.71394,-42.01746
42.700932026,-417.1907,-49.14139,44.88148,0.2252735,0.05291179,0.848149,-5.250914,-42.4316,-45.81855
42.710790634,-417.874,-44.85675,52.97348,0.09942847,-0.431424,0.8444175,-5.250914,-42.4316,-45.81855
42.720650196,-380.7908,-39.79849,52.91217,-0.01117472,-0.8788513,0.9145769,-5.250914,-42.4316,-45.81855
42.730508804,-312.7117,-38.72733,49.234,0.03102215,-1.244019,0.8893298,-5.250914,-42.4316,-45.81855
42.740367889,-211.8976,-33.9071,50.52136,0.08945772,-1.220712,0.9974719,-5.250914,-42.4316,-45.81855
42.750226498,-130.153,-30.51509,41.142,0.1821954,-0.9836987,1.04655,-8.739168,-29.67497,-53.55016
42.76008606,-74.4350700000003,-30.51509,34.33737,0.1219888,-0.8004509,1.133772,-8.739168,-29.67497,-53.55016
42.769945145,-49.65082,-28.72983,37.77034,0.02692395,-0.6798741,0.94159,-8.739168,-29.67497,-53.55016
42.779803753,-36.35801,-29.56295,46.72057,0.09278069,-0.425381,1.04391,-8.739168,-29.67497,-53.55016
42.792127609,-37.97302,-28.72983,43.83933,0.1534828,-0.07270715,0.9981015,-8.739168,-29.67497,-53.55016
42.801986217,-51.76276,-23.85009,41.63242,0.1495393,-0.01700983,0.9372901,-11.06746,-16.11213,-55.3418
42.811845303,-42.07267,-27.36112,37.15731,0.1207371,-0.02332498,1.00809,-11.06746,-16.11213,-55.3418
42.821704864,-21.01538,-26.28996,29.37182,0.1162033,0.04370359,0.9857184,-11.06746,-16.11213,-55.3418
42.831563473,-6.16967699999999,-24.38568,19.13422,0.1790632,0.2062837,1.110307,-11.06746,-16.11213,-55.3418
42.841422558,6.19139099999999,-18.49429,5.83147299999998,0.2344208,0.3964458,1.211276,-11.06746,-16.11213,-55.3418
42.851281166,6.874665,-13.13849,-8.32951900000003,0.2399701,0.4487817,1.269622,-12.50536,-14.61765,-54.96541
42.861140728,0.4146104,-9.21089600000002,-13.72418,0.2182529,0.242339,1.289274,-12.50536,-14.61765,-54.96541
42.870999336,-2.815417,-7.66366400000002,-10.59773,0.1915958,0.007522078,1.280484,-12.50536,-14.61765,-54.96541
42.880858421,-0.827707900000002,-5.580852,-8.39082200000002,0.175485,-0.1676147,1.200647,-12.50536,-14.61765,-54.96541
42.890717506,2.215972,-4.688217,-4.957854,0.1194942,-0.3148582,1.126884,-12.50536,-14.61765,-54.96541
42.900576115,9.23507000000002,-3.676566,-3.302674,0.09588612,-0.3676957,1.107128,-12.88511,-13.50889,-54.97478
42.910435677,15.1982,-2.010315,-5.325672,0.1364786,-0.3990737,1.078491,-12.88511,-13.50889,-54.97478
42.920294285,15.94359,0.667586600000001,-8.14561100000001,0.1249906,-0.414729,1.083315,-12.88511,-13.50889,-54.97478
42.93015337,9.60776600000003,3.524015,-6.36782300000001,0.1239767,-0.4248653,1.107683,-12.88511,-13.50889,-54.97478
42.940011978,0.5388422,5.011739,0.8659304,0.1203783,-0.3640521,1.11256,-12.88511,-13.50889,-54.97478
42.94987154,-6.85295199999998,6.02339100000001,2.214596,0.1466952,-0.1819256,1.085928,-14.00429,-13.86409,-54.96523
42.959730625,-12.31915,6.737498,1.295051,0.1298127,-0.1091805,1.059948,-14.00429,-13.86409,-54.96523
42.972054005,-13.43724,6.38044500000002,1.172445,0.125513,-0.1024901,1.037543,-14.00429,-13.86409,-54.96523
42.98191309,-10.02086,6.67798900000002,-1.034463,0.1254994,-0.09921161,1.003548,-14.00429,-13.86409,-54.96523
42.991771698,-6.41814000000001,6.79700699999999,-2.873553,0.09796733,-0.1341576,0.9629133,-14.00429,-13.86409,-54.96523
43.001630783,-2.132142,6.38044500000002,-1.402281,0.0864514,-0.1727674,0.9455004,-13.25482,-14.24087,-54.96532
43.011490345,2.899247,6.14240899999998,-2.260523,0.07667956,-0.1407629,0.9387218,-13.25482,-14.24087,-54.96532
43.021348953,3.271943,5.90437299999999,-1.954008,0.05905604,-0.1169994,0.9588208,-13.25482,-14.24087,-54.96532
43.031208038,-1.076172,5.78535500000003,-2.260523,0.06543161,-0.1140091,0.9625887,-13.25482,-14.24087,-54.96532
43.041066647,-7.47411100000001,5.368793,-1.524887,0.05288488,-0.1449661,0.9121903,-13.25482,-14.24087,-54.96532
43.050926209,-10.89049,4.297632,-1.340978,0.05309908,-0.1888454,0.8892946,-12.88511,-13.50889,-54.97478
43.060784817,-10.70414,3.404998,-2.505734,0.05750056,-0.210777,0.8698788,-12.88511,-13.50889,-54.97478
43.070643902,-8.21950099999998,1.857765,-4.283521,0.05491787,-0.2409725,0.8691816,-12.88511,-13.50889,-54.97478
43.080502987,-4.554663,0.727095499999998,-4.038309,0.0622986,-0.2242956,0.8869475,-12.88511,-13.50889,-54.97478
43.090361595,-1.324635,-0.701118900000002,-5.93870199999998,0.08541271,-0.204528,0.9131408,-12.88511,-13.50889,-54.97478
43.100221157,0.787305800000002,-1.058172,-5.93870199999998,0.09767552,-0.1930459,0.9614621,-12.88632,-13.88328,-55.41911
43.110079765,4.390029,-1.415226,-6.18391400000002,0.1160242,-0.1981851,0.975054,-12.88632,-13.88328,-55.41911
43.11993885,8.61391200000001,-1.296208,-6.55173199999999,0.125128,-0.2013045,1.030006,-12.88632,-13.88328,-55.41911
43.129797459,19.85689,-2.010315,-9.12645800000002,0.1085758,-0.1942407,1.006341,-12.88632,-13.88328,-55.41911
43.142121315,35.01318,-1.296208,-13.54027,0.1117983,-0.1887622,1.032219,-12.88632,-13.88328,-55.41911
43.151980877,45.75923,-0.5225921,-14.27591,0.1076303,-0.1804344,1.056787,-13.63257,-13.50026,-54.97092
43.161839485,52.40563,-0.04652058,-15.25676,0.1119159,-0.1195357,1.065866,-13.63257,-13.50026,-54.97092
43.17169857,57.8097200000002,1.322185,-20.65142,0.1089715,-0.05281239,1.088035,-13.63257,-13.50026,-54.97092
43.181557179,62.6547599999999,1.322185,-27.27214,0.1024476,-0.1493142,1.062874,-13.63257,-13.50026,-54.97092
43.191416264,74.3325499999999,1.441203,-26.72042,0.08125918,-0.2324076,1.014555,-13.63257,-13.50026,-54.97092
43.201275826,84.2089799999997,2.214819,-25.00393,0.1057869,-0.2552008,1.106978,-13.2616,-13.50992,-55.35693
43.211134434,91.4765399999998,5.487811,-20.2836,0.1552999,-0.2593452,1.18243,-13.2616,-13.50992,-55.35693
43.220993519,100.6076,10.84361,-15.37936,0.1553909,-0.2158671,1.227361,-13.2616,-13.50992,-55.35693
43.230852127,112.596,12.62888,-15.31806,0.140186,-0.09563871,1.402063,-13.2616,-13.50992,-55.35693
43.240711689,116.5093,22.15031,-18.50582,0.1498421,-0.1467696,1.240003,-13.2616,-13.50992,-55.35693
43.250570297,135.3304,25.72085,-17.58627,0.1812359,-0.07993383,1.340752,-12.85102,-18.65138,-54.08981
43.260429382,150.0518,31.31469,-19.30276,0.1463883,0.01577119,1.380871,-12.85102,-18.65138,-54.08981
43.270288467,152.6607,31.31469,-24.02309,0.1082674,-0.01381988,1.106584,-12.85102,-18.65138,-54.08981
43.280147076,152.4123,37.26558,-21.20315,-0.02513206,-0.1026756,0.8250073,-12.85102,-18.65138,-54.08981
43.290006638,142.5979,25.4233,-15.13415,-0.06760177,-0.1652194,0.597465,-12.85102,-18.65138,-54.08981
43.299865246,148.6232,21.4362,-5.87739899999999,-0.1162565,-0.02702585,0.4517313,-11.37422,-23.35684,-51.48828
43.309724331,142.0389,12.86692,-4.222218,0.04140485,0.194923,0.8716152,-11.37422,-23.35684,-51.48828
43.322048187,131.7277,28.16072,0.620718400000002,0.1825832,0.3570682,1.214078,-11.37422,-23.35684,-51.48828
43.331906796,105.5769,35.77786,4.482807,0.1596352,0.3757001,1.30561,-11.37422,-23.35684,-51.48828
43.341766358,80.0472200000003,40.83612,8.77401600000001,0.1041325,0.3533115,1.305733,-11.37422,-23.35684,-51.48828
43.351624966,69.2390399999997,42.14531,8.83531999999998,0.05951397,0.2617248,1.253843,-9.820742,-30.70143,-48.86004
43.361484051,62.4684099999999,40.89563,3.379353,-0.01300748,0.05697017,1.065302,-9.820742,-30.70143,-48.86004
43.371343136,62.9653400000002,38.69379,3.134141,-0.1217246,-0.1435969,0.5222262,-9.820742,-30.70143,-48.86004
43.381201744,81.0410699999999,20.12701,1.785475,-0.09931524,-0.07529034,0.6470751,-9.820742,-30.70143,-48.86004
43.391061306,92.6567500000002,18.87732,-0.1762206,0.03806347,-0.005474532,0.7731733,-9.820742,-30.70143,-48.86004
43.400919914,93.6505999999999,21.97178,6.13798800000002,0.07517182,0.1227502,0.8805881,-8.289768,-35.1133,-47.15816
43.410778999,94.0854100000001,27.26808,12.14568,0.06176909,0.235005,1.001047,-8.289768,-35.1133,-47.15816
43.420637608,86.5072700000003,32.32634,16.00777,0.02220585,0.3383934,1.025006,-8.289768,-35.1133,-47.15816
43.43049717,71.9721500000002,32.6834,15.94647,-0.002481127,0.4020171,0.92095,-8.289768,-35.1133,-47.15816
43.440356255,68.4936499999998,30.95763,12.32959,-0.01394729,0.4860491,0.9074466,-8.289768,-35.1133,-47.15816
43.450214863,65.7605500000002,28.45826,6.01538200000003,-0.0266173,0.528644,0.8768387,-7.135788,-38.41106,-45.08158
43.460073948,55.82201,27.14906,3.256747,-0.04366028,0.479339,0.8752279,-7.135788,-38.41106,-45.08158
43.469932556,41.65958,23.63803,2.70502,-0.06768126,0.3791085,0.6758566,-7.135788,-38.41106,-45.08158
43.479792118,42.71555,14.35464,1.846778,-0.08967378,0.4154013,0.6736012,-7.135788,-38.41106,-45.08158
43.492115975,46.50462,14.65219,0.0689914200000002,-0.01666214,0.4669099,0.8709046,-7.135788,-38.41106,-45.08158
43.501974583,34.95106,17.56812,1.662869,-0.04969595,0.4207878,0.8475054,-6.35696,-41.27323,-42.87944
43.511833668,27.49715,17.56812,1.049839,-0.08237387,0.3682852,0.8087129,-6.35696,-41.27323,-42.87944
43.521692276,28.55312,14.47366,-1.279675,-0.08819032,0.3555546,0.8015004,-6.35696,-41.27323,-42.87944
43.531551838,31.09987,13.22397,-2.137917,-0.07829887,0.3910947,0.9123544,-6.35696,-41.27323,-42.87944
43.541410923,22.27941,14.59268,-2.996159,-0.07617792,0.4084646,0.8679053,-6.35696,-41.27323,-42.87944
43.551269531,16.87533,13.16446,-1.770099,-0.06345734,0.4027191,0.8628834,-5.219749,-43.11533,-42.0342
43.561128616,10.04258,10.96263,0.0689914200000002,-0.05664703,0.3469757,0.7751017,-5.219749,-43.11533,-42.0342
43.570987224,12.4651,8.16571199999999,1.724172,-0.08659791,0.3515623,0.7712545,-5.219749,-43.11533,-42.0342
43.580846786,13.14837,7.21356999999998,4.114989,-0.06033976,0.3554391,0.8346465,-5.219749,-43.11533,-42.0342
43.590705395,11.22278,9.05834700000001,5.647564,-0.09434269,0.3749513,0.7979181,-5.219749,-43.11533,-42.0342
43.60056448,6.25350600000003,4.535667,3.563262,-0.1192613,0.3000402,0.7343869,-4.839245,-43.8506,-41.6445
43.610424042,13.02414,1.61973,0.007688423,-0.1042198,0.3366212,0.7215428,-4.839245,-43.8506,-41.6445
43.62028265,14.94973,-0.5225921,-1.218372,-0.07188779,0.3904071,0.8437318,-4.839245,-43.8506,-41.6445
43.630141735,9.23507000000002,-0.04652058,0.8659304,-0.05869181,0.436414,0.8832263,-4.839245,-43.8506,-41.6445
43.640000343,4.141565,0.370042,0.5594154,-0.06575199,0.4201815,0.8534796,-4.839245,-43.8506,-41.6445
43.649859428,2.215972,-1.17719,2.09199,-0.04417093,0.395977,0.8361957,-4.831255,-44.20716,-40.80856
43.659718037,0.1040308,-1.891297,0.5594154,-0.05809931,0.4259246,0.8098118,-4.831255,-44.20716,-40.80856
43.67204237,-1.138287,-3.795583,0.4368094,-0.06164678,0.332037,0.825842,-4.831255,-44.20716,-40.80856
43.681901455,1.594813,-4.271655,2.459808,-0.08611993,0.3410927,0.832976,-4.831255,-44.20716,-40.80856
43.691760063,6.00504300000001,-4.747726,-0.2988266,-0.08899783,0.4000233,0.8531615,-4.831255,-44.20716,-40.80856
43.701619148,6.56408599999997,-5.521342,-1.892705,-0.07753082,0.4581483,0.8841574,-4.83477,-44.586,-41.57295
43.71147871,1.532697,-5.759378,-2.996159,-0.06313305,0.5050688,0.9049538,-4.83477,-44.586,-41.57295
43.721337318,-4.865242,-5.10478,-2.137917,-0.05285609,0.47942,0.9184876,-4.83477,-44.586,-41.57295
43.731196403,-9.02700799999998,-3.855092,-0.2988266,-0.04779139,0.4433839,0.8994225,-4.83477,-44.586,-41.57295
43.741055012,-8.09526999999998,-4.152637,-1.095766,-0.04197745,0.4326788,0.8858318,-4.83477,-44.586,-41.57295
43.750914097,-5.98332900000001,-5.521342,-1.463584,-0.04726443,0.4121525,0.8747123,-4.455059,-44.57874,-40.7427
43.760772705,-2.753301,-6.652012,-2.62834,-0.0472708,0.4209388,0.8819745,-4.455059,-44.57874,-40.7427
43.770632267,-0.641360199999998,-7.00906600000001,-3.731794,-0.04453323,0.4117672,0.8952757,-4.455059,-44.57874,-40.7427
43.780491352,-1.200403,-7.00906600000001,-5.264369,-0.05098388,0.4194966,0.8954329,-4.455059,-44.57874,-40.7427
43.79034996,-1.573099,-7.60415499999998,-7.65518600000002,-0.04603498,0.427856,0.9069336,-4.455059,-44.57874,-40.7427
43.800209522,-3.871388,-7.00906600000001,-9.24906400000001,-0.05113136,0.4303307,0.9300287,-5.204525,-44.20195,-40.74261
43.81006813,-7.22564700000002,-5.342815,-9.739489,-0.05511616,0.4473636,0.9398133,-5.204525,-44.20195,-40.74261
43.819927216,-11.69799,-4.50969,-9.80079199999999,-0.05633158,0.4497285,0.9245162,-5.204525,-44.20195,-40.74261
43.829786301,-13.80993,-4.271655,-8.88124700000001,-0.06373924,0.4665963,0.8984081,-5.204525,-44.20195,-40.74261
43.84210968,-15.30072,-5.342815,-9.18776100000002,-0.05695656,0.4539443,0.8823911,-5.204525,-44.20195,-40.74261
43.851969242,-14.18263,-5.10478,-7.34867099999999,-0.04739777,0.4448257,0.8936787,-5.582228,-44.57737,-41.56909
43.86182785,-15.05225,-4.807235,-7.164762,-0.05936174,0.4373346,0.8707844,-5.582228,-44.57737,-41.56909
43.871686935,-16.10822,-6.77103000000002,-9.003853,-0.06075528,0.4293959,0.8333597,-5.582228,-44.57737,-41.56909
43.88154602,-14.80379,-9.09187900000003,-11.9464,-0.0556118,0.4373226,0.8587509,-5.582228,-44.57737,-41.56909
43.891404629,-17.22631,-10.10353,-15.25676,-0.06960872,0.4401804,0.8752673,-5.582228,-44.57737,-41.56909
43.901264191,-25.17715,-11.82929,-17.34106,-0.08201303,0.4472104,0.8328547,-5.20896,-44.58258,-41.63503
43.911122799,-31.20239,-14.92375,-16.72803,-0.09360267,0.4537144,0.7779668,-5.20896,-44.58258,-41.63503
43.920981884,-38.34572,-17.95871,-15.62458,-0.07689653,0.4364417,0.8039389,-5.20896,-44.58258,-41.63503
43.930840969,-45.17847,-17.66117,-11.9464,-0.04852696,0.4091335,0.851224,-5.20896,-44.58258,-41.63503
43.940699577,-57.22896,-17.30411,-6.36782300000001,-0.07851797,0.4340788,0.8264644,-5.20896,-44.58258,-41.63503
43.950559139,-71.3292700000002,-20.16054,-5.203066,-0.1366858,0.4529177,0.6673998,-4.097769,-43.87081,-42.48055
43.960417747,-86.36132,-26.82554,-6.490429,-0.1569249,0.4566766,0.5498369,-4.097769,-43.87081,-42.48055
43.970276833,-102.5115,-34.74023,-5.69349,-0.1911688,0.5089139,0.41659,-4.097769,-43.87081,-42.48055
43.980135441,-133.8179,-47.1776,-3.24137,-0.2251094,0.545314,0.4710513,-4.097769,-43.87081,-42.48055
43.989995003,-176.5536,-55.2113,4.850626,-0.1913126,0.5372425,0.5744878,-4.097769,-43.87081,-42.48055
43.999854088,-238.0484,-57.9487200000001,18.76641,-0.1110732,0.3685642,0.8211043,-4.873671,-42.05708,-45.05609
44.009712696,-311.2209,-51.75978,47.76272,-0.08702972,0.2371638,0.8900951,-4.873671,-42.05708,-45.05609
44.022036552,-336.0052,-40.86965,59.7168100000003,0.2067575,-0.1289955,1.303555,-4.873671,-42.05708,-45.05609
44.031896114,-323.4578,-26.40898,57.4485999999998,0.2933797,-0.4690834,1.114,-4.873671,-42.05708,-45.05609
44.041754723,-279.1691,-22.89795,56.52905,0.1397369,-0.7342624,1.094305,-4.873671,-42.05708,-45.05609
44.051613808,-217.7365,-22.00532,44.51366,0.08000246,-0.9690501,1.171284,-6.818445,-35.92031,-50.99918
44.061472416,-148.6636,-18.01822,35.50212,0.1225019,-1.021066,1.084942,-6.818445,-35.92031,-50.99918
44.071331501,-83.9388000000002,-17.54215,37.27991,0.1279456,-0.6989582,1.193486,-6.818445,-35.92031,-50.99918
44.081190109,-61.26649,-14.15014,33.17261,0.1108406,-0.2872818,1.234102,-6.818445,-35.92031,-50.99918
44.091049671,-65.8009600000001,-12.06733,33.78564,0.145845,0.00802251,1.262451,-6.818445,-35.92031,-50.99918
44.100908756,-87.4172899999998,-10.28206,32.00785,0.1080543,0.190416,1.198879,-9.534435,-22.00818,-54.45703
44.110767365,-108.4746,-12.72192,30.23007,0.0642691,0.02551013,0.928322,-9.534435,-22.00818,-54.45703
44.12062645,-104.6855,-14.26916,31.70134,-0.01871004,-0.1754299,0.87318,-9.534435,-22.00818,-54.45703
44.130485058,-83.3797600000002,-14.86425,29.00401,-0.01506457,-0.2774586,0.9072486,-9.534435,-22.00818,-54.45703
44.14034462,-48.71908,-14.15014,21.95416,0.01587947,-0.2030747,0.9457713,-9.534435,-22.00818,-54.45703
44.150203705,-22.75463,-13.43603,18.21468,0.07622094,-0.03774264,1.031604,-11.06666,-16.85466,-55.78236
44.160062313,-13.12666,-12.06733,13.80086,0.1369471,0.1099878,1.094281,-11.06666,-16.85466,-55.78236
44.169921875,-12.19492,-9.865495,7.057533,0.1564659,0.1150294,1.095004,-11.06666,-16.85466,-55.78236
44.179780483,-12.81608,-7.18759300000001,2.398505,0.125509,0.05382397,1.067135,-11.06666,-16.85466,-55.78236
44.19210434,-14.12051,-6.59250300000002,2.459808,0.1304191,-0.05752593,1.078105,-11.06666,-16.85466,-55.78236
44.201963425,-12.87819,-5.93790500000001,0.2529004,0.1023223,-0.1162857,1.046862,-12.89034,-13.14698,-55.42666
44.211822033,-9.399704,-4.985762,-1.770099,0.1157166,-0.1545503,1.062641,-12.89034,-13.14698,-55.42666
44.221681595,-7.28776300000003,-3.319512,-2.873553,0.1296604,-0.1748642,1.06275,-12.89034,-13.14698,-55.42666
44.231540203,-5.98332900000001,-1.355717,-4.406127,0.1344464,-0.1709453,1.058402,-12.89034,-13.14698,-55.42666
44.241399288,-3.125997,0.01298836,-6.18391400000002,0.1097787,-0.2086796,1.045976,-12.89034,-13.14698,-55.42666
44.251258373,0.973653600000002,-0.3440652,-4.283521,0.1007367,-0.2710477,1.045578,-12.52016,-12.41411,-55.37211
44.261116982,6.129274,-0.2845563,-4.099612,0.06574263,-0.2893592,1.046402,-12.52016,-12.41411,-55.37211
44.270976543,13.6453,0.4295509,-3.057462,0.06491666,-0.3181298,1.032274,-12.52016,-12.41411,-55.37211
44.280835152,17.37226,1.738747,-6.30652000000001,0.07550928,-0.1962965,1.055194,-12.52016,-12.41411,-55.37211
44.290694237,13.2726,3.28598,-7.90039899999997,0.1074766,-0.1570434,1.066092,-12.52016,-12.41411,-55.37211
44.300553322,4.265797,4.357141,-7.65518600000002,0.1238209,-0.1768603,1.063295,-12.52016,-12.41411,-55.37211
44.31041193,-1.324635,5.249775,-6.91955000000002,0.1348505,-0.2401582,1.027143,-12.52016,-12.41411,-55.37211
44.320271492,-4.803127,5.071248,-5.141763,0.1102651,-0.2837278,1.015625,-12.52016,-12.41411,-55.37211
44.3301301,-6.35602500000002,5.725846,-1.647493,0.10992,-0.2838262,0.9902318,-12.52016,-12.41411,-55.37211
44.339989185,-7.28776300000003,6.32093599999998,-0.5440385,0.07061671,-0.2633622,0.960296,-12.52016,-12.41411,-55.37211
44.349847794,-4.554663,5.96388199999997,-0.05361458,0.05123972,-0.2699633,0.9327228,-12.15166,-12.05651,-55.82591
44.359707356,-0.02020105,5.725846,-0.911856500000002,0.05251348,-0.2898877,0.9368493,-12.15166,-12.05651,-55.82591
44.372031212,8.30333200000001,6.02339100000001,-1.647493,0.04256792,-0.2602387,0.9511381,-12.15166,-12.05651,-55.82591
44.38188982,10.22893,5.78535500000003,-0.3601296,0.05559586,-0.1836566,0.9693291,-12.15166,-12.05651,-55.82591
44.391748905,6.19139099999999,5.368793,-1.034463,0.07840552,-0.1113826,0.9835107,-12.15166,-12.05651,-55.82591
44.401608467,0.2282626,5.368793,-1.034463,0.06130426,-0.09590515,0.9987401,-12.13844,-12.77499,-54.53809
44.411467075,-4.865242,4.773703,-2.383129,0.05853495,-0.1246893,0.9855984,-12.13844,-12.77499,-54.53809
44.421326161,-6.54237199999997,3.940578,-2.996159,0.05140582,-0.1515472,0.977327,-12.13844,-12.77499,-54.53809
44.431184769,-6.85295199999998,3.345489,-3.915704,0.03658963,-0.1692934,0.9515116,-12.13844,-12.77499,-54.53809
44.441043854,-6.10756099999998,2.809908,-4.160915,0.04713291,-0.1915838,0.9516524,-12.13844,-12.77499,-54.53809
44.450903416,-4.3062,3.047944,-5.203066,0.06202086,-0.2128752,0.9483854,-12.14442,-12.78657,-55.37027
44.460762024,0.600958099999998,3.881069,-4.651339,0.05723162,-0.2363241,0.9353173,-12.14442,-12.78657,-55.37027
44.470621109,5.570231,2.809908,-3.425279,0.02555178,-0.2196195,0.9229714,-12.14442,-12.78657,-55.37027
44.480479717,8.986607,1.857765,-3.8544,0.06554154,-0.1616888,0.9645807,-12.14442,-12.78657,-55.37027
44.490338802,14.14223,2.214819,-8.14561100000001,0.08932503,-0.1351655,0.9740496,-12.14442,-12.78657,-55.37027
44.500198364,20.97498,1.917274,-14.092,0.08939622,-0.2037148,0.9907212,-12.52339,-12.42035,-55.82021
44.510056973,31.2241,2.214819,-15.99239,0.08602227,-0.260583,1.016166,-12.52339,-12.42035,-55.82021
44.519916058,42.65343,2.988435,-17.64757,0.09309602,-0.2570405,1.035742,-12.52339,-12.42035,-55.82021
44.529774666,54.82815,4.238123,-20.09969,0.07562322,-0.2201871,1.042532,-12.52339,-12.42035,-55.82021
44.542098522,65.0772800000003,4.595177,-21.63227,0.06516614,-0.1874842,1.093752,-11.83545,-12.42291,-55.43967
44.551958084,70.9782900000002,5.666337,-23.41006,0.05593987,-0.1953587,1.0919,-11.83545,-12.42291,-55.43967
44.561816692,80.1714500000001,7.03504299999997,-24.3296,0.03442307,-0.2710871,1.061858,-11.83545,-12.42291,-55.43967
44.571675777,101.6014,8.76080199999998,-22.91963,0.01443947,-0.2996963,1.006314,-11.83545,-12.42291,-55.43967
44.581534386,124.5222,8.93932899999999,-22.98093,0.009993564,-0.2565657,0.9693637,-11.83545,-12.42291,-55.43967
44.591393948,141.4177,11.4387,-25.73957,0.05122658,-0.1780452,1.048507,-11.83545,-12.42291,-55.43967
44.601253033,154.4621,14.11661,-26.78172,0.09179424,-0.1303376,1.087626,-11.06871,-15.37049,-54.96527
44.611111641,168.6866,17.44911,-23.47136,0.11692,-0.09100801,1.13504,-11.06871,-15.37049,-54.96527
44.620970726,183.7187,22.20982,-16.78933,0.1105055,0.009847729,1.183903,-11.06871,-15.37049,-54.96527
44.630829334,191.6074,23.87607,-14.82764,0.1044413,0.1564263,1.226916,-11.06871,-15.37049,-54.96527
44.640688896,193.3466,22.32884,-14.88894,0.0526391,0.2090634,1.241516,-11.06871,-15.37049,-54.96527
44.650547981,164.0279,32.14781,-18.93494,0.01799391,0.1485936,1.159078,-10.28194,-20.88352,-53.63229
44.660406589,155.7665,32.92143,-15.68588,0.06133077,0.03557056,1.152235,-10.28194,-20.88352,-53.63229
44.670265675,159.6177,38.69379,-15.07285,0.0129654,-0.04086823,1.125923,-10.28194,-20.88352,-53.63229
44.680124283,147.6915,41.55022,-15.56327,0.01219873,-0.2227072,0.9097181,-10.28194,-20.88352,-53.63229
44.689983845,161.1706,41.60973,-5.141763,-0.0008193003,-0.1765236,0.928503,-10.28194,-20.88352,-53.63229
44.69984293,172.2894,40.12201,-0.727947499999999,-0.001849206,0.05205609,0.7670397,-9.082989,-29.61274,-49.38733
44.709701538,170.7365,33.69505,0.1302944,-0.04005575,0.4299747,0.8091096,-9.082989,-29.61274,-49.38733
44.722025394,150.8594,32.86192,-10.53643,-0.004354807,0.545998,0.9102119,-9.082989,-29.61274,-49.38733
44.731884003,127.069,39.34839,-1.218372,0.03545965,0.4695861,1.071927,-9.082989,-29.61274,-49.38733
44.741743565,109.8629,47.85817,3.992383,0.03146967,0.4309597,1.032364,-6.764862,-37.3047,-44.64672
44.75160265,106.3844,47.97719,2.766323,-0.05518348,0.4408623,0.893277,-6.764862,-37.3047,-44.64672
44.761461258,103.1543,41.01464,-2.996159,-0.163344,0.4733078,0.8471724,-6.764862,-37.3047,-44.64672
44.77132082,89.5509500000002,34.7067,-8.45212599999999,-0.1936396,0.4034505,0.7166724,-6.764862,-37.3047,-44.64672
44.781179428,79.8608699999998,28.99384,-6.73564099999998,-0.169111,0.3585823,0.5027004,-6.764862,-37.3047,-44.64672
44.791038513,87.1284299999998,21.3767,-3.915704,-0.08843944,0.5542221,0.7068615,-5.219791,-41.99931,-41.21333
44.800897598,80.7304900000002,24.59018,-5.509581,-0.02839969,0.6335927,0.8384555,-5.219791,-41.99931,-41.21333
44.810756206,58.3066400000002,27.56563,1.111142,-0.058479,0.6188838,0.8799712,-5.219791,-41.99931,-41.21333
44.820615768,39.92033,30.12451,6.68971499999997,-0.08235475,0.6183454,0.9224765,-5.219791,-41.99931,-41.21333
44.830474377,31.2241,31.19567,8.71271399999999,-0.1046959,0.5708342,0.8926836,-5.219791,-41.99931,-41.21333
44.840333462,22.83846,30.065,5.034534,-0.1536027,0.5190054,0.8124377,-5.219791,-41.99931,-41.21333
44.850192547,20.60228,23.99509,1.049839,-0.1497212,0.4261852,0.8360382,-3.315884,-45.67296,-39.07283
44.860051155,13.58318,21.4362,2.766323,-0.1274537,0.3046663,0.8193609,-3.315884,-45.67296,-39.07283
44.869910717,7.24736100000001,20.18652,0.5594154,-0.1081993,0.2323575,0.6967596,-3.315884,-45.67296,-39.07283
44.879769325,15.81936,17.62763,1.540263,-0.07921312,0.3013533,0.7304727,-3.315884,-45.67296,-39.07283
44.892093182,17.18591,18.93683,3.685868,-0.05184679,0.3877861,0.8760095,-2.185913,-46.78501,-38.68322
44.901952267,11.71971,21.01964,7.854472,-0.09866498,0.4193638,0.8429201,-2.185913,-46.78501,-38.68322
44.911810875,8.73814300000001,20.00799,6.87362400000002,-0.122391,0.4082099,0.7794306,-2.185913,-46.78501,-38.68322
44.921670437,12.03029,18.16321,5.708868,-0.1067102,0.3333044,0.7512606,-2.185913,-46.78501,-38.68322
44.931529045,19.85689,17.21107,8.590108,-0.1011584,0.2661606,0.7405517,-2.185913,-46.78501,-38.68322
44.94138813,27.62138,15.96138,13.12653,-0.1175287,0.2947582,0.7491727,-2.173908,-47.87786,-37.83974
44.951247692,28.98793,12.98594,10.73571,-0.164458,0.3377514,0.6462181,-2.173908,-47.87786,-37.83974
44.9611063,35.07529,7.51111399999998,6.01538200000003,-0.1600439,0.3700993,0.5678395,-2.173908,-47.87786,-37.83974
44.970965385,38.49167,2.214819,1.969384,-0.1425915,0.466879,0.6412459,-2.173908,-47.87786,-37.83974
44.980824471,32.46642,-1.653262,0.0689914200000002,-0.1609035,0.5618625,0.7093964,-2.173908,-47.87786,-37.83974
44.990683079,21.34767,-2.248351,1.846778,-0.1428251,0.577422,0.79313,-2.1719,-48.24601,-37.83597
45.000542641,8.73814300000001,0.2510241,3.685868,-0.1189389,0.5601693,0.807499,-2.1719,-48.24601,-37.83597
45.010401249,3.334059,0.667586600000001,5.15714,-0.1151151,0.4281393,0.7564935,-2.1719,-48.24601,-37.83597
45.020260334,6.99889700000002,-0.5225921,8.528805,-0.1123945,0.3945517,0.7470666,-2.1719,-48.24601,-37.83597
45.030119419,11.22278,-2.605405,9.325744,-0.1277699,0.4256038,0.7590485,-2.1719,-48.24601,-37.83597
45.039978027,14.63916,-4.390673,8.590108,-0.1452366,0.4411122,0.7833884,-1.781734,-48.96257,-36.10198
45.049837589,17.24802,-6.11643200000001,7.60926000000002,-0.1384807,0.4758105,0.8070656,-1.781734,-48.96257,-36.10198
45.059696198,17.43437,-7.12808399999997,5.034534,-0.133021,0.5756967,0.8289156,-1.781734,-48.96257,-36.10198
45.072020054,10.04258,-6.17594099999999,3.685868,-0.1146591,0.6694009,0.8586758,-1.781734,-48.96257,-36.10198
45.081879139,-0.641360199999998,-4.926253,5.524958,-0.1050373,0.7104523,0.8828451,-1.781734,-48.96257,-36.10198
45.091737747,-12.75396,-3.914601,4.421504,-0.1167455,0.6781346,0.8568625,-1.775751,-48.95099,-35.2698
45.101597309,-16.97785,-4.688217,3.072838,-0.1144939,0.5934198,0.8398226,-1.775751,-48.95099,-35.2698
45.111455917,-16.23246,-5.81888699999998,1.111142,-0.1135438,0.557915,0.8423848,-1.775751,-48.95099,-35.2698
45.121315002,-13.62359,-6.53299399999998,-2.62834,-0.1179725,0.5485923,0.8323059,-1.775751,-48.95099,-35.2698
45.131174564,-12.19492,-7.30661099999998,-6.36782300000001,-0.1166953,0.5607567,0.829036,-1.775751,-48.95099,-35.2698
45.141033173,-11.3253,-8.55629800000001,-10.90425,-0.1251825,0.5329405,0.8279638,-2.525177,-49.69024,-36.09058
45.150892258,-9.21335600000002,-9.09187900000003,-15.25676,-0.1071462,0.4892774,0.8206295,-2.525177,-49.69024,-36.09058
45.160750866,-5.610633,-9.03236999999999,-16.0537,-0.08759083,0.5187408,0.8455178,-2.525177,-49.69024,-36.09058
45.170609951,-5.300054,-6.94955700000003,-17.21845,-0.08228189,0.5532969,0.8347121,-2.525177,-49.69024,-36.09058
45.180469513,-7.47411100000001,-6.830539,-16.29891,-0.1114583,0.5733219,0.7936066,-2.525177,-49.69024,-36.09058
45.190328121,-10.33144,-7.36611899999999,-16.115,-0.1103306,0.5980024,0.7545045,-2.532412,-48.96017,-36.54622
45.200187206,-15.2386,-9.50844099999999,-17.21845,-0.1258491,0.6415725,0.7311334,-2.532412,-48.96017,-36.54622
45.210045815,-24.30752,-12.78143,-21.38706,-0.146422,0.6329478,0.6858299,-2.532412,-48.96017,-36.54622
45.2199049,-32.8174,-18.61331,-23.34875,-0.1751722,0.5744072,0.7144976,-2.532412,-48.96017,-36.54622
45.229764462,-41.07882,-21.8863,-27.02693,-0.1614094,0.5462301,0.6944165,-2.532412,-48.96017,-36.54622
45.242087841,-52.75661,-28.49179,-31.13423,-0.1466468,0.5629846,0.7154323,-2.162697,-48.2282,-36.55569
45.251946926,-63.4405500000001,-31.2292,-34.5672,-0.1220824,0.5633664,0.7591717,-2.162697,-48.2282,-36.55569
45.261806011,-78.34837,-31.70527,-32.66681,-0.1017983,0.5194505,0.8088279,-2.162697,-48.2282,-36.55569
45.27166462,-93.8773500000001,-29.92001,-24.57481,-0.09869908,0.4089662,0.7953922,-2.162697,-48.2282,-36.55569
45.281524181,-104.7476,-30.69362,-17.15715,-0.1122421,0.3317491,0.7388672,-2.162697,-48.2282,-36.55569
45.29138279,-103.878,-30.03902,-13.78549,-0.1447913,0.3104771,0.5934749,-1.814152,-47.5372,-39.5098
45.301241875,-95.0575500000002,-33.49054,-15.37936,-0.1747709,0.2828325,0.5591665,-1.814152,-47.5372,-39.5098
45.311101437,-85.3674699999998,-38.07273,-16.0537,-0.173176,0.2556762,0.5804786,-1.814152,-47.5372,-39.5098
45.320960045,-75.1183400000002,-42.77394,-13.29506,-0.1658643,0.2679919,0.7328637,-1.814152,-47.5372,-39.5098
45.33081913,-72.1367799999997,-44.02362,-7.47127699999998,-0.09795946,0.2912966,0.8178693,-1.814152,-47.5372,-39.5098
45.340677738,-74.4350700000003,-42.23835,-0.727947499999999,-0.1292588,0.3850619,0.7218292,-1.849371,-45.00115,-42.48083
45.350536823,-81.39205,-46.76104,-0.1762206,-0.1367737,0.5190211,0.6473534,-1.849371,-45.00115,-42.48083
45.360396385,-89.7155799999997,-54.37818,-8.26821599999997,-0.1272526,0.5864909,0.5797407,-1.849371,-45.00115,-42.48083
45.370254994,-113.8787,-64.5542100000001,-7.961701,-0.1604321,0.5634918,0.4942428,-1.849371,-45.00115,-42.48083
45.380114079,-151.8936,-77.2296100000001,-0.1762206,-0.1361946,0.5293865,0.5554263,-1.849371,-45.00115,-42.48083
45.389972687,-189.7843,-79.9075099999998,13.00392,-0.102862,0.4528835,0.7081286,-3.383522,-41.71154,-45.45167
45.399832249,-236.4955,-79.3124199999999,27.96185,0.07286774,0.2389669,0.9932552,-3.383522,-41.71154,-45.45167
45.409691334,-268.5473,-63.0664799999998,43.28761,0.197605,-0.02319706,1.120086,-3.383522,-41.71154,-45.45167
45.422014713,-270.7835,-49.37943,56.40645,0.1240276,-0.3660457,1.091406,-3.383522,-41.71154,-45.45167
45.431873798,-258.9814,-48.30827,57.26469,0.01419394,-0.6604084,1.101509,-3.383522,-41.71154,-45.45167
45.441732884,-212.0839,-51.75978,63.4562899999999,0.03097398,-0.8046817,1.128804,-6.810455,-36.27688,-50.16322
45.451591492,-157.8567,-51.64077,67.5635900000002,0.1470166,-0.7781019,1.194942,-6.810455,-36.27688,-50.16322
45.461451054,-116.9845,-49.49844,65.41798,0.2039382,-0.5788108,1.1316,-6.810455,-36.27688,-50.16322
