Time (s),Gyroscope X (deg/s),Gyroscope Y (deg/s),Gyroscope Z (deg/s),Accelerometer X (g),Accelerometer Y (g),Accelerometer Z (g),Magnetometer X (uT),Magnetometer Y (uT),Magnetometer Z (uT)
87.27,3.199544,-23.44861,-6.85762299999999,0.9080853,0.1938573,-0.1771705,-32.27547,-32.41366,6.696472
87.28,-0.782916799999998,-21.15126,-7.46821400000001,0.9029631,0.1639969,-0.1569808,-32.27547,-32.41366,6.696472
87.29,-3.520859,-17.9114,-7.52927400000003,0.9259353,0.1450027,-0.1366954,-32.27547,-32.41366,6.696472
87.3,-5.014282,-15.55514,-7.52927400000003,0.9887012,0.1349819,-0.121596,-31.54647,-32.41222,7.082537
87.31,-7.627772,-13.78794,-6.91868199999998,1.056564,0.1469323,-0.08954708,-31.54647,-32.41222,7.082537
87.32,-11.11242,-10.43027,-6.55232700000003,1.039856,0.1553716,-0.05193322,-31.54647,-32.41222,7.082537
87.33,-12.7303,-6.77806900000003,-6.91868199999998,1.000557,0.1383989,-0.02215303,-31.54647,-32.41222,7.082537
87.34,-10.92575,-4.480714,-8.13986499999999,0.9618312,0.1225532,-0.02856011,-31.54647,-32.41222,7.082537
87.35,-6.943286,-4.186182,-8.56727800000001,0.9559123,0.08741669,-0.05567365,-31.18122,-32.76373,7.91324
87.36,-3.396407,-4.480714,-8.32304200000001,0.9643359,0.07851221,-0.08414145,-31.18122,-32.76373,7.91324
87.37,-2.151888,-5.128686,-6.79656299999998,0.9736218,0.08123365,-0.1120995,-31.18122,-32.76373,7.91324
87.38,-2.774147,-5.423219,-5.086907,0.9779248,0.09322982,-0.1270216,-31.18122,-32.76373,7.91324
87.39,-4.205344,-5.069779,-3.438309,0.9611357,0.1249165,-0.1405081,-31.55113,-32.75517,8.288862
87.4,-4.329796,-4.480714,-3.621487,0.9531922,0.1469756,-0.1559228,-31.55113,-32.75517,8.288862
87.41,-3.95644,-3.538211,-4.598433,0.9594716,0.1518465,-0.1578263,-31.55113,-32.75517,8.288862
87.42,-3.831988,-2.595706,-5.57538,0.9516103,0.1576892,-0.1472179,-31.55113,-32.75517,8.288862
87.43,-4.5787,-1.417576,-6.24703100000001,0.9423387,0.1610176,-0.145787,-31.55113,-32.75517,8.288862
87.44,-6.19657500000002,-1.417576,-6.61338600000002,0.9442751,0.1610591,-0.1428867,-31.18122,-32.76373,7.91324
87.45,-8.18780499999998,-2.065547,-6.674445,0.9438745,0.1523317,-0.1443541,-31.18122,-32.76373,7.91324
87.46,-9.12119499999999,-3.361491,-6.674445,0.9405586,0.1435772,-0.1463117,-31.18122,-32.76373,7.91324
87.47,-9.18342000000002,-4.716341,-6.61338600000002,0.9464663,0.1410322,-0.1651213,-31.18122,-32.76373,7.91324
87.48,-8.31225699999998,-6.13009700000001,-6.61338600000002,0.9582441,0.1318457,-0.1742791,-31.18122,-32.76373,7.91324
87.49,-6.943286,-7.367134,-6.18597200000002,0.9549869,0.1238355,-0.2008449,-31.52982,-33.49361,7.479141
87.5,-5.325411,-9.01651700000003,-6.18597200000002,0.9453788,0.1121282,-0.2028251,-31.52982,-33.49361,7.479141
87.51,-4.329796,-9.605582,-5.94173499999998,0.9395965,0.1034729,-0.19176,-31.52982,-33.49361,7.479141
87.52,-3.95644,-9.25214300000002,-6.06385300000002,0.9502155,0.1033354,-0.16278,-31.52982,-33.49361,7.479141
87.53,-4.26757,-7.72057200000002,-5.880676,0.9587787,0.1138682,-0.1294394,-31.52982,-33.49361,7.479141
87.54,-5.263186,-5.89447100000002,-5.636439,0.969891,0.117932,-0.1178208,-31.17447,-33.12625,7.919075
87.55,-5.325411,-4.716341,-5.331143,0.9844166,0.1243323,-0.1182521,-31.17447,-33.12625,7.919075
87.56,-5.387638,-3.773837,-5.147966,0.9994282,0.1330815,-0.1268805,-31.17447,-33.12625,7.919075
87.57,-5.014282,-2.890239,-4.659492,1.004331,0.1311049,-0.135558,-31.17447,-33.12625,7.919075
87.58,-4.329796,-2.713519,-4.598433,0.9980246,0.1338276,-0.1500448,-31.17447,-33.12625,7.919075
87.59,-3.894214,-3.184772,-4.659492,0.9796299,0.1287391,-0.1616844,-30.81071,-32.77332,7.474434
87.6,-3.894214,-3.597117,-4.720551,0.9719148,0.1237823,-0.1679881,-30.81071,-32.77332,7.474434
87.61,-3.95644,-4.245089,-4.903729,0.9650861,0.1289646,-0.1776455,-30.81071,-32.77332,7.474434
87.62,-4.640926,-4.951966,-5.270084,0.9502984,0.1478155,-0.1675096,-30.81071,-32.77332,7.474434
87.63,-6.07212300000002,-4.775247,-5.75855699999999,0.954609,0.1508758,-0.1539805,-30.81071,-32.77332,7.474434
87.64,-7.254416,-3.832743,-5.331143,0.9652956,0.1519227,-0.1544333,-30.79045,-33.86088,7.491936
87.65,-8.12557899999998,-3.125865,-5.025847,0.9649211,0.1388883,-0.1506019,-30.79045,-33.86088,7.491936
87.66,-8.12557899999998,-2.713519,-4.232078,0.9625937,0.1286808,-0.1535251,-30.79045,-33.86088,7.491936
87.67,-7.378868,-2.418987,-3.987842,0.9558797,0.120353,-0.1588684,-30.79045,-33.86088,7.491936
87.68,-5.88544500000002,-2.477893,-4.048901,0.9641403,0.1185519,-0.1511302,-30.79045,-33.86088,7.491936
87.69,-4.703152,-2.477893,-4.293138,0.9709335,0.1200524,-0.151592,-30.7837,-34.2234,7.49777
87.7,-3.520859,-2.890239,-4.903729,0.9849438,0.1265453,-0.1414083,-30.7837,-34.2234,7.49777
87.71,-3.147503,-2.831332,-5.086907,0.9916912,0.1310107,-0.1351082,-30.7837,-34.2234,7.49777
87.72,-3.271955,-2.301174,-5.086907,0.9897007,0.1353682,-0.1331738,-30.7837,-34.2234,7.49777
87.73,-3.396407,-1.653202,-4.781611,0.977558,0.137117,-0.1433349,-30.7837,-34.2234,7.49777
87.74,-3.583085,-1.417576,-4.537374,0.9645211,0.1296901,-0.1506227,-30.41739,-34.22577,7.501251
87.75,-3.894214,-1.18195,-3.865723,0.9591802,0.1286893,-0.1496735,-30.41739,-34.22577,7.501251
87.76,-4.5787,-0.887417199999999,-3.316191,0.9756551,0.1355581,-0.1534766,-30.41739,-34.22577,7.501251
87.77,-4.88983,-0.887417199999999,-3.010895,0.98528,0.1429891,-0.1428198,-30.41739,-34.22577,7.501251
87.78,-5.014282,-0.946323799999999,-3.194072,0.9861938,0.1511618,-0.1495555,-30.41739,-34.22577,7.501251
87.79,-5.138733,-1.123043,-3.743605,0.9798577,0.1506987,-0.1418521,-30.42835,-33.85604,7.937704
87.8,-5.076508,-1.123043,-3.560428,0.9862578,0.1415712,-0.139925,-30.42835,-33.85604,7.937704
87.81,-4.827604,-0.946323799999999,-3.499368,0.9858577,0.1347181,-0.1481441,-30.42835,-33.85604,7.937704
87.82,-4.516474,-1.240856,-3.255132,0.9776498,0.1297794,-0.1520363,-30.42835,-33.85604,7.937704
87.83,-4.454248,-1.829921,-2.888777,0.9689547,0.1257785,-0.158823,-30.42835,-33.85604,7.937704
87.84,-4.26757,-2.065547,-2.461363,0.9689422,0.1262887,-0.1559266,-30.41739,-34.22577,7.501251
87.85,-4.018666,-2.36008,-2.583481,0.9780911,0.1341516,-0.1505781,-30.41739,-34.22577,7.501251
87.86,-4.018666,-2.242267,-2.827718,0.9843504,0.1381511,-0.1418675,-30.41739,-34.22577,7.501251
87.87,-4.827604,-1.771015,-2.64454,0.9877184,0.1350093,-0.1177381,-30.41739,-34.22577,7.501251
87.88,-5.325411,-0.3572586,-2.278185,0.9726787,0.1286972,-0.1071744,-30.41739,-34.22577,7.501251
87.89,-5.512089,0.879778200000001,-1.789712,0.9736127,0.1321141,-0.1047519,-30.41064,-34.58829,7.507086
87.9,-5.449863,1.292124,-1.789712,0.9823826,0.1353989,-0.1235416,-30.41064,-34.58829,7.507086
87.91,-4.952056,0.938684800000002,-1.728652,1.000409,0.136345,-0.1413474,-30.41064,-34.58829,7.507086
87.92,-4.5787,0.1139935,-1.789712,1.006237,0.1406275,-0.154352,-30.41064,-34.58829,7.507086
87.93,-3.95644,-0.769604199999998,-1.850771,1.007735,0.1367544,-0.1558041,-30.41064,-34.58829,7.507086
87.94,-4.454248,-1.18195,-1.850771,0.9863989,0.1293813,-0.1500844,-30.41064,-34.58829,7.507086
87.95,-4.143118,-0.887417199999999,-2.156067,0.9606764,0.121072,-0.1371398,-30.41064,-34.58829,7.507086
87.96,-3.396407,0.4085261,-2.278185,0.9640883,0.1154406,-0.1207364,-30.41064,-34.58829,7.507086
87.97,-3.023051,1.409937,-2.339244,0.9621316,0.1168728,-0.1212209,-30.41064,-34.58829,7.507086
87.98,-3.023051,2.057908,-1.91183,0.9635697,0.1183578,-0.1188013,-30.41064,-34.58829,7.507086
87.99,-4.080892,3.471665,-1.362298,0.94985,0.1218931,-0.09084123,-30.04434,-34.59067,7.510565
88,-5.138733,6.29917799999998,-1.423357,0.9391081,0.1252496,-0.08507112,-30.04434,-34.59067,7.510565
88.01,-4.516474,8.53762399999998,-1.972889,0.9784104,0.1318916,-0.08013,-30.04434,-34.59067,7.510565
88.02,-4.205344,10.30482,-2.705599,0.9969593,0.1238093,-0.08009954,-30.04434,-34.59067,7.510565
88.03,-4.26757,10.18701,-2.827718,0.9931634,0.1178449,-0.09411607,-30.04434,-34.59067,7.510565
88.04,-3.085277,8.30199799999999,-2.339244,0.9997487,0.09497499,-0.1134502,-30.02835,-35.26147,7.142159
88.05,-1.280725,5.88683200000001,-2.522422,0.9837891,0.08707649,-0.1168862,-30.02835,-35.26147,7.142159
88.06,0.897184,3.530571,-2.583481,0.975131,0.07967061,-0.1256103,-30.02835,-35.26147,7.142159
88.07,3.26177,1.940095,-2.705599,0.9633801,0.0873616,-0.1212812,-30.02835,-35.26147,7.142159
88.08,4.381837,1.645563,-2.461363,0.9637423,0.1018434,-0.125592,-30.39466,-35.2591,7.13868
88.09,3.448448,1.822282,-2.766658,0.9960071,0.1340534,-0.1235094,-30.39466,-35.2591,7.13868
88.1,1.768348,2.352441,-3.499368,1.013321,0.1591914,-0.141265,-30.39466,-35.2591,7.13868
88.11,-0.2228832,1.999002,-4.537374,1.009319,0.1712589,-0.1412494,-30.39466,-35.2591,7.13868
88.12,-1.34295,0.7619652,-5.331143,1.000198,0.1586138,-0.140335,-30.39466,-35.2591,7.13868
88.13,-1.280725,-1.064137,-5.453262,0.9740762,0.1425099,-0.1327162,-30.39668,-34.96318,6.754715
88.14,-0.596238899999999,-2.772426,-5.81961700000001,0.9401319,0.1344666,-0.1366814,-30.39668,-34.96318,6.754715
88.15,0.772731999999999,-4.480714,-6.24703100000001,0.9330714,0.1153574,-0.1565252,-30.39668,-34.96318,6.754715
88.16,2.079477,-5.423219,-6.12491299999998,0.9380227,0.107125,-0.1613556,-30.39668,-34.96318,6.754715
88.17,2.203929,-6.07119000000003,-6.43020800000003,0.9487059,0.1100594,-0.1671123,-30.39668,-34.96318,6.754715
88.18,1.706121,-5.95337699999997,-6.55232700000003,0.9651291,0.1156911,-0.1472734,-30.39105,-35.26528,6.759577
88.19,1.394992,-5.187593,-6.79656299999998,0.9699247,0.1196967,-0.1366363,-30.39105,-35.26528,6.759577
88.2,1.955025,-4.834153,-6.73550399999999,0.9694683,0.1111534,-0.1178365,-30.39105,-35.26528,6.759577
88.21,3.323996,-4.127275,-6.30808999999999,0.9971197,0.1167146,-0.1153404,-30.39105,-35.26528,6.759577
88.22,4.692967,-4.009462,-6.00279399999997,1.011664,0.1253987,-0.1307258,-30.39105,-35.26528,6.759577
88.23,5.501904,-3.832743,-5.880676,1.013047,0.1331615,-0.1297405,-30.40247,-35.2457,7.96007
88.24,4.817419,-2.949145,-5.697498,0.9853688,0.1267507,-0.1192096,-30.40247,-35.2457,7.96007
88.25,3.635126,-1.947735,-5.57538,0.9610969,0.1241064,-0.1231382,-30.40247,-35.2457,7.96007
88.26,3.5729,-2.477893,-5.636439,0.9586992,0.1253858,-0.1400309,-30.40247,-35.2457,7.96007
88.27,4.755193,-4.186182,-5.514321,0.9772528,0.1224468,-0.1597739,-30.40247,-35.2457,7.96007
88.28,7.30645699999998,-6.660255,-4.781611,1.01223,0.1284218,-0.171252,-30.02835,-35.26147,7.142159
88.29,8.98655800000003,-8.19182499999997,-3.37725,1.050629,0.1296719,-0.1730804,-30.02835,-35.26147,7.142159
88.3,9.919947,-7.66166600000001,-2.156067,1.058391,0.1255614,-0.1528022,-30.02835,-35.26147,7.142159
88.31,10.0444,-5.717751,-1.545475,1.071494,0.1238596,-0.1382956,-30.02835,-35.26147,7.142159
88.32,9.733269,-3.773837,-1.362298,1.090833,0.1323299,-0.128094,-30.02835,-35.26147,7.142159
88.33,8.92433200000002,-2.831332,-1.301238,1.09945,0.1459697,-0.1256297,-29.6553,-35.62637,7.151474
88.34,7.74203899999998,-2.242267,-0.2021734,1.114542,0.1455421,-0.1323474,-29.6553,-35.62637,7.151474
88.35,6.80865,-1.594296,1.324306,1.069797,0.1485541,-0.1353516,-29.6553,-35.62637,7.151474
88.36,7.18200499999998,-2.065547,1.873838,1.042128,0.1990606,-0.1454479,-29.6553,-35.62637,7.151474
88.37,7.43090899999998,-2.36008,0.713714100000002,1.007684,0.2498796,-0.1685898,-29.6553,-35.62637,7.151474
88.38,5.439678,-2.890239,-1.667593,0.9863634,0.300339,-0.1892859,-30.40247,-35.2457,7.96007
88.39,0.834957900000002,-3.832743,-4.232078,1.080174,0.30907,-0.2141178,-30.40247,-35.2457,7.96007
88.4,-3.95644,-3.184772,-4.781611,1.130298,0.3041202,-0.2159293,-30.40247,-35.2457,7.96007
88.41,-7.441094,-0.946323799999999,-4.781611,1.13034,0.2922546,-0.1903796,-30.40247,-35.2457,7.96007
88.42,-9.37009800000002,1.468843,-3.37725,1.139262,0.2617424,-0.1474754,-30.40247,-35.2457,7.96007
88.43,-12.23249,6.53480400000003,-0.5685284,1.137662,0.2150986,-0.1133188,-30.41484,-34.58108,7.949373
88.44,-15.53047,11.48295,0.9579508,1.141345,0.1865304,-0.1181962,-30.41484,-34.58108,7.949373
88.45,-17.45947,15.01734,1.568542,1.153359,0.1554626,-0.1389816,-30.41484,-34.58108,7.949373
88.46,-15.96605,17.3147,3.095021,1.13972,0.1144453,-0.1675754,-30.41484,-34.58108,7.949373
88.47,-12.66807,16.31329,4.804678,1.063323,0.07029349,-0.1678673,-30.41484,-34.58108,7.949373
88.48,-8.99674200000002,15.42969,6.75857199999999,0.9790632,0.08002713,-0.1429712,-29.67128,-34.95556,7.51988
88.49,-5.325411,14.6639,6.025861,0.9280832,0.1223046,-0.1333608,-29.67128,-34.95556,7.51988
88.5,0.3993763,13.83921,3.339258,0.8886114,0.2324599,-0.1197144,-29.67128,-34.95556,7.51988
88.51,5.87526,12.95561,1.141128,0.8804768,0.3242897,-0.1258111,-29.67128,-34.95556,7.51988
88.52,7.55536099999998,8.94997000000001,1.263247,0.902585,0.3576571,-0.147397,-29.67128,-34.95556,7.51988
88.53,5.626356,5.76901900000002,1.01901,0.8932631,0.3644343,-0.1392032,-30.02617,-34.97276,6.315907
88.54,0.1504725,4.885421,2.301252,0.8691112,0.3459173,-0.1325496,-30.02617,-34.97276,6.315907
88.55,-6.694382,6.35808399999999,3.705613,0.8184347,0.2978874,-0.102383,-30.02617,-34.97276,6.315907
88.56,-11.17465,6.29917799999998,4.804678,0.7040747,0.2653185,-0.1268754,-30.02617,-34.97276,6.315907
88.57,-11.92136,2.293534,2.362312,0.6273778,0.264364,-0.1661617,-30.02617,-34.97276,6.315907
88.58,-8.31225699999998,-3.008052,3.583495,0.6417731,0.2353516,-0.1758379,-30.39922,-34.60787,6.306593
88.59,-2.774147,-8.72198399999999,1.690661,0.671846,0.2997847,-0.1939587,-30.39922,-34.60787,6.306593
88.6,-3.085277,-14.49482,0.0420633,0.7885327,0.3039075,-0.2129508,-30.39922,-34.60787,6.306593
88.61,-6.56993100000002,-16.49764,0.3473592,0.9201313,0.2639131,-0.2001511,-30.39922,-34.60787,6.306593
88.62,-12.9792,-15.55514,2.789726,1.048462,0.2042183,-0.1690654,-30.39922,-34.60787,6.306593
88.63,-18.70399,-10.48918,5.41527,1.096419,0.1552334,-0.1154841,-30.39562,-34.61405,5.92749
88.64,-22.93536,-3.008052,6.51433500000001,1.116521,0.05895093,-0.02395495,-30.39562,-34.61405,5.92749
88.65,-27.22895,3.589478,5.109974,1.067037,-0.0155902,0.01677383,-30.39562,-34.61405,5.92749
88.66,-28.59792,7.71293399999998,3.21714,0.9739762,-0.04769862,0.02466812,-30.39562,-34.61405,5.92749
88.67,-24.17988,8.24309199999997,1.690661,0.8909511,-0.0444523,-0.02620665,-30.39562,-34.61405,5.92749
88.68,-13.53924,3.589478,0.5305366,0.8675972,-0.02533727,-0.08606184,-30.02932,-34.61642,5.930969
88.69,-1.218498,-2.36008,0.4694775,0.9006289,0.0324139,-0.09646857,-30.02932,-34.61642,5.930969
88.7,5.56413,-5.187593,1.385365,0.9364448,0.09484541,-0.07356218,-30.02932,-34.61642,5.930969
88.71,6.621972,-4.716341,2.362312,0.9570173,0.1275184,-0.06378791,-30.02932,-34.61642,5.930969
88.72,2.826189,-1.712108,4.071968,0.9543476,0.1536133,-0.0656689,-30.77122,-33.89384,5.470053
88.73,-1.65408,2.941506,5.84268399999998,0.9299558,0.1607436,-0.0589608,-30.77122,-33.89384,5.470053
88.74,-3.707536,7.30058800000001,7.85763700000002,0.9282046,0.1389874,-0.05515169,-30.77122,-33.89384,5.470053
88.75,-3.64531,8.00746500000002,10.17789,0.9542552,0.1082268,-0.05418554,-30.77122,-33.89384,5.470053
88.76,-2.400792,8.83215700000001,10.66636,0.9790925,0.1007653,-0.04448654,-30.77122,-33.89384,5.470053
88.77,-2.027436,8.59653100000002,8.77352499999997,0.9615008,0.1079663,-0.03583055,-30.75412,-34.62507,5.102619
88.78,-0.720690799999997,7.30058800000001,5.476329,0.9039322,0.1297786,-0.03593213,-30.75412,-34.62507,5.102619
88.79,0.3371503,4.119637,1.690661,0.8089785,0.1605301,-0.08533089,-30.75412,-34.62507,5.102619
88.8,-0.720690799999997,0.05508697,-0.5685284,0.7404121,0.1741488,-0.12553,-30.75412,-34.62507,5.102619
88.81,-1.778532,-7.95619899999998,-2.400303,0.6510583,0.1797216,-0.1812416,-30.75412,-34.62507,5.102619
88.82,-1.405176,-15.49623,-2.217126,0.6223199,0.1932902,-0.2078267,-31.12357,-34.26636,4.714201
88.83,-1.591854,-21.09235,-2.583481,0.6683369,0.2110716,-0.2076698,-31.12357,-34.26636,4.714201
88.84,-0.596238899999999,-24.39112,-4.293138,0.7370943,0.2364171,-0.1934441,-31.12357,-34.26636,4.714201
88.85,-1.902984,-25.98159,-5.209025,0.793739,0.2512187,-0.1575575,-31.12357,-34.26636,4.714201
88.86,-7.19219,-26.45284,-5.086907,0.838387,0.2522796,-0.1323476,-31.12357,-34.26636,4.714201
88.87,-15.28156,-26.21722,-3.926783,0.8970905,0.2144619,-0.137103,-31.49033,-34.61414,5.474762
88.88,-24.98881,-25.27471,-1.789712,0.9303498,0.1439683,-0.1477848,-31.49033,-34.61414,5.474762
88.89,-31.64699,-23.38971,1.446424,0.9165657,0.008297728,-0.1543852,-31.49033,-34.61414,5.474762
88.9,-31.64699,-22.74173,2.606548,0.7827443,-0.1298187,-0.1675735,-31.49033,-34.61414,5.474762
88.91,-23.7443,-26.68847,3.766672,0.6458975,-0.2572811,-0.1773689,-31.49033,-34.61414,5.474762
88.92,-7.441094,-30.63521,6.94174900000001,0.6148764,-0.2732959,-0.1557686,-30.40237,-34.25153,5.921656
88.93,12.78234,-30.98865,7.67445899999997,0.6697822,-0.1696807,-0.1438231,-30.40237,-34.25153,5.921656
88.94,32.63242,-31.63662,2.118075,0.812223,-0.02168626,-0.1161148,-30.40237,-34.25153,5.921656
88.95,44.14422,-30.81193,-2.64454,0.9457563,0.1040481,-0.133837,-30.40237,-34.25153,5.921656
88.96,48.93562,-32.28459,-9.17787,0.9823675,0.2596605,-0.1889012,-30.40237,-34.25153,5.921656
88.97,42.6508,-33.81616,-15.16167,0.8794007,0.3663646,-0.2342969,-30.41379,-34.23196,7.122149
88.98,33.69026,-38.76431,-18.27569,0.7570247,0.3832952,-0.3431496,-30.41379,-34.23196,7.122149
88.99,33.13023,-48.71951,-17.72615,0.6982394,0.3501666,-0.4234756,-30.41379,-34.23196,7.122149
89,38.23275,-57.08423,-19.06946,0.7568514,0.3182786,-0.414707,-30.41379,-34.23196,7.122149
89.01,46.44658,-56.73079,-16.38285,0.9662355,0.1731412,-0.216634,-30.41379,-34.23196,7.122149
89.02,48.18891,-40.94384,-14.67319,0.8335379,0.1539844,0.02522205,-30.79977,-34.54677,9.904591
89.03,42.21521,-28.57348,-15.89438,0.6203068,0.1829142,0.03631549,-30.79977,-34.54677,9.904591
89.04,37.98385,-26.80628,-23.64889,0.717982,0.2923173,-0.1499438,-30.79977,-34.54677,9.904591
89.05,35.61926,-37.64508,-26.94609,1.237566,0.332222,-0.2508183,-30.79977,-34.54677,9.904591
89.06,37.92162,-46.53996,-47.76726,2.061512,0.4699062,-0.3434595,-30.79977,-34.54677,9.904591
89.07,22.80072,-36.58476,-40.25698,2.51245,0.1934636,-0.2097073,-30.08745,-34.86767,12.76066
89.08,27.52989,-24.33221,-4.598433,1.381454,0.2184405,0.1517539,-30.08745,-34.86767,12.76066
89.09,20.80949,-17.67577,-8.50621900000002,1.192754,-0.1051854,0.2210236,-30.08745,-34.86767,12.76066
89.1,20.80949,-15.37842,-4.415256,1.335985,-0.3474368,0.2271453,-30.08745,-34.86767,12.76066
89.11,30.14338,-12.07966,9.445176,1.450388,-0.4609931,0.2011386,-30.08745,-34.86767,12.76066
89.12,52.23359,2.470254,23.85514,1.416492,-0.3632751,0.1727909,-28.69012,-35.50843,14.80658
89.13,70.7146999999998,14.13374,30.938,1.219173,0.06295729,0.115775,-28.69012,-35.50843,14.80658
89.14,76.8128399999999,11.24732,28.92305,1.058442,0.4333096,-0.156966,-28.69012,-35.50843,14.80658
89.15,85.0888999999998,-8.25073099999999,22.20654,0.9354381,0.7042841,-0.3743302,-28.69012,-35.50843,14.80658
89.16,84.0932800000002,-21.74032,11.70436,0.8774834,0.8133931,-0.3534955,-28.69012,-35.50843,14.80658
89.17,68.3501099999999,-24.2144,5.109974,0.9025633,0.6691955,-0.3199624,-28.35542,-34.81321,16.82124
89.18,48.56226,-22.4472,8.59034699999998,0.9736704,0.3972299,-0.3266368,-28.35542,-34.81321,16.82124
89.19,36.92601,-26.33503,13.10873,0.9124689,0.286922,-0.3241365,-28.35542,-34.81321,16.82124
89.2,26.65873,-30.87083,16.52804,0.8394623,0.1181566,-0.2474798,-28.35542,-34.81321,16.82124
89.21,24.48082,-31.63662,11.64331,0.8261031,0.02322377,-0.1917427,-28.35542,-34.81321,16.82124
89.22,29.08554,-32.52021,11.15483,1.033521,-0.08480813,-0.1156798,-29.81257,-32.95853,18.80061
89.23,39.2906,-32.52021,9.81153100000001,1.152501,0.016328,-0.05869731,-29.81257,-32.95853,18.80061
89.24,45.57542,-29.6338,8.83458400000002,1.106327,0.1713109,-0.05896575,-29.81257,-32.95853,18.80061
89.25,48.81116,-27.98441,11.21589,1.075121,0.2452135,-0.1008691,-29.81257,-32.95853,18.80061
89.26,46.07322,-26.74738,16.40592,1.088186,0.2595836,-0.1283098,-29.81257,-32.95853,18.80061
89.27,37.8594,-23.44861,20.68006,1.155463,0.2854585,-0.1078136,-29.84785,-31.84521,20.36271
89.28,27.34321,-16.67436,22.75607,1.230739,0.2848709,-0.07722016,-29.84785,-31.84521,20.36271
89.29,18.63158,-8.83979699999999,23.3056,1.23641,0.2449187,-0.05847202,-29.84785,-31.84521,20.36271
89.3,10.66666,-4.421808,23.00031,1.233957,0.1964695,-0.0624429,-29.84785,-31.84521,20.36271
89.31,1.706121,-2.36008,23.00031,1.245233,0.1303838,-0.04856197,-29.84785,-31.84521,20.36271
89.32,-4.703152,2.116815,22.69501,1.216978,0.07576248,-0.01738659,-30.61881,-30.78035,22.3611
89.33,-7.19219,9.362315,25.13738,1.275451,-0.009331179,0.04772537,-30.61881,-30.78035,22.3611
89.34,-3.707536,17.07907,29.47258,1.341132,-0.02354424,0.07826478,-30.61881,-30.78035,22.3611
89.35,1.021636,23.55879,35.33426,1.315179,-0.05755739,0.08536296,-30.61881,-30.78035,22.3611
89.36,7.99094200000002,30.33304,43.08878,1.254405,-0.1798605,0.1520176,-31.02563,-28.60285,22.32261
89.37,12.03563,39.99371,49.56105,1.152313,-0.1349333,0.177426,-31.02563,-28.60285,22.32261
89.38,10.0444,50.00781,50.2327,1.121309,-0.1477229,0.1811789,-31.02563,-28.60285,22.32261
89.39,6.621972,65.5591400000003,49.49999,1.100099,-0.2091779,0.1467311,-31.02563,-28.60285,22.32261
89.4,1.706121,81.6406100000001,55.78908,1.109016,-0.3748737,0.1184101,-31.02563,-28.60285,22.32261
89.41,-0.09843135,95.6603599999998,57.19344,1.147255,-0.4602562,0.1159124,-32.80698,-27.22747,20.70382
89.42,-4.640926,113.9803,66.4744299999998,1.137513,-0.5036145,0.0926317,-32.80698,-27.22747,20.70382
89.43,-5.449863,132.1235,75.2669500000002,1.144999,-0.4608536,0.05220883,-32.80698,-27.22747,20.70382
89.44,-7.254416,145.7309,85.34171,1.193111,-0.3973925,0.01820837,-32.80698,-27.22747,20.70382
89.45,-0.782916799999998,153.1531,83.5709999999999,1.248508,-0.1723936,-0.03279778,-32.80698,-27.22747,20.70382
89.46,7.61758699999998,155.8628,73.6794100000003,1.362048,-0.02268731,-0.1113211,-36.42027,-24.78665,16.96508
89.47,22.9874,152.1517,60.97911,1.376315,0.150517,-0.234927,-36.42027,-24.78665,16.96508
89.48,39.66395,146.6145,42.6003,1.344782,0.2403055,-0.3921262,-36.42027,-24.78665,16.96508
89.49,53.66479,138.0141,29.47258,1.307203,0.283182,-0.4876757,-36.42027,-24.78665,16.96508
89.5,58.7050900000001,133.3016,18.23769,1.285501,0.271187,-0.5109197,-36.42027,-24.78665,16.96508
89.51,54.84708,132.6536,10.6053,1.263174,0.261989,-0.4921777,-41.1092,-22.0277,10.05086
89.52,42.71302,132.5358,3.583495,1.279937,0.2713887,-0.4308306,-41.1092,-22.0277,10.05086
89.53,22.42736,134.6565,-0.751705800000001,1.309242,0.2849599,-0.3472448,-41.1092,-22.0277,10.05086
89.54,-3.95644,138.2498,-2.583481,1.353356,0.2782023,-0.2766935,-41.1092,-22.0277,10.05086
89.55,-32.26925,140.8416,-2.522422,1.40197,0.2720041,-0.2548667,-41.1092,-22.0277,10.05086
89.56,-61.0798599999998,140.7238,-0.01899582,1.400053,0.2700226,-0.2582538,-43.61171,-19.26342,4.358013
89.57,-80.9299500000003,138.8977,0.5305366,1.387264,0.2327026,-0.2535415,-43.61171,-19.26342,4.358013
89.58,-100.78,132.9482,-0.873824100000001,1.306702,0.2269488,-0.2851273,-43.61171,-19.26342,4.358013
89.59,-114.8431,125.1136,-6.30808999999999,1.242113,0.2168579,-0.275182,-43.61171,-19.26342,4.358013
89.6,-123.1191,116.8078,-13.51307,1.178236,0.1232821,-0.2398393,-43.61171,-19.26342,4.358013
89.61,-124.0525,108.9732,-20.29064,1.098378,0.08070452,-0.2237302,-44.65144,-18.65592,-3.309338
89.62,-120.5679,101.6688,-26.57973,1.029886,0.008051844,-0.1719478,-44.65144,-18.65592,-3.309338
89.63,-118.1411,94.0698900000001,-30.42646,0.952805,-0.01809811,-0.1611041,-44.65144,-18.65592,-3.309338
89.64,-116.2743,85.6462600000001,-33.84577,0.8702051,-0.02871692,-0.1405904,-44.65144,-18.65592,-3.309338
89.65,-111.6073,77.0459099999998,-37.08191,0.7853497,-0.05916012,-0.1162647,-44.65144,-18.65592,-3.309338
89.66,-104.5758,68.9757100000001,-38.48627,0.70121,-0.1063024,-0.1194783,-44.59946,-18.04319,-10.20804
89.67,-92.3795199999999,59.9630099999997,-37.75356,0.6121971,-0.1520352,-0.1231841,-44.59946,-18.04319,-10.20804
89.68,-78.5031399999999,51.36266,-35.55543,0.5413725,-0.1685496,-0.1224371,-44.59946,-18.04319,-10.20804
89.69,-64.7511999999999,41.23074,-32.07506,0.4674792,-0.1667637,-0.128897,-44.59946,-18.04319,-10.20804
89.7,-54.29724,32.80711,-27.92303,0.3966593,-0.1352572,-0.1159831,-44.59946,-18.04319,-10.20804
89.71,-48.07464,24.38348,-25.35855,0.3311544,-0.09656861,-0.1160689,-42.72648,-18.12615,-14.55032
89.72,-47.51461,17.13798,-22.91618,0.3334396,-0.08528378,-0.1010797,-42.72648,-18.12615,-14.55032
89.73,-50.56368,14.07484,-21.26759,0.3508146,-0.02356801,-0.08787339,-42.72648,-18.12615,-14.55032
89.74,-54.9195,13.83921,-21.63394,0.3889346,0.005801638,-0.08385155,-42.72648,-18.12615,-14.55032
89.75,-57.5952099999998,15.72422,-20.90123,0.4119122,0.03998481,-0.06972488,-42.72648,-18.12615,-14.55032
89.76,-59.3997699999999,17.66813,-23.46572,0.4545865,0.04347195,-0.04210205,-42.34096,-18.1615,-16.56873
89.77,-61.3910000000001,20.31893,-22.36665,0.4809374,0.03161843,-0.03771663,-42.34096,-18.1615,-16.56873
89.78,-61.9510299999998,21.96831,-24.87008,0.5205715,0.05049794,-0.01778932,-42.34096,-18.1615,-16.56873
89.79,-62.8844199999998,24.20676,-30.3654,0.5689528,0.01391453,0.01555268,-42.34096,-18.1615,-16.56873
89.8,-63.00887,25.09035,-32.99094,0.6120765,-0.02910228,0.03776867,-42.34096,-18.1615,-16.56873
89.81,-63.8800400000001,22.49847,-34.45636,0.6495734,-0.03981745,0.0513537,-42.01287,-18.20263,-18.96681
89.82,-64.0044900000003,16.72563,-40.50122,0.7175997,-0.04575871,0.08481224,-42.01287,-18.20263,-18.96681
89.83,-63.0711000000002,13.60358,-38.91368,0.7388485,-0.0842561,0.09057486,-42.01287,-18.20263,-18.96681
89.84,-56.53737,6.94714900000003,-40.50122,0.7690241,-0.08742578,0.08871568,-42.01287,-18.20263,-18.96681
89.85,-46.39454,-0.2394456,-43.79842,0.7594695,-0.1030614,0.0804541,-42.01287,-18.20263,-18.96681
89.86,-33.32709,-4.362901,-44.47007,0.7282187,-0.1429057,0.08945627,-41.99471,-18.58473,-20.16147
89.87,-16.89944,-9.25214300000002,-43.49312,0.7116385,-0.1433302,0.1101622,-41.99471,-18.58473,-20.16147
89.88,-3.209729,-10.96043,-40.07381,0.6956005,-0.1071556,0.1637615,-41.99471,-18.58473,-20.16147
89.89,4.132934,-8.01510600000002,-38.42521,0.6962087,-0.08531252,0.2236461,-41.99471,-18.58473,-20.16147
89.9,2.888415,-1.240856,-37.44826,0.7184941,-0.08629615,0.2560322,-41.99471,-18.58473,-20.16147
89.91,-4.018666,5.238861,-34.57848,0.7213814,-0.0386094,0.2821998,-41.61489,-19.31214,-20.14632
89.92,-15.09489,9.597941,-31.22023,0.7553945,0.006456135,0.312785,-41.61489,-19.31214,-20.14632
89.93,-27.66453,12.42545,-30.60964,0.8337387,-0.007270761,0.332742,-41.61489,-19.31214,-20.14632
89.94,-37.55846,9.89247400000003,-28.04515,0.9493726,-0.01602164,0.3889971,-41.61489,-19.31214,-20.14632
89.95,-47.0168,8.773251,-25.23643,1.083887,0.02460511,0.484011,-41.57806,-21.07154,-20.56041
89.96,-52.99049,7.06496200000002,-26.39655,1.228104,0.01499003,0.5803894,-41.57806,-21.07154,-20.56041
89.97,-61.14209,6.65261700000002,-25.11431,1.472594,0.01716823,0.7701838,-41.57806,-21.07154,-20.56041
89.98,-65.9334900000002,15.5475,-24.74796,1.650715,-0.003028393,0.951073,-41.57806,-21.07154,-20.56041
89.99,-76.4496800000001,35.04556,-23.83207,1.607489,0.05553301,1.094887,-41.57806,-21.07154,-20.56041
90,-92.19284,52.65861,-21.3897,1.36874,0.1230464,1.060156,-41.57806,-21.07154,-20.56041
90.01,-100.7178,59.2561399999998,-16.62709,1.106145,0.02833202,0.8744583,-41.91584,-21.81996,-22.13181
90.02,-90.3260699999997,48.59406,-16.74921,1.048954,-0.154033,0.7195032,-41.91584,-21.81996,-22.13181
90.03,-70.22708,32.27695,-23.58783,1.064497,-0.3117777,0.5488644,-41.91584,-21.81996,-22.13181
90.04,-46.64344,8.18418499999999,-28.47257,1.206302,-0.4324814,0.2990104,-41.91584,-21.81996,-22.13181
90.05,-24.67768,-16.1442,-28.96104,1.408906,-0.484427,0.1609297,-41.1697,-21.14603,-24.97979
90.06,-7.68999800000001,-27.33644,-32.86882,1.420698,-0.4074362,0.208898,-41.1697,-21.14603,-24.97979
90.07,-8.62338600000002,-27.74879,-42.21088,1.212361,-0.2269657,0.2232251,-41.1697,-21.14603,-24.97979
90.08,-19.63738,-30.22286,-44.16477,0.9009306,0.001803109,0.2620002,-41.1697,-21.14603,-24.97979
90.09,-36.56284,-36.29023,-47.27879,0.745621,0.1773905,0.2793489,-41.1697,-21.14603,-24.97979
90.1,-53.17717,-44.47824,-46.54608,0.6648201,0.2891327,0.2899967,-41.1832,-20.42099,-24.99146
90.11,-60.4576100000001,-56.7897,-46.91243,0.6206906,0.2921898,0.2382568,-41.1832,-20.42099,-24.99146
90.12,-57.8441199999999,-72.7533599999999,-53.44576,0.5773414,0.2996386,0.2429865,-41.1832,-20.42099,-24.99146
90.13,-54.42169,-85.1237299999999,-58.9410899999997,0.6097947,0.2541144,0.2646871,-41.1832,-20.42099,-24.99146
90.14,-53.11494,-92.78158,-61.0170999999999,0.6462407,0.2092159,0.2453825,-41.1832,-20.42099,-24.99146
90.15,-53.67498,-97.31738,-57.5367300000002,0.6685596,0.1256501,0.1902499,-41.18111,-21.12646,-23.7793
90.16,-51.74597,-105.9177,-48.3168,0.7419298,0.04854576,0.1101703,-41.18111,-21.12646,-23.7793
90.17,-44.90112,-113.1632,-34.09001,0.9126806,-0.06303098,0.09396411,-41.18111,-21.12646,-23.7793
90.18,-33.70045,-114.7537,-14.00154,1.153745,-0.1758374,0.1483888,-41.18111,-21.12646,-23.7793
90.19,-24.11765,-107.9206,2.48443,1.381749,-0.2060176,0.2531425,-41.18111,-21.12646,-23.7793
90.2,-25.42439,-93.07611,17.26075,1.660592,-0.227161,0.4034063,-42.59566,-22.15237,-20.55276
90.21,-49.00803,-68.0997500000001,31.42648,1.941405,-0.277917,0.6481911,-42.59566,-22.15237,-20.55276
90.22,-93.2506899999999,-36.64367,38.08192,2.098004,-0.3257121,0.7927743,-42.59566,-22.15237,-20.55276
90.23,-123.4925,0.05508697,21.10748,1.770288,-0.2551095,0.748169,-42.59566,-22.15237,-20.55276
90.24,-116.461,29.33162,-4.232078,0.9926598,-0.2006727,0.4818437,-42.59566,-22.15237,-20.55276
90.25,-73.8361899999999,28.62475,-27.92303,0.4907281,-0.1321381,0.1462902,-45.17227,-22.4653,-18.54941
90.26,-12.60585,0.3496196,-46.42396,0.1778383,-0.04835252,-0.2172133,-45.17227,-22.4653,-18.54941
90.27,53.78924,-52.78405,-55.52177,0.000456275,0.01932054,-0.6590575,-45.17227,-22.4653,-18.54941
90.28,110.9749,-106.4479,-50.63704,0.08003929,-0.07352831,-0.8260137,-45.17227,-22.4653,-18.54941
90.29,143.8302,-141.3206,-24.25949,0.635003,-0.3491546,-0.6915089,-45.17227,-22.4653,-18.54941
90.3,143.0835,-142.3809,2.362312,1.266829,-0.1189541,-0.3448447,-45.21954,-19.92765,-18.59025
90.31,93.6138499999998,-87.0087399999999,17.9324,1.74941,0.3488916,0.07963587,-45.21954,-19.92765,-18.59025
90.32,19.19161,-20.79782,17.68816,2.07429,0.8872595,0.1458101,-45.21954,-19.92765,-18.59025
90.33,-12.85475,-2.713519,-12.96354,2.072822,1.270703,-0.1009169,-45.21954,-19.92765,-18.59025
90.34,-36.18948,9.77466099999997,-0.3242917,1.531816,1.240392,-0.2037126,-45.21954,-19.92765,-18.59025
90.35,-84.2279199999999,0.05508697,5.659506,0.9261531,0.8996015,-0.4940889,-46.62113,-23.02294,-12.54959
90.36,-114.6564,-13.25779,12.62025,0.8464384,0.5113858,-0.5959818,-46.62113,-23.02294,-12.54959
90.37,-129.9017,-32.4024,9.56729399999998,0.9230841,0.2898803,-0.4867217,-46.62113,-23.02294,-12.54959
90.38,-127.1638,-44.89058,2.362312,1.100577,-0.02791932,-0.3030961,-46.62113,-23.02294,-12.54959
90.39,-102.0868,-46.12762,8.65140600000003,1.157823,-0.0763371,-0.08880082,-46.62113,-23.02294,-12.54959
90.4,-79.9343300000001,-37.64508,9.50623499999999,1.09915,-0.0304482,0.0583239,-47.35531,-22.37211,-13.70456
90.41,-64.5022899999998,-27.33644,1.812779,1.000325,-0.07267672,0.07583255,-47.35531,-22.37211,-13.70456
90.42,-47.07903,-20.85673,-7.89562800000001,0.8943006,-0.03721522,-0.03149049,-47.35531,-22.37211,-13.70456
90.43,-30.83805,-25.09799,-16.99344,0.9767801,-0.082408,-0.175657,-47.35531,-22.37211,-13.70456
90.44,-14.84598,-31.81334,-17.23768,1.120555,-0.1718282,-0.1803039,-47.35531,-22.37211,-13.70456
90.45,-2.898599,-27.33644,-13.32989,1.135009,-0.1830148,-0.09246683,-48.4916,-20.5462,-13.36507
90.46,6.55974499999998,-17.26343,-10.15482,1.080024,-0.149296,-0.009537756,-48.4916,-20.5462,-13.36507
90.47,15.14693,-6.54244200000001,-4.537374,0.9953924,-0.1629231,0.05439367,-48.4916,-20.5462,-13.36507
90.48,27.34321,-0.828510700000001,1.263247,0.8466507,-0.1118483,0.05074202,-48.4916,-20.5462,-13.36507
90.49,41.09515,-2.006641,7.124927,0.7922204,-0.1066897,0.02600274,-48.4916,-20.5462,-13.36507
90.5,55.65602,-5.95337699999997,6.63645299999999,0.7716345,-0.03058404,0.004398566,-48.43775,-20.53423,-12.60628
90.51,63.1231300000001,-7.24932100000001,5.41527,0.766858,0.07126801,-0.02000478,-48.43775,-20.53423,-12.60628
90.52,62.9986799999999,-6.71916199999999,1.385365,0.7765197,0.1369321,-0.04493123,-48.43775,-20.53423,-12.60628
90.53,59.7007099999998,-6.483536,-2.156067,0.728007,0.1875491,-0.0782434,-48.43775,-20.53423,-12.60628
90.54,56.77609,-8.66307700000001,-6.61338600000002,0.6774225,0.251234,-0.1096026,-48.43775,-20.53423,-12.60628
90.55,49.93123,-13.96466,-9.05575200000003,0.6155141,0.2630472,-0.0880222,-48.81187,-20.51847,-11.78837
90.56,41.59296,-19.38406,-11.00964,0.6296522,0.3082438,-0.0792027,-48.81187,-20.51847,-11.78837
90.57,30.57896,-21.38688,-16.19967,0.6980933,0.3114526,-0.05103145,-48.81187,-20.51847,-11.78837
90.58,21.24507,-17.49905,-19.06946,0.6470162,0.269703,-0.07489783,-48.81187,-20.51847,-11.78837
90.59,16.57812,-20.26766,-20.29064,0.6055076,0.2510468,-0.1218522,-48.81187,-20.51847,-11.78837
90.6,11.04001,-25.09799,-19.43581,0.6319368,0.2436249,-0.1623341,-49.53819,-21.22639,-11.02546
90.61,2.577285,-28.22004,-15.83332,0.5957202,0.2326962,-0.2155314,-49.53819,-21.22639,-11.02546
90.62,-7.254416,-37.05602,-12.35295,0.5962908,0.1947031,-0.2961972,-49.53819,-21.22639,-11.02546
90.63,-15.40602,-47.12903,-6.97974100000003,0.6206896,0.1409204,-0.3242378,-49.53819,-21.22639,-11.02546
90.64,-19.4507,-53.43203,-4.659492,0.7225352,0.05674228,-0.3019588,-49.55065,-21.55594,-8.997745
90.65,-19.57516,-59.4404899999997,-2.278185,0.8611137,-0.01988629,-0.226006,-49.55065,-21.55594,-8.997745
90.66,-18.33064,-62.4447199999998,0.591595699999999,1.008404,-0.09772742,-0.1312139,-49.55065,-21.55594,-8.997745
90.67,-16.96167,-56.96642,2.728667,1.095043,-0.1415059,-0.01720306,-49.55065,-21.55594,-8.997745
90.68,-13.29033,-45.71527,1.568542,1.070307,-0.1718987,0.0675964,-49.55065,-21.55594,-8.997745
90.69,-2.027436,-36.52586,-2.522422,0.9571533,-0.1820516,0.05907942,-49.93048,-22.23224,-6.146285
90.7,14.58689,-33.05037,-5.57538,0.8214499,-0.1617416,0.01389606,-49.93048,-22.23224,-6.146285
90.71,29.52112,-33.52163,-6.36914899999998,0.674403,-0.1147176,-0.06407245,-49.93048,-22.23224,-6.146285
90.72,43.95754,-39.6479,-6.43020800000003,0.5982319,-0.06025969,-0.130261,-49.93048,-22.23224,-6.146285
90.73,55.96715,-44.36042,-6.91868199999998,0.5986379,0.001645076,-0.1349524,-49.93048,-22.23224,-6.146285
90.74,68.0389900000002,-49.83873,-9.605284,0.6157269,0.2124334,-0.1725765,-50.29944,-22.86873,-4.559474
90.75,71.8347700000002,-55.72938,-15.58908,0.7074958,0.443629,-0.2118943,-50.29944,-22.86873,-4.559474
90.76,68.1012100000001,-59.9117400000001,-27.12926,0.8396197,0.519748,-0.256267,-50.29944,-22.86873,-4.559474
90.77,60.75855,-59.9117400000001,-32.50247,0.8470907,0.4533559,-0.2727971,-50.29944,-22.86873,-4.559474
90.78,60.8207699999999,-63.9762899999998,-34.45636,0.7965617,0.4071848,-0.3043923,-50.29944,-22.86873,-4.559474
90.79,67.5411799999998,-72.6355500000002,-38.42521,0.937126,0.3916028,-0.275593,-51.06374,-23.16056,-0.5168362
90.8,63.6209399999999,-71.98758,-37.14297,1.096952,0.3052882,-0.1122648,-51.06374,-23.16056,-0.5168362
90.81,54.78486,-64.1530199999999,-30.97599,1.043894,0.1291153,-0.01578809,-51.06374,-23.16056,-0.5168362
90.82,58.3317400000002,-57.6143900000002,-33.60154,0.9457562,0.01755564,-0.01290318,-51.06374,-23.16056,-0.5168362
90.83,63.6831700000002,-57.8500099999997,-35.49437,1.047986,0.1233187,-0.07128311,-51.06374,-23.16056,-0.5168362
90.84,58.9540000000002,-63.3283200000003,-37.02085,1.285115,0.265622,-0.1649452,-51.4586,-23.81111,3.914219
90.85,44.3309,-65.2133299999998,-31.46447,1.49221,0.2859508,-0.235302,-51.4586,-23.81111,3.914219
90.86,28.52551,-62.6803500000001,-19.06946,1.6348,0.1384018,-0.1387417,-51.4586,-23.81111,3.914219
90.87,29.9567,-53.37312,-7.89562800000001,1.569273,-0.002588337,-0.04752957,-51.4586,-23.81111,3.914219
90.88,46.44658,-53.07859,-2.400303,1.489584,-0.0323939,0.04243746,-51.4586,-23.81111,3.914219
90.89,63.9943000000002,-55.14032,0.2863,1.538401,-0.03437275,0.1554755,-50.00024,-25.85598,8.827326
90.9,74.7593899999998,-49.95654,4.68256,1.559178,-0.04880098,0.2539381,-50.00024,-25.85598,8.827326
90.91,75.8794600000002,-37.17383,9.50623499999999,1.549583,0.02848493,0.2994391,-50.00024,-25.85598,8.827326
90.92,69.0968200000001,-25.98159,15.91745,1.564208,0.132974,0.2823296,-50.00024,-25.85598,8.827326
90.93,56.15383,-14.61264,22.5729,1.485478,0.3558659,0.2208395,-50.00024,-25.85598,8.827326
90.94,47.00661,-6.83697499999998,27.9461,1.398971,0.4755851,0.1557297,-49.3039,-25.50608,12.0518
90.95,39.47727,-0.946323799999999,32.83084,1.290482,0.5497952,0.1073546,-49.3039,-25.50608,12.0518
90.96,29.27222,4.06073,36.31121,1.284925,0.5343013,0.05808694,-49.3039,-25.50608,12.0518
90.97,18.00932,10.36373,40.95171,1.348255,0.4750503,0.03399545,-49.3039,-25.50608,12.0518
90.98,3.26177,18.96408,45.04267,1.314708,0.4295879,0.01257904,-49.3039,-25.50608,12.0518
90.99,-14.84598,27.62334,46.56915,1.238159,0.3411839,0.04210959,-50.79089,-25.1083,13.61164
91,-34.63383,38.52104,42.23395,1.177884,0.2851647,0.05341488,-50.79089,-25.1083,13.61164
91.01,-55.04395,50.42016,42.05077,1.226148,0.1062685,0.0830728,-50.79089,-25.1083,13.61164
91.02,-71.0360199999999,62.5549,49.80529,1.207739,-0.005165966,0.08471595,-50.79089,-25.1083,13.61164
91.03,-80.3076899999997,72.9224500000001,55.17849,1.169407,-0.1751294,0.1064489,-50.79089,-25.1083,13.61164
91.04,-78.4409100000003,80.3446699999999,58.2314499999999,1.05079,-0.2655367,0.05817633,-52.21949,-22.60071,11.15648
91.05,-67.8624999999999,84.5859399999999,61.4675899999999,0.9682067,-0.3741592,0.0514567,-52.21949,-22.60071,11.15648
91.06,-57.34631,90.94784,69.0389199999998,0.9753569,-0.4645491,0.05707141,-52.21949,-22.60071,11.15648
91.07,-46.33231,99.7838200000001,72.3361100000003,1.051541,-0.5713087,0.1192872,-52.21949,-22.60071,11.15648
91.08,-39.98527,120.5778,91.3865699999997,1.122602,-0.6891634,0.1365888,-52.21949,-22.60071,11.15648
91.09,-23.30871,138.6621,99.2021499999998,1.183453,-0.5043398,0.1863631,-54.03694,-20.56583,5.48168
91.1,-3.95644,154.3902,94.2563599999999,1.268222,-0.2523889,0.1470718,-54.03694,-20.56583,5.48168
91.11,15.70696,160.4575,78.0146200000001,1.284179,0.003003402,0.01303088,-54.03694,-20.56583,5.48168
91.12,28.33883,158.3958,63.9710100000001,1.276868,0.1366014,-0.08369308,-54.03694,-20.56583,5.48168
91.13,44.20645,150.5023,52.06448,1.260448,0.2706483,-0.2296595,-54.03694,-20.56583,5.48168
91.14,53.78924,140.9006,38.02087,1.274316,0.3146606,-0.2975685,-56.16637,-16.76273,-3.068458
91.15,54.53595,135.5401,28.19034,1.267586,0.3670819,-0.3278738,-56.16637,-16.76273,-3.068458
91.16,46.57103,133.066,20.00841,1.260354,0.3635456,-0.3380336,-56.16637,-16.76273,-3.068458
91.17,35.05923,131.4755,13.78038,1.25094,0.379539,-0.3274074,-56.16637,-16.76273,-3.068458
91.18,19.81387,130.0618,7.67445899999997,1.267083,0.3605706,-0.2984536,-56.16637,-16.76273,-3.068458
91.19,2.888415,130.3563,5.598447,1.336315,0.3308857,-0.2693859,-56.50867,-14.05249,-11.20517
91.2,-19.88629,133.3016,4.194087,1.406832,0.3257034,-0.2610119,-56.50867,-14.05249,-11.20517
91.21,-47.39016,137.5429,2.728667,1.444213,0.2912526,-0.3029713,-56.50867,-14.05249,-11.20517
91.22,-73.5250500000002,139.369,-0.812764999999999,1.457468,0.1934454,-0.3731169,-56.50867,-14.05249,-11.20517
91.23,-95.4908100000002,137.9552,-3.010895,1.425075,0.1761972,-0.3795107,-56.50867,-14.05249,-11.20517
91.24,-114.2831,134.951,-11.376,1.366044,0.2296341,-0.3066832,-56.09931,-12.4325,-19.19105
91.25,-136.1243,133.1249,-20.47382,1.301373,0.2734762,-0.2729773,-56.09931,-12.4325,-19.19105
91.26,-147.8228,128.9425,-30.18222,1.251168,0.223624,-0.2307497,-56.09931,-12.4325,-19.19105
91.27,-151.183,124.23,-33.84577,1.198516,0.1770877,-0.1943118,-56.09931,-12.4325,-19.19105
91.28,-146.4539,118.3394,-38.11992,1.134429,0.158034,-0.159292,-53.53959,-11.49304,-27.2723
91.29,-135.4399,111.1528,-40.92863,1.068664,0.1108895,-0.125302,-53.53959,-11.49304,-27.2723
91.3,-119.6967,99.9016299999999,-43.24888,0.9784992,0.0242711,-0.1006282,-53.53959,-11.49304,-27.2723
91.31,-107.6871,87.4723600000002,-44.28689,0.9304991,-0.04424819,-0.09076576,-53.53959,-11.49304,-27.2723
91.32,-91.8194900000001,69.0935199999999,-43.61524,0.8558971,-0.1279556,-0.07859185,-53.53959,-11.49304,-27.2723
91.33,-78.0053300000001,51.12704,-41.96664,0.8170214,-0.1833722,-0.07253811,-53.53959,-11.49304,-27.2723
91.34,-66.7424199999998,37.28401,-40.74546,0.7958385,-0.2057904,-0.07167584,-49.53123,-9.891254,-34.90803
91.35,-60.0842499999998,30.68647,-41.35605,0.7384035,-0.1966124,-0.07759482,-49.53123,-9.891254,-34.90803
91.36,-58.34192,27.85896,-42.76041,0.6358907,-0.1462765,-0.0956053,-49.53123,-9.891254,-34.90803
91.37,-61.3287699999998,26.79865,-43.79842,0.5689863,-0.1045098,-0.1285014,-49.53123,-9.891254,-34.90803
91.38,-66.1201700000001,23.91223,-43.73736,0.5270547,-0.0833141,-0.1565518,-46.65145,-8.874841,-38.12065
91.39,-68.8581099999998,19.72986,-42.76041,0.4707225,-0.0321513,-0.1763716,-46.65145,-8.874841,-38.12065
91.4,-70.7248899999999,14.07484,-42.76041,0.4046407,0.01761972,-0.1812605,-46.65145,-8.874841,-38.12065
91.41,-72.6538899999998,6.47589699999999,-43.85947,0.3348467,0.04848773,-0.1861996,-46.65145,-8.874841,-38.12065
91.42,-77.2586100000002,-1.888828,-40.13486,0.288847,0.0306494,-0.1926297,-46.65145,-8.874841,-38.12065
91.43,-82.6722699999999,-9.95902099999999,-37.57038,0.2770651,0.04453927,-0.1984209,-45.18517,-8.535213,-38.93395
91.44,-87.52589,-18.55937,-34.39531,0.2808721,0.05937817,-0.2196113,-45.18517,-8.535213,-38.93395
91.45,-88.7081900000001,-26.21722,-34.7006,0.3308102,0.01544665,-0.1973797,-45.18517,-8.535213,-38.93395
91.46,-84.7257300000003,-30.34067,-35.79966,0.3918449,-0.02343139,-0.1611147,-45.18517,-8.535213,-38.93395
91.47,-75.6407400000003,-32.10787,-31.15917,0.4657148,-0.08677647,-0.1123229,-45.18517,-8.535213,-38.93395
91.48,-64.93787,-29.81052,-29.63269,0.5274101,-0.104453,-0.03354636,-44.89342,-7.812151,-38.94272
91.49,-54.29724,-28.45567,-31.03705,0.5767055,-0.09139416,0.02982274,-44.89342,-7.812151,-38.94272
91.5,-48.75913,-28.33785,-31.83082,0.6417293,-0.1507391,0.100315,-44.89342,-7.812151,-38.94272
91.51,-41.85205,-27.68988,-29.14422,0.6822732,-0.1895311,0.16355,-44.89342,-7.812151,-38.94272
91.52,-37.68291,-28.98582,-26.64079,0.7001388,-0.196498,0.2335507,-44.89342,-7.812151,-38.94272
91.53,-36.68729,-29.16254,-25.78596,0.7231166,-0.2272351,0.2928974,-46.31216,-7.427133,-38.1405
91.54,-36.25171,-29.22145,-27.86197,0.7465286,-0.245135,0.3266977,-46.31216,-7.427133,-38.1405
91.55,-32.45592,-28.92692,-28.41151,0.7390082,-0.2859078,0.3729154,-46.31216,-7.427133,-38.1405
91.56,-25.36217,-26.983,-29.87693,0.7603142,-0.3140765,0.503198,-46.31216,-7.427133,-38.1405
91.57,-19.82406,-21.91704,-28.96104,0.8614242,-0.3121506,0.6815234,-46.31216,-7.427133,-38.1405
91.58,-24.67768,-5.364312,-26.88503,1.012002,-0.2647047,0.9271485,-47.04838,-7.416201,-37.76836
91.59,-34.94497,19.84768,-24.93114,1.277183,-0.1751742,1.07279,-47.04838,-7.416201,-37.76836
91.6,-43.34547,51.7161,-31.7087,1.566937,-0.006411153,1.023232,-47.04838,-7.416201,-37.76836
91.61,-41.60314,76.81028,-30.48752,1.73559,-0.05043336,0.8276575,-47.04838,-7.416201,-37.76836
91.62,-36.87397,94.1876999999998,-20.10746,1.582342,-0.2330438,0.7810276,-47.04838,-7.416201,-37.76836
91.63,-22.00197,102.6702,-0.6295875,1.284999,-0.2948917,0.5673237,-48.12237,-8.153694,-38.96762
91.64,-13.29033,84.2324999999998,6.27009799999998,1.104042,-0.2044374,0.2919987,-48.12237,-8.153694,-38.96762
91.65,-12.17027,53.71893,-1.606534,0.9289152,-0.1043447,0.166782,-48.12237,-8.153694,-38.96762
91.66,-4.329796,18.2572,-14.61214,0.7346522,-0.01460097,0.1437941,-48.12237,-8.153694,-38.96762
91.67,-4.516474,-15.26061,-27.49562,0.665202,0.1278197,0.1656359,-48.12237,-8.153694,-38.96762
91.68,-16.02827,-40.06025,-38.79156,0.6825486,0.2362579,0.2078955,-45.90582,-7.20571,-42.94386
91.69,-27.04227,-55.84719,-51.06446,0.7449188,0.3116902,0.2540607,-45.90582,-7.20571,-42.94386
91.7,-30.52692,-63.1515999999999,-58.9410899999997,0.8313275,0.3136927,0.2938568,-45.90582,-7.20571,-42.94386
91.71,-26.29556,-74.75619,-67.1840799999999,1.093524,0.2239417,0.3643097,-45.90582,-7.20571,-42.94386
91.72,-23.55762,-87.8923300000001,-69.8096199999998,1.476161,0.1509827,0.4220804,-45.90582,-7.20571,-42.94386
91.73,-28.34901,-99.61473,-63.7036999999999,1.932361,0.1520958,0.5265249,-44.51306,-7.195239,-41.73002
91.74,-37.49623,-96.7872200000002,-49.96539,2.343828,0.1175235,0.5767317,-44.51306,-7.195239,-41.73002
91.75,-45.58561,-76.16994,-26.82397,2.188303,0.1553417,0.6111554,-44.51306,-7.195239,-41.73002
91.76,-53.42607,-50.84014,-14.67319,1.750935,0.06246912,0.5113878,-44.51306,-7.195239,-41.73002
91.77,-65.4356799999998,-40.35478,-0.812764999999999,1.385279,-0.07054459,0.4594912,-44.51306,-7.195239,-41.73002
91.78,-83.2945299999999,-39.82462,10.42212,1.078969,-0.2643985,0.4249886,-47.35915,-9.614708,-39.31643
91.79,-101.2778,-46.53996,14.6352,0.7474555,-0.402218,0.3475946,-47.35915,-9.614708,-39.31643
91.8,-116.0876,-55.43485,13.65826,0.4768415,-0.4570712,0.2946634,-47.35915,-9.614708,-39.31643
91.81,-121.8746,-58.08564,-6.79656299999998,0.2685804,-0.4158001,0.2218328,-47.35915,-9.614708,-39.31643
91.82,-108.9939,-47.71809,-31.76976,0.1206524,-0.4265004,0.129744,-47.35915,-9.614708,-39.31643
91.83,-68.7336600000002,-34.46413,-44.7143,0.03295032,-0.226795,-0.1320769,-48.80955,-8.122552,-37.33123
91.84,-11.23688,-24.39112,-57.5977899999997,0.02817523,-0.01406696,-0.3632554,-48.80955,-8.122552,-37.33123
91.85,56.34051,-39.82462,-75.79342,0.1974047,0.1986816,-0.5814387,-48.80955,-8.122552,-37.33123
91.86,114.2106,-75.5808700000002,-80.0675700000002,0.7039051,0.09490764,-0.5591234,-48.80955,-8.122552,-37.33123
91.87,149.3683,-103.3848,-62.7878200000002,1.265576,0.1425812,-0.4272841,-48.80955,-8.122552,-37.33123
91.88,142.6479,-102.9135,-30.3654,2.067402,0.2337325,-0.0838582,-49.60646,-5.25848,-36.1834
91.89,104.1923,-87.7745199999998,-9.54422500000001,2.438068,0.6331378,0.254293,-49.60646,-5.25848,-36.1834
91.9,31.76126,-47.01122,20.19159,1.837724,0.6935849,0.390401,-49.60646,-5.25848,-36.1834
91.91,-26.79337,-27.68988,32.64766,1.165727,0.6466634,0.06332912,-49.60646,-5.25848,-36.1834
91.92,-66.5557500000002,-28.33785,23.18349,0.9382938,0.5737306,-0.2583092,-49.60646,-5.25848,-36.1834
91.93,-77.5697400000002,-39.11774,8.52928799999999,0.9114799,0.5822909,-0.6241319,-51.38979,-9.833015,-32.08216
91.94,-70.4759799999998,-54.72797,-15.46696,0.943474,0.5779452,-0.7567597,-51.38979,-9.833015,-32.08216
91.95,-62.8844199999998,-65.4489499999998,-28.22833,1.095862,0.419434,-0.6500642,-51.38979,-9.833015,-32.08216
91.96,-65.8090400000001,-66.6270799999998,-22.61089,1.240405,0.04334475,-0.3025822,-51.38979,-9.833015,-32.08216
91.97,-67.5513699999999,-48.77841,-12.35295,1.128091,-0.04140063,-1.340965e-05,-52.45618,-9.075487,-30.5241
91.98,-54.29724,-33.75725,-6.12491299999998,1.041946,0.04449517,0.09983668,-52.45618,-9.075487,-30.5241
91.99,-34.63383,-24.80346,-7.16291900000002,1.060144,0.1329716,0.07498129,-52.45618,-9.075487,-30.5241
92,-3.64531,-29.51598,-14.42896,1.075401,0.2119285,-0.08935877,-52.45618,-9.075487,-30.5241
92.01,20.43613,-44.1837,-17.23768,1.196452,0.1830942,-0.1706593,-52.45618,-9.075487,-30.5241
92.02,27.71657,-44.36042,-18.7031,1.27371,0.02093569,-0.1346175,-54.32464,-8.298389,-28.089
92.03,23.67188,-34.75866,-18.21463,1.179855,-0.1491097,-0.07442398,-54.32464,-8.298389,-28.089
92.04,21.49397,-25.03909,-18.3978,1.081414,-0.2460663,-0.008777114,-54.32464,-8.298389,-28.089
92.05,24.23191,-18.73609,-14.79531,1.041049,-0.1600986,0.05982553,-54.32464,-8.298389,-28.089
92.06,27.65434,-7.01369399999999,-10.94859,1.039668,-0.07179783,0.08558689,-54.32464,-8.298389,-28.089
92.07,37.98385,2.8826,-6.36914899999998,0.9682289,-0.009370935,0.04017726,-54.33605,-8.278813,-26.88851
92.08,49.93123,6.122458,-4.537374,0.9314843,0.0278707,0.01603512,-54.33605,-8.278813,-26.88851
92.09,63.9320800000002,7.83074699999998,-2.827718,0.8765705,0.09090175,-0.03029569,-54.33605,-8.278813,-26.88851
92.1,69.2835100000002,8.066372,-1.118061,0.8155428,0.1339773,-0.08392341,-54.33605,-8.278813,-26.88851
92.11,67.1678200000001,6.47589699999999,-1.545475,0.7582056,0.1456469,-0.1351964,-54.33605,-8.278813,-26.88851
92.12,61.0074499999997,-0.1805391,-2.949836,0.7185044,0.1415277,-0.1816323,-54.30589,-10.08524,-26.48023
92.13,54.4115,-7.60275900000002,-4.293138,0.6768032,0.1314793,-0.1865869,-54.30589,-10.08524,-26.48023
92.14,50.98907,-13.08107,-3.865723,0.6728101,0.1472691,-0.20297,-54.30589,-10.08524,-26.48023
92.15,52.04692,-14.78936,-1.91183,0.6421415,0.1392023,-0.1591544,-54.30589,-10.08524,-26.48023
92.16,55.03376,-15.90858,-2.583481,0.6369671,0.1664607,-0.1373945,-54.30589,-10.08524,-26.48023
92.17,57.21167,-17.26343,-3.560428,0.6577225,0.1760198,-0.1151232,-53.9173,-11.47109,-26.07528
92.18,56.52718,-18.55937,-3.438309,0.6619946,0.1871796,-0.1155707,-53.9173,-11.47109,-26.07528
92.19,53.54034,-23.09517,-4.415256,0.6627153,0.2147483,-0.1179223,-53.9173,-11.47109,-26.07528
92.2,49.1223,-29.16254,-6.97974100000003,0.6521137,0.2586435,-0.124611,-53.9173,-11.47109,-26.07528
92.21,43.45974,-36.64367,-11.6813,0.6477724,0.3079417,-0.127894,-53.9173,-11.47109,-26.07528
92.22,36.98824,-43.77136,-16.19967,0.6675062,0.3270356,-0.1205639,-53.91582,-12.17553,-24.79994
92.23,30.01893,-49.89764,-19.43581,0.691752,0.3316419,-0.1137358,-53.91582,-12.17553,-24.79994
92.24,21.49397,-53.96218,-22.42771,0.7065066,0.320873,-0.1397785,-53.91582,-12.17553,-24.79994
92.25,15.14693,-55.67048,-22.61089,0.7012331,0.2645796,-0.1524594,-53.91582,-12.17553,-24.79994
92.26,9.857721,-55.19922,-20.0464,0.7067495,0.09134676,-0.1552303,-53.91582,-12.17553,-24.79994
92.27,5.315227,-56.73079,-10.27693,0.7619395,-0.09258521,-0.1530707,-54.63187,-14.24633,-22.37188
92.28,3.635126,-59.32268,-3.010895,0.9311771,-0.2152483,-0.109951,-54.63187,-14.24633,-22.37188
92.29,5.253001,-56.73079,3.278199,1.114738,-0.2818696,0.01680695,-54.63187,-14.24633,-22.37188
92.3,18.69381,-48.13044,3.156081,1.074962,-0.2079609,0.08924558,-54.63187,-14.24633,-22.37188
92.31,42.02854,-40.35478,-3.133013,0.8340602,-0.08001548,0.1028933,-54.63187,-14.24633,-22.37188
92.32,60.8830000000001,-39.23556,-10.52117,0.6916889,0.02601134,0.06994069,-55.31635,-14.92168,-19.58651
92.33,70.4035699999998,-43.30011,-14.18472,0.6201677,0.106529,-0.008243575,-55.31635,-14.92168,-19.58651
92.34,74.3860300000001,-49.95654,-16.68815,0.5659193,0.218885,-0.1123725,-55.31635,-14.92168,-19.58651
92.35,73.0792799999999,-59.6761200000001,-19.98534,0.5654426,0.3482204,-0.204745,-55.31635,-14.92168,-19.58651
92.36,69.6568600000002,-66.6270799999998,-23.64889,0.5951262,0.4669327,-0.2671447,-55.31635,-14.92168,-19.58651
92.37,59.1406699999997,-69.16006,-27.49562,0.693947,0.5558047,-0.264286,-56.06249,-15.59561,-16.73853
92.38,42.33967,-69.3367799999998,-31.40341,0.9274161,0.5266843,-0.2072882,-56.06249,-15.59561,-16.73853
92.39,25.78756,-65.5078599999999,-31.03705,1.184744,0.4495842,-0.1783199,-56.06249,-15.59561,-16.73853
92.4,13.96463,-61.5022200000002,-24.80902,1.238423,0.2705019,-0.173741,-56.06249,-15.59561,-16.73853
92.41,11.28892,-60.9720599999998,-17.90933,1.170764,0.02727802,-0.200496,-56.06249,-15.59561,-16.73853
92.42,18.07155,-63.9762899999998,-13.75731,1.10992,-0.111408,-0.2323168,-57.52617,-17.63591,-12.73783
92.43,31.45013,-67.5106800000003,-9.11681100000001,1.239985,-0.1521055,-0.189122,-57.52617,-17.63591,-12.73783
92.44,46.63326,-66.6270799999998,-6.18597200000002,1.47644,-0.146526,-0.09729841,-57.52617,-17.63591,-12.73783
92.45,59.51403,-57.8500099999997,-6.24703100000001,1.517206,-0.1049851,-0.03437262,-57.52617,-17.63591,-12.73783
92.46,67.1678200000001,-53.31421,-6.00279399999997,1.423038,0.02621278,-0.001520118,-57.52617,-17.63591,-12.73783
92.47,68.1012100000001,-51.54702,-8.50621900000002,1.384652,0.1120817,0.05454115,-57.89296,-19.38741,-9.110666
92.48,65.7988499999999,-51.84155,-8.750456,1.433975,0.1801221,0.09727892,-57.89296,-19.38741,-9.110666
92.49,67.2300499999998,-46.71668,-5.392202,1.426638,0.342144,0.09278283,-57.89296,-19.38741,-9.110666
92.5,67.4789500000001,-40.06025,-2.522422,1.426323,0.3488097,0.1873759,-57.89296,-19.38741,-9.110666
92.51,69.0968200000001,-31.4599,1.568542,1.424814,0.3744895,0.2984135,-57.89296,-19.38741,-9.110666
92.52,67.7278600000002,-21.74032,5.476329,1.4259,0.4151234,0.2956083,-58.94654,-20.34806,-5.439335
92.53,60.0118399999998,-10.84262,9.445176,1.434824,0.4612482,0.251336,-58.94654,-20.34806,-5.439335
92.54,43.89532,2.411347,13.96355,1.486512,0.460183,0.1964565,-58.94654,-20.34806,-5.439335
92.55,23.67188,18.96408,21.04642,1.56396,0.4131681,0.1222426,-58.94654,-20.34806,-5.439335
92.56,0.5238282,36.40041,29.47258,1.533617,0.3531779,0.04386248,-58.94654,-20.34806,-5.439335
92.57,-20.50854,51.89282,36.00591,1.535314,0.1679615,0.05698004,-58.22114,-20.34045,-4.67417
92.58,-38.98965,68.56336,45.71432,1.490438,0.04464938,-0.0008241069,-58.22114,-20.34045,-4.67417
92.59,-54.23501,83.4078099999999,56.70497,1.323721,-0.2378908,-0.1152605,-58.22114,-20.34045,-4.67417
92.6,-54.23501,89.4162800000003,57.3766200000001,1.068671,-0.4414496,-0.196459,-58.22114,-20.34045,-4.67417
92.61,-44.96334,94.4822299999999,65.7417200000002,0.9518105,-0.6697029,-0.2377851,-58.58583,-18.64462,-8.307325
92.62,-22.562,96.9563099999998,71.3591699999999,0.9288657,-0.7867351,-0.1560626,-58.58583,-18.64462,-8.307325
92.63,-1.280725,110.387,90.5317500000002,1.041397,-1.035816,0.08303635,-58.58583,-18.64462,-8.307325
92.64,23.79633,124.6424,123.6869,0.953826,-0.6596742,0.06479972,-58.58583,-18.64462,-8.307325
92.65,58.7673199999998,128.3535,108.5442,1.075402,-0.08969295,0.0562051,-58.58583,-18.64462,-8.307325
92.66,75.9416800000001,131.3577,96.2102499999997,1.16706,0.07722161,-0.08024354,-58.58583,-18.64462,-8.307325
92.67,104.5034,122.993,86.6239499999999,1.164727,0.2599139,-0.2106276,-57.91685,-15.54458,-14.35494
92.68,116.9486,117.2201,80.64016,1.193693,0.3365074,-0.2210042,-57.91685,-15.54458,-14.35494
92.69,112.4683,117.7503,69.2221000000002,1.237126,0.3632168,-0.1947772,-57.91685,-15.54458,-14.35494
92.7,89.6936200000002,128.2946,60.5517,1.363181,0.3906239,-0.1625449,-57.91685,-15.54458,-14.35494
92.71,54.47373,139.0155,50.90435,1.282408,0.39401,-0.1468219,-56.85778,-9.634365,-22.08698
92.72,23.4852,145.1418,40.28006,1.214209,0.3632708,-0.1692611,-56.85778,-9.634365,-22.08698
92.73,4.941871,148.3228,26.17539,1.183677,0.314691,-0.216734,-56.85778,-9.634365,-22.08698
92.74,-3.583085,148.9707,13.2919,1.201721,0.2684789,-0.258286,-56.85778,-9.634365,-22.08698
92.75,-8.31225699999998,144.3171,3.583495,1.260349,0.2496716,-0.3011221,-56.85778,-9.634365,-22.08698
92.76,-16.52608,136.188,-0.3853508,1.365165,0.2670363,-0.2906809,-53.57955,-7.973588,-30.10975
92.77,-30.09134,130.4741,1.263247,1.45421,0.3032836,-0.2657634,-53.57955,-7.973588,-30.10975
92.78,-45.52338,131.5933,5.720566,1.465031,0.2874725,-0.2575661,-53.57955,-7.973588,-30.10975
92.79,-58.4663799999999,137.1895,5.78162499999999,1.471965,0.2320313,-0.2933761,-53.57955,-7.973588,-30.10975
92.8,-69.91595,143.6103,0.0420633,1.445364,0.2219997,-0.3093903,-53.57955,-7.973588,-30.10975
92.81,-87.1525400000001,148.8529,-7.77350999999998,1.41638,0.2593591,-0.3272391,-48.54473,-6.358953,-36.53513
92.82,-107.1893,149.7954,-17.48192,1.36042,0.2689622,-0.3408741,-48.54473,-6.358953,-36.53513
92.83,-122.3724,144.0226,-27.06821,1.320552,0.2644536,-0.3236149,-48.54473,-6.358953,-36.53513
92.84,-130.6485,134.4798,-30.79282,1.251369,0.2253031,-0.3122963,-48.54473,-6.358953,-36.53513
92.85,-130.8974,123.9355,-33.72365,1.194896,0.2227983,-0.2733609,-48.54473,-6.358953,-36.53513
92.86,-125.1726,109.8568,-37.50932,1.111477,0.1783705,-0.1916382,-43.44685,-5.040632,-42.57597
92.87,-115.8387,97.0152100000001,-41.29499,1.023498,0.1089929,-0.1355561,-43.44685,-5.040632,-42.57597
92.88,-104.078,83.70234,-44.77536,0.9549635,0.04257848,-0.0895509,-43.44685,-5.040632,-42.57597
92.89,-93.81071,70.2127500000001,-48.49997,0.8850402,-0.03111036,-0.04404752,-43.44685,-5.040632,-42.57597
92.9,-86.7791799999998,57.4889400000001,-50.63704,0.7989632,-0.08204269,-0.03665823,-43.44685,-5.040632,-42.57597
92.91,-83.0456199999998,45.70764,-52.22458,0.7156596,-0.1109069,-0.05285924,-38.49197,-0.5398874,-46.20379
92.92,-80.7432699999999,33.86743,-51.98034,0.6503059,-0.1348223,-0.07238115,-38.49197,-0.5398874,-46.20379
92.93,-80.0587800000002,24.44238,-51.0034,0.598475,-0.1522441,-0.08123816,-38.49197,-0.5398874,-46.20379
92.94,-79.4987499999999,16.96126,-48.86633,0.5454162,-0.1383462,-0.1040249,-38.49197,-0.5398874,-46.20379
92.95,-81.24107,10.54045,-47.46197,0.4956566,-0.1161076,-0.1171343,-38.49197,-0.5398874,-46.20379
92.96,-86.0324700000002,4.414169,-44.10371,0.4492565,-0.08854125,-0.1326362,-34.91592,1.23597,-47.02013
92.97,-93.3751400000001,-3.243678,-43.24888,0.3924296,-0.03782233,-0.1476328,-34.91592,1.23597,-47.02013
92.98,-103.0202,-11.25496,-41.29499,0.3565654,0.006764479,-0.163071,-34.91592,1.23597,-47.02013
92.99,-112.1051,-20.44438,-41.35605,0.3406278,-0.0007377479,-0.176157,-34.91592,1.23597,-47.02013
93,-117.7055,-28.16113,-36.89873,0.3088679,0.02112669,-0.1925986,-34.91592,1.23597,-47.02013
93.01,-118.2655,-35.05319,-35.37225,0.3192914,0.04602123,-0.1780417,-33.48799,2.635708,-45.82807
93.02,-113.6608,-38.88212,-35.43331,0.3219835,0.01891473,-0.1809883,-33.48799,2.635708,-45.82807
93.03,-105.1358,-43.65355,-31.03705,0.3512148,-0.04692979,-0.155962,-33.48799,2.635708,-45.82807
93.04,-97.2953700000003,-43.59464,-27.31244,0.368389,-0.06092688,-0.1665638,-33.48799,2.635708,-45.82807
93.05,-85.8457899999998,-44.94949,-22.36665,0.3702524,-0.005104444,-0.1495498,-33.48799,2.635708,-45.82807
93.06,-79.1876199999999,-44.06589,-25.72491,0.4350171,-0.07645703,-0.1220309,-34.65542,5.509367,-44.24144
93.07,-75.57851,-42.47541,-22.73301,0.5164701,-0.1156509,-0.08474883,-34.65542,5.509367,-44.24144
93.08,-76.2630000000003,-41.06166,-21.51182,0.6010755,-0.1305436,-0.0387205,-34.65542,5.509367,-44.24144
93.09,-79.2498500000001,-41.4151,-17.11556,0.7022265,-0.1378626,-0.02544655,-34.65542,5.509367,-44.24144
93.1,-83.73011,-44.30152,-19.13051,0.7998973,-0.1458912,0.01918258,-34.65542,5.509367,-44.24144
93.11,-88.0859300000001,-47.36465,-19.49687,0.8750835,-0.1419614,0.06763982,-36.11872,7.725535,-42.33109
93.12,-91.6950399999999,-53.66765,-16.99344,0.9695979,-0.1869406,0.1493376,-36.11872,7.725535,-42.33109
93.13,-93.81071,-59.26377,-16.99344,1.078386,-0.1442925,0.2225748,-36.11872,7.725535,-42.33109
93.14,-96.5486600000001,-59.4993999999998,-16.81027,1.221443,-0.1392269,0.3378012,-36.11872,7.725535,-42.33109
93.15,-97.0464600000002,-53.43203,-17.84827,1.358535,-0.1384588,0.5176646,-36.11872,7.725535,-42.33109
93.16,-92.5661999999997,-42.65213,-19.74111,1.582211,-0.1262203,0.8203433,-37.65397,9.902285,-39.15667
93.17,-81.9877899999999,-19.67859,-20.22958,1.767742,-0.02656084,1.083543,-37.65397,9.902285,-39.15667
93.18,-74.4584400000002,16.13657,-17.97039,2.057669,-0.04214052,1.250736,-37.65397,9.902285,-39.15667
93.19,-70.9115700000003,58.66707,-7.28503699999999,1.713229,0.02482947,0.9276493,-37.65397,9.902285,-39.15667
93.2,-68.4847599999999,83.5256200000002,-1.606534,1.034955,0.004451516,0.4915622,-37.65397,9.902285,-39.15667
93.21,-56.10179,63.3795899999998,-3.255132,0.8741047,-0.2551726,0.2845409,-40.21882,12.42253,-37.57754
93.22,-39.36301,48.0639,-11.0707,0.8500445,-0.2566393,0.1971343,-40.21882,12.42253,-37.57754
93.23,-37.68291,34.39759,-23.22148,0.795167,-0.1571468,0.00949521,-40.21882,12.42253,-37.57754
93.24,-39.61191,23.44097,-35.55543,0.7615889,-0.0801738,-0.06522098,-40.21882,12.42253,-37.57754
93.25,-43.71883,12.8378,-53.69,0.7111648,0.07811614,-0.1238817,-40.21882,12.42253,-37.57754
93.26,-56.35069,-1.594296,-70.84763,0.6444239,0.2639209,-0.1762522,-38.12458,14.87972,-37.9762
93.27,-79.8720999999998,-22.85955,-76.6482499999998,0.6537627,0.3662924,-0.2088214,-38.12458,14.87972,-37.9762
93.28,-97.9176300000003,-47.83591,-81.1666300000003,0.982769,0.550036,-0.08163258,-38.12458,14.87972,-37.9762
93.29,-119.8834,-73.8725900000001,-83.9142899999999,1.802999,0.7184718,0.0173547,-38.12458,14.87972,-37.9762
93.3,-132.7019,-58.9103299999999,-86.23454,2.914984,0.2638715,0.2696881,-38.14274,15.26181,-36.78155
93.31,-131.1463,1.645563,-32.07506,2.845805,-0.5019977,0.4579875,-38.14274,15.26181,-36.78155
93.32,-133.822,52.95314,9.323057,1.591091,-0.7612995,0.2645524,-38.14274,15.26181,-36.78155
93.33,-112.7274,46.47342,37.04392,1.213652,-1.188533,0.01173506,-38.14274,15.26181,-36.78155
93.34,-81.3033000000002,44.23497,67.4513799999998,1.05946,-1.269544,-0.03709165,-38.14274,15.26181,-36.78155
93.35,-60.8931900000002,53.89564,85.6470100000001,0.6086673,-0.9064204,-0.1648665,-39.93604,15.31244,-34.39738
93.36,-45.27448,38.46214,76.3049599999999,0.14839,-0.4792369,-0.4242639,-39.93604,15.31244,-34.39738
93.37,-28.47347,1.056498,52.00341,-0.08988225,-0.1538866,-0.6302273,-39.93604,15.31244,-34.39738
93.38,-2.151888,-40.70822,16.03956,-0.1283925,0.1182412,-0.6336021,-39.93604,15.31244,-34.39738
93.39,45.07761,-79.0563599999998,-22.73301,-0.01282173,0.4839392,-0.5905361,-39.93604,15.31244,-34.39738
93.4,78.8040799999998,-120.5265,-54.54483,0.5640255,0.5479907,-0.3736939,-37.52997,20.31727,-34.07521
93.41,76.6883899999998,-132.4257,-73.2289400000002,1.098455,0.6781853,0.02172418,-37.52997,20.31727,-34.07521
93.42,46.19768,-109.6288,-74.5111800000001,1.551933,0.7402024,0.3863863,-37.52997,20.31727,-34.07521
93.43,13.71573,-85.6538900000002,-61.9329899999998,1.817572,0.7719435,0.5627874,-37.52997,20.31727,-34.07521
93.44,-34.75829,-56.67188,-35.37225,1.858836,0.9287482,0.5815678,-37.52997,20.31727,-34.07521
93.45,-72.9650199999998,-37.52727,-9.05575200000003,1.311547,0.9584958,0.4364207,-39.38072,20.36211,-32.07072
93.46,-105.9448,-35.81898,-2.339244,0.9719145,0.8623456,0.1588376,-39.38072,20.36211,-32.07072
93.47,-127.7239,-48.13044,3.522436,0.8337203,0.7696801,-0.0144705,-39.38072,20.36211,-32.07072
93.48,-144.7738,-61.3254999999999,1.385365,0.8717832,0.6649786,-0.0657476,-39.38072,20.36211,-32.07072
93.49,-160.5169,-64.68317,-2.217126,0.9890653,0.5841277,-0.01012582,-39.38072,20.36211,-32.07072
93.5,-176.0112,-59.26377,-3.926783,1.032526,0.5067004,0.006226474,-41.87814,18.26297,-28.39484
93.51,-189.3275,-53.13749,-8.68939700000002,1.094226,0.4644231,-0.01252469,-41.87814,18.26297,-28.39484
93.52,-200.1549,-52.78405,-14.73425,1.234055,0.2903433,-0.06368848,-41.87814,18.26297,-28.39484
93.53,-202.3328,-54.66906,-11.376,1.331079,0.1080491,-0.07685897,-41.87814,18.26297,-28.39484
93.54,-196.3591,-55.9061,-6.24703100000001,1.354389,-0.09509355,-0.0844738,-41.87814,18.26297,-28.39484
93.55,-184.8473,-59.4404899999997,0.0420633,1.306841,-0.2586303,-0.09315132,-43.03692,21.57706,-22.01149
93.56,-178.998,-61.4433100000002,6.51433500000001,1.250565,-0.3271747,-0.07896736,-43.03692,21.57706,-22.01149
93.57,-172.4643,-55.55266,14.02461,1.199063,-0.2636769,-0.1301139,-43.03692,21.57706,-22.01149
93.58,-162.6948,-48.01263,24.22149,1.174182,-0.1902134,-0.1724844,-43.03692,21.57706,-22.01149
93.59,-153.4232,-38.94102,29.16729,1.161231,-0.1315969,-0.2611808,-43.03692,21.57706,-22.01149
93.6,-142.9692,-37.17383,26.2975,1.182147,-0.07265528,-0.289953,-44.61211,24.52419,-16.06865
93.61,-138.9245,-29.75161,21.41277,1.206343,0.01458572,-0.1898155,-44.61211,24.52419,-16.06865
93.62,-141.1024,-18.20593,17.99346,1.153183,0.1169166,-0.1202455,-44.61211,24.52419,-16.06865
93.63,-144.5871,-4.009462,12.19284,1.054324,0.2085908,-0.01269504,-44.61211,24.52419,-16.06865
93.64,-142.5336,2.52916,10.72742,0.9867703,0.2574571,-0.009386371,-44.61211,24.52419,-16.06865
93.65,-135.9377,-0.2983521,12.68131,0.9306253,0.2990925,-0.06589988,-43.98698,27.5113,-10.485
93.66,-131.5818,-6.13009700000001,14.14673,0.9357263,0.2352957,-0.1142788,-43.98698,27.5113,-10.485
93.67,-129.0928,-5.128686,18.23769,0.9593657,0.1587615,-0.1423701,-43.98698,27.5113,-10.485
93.68,-128.4083,-1.299763,24.46573,0.9609765,0.04062456,-0.1498582,-43.98698,27.5113,-10.485
93.69,-126.106,3.766197,32.09813,0.9116673,-0.02980479,-0.1892232,-43.98698,27.5113,-10.485
93.7,-119.8212,5.94573899999999,29.41152,0.8444597,-0.06904092,-0.1889984,-43.6808,28.95732,-6.902411
93.71,-113.723,5.238861,30.87694,0.7729152,-0.06649803,-0.1674627,-43.6808,28.95732,-6.902411
93.72,-106.1937,4.23745,27.88504,0.7356901,-0.05601077,-0.09997935,-43.6808,28.95732,-6.902411
93.73,-97.6065000000003,1.115404,22.87819,0.752476,0.01119954,-0.06746079,-43.6808,28.95732,-6.902411
93.74,-90.01493,-0.7106977,18.17664,0.8110517,0.04341294,-0.08750752,-43.6808,28.95732,-6.902411
93.75,-83.73011,-0.651791200000002,16.77227,0.8329113,0.05676522,-0.1279565,-43.07049,30.46177,-3.31789
93.76,-80.8677200000001,0.703058700000002,16.95545,0.7879856,0.03672278,-0.1647892,-43.07049,30.46177,-3.31789
93.77,-79.3120700000001,0.3496196,16.52804,0.7458278,0.02985642,-0.1919354,-43.07049,30.46177,-3.31789
93.78,-79.00094,-3.008052,16.40592,0.7064346,0.03430059,-0.2016784,-43.07049,30.46177,-3.31789
93.79,-78.6898100000001,-5.423219,18.78723,0.6869707,0.03749678,-0.2060647,-43.07049,30.46177,-3.31789
93.8,-75.88964,-8.36854599999998,19.03146,0.7280604,0.05874152,-0.1933668,-42.02089,31.88449,-0.8656454
93.81,-72.8405700000002,-10.25355,18.29875,0.7533516,0.09895658,-0.1565414,-42.02089,31.88449,-0.8656454
93.82,-72.0316299999998,-12.07966,14.87944,0.8038743,0.1460868,-0.1259092,-42.02089,31.88449,-0.8656454
93.83,-75.7651899999998,-11.37278,11.03271,0.8293008,0.1746003,-0.09875961,-42.02089,31.88449,-0.8656454
93.84,-78.6275900000001,-10.60699,8.28505100000002,0.8038965,0.1902976,-0.1069947,-42.02089,31.88449,-0.8656454
93.85,-80.9299500000003,-12.19747,5.659506,0.767633,0.1753028,-0.1283526,-42.42038,32.29472,1.905128
93.86,-82.7345000000001,-18.50047,1.995956,0.7564142,0.1380926,-0.1661004,-42.42038,32.29472,1.905128
93.87,-87.3392199999999,-25.86378,-0.5074692,0.7851551,0.1362405,-0.1814718,-42.42038,32.29472,1.905128
93.88,-92.3172900000002,-28.22004,-1.301238,0.7979364,0.1656144,-0.155318,-42.42038,32.29472,1.905128
93.89,-93.6240399999999,-27.63097,-2.278185,0.7777852,0.1849469,-0.140852,-42.42038,32.29472,1.905128
93.9,-92.0061600000002,-26.33503,-1.362298,0.8062127,0.2057011,-0.1180542,-42.08366,32.69402,4.303759
93.91,-91.57058,-25.39253,-0.6295875,0.904788,0.1620613,-0.1053476,-42.08366,32.69402,4.303759
93.92,-93.3129099999999,-22.68283,1.141128,0.9578519,0.0972961,-0.08846072,-42.08366,32.69402,4.303759
93.93,-95.6774999999997,-20.14985,4.804678,0.978821,0.03466494,-0.07551248,-42.08366,32.69402,4.303759
93.94,-97.0464600000002,-18.91281,8.83458400000002,0.977417,-0.01965816,-0.0876966,-42.10814,32.38507,7.595152
93.95,-95.1796899999999,-19.44297,10.84954,0.9521556,-0.06747561,-0.1090967,-42.10814,32.38507,7.595152
93.96,-88.2726099999999,-21.79923,11.46013,0.9247544,-0.09262126,-0.1367267,-42.10814,32.38507,7.595152
93.97,-77.1963900000003,-27.39535,12.19284,0.9072296,-0.07907489,-0.1753467,-42.10814,32.38507,7.595152
93.98,-64.4400600000002,-35.9957,11.70436,0.9043832,-0.0317623,-0.1853859,-42.10814,32.38507,7.595152
93.99,-54.48391,-45.30293,11.46013,0.91267,0.03033217,-0.2291429,-42.12213,31.35624,11.21413
94,-50.50145,-52.66624,11.88754,1.009893,0.0814657,-0.2239567,-42.12213,31.35624,11.21413
94.01,-50.6259,-53.25531,14.32991,1.118941,0.1129374,-0.2091314,-42.12213,31.35624,11.21413
94.02,-54.17279,-49.83873,20.68006,1.192043,0.1440452,-0.2035679,-42.12213,31.35624,11.21413
94.03,-59.3375400000002,-43.53573,25.38162,1.151096,0.1511385,-0.1867691,-42.12213,31.35624,11.21413
94.04,-63.5688999999998,-37.8218,27.88504,1.068799,0.1038781,-0.1513743,-41.79427,31.41981,15.26138
94.05,-61.6398999999998,-37.52727,28.49563,1.025694,0.02871832,-0.1308975,-41.79427,31.41981,15.26138
94.06,-52.43046,-41.53291,30.26635,1.043143,-0.04105544,-0.04896918,-41.79427,31.41981,15.26138
94.07,-42.47431,-44.1837,33.56355,1.108588,-0.03995168,0.01634607,-41.79427,31.41981,15.26138
94.08,-33.14041,-45.47964,35.8838,1.184803,-0.04370437,0.07058004,-41.79427,31.41981,15.26138
94.09,-25.23772,-44.24261,39.66946,1.221169,-0.08646565,0.07347719,-40.35863,31.81198,17.67045
94.1,-15.53047,-40.11915,42.9056,1.215729,-0.07353811,0.06287487,-40.35863,31.81198,17.67045
94.11,-2.400792,-34.11069,43.63831,1.197233,-0.05953293,0.02232318,-40.35863,31.81198,17.67045
94.12,11.04001,-30.5763,44.43208,1.142825,-0.06007619,0.00915287,-40.35863,31.81198,17.67045
94.13,19.31606,-29.57489,48.52304,1.075602,0.005722119,0.0115337,-40.35863,31.81198,17.67045
94.14,23.92079,-29.57489,50.96541,1.071707,0.042493,0.06709582,-39.34674,32.20074,19.69636
94.15,24.97863,-26.62956,58.4756899999998,1.139825,0.07631098,0.1088434,-39.34674,32.20074,19.69636
94.16,25.78756,-20.32657,64.0931200000001,1.215173,0.1753121,0.12807,-39.34674,32.20074,19.69636
94.17,20.24945,-10.07683,70.19904,1.350252,0.233974,0.1304746,-39.34674,32.20074,19.69636
94.18,8.862105,4.001824,75.02272,1.460422,0.2593353,0.1110288,-39.34674,32.20074,19.69636
94.19,-12.17027,23.44097,82.9604100000001,1.483704,0.2662484,0.1062782,-37.57172,35.0348,20.04716
94.2,-32.51815,37.99088,85.89125,1.435192,0.3121751,0.08936262,-37.57172,35.0348,20.04716
94.21,-62.2621599999998,60.19864,86.1965399999998,1.363807,0.247864,0.1030342,-37.57172,35.0348,20.04716
94.22,-90.63719,81.22826,84.1815899999998,1.297472,0.1801572,0.05832305,-37.57172,35.0348,20.04716
94.23,-117.581,99.0180400000002,85.5248899999998,1.218139,0.04325825,0.02597591,-37.57172,35.0348,20.04716
94.24,-136.1866,107.206,78.38097,1.079244,-0.05386225,-0.05131635,-34.73503,37.17793,19.21803
94.25,-150.2496,103.5538,71.7255199999998,0.9888062,-0.1533817,-0.06141452,-34.73503,37.17793,19.21803
94.26,-158.4635,96.30833,70.3822199999998,0.95885,-0.2873401,-0.0255886,-34.73503,37.17793,19.21803
94.27,-154.3566,87.7079800000002,70.19904,1.005942,-0.3418441,0.007228998,-34.73503,37.17793,19.21803
94.28,-141.9114,81.8762399999999,67.3903200000003,1.128263,-0.3501518,0.1064491,-34.73503,37.17793,19.21803
94.29,-124.9859,84.1146900000001,62.8719500000001,1.271119,-0.3003388,0.1402205,-34.77968,38.95071,20.45351
94.3,-101.4023,91.1245599999998,51.14859,1.345289,-0.1608041,0.09438708,-34.77968,38.95071,20.45351
94.31,-75.7651899999998,100.314,33.9299,1.374838,-0.07420481,0.01309871,-34.77968,38.95071,20.45351
94.32,-48.88358,110.8582,15.06262,1.303512,-0.05034201,-0.1221476,-34.77968,38.95071,20.45351
94.33,-25.29994,117.2201,-0.6295875,1.223328,-0.08266533,-0.2020445,-34.77968,38.95071,20.45351
94.34,-11.36133,120.1066,-12.96354,1.167041,-0.08156417,-0.2456166,-34.39566,38.21608,20.02637
94.35,-8.56116099999999,118.575,-20.71805,1.128707,-0.112773,-0.3451877,-34.39566,38.21608,20.02637
94.36,-14.09927,114.8639,-20.47382,1.080721,-0.1103221,-0.4070724,-34.39566,38.21608,20.02637
94.37,-25.98443,110.4459,-21.08441,1.067992,-0.1068406,-0.3858656,-34.39566,38.21608,20.02637
94.38,-46.45677,112.6843,-19.92428,1.088985,-0.07066242,-0.3635364,-34.39566,38.21608,20.02637
94.39,-63.3822300000003,116.1009,-18.27569,1.112899,-0.02603586,-0.3725472,-36.19295,38.16923,16.40749
94.4,-84.1656999999999,118.2216,-19.80217,1.171969,0.0443423,-0.347151,-36.19295,38.16923,16.40749
94.41,-104.5136,119.1641,-22.48877,1.160912,0.08437987,-0.351919,-36.19295,38.16923,16.40749
94.42,-121.9991,117.1612,-24.01525,1.122207,0.1146237,-0.3456807,-36.19295,38.16923,16.40749
94.43,-135.8132,110.7993,-30.85387,1.108385,0.133504,-0.3331295,-36.19295,38.16923,16.40749
94.44,-145.9561,106.0868,-34.09001,1.064929,0.09045348,-0.2937651,-39.02293,37.47685,13.54765
94.45,-154.1699,102.3757,-35.06696,1.073553,0.0876558,-0.2363255,-39.02293,37.47685,13.54765
94.46,-160.2058,101.2565,-37.87568,1.130767,0.08952267,-0.1864714,-39.02293,37.47685,13.54765
94.47,-164.9972,101.6688,-41.41711,1.17713,0.1115209,-0.1486658,-39.02293,37.47685,13.54765
94.48,-165.6194,101.3743,-45.50807,1.231474,0.1122745,-0.1123328,-39.02293,37.47685,13.54765
94.49,-165.1216,103.7895,-47.09561,1.269381,0.1050995,-0.08233247,-41.83049,34.58189,12.74567
94.5,-160.3302,103.3182,-52.52988,1.301032,0.1009471,-0.08708525,-41.83049,34.58189,12.74567
94.51,-151.9297,99.07694,-58.0251999999998,1.301088,0.05506976,-0.129648,-41.83049,34.58189,12.74567
94.52,-141.538,89.7697100000001,-65.4744299999999,1.289563,-0.008060988,-0.1438074,-41.83049,34.58189,12.74567
94.53,-132.7019,83.70234,-73.2289400000002,1.176711,-0.05532193,-0.1355142,-41.83049,34.58189,12.74567
94.54,-125.4215,78.9309100000002,-78.6021400000002,1.079941,-0.1007148,-0.1484076,-43.53411,31.37874,12.02218
94.55,-121.1279,73.5704200000002,-81.5329800000002,1.007967,-0.1449901,-0.1660601,-43.53411,31.37874,12.02218
94.56,-119.3856,66.3249200000001,-81.1055700000001,0.9421778,-0.1704838,-0.199098,-43.53411,31.37874,12.02218
94.57,-121.9369,56.72316,-79.3348499999998,0.8908476,-0.1856049,-0.2214601,-43.53411,31.37874,12.02218
94.58,-124.8615,47.65155,-75.7323599999998,0.8288513,-0.1976193,-0.2655578,-47.05627,27.52181,11.2288
94.59,-125.0481,40.70058,-71.0308099999998,0.7583306,-0.1882045,-0.2874341,-47.05627,27.52181,11.2288
94.6,-123.9281,32.33586,-63.3984100000001,0.6741372,-0.1697804,-0.3180122,-47.05627,27.52181,11.2288
94.61,-119.2611,24.97254,-55.09436,0.5978919,-0.1300848,-0.3046122,-47.05627,27.52181,11.2288
94.62,-115.0298,20.02439,-49.3548,0.5513205,-0.09867093,-0.2694387,-47.05627,27.52181,11.2288
94.63,-110.1139,18.2572,-41.47817,0.5326331,-0.09107003,-0.2159076,-49.15755,22.16485,11.67356
94.64,-105.9448,17.60923,-36.59343,0.5166321,-0.05361021,-0.1806422,-49.15755,22.16485,11.67356
94.65,-104.5136,17.3147,-32.31929,0.5062765,-0.04992128,-0.1386793,-49.15755,22.16485,11.67356
94.66,-103.2691,15.19406,-31.15917,0.4970349,-0.0588854,-0.1054265,-49.15755,22.16485,11.67356
94.67,-101.7756,14.13374,-29.14422,0.5029072,-0.07444534,-0.06539327,-49.15755,22.16485,11.67356
94.68,-98.9754699999999,11.9542,-27.00715,0.5218174,-0.08445711,-0.0118031,-50.50989,18.98508,12.53314
94.69,-96.6108899999997,11.30623,-26.3355,0.565618,-0.1021056,0.03218386,-50.50989,18.98508,12.53314
94.7,-94.8063399999999,13.83921,-26.0302,0.5926205,-0.08616252,0.05931051,-50.50989,18.98508,12.53314
94.71,-92.2550700000003,14.72281,-31.46447,0.6324509,-0.1426985,0.08776208,-50.50989,18.98508,12.53314
94.72,-90.9483299999997,17.66813,-31.76976,0.6465217,-0.1994488,0.1146991,-50.50989,18.98508,12.53314
94.73,-87.5881200000002,17.55032,-32.62459,0.6677506,-0.2402255,0.1358983,-51.18646,15.79375,12.95682
94.74,-80.8677200000001,14.6639,-34.39531,0.7024888,-0.2603945,0.1233983,-51.18646,15.79375,12.95682
94.75,-72.15608,13.60358,-31.52553,0.710816,-0.3146723,0.1078615,-51.18646,15.79375,12.95682
94.76,-62.7599700000003,8.89106399999999,-29.26634,0.7533571,-0.2896413,0.1099552,-51.18646,15.79375,12.95682
94.77,-56.91073,8.00746500000002,-29.99905,0.7778167,-0.2611529,0.1351721,-51.18646,15.79375,12.95682
94.78,-54.98172,9.65684799999998,-28.16727,0.7856784,-0.2175537,0.1333559,-52.24705,13.33704,13.80764
94.79,-53.92388,11.30623,-28.16727,0.791409,-0.1499053,0.1171095,-52.24705,13.33704,13.80764
94.8,-53.67498,12.71999,-24.74796,0.794454,-0.1116496,0.1171996,-52.24705,13.33704,13.80764
94.81,-51.49707,13.07343,-23.64889,0.8089766,-0.111805,0.1408816,-52.24705,13.33704,13.80764
94.82,-47.32793,12.95561,-22.24453,0.8412998,-0.0401925,0.1652463,-52.24705,13.33704,13.80764
94.83,-41.78982,15.42969,-21.93924,0.867764,-0.03299186,0.2425379,-52.87815,11.57582,13.00807
94.84,-37.06065,21.49706,-20.41276,0.8897145,-0.00754618,0.3077933,-52.87815,11.57582,13.00807
94.85,-36.25171,27.68224,-18.64204,0.9346181,0.05028724,0.402613,-52.87815,11.57582,13.00807
94.86,-40.66975,34.80993,-20.96229,1.001833,0.1033008,0.533671,-52.87815,11.57582,13.00807
94.87,-49.75474,44.58841,-23.22148,1.077873,0.0935576,0.6742679,-52.87815,11.57582,13.00807
94.88,-60.8931900000002,52.89423,-27.31244,1.208701,0.05918734,0.7739365,-53.58691,10.48682,12.63951
94.89,-68.8581099999998,56.48753,-23.52678,1.309927,0.04880709,0.7698323,-53.58691,10.48682,12.63951
94.9,-74.1473199999999,49.24203,-25.11431,1.415243,-0.02759552,0.7395391,-53.58691,10.48682,12.63951
94.91,-72.9027900000002,38.46214,-23.70995,1.284556,-0.1038325,0.6101977,-53.58691,10.48682,12.63951
94.92,-63.0711000000002,21.49706,-26.82397,1.112511,-0.1807314,0.4966722,-53.58691,10.48682,12.63951
94.93,-52.86604,2.175721,-32.56353,1.00947,-0.2146059,0.4253989,-54.63712,9.065132,10.25044
94.94,-45.89673,-16.1442,-39.46321,0.9464716,-0.2148061,0.3509235,-54.63712,9.065132,10.25044
94.95,-42.2254,-31.57771,-45.32489,0.9552476,-0.2040372,0.3036795,-54.63712,9.065132,10.25044
94.96,-37.68291,-40.76712,-49.90433,0.9926898,-0.1981571,0.2796613,-54.63712,9.065132,10.25044
94.97,-30.96251,-44.30152,-52.10246,1.023058,-0.2160327,0.2570213,-54.63712,9.065132,10.25044
94.98,-17.83283,-48.07153,-55.3386,1.082834,-0.2047295,0.224869,-56.00332,7.25442,9.823988
94.99,-4.5787,-57.8500099999997,-59.06321,1.279653,-0.1563872,0.2636019,-56.00332,7.25442,9.823988
95,-2.214114,-68.86553,-58.1473200000001,1.650323,-0.1159591,0.4007236,-56.00332,7.25442,9.823988
95.01,-8.06335400000001,-75.8165,-46.3629,2.066969,0.01199218,0.4908622,-56.00332,7.25442,9.823988
95.02,-22.99758,-76.3466599999998,-34.88378,2.448693,0.1007625,0.506514,-56.00332,7.25442,9.823988
95.03,-24.73991,-65.3900500000001,-24.13737,2.093746,0.382555,0.453124,-55.31265,4.819204,12.71351
95.04,-30.09134,-47.18793,-23.70995,1.245075,0.1882523,0.3544903,-55.31265,4.819204,12.71351
95.05,-44.02996,-47.48247,-15.46696,0.7072961,0.0111538,0.2851658,-55.31265,4.819204,12.71351
95.06,-72.09386,-49.13185,-2.64454,0.4146912,-0.1137653,0.1562672,-55.31265,4.819204,12.71351
95.07,-98.9132499999999,-51.3703,16.22274,0.2090328,-0.2830087,0.02798002,-55.31265,4.819204,12.71351
95.08,-111.6073,-57.26095,32.64766,-0.0007103473,-0.3576398,-0.176357,-55.29715,2.394526,15.97575
95.09,-103.0824,-53.54984,25.07632,-0.1140066,-0.08513338,-0.3932103,-55.29715,2.394526,15.97575
95.1,-59.8353500000001,-28.7502,-18.3978,0.007487245,0.2168715,-0.7068696,-55.29715,2.394526,15.97575
95.11,15.76919,-30.5763,-53.44576,0.5687721,0.04821805,-0.9475415,-55.29715,2.394526,15.97575
95.12,92.5560199999999,-51.31139,-60.5286300000003,1.08819,0.07580825,-1.125168,-55.29715,2.394526,15.97575
95.13,114.3351,-93.4295500000001,-57.5977899999997,1.925062,0.4063252,-0.7256442,-54.58061,2.066407,18.38953
95.14,79.30188,-108.274,-55.70495,2.297906,0.8146824,0.221991,-54.58061,2.066407,18.38953
95.15,41.40628,-67.5695900000003,-16.87133,1.571994,0.7440763,0.688522,-54.58061,2.066407,18.38953
95.16,17.44929,-55.43485,7.67445899999997,1.15318,0.749498,0.57888,-54.58061,2.066407,18.38953
95.17,-10.55239,-34.52303,1.385365,1.068537,0.6474069,0.2281118,-54.58061,2.066407,18.38953
95.18,-26.42001,-39.29446,-8.81151499999999,1.142888,0.5684769,-0.2129158,-53.84803,0.657938,21.2631
95.19,-33.70045,-57.6143900000002,-21.08441,1.160279,0.4438938,-0.4635816,-53.84803,0.657938,21.2631
95.2,-40.23417,-65.0955099999998,-20.16852,1.119496,0.2437624,-0.5109242,-53.84803,0.657938,21.2631
95.21,-54.73282,-65.2133299999998,-12.04765,1.077621,0.004622014,-0.3769153,-53.84803,0.657938,21.2631
95.22,-71.0982399999998,-57.4376699999999,-7.101859,1.074459,-0.1682453,-0.2257747,-53.84803,0.657938,21.2631
95.23,-78.1920000000002,-38.99993,-9.727403,1.094497,-0.1818448,-0.03562804,-52.7829,1.059698,24.11098
95.24,-70.9115700000003,-19.79641,-11.6813,1.088246,-0.1235666,0.0986297,-52.7829,1.059698,24.11098
95.25,-52.11933,-11.84403,-17.29874,1.030787,-0.1246273,0.1375657,-52.7829,1.059698,24.11098
95.26,-24.2421,-16.85108,-20.59593,1.00922,-0.1511397,0.1142907,-52.7829,1.059698,24.11098
95.27,3.510674,-24.45002,-19.31369,1.013265,-0.1619395,0.09401088,-51.72741,-0.6734567,25.72863
95.28,22.05401,-25.62815,-13.51307,1.005764,-0.126603,0.04822537,-51.72741,-0.6734567,25.72863
95.29,34.87255,-19.08953,-6.73550399999999,0.9520135,-0.1272369,-0.02863988,-51.72741,-0.6734567,25.72863
95.3,45.20206,-12.84544,-4.171019,0.9022202,-0.1346328,-0.1074397,-51.72741,-0.6734567,25.72863
95.31,52.9803,-7.367134,0.1031225,0.8349153,-0.1062837,-0.1254066,-51.72741,-0.6734567,25.72863
95.32,61.8786199999998,-5.423219,-3.499368,0.7844155,-0.01594659,-0.09976755,-51.3383,-2.118702,26.19774
95.33,71.3369599999998,-6.483536,-8.20092399999997,0.765666,0.1048145,-0.0551618,-51.3383,-2.118702,26.19774
95.34,76.0661299999997,-11.37278,-12.10871,0.7646189,0.2095678,-0.02984676,-51.3383,-2.118702,26.19774
95.35,75.9416800000001,-15.61405,-11.376,0.7798153,0.2582403,-0.06541155,-51.3383,-2.118702,26.19774
95.36,72.64371,-17.38124,-9.605284,0.7664059,0.293781,-0.08370658,-51.3383,-2.118702,26.19774
95.37,65.1765899999999,-19.79641,-5.331143,0.7389084,0.2820841,-0.1224065,-50.62955,-1.029708,26.5663
95.38,56.21605,-23.91986,-2.522422,0.7169092,0.2460123,-0.1321918,-50.62955,-1.029708,26.5663
95.39,46.75771,-26.33503,1.507483,0.6979496,0.2355513,-0.09558948,-50.62955,-1.029708,26.5663
95.4,39.72618,-26.86519,1.507483,0.7163851,0.2306572,-0.06418679,-50.62955,-1.029708,26.5663
95.41,35.74372,-26.80628,-0.3853508,0.7338477,0.2309165,-0.05062982,-50.62955,-1.029708,26.5663
95.42,32.57019,-27.45425,-4.659492,0.7171742,0.2448692,-0.04533479,-49.56013,0.3590121,26.93348
95.43,28.89886,-29.6338,-11.13176,0.6885876,0.2947177,-0.07377173,-49.56013,0.3590121,26.93348
95.44,23.60966,-32.75584,-19.80217,0.6459503,0.3433656,-0.1157589,-49.56013,0.3590121,26.93348
95.45,15.0847,-37.64508,-26.64079,0.6841831,0.3135405,-0.1287532,-49.56013,0.3590121,26.93348
95.46,5.56413,-43.77136,-30.54858,0.7369841,0.2876306,-0.1494223,-49.56013,0.3590121,26.93348
95.47,-2.649695,-49.89764,-30.12116,0.8081791,0.2211202,-0.1802648,-49.59601,1.473362,28.55875
95.48,-8.25003099999998,-52.3128,-25.96914,0.947059,0.07576519,-0.1585044,-49.59601,1.473362,28.55875
95.49,-8.99674200000002,-48.95513,-13.51307,1.005289,-0.07833666,-0.1249071,-49.59601,1.473362,28.55875
95.5,-4.765378,-45.53855,-5.636439,0.9247102,-0.1998036,-0.1089694,-49.59601,1.473362,28.55875
95.51,3.946256,-45.00839,-3.133013,0.816081,-0.2875297,-0.08386307,-49.59601,1.473362,28.55875
95.52,18.88048,-45.42074,-4.903729,0.6798572,-0.2788349,-0.07550983,-48.93017,0.776937,30.59868
95.53,38.60611,-49.19076,-5.025847,0.5463167,-0.2318293,-0.1138745,-48.93017,0.776937,30.59868
95.54,57.08722,-55.67048,-7.34609599999998,0.517939,-0.09832181,-0.1493693,-48.93017,0.776937,30.59868
95.55,68.0389900000002,-60.3830000000002,-9.36104799999999,0.6272136,0.006434487,-0.111706,-48.93017,0.776937,30.59868
95.56,75.81723,-62.9159700000002,-14.85637,0.8996298,0.1728516,-0.03199024,-48.93017,0.776937,30.59868
95.57,74.26158,-56.61298,-20.84017,1.097874,0.3159793,0.05134459,-47.84058,0.08392286,33.02178
95.58,64.0565299999998,-43.83027,-24.44266,0.900308,0.4459002,0.03229496,-47.84058,0.08392286,33.02178
95.59,58.6428700000002,-40.82603,-28.28939,0.5453833,0.4469073,-0.1384754,-47.84058,0.08392286,33.02178
95.6,58.8295399999997,-53.07859,-34.15107,0.3771267,0.3453135,-0.3099501,-47.84058,0.08392286,33.02178
95.61,59.76294,-72.3999300000001,-31.95294,0.3810204,0.2924026,-0.490527,-47.84058,0.08392286,33.02178
95.62,55.71825,-88.0101500000001,-31.40341,0.7051016,0.313252,-0.4973672,-46.43195,1.926179,35.40752
95.63,36.98824,-89.4239000000002,-23.70995,1.407872,0.1555853,-0.2367649,-46.43195,1.926179,35.40752
95.64,19.56497,-67.62849,-8.87257399999998,1.773582,0.006970825,-0.1290154,-46.43195,1.926179,35.40752
95.65,39.16615,-59.9706500000002,-3.499368,1.454838,-0.05199343,-0.1671205,-46.43195,1.926179,35.40752
95.66,59.6384800000001,-62.7392499999999,-8.01774599999998,1.101535,-0.01969157,-0.1443173,-46.43195,1.926179,35.40752
95.67,64.6165600000002,-66.6859899999998,-12.84142,1.324098,0.048815,0.01419741,-45.06156,2.32596,38.25829
95.68,61.7541700000002,-62.6803500000001,-12.35295,1.604892,0.1382741,0.1386464,-45.06156,2.32596,38.25829
95.69,63.1853599999998,-52.78405,-10.70435,1.636706,0.2390354,0.06945805,-45.06156,2.32596,38.25829
95.7,64.3676500000001,-42.59323,-6.43020800000003,1.480442,0.285926,-0.0152902,-45.06156,2.32596,38.25829
95.71,61.06968,-41.23838,-5.453262,1.39492,0.2127267,0.04416792,-45.06156,2.32596,38.25829
95.72,59.2651300000002,-40.35478,-2.766658,1.381415,0.2321673,0.1180049,-43.2819,4.09924,40.26938
95.73,58.5806399999999,-38.11633,2.850785,1.407678,0.3368438,0.1115419,-43.2819,4.09924,40.26938
95.74,61.5052600000001,-33.22709,5.354211,1.464801,0.4787004,0.06952993,-43.2819,4.09924,40.26938
95.75,60.0740599999997,-25.92269,7.552341,1.486611,0.5379081,0.06923092,-43.2819,4.09924,40.26938
95.76,53.54034,-17.73468,11.09377,1.552285,0.4644239,0.1276307,-43.2819,4.09924,40.26938
95.77,42.09076,-4.421808,14.9405,1.619398,0.4064953,0.1392604,-41.93888,6.593118,41.82245
95.78,21.99178,13.07343,20.43583,1.58547,0.3456709,0.131804,-41.93888,6.593118,41.82245
95.79,-2.525244,34.22087,22.81713,1.471084,0.2110192,0.1104699,-41.93888,6.593118,41.82245
95.8,-19.63738,53.83673,23.12243,1.400124,0.01640682,0.05727066,-41.93888,6.593118,41.82245
95.81,-31.02473,68.7989899999998,25.44268,1.381555,-0.2936774,0.08647418,-41.93888,6.593118,41.82245
95.82,-29.59353,83.0543699999998,37.16604,1.242961,-0.378926,0.03719604,-41.60167,8.746292,40.59043
95.83,-19.94851,97.4275600000002,42.96666,1.075434,-0.6067395,0.03434403,-41.60167,8.746292,40.59043
95.84,0.5860541,110.0336,57.25451,0.8937944,-0.7509294,-0.07356025,-41.60167,8.746292,40.59043
95.85,26.28537,120.5189,60.7348700000001,0.8365699,-0.808772,-0.1056804,-41.60167,8.746292,40.59043
95.86,46.50881,129.8261,69.4052699999997,0.9492363,-0.864476,-0.04808627,-43.0352,9.052372,36.52691
95.87,63.0609100000001,145.024,98.4694400000003,1.135241,-0.8361865,-0.07649867,-43.0352,9.052372,36.52691
95.88,82.5998599999998,149.3242,105.4302,1.223437,-0.3588502,-0.1862313,-43.0352,9.052372,36.52691
95.89,99.02751,144.0226,88.6389100000002,1.319489,0.1136024,-0.3075353,-43.0352,9.052372,36.52691
95.9,108.8592,132.7715,64.0931200000001,1.312081,0.4305559,-0.4637014,-43.0352,9.052372,36.52691
95.91,114.7707,122.9341,48.95046,1.352211,0.4601924,-0.4852489,-46.27444,12.82278,29.23098
95.92,105.8724,120.6956,36.43333,1.37632,0.5160999,-0.4247479,-46.27444,12.82278,29.23098
95.93,88.6980100000003,126.6452,29.71682,1.373772,0.4039829,-0.3521306,-46.27444,12.82278,29.23098
95.94,65.6121700000001,136.7771,20.74112,1.204981,0.3064956,-0.3378165,-46.27444,12.82278,29.23098
95.95,45.01538,140.4293,13.65826,1.192114,0.1728911,-0.3308986,-46.27444,12.82278,29.23098
95.96,30.70341,141.3129,8.52928799999999,1.250185,0.04369862,-0.325236,-47.70862,18.43992,21.03773
95.97,20.125,143.0801,11.03271,1.321634,-0.05647544,-0.3329879,-47.70862,18.43992,21.03773
95.98,14.52467,143.9637,15.55109,1.360538,-0.1047292,-0.3508456,-47.70862,18.43992,21.03773
95.99,11.7245,143.6692,21.53489,1.350377,-0.1035587,-0.3730665,-47.70862,18.43992,21.03773
96,12.78234,139.7813,19.88629,1.347484,-0.1130407,-0.348967,-47.70862,18.43992,21.03773
96.01,13.1557,137.7196,19.64206,1.348926,-0.06915775,-0.3141254,-49.13694,20.43327,12.96544
96.02,6.49751899999997,135.8935,16.16168,1.302004,0.04943449,-0.2710446,-49.13694,20.43327,12.96544
96.03,-2.525244,131.2988,6.51433500000001,1.23515,0.1767895,-0.2583969,-49.13694,20.43327,12.96544
96.04,-14.22372,122.6984,-5.75855699999999,1.153206,0.2377688,-0.1880251,-49.13694,20.43327,12.96544
96.05,-26.73114,113.9803,-15.10061,1.080095,0.2481612,-0.1534478,-49.13694,20.43327,12.96544
96.06,-39.30078,102.6702,-17.90933,0.9954562,0.2519088,-0.1478674,-49.44137,20.32952,6.454023
96.07,-48.9458,91.1834600000001,-19.49687,0.9016318,0.1919054,-0.1202506,-49.44137,20.32952,6.454023
96.08,-54.79504,79.5788800000003,-19.74111,0.8024169,0.1371614,-0.09504903,-49.44137,20.32952,6.454023
96.09,-58.8397299999998,68.9168000000001,-21.51182,0.7232865,0.06940221,-0.08140486,-49.44137,20.32952,6.454023
96.1,-61.3287699999998,58.1369100000002,-22.18347,0.6528919,0.01395126,-0.1053505,-49.44137,20.32952,6.454023
96.11,-60.7065099999998,44.88295,-22.24453,0.576408,-0.01912744,-0.111892,-49.40038,19.90828,2.85838
96.12,-57.7196700000003,32.33586,-22.48877,0.4998969,-0.05399282,-0.1020308,-49.40038,19.90828,2.85838
96.13,-53.30162,24.38348,-23.3436,0.4649967,-0.06584927,-0.09876843,-49.40038,19.90828,2.85838
96.14,-46.70567,14.95844,-24.19843,0.4310075,-0.0751515,-0.08150432,-49.40038,19.90828,2.85838
96.15,-40.5453,6.53480400000003,-24.80902,0.4207512,-0.07132042,-0.07717961,-49.40038,19.90828,2.85838
96.16,-38.24294,-0.651791200000002,-24.9922,0.4053992,-0.04658755,-0.05834662,-49.36668,18.50522,2.059355
96.17,-40.42085,-6.83697499999998,-27.12926,0.410386,-0.008307841,-0.05728637,-49.36668,18.50522,2.059355
96.18,-44.34108,-12.72763,-28.77786,0.4335143,0.00990179,-0.0436762,-49.36668,18.50522,2.059355
96.19,-48.38577,-15.55514,-29.99905,0.4531099,0.0397689,-0.02232931,-49.36668,18.50522,2.059355
96.2,-48.6969,-17.26343,-35.55543,0.4992619,0.03459406,0.007696617,-49.36668,18.50522,2.059355
96.21,-43.03434,-15.14279,-37.44826,0.5374575,-0.01011592,0.06077938,-49.64492,17.05712,2.079791
96.22,-31.77144,-12.25638,-37.75356,0.5663563,-0.04344179,0.09649087,-49.64492,17.05712,2.079791
96.23,-20.633,-5.541031,-34.63954,0.562236,-0.03801957,0.1640487,-49.64492,17.05712,2.079791
96.24,-12.23249,0.997591200000002,-35.73861,0.5625112,-0.02606445,0.2012314,-49.64492,17.05712,2.079791
96.25,-7.005512,3.294945,-36.95979,0.5732289,-0.03027924,0.2075231,-49.64492,17.05712,2.079791
96.26,-4.765378,1.704469,-39.89063,0.5755535,-0.02569034,0.2311839,-49.61694,14.96199,3.314318
96.27,-5.76099300000002,-0.5339782,-41.7224,0.5723612,-0.004637517,0.2606564,-49.61694,14.96199,3.314318
96.28,-9.43232400000002,-3.302584,-43.371,0.6010902,-0.01348534,0.2742229,-49.61694,14.96199,3.314318
96.29,-15.34379,-6.483536,-45.08066,0.6420466,0.01664075,0.3057589,-49.61694,14.96199,3.314318
96.3,-22.3131,-10.78371,-43.30994,0.7117411,-0.0106164,0.3353155,-49.61694,14.96199,3.314318
96.31,-29.15795,-15.49623,-38.91368,0.7860129,-0.05492099,0.3489232,-50.32255,13.51665,3.330693
96.32,-32.70483,-19.14844,-34.76166,0.8531426,-0.06674691,0.374646,-50.32255,13.51665,3.330693
96.33,-36.9362,-22.32939,-27.49562,0.9609429,-0.1215341,0.4307819,-50.32255,13.51665,3.330693
96.34,-40.17195,-21.09235,-24.32054,1.082704,-0.1164714,0.5107273,-50.32255,13.51665,3.330693
96.35,-45.58561,-13.84685,-21.87818,1.231053,-0.09617233,0.5936695,-50.32255,13.51665,3.330693
96.36,-51.8082,3.118226,-17.60404,1.364796,-0.08247709,0.7079253,-50.65727,11.41772,4.182634
96.37,-58.59083,25.67942,-14.24578,1.407592,-0.03417058,0.7148952,-50.65727,11.41772,4.182634
96.38,-64.0667100000002,45.70764,-11.43706,1.29218,0.03240396,0.7374204,-50.65727,11.41772,4.182634
96.39,-68.4847599999999,59.4917599999999,-3.194072,1.048675,-0.005919458,0.6696358,-50.65727,11.41772,4.182634
96.4,-65.8090400000001,60.5520800000001,3.94985,0.8556615,-0.08229598,0.5782546,-50.65727,11.41772,4.182634
96.41,-61.14209,49.65437,6.63645299999999,0.7223714,-0.1373474,0.439301,-50.63341,10.32397,3.821035
96.42,-55.29285,22.49847,0.652654899999998,0.6987432,-0.2084407,0.2518583,-50.63341,10.32397,3.821035
96.43,-50.6259,-12.96325,-8.13986499999999,0.7466877,-0.2072023,0.1342427,-50.63341,10.32397,3.821035
96.44,-50.6259,-41.94526,-16.56603,0.8019059,-0.1671921,0.0698096,-50.63341,10.32397,3.821035
96.45,-51.8082,-58.4390800000001,-23.58783,0.8473354,-0.1326659,0.04925139,-50.63341,10.32397,3.821035
96.46,-52.43046,-62.6803500000001,-30.73176,0.8821484,-0.07342345,0.09482812,-50.60174,9.216837,2.638044
96.47,-53.36385,-62.2090999999998,-37.02085,0.9024564,0.04333172,0.0912711,-50.60174,9.216837,2.638044
96.48,-52.86604,-60.79534,-41.96664,0.9127699,0.1353846,0.09390835,-50.60174,9.216837,2.638044
96.49,-48.57245,-61.3254999999999,-49.23268,0.9642375,0.08607127,0.1084115,-50.60174,9.216837,2.638044
96.5,-35.69168,-64.2708300000002,-50.63704,1.15923,0.09695796,0.233918,-50.26608,9.267008,5.863901
96.51,-22.37532,-68.92444,-51.67505,1.49603,0.07027511,0.3640523,-50.26608,9.267008,5.863901
96.52,16.95148,-69.7491299999999,-44.40901,2.196279,-0.07417884,0.4302093,-50.26608,9.267008,5.863901
96.53,81.16866,-70.8094500000001,-25.35855,3.134946,-0.05277721,0.3839387,-50.26608,9.267008,5.863901
96.54,122.4245,-79.7043299999999,-21.57288,3.293086,0.3519304,0.3697751,-50.26608,9.267008,5.863901
96.55,90.4403299999998,-43.83027,-7.101859,1.866714,-0.03559688,0.6441765,-50.26608,9.267008,5.863901
96.56,21.24507,-42.18088,6.63645299999999,0.8864352,-0.07109348,0.666182,-50.63038,7.569745,9.110992
96.57,-80.3699100000002,-43.94808,11.76542,0.4813832,-0.03444224,0.5730493,-50.63038,7.569745,9.110992
96.58,-147.9473,-38.35196,7.73551899999999,0.1078623,-0.1624701,0.1717778,-50.63038,7.569745,9.110992
96.59,-159.9569,-52.90187,5.41527,-0.2397356,-0.220275,-0.3523259,-50.63038,7.569745,9.110992
96.6,-144.4004,-72.6355500000002,11.09377,-0.4618317,0.113468,-0.819771,-49.54754,7.239253,11.52825
96.61,-87.4636700000001,-88.4814,-14.79531,-0.3423923,0.480271,-1.137157,-49.54754,7.239253,11.52825
96.62,-29.46908,-95.0789299999999,-46.05761,0.3416749,0.2951531,-1.058583,-49.54754,7.239253,11.52825
96.63,17.32483,-82.2962200000001,-46.42396,0.9555888,0.3124593,-0.9049592,-49.54754,7.239253,11.52825
96.64,38.35721,-61.3844000000002,-32.50247,1.612892,0.5681909,-0.5398375,-49.54754,7.239253,11.52825
96.65,13.34237,-74.4027499999999,-40.62334,2.426652,0.9776547,0.0460605,-48.52224,5.9088,15.60424
96.66,4.941871,-67.2161500000002,-1.423357,2.04846,0.8686492,0.7817028,-48.52224,5.9088,15.60424
96.67,-26.66891,-35.70116,12.55919,1.161737,0.8988029,0.4928468,-48.52224,5.9088,15.60424
96.68,-37.37178,-25.45143,-8.44515999999998,0.9633816,0.4376787,-0.07420334,-48.52224,5.9088,15.60424
96.69,-38.24294,-41.06166,-17.90933,0.9295394,0.1237999,-0.5020211,-48.52224,5.9088,15.60424
96.7,-46.7679,-74.3438399999999,-26.15232,0.8712558,-0.01670443,-0.5763035,-47.0461,4.125848,18.04832
96.71,-59.4619899999998,-90.9554700000002,-33.11306,0.9362415,-0.1734025,-0.5147064,-47.0461,4.125848,18.04832
96.72,-69.60482,-91.7801699999998,-25.23643,1.027078,-0.3667684,-0.3566119,-47.0461,4.125848,18.04832
96.73,-71.0982399999998,-71.7519500000003,-10.0327,1.087407,-0.3925315,-0.1017259,-47.0461,4.125848,18.04832
96.74,-65.6845899999999,-48.07153,-11.55918,1.237586,-0.2361774,0.09346473,-47.0461,4.125848,18.04832
96.75,-55.47953,-23.74314,-12.04765,1.399475,-0.0606409,0.2062109,-46.31823,2.783982,21.30002
96.76,-39.42524,0.703058700000002,-15.52802,1.437766,0.05251042,0.2166865,-46.31823,2.783982,21.30002
96.77,-17.83283,12.36655,-15.10061,1.306128,0.03689663,0.04935151,-46.31823,2.783982,21.30002
96.78,4.381837,10.83498,-8.62833799999997,1.156588,0.06373945,-0.1169733,-46.31823,2.783982,21.30002
96.79,15.14693,4.767609,-3.438309,1.083281,0.07927099,-0.2088132,-46.31823,2.783982,21.30002
96.8,15.45806,0.879778200000001,1.080069,1.074943,0.03282142,-0.2007312,-45.62853,0.9938116,22.97835
96.81,13.77796,1.763376,2.545489,1.041088,0.001970918,-0.1584206,-45.62853,0.9938116,22.97835
96.82,15.3336,5.121047,1.385365,0.9633431,-0.01234105,-0.1224607,-45.62853,0.9938116,22.97835
96.83,22.92517,7.88965400000002,0.2863,0.9015005,-0.06238066,-0.09087953,-45.62853,0.9938116,22.97835
96.84,39.16615,8.41981099999998,0.896891499999999,0.8009785,-0.009837802,-0.1339727,-45.62853,0.9938116,22.97835
96.85,59.3273500000001,3.825104,-0.690646600000002,0.7851709,-0.02339675,-0.1745767,-44.52541,0.979475,22.54651
96.86,76.8128399999999,-0.7106977,4.194087,0.8043398,0.01705764,-0.2125616,-44.52541,0.979475,22.54651
96.87,88.6980100000003,-6.89588099999999,6.08692100000001,0.8971728,0.06961315,-0.2069012,-44.52541,0.979475,22.54651
96.88,89.94252,-9.07542299999998,7.49128200000001,0.9290813,0.1273855,-0.1608526,-44.52541,0.979475,22.54651
96.89,82.9732099999998,-8.95760999999998,8.28505100000002,0.883588,0.2018045,-0.1337872,-44.52541,0.979475,22.54651
96.9,75.19497,-7.83838599999999,7.49128200000001,0.8141137,0.2426044,-0.1111988,-44.14515,0.6022158,21.79762
96.91,66.1722100000002,-7.89729300000003,4.865737,0.7134745,0.2936585,-0.1050755,-44.14515,0.6022158,21.79762
96.92,57.4605799999998,-11.6084,0.713714100000002,0.6917023,0.3322748,-0.09732786,-44.14515,0.6022158,21.79762
96.93,45.69987,-13.19888,1.202187,0.7229,0.3167545,-0.07460096,-44.14515,0.6022158,21.79762
96.94,31.88571,-15.14279,4.255146,0.8018596,0.2433133,-0.07600286,-44.14515,0.6022158,21.79762
96.95,21.12062,-15.79076,4.499382,0.7937905,0.1692456,-0.07183996,-44.56795,3.450519,22.12754
96.96,14.96025,-17.9114,3.21714,0.7544369,0.1194263,-0.08845522,-44.56795,3.450519,22.12754
96.97,14.40022,-19.56078,3.766672,0.7036284,0.09059086,-0.07610198,-44.56795,3.450519,22.12754
96.98,19.68942,-22.85955,0.9579508,0.6745095,0.1288635,-0.04665932,-44.56795,3.450519,22.12754
96.99,25.28976,-27.10082,-5.453262,0.6697765,0.213689,-0.02766976,-44.56795,3.450519,22.12754
97,25.97424,-32.16677,-14.67319,0.6905036,0.280288,-0.01251412,-43.47624,3.455758,22.89618
97.01,22.17846,-35.58335,-23.64889,0.7026286,0.2964197,-0.0582903,-43.47624,3.455758,22.89618
97.02,19.37829,-36.82039,-29.99905,0.6503843,0.2848511,-0.1149081,-43.47624,3.455758,22.89618
97.03,16.14254,-40.88494,-33.41836,0.6079813,0.2584272,-0.1638117,-43.47624,3.455758,22.89618
97.04,10.47998,-47.01122,-32.13612,0.6462015,0.1782626,-0.1778794,-43.47624,3.455758,22.89618
97.05,2.95064,-49.13185,-22.48877,0.7297144,0.1330754,-0.1628021,-43.14221,4.561551,24.14584
97.06,-3.209729,-48.71951,-14.00154,0.8267619,-0.07086973,-0.1089448,-43.14221,4.561551,24.14584
97.07,0.897184,-46.71668,-5.086907,0.7545888,-0.2007135,-0.1166483,-43.14221,4.561551,24.14584
97.08,11.60005,-45.77418,-3.071954,0.7278551,-0.2084325,-0.0911588,-43.14221,4.561551,24.14584
97.09,23.42298,-44.1248,-1.301238,0.7387265,-0.1871601,-0.04958583,-43.14221,4.561551,24.14584
97.1,42.96193,-45.0673,-4.171019,0.7615993,-0.04061367,-0.0255669,-42.10331,3.50023,26.19508
97.11,57.8339299999998,-48.24825,-8.384101,0.8008363,0.1248906,-0.006290503,-42.10331,3.50023,26.19508
97.12,64.4298799999998,-52.01827,-13.87943,0.7645733,0.2713549,-0.0470858,-42.10331,3.50023,26.19508
97.13,61.1318999999999,-56.08282,-17.17662,0.7197623,0.3559175,-0.1290529,-42.10331,3.50023,26.19508
97.14,49.24675,-62.1501899999997,-16.56603,0.8269952,0.300257,-0.2215454,-42.10331,3.50023,26.19508
97.15,35.37036,-70.8094500000001,-11.13176,1.038277,0.2774232,-0.2524152,-41.75877,3.886134,27.77233
97.16,23.2363,-73.6369599999998,-9.84952099999998,1.144451,0.3101399,-0.2578616,-41.75877,3.886134,27.77233
97.17,19.68942,-72.4588299999998,-8.01774599999998,1.105834,0.2817431,-0.2609176,-41.75877,3.886134,27.77233
97.18,23.54743,-71.1039800000001,-8.01774599999998,1.12418,0.1754429,-0.2051231,-41.75877,3.886134,27.77233
97.19,25.10308,-70.1614799999999,-5.697498,1.227619,0.06784924,-0.1515247,-40.70609,5.362062,29.78131
97.2,30.95232,-70.2792900000003,-4.903729,1.323789,0.001127253,-0.06745665,-40.70609,5.362062,29.78131
97.21,43.39751,-69.5135000000001,-5.392202,1.403122,0.01850738,0.0196441,-40.70609,5.362062,29.78131
97.22,53.16698,-64.3886300000002,-3.071954,1.470019,0.06392539,0.1140113,-40.70609,5.362062,29.78131
97.23,53.97592,-54.72797,-0.080055,1.503534,0.1094973,0.1474916,-40.70609,5.362062,29.78131
97.24,53.22921,-45.30293,4.071968,1.492507,0.147089,0.1398232,-38.9652,5.752257,32.19328
97.25,53.47811,-37.99852,4.499382,1.425468,0.2057138,0.09827711,-38.9652,5.752257,32.19328
97.26,56.15383,-30.5763,7.30810499999999,1.380991,0.1867394,0.07206397,-38.9652,5.752257,32.19328
97.27,53.54034,-28.39676,10.84954,1.363776,0.2004016,0.09907167,-38.9652,5.752257,32.19328
97.28,47.4422,-27.10082,15.06262,1.360764,0.210541,0.0990857,-38.9652,5.752257,32.19328
97.29,44.95316,-25.09799,20.9243,1.333026,0.2837846,0.03499263,-37.16482,6.788129,33.45783
97.3,47.31775,-22.03485,25.32056,1.297233,0.3827376,-0.01555458,-37.16482,6.788129,33.45783
97.31,42.8997,-18.14703,29.47258,1.293912,0.4248504,-0.01161222,-37.16482,6.788129,33.45783
97.32,31.76126,-11.43168,33.19719,1.363627,0.3405797,0.02795542,-37.16482,6.788129,33.45783
97.33,18.75603,-0.769604199999998,37.53239,1.357314,0.2868471,0.03168401,-37.16482,6.788129,33.45783
97.34,3.821804,12.18983,37.65451,1.338824,0.183186,0.03672151,-35.81152,9.322853,33.80943
97.35,-11.36133,29.21381,40.34111,1.292261,0.07984315,-0.005602492,-35.81152,9.322853,33.80943
97.36,-26.29556,44.82404,38.63146,1.287076,-0.1513363,0.01463674,-35.81152,9.322853,33.80943
97.37,-33.76267,59.0794200000001,41.86759,1.189217,-0.2891412,0.004919681,-35.81152,9.322853,33.80943
97.38,-33.63822,72.3922900000002,52.9193,1.102896,-0.5196866,0.004683975,-35.81152,9.322853,33.80943
97.39,-25.61107,80.99264,65.0700799999999,1.085976,-0.6391829,0.02320285,-35.10059,10.70056,33.35175
97.4,-9.74345400000002,90.5944,70.9317599999998,1.074005,-0.7188644,0.0519536,-35.10059,10.70056,33.35175
97.41,6.93310099999998,99.13585,83.0214700000002,1.012369,-0.6899264,0.0938386,-35.10059,10.70056,33.35175
97.42,20.125,117.3969,100.4844,1.058556,-0.6589066,0.1659242,-35.10059,10.70056,33.35175
97.43,35.49481,131.3577,103.5373,1.077664,-0.3593114,0.1535887,-35.10059,10.70056,33.35175
97.44,49.49565,138.073,94.0731699999998,1.186662,-0.08300395,0.05795407,-35.81606,11.3778,30.11074
97.45,64.4298799999998,135.8935,78.9915599999999,1.25328,0.05056862,-0.0516081,-35.81606,11.3778,30.11074
97.46,79.6752400000002,132.5358,69.0389199999998,1.306051,0.1527213,-0.1453494,-35.81606,11.3778,30.11074
97.47,88.5735499999998,131.181,59.0252200000001,1.318953,0.2904314,-0.1797636,-35.81606,11.3778,30.11074
97.48,84.9644500000002,133.7729,49.19469,1.312329,0.3345341,-0.22022,-35.81606,11.3778,30.11074
97.49,73.32819,139.4279,35.15108,1.285571,0.3461209,-0.2535599,-37.22641,14.49747,24.4225
97.5,58.1450599999998,145.024,22.08442,1.265764,0.3366483,-0.2671427,-37.22641,14.49747,24.4225
97.51,43.77086,149.6776,9.323057,1.27382,0.3123424,-0.2859936,-37.22641,14.49747,24.4225
97.52,30.64119,151.6215,-0.751705800000001,1.26926,0.2916164,-0.3261015,-37.22641,14.49747,24.4225
97.53,18.56935,150.6201,-7.101859,1.336448,0.2310929,-0.3337791,-37.22641,14.49747,24.4225
97.54,5.066323,149.0297,-8.68939700000002,1.391919,0.2294671,-0.3471509,-38.3237,17.60177,17.91578
97.55,-7.93890099999998,149.6187,-10.64329,1.455159,0.1714556,-0.3413219,-38.3237,17.60177,17.91578
97.56,-20.13519,149.8544,-9.36104799999999,1.4605,0.128171,-0.3693891,-38.3237,17.60177,17.91578
97.57,-31.21141,148.8529,-9.42210699999998,1.426674,0.09956923,-0.3458929,-38.3237,17.60177,17.91578
97.58,-45.3367,145.5542,-16.74921,1.385016,0.1709117,-0.2879411,-38.3237,17.60177,17.91578
97.59,-67.9869500000001,142.7267,-22.97724,1.338174,0.2224464,-0.2218419,-40.77332,17.5263,12.26864
97.6,-90.4505199999999,138.0141,-31.40341,1.271848,0.2922507,-0.2054563,-40.77332,17.5263,12.26864
97.61,-110.6117,130.1796,-40.92863,1.203272,0.2937083,-0.1993569,-40.77332,17.5263,12.26864
97.62,-121.5635,120.1066,-44.7143,1.107811,0.2539785,-0.1760436,-40.77332,17.5263,12.26864
97.63,-122.1858,107.6773,-48.80527,1.030559,0.1887986,-0.1464649,-40.77332,17.5263,12.26864
97.64,-116.5854,95.24802,-49.29374,0.9425676,0.1264957,-0.1106346,-41.44616,16.72668,7.408192
97.65,-105.6337,81.4638899999998,-50.33175,0.8837588,0.05967766,-0.0641227,-41.44616,16.72668,7.408192
97.66,-95.3041400000001,67.8564799999999,-50.02645,0.8246614,-0.01905166,-0.0499679,-41.44616,16.72668,7.408192
97.67,-88.6459700000001,57.3711299999998,-49.84327,0.7602322,-0.04514678,-0.04391703,-41.44616,16.72668,7.408192
97.68,-81.3033000000002,43.82263,-50.14857,0.6926299,-0.08562621,-0.07361388,-41.44616,16.72668,7.408192
97.69,-75.0184800000003,30.80429,-49.59904,0.6432565,-0.1092148,-0.07089663,-43.14198,13.51013,5.86331
97.7,-69.5425899999998,20.37783,-51.0034,0.5937816,-0.116992,-0.08551741,-43.14198,13.51013,5.86331
97.71,-64.93787,11.36514,-52.3467,0.5206087,-0.08622941,-0.09915137,-43.14198,13.51013,5.86331
97.72,-63.00887,5.003234,-54.72801,0.4609296,-0.04090451,-0.1194749,-43.14198,13.51013,5.86331
97.73,-63.94226,-0.3572586,-54.60589,0.421612,-0.04233742,-0.1369511,-43.14198,13.51013,5.86331
97.74,-66.6801999999998,-3.656024,-52.83517,0.3901764,-0.008679978,-0.1340646,-43.06101,9.569427,5.105124
97.75,-71.5960500000002,-7.66166600000001,-52.59093,0.3530298,0.02218373,-0.1673899,-43.06101,9.569427,5.105124
97.76,-79.3120700000001,-14.61264,-52.22458,0.3463553,0.06269994,-0.1764884,-43.06101,9.569427,5.105124
97.77,-90.5127399999999,-22.50611,-50.6981,0.3543603,0.08988114,-0.1744791,-43.06101,9.569427,5.105124
97.78,-102.4601,-29.6338,-53.07941,0.3809582,0.09711001,-0.1473723,-43.06101,9.569427,5.105124
97.79,-111.3584,-32.4024,-49.6601,0.4174426,0.08698946,-0.1207597,-43.37908,6.389113,6.353672
97.8,-109.9895,-34.40522,-51.43081,0.4692599,0.05266815,-0.1076711,-43.37908,6.389113,6.353672
97.81,-99.0999200000001,-34.81757,-49.72115,0.5183905,-0.01713941,-0.05654426,-43.37908,6.389113,6.353672
97.82,-80.9299500000003,-35.52444,-50.45387,0.5641936,-0.04153002,-0.01063643,-43.37908,6.389113,6.353672
97.83,-64.8134199999998,-33.52163,-46.05761,0.623979,-0.1172207,0.07621383,-43.33507,3.213634,8.047987
97.84,-53.61275,-31.04755,-40.56228,0.6511086,-0.07101265,0.1318763,-43.33507,3.213634,8.047987
97.85,-49.63029,-28.69129,-37.9978,0.6975433,-0.06285074,0.1913671,-43.33507,3.213634,8.047987
97.86,-50.99926,-30.22286,-36.53238,0.7309241,-0.0531492,0.2184967,-43.33507,3.213634,8.047987
97.87,-55.47953,-31.69552,-32.86882,0.7250867,-0.06349907,0.2560982,-43.33507,3.213634,8.047987
97.88,-60.1464800000001,-34.16959,-36.10496,0.7932722,-0.1447332,0.3115926,-43.33507,3.213634,8.047987
97.89,-63.5066799999999,-35.58335,-36.89873,0.8992586,-0.2140355,0.3696228,-43.27227,-0.3449714,8.484459
97.9,-64.0044900000003,-36.29023,-34.51742,1.026575,-0.2227478,0.4201175,-43.27227,-0.3449714,8.484459
97.91,-66.9291099999999,-33.34491,-33.23518,1.191699,-0.1930885,0.5600637,-43.27227,-0.3449714,8.484459
97.92,-72.2805399999999,-19.44297,-34.45636,1.345096,-0.09980626,0.6817796,-43.27227,-0.3449714,8.484459
97.93,-76.9474899999999,5.062141,-36.16602,1.47086,-0.01543324,0.8053353,-42.88219,-2.435262,10.16475
97.94,-74.33399,33.69071,-38.66945,1.579286,0.06170853,0.8936047,-42.88219,-2.435262,10.16475
97.95,-72.5916699999999,59.0205100000001,-30.06011,1.534588,0.2086735,0.9150375,-42.88219,-2.435262,10.16475
97.96,-75.8274200000001,75.5143399999997,-13.45201,1.271765,0.1444569,0.8900942,-42.88219,-2.435262,10.16475
97.97,-82.4233700000001,80.0501300000001,-1.545475,0.8623338,-0.006367329,0.7265776,-42.88219,-2.435262,10.16475
97.98,-88.8326400000003,58.1958200000002,-2.400303,0.6075553,-0.0202829,0.4257452,-42.52869,-4.216213,8.553072
97.99,-95.98862,17.66813,-11.13176,0.5438668,-0.01672945,0.2325691,-42.52869,-4.216213,8.553072
98,-96.7975599999999,-18.61828,-20.53488,0.6274572,-0.03262625,0.1159737,-42.52869,-4.216213,8.553072
98.01,-88.0236999999999,-42.59323,-30.6707,0.8428872,-0.01434386,0.02633194,-42.52869,-4.216213,8.553072
98.02,-74.2095399999998,-57.8500099999997,-40.31804,1.089718,0.05193047,0.02518081,-42.52869,-4.216213,8.553072
98.03,-65.2490100000003,-62.7392499999999,-49.90433,1.340961,0.2001181,0.08743105,-42.48351,-6.048393,7.381752
98.04,-61.5776700000002,-57.67329,-52.652,1.736377,0.3608781,0.1848237,-42.48351,-6.048393,7.381752
98.05,-61.8888000000002,-38.7054,-52.16352,2.235161,0.4721662,0.3412475,-42.48351,-6.048393,7.381752
98.06,-56.47515,-27.51316,-61.9329899999998,2.561047,0.6162962,0.3192354,-42.48351,-6.048393,7.381752
98.07,-42.28763,-26.983,-45.75231,2.661654,0.2225274,0.250609,-42.48351,-6.048393,7.381752
98.08,-38.8652,-0.1805391,-3.743605,1.6285,-0.08280365,0.4465807,-42.08248,-8.508417,8.625591
98.09,-49.44361,9.83356800000001,13.47508,0.9024621,-0.4125315,0.4111861,-42.08248,-8.508417,8.625591
98.1,-85.0990800000002,4.885421,22.93925,0.5281238,-0.6315918,0.2707756,-42.08248,-8.508417,8.625591
98.11,-92.0683899999999,0.820871699999998,29.10623,0.258206,-0.8181108,0.05397921,-42.08248,-8.508417,8.625591
98.12,-60.6442800000002,-14.73045,24.64891,-0.05203199,-0.8742546,-0.2663889,-42.08248,-8.508417,8.625591
98.13,-20.01074,-55.55266,26.48068,-0.1042001,-0.7282953,-0.7212532,-41.31363,-10.27153,8.281649
98.14,23.73411,-99.61473,22.08442,0.1732315,-0.283911,-0.9444501,-41.31363,-10.27153,8.281649
98.15,55.03376,-133.8394,5.354211,0.7162624,-0.001944176,-0.8425558,-41.31363,-10.27153,8.281649
98.16,48.56226,-140.437,-0.3242917,1.206545,0.3427406,-0.5042139,-41.31363,-10.27153,8.281649
98.17,10.54221,-114.8715,-19.13051,1.602897,0.8363285,-0.1020976,-41.31363,-10.27153,8.281649
98.18,-26.85559,-80.5879299999998,-69.1990400000002,1.811579,1.995779,-0.0223415,-40.60491,-10.58626,11.51682
98.19,-45.15002,-44.1248,-91.7909199999998,1.948485,1.816199,0.4944353,-40.60491,-10.58626,11.51682
98.2,-70.7248899999999,-29.39817,-9.84952099999998,1.354386,1.394034,0.3457832,-40.60491,-10.58626,11.51682
98.21,-104.5136,-13.67013,7.61339999999998,0.9633407,0.8033432,0.1171894,-40.60491,-10.58626,11.51682
98.22,-124.6126,-16.20311,28.00716,0.7983349,0.3358096,-0.1723229,-40.60491,-10.58626,11.51682
98.23,-133.3242,-30.22286,32.76978,0.8093708,0.1775274,-0.2918243,-38.84736,-11.27744,14.3254
98.24,-142.5959,-41.06166,18.90935,1.000378,0.005268908,-0.3993103,-38.84736,-11.27744,14.3254
98.25,-143.2181,-46.8934,16.71122,1.09752,-0.07946417,-0.4339855,-38.84736,-11.27744,14.3254
98.26,-138.7378,-54.66906,3.033962,1.031036,-0.1687232,-0.34749,-38.84736,-11.27744,14.3254
98.27,-133.4486,-55.25813,-14.67319,0.9758693,-0.2864872,-0.2122893,-38.84736,-11.27744,14.3254
98.28,-125.546,-57.08423,-27.49562,1.059441,-0.3213501,-0.07317462,-38.44841,-13.032,14.35707
98.29,-108.4338,-59.26377,-32.56353,1.092845,-0.2707243,-0.01603887,-38.44841,-13.032,14.35707
98.3,-83.1700800000003,-60.2062799999999,-28.65574,1.144833,-0.2128208,-0.02591384,-38.44841,-13.032,14.35707
98.31,-52.80381,-59.3815799999998,-17.0545,1.184819,-0.109814,-0.06805357,-38.44841,-13.032,14.35707
98.32,-26.10888,-57.26095,-5.392202,1.191834,-0.01907101,-0.1001712,-38.44841,-13.032,14.35707
98.33,-11.23688,-51.25248,5.598447,1.163614,0.03445784,-0.09675103,-38.05931,-14.47725,14.82618
98.34,-7.81444899999998,-44.41933,13.16978,1.105866,0.07093218,-0.08089744,-38.05931,-14.47725,14.82618
98.35,-14.1615,-38.11633,16.46698,1.015394,0.05821868,-0.0179442,-38.05931,-14.47725,14.82618
98.36,-25.05104,-30.34067,12.00966,0.8964204,0.02593352,0.04585855,-38.05931,-14.47725,14.82618
98.37,-34.82051,-23.80205,2.179134,0.8326817,-0.02709487,0.0697076,-38.05931,-14.47725,14.82618
98.38,-40.10972,-21.97595,-4.84267,0.8257502,-0.1068592,0.03187944,-36.21894,-15.55711,16.06158
98.39,-37.93181,-18.38265,-4.476315,0.7738853,-0.1072852,-0.02374835,-36.21894,-15.55711,16.06158
98.4,-29.53131,-17.9114,-0.751705800000001,0.7284905,-0.07278558,-0.07590653,-36.21894,-15.55711,16.06158
98.41,-18.70399,-21.21017,2.911844,0.720488,-0.04771782,-0.07973368,-36.21894,-15.55711,16.06158
98.42,-9.30787299999999,-24.33221,7.61339999999998,0.7358177,-0.01355398,-0.1143642,-36.21894,-15.55711,16.06158
98.43,0.1504725,-28.39676,10.78848,0.7628613,-0.04625146,-0.1143648,-35.54844,-15.91059,16.89518
98.44,4.257385,-28.16113,17.99346,0.730909,0.05101535,-0.1407782,-35.54844,-15.91059,16.89518
98.45,7.86649000000002,-31.10646,17.01651,0.7472753,0.1180028,-0.1323887,-35.54844,-15.91059,16.89518
98.46,4.755193,-31.10646,13.90249,0.7190281,0.1711529,-0.1173883,-35.54844,-15.91059,16.89518
98.47,-1.218498,-32.75584,8.95670199999999,0.6977554,0.2073841,-0.1062666,-35.54844,-15.91059,16.89518
98.48,-10.42794,-35.76007,1.629601,0.6879589,0.2630935,-0.09169565,-35.17021,-16.92774,17.6734
98.49,-21.19303,-38.52868,-4.048901,0.6648082,0.288773,-0.0685378,-35.17021,-16.92774,17.6734
98.5,-31.8959,-41.00275,-8.68939700000002,0.6837614,0.297848,-0.0979049,-35.17021,-16.92774,17.6734
98.51,-39.86082,-44.1248,-8.99469299999998,0.6270226,0.2866397,-0.1111041,-35.17021,-16.92774,17.6734
98.52,-46.27009,-50.07436,-10.39905,0.6683456,0.2346913,-0.1115918,-35.17021,-16.92774,17.6734
98.53,-48.6969,-54.78688,-8.93363300000002,0.7278277,0.1705883,-0.1337734,-34.46094,-15.89814,18.10611
98.54,-47.51461,-56.67188,-8.93363300000002,0.865205,0.1355093,-0.1175705,-34.46094,-15.89814,18.10611
98.55,-45.71006,-54.19781,-10.21588,0.9664714,0.1118643,-0.09033738,-34.46094,-15.89814,18.10611
98.56,-45.39893,-49.89764,-11.43706,1.006984,0.08724353,-0.06519328,-34.46094,-15.89814,18.10611
98.57,-45.58561,-44.89058,-13.20778,0.9928527,0.0363976,-0.05665315,-33.72061,-16.91045,19.3301
98.58,-44.40331,-42.76995,-16.50497,0.8780373,-0.05650607,-0.06342213,-33.72061,-16.91045,19.3301
98.59,-38.42962,-44.65496,-16.38285,0.7386455,-0.1210354,-0.06874584,-33.72061,-16.91045,19.3301
98.6,-26.23333,-49.19076,-12.90248,0.677923,-0.1743696,-0.08108082,-33.72061,-16.91045,19.3301
98.61,-5.76099300000002,-56.02391,-10.88753,0.6937229,-0.1368672,-0.1214936,-33.72061,-16.91045,19.3301
98.62,16.82703,-64.2119200000001,-8.93363300000002,0.7563197,-0.05702324,-0.1756885,-32.68426,-17.61647,20.93122
98.63,31.57458,-70.45601,-8.26198300000002,0.8806859,0.008651773,-0.1911507,-32.68426,-17.61647,20.93122
98.64,45.69987,-75.6397800000002,-6.674445,1.104072,0.1456597,-0.2168202,-32.68426,-17.61647,20.93122
98.65,40.16176,-74.8739999999998,-3.133013,1.288385,0.1817398,-0.1853842,-32.68426,-17.61647,20.93122
98.66,24.29414,-65.5667600000002,3.21714,1.254853,0.2168187,-0.1308672,-32.68426,-17.61647,20.93122
98.67,13.34237,-56.37735,0.2863,1.148504,0.1987509,-0.1109133,-31.95376,-18.31947,22.59263
98.68,11.28892,-53.07859,0.652654899999998,1.092684,0.1368756,-0.1087775,-31.95376,-18.31947,22.59263
98.69,18.25822,-55.72938,2.728667,1.095785,0.08028296,-0.161489,-31.95376,-18.31947,22.59263
98.7,26.90763,-60.3830000000002,7.73551899999999,1.217903,0.01127431,-0.13816,-31.95376,-18.31947,22.59263
98.71,33.31691,-58.7336100000002,10.48318,1.324835,0.04095542,-0.05240932,-31.95376,-18.31947,22.59263
98.72,33.56581,-52.3128,7.61339999999998,1.331685,0.1167677,0.02980463,-29.8362,-18.30035,24.63482
98.73,33.37913,-47.54137,7.36916399999998,1.307795,0.1200962,0.04374409,-29.8362,-18.30035,24.63482
98.74,39.85063,-44.94949,6.69751199999997,1.310726,0.1036596,0.09631413,-29.8362,-18.30035,24.63482
98.75,47.6911,-39.23556,9.07882000000002,1.347076,0.09304447,0.1750405,-29.8362,-18.30035,24.63482
98.76,48.99784,-27.10082,13.47508,1.408571,0.09994674,0.2427708,-29.8362,-18.30035,24.63482
98.77,45.63764,-11.37278,20.55794,1.450595,0.1292942,0.2410121,-29.13633,-17.54709,26.65199
98.78,38.79279,1.292124,30.44953,1.464735,0.1787059,0.2343991,-29.13633,-17.54709,26.65199
98.79,28.40105,14.01593,40.219,1.446519,0.1924569,0.2720205,-29.13633,-17.54709,26.65199
98.8,15.58251,28.44803,47.66821,1.442511,0.2031383,0.2792713,-29.13633,-17.54709,26.65199
98.81,0.897184,44.76513,52.43083,1.490594,0.2116222,0.2663848,-29.13633,-17.54709,26.65199
98.82,-12.66807,63.2617800000001,59.2694499999998,1.4935,0.1268623,0.2029961,-28.80265,-15.79728,26.62727
98.83,-20.32187,75.5143399999997,65.5585500000001,1.440332,0.06287071,0.1298566,-28.80265,-15.79728,26.62727
98.84,-31.58476,89.1806499999999,72.88564,1.350132,-0.09156509,0.0409855,-28.80265,-15.79728,26.62727
98.85,-40.48307,100.8441,75.81648,1.150003,-0.2405325,-0.04429694,-28.80265,-15.79728,26.62727
98.86,-50.50145,106.4992,72.6414099999998,1.051086,-0.4101537,-0.09268903,-28.80265,-15.79728,26.62727
98.87,-60.2709300000002,118.5161,79.4800300000001,1.113932,-0.7705594,0.02733545,-29.90515,-14.38026,24.12932
98.88,-60.3331500000002,138.4265,104.8806,1.07931,-0.8890554,0.1177106,-29.90515,-14.38026,24.12932
98.89,-42.03872,149.5598,108.1778,1.031104,-0.4570357,0.09052719,-29.90515,-14.38026,24.12932
98.9,-14.6593,150.5612,90.9591600000003,1.087841,-0.06173323,0.03361749,-29.90515,-14.38026,24.12932
98.91,15.20915,143.4335,72.8245799999999,1.150687,0.2160005,-0.07853978,-29.90515,-14.38026,24.12932
98.92,47.6911,131.2988,54.5679,1.194066,0.3919572,-0.1904835,-32.75274,-13.34621,19.66169
98.93,63.8076199999998,125.526,35.51744,1.212099,0.5355799,-0.1645532,-32.75274,-13.34621,19.66169
98.94,63.24759,127.5288,18.90935,1.200737,0.450338,-0.1623529,-32.75274,-13.34621,19.66169
98.95,52.42027,131.7701,9.323057,1.183507,0.3703211,-0.1659473,-32.75274,-13.34621,19.66169
98.96,34.4992,136.0702,4.194087,1.203885,0.3282009,-0.1852872,-32.75274,-13.34621,19.66169
98.97,14.77357,139.7813,-2.033948,1.251139,0.323075,-0.2039958,-35.25886,-10.57575,14.34795
98.98,-7.316642,141.4307,-7.28503699999999,1.325163,0.3119457,-0.2139623,-35.25886,-10.57575,14.34795
98.99,-30.21579,142.491,-11.6813,1.39329,0.2529473,-0.214396,-35.25886,-10.57575,14.34795
99,-55.54176,143.9637,-14.18472,1.417686,0.2029264,-0.2544921,-35.25886,-10.57575,14.34795
99.01,-76.82303,144.435,-19.55793,1.410661,0.1441037,-0.3308794,-35.25886,-10.57575,14.34795
99.02,-86.4058299999999,142.491,-24.50372,1.391246,0.1471378,-0.3531202,-36.2702,-9.620188,9.51959
99.03,-97.0464600000002,138.8388,-31.89188,1.368577,0.179403,-0.3511792,-36.2702,-9.620188,9.51959
99.04,-106.1937,136.4826,-39.82957,1.358111,0.2022163,-0.3347504,-36.2702,-9.620188,9.51959
99.05,-118.2033,134.951,-48.68315,1.381873,0.2435893,-0.2757292,-36.2702,-9.620188,9.51959
99.06,-136.2488,134.4208,-53.81212,1.391054,0.2480649,-0.2703879,-36.2702,-9.620188,9.51959
99.07,-150.6852,130.8864,-55.39966,1.350011,0.2224474,-0.2850253,-36.9125,-11.46653,3.475183
99.08,-159.1479,124.8191,-54.97224,1.293513,0.178552,-0.2741667,-36.9125,-11.46653,3.475183
99.09,-161.9481,115.5708,-54.48377,1.200958,0.1393507,-0.2484321,-36.9125,-11.46653,3.475183
99.1,-156.97,106.3813,-53.26259,1.089886,0.1034322,-0.2183952,-36.9125,-11.46653,3.475183
99.11,-145.4582,94.83567,-53.3847,1.010886,0.06592915,-0.1771804,-36.9125,-11.46653,3.475183
99.12,-129.2795,82.8776500000001,-52.83517,0.9577224,0.02181737,-0.1397735,-36.80823,-13.69251,-3.314636
99.13,-111.3584,70.6839999999999,-54.91118,0.8835009,-0.003184248,-0.1115483,-36.80823,-13.69251,-3.314636
99.14,-94.6196499999999,57.9601899999999,-58.81897,0.8156409,-0.02686883,-0.1035709,-36.80823,-13.69251,-3.314636
99.15,-81.24107,44.23497,-60.8949800000002,0.7621284,-0.07706303,-0.09609602,-36.80823,-13.69251,-3.314636
99.16,-71.4093699999998,31.68789,-63.1541700000002,0.6847165,-0.06319711,-0.1015739,-36.37227,-15.21812,-7.77387
99.17,-68.1736200000002,20.79018,-65.7186600000002,0.6275464,-0.07834189,-0.1215384,-36.37227,-15.21812,-7.77387
99.18,-70.22708,12.01311,-67.8557299999999,0.5719478,-0.05003318,-0.1539517,-36.37227,-15.21812,-7.77387
99.19,-77.1963900000003,3.294945,-69.8096199999998,0.5034195,-0.04638821,-0.1734226,-36.37227,-15.21812,-7.77387
99.2,-87.6503400000002,-3.479304,-69.8096199999998,0.4324733,-0.04702543,-0.1827753,-36.37227,-15.21812,-7.77387
99.21,-96.8597900000001,-11.19606,-69.6875099999998,0.3709562,-0.009101486,-0.2171134,-36.37227,-15.21812,-7.77387
99.22,-111.0473,-22.80064,-66.3903100000002,0.3231455,0.01735858,-0.2466153,-34.56449,-16.63884,-8.935177
99.23,-124.177,-35.93679,-65.8407799999999,0.3220283,-0.02035867,-0.2423563,-34.56449,-16.63884,-8.935177
99.24,-135.8754,-47.71809,-57.5367300000002,0.3221355,-0.02493298,-0.2664934,-34.56449,-16.63884,-8.935177
99.25,-140.5424,-55.55266,-55.94919,0.398468,-0.08742709,-0.2326524,-34.56449,-16.63884,-8.935177
99.26,-133.5731,-57.3787599999999,-42.94359,0.4197637,-0.02578612,-0.2310173,-33.80021,-17.75072,-10.11121
99.27,-117.0832,-57.9678299999997,-45.32489,0.5046422,-0.1276031,-0.1649081,-33.80021,-17.75072,-10.11121
99.28,-93.6240399999999,-56.7897,-40.19593,0.582805,-0.186423,-0.1011366,-33.80021,-17.75072,-10.11121
99.29,-73.9606400000001,-53.25531,-33.23518,0.6756377,-0.2086345,-0.01553374,-33.80021,-17.75072,-10.11121
99.3,-61.0176399999998,-48.30716,-29.93799,0.718749,-0.2120167,0.05453975,-33.80021,-17.75072,-10.11121
