Time (s),Gyroscope X (deg/s),Gyroscope Y (deg/s),Gyroscope Z (deg/s),Accelerometer X (g),Accelerometer Y (g),Accelerometer Z (g),Magnetometer X (uT),Magnetometer Y (uT),Magnetometer Z (uT)
77.79,0.4779299,0.940166700000002,-0.0951975900000001,0.9852605,-0.01700068,-0.1214491,-32.02075,-27.67511,15.78829
77.8,0.664607699999999,0.586727600000001,0.02692074,0.9871888,-0.015525,-0.1204758,-32.03846,-26.94285,16.2189
77.81,0.726833699999999,0.410008,0.1490391,0.9837815,-0.01506765,-0.1204836,-32.03846,-26.94285,16.2189
77.82,0.789059599999997,0.2332885,0.2100982,0.9891347,-0.01692213,-0.1161309,-32.03846,-26.94285,16.2189
77.83,0.726833699999999,0.5278211,0.3322166,0.9881471,-0.01734791,-0.1088961,-32.03846,-26.94285,16.2189
77.84,0.664607699999999,0.940166700000002,0.2711574,0.9910667,-0.01639675,-0.1132295,-32.03846,-26.94285,16.2189
77.85,0.602381800000001,1.116886,0.2100982,0.9920129,-0.01442721,-0.1103275,-32.75336,-27.67035,15.78132
77.86,0.726833699999999,0.940166700000002,0.2711574,0.9828024,-0.01599048,-0.1146976,-32.75336,-27.67035,15.78132
77.87,0.851285599999998,0.645634099999999,0.3322166,0.9881431,-0.01498968,-0.1156467,-32.75336,-27.67035,15.78132
77.88,0.664607699999999,0.4689145,0.02692074,0.9827992,-0.01551095,-0.1151791,-32.75336,-27.67035,15.78132
77.89,0.602381800000001,0.1154754,0.2711574,0.9817784,-0.01019986,-0.1156529,-32.75336,-27.67035,15.78132
77.9,0.602381800000001,-0.0612440899999998,0.2711574,0.9857121,-0.01453788,-0.1170997,-32.39021,-27.31639,15.39987
77.91,0.789059599999997,0.05656894,0.2100982,0.9852087,-0.01448471,-0.1108277,-32.39021,-27.31639,15.39987
77.92,0.664607699999999,0.292195,0.1490391,0.9822609,-0.01159085,-0.1093815,-32.39021,-27.31639,15.39987
77.93,0.353478,0.410008,0.0879799099999998,0.9871608,-0.0130879,-0.1185405,-32.39021,-27.31639,15.39987
77.94,0.415704,0.2332885,0.02692074,0.9939479,-0.009691199,-0.1233412,-32.39021,-27.31639,15.39987
77.95,0.1045742,-0.0612440899999998,0.0879799099999998,0.9905975,-0.01504958,-0.1243264,-32.38391,-28.02907,16.16974
77.96,0.04234824,-0.1201506,0.2100982,0.9847338,-0.01264925,-0.1214411,-32.38391,-28.02907,16.16974
77.97,0.04234824,-0.1201506,-0.03413842,0.9799243,-0.0184854,-0.1205009,-32.38391,-28.02907,16.16974
77.98,-0.2065556,-0.2379636,-0.03413842,0.9833326,-0.01988429,-0.1175999,-32.38391,-28.02907,16.16974
77.99,-0.0821036699999998,-0.1201506,-0.1562568,0.9867373,-0.02033288,-0.1166269,-32.38391,-28.02907,16.16974
78,-0.01987772,-0.2379636,-0.2173159,0.9930222,-0.01688739,-0.1156382,-32.38706,-27.67273,15.78481
78.01,-0.3310075,-0.2968701,-0.2173159,0.9881288,-0.01400433,-0.1137145,-32.38706,-27.67273,15.78481
78.02,-0.953267000000001,-0.1201506,-0.03413842,0.9857346,-0.01461237,-0.1253031,-32.38706,-27.67273,15.78481
78.03,-1.015493,-0.4146832,-0.1562568,0.9828534,-0.01897283,-0.1233897,-32.38706,-27.67273,15.78481
78.04,-0.579911399999998,-0.4146832,0.2711574,0.9823365,-0.01746793,-0.1171147,-32.0239,-27.31877,15.40335
78.05,-0.3310075,-0.4735897,0.2711574,0.9842984,-0.01891764,-0.1185604,-32.0239,-27.31877,15.40335
78.06,-0.2687815,-0.6503092,0.2711574,0.9808257,-0.01214749,-0.116142,-32.0239,-27.31877,15.40335
78.07,-0.642137300000001,-0.4735897,0.1490391,0.9895391,-0.009145037,-0.1127353,-32.0239,-27.31877,15.40335
78.08,-1.388849,-0.1790571,-0.0951975900000001,0.9827616,-0.01163525,-0.1146883,-32.0239,-27.31877,15.40335
78.09,-1.886656,0.1154754,0.02692074,0.9852898,-0.01944216,-0.123867,-32.0239,-27.31877,15.40335
78.1,-2.073334,0.1154754,0.0879799099999998,0.986725,-0.01654044,-0.1253047,-32.38345,-27.67891,15.4057
78.11,-1.82443,0.3511015,0.02692074,0.9847957,-0.01941966,-0.1209729,-32.38345,-27.67891,15.4057
78.12,-1.264397,0.2332885,0.3932757,0.9794744,-0.0223605,-0.1205104,-32.38345,-27.67891,15.4057
78.13,-0.579911399999998,0.2332885,0.3932757,0.9862133,-0.01505306,-0.1209599,-32.38345,-27.67891,15.4057
78.14,-0.5176854,0.2332885,0.3322166,0.9915916,-0.01792795,-0.1223998,-32.38706,-27.67273,15.78481
78.15,-0.2687815,0.410008,0.3932757,0.9891949,-0.02087231,-0.1248251,-32.38706,-27.67273,15.78481
78.16,-0.01987772,0.4689145,0.3322166,0.9915953,-0.01887825,-0.1204717,-32.38706,-27.67273,15.78481
78.17,0.04234824,0.410008,0.2711574,0.9872385,-0.02084805,-0.1204871,-32.38706,-27.67273,15.78481
78.18,-0.2065556,0.3511015,0.0879799099999998,0.9857477,-0.01559334,-0.1267528,-32.38706,-27.67273,15.78481
78.19,-0.891041099999997,0.174382,0.2100982,0.9891201,-0.01218377,-0.1272193,-32.74301,-28.03906,15.40805
78.2,-1.139945,0.2332885,0.2100982,0.985202,-0.009772642,-0.1248115,-32.74301,-28.03906,15.40805
78.21,-1.015493,0.292195,0.3322166,0.9779215,-0.01033538,-0.1272443,-32.74301,-28.03906,15.40805
78.22,-0.8288152,0.4689145,0.2711574,0.9817872,-0.009759766,-0.1204774,-32.74301,-28.03906,15.40805
78.23,-0.766589199999999,0.2332885,0.2711574,0.9789257,-0.01512311,-0.1224265,-32.74301,-28.03906,15.40805
78.24,-0.579911399999998,0.2332885,0.0879799099999998,0.9852033,-0.0121221,-0.1170958,-32.01294,-27.6885,14.9669
78.25,-1.388849,0.3511015,0.3322166,0.9832778,-0.01360655,-0.1190341,-32.01294,-27.6885,14.9669
78.26,-1.326623,0.1154754,0.3322166,0.9847301,-0.01404403,-0.1151709,-32.01294,-27.6885,14.9669
78.27,-1.077719,0.410008,0.3932757,0.9837993,-0.01559538,-0.1253102,-32.01294,-27.6885,14.9669
78.28,-0.8288152,0.645634099999999,0.2100982,0.9838206,-0.01801056,-0.1248328,-32.01294,-27.6885,14.9669
78.29,-0.766589199999999,0.4689145,0.3932757,0.9804685,-0.02289379,-0.1267821,-32.74661,-28.03288,15.78716
78.3,-0.5176854,-0.1201506,0.2100982,0.9833283,-0.01846322,-0.1209746,-32.74661,-28.03288,15.78716
78.31,-0.766589199999999,-0.1201506,0.2711574,0.9866853,-0.01312675,-0.1224022,-32.74661,-28.03288,15.78716
78.32,-1.077719,-0.2379636,0.3932757,0.9895655,-0.01251491,-0.1108123,-32.74661,-28.03288,15.78716
78.33,-1.388849,0.174382,0.5153941,0.988108,-0.0120599,-0.1127452,-32.74661,-28.03288,15.78716
78.34,-1.637753,0.3511015,0.698571599999999,0.9905779,-0.01639178,-0.1122656,-32.38345,-27.67891,15.4057
78.35,-1.139945,0.645634099999999,0.4543349,0.990077,-0.01493945,-0.1117812,-32.38345,-27.67891,15.4057
78.36,-0.766589199999999,0.586727600000001,0.5153941,0.9857488,-0.02122504,-0.107463,-32.38345,-27.67891,15.4057
78.37,-0.8288152,1.05798,0.698571599999999,0.9920653,-0.01975903,-0.1113039,-32.38345,-27.67891,15.4057
78.38,-0.953267000000001,1.352512,1.003867,0.9954606,-0.02017695,-0.1069531,-32.38345,-27.67891,15.4057
78.39,-0.891041099999997,1.941577,0.9428082,0.9919931,-0.01342433,-0.106465,-32.37925,-27.68612,14.96342
78.4,-1.326623,2.412829,0.9428082,0.986204,-0.01502238,-0.117582,-32.37925,-27.68612,14.96342
78.41,-1.575527,2.177203,0.3932757,0.977006,-0.01709585,-0.1248484,-32.37925,-27.68612,14.96342
78.42,-1.82443,2.177203,0.2711574,0.9769962,-0.01659441,-0.1229172,-32.37925,-27.68612,14.96342
78.43,-1.82443,1.470325,0.5153941,0.9803838,-0.01370381,-0.1272452,-32.37925,-27.68612,14.96342
78.44,-1.948882,1.116886,0.759630700000001,0.9813491,-0.01461146,-0.121454,-33.11606,-27.67416,15.39874
78.45,-1.575527,0.8223537,0.576453200000001,0.98276,-0.01022295,-0.1190282,-33.11606,-27.67416,15.39874
78.46,-1.451075,0.645634099999999,0.3932757,0.9856843,-0.008818545,-0.1267384,-33.11606,-27.67416,15.39874
78.47,-0.953267000000001,0.3511015,0.3932757,0.9808848,-0.01515614,-0.1277295,-33.11606,-27.67416,15.39874
78.48,-0.766589199999999,0.05656894,0.2100982,0.977493,-0.01662567,-0.1267763,-33.11606,-27.67416,15.39874
78.49,-1.077719,-0.1201506,0.2100982,0.9842771,-0.01415737,-0.1272361,-32.7352,-28.05245,14.58667
78.5,-1.451075,-0.3557767,0.2711574,0.9934897,-0.01213209,-0.1252778,-32.7352,-28.05245,14.58667
78.51,-2.011108,-0.1790571,0.02692074,0.9916033,-0.01890454,-0.123367,-32.7352,-28.05245,14.58667
78.52,-2.011108,0.174382,0.02692074,0.9901205,-0.01836628,-0.1161314,-32.7352,-28.05245,14.58667
78.53,-1.575527,0.704540600000002,0.2100982,0.9839026,-0.02719178,-0.1234047,-32.7352,-28.05245,14.58667
78.54,-0.579911399999998,0.7634471,0.3322166,0.9795386,-0.02866891,-0.122454,-33.11186,-27.68137,14.95646
78.55,-0.1443296,0.174382,0.2711574,0.982883,-0.02282224,-0.1209852,-33.11186,-27.68137,14.95646
78.56,-0.01987772,0.2332885,0.2711574,0.9858404,-0.0271547,-0.1209868,-33.11186,-27.68137,14.95646
78.57,-0.0821036699999998,0.174382,0.2711574,0.9916039,-0.01937531,-0.1219204,-33.11186,-27.68137,14.95646
78.58,0.1668001,0.174382,0.2100982,0.9876142,-0.01110025,-0.113227,-33.11186,-27.68137,14.95646
78.59,-0.2065556,-0.002337579,-0.03413842,0.9837833,-0.01554279,-0.1195196,-32.3725,-28.04865,14.96925
78.6,-0.642137300000001,0.3511015,-0.03413842,0.9871957,-0.01695483,-0.1180661,-32.3725,-28.04865,14.96925
78.61,-0.704363199999999,0.2332885,0.0879799099999998,0.9842457,-0.01452297,-0.1142081,-32.3725,-28.04865,14.96925
78.62,-0.3932334,-0.002337579,0.0879799099999998,0.9891159,-0.01545286,-0.1141976,-32.3725,-28.04865,14.96925
78.63,-0.2687815,0.292195,0.2711574,0.9905409,-0.01298685,-0.1103282,-32.3725,-28.04865,14.96925
78.64,-0.2687815,0.7634471,0.0879799099999998,0.9896499,-0.02029697,-0.1151717,-32.01715,-27.68129,15.40918
78.65,-0.3310075,0.8223537,0.02692074,0.9843698,-0.02571872,-0.1214701,-32.01715,-27.68129,15.40918
78.66,-0.3310075,0.7634471,0.02692074,0.9853554,-0.02810003,-0.1180949,-32.01715,-27.68129,15.40918
78.67,-0.2065556,0.586727600000001,0.3322166,0.9823986,-0.02423834,-0.1166465,-32.01715,-27.68129,15.40918
78.68,0.1045742,0.881260199999998,0.3932757,0.9857922,-0.02324395,-0.1166356,-32.01715,-27.68129,15.40918
78.69,0.5401558,0.940166700000002,0.2711574,0.9906123,-0.01978794,-0.1132379,-33.11606,-27.67416,15.39874
78.7,1.162415,1.05798,0.3322166,0.9886088,-0.01444939,-0.1098538,-33.11606,-27.67416,15.39874
78.71,1.162415,1.352512,0.2100982,0.9895636,-0.01203976,-0.1117763,-33.11606,-27.67416,15.39874
78.72,1.162415,1.352512,0.3932757,0.9881822,-0.0179326,-0.1199959,-33.11606,-27.67416,15.39874
78.73,0.975737500000002,0.8223537,0.2711574,0.9896073,-0.01546659,-0.1161265,-33.11606,-27.67416,15.39874
78.74,0.851285599999998,0.881260199999998,0.3932757,0.9842702,-0.01741769,-0.1132492,-32.74556,-27.68375,14.95993
78.75,0.291252,0.645634099999999,0.2711574,0.9847103,-0.01304115,-0.1113085,-32.74556,-27.68375,14.95993
78.76,-0.01987772,0.586727600000001,0.3322166,0.9822638,-0.01066246,-0.1137224,-32.74556,-27.68375,14.95993
78.77,0.1668001,0.645634099999999,0.0879799099999998,0.9842548,-0.0154908,-0.1142102,-32.74556,-27.68375,14.95993
78.78,0.602381800000001,0.586727600000001,0.0879799099999998,0.9866718,-0.01402009,-0.1142008,-32.74301,-28.03906,15.40805
78.79,0.789059599999997,0.586727600000001,-0.03413842,0.9847708,-0.01839926,-0.1151802,-32.74301,-28.03906,15.40805
78.8,1.162415,0.586727600000001,0.3932757,0.9843515,-0.02472022,-0.1180902,-32.74301,-28.03906,15.40805
78.81,1.100189,0.586727600000001,0.2711574,0.9920759,-0.01979408,-0.1151644,-32.74301,-28.03906,15.40805
78.82,0.4779299,0.645634099999999,0.2711574,0.9871609,-0.01543298,-0.1103422,-32.74301,-28.03906,15.40805
78.83,0.4779299,0.4689145,0.4543349,0.9881318,-0.01542101,-0.1098571,-32.75336,-27.67035,15.78132
78.84,0.602381800000001,0.881260199999998,0.1490391,0.9915773,-0.01928767,-0.1122693,-32.75336,-27.67035,15.78132
78.85,0.913511500000001,1.116886,0.3322166,0.9934754,-0.01349182,-0.1151472,-32.75336,-27.67035,15.78132
78.86,1.286867,1.293606,0.2711574,0.9906274,-0.02030691,-0.1170994,-32.75336,-27.67035,15.78132
78.87,2.095805,1.352512,0.1490391,0.9847791,-0.01983347,-0.1132531,-32.75336,-27.67035,15.78132
78.88,2.033579,1.175793,0.3322166,0.9847336,-0.01593149,-0.109867,-31.99696,-28.3593,14.59849
78.89,1.722449,0.940166700000002,0.4543349,0.9813225,-0.01452383,-0.1118029,-31.99696,-28.3593,14.59849
78.9,1.037963,0.586727600000001,0.3932757,0.9895812,-0.01350465,-0.1132271,-31.99696,-28.3593,14.59849
78.91,0.664607699999999,0.8223537,0.3322166,0.9881328,-0.01401747,-0.1151621,-31.99696,-28.3593,14.59849
78.92,0.602381800000001,0.8223537,0.0879799099999998,0.9901081,-0.01785607,-0.1132351,-31.99696,-28.3593,14.59849
78.93,0.664607699999999,0.7634471,0.3322166,0.9930531,-0.02074118,-0.1137162,-32.00056,-28.35312,14.97759
78.94,0.975737500000002,1.293606,0.576453200000001,0.9862618,-0.02271681,-0.1122904,-32.00056,-28.35312,14.97759
78.95,1.411319,1.116886,0.576453200000001,0.9842923,-0.0193665,-0.114701,-32.00056,-28.35312,14.97759
78.96,1.660223,1.116886,0.3932757,0.984254,-0.01595719,-0.112281,-32.00056,-28.35312,14.97759
78.97,1.286867,0.940166700000002,0.2711574,0.9823295,-0.01838317,-0.1113261,-32.00056,-28.35312,14.97759
78.98,0.4779299,0.05656894,0.3932757,0.9808723,-0.01699101,-0.1166349,-32.36687,-28.35075,14.97411
78.99,0.04234824,-0.1790571,0.5153941,0.9837384,-0.01445666,-0.1064885,-32.36687,-28.35075,14.97411
79,-0.01987772,-0.0612440899999998,0.3322166,0.9812738,-0.01014231,-0.1088983,-32.36687,-28.35075,14.97411
79.01,-0.0821036699999998,-0.1201506,0.0879799099999998,0.9860789,-0.005230177,-0.105015,-32.36687,-28.35075,14.97411
79.02,0.04234824,-0.002337579,0.2711574,0.9846553,-0.01004565,-0.1011686,-32.36687,-28.35075,14.97411
79.03,0.1668001,-0.0612440899999998,0.2711574,0.9876139,-0.01203741,-0.1098512,-32.74556,-27.68375,14.95993
79.04,0.291252,-0.1201506,0.3322166,0.985254,-0.02166894,-0.1026397,-32.74556,-27.68375,14.95993
79.05,0.1045742,-0.4146832,0.3322166,0.9857497,-0.02310374,-0.1011939,-32.74556,-27.68375,14.95993
79.06,-0.2065556,-0.4735897,0.3322166,0.9940479,-0.0264354,-0.1021447,-32.74556,-27.68375,14.95993
79.07,-0.01987772,-0.2379636,0.576453200000001,0.9974317,-0.02728465,-0.09200431,-32.74556,-27.68375,14.95993
79.08,0.291252,0.2332885,0.4543349,0.989598,-0.02012608,-0.09635206,-32.74195,-27.68993,14.58083
79.09,0.1668001,0.7634471,0.3932757,0.985727,-0.02068417,-0.1011887,-32.74195,-27.68993,14.58083
79.1,0.291252,0.8223537,0.2100982,0.9794548,-0.02604778,-0.1002513,-32.74195,-27.68993,14.58083
79.11,0.602381800000001,0.3511015,0.0879799099999998,0.9882141,-0.02601016,-0.1036065,-32.74195,-27.68993,14.58083
79.12,0.789059599999997,0.1154754,0.1490391,0.9852918,-0.02460747,-0.1065063,-32.74195,-27.68993,14.58083
79.13,0.913511500000001,0.2332885,0.3322166,0.9929823,-0.01675594,-0.1011616,-32.3725,-28.04865,14.96925
79.14,0.664607699999999,0.410008,-0.0951975900000001,0.984212,-0.01394266,-0.1035909,-32.3725,-28.04865,14.96925
79.15,0.602381800000001,0.5278211,0.3932757,0.9871609,-0.01543298,-0.1103422,-32.3725,-28.04865,14.96925
79.16,0.602381800000001,0.3511015,0.1490391,0.9857704,-0.02270308,-0.1103614,-32.3725,-28.04865,14.96925
79.17,0.789059599999997,-0.002337579,0.0879799099999998,0.9896067,-0.0173409,-0.1093749,-32.3725,-28.04865,14.96925
79.18,0.602381800000001,-0.1790571,0.1490391,0.9856977,-0.01589761,-0.1069691,-33.11186,-27.68137,14.95646
79.19,0.664607699999999,-0.2379636,0.1490391,0.9901308,-0.02262073,-0.1050419,-33.11186,-27.68137,14.95646
79.2,0.602381800000001,0.2332885,0.02692074,0.98872,-0.02372701,-0.1190419,-33.11186,-27.68137,14.95646
79.21,0.975737500000002,0.174382,0.4543349,0.9906616,-0.02464022,-0.1146959,-33.11186,-27.68137,14.95646
79.22,1.037963,0.410008,0.3322166,0.9886984,-0.02224898,-0.1161435,-33.11186,-27.68137,14.95646
79.23,0.851285599999998,0.4689145,0.2711574,0.9877321,-0.02274486,-0.1166296,-32.75231,-27.32123,14.9541
79.24,0.602381800000001,0.292195,0.3932757,0.985239,-0.01552265,-0.1185507,-32.75231,-27.32123,14.9541
79.25,0.291252,0.05656894,0.3322166,0.9857267,-0.01458608,-0.1224078,-32.75231,-27.32123,14.9541
79.26,0.291252,0.1154754,0.2711574,0.9783901,-0.01121178,-0.117594,-32.75231,-27.32123,14.9541
79.27,0.4779299,-0.1790571,0.1490391,0.9740377,-0.01132042,-0.1258087,-32.75231,-27.32123,14.9541
79.28,0.5401558,-0.591402700000002,0.1490391,0.9745556,-0.01470402,-0.1258147,-32.74615,-27.68272,15.02312
79.29,0.291252,-0.885935200000002,0.1490391,0.9813203,-0.01264076,-0.1175895,-32.74615,-27.68272,15.02312
79.3,-0.01987772,-1.121561,0.1490391,0.9847346,-0.01452794,-0.115172,-32.74615,-27.68272,15.02312
79.31,-0.3310075,-1.239374,0.1490391,0.9866076,-0.007711678,-0.1122572,-32.74615,-27.68272,15.02312
79.32,-0.642137300000001,-1.239374,0.0879799099999998,0.9812418,-0.007692072,-0.1055153,-32.74615,-27.68272,15.02312
79.33,-1.139945,-1.062655,0.3322166,0.9895623,-0.01203538,-0.1112938,-32.74301,-28.03906,15.40805
79.34,-0.8288152,-1.062655,0.2100982,0.982812,-0.01977416,-0.1050547,-32.74301,-28.03906,15.40805
79.35,-0.5176854,-0.768122299999998,0.2100982,0.9833573,-0.02512409,-0.1084426,-32.74301,-28.03906,15.40805
79.36,0.2290261,-0.6503092,0.2100982,0.9847785,-0.02170778,-0.1065014,-32.74301,-28.03906,15.40805
79.37,0.415704,-0.944841800000002,0.1490391,0.9857632,-0.0222104,-0.1093953,-32.74976,-27.67654,15.40222
79.38,0.1045742,-0.944841800000002,0.3322166,0.9872051,-0.02167567,-0.1050474,-32.74976,-27.67654,15.40222
79.39,-0.4554594,-0.768122299999998,0.2100982,0.9895911,-0.01635117,-0.10696,-32.74976,-27.67654,15.40222
79.4,-0.3932334,-0.709215699999997,-0.03413842,0.9862202,-0.01882797,-0.1103519,-32.74976,-27.67654,15.40222
79.41,-0.2687815,-0.709215699999997,0.3322166,0.9891516,-0.02119848,-0.1074542,-32.74976,-27.67654,15.40222
79.42,0.1668001,-0.4146832,0.02692074,0.9930266,-0.02065355,-0.1040651,-32.3767,-28.04143,15.41154
79.43,0.04234824,-0.3557767,0.0879799099999998,0.9896129,-0.01923712,-0.105036,-32.3767,-28.04143,15.41154
79.44,0.291252,-0.5324962,0.0879799099999998,0.9891945,-0.0250917,-0.1098752,-32.3767,-28.04143,15.41154
79.45,0.291252,-0.0612440899999998,0.3322166,0.9857424,-0.02026598,-0.108426,-32.3767,-28.04143,15.41154
79.46,0.04234824,-0.1790571,0.2711574,0.9901299,-0.02074204,-0.111311,-32.3767,-28.04143,15.41154
79.47,-0.2687815,0.05656894,0.4543349,0.9882076,-0.02270601,-0.1127679,-32.37564,-27.69231,14.58431
79.48,-0.3932334,0.174382,0.3932757,0.9867858,-0.02565155,-0.1161557,-32.37564,-27.69231,14.58431
79.49,-0.2687815,-0.1790571,0.2711574,0.981913,-0.0247129,-0.1152012,-32.37564,-27.69231,14.58431
79.5,0.4779299,-0.4146832,0.02692074,0.9872276,-0.01940507,-0.1214492,-32.37564,-27.69231,14.58431
79.51,0.664607699999999,-0.591402700000002,0.1490391,0.985753,-0.01795595,-0.1204848,-32.37564,-27.69231,14.58431
79.52,0.913511500000001,-0.4146832,0.0879799099999998,0.9828098,-0.015546,-0.1190395,-32.7388,-28.04627,14.96577
79.53,0.789059599999997,-0.3557767,-0.1562568,0.977899,-0.01026089,-0.1190408,-32.7388,-28.04627,14.96577
79.54,0.353478,-0.1201506,0.1490391,0.9838299,-0.01804123,-0.1282107,-32.7388,-28.04627,14.96577
79.55,-0.0821036699999998,-0.2968701,0.2711574,0.9823402,-0.01607314,-0.1233848,-32.7388,-28.04627,14.96577
79.56,-0.5176854,-0.5324962,0.2711574,0.983293,-0.01412552,-0.1228956,-32.7388,-28.04627,14.96577
79.57,-0.953267000000001,-0.4146832,0.3932757,0.9852765,-0.01939834,-0.1190414,-32.74615,-27.68272,15.02312
79.58,-0.953267000000001,-0.6503092,0.3932757,0.985268,-0.0165562,-0.125791,-32.74615,-27.68272,15.02312
79.59,-0.5176854,-0.4735897,0.2100982,0.9808946,-0.01800266,-0.1214625,-32.74615,-27.68272,15.02312
79.6,-0.2687815,-0.591402700000002,0.0879799099999998,0.9804184,-0.02085297,-0.1151967,-32.74615,-27.68272,15.02312
79.61,-0.3932334,-0.827028800000001,0.1490391,0.9857437,-0.01792528,-0.1171069,-32.74615,-27.68272,15.02312
79.62,-0.891041099999997,-0.591402700000002,0.1490391,0.9915387,-0.01447044,-0.1146718,-32.74556,-27.68375,14.95993
79.63,-0.891041099999997,-0.885935200000002,0.2711574,0.9934943,-0.01496109,-0.1170805,-32.74556,-27.68375,14.95993
79.64,-1.015493,-0.591402700000002,0.1490391,0.9891289,-0.01643383,-0.1156473,-32.74556,-27.68375,14.95993
79.65,-0.8288152,-0.5324962,0.2711574,0.9789865,-0.02423423,-0.1132775,-32.74556,-27.68375,14.95993
79.66,-0.579911399999998,-0.4735897,0.3322166,0.9765919,-0.02671659,-0.1181145,-32.74556,-27.68375,14.95993
79.67,-0.2687815,-0.5324962,0.0879799099999998,0.9775631,-0.02811254,-0.1128069,-32.74195,-27.68993,14.58083
79.68,0.1045742,-1.062655,-0.0951975900000001,0.9872748,-0.02706444,-0.1122971,-32.74195,-27.68993,14.58083
79.69,0.2290261,-1.357187,-0.1562568,0.9876515,-0.0159131,-0.1103419,-32.74195,-27.68993,14.58083
79.7,0.1668001,-1.239374,0.0879799099999998,0.9910228,-0.01390707,-0.1055034,-32.74195,-27.68993,14.58083
79.71,-0.642137300000001,-0.709215699999997,0.2711574,0.9939485,-0.01250705,-0.1136962,-32.74195,-27.68993,14.58083
79.72,-0.766589199999999,-0.3557767,0.2711574,0.9857422,-0.01885805,-0.1132485,-32.37107,-28.34353,15.4164
79.73,-0.704363199999999,-0.6503092,0.0879799099999998,0.97995,-0.02232165,-0.1166487,-32.37107,-28.34353,15.4164
79.74,-0.3932334,-1.298281,-0.1562568,0.9842678,-0.01647177,-0.1156599,-32.37107,-28.34353,15.4164
79.75,-0.0821036699999998,-1.475,0.02692074,0.9867334,-0.02266482,-0.106981,-32.37107,-28.34353,15.4164
79.76,-0.01987772,-1.180468,0.3322166,0.9900873,-0.01825674,-0.1040676,-32.37107,-28.34353,15.4164
79.77,-0.01987772,-0.6503092,0.0879799099999998,0.9930454,-0.02212281,-0.1059984,-32.75336,-27.67035,15.78132
79.78,0.1045742,-0.0612440899999998,0.2100982,0.992599,-0.02319522,-0.1171005,-32.75336,-27.67035,15.78132
79.79,0.726833699999999,0.1154754,0.02692074,0.9867786,-0.02515887,-0.1151896,-32.75336,-27.67035,15.78132
79.8,0.726833699999999,0.174382,0.3932757,0.9892511,-0.02715443,-0.1238734,-32.75336,-27.67035,15.78132
79.81,0.664607699999999,0.3511015,0.3932757,0.9907089,-0.02667228,-0.1253162,-32.75336,-27.67035,15.78132
79.82,0.851285599999998,0.4689145,0.0879799099999998,0.9936785,-0.0324521,-0.1248384,-32.75291,-27.3202,15.01728
79.83,1.909127,0.7634471,0.576453200000001,0.9941039,-0.02568227,-0.1257879,-32.75291,-27.3202,15.01728
79.84,2.718064,1.529232,0.759630700000001,0.9921424,-0.02235825,-0.1310938,-32.75291,-27.3202,15.01728
79.85,3.09142,2.23611,0.881749099999998,0.9881958,-0.01703926,-0.1281973,-32.75291,-27.3202,15.01728
79.86,3.029194,2.766268,0.698571599999999,0.9857785,-0.01475697,-0.1412274,-32.75291,-27.3202,15.01728
79.87,2.78029,3.060801,0.9428082,0.981907,-0.01484428,-0.1475107,-33.12642,-27.30546,15.77201
79.88,1.971353,3.355334,0.820689899999999,0.9814531,-0.01636116,-0.1542708,-33.12642,-27.30546,15.77201
79.89,0.851285599999998,3.237521,0.881749099999998,0.9751526,-0.01787976,-0.1562205,-33.12642,-27.30546,15.77201
79.9,0.291252,2.942988,0.881749099999998,0.9755833,-0.01347254,-0.1509019,-33.12642,-27.30546,15.77201
79.91,-0.01987772,1.588138,0.9428082,0.9702407,-0.01634327,-0.1427185,-33.12642,-27.30546,15.77201
79.92,0.602381800000001,0.7634471,0.698571599999999,0.9682531,-0.0110573,-0.145125,-32.7388,-28.04627,14.96577
79.93,1.100189,-0.6503092,0.2711574,0.9618658,-0.006192996,-0.1369277,-32.7388,-28.04627,14.96577
79.94,1.100189,-2.417505,-0.0951975900000001,0.9651821,0.001153618,-0.1301477,-32.7388,-28.04627,14.96577
79.95,0.602381800000001,-3.477822,-0.4004934,0.9699843,0.005137362,-0.1219234,-32.7388,-28.04627,14.96577
79.96,-0.3310075,-3.772354,-0.4615526,0.9816573,0.001924278,-0.1127318,-32.7388,-28.04627,14.96577
79.97,-1.513301,-3.418916,-0.583670900000002,0.9869713,0.002075557,-0.1006541,-32.38345,-27.67891,15.4057
79.98,-2.571142,-3.360009,-0.5226117,0.9865867,-0.01139458,-0.09151557,-32.38345,-27.67891,15.4057
79.99,-3.068949,-3.654541,-0.4615526,0.9861093,-0.01330336,-0.08814307,-32.38345,-27.67891,15.4057
80,-3.317853,-4.125793,-0.766848400000001,0.9876202,-0.02331395,-0.07271913,-32.38345,-27.67891,15.4057
80.01,-3.131175,-4.125793,-0.644730100000001,0.9939474,-0.02657315,-0.06402394,-32.38345,-27.67891,15.4057
80.02,-2.508916,-3.713448,-0.3394342,0.9959035,-0.02987965,-0.05678777,-32.74556,-27.68375,14.95993
80.03,-1.699978,-2.417505,-0.3394342,1.002792,-0.03666706,-0.06402283,-32.74556,-27.68375,14.95993
80.04,-1.015493,-1.416094,0.02692074,1.008639,-0.03666534,-0.06883323,-32.74556,-27.68375,14.95993
80.05,-0.579911399999998,-0.0612440899999998,0.0879799099999998,1.001338,-0.03200142,-0.08187085,-32.74556,-27.68375,14.95993
80.06,-0.704363199999999,0.7634471,0.4543349,1.006262,-0.03498527,-0.09489339,-33.11606,-27.67416,15.39874
80.07,-0.4554594,1.588138,0.576453200000001,1.008716,-0.03551155,-0.1016439,-33.11606,-27.67416,15.39874
80.08,0.1668001,2.000484,0.881749099999998,1.002926,-0.03710961,-0.1127609,-33.11606,-27.67416,15.39874
80.09,1.037963,2.589549,1.064927,0.996601,-0.03526271,-0.1171161,-33.11606,-27.67416,15.39874
80.1,1.784675,2.766268,0.759630700000001,0.9843948,-0.02908421,-0.1190645,-33.11606,-27.67416,15.39874
80.11,2.033579,2.825175,0.759630700000001,0.9878189,-0.03147284,-0.1185783,-32.74301,-28.03906,15.40805
80.12,2.531386,2.942988,0.820689899999999,0.9863937,-0.03159377,-0.1306459,-32.74301,-28.03906,15.40805
80.13,3.215872,2.707362,0.9428082,1.000417,-0.02139164,-0.1383086,-32.74301,-28.03906,15.40805
80.14,3.71368,3.355334,1.431281,0.9964458,-0.01083285,-0.1445693,-32.74301,-28.03906,15.40805
80.15,3.40255,3.826586,1.736577,0.9857787,-0.01381981,-0.1446032,-32.74301,-28.03906,15.40805
80.16,2.655838,4.238932,1.370222,0.9712079,-0.01303592,-0.1523599,-33.10825,-27.68756,14.57735
80.17,1.909127,3.708773,1.125986,0.9673775,-0.01794923,-0.1572058,-33.10825,-27.68756,14.57735
80.18,1.224641,2.471736,0.881749099999998,0.9712864,-0.02032968,-0.1562358,-33.10825,-27.68756,14.57735
80.19,0.5401558,1.293606,0.759630700000001,0.9731323,-0.01060993,-0.1533148,-33.10825,-27.68756,14.57735
80.2,0.4779299,0.174382,0.698571599999999,0.9764855,-0.009013325,-0.1402739,-33.10825,-27.68756,14.57735
80.21,0.726833699999999,-0.591402700000002,0.576453200000001,0.9726127,-0.01144134,-0.1378764,-32.39021,-27.31639,15.39987
80.22,1.535771,-1.592813,0.2711574,0.9672692,-0.0100883,-0.1441604,-32.39021,-27.31639,15.39987
80.23,2.033579,-2.712037,-0.2783751,0.9701571,-0.0104399,-0.13209,-32.39021,-27.31639,15.39987
80.24,1.473545,-3.418916,-0.4004934,0.9764888,-0.01418302,-0.1233958,-32.39021,-27.31639,15.39987
80.25,0.291252,-3.654541,-0.705789299999999,0.9841975,-0.008267145,-0.1180552,-32.39021,-27.31639,15.39987
80.26,-1.139945,-3.595635,-0.888966700000001,0.9865853,-0.006700033,-0.1074296,-32.38345,-27.67891,15.4057
80.27,-2.508916,-3.065476,-0.8279076,0.9851174,-0.007617901,-0.1006797,-32.38345,-27.67891,15.4057
80.28,-3.131175,-2.653131,-0.888966700000001,0.9851906,-0.01489414,-0.1026253,-32.38345,-27.67891,15.4057
80.29,-2.633368,-2.476411,-0.766848400000001,0.9862142,-0.02162191,-0.09829421,-32.38345,-27.67891,15.4057
80.3,-1.264397,-2.240785,-0.5226117,0.9828743,-0.03029758,-0.09156579,-32.38345,-27.67891,15.4057
80.31,-0.3310075,-2.122972,-0.2173159,0.9897289,-0.0360339,-0.08963024,-32.38345,-27.67891,15.4057
80.32,0.1668001,-1.710626,0.0879799099999998,1.00042,-0.0354709,-0.09008401,-32.38345,-27.67891,15.4057
80.33,0.851285599999998,-0.827028800000001,0.3932757,1.000443,-0.03742408,-0.09201834,-32.38345,-27.67891,15.4057
80.34,1.286867,0.174382,0.3932757,0.9975,-0.03032396,-0.1069697,-32.38345,-27.67891,15.4057
80.35,1.411319,0.586727600000001,0.2711574,0.9965022,-0.02649529,-0.1108244,-32.38345,-27.67891,15.4057
80.36,1.037963,0.999073199999999,0.4543349,0.9959925,-0.02548306,-0.1055155,-32.3767,-28.04143,15.41154
80.37,0.353478,1.470325,0.3322166,0.9955072,-0.02502047,-0.107446,-32.3767,-28.04143,15.41154
80.38,-0.3310075,1.647045,0.5153941,0.9920885,-0.02264937,-0.1098624,-32.3767,-28.04143,15.41154
80.39,-0.2065556,2.353923,0.4543349,0.9862548,-0.01894189,-0.1228983,-32.3767,-28.04143,15.41154
80.4,0.5401558,2.118297,0.4543349,0.9770641,-0.02150804,-0.1311309,-32.3767,-28.04143,15.41154
80.41,1.597997,1.764858,0.2711574,0.966308,-0.01388395,-0.1350026,-32.7394,-28.04524,15.02895
80.42,1.909127,0.5278211,0.0879799099999998,0.9687361,-0.01526414,-0.1292087,-32.7394,-28.04524,15.02895
80.43,1.349093,-0.1790571,-0.03413842,0.9799137,-0.01376018,-0.1330371,-32.7394,-28.04524,15.02895
80.44,0.789059599999997,-0.1201506,-0.03413842,0.9852583,-0.01277252,-0.1354339,-32.7394,-28.04524,15.02895
80.45,0.1668001,0.05656894,-0.1562568,0.9842821,-0.01276697,-0.1339888,-32.7394,-28.04524,15.02895
80.46,-0.3310075,0.174382,-0.1562568,0.9760274,-0.0137993,-0.1340123,-33.12281,-27.31164,15.39291
80.47,-0.4554594,-0.2379636,-0.2173159,0.9722232,-0.02067455,-0.1417577,-33.12281,-27.31164,15.39291
80.48,-0.5176854,-0.709215699999997,-0.0951975900000001,0.9853454,-0.02056335,-0.1407585,-33.12281,-27.31164,15.39291
80.49,-0.0821036699999998,-0.709215699999997,0.1490391,0.981509,-0.02592552,-0.141745,-33.12281,-27.31164,15.39291
80.5,0.664607699999999,-0.709215699999997,0.0879799099999998,0.9863813,-0.03108356,-0.1277496,-33.12281,-27.31164,15.39291
80.51,1.286867,-0.944841800000002,0.0879799099999998,0.9747249,-0.03073891,-0.1330869,-32.37925,-27.68612,14.96342
80.52,1.411319,-1.533907,-0.1562568,0.982488,-0.02828492,-0.135957,-32.37925,-27.68612,14.96342
80.53,0.851285599999998,-1.592813,-0.583670900000002,0.9789494,-0.01613914,-0.1277366,-32.37925,-27.68612,14.96342
80.54,0.2290261,-1.946253,-0.8279076,0.9784553,-0.01377156,-0.1330408,-32.37925,-27.68612,14.96342
80.55,-0.3932334,-2.299692,-0.8279076,0.9813005,-0.00694771,-0.1301236,-32.37925,-27.68612,14.96342
80.56,-0.2687815,-1.887346,-0.8279076,0.9886284,-0.01310719,-0.1219146,-33.12281,-27.31164,15.39291
80.57,-0.01987772,-1.65172,-0.4615526,0.9861534,-0.0125108,-0.1074432,-33.12281,-27.31164,15.39291
80.58,0.2290261,-0.944841800000002,-0.3394342,0.9910454,-0.01632664,-0.1055086,-33.12281,-27.31164,15.39291
80.59,0.415704,-0.591402700000002,-0.1562568,0.9862541,-0.02409844,-0.1045726,-33.12281,-27.31164,15.39291
80.6,0.602381800000001,-0.4735897,-0.1562568,0.9921412,-0.03173419,-0.09781811,-33.12281,-27.31164,15.39291
80.61,0.1668001,-0.3557767,-0.0951975900000001,0.998897,-0.0287031,-0.08959084,-32.74976,-27.67654,15.40222
80.62,-0.5176854,0.1154754,0.02692074,0.9969254,-0.02815988,-0.08139142,-32.74976,-27.67654,15.40222
80.63,-0.766589199999999,1.05798,0.0879799099999998,1.005715,-0.03009734,-0.08909371,-32.74976,-27.67654,15.40222
80.64,0.1045742,1.705951,0.576453200000001,1.002305,-0.02541183,-0.1030863,-32.74976,-27.67654,15.40222
80.65,1.535771,1.882671,0.881749099999998,0.9935945,-0.02842304,-0.1074582,-32.74976,-27.67654,15.40222
80.66,2.406934,2.05939,0.820689899999999,0.9950382,-0.02836346,-0.1021463,-33.11292,-28.0305,15.78368
80.67,2.282483,2.05939,1.003867,0.9906555,-0.02743416,-0.1026382,-33.11292,-28.0305,15.78368
80.68,1.722449,1.882671,1.248104,0.9920341,-0.01918748,-0.1016518,-33.11292,-28.0305,15.78368
80.69,1.037963,1.882671,1.003867,0.9949081,-0.01198926,-0.1107973,-33.11292,-28.0305,15.78368
80.7,0.4779299,2.177203,0.820689899999999,0.9885746,-0.01011607,-0.1122573,-32.02075,-27.67511,15.78829
80.71,-0.2687815,2.295016,0.3932757,0.988525,-0.001510779,-0.1238201,-32.02075,-27.67511,15.78829
80.72,-0.766589199999999,2.23611,0.3322166,0.9838139,-0.01564357,-0.1306183,-32.02075,-27.67511,15.78829
80.73,-0.704363199999999,2.000484,0.3322166,0.9746213,-0.02007966,-0.1316167,-32.02075,-27.67511,15.78829
80.74,-0.766589199999999,1.352512,0.5153941,0.9731673,-0.02151211,-0.1282457,-32.02075,-27.67511,15.78829
80.75,-0.8288152,0.645634099999999,0.6375124,0.9741322,-0.02101184,-0.127277,-32.74301,-28.03906,15.40805
80.76,-0.704363199999999,0.2332885,0.3932757,0.9814185,-0.01859232,-0.1335261,-32.74301,-28.03906,15.40805
80.77,-0.642137300000001,-0.002337579,0.3322166,0.9886605,-0.01227519,-0.1368717,-32.74301,-28.03906,15.40805
80.78,-0.891041099999997,0.05656894,0.02692074,0.9823912,-0.0190555,-0.132077,-32.74301,-28.03906,15.40805
80.79,-1.202171,0.2332885,0.1490391,0.9795387,-0.02538667,-0.1340281,-32.74301,-28.03906,15.40805
80.8,-1.264397,-0.0612440899999998,0.3932757,0.9834158,-0.02766196,-0.1214768,-32.74976,-27.67654,15.40222
80.81,-1.077719,-0.002337579,0.2711574,0.9848911,-0.0286447,-0.1243703,-32.74976,-27.67654,15.40222
80.82,-1.264397,-0.2379636,0.3932757,0.9848059,-0.02132903,-0.1180817,-32.74976,-27.67654,15.40222
80.83,-1.886656,-0.4146832,0.2711574,0.9818302,-0.01599807,-0.1147001,-32.74976,-27.67654,15.40222
80.84,-2.073334,-0.0612440899999998,0.2100982,0.9856859,-0.01257594,-0.1142002,-32.74976,-27.67654,15.40222
80.85,-2.384464,0.292195,-0.2783751,0.9851953,-0.01209581,-0.1142005,-32.0197,-27.32598,14.96106
80.86,-2.073334,0.1154754,0.2100982,0.9881456,-0.0159356,-0.113236,-32.0197,-27.32598,14.96106
80.87,-2.260012,0.410008,0.5153941,0.9862218,-0.01789519,-0.1142103,-32.0197,-27.32598,14.96106
80.88,-2.197786,0.4689145,0.6375124,0.9915866,-0.01931834,-0.1156472,-32.0197,-27.32598,14.96106
80.89,-2.508916,0.410008,0.3932757,0.9881772,-0.019323,-0.1132432,-32.0197,-27.32598,14.96106
80.9,-2.260012,0.645634099999999,0.2100982,0.9863047,-0.02661003,-0.1147114,-32.38345,-27.67891,15.4057
80.91,-2.260012,0.881260199999998,0.2100982,0.9930728,-0.02174406,-0.1175787,-32.38345,-27.67891,15.4057
80.92,-1.948882,1.234699,0.576453200000001,0.9911716,-0.02706038,-0.1151823,-32.38345,-27.67891,15.4057
80.93,-1.699978,1.411419,0.4543349,0.9901848,-0.02467469,-0.118075,-32.38345,-27.67891,15.4057
80.94,-1.388849,0.999073199999999,0.5153941,0.9863214,-0.0285413,-0.1142329,-32.38345,-27.67891,15.4057
80.95,-1.202171,0.8223537,0.698571599999999,0.9873089,-0.02905268,-0.1180919,-32.39021,-27.31639,15.39987
80.96,-0.953267000000001,0.940166700000002,0.759630700000001,0.9833668,-0.02421761,-0.1151963,-32.39021,-27.31639,15.39987
80.97,-0.579911399999998,1.293606,0.4543349,0.9905806,-0.01640054,-0.1132307,-32.39021,-27.31639,15.39987
80.98,-0.3310075,1.764858,0.576453200000001,0.9872161,-0.01749133,-0.1238578,-32.39021,-27.31639,15.39987
80.99,-0.0821036699999998,1.529232,0.3322166,0.988658,-0.01461151,-0.1277083,-32.39021,-27.31639,15.39987
81,-0.3932334,1.293606,0.3322166,0.9852861,-0.01849186,-0.1257952,-32.75546,-26.96489,14.56916
81.01,-0.953267000000001,1.234699,0.3322166,0.9838299,-0.02038632,-0.1200124,-32.75546,-26.96489,14.56916
81.02,-0.953267000000001,1.05798,0.2711574,0.9770132,-0.01758853,-0.1258146,-32.75546,-26.96489,14.56916
81.03,-0.953267000000001,0.999073199999999,0.2711574,0.981883,-0.01945557,-0.1224282,-32.75546,-26.96489,14.56916
81.04,-0.4554594,1.175793,0.2100982,0.98237,-0.01898539,-0.1243561,-32.75546,-26.96489,14.56916
81.05,-0.2065556,0.5278211,0.1490391,0.9809505,-0.02053177,-0.1335315,-32.37985,-27.68509,15.0266
81.06,-0.2065556,0.5278211,-0.03413842,0.9818996,-0.01997892,-0.1267722,-32.37985,-27.68509,15.0266
81.07,-0.642137300000001,0.5278211,-0.0951975900000001,0.982268,-0.009738445,-0.1185459,-32.37985,-27.68509,15.0266
81.08,-1.077719,0.5278211,-0.1562568,0.981303,-0.01023871,-0.1195145,-32.37985,-27.68509,15.0266
81.09,-1.264397,0.3511015,0.02692074,0.9842313,-0.01119254,-0.1204741,-32.37985,-27.68509,15.0266
81.1,-0.953267000000001,0.3511015,-0.0951975900000001,0.9842351,-0.01448792,-0.1103477,-32.36889,-28.05483,14.59015
81.11,-0.579911399999998,0.05656894,0.2100982,0.9876788,-0.01787943,-0.1137239,-32.36889,-28.05483,14.59015
81.12,-0.642137300000001,-0.0612440899999998,0.3932757,0.9916356,-0.02510779,-0.1137293,-32.36889,-28.05483,14.59015
81.13,-0.766589199999999,0.586727600000001,0.4543349,0.9906328,-0.02266951,-0.1108313,-32.36889,-28.05483,14.59015
81.14,-1.015493,0.7634471,0.2100982,0.991616,-0.0241049,-0.1098668,-32.36889,-28.05483,14.59015
81.15,-1.077719,1.175793,0.3932757,0.990567,-0.01729388,-0.1050294,-32.7388,-28.04627,14.96577
81.16,-1.451075,1.705951,0.4543349,0.9978433,-0.016718,-0.101149,-32.7388,-28.04627,14.96577
81.17,-1.202171,1.882671,0.576453200000001,0.9857438,-0.02027036,-0.1089086,-32.7388,-28.04627,14.96577
81.18,-0.953267000000001,1.470325,0.6375124,0.9793804,-0.01548493,-0.1093973,-32.7388,-28.04627,14.96577
81.19,-0.5176854,1.116886,0.6375124,0.9827695,-0.01166154,-0.1175836,-32.7388,-28.04627,14.96577
81.2,-0.704363199999999,0.8223537,0.881749099999998,0.9837461,-0.01307503,-0.1142063,-33.11606,-27.67416,15.39874
81.21,-1.326623,1.05798,0.698571599999999,0.9890613,-0.01058305,-0.1108094,-33.11606,-27.67416,15.39874
81.22,-2.011108,1.234699,0.698571599999999,0.9880686,-0.007709059,-0.1132185,-33.11606,-27.67416,15.39874
81.23,-1.886656,1.116886,0.759630700000001,0.9939309,-0.01104216,-0.1122455,-33.11606,-27.67416,15.39874
81.24,-1.699978,0.999073199999999,0.698571599999999,0.9847381,-0.01407032,-0.1180663,-33.11606,-27.67416,15.39874
81.25,-1.82443,0.645634099999999,0.6375124,0.9818506,-0.01887964,-0.1122935,-32.3725,-28.04865,14.96925
81.26,-1.948882,0.940166700000002,0.4543349,0.9866745,-0.01402885,-0.1151659,-32.3725,-28.04865,14.96925
81.27,-2.011108,0.586727600000001,0.759630700000001,0.9828563,-0.02038952,-0.1195324,-32.3725,-28.04865,14.96925
81.28,-1.82443,0.410008,0.820689899999999,0.9794698,-0.02187659,-0.1205094,-32.3725,-28.04865,14.96925
81.29,-1.762204,0.2332885,0.9428082,0.9823884,-0.02232897,-0.1195377,-32.3725,-28.04865,14.96925
81.3,-2.011108,0.3511015,0.759630700000001,0.9862021,-0.01689231,-0.1103478,-32.74195,-27.68993,14.58083
81.31,-1.886656,0.645634099999999,0.698571599999999,0.9838315,-0.02179862,-0.1156725,-32.74195,-27.68993,14.58083
81.32,-1.575527,0.645634099999999,0.759630700000001,0.9867917,-0.02613985,-0.1166393,-32.74195,-27.68993,14.58083
81.33,-0.953267000000001,0.7634471,0.6375124,0.989244,-0.02666175,-0.1229072,-32.74195,-27.68993,14.58083
81.34,-0.642137300000001,0.5278211,0.698571599999999,0.9863417,-0.03001495,-0.1166488,-32.37204,-27.69849,14.20521
81.35,-0.579911399999998,0.645634099999999,0.9428082,0.9868079,-0.02994544,-0.1094092,-32.37204,-27.69849,14.20521
81.36,-0.579911399999998,0.8223537,0.9428082,0.9848164,-0.02464632,-0.110368,-32.37204,-27.69849,14.20521
81.37,-0.3932334,0.999073199999999,1.003867,0.980422,-0.02274043,-0.1098927,-32.37204,-27.69849,14.20521
81.38,-0.2687815,0.586727600000001,0.881749099999998,0.9838504,-0.02326789,-0.1176058,-32.37204,-27.69849,14.20521
81.39,-0.01987772,0.4689145,1.003867,0.9847929,-0.02269314,-0.1084337,-33.11186,-27.68137,14.95646
81.4,-0.1443296,0.645634099999999,1.064927,0.990171,-0.02416011,-0.1146961,-33.11186,-27.68137,14.95646
81.41,-0.642137300000001,0.881260199999998,1.003867,0.9895604,-0.01156023,-0.1122579,-33.11186,-27.68137,14.95646
81.42,-1.139945,1.529232,1.064927,0.9920035,-0.01205146,-0.1151479,-33.11186,-27.68137,14.95646
81.43,-1.326623,1.293606,1.064927,0.983859,-0.02611003,-0.1108562,-33.11186,-27.68137,14.95646
81.44,-1.077719,1.05798,0.9428082,0.9779943,-0.02183101,-0.11424,-32.7487,-27.32741,14.575
81.45,-0.8288152,0.5278211,1.248104,0.9814383,-0.02663044,-0.1127938,-32.7487,-27.32741,14.575
81.46,-0.579911399999998,0.3511015,1.309163,0.9921606,-0.03132915,-0.1065031,-32.7487,-27.32741,14.575
81.47,-0.3310075,0.704540600000002,1.431281,0.9896921,-0.02934674,-0.09926695,-32.7487,-27.32741,14.575
81.48,0.04234824,1.234699,1.064927,0.9867771,-0.02843673,-0.1031329,-32.7487,-27.32741,14.575
81.49,0.5401558,1.352512,1.003867,0.9876935,-0.02261779,-0.1026355,-33.10511,-28.04389,14.96229
81.5,0.975737500000002,1.234699,1.248104,0.9867651,-0.02605221,-0.1069882,-33.10511,-28.04389,14.96229
81.51,0.4779299,0.999073199999999,1.248104,0.98773,-0.02555194,-0.1060195,-33.10511,-28.04389,14.96229
81.52,0.04234824,0.8223537,1.431281,0.9935372,-0.02354447,-0.1031049,-33.10511,-28.04389,14.96229
81.53,-0.1443296,0.999073199999999,1.370222,0.9950035,-0.02355938,-0.1059965,-33.10511,-28.04389,14.96229
81.54,0.1668001,1.411419,1.370222,0.9939941,-0.0210992,-0.1006858,-32.36889,-28.05483,14.59015
81.55,0.291252,1.529232,1.187045,0.9877197,-0.02457974,-0.1055349,-32.36889,-28.05483,14.59015
81.56,0.4779299,1.470325,1.003867,0.9848191,-0.02700016,-0.1031349,-32.36889,-28.05483,14.59015
81.57,0.664607699999999,1.588138,1.309163,0.9824007,-0.02612141,-0.11086,-32.36889,-28.05483,14.59015
81.58,0.726833699999999,1.352512,1.5534,0.9863169,-0.02805739,-0.1142319,-32.36889,-28.05483,14.59015
81.59,1.224641,1.175793,1.370222,0.9872887,-0.02992411,-0.1074777,-33.10465,-27.69374,14.19825
81.6,1.349093,1.116886,1.248104,0.9892291,-0.02755071,-0.1142233,-33.10465,-27.69374,14.19825
81.61,1.162415,1.352512,1.248104,0.9838668,-0.02707348,-0.1103757,-33.10465,-27.69374,14.19825
81.62,1.100189,1.175793,0.9428082,0.9824425,-0.03141818,-0.107976,-33.10465,-27.69374,14.19825
81.63,1.473545,0.940166700000002,0.881749099999998,0.9775711,-0.02813883,-0.1157023,-33.10465,-27.69374,14.19825
81.64,2.095805,0.5278211,0.6375124,0.9819462,-0.02716752,-0.1190667,-33.47816,-27.679,14.95297
81.65,2.718064,0.05656894,0.6375124,0.9829118,-0.02713803,-0.1166514,-33.47816,-27.679,14.95297
81.66,2.842516,-0.4146832,0.5153941,0.9833665,-0.02515476,-0.1118205,-33.47816,-27.679,14.95297
81.67,2.718064,-0.5324962,0.576453200000001,0.9814195,-0.02750625,-0.1026622,-33.47816,-27.679,14.95297
81.68,2.218725,-0.3554606,0.5151662,0.9862429,-0.02359262,-0.1021588,-33.47816,-27.679,14.95297
81.69,2.153888,0.05725741,0.3314375,0.9916309,-0.02790611,-0.1021541,-32.7352,-28.05245,14.58667
81.7,2.275654,-0.001702516,0.3920996,0.9926395,-0.03083268,-0.1055357,-32.7352,-28.05245,14.58667
81.71,2.459396,0.1160016,0.3917221,0.9877889,-0.03184283,-0.1060329,-32.7352,-28.05245,14.58667
81.72,2.580661,0.1158929,0.4521742,0.9858823,-0.03714163,-0.1017063,-32.7352,-28.05245,14.58667
81.73,2.390917,-0.00199163,0.6347071,0.9814278,-0.02894047,-0.100735,-32.7352,-28.05245,14.58667
81.74,2.076902,0.0569359,0.5728123,0.9858596,-0.03472206,-0.1017011,-33.10511,-28.04389,14.96229
81.75,2.199358,-0.1197633,0.450231,0.9853464,-0.03182236,-0.1016962,-33.10511,-28.04389,14.96229
81.76,2.010132,0.2925292,0.5716304,0.9876883,-0.02494535,-0.09250696,-33.10511,-28.04389,14.96229
81.77,2.567387,0.1155532,0.5098916,0.9868117,-0.03324082,-0.09928274,-33.10511,-28.04389,14.96229
81.78,3.123922,-0.002330902,0.5091169,0.9828914,-0.02894661,-0.1026615,-33.10511,-28.04389,14.96229
81.79,3.368765,-0.3554896,0.5083624,0.9838087,-0.02266129,-0.1040932,-33.47095,-27.69136,14.19477
81.8,3.240121,-0.413857,0.812885500000002,0.9847519,-0.02162015,-0.09685032,-33.47095,-27.69136,14.19477
81.81,2.862891,-0.3544307,0.689784400000002,0.9915898,-0.02214296,-0.1069673,-33.47095,-27.69136,14.19477
81.82,2.486115,-0.118415,0.749900499999998,0.9955288,-0.0264985,-0.1103444,-33.47095,-27.69136,14.19477
81.83,2.358619,-0.0593782299999999,0.748977800000001,0.9867454,-0.02504933,-0.1031257,-33.47095,-27.69136,14.19477
81.84,1.795975,0.2938764,1.053352,0.9896793,-0.02742861,-0.101193,-33.11861,-27.31885,14.95062
81.85,1.482726,-0.000821751100000001,0.6859425,0.9848162,-0.02792856,-0.09879392,-33.11861,-27.31885,14.95062
81.86,1.356392,0.1169738,0.746120900000002,0.9838154,-0.02502828,-0.09830771,-33.11861,-27.31885,14.95062
81.87,1.852457,-0.2952597,0.8061854,0.9848004,-0.02459374,-0.1045774,-33.11861,-27.31885,14.95062
81.88,1.974445,-0.1181879,0.683111900000003,0.984789,-0.02267999,-0.106986,-33.11861,-27.31885,14.95062
81.89,2.158487,-0.0002448789,0.804218800000002,0.9814181,-0.02515679,-0.1103779,-32.75651,-27.31401,15.39639
81.9,2.155736,-0.1768716,0.803266200000001,0.9863451,-0.03190241,-0.1113448,-32.75651,-27.31401,15.39639
81.91,1.904438,-0.2943885,0.741274800000002,0.9940966,-0.02847183,-0.1132476,-32.75651,-27.31401,15.39639
81.92,1.528885,-0.2939817,0.801383799999998,0.9921676,-0.03275898,-0.1040934,-32.75651,-27.31401,15.39639
81.93,1.713604,0.1184186,0.861551400000002,0.9882684,-0.02947205,-0.1118172,-33.48806,-26.96014,14.5622
81.94,1.774274,0.2361016,0.6776389,0.9819191,-0.02660912,-0.1108623,-33.48806,-26.96014,14.5622
81.95,2.331962,0.176806,0.3715686,0.9713385,-0.03691614,-0.1176674,-33.48806,-26.96014,14.5622
81.96,2.888929,-0.0590051400000002,0.3709101,0.973249,-0.03725781,-0.1036693,-33.48806,-26.96014,14.5622
81.97,3.507345,-0.7654577,0.0652443499999999,0.9834363,-0.0352337,-0.1026736,-33.48806,-26.96014,14.5622
81.98,3.316262,-0.9411232,0.2481481,0.988159,-0.02535974,-0.0852684,-33.48806,-26.96014,14.5622
81.99,2.690032,-0.5866686,0.5529788,0.9930591,-0.02591963,-0.09780325,-33.10825,-27.68756,14.57735
82,1.940275,-0.585931700000002,0.857445899999997,0.9882183,-0.02508615,-0.10843,-33.10825,-27.68756,14.57735
82.01,1.440421,-0.5853067,0.734250499999999,0.9833423,-0.02366797,-0.107957,-33.10825,-27.68756,14.57735
82.02,1.19004,-0.702329000000003,0.794387500000003,0.9853671,-0.03142171,-0.1108637,-33.10825,-27.68756,14.57735
82.03,1.188643,-0.4070994,0.610269699999998,0.9848582,-0.03228817,-0.09928573,-32.74195,-27.68993,14.58083
82.04,1.125022,-0.1709065,0.4873657,0.9853739,-0.03378869,-0.1050782,-32.74195,-27.68993,14.58083
82.05,0.874743800000002,-0.2294873,0.5476017,0.9887669,-0.03232354,-0.106514,-32.74195,-27.68993,14.58083
82.06,1.060225,-0.05257205,0.791016299999999,0.9897493,-0.03422531,-0.1036202,-32.74195,-27.68993,14.58083
82.07,1.494397,-0.2291516,0.789907800000002,0.9864424,-0.04394768,-0.1055798,-32.74195,-27.68993,14.58083
82.08,1.990113,-0.4644898,0.7888389,0.9839336,-0.03339066,-0.1132844,-32.74976,-27.67654,15.40222
82.09,2.422921,-0.699421299999999,0.8488114,0.9863712,-0.03386436,-0.1142442,-32.74976,-27.67654,15.40222
82.1,2.295543,-0.9340209,0.847649300000002,0.9902085,-0.0280358,-0.1151869,-32.74976,-27.67654,15.40222
82.11,1.857332,-1.227195,0.846623000000003,0.9838377,-0.02369484,-0.1113336,-32.74976,-27.67654,15.40222
82.12,1.606135,-1.402225,0.723498800000003,0.9906509,-0.02460517,-0.1108354,-32.74976,-27.67654,15.40222
82.13,1.355835,-1.283128,0.967015400000002,0.9911125,-0.02170666,-0.1117931,-33.11501,-27.32503,14.57152
82.14,0.856675900000001,-1.104741,1.393177,0.9848707,-0.03045329,-0.1103804,-33.11501,-27.32503,14.57152
82.15,0.420194,-1.515514,2.184927,0.9883013,-0.03286383,-0.1123069,-33.11501,-27.32503,14.57152
82.16,0.730581,-1.866865,2.670541,0.990792,-0.03914012,-0.1127965,-33.11501,-27.32503,14.57152
82.17,1.351591,-1.098957,2.728189,0.9965265,-0.02798209,-0.1146879,-33.11501,-27.32503,14.57152
82.18,1.660788,-1.21539,2.419581,0.9901416,-0.01937355,-0.1204765,-33.12957,-26.94912,15.38707
82.19,1.472083,-1.154939,1.745121,0.9774799,-0.01798978,-0.1171283,-33.12957,-26.94912,15.38707
82.2,1.781344,-1.506649,1.010526,0.962346,-0.008983145,-0.1248688,-33.12957,-26.94912,15.38707
82.21,1.654714,-2.564704,0.765116199999998,0.9711041,-0.008003982,-0.1311172,-33.12957,-26.94912,15.38707
82.22,1.279475,-3.091438,1.313534,0.9925577,-0.01602414,-0.1267362,-33.12957,-26.94912,15.38707
82.23,0.5315081,-2.734227,2.776748,0.9960171,-0.02275047,-0.124329,-33.12957,-26.94912,15.38707
82.24,-0.775220399999997,-2.318595,3.566588,0.9931447,-0.02667083,-0.1272401,-33.12957,-26.94912,15.38707
82.25,-1.396096,-2.13913,3.439894,0.9916571,-0.02189566,-0.1330243,-33.12957,-26.94912,15.38707
82.26,-0.2748614,-1.783318,2.703056,0.9823822,-0.01808767,-0.1320749,-33.12957,-26.94912,15.38707
82.27,1.591422,-2.016853,1.356915,0.9712327,-0.02202873,-0.1301819,-33.12957,-26.94912,15.38707
82.28,3.206497,-2.308889,0.744772599999999,0.9702405,-0.02197059,-0.1229461,-33.11606,-27.67416,15.39874
82.29,4.321833,-2.835888,0.804992099999997,0.9809039,-0.01803333,-0.1248404,-33.11606,-27.67416,15.39874
82.3,4.689467,-2.479053,1.414285,0.9837929,-0.01698139,-0.118075,-33.11606,-27.67416,15.39874
82.31,4.434751,-1.828264,1.839788,0.9876093,-0.009208414,-0.1180484,-33.11606,-27.67416,15.39874
82.32,3.807234,-0.4716915,2.630786,0.9974102,-0.01548914,-0.1252749,-33.11606,-27.67416,15.39874
82.33,3.306035,0.588810999999998,2.933546,1.001889,-0.02611424,-0.1267338,-33.50623,-26.57804,15.75686
82.34,2.120136,1.353542,3.173925,0.991257,-0.0334389,-0.1248468,-33.50623,-26.57804,15.75686
82.35,2.304093,1.822853,3.108822,0.9776749,-0.03786093,-0.1205484,-33.50623,-26.57804,15.75686
82.36,3.918467,1.584956,2.860815,0.9616274,-0.038435,-0.1167306,-33.50623,-26.57804,15.75686
82.37,6.15594400000001,1.171615,2.675821,0.9625093,-0.03015706,-0.1118851,-33.50623,-26.57804,15.75686
82.38,7.08933400000002,0.3469235,3.042176,0.972144,-0.02322751,-0.1031594,-33.50262,-26.58422,15.37776
82.39,7.08933400000002,0.1112974,3.652767,0.9880479,-0.0104548,-0.09585273,-33.50262,-26.58422,15.37776
82.4,5.78258899999998,0.523643,4.568655,1.014243,-0.005850868,-0.09094978,-33.50262,-26.58422,15.37776
82.41,4.53807,1.525054,5.484543,1.013822,-0.01122592,-0.09627046,-33.50262,-26.58422,15.37776
82.42,3.791358,2.703184,6.40043000000002,0.9943629,-0.006639325,-0.1074094,-33.50262,-26.58422,15.37776
82.43,2.857969,3.233343,6.58360800000001,0.9715359,-0.009228463,-0.1065087,-33.12957,-26.94912,15.38707
82.44,2.609065,3.174436,6.40043000000002,0.9655797,0.003325298,-0.1045669,-33.12957,-26.94912,15.38707
82.45,2.049031,3.233343,5.97301600000002,0.9743421,0.0005383089,-0.09924228,-33.12957,-26.94912,15.38707
82.46,1.364546,3.468969,6.40043000000002,0.9971879,0.001658178,-0.1020763,-33.12957,-26.94912,15.38707
82.47,0.617834600000002,4.234754,7.74373200000003,1.026328,0.0015027,-0.09090281,-33.12957,-26.94912,15.38707
82.48,0.182253,6.00194899999999,9.270211,1.036233,-0.01919028,-0.08657881,-33.87254,-26.57567,15.75338
82.49,0.4933827,8.299303,10.00292,1.016972,-0.04058169,-0.08088388,-33.87254,-26.57567,15.75338
82.5,1.862354,10.53775,10.43034,0.9997125,-0.06542857,-0.08435965,-33.87254,-26.57567,15.75338
82.51,4.351392,11.48025,10.06398,1.005605,-0.0660466,-0.1041303,-33.87254,-26.57567,15.75338
82.52,6.59152600000001,11.95151,9.94186200000003,0.9961253,-0.08943361,-0.1133734,-33.87254,-26.57567,15.75338
82.53,10.82289,11.30353,9.45338800000002,0.9823191,-0.1167655,-0.1269792,-33.13947,-26.23026,14.9963
82.54,16.1121,9.830872,9.270211,0.9609863,-0.1218067,-0.1309054,-33.13947,-26.23026,14.9963
82.55,21.21462,7.65133099999999,8.78173699999999,0.9565128,-0.1097912,-0.1361992,-33.13947,-26.23026,14.9963
82.56,25.32154,5.412884,8.11008600000001,0.9752616,-0.08878668,-0.1307976,-33.13947,-26.23026,14.9963
82.57,28.12171,4.175847,7.37737700000002,0.9798459,-0.0611043,-0.1239706,-33.13947,-26.23026,14.9963
82.58,28.12171,3.999128,6.644667,0.9689572,-0.0417874,-0.1191317,-33.87929,-26.21315,15.74755
82.59,26.1927,4.588192,6.46148900000001,0.9638686,-0.01997033,-0.110412,-33.87929,-26.21315,15.74755
82.6,23.26808,5.118351,6.82784400000002,0.9833081,-0.01464449,-0.1267571,-33.87929,-26.21315,15.74755
82.61,21.4013,4.588192,6.94996300000002,0.9966587,-0.03826698,-0.1282211,-33.87929,-26.21315,15.74755
82.62,20.77904,5.059445,7.68267299999998,0.999235,-0.05795703,-0.1137803,-33.87929,-26.21315,15.74755
82.63,18.41446,6.35538799999998,8.90385599999999,0.9618205,-0.06486624,-0.09651989,-34.2591,-25.48573,15.7324
82.64,14.05864,7.41570499999999,8.59856000000002,0.9356833,-0.07998045,-0.08648627,-34.2591,-25.48573,15.7324
82.65,9.20501700000001,7.180079,7.621614,0.9566722,-0.09276467,-0.0734308,-34.2591,-25.48573,15.7324
82.66,5.098103,6.59101400000003,6.76678499999997,0.9926981,-0.1015731,-0.06177565,-34.2591,-25.48573,15.7324
82.67,4.22694,7.297892,6.095134,1.014253,-0.1230596,-0.04825488,-34.27462,-24.46477,15.33676
82.68,5.409233,7.71023800000003,6.33937099999997,0.9987822,-0.1309631,-0.05265472,-34.27462,-24.46477,15.33676
82.69,6.71597800000002,7.06226600000001,7.438436,0.9817339,-0.1239467,-0.06474732,-34.27462,-24.46477,15.33676
82.7,6.09371899999998,5.177258,8.11008600000001,0.9837067,-0.1221492,-0.08162758,-34.27462,-24.46477,15.33676
82.71,5.347007,3.410062,7.987969,0.9947775,-0.1118516,-0.07626885,-34.27462,-24.46477,15.33676
82.72,5.098103,1.996306,7.1942,1.006855,-0.1040053,-0.07525574,-34.27568,-24.8139,16.16399
82.73,6.28039600000001,1.58396,5.728779,1.003906,-0.1011071,-0.07332692,-34.27568,-24.8139,16.16399
82.74,8.644983,1.407241,4.996069,0.9840618,-0.1095199,-0.07677402,-34.27568,-24.8139,16.16399
82.75,11.13402,0.1702039,5.606661,0.9753191,-0.1053907,-0.09415945,-34.27568,-24.8139,16.16399
82.76,11.63183,-1.243552,6.03407500000001,0.9811414,-0.1039021,-0.09510633,-34.27568,-24.8139,16.16399
82.77,9.76504999999998,-3.246374,7.37737700000002,1.001595,-0.1071477,-0.09699075,-34.96329,-23.72919,15.69782
82.78,7.40046400000002,-4.66013,9.14809199999999,1.005436,-0.1022695,-0.09600527,-34.96329,-23.72919,15.69782
82.79,3.853584,-4.777943,10.55245,0.9922974,-0.1056103,-0.07963967,-34.96329,-23.72919,15.69782
82.8,-0.1288768,-4.071065,11.46834,0.9693059,-0.09171133,-0.0748436,-34.96329,-23.72919,15.69782
82.81,-3.737982,-2.30387,11.71258,0.9760637,-0.08821824,-0.06902808,-34.96329,-23.72919,15.69782
82.82,-6.60037599999999,0.759269100000001,10.49139,0.9979277,-0.08566736,-0.07330914,-35.33381,-23.7196,16.13662
82.83,-7.65821700000002,3.11553,8.90385599999999,0.9984779,-0.08962689,-0.08344976,-35.33381,-23.7196,16.13662
82.84,-7.22263500000002,4.47038,7.13313999999998,0.9761657,-0.09746518,-0.07483828,-35.33381,-23.7196,16.13662
82.85,-5.604761,5.000538,5.728779,0.9480041,-0.1029513,-0.06864956,-35.33381,-23.7196,16.13662
82.86,-2.680141,4.175847,5.057128,0.9339268,-0.1040643,-0.07254866,-35.33381,-23.7196,16.13662
82.87,0.617834600000002,2.879904,5.057128,0.9411456,-0.09720188,-0.06913745,-34.97425,-23.35946,16.13427
82.88,3.729132,1.407241,5.362424,0.9692185,-0.08485766,-0.06614321,-34.97425,-23.35946,16.13427
82.89,5.90704099999998,0.2880169,6.40043000000002,0.9842036,-0.07602082,-0.06512047,-34.97425,-23.35946,16.13427
82.9,7.46268899999999,0.2880169,7.13313999999998,0.9919856,-0.07738119,-0.06172547,-34.97425,-23.35946,16.13427
82.91,8.271627,1.112708,7.49949499999999,0.9900422,-0.07599282,-0.06703555,-34.97425,-23.35946,16.13427
82.92,8.084949,2.290838,7.1942,0.9900542,-0.07603226,-0.07137854,-34.66119,-23.37483,15.31578
82.93,6.84043000000002,3.704595,7.01102200000001,0.9876825,-0.08234212,-0.07139822,-34.66119,-23.37483,15.31578
82.94,5.471459,5.177258,7.31631799999997,0.9844443,-0.0988568,-0.07530247,-34.66119,-23.37483,15.31578
82.95,4.973651,6.885547,7.25525899999998,0.9868906,-0.1021727,-0.0695127,-34.66119,-23.37483,15.31578
82.96,5.471459,8.711648,7.37737700000002,0.9908466,-0.1098674,-0.06758885,-34.66119,-23.37483,15.31578
82.97,5.222555,10.89119,7.1942,0.9981365,-0.1083982,-0.07190982,-35.34056,-23.35708,16.13079
82.98,4.22694,12.06932,7.07208099999999,1.003983,-0.1093336,-0.0733444,-35.34056,-23.35708,16.13079
82.99,3.60468,12.71729,7.56055500000001,1.004136,-0.1271902,-0.06807436,-35.34056,-23.35708,16.13079
83,4.164714,13.30636,7.987969,1.001357,-0.1398605,-0.075347,-35.34056,-23.35708,16.13079
83.01,5.658137,12.8351,8.96491499999997,0.9882098,-0.1380141,-0.07392928,-35.34056,-23.35708,16.13079
83.02,7.773819,11.95151,9.514447,0.9785061,-0.1390885,-0.07733447,-35.34986,-22.63926,15.67684
83.03,10.26286,11.009,10.12504,0.9725996,-0.1318578,-0.07540396,-35.34986,-22.63926,15.67684
83.04,12.37854,10.30212,10.73563,0.9789219,-0.1332252,-0.07153021,-35.34986,-22.63926,15.67684
83.05,13.74751,10.41994,10.85775,0.9876346,-0.1330342,-0.05799596,-35.34986,-22.63926,15.67684
83.06,15.05426,11.24463,10.49139,0.9895207,-0.1318891,-0.04013432,-35.34986,-22.63926,15.67684
83.07,16.23655,12.48166,10.36928,0.9924819,-0.1371718,-0.03820785,-35.72854,-21.97226,15.66266
83.08,16.98326,14.30777,10.43034,0.9939176,-0.139431,-0.02180234,-35.72854,-21.97226,15.66266
83.09,17.23216,16.84075,9.81974300000003,1.002241,-0.1508183,-0.00395105,-35.72854,-21.97226,15.66266
83.1,17.04549,19.31482,9.88080299999998,1.007067,-0.1483214,0.0004097046,-35.72854,-21.97226,15.66266
83.11,15.86319,23.14374,10.61351,1.03508,-0.1852219,0.01632673,-35.72854,-21.97226,15.66266
83.12,14.86758,27.09048,11.40728,1.047199,-0.1826725,0.02022386,-36.09845,-21.9637,16.03828
83.13,12.81412,30.8605,11.95681,1.059364,-0.18637,0.02893316,-36.09845,-21.9637,16.03828
83.14,11.44515,34.68942,11.59046,1.103457,-0.2288997,0.05067015,-36.09845,-21.9637,16.03828
83.15,9.26724199999998,38.57725,12.44529,1.134804,-0.2650795,0.08975967,-36.09845,-21.9637,16.03828
83.16,7.02710800000002,42.46508,15.07083,1.136628,-0.3042607,0.09016269,-36.09845,-21.9637,16.03828
83.17,6.90265600000002,45.46931,16.53625,1.134731,-0.3147511,0.1089547,-36.82954,-21.25967,14.44006
83.18,7.02710800000002,48.0023,18.06273,1.136393,-0.3444882,0.1368828,-36.82954,-21.25967,14.44006
83.19,7.898271,49.41605,20.1998,1.150547,-0.3591035,0.1672885,-36.82954,-21.25967,14.44006
83.2,8.707209,52.77372,25.63407,1.214487,-0.4497107,0.2068276,-36.82954,-21.25967,14.44006
83.21,9.20501700000001,56.54374,33.816,1.263386,-0.4924892,0.2502911,-36.82954,-21.25967,14.44006
83.22,8.022723,61.7275100000003,38.82285,1.333441,-0.5146405,0.3088126,-37.19434,-20.55801,12.84531
83.23,4.786973,70.9169200000002,46.94372,1.36581,-0.5570728,0.3512692,-37.19434,-20.55801,12.84531
83.24,2.546839,83.9352600000002,53.72128,1.375305,-0.5949057,0.3869209,-37.19434,-20.55801,12.84531
83.25,1.053416,102.1963,58.7281399999998,1.300026,-0.5575256,0.4109346,-37.19434,-20.55801,12.84531
83.26,1.426772,122.5779,59.5218999999998,1.224946,-0.5857231,0.4077851,-38.22963,-19.50287,10.41696
83.27,1.364546,136.9511,63.4296899999999,1.151352,-0.5598692,0.3869012,-38.22963,-19.50287,10.41696
83.28,0.3689308,142.9007,64.9561700000003,1.135359,-0.5060201,0.3618832,-38.22963,-19.50287,10.41696
83.29,-2.120107,143.1363,67.2764199999998,1.159142,-0.4572112,0.387142,-38.22963,-19.50287,10.41696
83.3,-2.866819,140.3088,67.64278,1.177582,-0.3515092,0.3936899,-38.22963,-19.50287,10.41696
83.31,1.551224,136.8333,61.8421600000002,1.183199,-0.3226128,0.3734995,-38.22963,-19.50287,10.41696
83.32,13.31193,134.1236,61.9642700000002,1.125003,-0.3244566,0.3270208,-39.32482,-17.10404,5.122396
83.33,24.5126,129.6467,60.80415,1.0746,-0.3267587,0.2767008,-39.32482,-17.10404,5.122396
83.34,28.61951,126.2301,61.7200399999999,1.045163,-0.3035832,0.2959766,-39.32482,-17.10404,5.122396
83.35,29.17955,125.4643,65.6278199999997,1.025537,-0.3356946,0.2939268,-39.32482,-17.10404,5.122396
83.36,29.17955,128.822,68.1312500000002,1.012477,-0.3369489,0.2736233,-40.39616,-15.79895,-0.5337677
83.37,30.67297,130.8838,74.2371700000001,0.9785699,-0.2928571,0.2552938,-40.39616,-15.79895,-0.5337677
83.38,27.06386,128.7042,74.6645800000001,1.013829,-0.2726038,0.2703873,-40.39616,-15.79895,-0.5337677
83.39,17.97887,123.9328,75.3972900000003,1.011029,-0.2484246,0.323995,-40.39616,-15.79895,-0.5337677
83.4,1.30232,122.2834,75.51941,1.018097,-0.2923833,0.3798944,-40.39616,-15.79895,-0.5337677
83.41,-14.68975,125.2287,76.5574099999999,0.9945048,-0.3233338,0.4024468,-40.40233,-12.68838,-6.208663
83.42,-21.90796,124.7575,78.0228300000002,0.9584325,-0.314372,0.407681,-40.40233,-12.68838,-6.208663
83.43,-26.01487,120.9286,77.2290599999999,0.9196738,-0.334332,0.4278052,-40.40233,-12.68838,-6.208663
83.44,-33.35754,114.2721,77.8396499999998,0.8954646,-0.4044477,0.4546148,-40.40233,-12.68838,-6.208663
83.45,-41.88249,112.3871,81.1368499999999,0.8551775,-0.3597373,0.4565372,-40.40233,-12.68838,-6.208663
83.46,-44.99379,115.0968,89.99043,0.7823132,-0.291804,0.3792875,-39.6894,-8.857517,-11.88827
83.47,-34.91319,112.6227,84.2508699999997,0.8101292,-0.3130484,0.4140571,-39.6894,-8.857517,-11.88827
83.48,-28.37946,105.2594,84.37299,0.7809422,-0.3263392,0.4675162,-39.6894,-8.857517,-11.88827
83.49,-31.73966,100.7825,83.8845100000001,0.7838998,-0.3470873,0.5249025,-39.6894,-8.857517,-11.88827
83.5,-48.04286,95.5398499999997,80.3430800000003,0.7710187,-0.3737875,0.5267421,-39.6894,-8.857517,-11.88827
83.51,-61.5458899999998,94.7151599999999,80.7704899999997,0.7863332,-0.4398672,0.4846578,-38.24598,-5.729661,-15.90646
83.52,-66.7728700000002,99.4276800000003,80.5873200000002,0.7677125,-0.4976052,0.3778423,-38.24598,-5.729661,-15.90646
83.53,-55.13662,99.3687700000003,82.8464999999999,0.6894311,-0.4449598,0.3801664,-38.24598,-5.729661,-15.90646
83.54,-41.32246,93.4192099999999,82.1138,0.5799472,-0.3414052,0.4196756,-38.24598,-5.729661,-15.90646
83.55,-34.10425,82.3447899999999,81.0147300000003,0.4889567,-0.287689,0.4441664,-38.24598,-5.729661,-15.90646
83.56,-32.23747,70.5634800000001,75.51941,0.4999297,-0.390963,0.5197329,-36.4931,-2.610994,-20.36404
83.57,-26.88604,40.28554,57.6901300000002,0.6945537,-0.5618936,0.8740582,-36.4931,-2.610994,-20.36404
83.58,-35.53545,57.9574999999998,78.5723599999999,0.5074988,-0.4841411,0.3781653,-36.4931,-2.610994,-20.36404
83.59,-32.17524,53.59842,73.7486900000002,0.5712147,-0.5407103,0.3825509,-36.4931,-2.610994,-20.36404
83.6,-28.06833,52.18466,73.93187,0.5035781,-0.5245986,0.3495978,-36.4931,-2.610994,-20.36404
83.61,-23.52584,49.65168,71.7947999999997,0.4663385,-0.4425784,0.354021,-33.66982,1.251347,-23.24326
83.62,-21.78351,45.64603,68.1923099999998,0.4195911,-0.3880726,0.3742847,-33.66982,1.251347,-23.24326
83.63,-21.59683,39.63757,63.4296899999999,0.3765119,-0.3606788,0.3901566,-33.66982,1.251347,-23.24326
83.64,-22.09464,33.6291,57.6290700000001,0.3659838,-0.3786627,0.3905733,-33.66982,1.251347,-23.24326
83.65,-19.6056,29.38783,52.8054,0.3828761,-0.4205378,0.401143,-33.66982,1.251347,-23.24326
83.66,-15.93427,28.03299,48.40914,0.3963493,-0.460979,0.4126719,-32.23257,3.336976,-24.46386
83.67,-13.56968,28.09189,43.64652,0.3731788,-0.4828014,0.4275243,-32.23257,3.336976,-24.46386
83.68,-14.19194,26.08907,39.12814,0.3559681,-0.519065,0.4457388,-32.23257,3.336976,-24.46386
83.69,-17.61437,20.9642,34.36553,0.3206647,-0.5419852,0.4566971,-32.23257,3.336976,-24.46386
83.7,-18.04995,15.01465,30.88515,0.2927147,-0.5645835,0.4435476,-32.23257,3.336976,-24.46386
83.71,-9.33831699999998,9.53634,28.93126,0.2728791,-0.5688033,0.4222552,-30.86988,6.148042,-25.69671
83.72,3.60468,6.82664000000002,27.95432,0.2586676,-0.5591561,0.4309252,-30.86988,6.148042,-25.69671
83.73,14.12087,3.410062,26.4889,0.2523448,-0.5723256,0.4781704,-30.86988,6.148042,-25.69671
83.74,19.4723,-0.595580799999998,26.73313,0.2188907,-0.5724058,0.444788,-30.86988,6.148042,-25.69671
83.75,21.89911,-5.484821,24.10759,0.2153624,-0.5645146,0.4640978,-30.86988,6.148042,-25.69671
83.76,20.03233,-7.60545600000001,19.95556,0.2244912,-0.5598681,0.4882588,-30.52699,7.589568,-26.09567
83.77,11.94296,-6.721858,14.46024,0.2457061,-0.5399002,0.4840135,-30.52699,7.589568,-26.09567
83.78,2.733517,-5.072475,9.88080299999998,0.2390246,-0.4932639,0.4561087,-30.52699,7.589568,-26.09567
83.79,-0.4400066,-5.661541,4.2023,0.2109716,-0.4454438,0.4170527,-30.52699,7.589568,-26.09567
83.8,3.106873,-9.60827699999999,-2.331031,0.1771391,-0.4076954,0.3929192,-30.52699,7.589568,-26.09567
83.81,10.32508,-16.32362,-9.59707199999999,0.1530034,-0.369788,0.3779794,-29.44405,8.253246,-25.71682
83.82,16.23655,-23.09787,-18.14536,0.1650355,-0.3603849,0.3905769,-29.44405,8.253246,-25.71682
83.83,18.35223,-28.51727,-26.51046,0.1974304,-0.344549,0.4013106,-29.44405,8.253246,-25.71682
83.84,17.7922,-33.3476,-34.38709,0.2268447,-0.3191453,0.4024062,-29.44405,8.253246,-25.71682
83.85,16.23655,-38.29575,-41.04254,0.2456044,-0.2972386,0.4005714,-29.44405,8.253246,-25.71682
83.86,12.81412,-43.95078,-48.1254,0.2624734,-0.2830285,0.405471,-29.80473,7.953521,-25.71544
83.87,9.14279100000001,-48.7222,-54.04814,0.2773986,-0.2716494,0.4200104,-29.80473,7.953521,-25.71544
83.88,2.235709,-55.43755,-63.75655,0.3114476,-0.2752069,0.4253986,-29.80473,7.953521,-25.71544
83.89,-4.858049,-61.2103800000002,-75.1746099999997,0.3674339,-0.2834899,0.4245601,-29.80473,7.953521,-25.71544
83.9,-9.27609200000001,-64.45024,-85.1272600000001,0.4123233,-0.3001084,0.4212623,-29.80473,7.953521,-25.71544
83.91,-10.0228,-66.3941600000001,-92.8207199999999,0.4435681,-0.3082805,0.4005757,-31.25856,6.539726,-24.06325
83.92,-7.34708700000002,-69.8696399999999,-99.2319300000002,0.4795702,-0.3090377,0.3929462,-31.25856,6.539726,-24.06325
83.93,-1.435622,-74.0520100000002,-103.5671,0.5021623,-0.2794107,0.3853473,-31.25856,6.539726,-24.06325
83.94,7.02710800000002,-77.17405,-107.597,0.555514,-0.309751,0.3559842,-31.25856,6.539726,-24.06325
83.95,16.17432,-80.0604699999997,-109.9173,0.5593066,-0.2962718,0.3449243,-31.25856,6.539726,-24.06325
83.96,21.96134,-84.7140899999998,-114.0082,0.5855853,-0.2994456,0.3459504,-33.02704,4.851567,-20.82949
83.97,23.45476,-91.5472399999998,-117.6107,0.6068584,-0.2885799,0.3518192,-33.02704,4.851567,-20.82949
83.98,16.85881,-102.9751,-122.4344,0.7090297,-0.3124647,0.4051117,-33.02704,4.851567,-20.82949
83.99,1.862354,-115.9345,-126.8307,0.8379521,-0.2951902,0.4913751,-33.02704,4.851567,-20.82949
84,-26.01487,-125.4774,-129.0288,0.9993863,-0.2704379,0.5738779,-35.1171,0.9834456,-18.0065
84.01,-47.35838,-117.1127,-133.3029,0.9367087,-0.3017094,0.4882379,-35.1171,0.9834456,-18.0065
84.02,-49.1007,-101.797,-135.3789,0.8385069,-0.403878,0.3000535,-35.1171,0.9834456,-18.0065
84.03,-35.59767,-90.4280199999998,-131.4712,0.7295178,-0.4804982,0.05688563,-35.1171,0.9834456,-18.0065
84.04,-16.4943,-87.5416000000001,-125.5484,0.5877261,-0.4713174,-0.03610969,-35.1171,0.9834456,-18.0065
84.05,-0.688910399999998,-95.0816300000002,-121.5796,0.5814051,-0.4629192,-0.06506086,-38.0097,-3.215262,-13.54244
84.06,8.209401,-108.2767,-116.3895,0.6787053,-0.4514354,0.05006139,-38.0097,-3.215262,-13.54244
84.07,13.31193,-118.5264,-119.0762,0.8078568,-0.4607105,0.1435065,-38.0097,-3.215262,-13.54244
84.08,16.67213,-123.239,-114.0082,0.9416831,-0.3568463,0.2748456,-38.0097,-3.215262,-13.54244
84.09,12.06741,-121.295,-112.0544,1.27112,-0.3733031,0.5777354,-38.0097,-3.215262,-13.54244
84.1,16.23655,-128.5994,-117.4886,1.322927,-0.0815843,0.3632794,-39.37399,-7.719785,-8.679914
84.11,19.41007,-123.828,-128.2961,1.389964,-0.2705117,0.4976772,-39.37399,-7.719785,-8.679914
84.12,25.50821,-114.3441,-126.3422,1.281119,-0.3096891,0.4336159,-39.37399,-7.719785,-8.679914
84.13,35.40214,-109.1014,-118.1603,1.235575,-0.3637358,0.3831972,-39.37399,-7.719785,-8.679914
84.14,46.66504,-108.8068,-108.9403,1.18671,-0.3719167,0.3237,-39.37399,-7.719785,-8.679914
84.15,51.51866,-113.4605,-99.6593400000002,1.162386,-0.4116402,0.2868782,-40.05991,-13.00073,-2.976974
84.16,51.76757,-122.3554,-98.9266300000001,1.120438,-0.4327986,0.2312314,-40.05991,-13.00073,-2.976974
84.17,49.40298,-131.8982,-102.9565,1.096007,-0.4557517,0.1761085,-40.05991,-13.00073,-2.976974
84.18,46.22945,-141.2054,-99.0487499999998,1.132313,-0.4851825,0.1549067,-40.05991,-13.00073,-2.976974
84.19,48.40736,-148.5687,-99.53722,1.089982,-0.3998259,0.05171559,-40.05991,-13.00073,-2.976974
84.2,50.95863,-154.2238,-97.3390900000002,1.208894,-0.491548,0.08126056,-38.93148,-17.15278,2.282607
84.21,53.19876,-149.8647,-85.5546700000002,1.380929,-0.5817049,0.2373737,-38.93148,-17.15278,2.282607
84.22,52.26537,-149.9236,-72.5490699999999,1.453081,-0.4925229,0.0312206,-38.93148,-17.15278,2.282607
84.23,56.43451,-146.3303,-61.9247700000001,1.574248,-0.6192232,-0.1154341,-38.93148,-17.15278,2.282607
84.24,62.2215300000002,-143.385,-63.75655,1.507996,-0.4950614,-0.1351226,-38.93148,-17.15278,2.282607
84.25,59.2346799999997,-130.6023,-52.46061,1.436422,-0.5526478,-0.07366471,-38.56472,-20.95779,9.994534
84.26,57.18122,-121.7663,-45.56092,1.342823,-0.3727468,-0.06049054,-38.56472,-20.95779,9.994534
84.27,48.9674,-106.4506,-38.84441,1.570439,-0.4210741,0.07124588,-38.56472,-20.95779,9.994534
84.28,45.79387,-89.7211400000003,-21.32043,1.713968,-0.5087465,0.1524958,-38.56472,-20.95779,9.994534
84.29,52.07869,-78.2932699999999,1.088283,1.56603,-0.5789759,0.2726004,-38.56472,-20.95779,9.994534
84.3,60.0436200000001,-69.0449500000001,26.42784,1.499688,-0.5522634,0.4462044,-35.3296,-23.72682,15.69434
84.31,55.9367,-50.60721,42.79169,1.435717,-0.4250472,0.6538088,-35.3296,-23.72682,15.69434
84.32,43.24261,-20.44708,48.65337,1.279756,-0.3072717,0.7535474,-35.3296,-23.72682,15.69434
84.33,27.8728,11.95151,48.71443,1.077998,-0.2447843,0.7198656,-35.3296,-23.72682,15.69434
84.34,12.25409,38.87178,41.20415,0.9178159,-0.1390055,0.6217224,-35.3296,-23.72682,15.69434
84.35,-3.489078,58.3109399999999,32.22846,0.8865677,-0.04010844,0.507973,-34.32912,-23.31848,18.92074
84.36,-14.75198,68.5606600000003,23.86335,0.95136,0.08649013,0.378124,-34.32912,-23.31848,18.92074
84.37,-24.77036,71.8005200000001,10.00292,1.083171,0.1751646,0.2247215,-34.32912,-23.31848,18.92074
84.38,-32.98418,69.6209799999999,-4.895515,1.142595,0.3167992,0.05001404,-34.32912,-23.31848,18.92074
84.39,-37.71336,61.7864199999997,-22.4195,1.107447,0.331354,-0.1285884,-34.32912,-23.31848,18.92074
84.4,-31.98857,48.35574,-29.7466,0.9681774,0.2875273,-0.2520917,-35.0861,-21.22478,17.30015
84.41,-19.66783,38.9896,-22.35844,0.8497513,0.1599092,-0.2415729,-35.0861,-21.22478,17.30015
84.42,-5.355857,35.98537,-12.95533,0.8622333,0.04709989,-0.1515466,-35.0861,-21.22478,17.30015
84.43,5.720363,39.10741,0.4776911,0.8892633,-0.05000331,-0.1029482,-35.0861,-21.22478,17.30015
84.44,12.06741,40.22663,12.75058,0.8746511,-0.1022785,-0.0915171,-35.0861,-21.22478,17.30015
84.45,18.22778,39.46085,18.67332,0.8611456,-0.1620239,-0.1042266,-35.72388,-21.62931,14.45633
84.46,25.81935,37.75256,35.58671,0.8611356,-0.2250348,-0.06189783,-35.72388,-21.62931,14.45633
84.47,28.18393,36.22099,43.95182,0.8817256,-0.1565766,-0.001861499,-35.72388,-21.62931,14.45633
84.48,23.51698,34.68942,42.60852,0.9097015,-0.08274519,0.004159962,-35.72388,-21.62931,14.45633
84.49,13.93419,29.27002,31.19045,0.9776543,-0.02774454,0.03388894,-35.72388,-21.62931,14.45633
84.5,3.91581,21.78889,15.62036,0.9901717,-0.01083158,0.02044621,-36.81137,-21.64177,13.2454
84.51,-2.555689,10.71447,0.1113361,0.9967531,-0.03837851,0.01895631,-36.81137,-21.64177,13.2454
84.52,-6.78705399999999,-0.1832352,-7.76529600000002,1.005843,-0.1292066,0.02795292,-36.81137,-21.64177,13.2454
84.53,-7.84489500000003,-11.37547,-14.05439,1.054541,-0.1987268,0.05784709,-36.81137,-21.64177,13.2454
84.54,-10.70729,-19.26895,-15.39769,1.126358,-0.249536,0.1032827,-36.81137,-21.64177,13.2454
84.55,-16.05872,-21.44849,-12.52791,1.190724,-0.2820528,0.1443954,-37.19794,-20.55183,13.22441
84.56,-23.58806,-15.55783,-7.70423699999998,1.218203,-0.316925,0.1709315,-37.19794,-20.55183,13.22441
84.57,-36.65551,-0.8312068,-1.842557,1.168178,-0.247184,0.2727702,-37.19794,-20.55183,13.22441
84.58,-65.2172200000002,13.6598,2.492643,1.256342,-0.1721178,0.3098327,-37.19794,-20.55183,13.22441
84.59,-102.7395,31.27284,10.00292,1.434928,-0.2221886,0.2387684,-37.19013,-20.56522,12.40302
84.6,-133.3546,51.6545,28.74808,1.482299,-0.2672952,0.1340805,-37.19013,-20.56522,12.40302
84.61,-149.6578,80.9899400000002,45.29512,1.263046,-0.3415622,0.03105503,-37.19013,-20.56522,12.40302
84.62,-142.813,100.1935,48.89761,0.8315434,-0.5024257,-0.20637,-37.19013,-20.56522,12.40302
84.63,-109.5843,87.23403,46.45524,0.6029526,-0.7208093,-0.1311864,-37.19013,-20.56522,12.40302
84.64,-71.5642699999999,70.26895,48.1649,0.6305628,-0.7484098,0.002974099,-37.19013,-20.56522,12.40302
84.65,-6.35147199999999,41.81711,52.25586,0.8131083,-0.5287554,0.05361963,-37.14238,-21.34899,8.813217
84.66,28.05948,17.84216,58.6670799999997,1.046825,-0.4319373,0.1229525,-37.14238,-21.34899,8.813217
84.67,36.21108,12.54057,68.8029000000002,1.196673,-0.358097,0.1852639,-37.14238,-21.34899,8.813217
84.68,39.75796,15.13246,73.7486900000002,1.232718,-0.3613394,0.1703909,-37.14238,-21.34899,8.813217
84.69,39.07347,18.60794,74.2982300000002,1.188048,-0.4499593,0.09577267,-38.53723,-20.654,6.38722
84.7,38.63789,18.78466,75.6415300000002,1.149415,-0.5300949,0.09743094,-38.53723,-20.654,6.38722
84.71,32.04194,19.43263,81.6253200000001,1.200383,-0.5803053,0.1201342,-38.53723,-20.654,6.38722
84.72,21.1524,22.61359,89.07454,1.193164,-0.53491,0.1158703,-38.53723,-20.654,6.38722
84.73,14.432,27.09048,96.95117,1.163947,-0.5316889,0.1225575,-38.53723,-20.654,6.38722
84.74,15.17871,29.32893,107.5144,1.179438,-0.577046,0.1239476,-39.31913,-17.81569,5.955456
84.75,16.67213,29.74127,122.596,1.247154,-0.6224943,0.2301853,-39.31913,-17.81569,5.955456
84.76,6.90265600000002,40.10882,132.4876,1.253993,-0.6134416,0.3682314,-39.31913,-17.81569,5.955456
84.77,0.680060599999997,55.18889,136.7007,1.234805,-0.6236199,0.4892798,-39.31913,-17.81569,5.955456
84.78,8.33385399999997,66.9701899999999,138.7767,1.208107,-0.5815446,0.5090859,-39.31913,-17.81569,5.955456
84.79,25.44599,73.03756,136.0291,1.199796,-0.5249742,0.5106336,-40.11287,-13.90423,4.621614
84.8,38.14008,72.1539600000001,135.1132,1.151505,-0.4378389,0.4484477,-40.11287,-13.90423,4.621614
84.81,39.50905,67.0880099999999,132.0602,1.084719,-0.3470203,0.3813964,-40.11287,-13.90423,4.621614
84.82,33.28646,59.9603200000002,129.801,1.017733,-0.2848178,0.3075274,-40.11287,-13.90423,4.621614
84.83,21.46353,54.4231,128.5798,0.9665125,-0.244292,0.2312397,-40.11287,-13.90423,4.621614
84.84,11.63183,51.89013,126.6259,0.955362,-0.2322838,0.1776738,-41.28754,-8.269132,1.360579
84.85,-0.751136399999998,51.47778,123.6951,0.9388756,-0.2222311,0.1265027,-41.28754,-8.269132,1.360579
84.86,-11.57845,52.597,121.8023,0.9287885,-0.2320899,0.1153569,-41.28754,-8.269132,1.360579
84.87,-21.22347,54.54092,120.0926,0.9013084,-0.2611964,0.1311476,-41.28754,-8.269132,1.360579
84.88,-27.7572,55.95467,119.2988,0.8782147,-0.2945276,0.1575565,-41.28754,-8.269132,1.360579
84.89,-32.67305,58.9,116.8565,0.8348075,-0.3382067,0.1809956,-40.62798,-3.352402,-0.7340765
84.9,-30.74405,61.55079,113.6203,0.7714601,-0.4253544,0.1777496,-40.62798,-3.352402,-0.7340765
84.91,-21.16125,62.1398599999998,112.7655,0.7207371,-0.4708858,0.2166073,-40.62798,-3.352402,-0.7340765
84.92,-6.97373199999999,61.3740700000002,110.5674,0.6680626,-0.4618076,0.2488218,-40.62798,-3.352402,-0.7340765
84.93,2.795743,57.36843,105.6826,0.5944235,-0.4470594,0.2838896,-40.62798,-3.352402,-0.7340765
84.94,4.102488,49.35714,98.5387099999999,0.5168739,-0.3800136,0.3258155,-39.96849,1.973876,-3.656929
84.95,-2.306785,42.17055,91.5169099999998,0.4977255,-0.3678096,0.3537802,-39.96849,1.973876,-3.656929
84.96,-8.90273600000001,35.57302,84.8004,0.5078374,-0.3599085,0.3625091,-39.96849,1.973876,-3.656929
84.97,-14.75198,34.33598,79.6714300000002,0.5127056,-0.3627083,0.3697539,-39.96849,1.973876,-3.656929
84.98,-18.42331,37.10459,75.3362300000001,0.5112308,-0.3598512,0.3658959,-39.96849,1.973876,-3.656929
84.99,-20.04118,41.93493,72.2222099999998,0.5100019,-0.3728124,0.3253307,-38.91878,5.794487,-6.109704
85,-18.85889,45.82275,67.0321799999999,0.5206991,-0.414678,0.2890771,-38.91878,5.794487,-6.109704
85.01,-15.12533,47.41323,61.4758,0.5305507,-0.4710379,0.2561681,-38.91878,5.794487,-6.109704
85.02,-10.0228,47.47214,54.20976,0.5462368,-0.5329839,0.242564,-38.91878,5.794487,-6.109704
85.03,-6.16479399999998,46.94198,47.55431,0.5603241,-0.5846302,0.2453845,-38.91878,5.794487,-6.109704
85.04,-3.800208,48.0023,39.79979,0.5876015,-0.6513963,0.2771596,-37.5401,7.93475,-7.710964
85.05,-2.804593,52.597,30.76304,0.6260222,-0.70529,0.2781079,-37.5401,7.93475,-7.710964
85.06,-1.062266,60.4904699999997,25.93936,0.6067632,-0.7191842,0.2567962,-37.5401,7.93475,-7.710964
85.07,2.235709,69.4442600000001,25.14559,0.5570635,-0.7018328,0.2383685,-37.5401,7.93475,-7.710964
85.08,11.00957,75.2760100000002,22.52005,0.4904513,-0.6458229,0.2281836,-37.5401,7.93475,-7.710964
85.09,23.76589,76.5719499999999,18.67332,0.4061435,-0.5714821,0.2266783,-36.82345,10.00452,-10.20221
85.1,39.26015,70.0922300000003,12.56741,0.3397704,-0.4940184,0.2339119,-36.82345,10.00452,-10.20221
85.11,51.70534,61.2562599999999,4.385478,0.3008225,-0.4423378,0.2561198,-36.82345,10.00452,-10.20221
85.12,57.3056799999998,49.8873,-7.46000099999997,0.3044689,-0.3704916,0.2775158,-36.82345,10.00452,-10.20221
85.13,59.0479999999999,39.63757,-14.29863,0.2929132,-0.2880073,0.3109592,-36.82345,10.00452,-10.20221
85.14,58.7368699999999,33.98254,-22.54161,0.2858935,-0.2582769,0.2868776,-35.0468,11.03527,-12.98297
85.15,59.7324900000001,27.97408,-31.0899,0.2372634,-0.1988312,0.2666129,-35.0468,11.03527,-12.98297
85.16,58.8613200000001,17.78325,-41.83631,0.1721107,-0.1287438,0.2067595,-35.0468,11.03527,-12.98297
85.17,53.7588,4.882725,-55.94098,0.1306681,-0.05811118,0.1865374,-35.0468,11.03527,-12.98297
85.18,42.18477,-10.49188,-69.5571699999998,0.119452,-0.01192048,0.2199037,-35.0468,11.03527,-12.98297
85.19,24.45037,-24.33491,-83.1122999999998,0.1249092,0.01234511,0.2759455,-34.64161,9.913397,-14.92069
85.2,4.662522,-33.70104,-95.5683699999998,0.1655425,0.02270141,0.3156416,-34.64161,9.913397,-14.92069
85.21,-12.13848,-37.76559,-107.9023,0.2271356,-0.01688021,0.3272966,-34.64161,9.913397,-14.92069
85.22,-20.16563,-39.47388,-114.5578,0.2825204,-0.05406338,0.2887556,-34.64161,9.913397,-14.92069
85.23,-24.45922,-43.42062,-122.7397,0.3763817,-0.1406341,0.214499,-34.64161,9.913397,-14.92069
85.24,-22.65467,-51.25518,-127.4413,0.5027488,-0.2215837,0.1451638,-35.28835,8.178961,-14.07748
85.25,-21.41015,-61.68163,-128.6624,0.6171551,-0.2861776,0.1284308,-35.28835,8.178961,-14.07748
85.26,-25.57929,-69.2216699999998,-128.174,0.7064391,-0.3325212,0.1710258,-35.28835,8.178961,-14.07748
85.27,-28.75282,-70.6354300000001,-127.6855,0.7156354,-0.341698,0.2183195,-35.28835,8.178961,-14.07748
85.28,-27.25939,-68.3380699999999,-129.7615,0.7100811,-0.3759612,0.2336731,-35.28835,8.178961,-14.07748
85.29,-22.21909,-67.9257300000001,-132.9976,0.7113673,-0.3599062,0.2419143,-37.06895,4.301649,-11.69388
85.3,-20.53899,-71.9902799999998,-137.0275,0.706735,-0.2843232,0.2555762,-37.06895,4.301649,-11.69388
85.31,-21.0368,-78.8234299999998,-141.668,0.7112343,-0.2436979,0.2489194,-37.06895,4.301649,-11.69388
85.32,-17.17879,-87.7772200000002,-148.5067,0.7301427,-0.2279093,0.212811,-37.06895,4.301649,-11.69388
85.33,-9.52499499999998,-100.3243,-154.7958,0.815114,-0.2095727,0.1874945,-38.77981,-0.2928591,-8.792555
85.34,-2.057881,-113.107,-159.0699,0.9390756,-0.2104971,0.1926377,-38.77981,-0.2928591,-8.792555
85.35,-2.991271,-121.7663,-160.7185,1.052025,-0.1851325,0.2243492,-38.77981,-0.2928591,-8.792555
85.36,-10.08503,-127.1857,-163.0998,1.196504,-0.1984222,0.2357918,-38.77981,-0.2928591,-8.792555
85.37,-16.68098,-131.2502,-167.0686,1.334015,-0.2348809,0.2066326,-38.77981,-0.2928591,-8.792555
85.38,-17.73882,-133.7832,-166.4581,1.358339,-0.3807375,0.1648826,-40.56156,-5.51347,-3.543315
85.39,-10.70729,-131.7804,-163.9546,1.274638,-0.4748194,0.1615692,-40.56156,-5.51347,-3.543315
85.4,-6.60037599999999,-125.3596,-160.7185,1.210175,-0.4886087,0.1372458,-40.56156,-5.51347,-3.543315
85.41,-3.489078,-118.821,-152.7197,1.152262,-0.4691435,0.09226129,-40.56156,-5.51347,-3.543315
85.42,-1.6223,-117.2894,-144.7821,1.141247,-0.4829074,0.07820938,-40.56156,-5.51347,-3.543315
85.43,-1.497848,-116.6414,-134.4631,1.125471,-0.4037814,0.06530998,-40.49995,-11.81909,2.625403
85.44,-9.02718699999998,-117.4072,-123.6556,1.209293,-0.3722071,0.05980345,-40.49995,-11.81909,2.625403
85.45,-18.60999,-119.8813,-116.2064,1.399478,-0.3959678,0.1046374,-40.49995,-11.81909,2.625403
85.46,-29.62398,-120.2347,-110.8942,1.559304,-0.3383714,0.1283357,-40.49995,-11.81909,2.625403
85.47,-42.44253,-117.9374,-111.688,1.700021,-0.3139249,0.14178,-40.49995,-11.81909,2.625403
85.48,-51.7142,-110.4562,-115.9621,1.809524,-0.3901419,0.1814676,-38.96424,-17.79848,7.15943
85.49,-49.90964,-94.3158499999998,-116.878,1.66867,-0.4476342,0.1529929,-38.96424,-17.79848,7.15943
85.5,-38.33561,-79.5303099999999,-114.3135,1.497226,-0.5685254,0.1503606,-38.96424,-17.79848,7.15943
85.51,-19.73005,-66.8064999999999,-103.8114,1.379255,-0.631585,0.1286886,-38.96424,-17.79848,7.15943
85.52,0.742286500000001,-54.61285,-89.4624600000002,1.313908,-0.7363874,0.2079154,-38.96424,-17.79848,7.15943
85.53,22.8325,-45.48234,-74.0144900000001,1.353041,-0.7711292,0.2388247,-37.13212,-22.71187,10.47836
85.54,42.43367,-42.30139,-51.4226,1.632993,-0.8248055,0.2698319,-37.13212,-22.71187,10.47836
85.55,58.8613200000001,-35.46824,-29.92978,1.718841,-0.8424587,0.2241732,-37.13212,-22.71187,10.47836
85.56,61.2259099999999,-27.45695,-14.66498,1.43416,-0.6861466,0.1484974,-37.13212,-22.71187,10.47836
85.57,40.00686,-15.49893,2.309466,1.219726,-0.5575781,0.2611373,-37.13212,-22.71187,10.47836
85.58,4.662522,6.59101400000003,17.02472,1.073463,-0.5865701,0.3379055,-34.21241,-26.61863,12.96981
85.59,-22.21909,27.38501,30.94621,0.9204017,-0.6392874,0.3127874,-34.21241,-26.61863,12.96981
85.6,-36.15771,42.6418,44.98982,0.8692394,-0.7015911,0.2107038,-34.21241,-26.61863,12.96981
85.61,-37.21555,49.41605,56.28577,0.8472228,-0.7052456,0.0938623,-34.21241,-26.61863,12.96981
85.62,-31.49076,52.12575,67.2153600000002,0.8132833,-0.5717404,-0.04346464,-34.21241,-26.61863,12.96981
85.63,-20.04118,49.8873,71.1231499999997,0.8557145,-0.4104114,-0.1134605,-33.83514,-26.99073,12.53684
85.64,-10.95619,50.88871,71.1231499999997,0.9792725,-0.2614067,-0.1181296,-33.83514,-26.99073,12.53684
85.65,-4.982501,56.42593,71.00103,1.148168,-0.1825555,-0.1064258,-33.83514,-26.99073,12.53684
85.66,0.4933827,61.7864199999997,64.4677000000001,1.217316,0.003631124,-0.07351646,-33.83514,-26.99073,12.53684
85.67,1.862354,66.2633099999998,52.8054,1.198764,0.1073282,-0.0429408,-33.83514,-26.99073,12.53684
85.68,2.920195,66.4989400000001,36.62472,1.121732,0.1672373,0.0119999,-35.62323,-25.25283,10.91222
85.69,2.111258,64.67284,21.17675,1.021184,0.1982957,0.05427165,-35.62323,-25.25283,10.91222
85.7,3.91581,58.6643799999999,10.73563,0.915273,0.2467133,0.04107377,-35.62323,-25.25283,10.91222
85.71,9.64059799999998,49.71058,7.68267299999998,0.8626449,0.2626733,0.03180392,-35.62323,-25.25283,10.91222
85.72,20.15678,39.22522,9.08703300000001,0.8397408,0.2221511,0.01235578,-35.62323,-25.25283,10.91222
85.73,34.77988,28.97549,9.270211,0.8521592,0.1428495,0.008839482,-37.84445,-22.39096,7.622293
85.74,49.96301,20.78748,8.35432299999999,0.877961,0.0379417,-0.001453031,-37.84445,-22.39096,7.622293
85.75,62.5948800000001,13.60089,11.16304,0.8712134,-0.01268327,-0.02811945,-37.84445,-22.39096,7.622293
85.76,67.1373700000003,9.65415299999999,14.94871,0.9313005,-0.1575712,0.005985,-37.84445,-22.39096,7.622293
85.77,62.4704299999999,8.77055499999998,17.45214,0.9589487,-0.1548127,0.0195736,-37.84445,-22.39096,7.622293
85.78,47.47398,11.95151,16.41413,0.9830213,-0.1817259,0.01957783,-37.85323,-21.73252,7.232494
85.79,27.49944,16.13387,16.41413,0.9999871,-0.2322852,0.03302426,-37.85323,-21.73252,7.232494
85.8,16.23655,17.54762,12.68952,0.9749271,-0.2025155,0.02868069,-37.85323,-21.73252,7.232494
85.81,6.34262200000001,17.54762,5.484543,0.9658924,-0.2234178,0.02619971,-37.85323,-21.73252,7.232494
85.82,3.418003,13.7187,-1.170906,0.9459926,-0.2260192,0.0232475,-37.85323,-21.73252,7.232494
85.83,6.09371899999998,6.885547,-6.66623099999999,0.9058054,-0.2395225,0.009603459,-38.53829,-21.00313,7.214445
85.84,9.018339,-1.655898,-9.47495299999998,0.8908247,-0.2521255,0.0201538,-38.53829,-21.00313,7.214445
85.85,10.63621,-10.02062,-10.87931,0.9094927,-0.2774841,0.03607154,-38.53829,-21.00313,7.214445
85.86,10.51176,-15.97018,-8.436947,0.9520922,-0.3161583,0.05733042,-38.53829,-21.00313,7.214445
85.87,9.32946900000001,-19.44567,-2.819504,1.007884,-0.3619887,0.07860792,-38.53829,-21.00313,7.214445
85.88,7.27601099999999,-18.97441,5.362424,1.06249,-0.3817961,0.0888397,-38.17198,-21.0055,7.217926
85.89,4.600296,-15.55783,12.56741,1.126513,-0.3733204,0.1145981,-38.17198,-21.0055,7.217926
85.9,2.173484,-8.31233399999998,18.36802,1.172182,-0.3789786,0.1451043,-38.17198,-21.0055,7.217926
85.91,1.053416,3.233343,23.43594,1.204824,-0.4014746,0.197738,-38.17198,-21.0055,7.217926
85.92,0.3689308,17.72434,29.41973,1.204788,-0.4130817,0.2517584,-38.1834,-20.98593,8.418419
85.93,-0.5022325,31.09612,37.29637,1.232613,-0.4922418,0.3037753,-38.1834,-20.98593,8.418419
85.94,-0.9378142,42.75962,47.61537,1.248154,-0.5094249,0.3698876,-38.1834,-20.98593,8.418419
85.95,3.978036,52.5381,52.62222,1.247017,-0.5074813,0.4248994,-38.1834,-20.98593,8.418419
85.96,11.81851,60.8439099999998,54.51505,1.210471,-0.511696,0.4716033,-38.1834,-20.98593,8.418419
85.97,22.21024,66.3222199999998,55.85836,1.191695,-0.5354243,0.4859803,-38.92064,-19.9204,6.751175
85.98,35.46437,73.8033399999999,58.7281399999998,1.186727,-0.6142977,0.4380257,-38.92064,-19.9204,6.751175
85.99,51.14531,79.98853,64.7729899999999,1.177011,-0.6954603,0.3553103,-38.92064,-19.9204,6.751175
86,61.8481699999999,81.46119,72.4664499999997,1.167249,-0.7755322,0.2861085,-38.92064,-19.9204,6.751175
86.01,71.3065099999999,79.2227399999999,84.0066299999998,1.148067,-0.739297,0.2427075,-38.92064,-19.9204,6.751175
86.02,74.1066799999999,79.2816499999999,92.6159699999999,1.135828,-0.6303722,0.2573866,-39.28745,-18.92282,4.772465
86.03,68.3819,84.4654200000001,99.8209499999998,1.14106,-0.5198109,0.2774222,-39.28745,-18.92282,4.772465
86.04,65.58173,89.0012299999998,100.0041,1.161442,-0.4220573,0.312911,-39.28745,-18.92282,4.772465
86.05,64.95947,93.9493699999997,91.8222000000002,1.166828,-0.3274783,0.3314651,-39.28745,-18.92282,4.772465
86.06,62.2215300000002,95.5987500000001,81.0757899999998,1.174395,-0.2477345,0.3133192,-39.28745,-18.92282,4.772465
86.07,58.4257399999999,95.9521900000001,73.5044599999999,1.110846,-0.1516514,0.2901995,-40.79098,-15.04577,1.03068
86.08,55.31445,93.3014000000001,69.5356099999997,1.050182,-0.05919347,0.2916894,-40.79098,-15.04577,1.03068
86.09,50.08746,88.8245100000001,68.3144199999997,1.044803,-0.008750994,0.3086732,-40.79098,-15.04577,1.03068
86.1,43.05593,83.9941700000003,70.7567900000001,1.105483,0.01564534,0.4382052,-40.79098,-15.04577,1.03068
86.11,28.61951,85.64355,72.7106900000002,1.147142,0.05182942,0.5498592,-40.79098,-15.04577,1.03068
86.12,8.831661,92.2410799999999,71.1842000000001,1.083298,0.05796941,0.5878291,-41.20295,-10.8123,-2.643317
86.13,-11.2051,96.2467299999999,72.8938599999998,0.9928403,0.01546362,0.5677199,-41.20295,-10.8123,-2.643317
86.14,-30.30846,95.8932899999998,75.1530499999997,0.9307866,-0.04486713,0.5322042,-41.20295,-10.8123,-2.643317
86.15,-48.6029,90.9451400000002,75.3362300000001,0.8732202,-0.1615425,0.4700386,-41.20295,-10.8123,-2.643317
86.16,-58.6834999999999,83.5818299999999,77.4732999999998,0.8334169,-0.2674948,0.4542666,-41.20295,-10.8123,-2.643317
86.17,-61.0480900000003,82.63932,75.51941,0.8291137,-0.3336229,0.4767932,-41.22414,-7.675971,-6.738617
86.18,-66.64842,80.8721200000002,77.9007099999999,0.818504,-0.3079914,0.5371395,-41.22414,-7.675971,-6.738617
86.19,-75.1733799999997,79.4583700000002,80.09885,0.7846174,-0.2808517,0.5704063,-41.22414,-7.675971,-6.738617
86.2,-81.8937799999999,75.1581999999999,82.1748600000002,0.7434638,-0.2901607,0.5398796,-41.22414,-7.675971,-6.738617
86.21,-80.8981600000002,71.44708,82.1138,0.6935283,-0.2867703,0.4765442,-41.22414,-7.675971,-6.738617
86.22,-72.8710200000001,67.1469100000002,81.6253200000001,0.6072555,-0.2477503,0.4242903,-40.14388,-4.902077,-10.37535
86.23,-65.09277,62.1987600000001,79.6714300000002,0.542409,-0.1686243,0.4001658,-40.14388,-4.902077,-10.37535
86.24,-60.1147000000003,56.13139,75.3972900000003,0.4935947,-0.09168766,0.387659,-40.14388,-4.902077,-10.37535
86.25,-59.43021,48.76808,69.9630199999998,0.474267,-0.04090443,0.3476668,-40.14388,-4.902077,-10.37535
86.26,-61.2969900000001,40.58007,62.6969799999997,0.4831043,-0.03737232,0.3028201,-40.14388,-4.902077,-10.37535
86.27,-63.3504499999999,32.15644,56.8353,0.4948773,-0.07722697,0.2207315,-38.42372,-1.025399,-12.82272
86.28,-66.3372999999998,23.26156,49.38609,0.5203869,-0.1352108,0.1555285,-38.42372,-1.025399,-12.82272
86.29,-70.5064300000003,14.83793,42.60852,0.5261746,-0.2226454,0.1148214,-38.42372,-1.025399,-12.82272
86.3,-74.4266700000001,6.35538799999998,36.25836,0.5272539,-0.3289118,0.08274751,-38.42372,-1.025399,-12.82272
86.31,-77.8490899999999,-2.539496,31.37363,0.5016278,-0.3902651,0.06324757,-38.42372,-1.025399,-12.82272
86.32,-80.0269999999999,-11.43438,26.30572,0.4542718,-0.4705567,0.05523204,-37.72899,1.783839,-14.44106
86.33,-77.7246400000002,-23.21568,22.27581,0.3945237,-0.5281114,0.05688442,-37.72899,1.783839,-14.44106
86.34,-72.8087899999999,-33.58323,20.1998,0.3583878,-0.6164196,0.06239196,-37.72899,1.783839,-14.44106
86.35,-65.4039,-44.00968,17.63531,0.3937719,-0.6535261,0.04937463,-37.72899,1.783839,-14.44106
86.36,-55.01217,-51.01955,11.40728,0.4277581,-0.749197,0.03671033,-37.72899,1.783839,-14.44106
86.37,-43.99818,-56.14442,8.842797,0.4474602,-0.7314058,0.06044428,-37.40988,3.909563,-13.65022
86.38,-37.52668,-57.3814600000003,7.438436,0.46487,-0.7197167,0.05375863,-37.40988,3.909563,-13.65022
86.39,-32.36192,-57.7938000000001,4.324419,0.5431911,-0.6773583,0.0680456,-37.40988,3.909563,-13.65022
86.4,-27.19717,-57.02802,2.614762,0.5765282,-0.6492223,0.04695991,-37.40988,3.909563,-13.65022
86.41,-20.72567,-56.02661,2.614762,0.6007935,-0.5886709,0.03267621,-37.40988,3.909563,-13.65022
86.42,-14.93865,-55.43755,0.1723953,0.6205871,-0.5721192,0.0264897,-37.46474,5.699868,-11.34062
86.43,-10.14725,-54.90739,1.820993,0.6278068,-0.5671355,0.03617002,-37.46474,5.699868,-11.34062
86.44,-8.342702,-55.79098,-3.85751,0.62521,-0.5572265,0.0636899,-37.46474,5.699868,-11.34062
86.45,-7.28486100000002,-58.79522,-4.345983,0.6244726,-0.5922444,0.09835624,-37.46474,5.699868,-11.34062
86.46,-6.91150599999999,-60.7980399999998,-8.68118399999998,0.6400016,-0.6569556,0.1532677,-37.46474,5.699868,-11.34062
86.47,-6.60037599999999,-61.6227300000003,-11.48991,0.6431388,-0.6574606,0.25461,-38.52402,5.45086,-8.502347
86.48,-8.96496200000001,-58.9719399999997,-17.59582,0.6476755,-0.6493183,0.3477711,-38.52402,5.45086,-8.502347
86.49,-11.2051,-54.20051,-21.74785,0.6842375,-0.6196315,0.3879808,-38.52402,5.45086,-8.502347
86.5,-7.90712100000003,-46.48375,-27.05999,0.6845628,-0.555585,0.4059736,-38.52402,5.45086,-8.502347
86.51,-1.186718,-35.93949,-36.03569,0.6298771,-0.5205071,0.3721296,-38.52402,5.45086,-8.502347
86.52,10.26286,-29.87212,-43.54597,0.5754992,-0.4698306,0.3503836,-38.91,5.136048,-5.719905
86.53,26.06825,-24.80616,-50.01824,0.5713299,-0.4318858,0.3224666,-38.91,5.136048,-5.719905
86.54,44.4249,-19.62239,-57.28428,0.5686539,-0.3968595,0.2916518,-38.91,5.136048,-5.719905
86.55,62.9682399999998,-15.2633,-65.40515,0.5669578,-0.3627891,0.2613201,-38.91,5.136048,-5.719905
86.56,78.0891399999997,-13.31939,-71.4500000000001,0.5722766,-0.3542121,0.2420503,-39.64727,4.797852,-4.52054
86.57,85.68071,-13.96736,-73.5260199999999,0.6117719,-0.3622759,0.2262107,-39.64727,4.797852,-4.52054
86.58,92.9611399999999,-19.44567,-71.5721199999998,0.6399067,-0.3496669,0.2050783,-39.64727,4.797852,-4.52054
86.59,93.7700799999998,-25.86648,-73.95343,0.5924509,-0.3138597,0.1920041,-39.64727,4.797852,-4.52054
86.6,89.1653599999999,-34.2312,-78.89922,0.5489507,-0.2796491,0.1596346,-39.64727,4.797852,-4.52054
86.61,79.0847500000003,-44.48093,-85.1883200000002,0.5498426,-0.2280581,0.1911135,-39.64727,4.797852,-4.52054
86.62,64.8972399999997,-54.43613,-90.8057600000002,0.5552647,-0.1811649,0.1810948,-40.3348,1.976251,-3.660409
86.63,47.59843,-63.2132,-99.8425099999998,0.5839513,-0.1230779,0.1581313,-40.3348,1.976251,-3.660409
86.64,33.78426,-69.8107400000002,-109.9173,0.6257649,-0.110586,0.1124239,-40.3348,1.976251,-3.660409
86.65,27.31277,-74.8766899999998,-119.4425,0.6988542,-0.163315,0.0521804,-40.3348,1.976251,-3.660409
86.66,29.86403,-80.0015599999997,-127.9908,0.78161,-0.2101568,-0.007542924,-40.66069,-1.190671,-1.590471
86.67,35.58882,-85.1853400000002,-133.1808,0.8742818,-0.2320377,-0.04498977,-40.66069,-1.190671,-1.590471
86.68,41.68696,-90.3101999999998,-139.2257,0.9516689,-0.1963785,-0.02155118,-40.66069,-1.190671,-1.590471
86.69,44.73603,-97.1433600000001,-142.9503,1.068509,-0.1859956,0.06225342,-40.66069,-1.190671,-1.590471
86.7,42.80703,-101.149,-143.0724,1.143752,-0.105409,0.1851881,-40.66069,-1.190671,-1.590471
86.71,36.77111,-97.8502299999999,-149.911,1.149722,0.002182567,0.3036593,-40.97564,-6.131044,2.909622
86.72,24.32592,-91.2527099999997,-151.6207,1.138813,0.0508429,0.39542,-40.97564,-6.131044,2.909622
86.73,11.00957,-86.0100300000001,-154.3073,1.138346,0.03482858,0.4441218,-40.97564,-6.131044,2.909622
86.74,0.804512500000001,-77.5864000000001,-152.7808,1.169149,0.01947283,0.4321046,-40.97564,-6.131044,2.909622
86.75,-8.467154,-72.99169,-152.5366,1.236583,-0.01727371,0.4312344,-40.97564,-6.131044,2.909622
86.76,-14.62752,-68.6326100000003,-149.6668,1.309449,-0.04628653,0.3715239,-40.542,-11.74697,7.048269
86.77,-18.48553,-66.1585299999998,-143.8051,1.461504,-0.1272561,0.3312079,-40.542,-11.74697,7.048269
86.78,-12.26294,-64.3324300000003,-133.364,1.700968,-0.2648585,0.1616724,-40.542,-11.74697,7.048269
86.79,6.46707400000001,-69.92855,-120.2363,1.874686,-0.6582315,0.02085307,-40.542,-11.74697,7.048269
86.8,26.93941,-85.65659,-92.69859,1.773795,-1.0307,-0.03425334,-40.542,-11.74697,7.048269
86.81,44.61158,-97.8502299999999,-71.3278900000001,1.524153,-1.147993,0.1062375,-39.00418,-17.02811,9.927849
86.82,48.28291,-98.20367,-67.9696400000001,1.435803,-1.215212,0.2935766,-39.00418,-17.02811,9.927849
86.83,33.84649,-83.0058000000001,-48.49176,1.595746,-1.332593,0.3400614,-39.00418,-17.02811,9.927849
86.84,39.69573,-70.7532399999998,-24.55657,1.663368,-1.364801,0.2528252,-39.00418,-17.02811,9.927849
86.85,63.0926899999999,-64.9214899999998,-3.369036,1.444574,-1.246365,0.2129466,-39.00418,-17.02811,9.927849
86.86,63.5282700000001,-57.44036,20.81039,1.358471,-0.9421985,0.2611507,-36.8363,-20.89715,14.43422
86.87,32.97533,-36.41074,39.06709,1.276434,-0.5884761,0.433487,-36.8363,-20.89715,14.43422
86.88,-8.778284,-1.950431,49.44714,1.038747,-0.3977774,0.4800912,-36.8363,-20.89715,14.43422
86.89,-31.98857,26.85485,56.53001,0.768088,-0.3212374,0.3478219,-36.8363,-20.89715,14.43422
86.9,-32.23747,43.34868,56.28577,0.6588781,-0.2534904,0.2280138,-36.8363,-20.89715,14.43422
86.91,-17.48992,51.47778,50.24091,0.6160043,-0.1660749,0.1388196,-35.37319,-21.6049,16.10259
86.92,0.120027,52.06684,43.28017,0.6797068,-0.04659993,0.07795702,-35.37319,-21.6049,16.10259
86.93,14.12087,49.18042,34.91506,0.8638608,0.02095847,0.0587927,-35.37319,-21.6049,16.10259
86.94,16.42323,48.0023,30.39668,1.065889,0.09934281,0.04404068,-35.37319,-21.6049,16.10259
86.95,8.022723,45.64603,33.38858,1.207488,0.1932346,0.03013126,-35.37319,-21.6049,16.10259
86.96,-1.31117,38.40053,26.97737,1.273192,0.2358949,0.03521791,-36.86076,-19.80237,14.859
86.97,-13.00965,32.6866,23.25276,1.221423,0.1688253,-0.005111343,-36.86076,-19.80237,14.859
86.98,-11.88958,26.20688,15.07083,1.047728,0.09395391,-0.05397515,-36.86076,-19.80237,14.859
86.99,0.4311568,20.55186,13.91071,0.9254603,0.008087992,-0.02552215,-36.86076,-19.80237,14.859
87,16.6099,15.78043,12.20105,0.8392636,0.01543508,0.004671916,-36.86076,-19.80237,14.859
87.01,36.64666,16.84075,8.842797,0.8424501,0.01007776,0.1045562,-37.96994,-18.43237,13.18342
87.02,51.58089,22.67249,7.987969,0.8809248,0.03050466,0.1891454,-37.96994,-18.43237,13.18342
87.03,58.6124199999997,30.8605,7.987969,0.9815059,0.01876773,0.2492156,-37.96994,-18.43237,13.18342
87.04,56.93232,37.51694,9.02597400000002,1.049497,0.03310897,0.2248118,-37.96994,-18.43237,13.18342
87.05,48.71849,37.87037,8.78173699999999,1.077551,0.01201743,0.1698283,-37.96994,-18.43237,13.18342
87.06,31.85526,34.57161,6.82784400000002,1.023462,0.03360217,0.1417473,-38.29185,-17.34901,12.78391
87.07,8.33385399999997,27.73845,1.332519,0.9667947,0.01934575,0.1126176,-38.29185,-17.34901,12.78391
87.08,-13.19633,17.78325,-4.651279,0.9106663,-0.05296722,0.08481213,-38.29185,-17.34901,12.78391
87.09,-26.0771,6.53210800000001,-10.39084,0.8739048,-0.1131489,0.04405383,-38.29185,-17.34901,12.78391
87.1,-30.12179,-4.424504,-15.03134,0.8756244,-0.1817324,0.00434182,-38.29185,-17.34901,12.78391
87.11,-24.83258,-13.26048,-18.14536,0.8861645,-0.2622054,-0.01993144,-38.6607,-16.99133,12.33231
87.12,-15.68536,-19.15113,-18.20642,0.9167525,-0.309882,-0.02043759,-38.6607,-16.99133,12.33231
87.13,-9.02718699999998,-21.91974,-16.19146,0.955318,-0.3340384,0.004219925,-38.6607,-16.99133,12.33231
87.14,-7.59599100000002,-21.50739,-12.71109,0.9986053,-0.3464421,0.04001351,-38.6607,-16.99133,12.33231
87.15,-9.21386499999998,-20.32926,-8.864361,1.027075,-0.3328635,0.07196435,-38.6607,-16.99133,12.33231
87.16,-16.2454,-17.9141,-4.284924,1.075404,-0.3179553,0.1266491,-38.65034,-17.36003,11.95905
87.17,-25.95265,-13.96736,2.614762,1.151913,-0.3051241,0.1949133,-38.65034,-17.36003,11.95905
87.18,-37.34,-6.13279300000002,9.697625,1.217906,-0.3168851,0.2819171,-38.65034,-17.36003,11.95905
87.19,-48.6029,5.884136,15.00977,1.253772,-0.2818195,0.3819726,-38.65034,-17.36003,11.95905
87.2,-58.9946299999999,20.9053,17.81849,1.309488,-0.2793618,0.4448529,-38.65034,-17.36003,11.95905
87.21,-64.2838399999999,35.92646,19.71133,1.374949,-0.3277569,0.4951027,-37.96888,-18.08325,12.3562
87.22,-67.2084600000001,52.42028,22.15369,1.440184,-0.3632109,0.5849488,-37.96888,-18.08325,12.3562
87.23,-72.2487600000001,73.6266299999998,26.61101,1.44094,-0.4283466,0.7122036,-37.96888,-18.08325,12.3562
87.24,-87.3074400000001,97.7193899999999,37.60167,1.38946,-0.5470173,0.7446291,-37.96888,-18.08325,12.3562
87.25,-115.8691,109.6185,56.16365,1.37682,-0.8090663,0.569833,-38.31236,-18.12002,9.951733
87.26,-141.2573,104.5525,77.4122400000003,1.230067,-1.090823,0.2585699,-38.31236,-18.12002,9.951733
87.27,-140.6973,103.6689,91.33373,0.9578856,-1.21373,0.1205598,-38.31236,-18.12002,9.951733
87.28,-93.0944500000003,115.3324,92.3717299999999,0.8582158,-1.026255,0.01406254,-38.31236,-18.12002,9.951733
87.29,-11.32955,134.1236,83.3349799999998,0.9256871,-0.7556797,0.01530078,-38.31236,-18.12002,9.951733
87.3,60.4169700000001,143.1363,92.67703,0.9494718,-0.4767429,-0.03760114,-39.67657,-17.47758,4.303362
87.31,114.8025,122.7547,98.7218899999997,0.9604084,-0.1421431,-0.02527243,-39.67657,-17.47758,4.303362
87.32,136.3327,91.8287400000001,95.6078699999999,1.015498,0.087621,0.02217083,-39.67657,-17.47758,4.303362
87.33,124.0741,65.85097,89.5019500000001,1.045049,0.1380981,0.0662675,-39.67657,-17.47758,4.303362
87.34,93.7078599999998,47.05979,85.6552299999999,1.089777,0.1229513,0.1184656,-39.67657,-17.47758,4.303362
87.35,64.0882999999999,39.0485,80.7094300000002,1.149233,0.04580254,0.1517489,-40.05371,-14.70758,-0.1686869
87.36,20.40569,35.33739,78.8165999999999,1.255597,-0.102327,0.1623209,-40.05371,-14.70758,-0.1686869
87.37,-21.34793,41.16914,82.5412100000001,1.266543,-0.2432298,0.1977548,-40.05371,-14.70758,-0.1686869
87.38,-53.20762,48.70917,92.7991500000002,1.1721,-0.3466178,0.2445787,-40.05371,-14.70758,-0.1686869
87.39,-75.1111500000001,55.89577,103.7287,1.058174,-0.4434616,0.2826806,-40.05371,-14.70758,-0.1686869
87.4,-85.7517900000001,59.4301599999998,113.1929,0.9731516,-0.5661427,0.3285223,-41.21331,-10.44359,-2.270049
87.41,-84.1339200000001,58.95891,120.9474,0.9231357,-0.6381937,0.3774584,-41.21331,-10.44359,-2.270049
87.42,-66.3995200000003,57.8396799999998,125.2216,0.9333937,-0.7092945,0.4260694,-41.21331,-10.44359,-2.270049
87.43,-40.76242,56.66155,128.3356,0.9504301,-0.7694663,0.4467336,-41.21331,-10.44359,-2.270049
87.44,-17.98773,55.89577,129.5568,0.9783239,-0.7904984,0.4515858,-41.21331,-10.44359,-2.270049
87.45,-1.808978,56.42593,130.2284,0.9749534,-0.789693,0.4366198,-40.52629,-6.62679,-5.105408
87.46,7.33823800000002,59.0767199999997,130.2284,0.9886947,-0.8017415,0.4303563,-40.52629,-6.62679,-5.105408
87.47,13.93419,64.4961200000003,127.4808,0.9985163,-0.7623991,0.4377044,-40.52629,-6.62679,-5.105408
87.48,19.53452,70.9758300000002,124.5499,0.9640131,-0.6605332,0.4402471,-40.52629,-6.62679,-5.105408
87.49,24.32592,75.9828899999998,121.558,0.8921471,-0.5634022,0.4330323,-40.52629,-6.62679,-5.105408
87.5,28.93064,76.8075800000002,119.2378,0.8259249,-0.4939396,0.4117787,-39.49119,-2.020717,-7.570824
87.51,30.92187,74.51022,118.5051,0.7711396,-0.4552509,0.4025522,-39.49119,-2.020717,-7.570824
87.52,28.30838,70.03333,118.9325,0.7169102,-0.421947,0.3860773,-39.49119,-2.020717,-7.570824
87.53,22.45914,66.7934700000002,120.52,0.7151574,-0.4366637,0.3657741,-39.49119,-2.020717,-7.570824
87.54,17.66775,66.08659,119.7873,0.7173492,-0.4595064,0.3531844,-39.49119,-2.020717,-7.570824
87.55,14.12087,66.2044100000001,120.2147,0.6931583,-0.4727355,0.3559888,-38.43479,1.84692,-10.84596
87.56,12.68967,66.5578500000001,118.9325,0.6785042,-0.4721463,0.3800797,-38.43479,1.84692,-10.84596
87.57,11.69405,68.8551899999998,117.0396,0.6609286,-0.527573,0.4199668,-38.43479,1.84692,-10.84596
87.58,11.00957,71.44708,115.6963,0.6151635,-0.528164,0.4473528,-38.43479,1.84692,-10.84596
87.59,10.94734,72.4484900000002,115.1468,0.560737,-0.5366182,0.468909,-38.43479,1.84692,-10.84596
87.6,8.14717600000003,71.1525499999999,113.6814,0.5173183,-0.588701,0.5261083,-35.9908,6.377288,-13.67617
87.61,5.160329,72.0361499999998,113.4371,0.4724681,-0.5797155,0.5414535,-35.9908,6.377288,-13.67617
87.62,7.773819,72.4484900000002,110.9337,0.4324543,-0.5607621,0.5312576,-35.9908,6.377288,-13.67617
87.63,11.81851,73.3910000000001,111.0558,0.4202223,-0.5493394,0.5206345,-35.9908,6.377288,-13.67617
87.64,15.61429,74.15678,108.8577,0.4029547,-0.51862,0.5076272,-35.9908,6.377288,-13.67617
87.65,20.21901,75.2760100000002,104.8278,0.3915178,-0.5330688,0.471858,-33.51566,9.859907,-17.75352
87.66,26.13047,74.4513199999997,102.3244,0.3442248,-0.4647699,0.4660923,-33.51566,9.859907,-17.75352
87.67,30.17516,72.4484900000002,98.9661300000002,0.3318835,-0.4389174,0.4458489,-33.51566,9.859907,-17.75352
87.68,32.6642,69.5031700000002,93.7760999999998,0.2781825,-0.4090323,0.4255077,-33.51566,9.859907,-17.75352
87.69,31.54413,61.3151699999999,81.0147300000003,0.03313165,-0.04255273,0.06519955,-33.51566,9.859907,-17.75352
87.7,32.16639,57.01499,75.8246999999998,0.222651,-0.5225086,0.5003982,-30.29967,12.27082,-20.54273
87.71,30.23739,51.30106,68.4365500000003,0.1124631,-0.2796885,0.3158197,-30.29967,12.27082,-20.54273
87.72,26.13047,47.47214,58.54496,0.1377361,-0.4224476,0.4540695,-30.29967,12.27082,-20.54273
87.73,21.52575,46.58854,51.88951,0.1566728,-0.4151943,0.4372448,-30.29967,12.27082,-20.54273
87.74,16.85881,47.64886,41.93687,0.168759,-0.5086076,0.425494,-30.29967,12.27082,-20.54273
87.75,13.06303,47.58995,35.22036,0.1834299,-0.566668,0.4143083,-27.44842,14.03803,-22.18742
87.76,12.37854,47.64886,29.60291,0.1657635,-0.5936559,0.3886297,-27.44842,14.03803,-22.18742
87.77,14.99203,46.05838,27.46584,0.108066,-0.5484385,0.3547997,-27.44842,14.03803,-22.18742
87.78,20.65459,42.40618,24.10759,0.03650553,-0.5388078,0.3575311,-27.44842,14.03803,-22.18742
87.79,27.8728,33.51129,17.14684,-0.06143816,-0.5237828,0.3906067,-27.44842,14.03803,-22.18742
87.8,31.85526,21.55327,6.58360800000001,-0.09273171,-0.4706969,0.4543365,-25.66608,14.35714,-24.13513
87.81,29.36622,13.01182,-3.674332,-0.03264527,-0.4564665,0.4776844,-25.66608,14.35714,-24.13513
87.82,25.19709,11.83369,-8.80330200000001,0.02808179,-0.4464936,0.458078,-25.66608,14.35714,-24.13513
87.83,23.01918,10.71447,-10.7572,0.0428626,-0.4559422,0.4175617,-25.66608,14.35714,-24.13513
87.84,22.8325,6.23757499999998,-11.18461,0.05014951,-0.4483661,0.3929868,-25.66608,14.35714,-24.13513
87.85,22.39692,-0.4777677,-11.97838,0.05087407,-0.4240927,0.4007616,-23.46501,14.98072,-25.76772
87.86,20.65459,-7.95889600000002,-16.06934,0.02676106,-0.4012674,0.430184,-23.46501,14.98072,-25.76772
87.87,17.10771,-15.08658,-22.66373,0.01204122,-0.3976477,0.4682752,-23.46501,14.98072,-25.76772
87.88,11.75628,-20.85942,-30.54037,-0.01061693,-0.3752686,0.5005956,-23.46501,14.98072,-25.76772
87.89,5.533685,-26.16101,-38.78335,-0.03756415,-0.3677453,0.5526575,-24.54479,13.9607,-25.76163
87.9,-2.680141,-30.87353,-48.1254,-0.05514269,-0.3638704,0.568062,-24.54479,13.9607,-25.76163
87.91,-10.70729,-37.94231,-58.0169899999997,-0.05720246,-0.3499047,0.5622962,-24.54479,13.9607,-25.76163
87.92,-18.1744,-44.30421,-67.2369200000002,-0.03575286,-0.3555666,0.5599266,-24.54479,13.9607,-25.76163
87.93,-22.90358,-47.89751,-73.8923699999999,-0.006457219,-0.3642071,0.5426118,-24.54479,13.9607,-25.76163
87.94,-27.69497,-51.66753,-82.3795900000003,0.04910516,-0.375982,0.5306661,-24.54479,13.9607,-25.76163
87.95,-31.61521,-51.96206,-91.0500000000002,0.1085931,-0.3920685,0.5201688,-25.28206,13.62251,-24.56227
87.96,-35.03764,-50.66611,-99.1098099999999,0.1552862,-0.3875725,0.495689,-25.28206,13.62251,-24.56227
87.97,-36.71774,-49.48799,-106.0095,0.1956424,-0.3793159,0.4644451,-25.28206,13.62251,-24.56227
87.98,-34.35315,-50.01814,-112.1154,0.2056749,-0.3495797,0.4264136,-25.28206,13.62251,-24.56227
87.99,-28.81504,-53.72926,-120.6026,0.2351082,-0.3755579,0.4182303,-27.41421,12.57559,-22.92229
88,-22.53022,-60.56241,-127.5023,0.2750412,-0.3782992,0.4019207,-27.41421,12.57559,-22.92229
88.01,-18.60999,-67.3366599999997,-133.364,0.3167287,-0.3747715,0.4348492,-27.41421,12.57559,-22.92229
88.02,-19.73005,-75.7602899999997,-136.0506,0.3416364,-0.346623,0.475508,-27.41421,12.57559,-22.92229
88.03,-28.31723,-83.7126800000002,-137.3328,0.3818477,-0.3402338,0.505061,-27.41421,12.57559,-22.92229
88.04,-36.77996,-87.3059699999998,-139.0425,0.4671712,-0.3633911,0.4931675,-29.88828,9.442095,-19.67216
88.05,-32.11302,-86.8936199999997,-142.4007,0.5422272,-0.369549,0.4436453,-29.88828,9.442095,-19.67216
88.06,-22.21909,-80.4139099999998,-147.6518,0.6372564,-0.33563,0.4203184,-29.88828,9.442095,-19.67216
88.07,-14.68975,-70.6354300000001,-156.2612,0.7359248,-0.3230993,0.3834435,-29.88828,9.442095,-19.67216
88.08,-8.591606,-63.0364800000003,-164.4431,0.7765871,-0.3393012,0.323195,-29.88828,9.442095,-19.67216
88.09,-3.426852,-62.0939800000001,-170.4269,0.7997733,-0.361346,0.2739874,-33.83434,6.680623,-16.44179
88.1,8.644983,-67.6312000000001,-175.9222,0.7909033,-0.3987364,0.267611,-33.83434,6.680623,-16.44179
88.11,20.21901,-82.0043899999998,-179.83,0.807745,-0.384905,0.2840909,-33.83434,6.680623,-16.44179
88.12,19.84565,-94.4336600000001,-180.1964,0.8677232,-0.3698489,0.3450791,-33.83434,6.680623,-16.44179
88.13,14.99203,-100.4421,-180.3185,0.8219826,-0.3304571,0.4053644,-33.83434,6.680623,-16.44179
88.14,16.42323,-101.4435,-177.9982,0.766555,-0.3727905,0.3742473,-36.28193,2.156436,-13.23248
88.15,25.19709,-104.271,-172.9914,0.7654771,-0.3499382,0.3337595,-36.28193,2.156436,-13.23248
88.16,33.78426,-109.8083,-167.9845,0.7978215,-0.3165832,0.3020664,-36.28193,2.156436,-13.23248
88.17,34.21985,-118.7031,-164.2599,0.8259447,-0.2521476,0.2858708,-36.28193,2.156436,-13.23248
88.18,29.67735,-128.8351,-167.3129,0.9146266,-0.2158409,0.2644629,-36.28193,2.156436,-13.23248
88.19,23.33031,-134.9024,-159.7415,1.071516,-0.290116,0.2111449,-38.02947,-4.526622,-8.718108
88.2,9.08056399999998,-146.6248,-144.9042,1.235466,-0.3155377,0.255425,-38.02947,-4.526622,-8.718108
88.21,-10.64506,-151.3963,-128.8456,1.252874,-0.3132245,0.2820151,-38.02947,-4.526622,-8.718108
88.22,-29.06395,-151.7497,-119.0151,1.278584,-0.3636979,0.2974145,-38.02947,-4.526622,-8.718108
88.23,-35.6599,-145.6234,-114.4357,1.341715,-0.3658102,0.3303861,-38.02947,-4.526622,-8.718108
88.24,-33.23309,-129.5419,-107.2307,1.240253,-0.2632006,0.09968664,-39.74088,-10.46546,-3.014333
88.25,-17.48992,-134.3134,-124.083,1.288154,-0.07744583,0.2628285,-39.74088,-10.46546,-3.014333
88.26,-9.21386499999998,-128.7762,-126.0369,1.329229,-0.06225098,0.3020535,-39.74088,-10.46546,-3.014333
88.27,3.666906,-130.3666,-134.1578,1.348348,-0.07154274,0.2750601,-39.74088,-10.46546,-3.014333
88.28,21.46353,-133.0763,-132.8145,1.345938,-0.051934,0.1983708,-39.74088,-10.46546,-3.014333
88.29,32.35307,-140.204,-132.7534,1.430502,-0.1402496,0.1530394,-39.69779,-15.74497,3.074671
88.3,33.97094,-149.9825,-128.174,1.589092,-0.2406402,0.1001523,-39.69779,-15.74497,3.074671
88.31,30.48629,-154.4594,-119.5646,1.672299,-0.3061205,0.1190455,-39.69779,-15.74497,3.074671
88.32,17.35662,-154.6361,-114.3746,1.705069,-0.4769009,0.09656561,-39.69779,-15.74497,3.074671
88.33,1.551224,-149.6291,-103.5061,1.723687,-0.6429215,0.07743732,-39.69779,-15.74497,3.074671
88.34,-15.37424,-138.8492,-84.39455,1.766309,-0.8553253,0.1523682,-38.25586,-20.96595,9.618332
88.35,-32.5486,-120.9416,-67.1148100000003,1.893157,-1.022746,0.2058984,-38.25586,-20.96595,9.618332
88.36,-42.06917,-103.034,-53.74285,2.084154,-1.163347,0.1737579,-38.25586,-20.96595,9.618332
88.37,-43.93595,-85.2442500000002,-31.02884,1.920528,-1.310571,0.2487796,-38.25586,-20.96595,9.618332
88.38,-29.62398,-67.27776,2.065229,1.602605,-1.333186,0.3222236,-38.25586,-20.96595,9.618332
88.39,-18.79666,-51.49081,30.82409,1.380738,-1.098287,0.4794672,-35.66063,-24.83776,14.12877
88.4,-25.89042,-30.46118,43.95182,1.139642,-0.8468959,0.4977228,-35.66063,-24.83776,14.12877
88.41,-30.55737,-4.83685,58.4228399999998,0.8920925,-0.7609945,0.4171659,-35.66063,-24.83776,14.12877
88.42,-18.79666,20.61076,66.2384100000002,0.7191223,-0.5955306,0.3475885,-35.66063,-24.83776,14.12877
88.43,10.38731,47.00089,59.2776700000002,0.6218853,-0.3105646,0.2630217,-35.66063,-24.83776,14.12877
88.44,45.98055,67.5592599999998,49.32502,0.6759883,-0.08893182,0.1623025,-33.50938,-26.2217,15.37192
88.45,66.3284400000001,77.27883,50.24091,0.7518337,0.0470842,0.04746132,-33.50938,-26.2217,15.37192
88.46,79.9559199999997,59.0178099999997,38.1512,0.8149466,0.5111921,-0.271308,-33.50938,-26.2217,15.37192
88.47,83.81393,19.49154,-24.67869,0.9973265,0.9885265,-0.5149463,-33.50938,-26.2217,15.37192
88.48,63.9016299999998,-10.37406,-43.05749,1.21035,0.6359542,-0.4070639,-33.50938,-26.2217,15.37192
88.49,35.40214,-18.8566,-2.697386,1.175423,0.1730298,-0.08870188,-34.64302,-23.75693,14.12112
88.5,19.65898,-11.43438,9.94186200000003,0.9822861,0.1099229,0.001866066,-34.64302,-23.75693,14.12112
88.51,-2.555689,-1.832618,22.82534,0.8925563,0.008937962,0.09599712,-34.64302,-23.75693,14.12112
88.52,-12.51184,2.997717,34.79294,0.8407017,-0.01309518,0.1122227,-34.64302,-23.75693,14.12112
88.53,-18.29885,6.29648200000002,40.28827,0.8322558,0.07534097,0.05255497,-34.64302,-23.75693,14.12112
88.54,-19.73005,10.1254,39.67768,0.9087635,0.01930371,-0.001896207,-35.31819,-23.74639,14.49384
88.55,-13.56968,10.89119,27.8322,0.963518,0.05829854,-0.07115819,-35.31819,-23.74639,14.49384
88.56,-5.91588999999998,11.83369,6.46148900000001,1.116583,0.01446403,-0.0732704,-35.31819,-23.74639,14.49384
88.57,-3.737982,11.12681,-15.51981,1.104379,0.01641437,-0.06123397,-35.31819,-23.74639,14.49384
88.58,1.426772,4.647099,-32.55532,0.9916438,-0.04952205,-0.03126589,-36.44613,-21.99327,14.0761
88.59,9.08056399999998,-8.25342800000003,-43.17961,0.9816735,-0.1359413,-0.0001117208,-36.44613,-21.99327,14.0761
88.6,16.67213,-21.27177,-40.98148,1.008924,-0.2464344,0.01274984,-36.44613,-21.99327,14.0761
88.61,21.58798,-32.52291,-29.99083,1.041044,-0.3018467,0.01174846,-36.44613,-21.99327,14.0761
88.62,22.27247,-36.82309,-13.68804,1.048481,-0.2678331,0.02052664,-36.44613,-21.99327,14.0761
88.63,13.56083,-30.10774,0.2334544,1.078653,-0.2215478,0.02890728,-35.70114,-22.66264,14.09376
88.64,-1.31117,-12.96595,9.270211,1.118748,-0.1889815,0.0102613,-35.70114,-22.66264,14.09376
88.65,-11.51623,4.529286,14.64342,1.105831,-0.1450157,-0.03986257,-35.70114,-22.66264,14.09376
88.66,-16.12095,16.72293,15.5593,1.043901,-0.1143718,-0.07614758,-35.70114,-22.66264,14.09376
88.67,-15.93427,21.78889,12.38423,0.9867954,-0.0873203,-0.08588767,-35.70114,-22.66264,14.09376
88.68,-13.56968,21.8478,6.70572599999998,0.9601916,-0.0558736,-0.06417399,-34.67469,-22.64979,15.30411
88.69,-8.65383099999998,19.43263,-0.0718414199999997,0.9444287,-0.04358607,-0.02992726,-34.67469,-22.64979,15.30411
88.7,-3.364626,17.19419,-4.712338,0.9443567,-0.04428661,-0.0004934713,-34.67469,-22.64979,15.30411
88.71,5.90704099999998,15.4859,-7.887414,0.9711428,-0.06018922,0.03718023,-34.67469,-22.64979,15.30411
88.72,16.1121,16.31059,-7.46000099999997,1.003298,-0.08128115,0.08499016,-34.67469,-22.64979,15.30411
88.73,24.2637,20.19842,-3.918569,1.038445,-0.1035372,0.1086778,-35.69439,-23.02516,14.09959
88.74,28.37061,25.26438,0.6608686,1.065788,-0.1173232,0.1125791,-35.69439,-23.02516,14.09959
88.75,29.17955,31.39066,5.728779,1.081991,-0.1336773,0.1096905,-35.69439,-23.02516,14.09959
88.76,28.37061,38.22381,10.36928,1.063366,-0.166344,0.09895612,-35.69439,-23.02516,14.09959
88.77,27.25054,44.29118,13.91071,1.040391,-0.1995987,0.08048852,-35.69439,-23.02516,14.09959
88.78,28.18393,48.9448,16.41413,1.029149,-0.2386089,0.05769587,-36.05034,-23.39149,13.72285
88.79,31.04633,51.47778,19.03968,1.039757,-0.2750199,0.03593025,-36.05034,-23.39149,13.72285
88.8,36.21108,52.5381,20.5051,1.042569,-0.2648043,0.03933731,-36.05034,-23.39149,13.72285
88.81,41.12693,53.4806,22.03158,1.053699,-0.2622055,0.04950512,-36.05034,-23.39149,13.72285
88.82,45.35829,55.71905,22.8864,1.056052,-0.2586501,0.06592549,-36.05034,-23.39149,13.72285
88.83,47.84733,59.0767199999997,24.59606,1.055002,-0.2518347,0.07124548,-36.42488,-22.32216,12.43818
88.84,48.71849,62.6700200000002,25.8783,1.055031,-0.2575584,0.08040167,-36.42488,-22.32216,12.43818
88.85,48.34514,66.4989400000001,28.19855,1.084297,-0.2712591,0.09202887,-36.42488,-22.32216,12.43818
88.86,47.7851,71.6827099999997,31.43469,1.116861,-0.2738032,0.1036886,-36.42488,-22.32216,12.43818
88.87,45.42052,78.2802400000002,36.68578,1.181963,-0.3334066,0.1457101,-36.42488,-22.32216,12.43818
88.88,42.80703,86.0559000000001,42.91381,1.215382,-0.3360239,0.2017663,-37.16475,-20.95968,10.45016
88.89,42.06032,92.2410799999999,45.41724,1.262588,-0.3489645,0.2284004,-37.16475,-20.95968,10.45016
88.9,42.37144,102.1963,53.72128,1.360735,-0.4143729,0.2955872,-37.16475,-20.95968,10.45016
88.91,41.74919,113.742,58.6670799999997,1.421429,-0.4422781,0.4211464,-37.16475,-20.95968,10.45016
88.92,34.96656,126.0534,68.3754799999999,1.372998,-0.4521586,0.3872219,-37.16475,-20.95968,10.45016
88.93,35.33991,136.2442,72.6496300000001,1.259297,-0.4621138,0.4009011,-38.27821,-19.17292,8.388666
88.94,40.56689,141.6047,74.7866999999998,1.176315,-0.5197086,0.3648547,-38.27821,-19.17292,8.388666
88.95,46.60281,138.7183,82.5412100000001,1.122554,-0.5165589,0.2783466,-38.27821,-19.17292,8.388666
88.96,55.00331,134.4182,86.8153500000001,1.083039,-0.4020396,0.2929673,-38.27821,-19.17292,8.388666
88.97,57.9901599999997,130.8838,82.8464999999999,1.048123,-0.355492,0.279466,-38.27821,-19.17292,8.388666
88.98,64.5861099999997,122.8136,76.86271,1.026871,-0.3319891,0.3277166,-39.68901,-16.40341,3.46447
88.99,70.55981,115.4502,69.3524299999999,1.05354,-0.3385966,0.3765086,-39.68901,-16.40341,3.46447
89,66.0795399999998,114.5667,62.5748600000001,1.095455,-0.2802781,0.3144933,-39.68901,-16.40341,3.46447
89.01,68.3819,115.0968,59.6440200000001,1.111526,-0.2186156,0.2697902,-39.68901,-16.40341,3.46447
89.02,72.6132600000001,114.3899,65.6888799999998,1.105913,-0.1280019,0.2342619,-39.68901,-16.40341,3.46447
89.03,76.5957199999999,112.0926,73.01598,1.054008,-0.00107211,0.2937544,-40.80552,-13.26614,-1.020374
89.04,73.73333,107.6746,78.9997800000002,0.9476958,0.111244,0.3892664,-40.80552,-13.26614,-1.020374
89.05,61.5370399999999,97.5426700000001,82.0527300000002,0.8855157,0.1291119,0.4914448,-40.80552,-13.26614,-1.020374
89.06,40.19354,85.70246,83.1518,0.9007138,0.08847174,0.5859762,-40.80552,-13.26614,-1.020374
89.07,14.9298,79.3405500000002,82.8464999999999,0.8865997,0.06403069,0.6775715,-40.80552,-13.26614,-1.020374
89.08,-3.92466,78.57478,78.3281300000002,0.865715,-0.04539508,0.6893461,-40.07445,-11.22109,-5.028027
89.09,-24.33477,79.5761799999999,74.84776,0.833422,-0.1768677,0.6812595,-40.07445,-11.22109,-5.028027
89.1,-35.59767,84.2886999999997,71.0620900000002,0.8047469,-0.2717735,0.6467205,-40.07445,-11.22109,-5.028027
89.11,-36.90442,84.4654200000001,68.8639599999998,0.7389641,-0.3061985,0.6426165,-40.07445,-11.22109,-5.028027
89.12,-32.73528,84.8777700000002,67.4595899999999,0.6837456,-0.3274482,0.6414632,-40.07445,-11.22109,-5.028027
89.13,-23.15248,80.1652499999998,66.9100600000002,0.6130657,-0.3095351,0.6495228,-39.37085,-8.076123,-8.294976
89.14,-12.8852,71.7416199999998,67.9480699999998,0.5921362,-0.31383,0.6740696,-39.37085,-8.076123,-8.294976
89.15,-7.84489500000003,64.7906499999998,68.6807799999999,0.5723734,-0.2913581,0.7141185,-39.37085,-8.076123,-8.294976
89.16,-8.342702,60.6671900000001,67.5817199999999,0.5829561,-0.3337839,0.7227405,-39.37085,-8.076123,-8.294976
89.17,-7.84489500000003,57.8985899999998,68.8639599999998,0.5767944,-0.336229,0.6720516,-39.37085,-8.076123,-8.294976
89.18,-9.15163899999998,56.13139,69.5356099999997,0.6024857,-0.3758529,0.6565912,-38.29104,-5.652387,-11.16767
89.19,-14.06749,55.12998,69.23032,0.628447,-0.4430993,0.6367291,-38.29104,-5.652387,-11.16767
89.2,-20.85012,56.13139,71.00103,0.6495818,-0.4619928,0.6164759,-38.29104,-5.652387,-11.16767
89.21,-27.5083,55.42451,73.6876300000001,0.6323999,-0.4446872,0.618399,-38.29104,-5.652387,-11.16767
89.22,-34.97541,54.59982,77.9617799999997,0.6287673,-0.4312931,0.6575049,-36.53412,-3.593465,-13.90179
89.23,-40.76242,57.0739,80.9536700000001,0.5983019,-0.3948079,0.6512316,-36.53412,-3.593465,-13.90179
89.24,-43.43814,56.07249,83.0907399999998,0.5508195,-0.358913,0.6478084,-36.53412,-3.593465,-13.90179
89.25,-43.62482,53.77514,81.7474399999998,0.4933302,-0.3509633,0.6664968,-36.53412,-3.593465,-13.90179
89.26,-41.82027,50.35855,81.8084999999999,0.4422967,-0.3556074,0.6784188,-36.53412,-3.593465,-13.90179
89.27,-39.51791,46.94198,78.7555399999997,0.458488,-0.3775495,0.6996455,-35.16362,-0.7957926,-15.95603
89.28,-38.14894,47.05979,76.2521099999998,0.4671801,-0.4276718,0.7150018,-35.16362,-0.7957926,-15.95603
89.29,-35.6599,46.64745,73.9929300000001,0.4673168,-0.446413,0.7294382,-35.16362,-0.7957926,-15.95603
89.3,-35.84658,45.70494,72.7717400000001,0.4734373,-0.4820194,0.7467493,-35.16362,-0.7957926,-15.95603
89.31,-39.45568,47.82558,72.1000900000001,0.5080093,-0.5351377,0.729835,-35.16362,-0.7957926,-15.95603
89.32,-42.00695,52.71482,71.1842000000001,0.5120441,-0.5944115,0.7007651,-33.73882,2.364005,-18.01553
89.33,-42.19362,55.3067,73.5655099999998,0.4804434,-0.6295499,0.6422197,-33.73882,2.364005,-18.01553
89.34,-39.14455,53.53951,76.7405900000003,0.4146242,-0.6460333,0.5889341,-33.73882,2.364005,-18.01553
89.35,-32.85973,51.00653,80.0377899999999,0.3864948,-0.6483424,0.5719674,-33.73882,2.364005,-18.01553
89.36,-21.0368,50.47637,77.29012,0.3587112,-0.5894867,0.5754001,-33.73882,2.364005,-18.01553
89.37,-8.96496200000001,52.47919,71.6116199999999,0.30327,-0.4834462,0.5759676,-32.65864,4.143727,-19.61385
89.38,4.724748,52.77372,65.6278199999997,0.2744071,-0.4629011,0.5715944,-32.65864,4.143727,-19.61385
89.39,16.54768,50.24074,60.7430899999999,0.2315271,-0.4394468,0.5266572,-32.65864,4.143727,-19.61385
89.4,23.95257,43.76102,57.6290700000001,0.2375211,-0.4479039,0.4962539,-32.65864,4.143727,-19.61385
89.41,28.43283,38.04709,55.91941,0.2408272,-0.4306755,0.4721721,-32.65864,4.143727,-19.61385
89.42,31.35745,34.21817,54.02658,0.2227727,-0.3708287,0.4698414,-30.18923,6.934273,-21.65765
89.43,30.79742,32.45097,49.63032,0.1997025,-0.3449457,0.4621167,-30.18923,6.934273,-21.65765
89.44,27.18832,30.97831,44.37923,0.1596445,-0.2792173,0.4867647,-30.18923,6.934273,-21.65765
89.45,21.1524,27.73845,37.90696,0.1218101,-0.2364367,0.4872417,-30.18923,6.934273,-21.65765
89.46,14.05864,22.7903,29.78609,0.08184002,-0.2256003,0.4890921,-30.18923,6.934273,-21.65765
89.47,6.96488200000002,17.01747,24.29077,0.04872961,-0.2261451,0.5107202,-29.09134,7.981741,-23.6866
89.48,-4.23579,9.65415299999999,14.8266,0.05805542,-0.2385627,0.5208511,-29.09134,7.981741,-23.6866
89.49,-14.37862,3.704595,4.629714,0.07739357,-0.2800007,0.5241897,-29.09134,7.981741,-23.6866
89.5,-20.47676,-1.538085,-4.651279,0.08714672,-0.3313462,0.5105931,-29.09134,7.981741,-23.6866
89.51,-22.84135,-8.135614,-13.68804,0.08398387,-0.35233,0.4941332,-29.09134,7.981741,-23.6866
89.52,-21.16125,-17.14831,-23.27432,0.05884033,-0.3642245,0.4848743,-27.69955,8.637259,-23.68395
89.53,-16.68098,-26.0432,-34.14286,0.06429078,-0.3734341,0.4785955,-27.69955,8.637259,-23.68395
89.54,-12.32516,-33.40651,-46.04939,0.07784896,-0.3665881,0.4747848,-27.69955,8.637259,-23.68395
89.55,-10.45838,-38.47247,-56.0631,0.1002971,-0.3709222,0.4579442,-27.69955,8.637259,-23.68395
89.56,-10.14725,-42.71374,-63.0849,0.1278401,-0.4013146,0.444921,-27.69955,8.637259,-23.68395
89.57,-9.96057699999999,-47.13173,-66.0157399999999,0.1654647,-0.4147955,0.4203791,-28.07367,8.653028,-22.86604
89.58,-9.96057699999999,-52.84566,-66.9926799999997,0.2071162,-0.4469916,0.4098012,-28.07367,8.653028,-22.86604
89.59,-9.33831699999998,-58.79522,-66.0768,0.2387267,-0.4528869,0.4262767,-28.07367,8.653028,-22.86604
89.6,-9.77389899999999,-64.45024,-64.4282,0.2703947,-0.4650687,0.4432214,-28.07367,8.653028,-22.86604
89.61,-10.14725,-69.3394899999998,-63.9397299999998,0.3054922,-0.4820017,0.4669204,-28.07367,8.653028,-22.86604
89.62,-10.14725,-73.4040400000001,-64.0618399999997,0.3356554,-0.4963865,0.508949,-30.20634,7.665496,-21.29022
