Time (s),Gyroscope X (deg/s),Gyroscope Y (deg/s),Gyroscope Z (deg/s),Accelerometer X (g),Accelerometer Y (g),Accelerometer Z (g),Magnetometer X (uT),Magnetometer Y (uT),Magnetometer Z (uT)
68.687392712,1.000496,0.651661099999999,0.1174866,0.9791796,-0.08416256,-0.1578003,-30.37649,-26.68441,14.20782
68.697525501,1.000496,0.3571285,0.05642748,0.9786906,-0.08509475,-0.1534606,-30.37649,-26.68441,14.20782
68.707657337,1.062722,0.4749416,-0.12675,0.9781265,-0.07827555,-0.1481394,-30.00343,-27.0493,14.21714
68.717789173,1.124948,0.2393155,0.05642748,0.9757114,-0.08022141,-0.1471847,-30.00343,-27.0493,14.21714
68.727921963,0.938269699999998,0.2393155,0.1785458,0.9732633,-0.07877549,-0.1457403,-30.00343,-27.0493,14.21714
68.738053799,1.124948,0.180409,-0.0656908599999999,0.9737651,-0.07976144,-0.1481538,-30.00343,-27.0493,14.21714
68.748186111,1.124948,0.2393155,0.1174866,0.9776685,-0.07977928,-0.1534518,-30.00343,-27.0493,14.21714
68.758317947,1.062722,0.2393155,0.05642748,0.9752202,-0.07927053,-0.1486316,-30.3807,-26.67719,14.65011
68.768450737,0.938269699999998,0.2393155,0.05642748,0.9786493,-0.08261383,-0.1466997,-30.3807,-26.67719,14.65011
68.778582573,0.876043699999997,0.180409,-0.004631694,0.9781621,-0.0816761,-0.1495942,-30.3807,-26.67719,14.65011
68.788714409,0.689365900000001,0.298222,-0.12675,0.9766858,-0.07975181,-0.1495939,-30.3807,-26.67719,14.65011
68.798847198,0.689365900000001,0.298222,0.1174866,0.9796364,-0.08406237,-0.1471828,-30.37394,-27.03972,14.65594
68.808979034,0.502688,0.3571285,-0.0656908599999999,0.9801289,-0.08501764,-0.1462185,-30.37394,-27.03972,14.65594
68.81911087,0.5649139,0.4749416,-0.0656908599999999,0.9767297,-0.08458658,-0.1491217,-30.37394,-27.03972,14.65594
68.82924366,0.751591799999999,0.298222,0.1785458,0.9796617,-0.08649071,-0.1481531,-30.37394,-27.03972,14.65594
68.839375496,0.876043699999997,0.416035,0.05642748,0.9811029,-0.08314013,-0.1534502,-30.37394,-27.03972,14.65594
68.849507809,0.813817700000003,0.533848,0.239605,0.9782098,-0.08746115,-0.1471938,-30.36044,-27.76476,14.66761
68.859640121,0.813817700000003,0.298222,-0.12675,0.9810979,-0.08453052,-0.1466975,-30.36044,-27.76476,14.66761
68.867238998,0.689365900000001,0.3571285,-0.12675,0.9806212,-0.08456498,-0.1500767,-30.36044,-27.76476,14.66761
68.877371788,0.813817700000003,0.180409,-0.12675,0.9815491,-0.08065979,-0.1471706,-30.36044,-27.76476,14.66761
68.887503624,0.876043699999997,0.416035,0.1174866,0.9791083,-0.07970655,-0.1466923,-30.36044,-27.76476,14.66761
68.89763546,0.751591799999999,0.7694741,0.1785458,0.9805826,-0.08209284,-0.1442809,-30.36044,-27.76476,14.66761
68.907767296,0.876043699999997,0.651661099999999,0.05642748,0.9771522,-0.07874513,-0.1457302,-30.36044,-27.76476,14.66761
68.917900085,0.938269699999998,0.533848,0.1174866,0.9737862,-0.08311379,-0.1443006,-30.36044,-27.76476,14.66761
68.928031921,0.627139900000001,0.651661099999999,-0.004631694,0.9776795,-0.08356734,-0.1442915,-30.36044,-27.76476,14.66761
68.938164234,0.4404621,0.533848,0.1174866,0.9771519,-0.07968229,-0.1423543,-30.36044,-27.76476,14.66761
68.948296547,0.5649139,0.4749416,0.1785458,0.9820234,-0.08061657,-0.1428263,-29.99983,-27.05548,13.83803
68.95842886,0.3160101,0.710567600000002,0.1174866,0.9776805,-0.0821638,-0.1495965,-29.99983,-27.05548,13.83803
68.968560696,0.3160101,0.651661099999999,0.1785458,0.9766669,-0.07828255,-0.1476606,-29.99983,-27.05548,13.83803
68.978693485,0.0671063599999999,0.4749416,0.239605,0.9790949,-0.07731766,-0.150065,-29.99983,-27.05548,13.83803
68.988825321,-0.0573455499999998,0.592754600000001,0.05642748,0.9771618,-0.08018374,-0.1442856,-29.99983,-27.05548,13.83803
68.998957157,0.004880406,0.4749416,0.05642748,0.9786156,-0.07968844,-0.1442808,-30.7428,-26.68203,14.20434
69.00908947,-0.0573455499999998,0.3571285,0.1174866,0.9844304,-0.07629933,-0.149084,-30.7428,-26.68203,14.20434
69.019221783,-0.0573455499999998,0.592754600000001,0.3006641,0.9791429,-0.08451065,-0.1428421,-30.7428,-26.68203,14.20434
69.029354095,-0.2440234,0.533848,0.4227825,0.9800706,-0.07919753,-0.1447585,-30.7428,-26.68203,14.20434
69.039485931,-0.2440234,0.7694741,0.1785458,0.9776899,-0.08453956,-0.1447761,-30.7428,-26.68203,14.20434
69.049618721,-0.3062494,0.828380599999998,0.239605,0.9786105,-0.07873375,-0.1457264,-30.72929,-27.40707,14.21601
69.057217121,-0.3062494,0.7694741,0.1785458,0.9796225,-0.08354779,-0.1438039,-30.72929,-27.40707,14.21601
69.067349911,-0.2440234,0.7694741,0.1785458,0.9825137,-0.07968876,-0.1476486,-30.72929,-27.40707,14.21601
69.077481747,-0.2440234,0.946193599999999,0.1785458,0.9786528,-0.08215621,-0.149594,-30.72929,-27.40707,14.21601
69.087613583,-0.3062494,0.887287100000001,0.1174866,0.9747676,-0.08313687,-0.1476759,-30.72929,-27.40707,14.21601
69.097746372,-0.4307013,0.828380599999998,0.1785458,0.9805807,-0.08161768,-0.145245,-30.37394,-27.03972,14.65594
69.107878208,-0.3061532,0.592531399999998,0.05637138,0.9796265,-0.08356093,-0.1452516,-30.37394,-27.03972,14.65594
69.118010521,-0.1191494,0.6506196,0.2393439,0.9815146,-0.07820079,-0.1428224,-30.37394,-27.03972,14.65594
69.128142357,-0.1812257,0.649857900000002,0.1780608,0.9810782,-0.08118255,-0.1510333,-30.37394,-27.03972,14.65594
69.138275147,-0.2432826,0.8846307,0.1779138,0.9801134,-0.08309075,-0.1471795,-30.37394,-27.03972,14.65594
69.148406982,-0.05635781,0.883408600000001,0.05553368,0.9748124,-0.08750524,-0.1491329,-30.01019,-26.68678,14.2113
69.158538818,0.00599756500000002,0.823374000000001,0.05542558,0.9757426,-0.08548312,-0.1404403,-30.01019,-26.68678,14.2113
69.168671608,0.00604865700000002,0.763414700000003,0.177551,0.9806204,-0.08737645,-0.1399492,-30.01019,-26.68678,14.2113
69.178803444,-0.2426478,0.4680343,-0.005676948,0.9771854,-0.08354484,-0.1413975,-30.01019,-26.68678,14.2113
69.18893528,-0.615483800000001,0.4674094,0.1773926,0.9791474,-0.08499456,-0.1428432,-30.01019,-26.68678,14.2113
69.19906807,-0.5525042,0.5844874,-0.00596933799999998,0.9767028,-0.08309102,-0.144293,-30.37649,-26.68441,14.20782
69.209199905,-0.4895648,0.642715299999999,0.4212222,0.9776829,-0.08310972,-0.1471858,-30.37649,-26.68441,14.20782
69.219332218,-0.4267434,0.524206,0.1765715,0.9757487,-0.08503427,-0.1442997,-30.37649,-26.68441,14.20782
69.229464531,-0.1775186,0.4646965,0.3594889,0.9762502,-0.08695737,-0.1433374,-30.37649,-26.68441,14.20782
69.239596844,-0.2395216,0.5819629,0.1760516,0.9781177,-0.07871564,-0.1433149,-30.37649,-26.68441,14.20782
69.247196198,-0.05269626,0.463694,0.2979657,0.97859,-0.07819726,-0.1399347,-30.37649,-26.68441,14.20782
69.257328034,-0.3635449,0.4042051,0.4808265,0.979104,-0.08063056,-0.1418688,-30.37649,-26.68441,14.20782
69.267459869,-0.674139899999999,0.756970000000001,0.1141552,0.982515,-0.08203822,-0.1399328,-30.37649,-26.68441,14.20782
69.277591705,-0.3000742,0.873795200000003,0.05287595,0.9825331,-0.08397388,-0.1399369,-30.37649,-26.68441,14.20782
69.287724495,-0.1752063,1.108342,0.2358336,0.9786499,-0.08308461,-0.1452531,-30.37649,-26.68441,14.20782
69.297856331,0.01167211,1.048303,-0.00868007500000001,0.9786672,-0.08548664,-0.143328,-30.00764,-27.04209,14.65942
69.307988644,-0.2994332,0.811600400000001,0.05242836,0.9791472,-0.08593172,-0.1394673,-30.00764,-27.04209,14.65942
69.318120956,0.1362314,0.633880000000002,-0.008677479,0.97864,-0.08258316,-0.1433218,-30.00764,-27.04209,14.65942
69.328253269,0.0739320400000001,0.927209300000002,0.05231587,0.9771814,-0.0835317,-0.1399498,-30.00764,-27.04209,14.65942
69.338385105,-0.1126823,1.220522,0.05223099,0.9781941,-0.08647142,-0.144779,-30.00764,-27.04209,14.65942
69.348517895,0.01187204,1.101157,0.05222291,0.9786523,-0.08403052,-0.1428424,-29.99668,-27.41182,14.22297
69.358649731,0.4473215,0.864185100000003,0.1742757,0.9796245,-0.08402294,-0.1428398,-29.99668,-27.41182,14.22297
69.368781567,0.633378800000002,0.627566100000001,-0.00898647299999998,0.9786757,-0.08598371,-0.1447767,-29.99668,-27.41182,14.22297
69.378913879,0.694906900000001,0.5678529,-0.00895600399999999,0.9781648,-0.08402994,-0.1423611,-29.99668,-27.41182,14.22297
69.389046192,0.756318699999998,0.1549235,-0.00898310200000002,0.9781512,-0.08257819,-0.142358,-30.01019,-26.68678,14.2113
69.399178505,0.5064454,0.4490765,-0.00897180999999997,0.978643,-0.08399985,-0.1394645,-30.01019,-26.68678,14.2113
69.409310341,0.5680547,0.3307734,-0.00896053400000003,0.9820531,-0.08352882,-0.1437976,-30.01019,-26.68678,14.2113
69.419443131,0.6917737,0.27147,-0.0699892600000002,0.9766881,-0.08304282,-0.1389849,-30.01019,-26.68678,14.2113
69.429574967,0.5043637,0.447793,-0.0698629800000001,0.9806516,-0.09029308,-0.141403,-30.01019,-26.68678,14.2113
69.43717432,0.877107300000002,0.4474081,-0.06972043,0.9810718,-0.08256857,-0.1437981,-30.00343,-27.0493,14.21714
69.447306156,0.813936099999999,0.3880321,-0.1306537,0.9786209,-0.08205105,-0.1380127,-30.00343,-27.0493,14.21714
69.457437992,0.937326600000001,0.5053393,-0.2526846,0.9795835,-0.08060487,-0.1394548,-30.00343,-27.0493,14.21714
69.467570782,0.6873236,0.622536100000002,-0.0693431,0.9825389,-0.08446217,-0.1404205,-30.00343,-27.0493,14.21714
69.477702618,0.8109513,0.5040706,-0.1303152,0.9805994,-0.08636919,-0.1356041,-30.00343,-27.0493,14.21714
69.487834931,0.809932700000001,0.3856799,0.1139509,0.9810597,-0.08346629,-0.1360793,-30.73605,-27.04455,14.21018
69.497966766,0.622374299999997,0.326141,-0.00819546400000003,0.981074,-0.08445165,-0.1380115,-30.73605,-27.04455,14.21018
69.508099556,0.5593471,0.620153,-0.06924434,0.9839829,-0.08346544,-0.1384845,-30.73605,-27.04455,14.21018
69.518231392,0.5586641,0.619466500000003,-0.0691381999999998,0.9762185,-0.08356997,-0.1433302,-30.73605,-27.04455,14.21018
69.528363228,0.4334714,0.5010234,-0.1911314,0.9829796,-0.08055639,-0.1370331,-30.73605,-27.04455,14.21018
69.538496018,0.5572811,0.2648975,-0.0688304899999999,0.9752274,-0.08210828,-0.1413994,-30.01439,-26.67957,14.65359
69.548627854,0.743200400000002,0.2055472,-0.1298224,0.9776103,-0.07864933,-0.1355953,-30.01439,-26.67957,14.65359
69.558759689,0.742403699999999,0.4995996,-0.0686001599999998,0.9820262,-0.08203326,-0.138969,-30.01439,-26.67957,14.65359
69.568892479,0.679362500000001,0.263494,-0.1295923,0.9810365,-0.08057595,-0.1375207,-30.01439,-26.67957,14.65359
69.579024315,0.616244100000001,0.4987337,-0.0684471,0.9776891,-0.08500595,-0.1428469,-30.01439,-26.67957,14.65359
69.589156628,0.615470100000003,0.3804792,0.1148739,0.9781252,-0.08061625,-0.1394586,-30.37649,-26.68441,14.20782
69.59928894,0.6147557,0.3799643,-0.1904128,0.9805374,-0.07959877,-0.1360723,-30.37649,-26.68441,14.20782
69.609421253,0.676229100000001,0.2617295,-0.1901352,0.9757133,-0.08304165,-0.1380223,-30.37649,-26.68441,14.20782
69.619553089,0.426554,0.3203813,-0.1289332,0.9766908,-0.08305158,-0.13995,-30.37649,-26.68441,14.20782
69.627152443,0.737125500000002,0.1434154,-0.2509492,0.9771699,-0.08161795,-0.1423585,-30.37649,-26.68441,14.20782
69.637284279,0.674051900000002,0.2021603,-0.1286307,0.9747786,-0.08692493,-0.1385156,-30.01124,-27.03591,15.03852
69.647416592,0.4243601,-0.03362722,-0.0675441900000001,0.9825395,-0.08493295,-0.1389739,-30.01124,-27.03591,15.03852
69.657548904,0.175021,0.02524752,-0.00640019000000001,0.9834728,-0.08104528,-0.137998,-30.01124,-27.03591,15.03852
69.667681217,0.4236463,-0.03374619,-0.006334633,0.9810575,-0.08158322,-0.1418658,-30.01124,-27.03591,15.03852
69.677813053,0.1743081,-0.1515723,-0.2504866,0.9800677,-0.08012592,-0.1404176,-30.01124,-27.03591,15.03852
69.687945843,0.4850821,-0.1514744,-0.1891896,0.9820276,-0.08203764,-0.1394515,-30.36613,-27.05311,13.83455
69.698077679,0.2356863,-0.1513582,-0.00594699800000001,0.9796295,-0.08497762,-0.1413942,-30.36613,-27.05311,13.83455
69.708209515,0.4218336,0.02545895,-0.0669027999999999,0.9815367,-0.08249467,-0.1360759,-30.36613,-27.05311,13.83455
69.718342304,0.4212842,0.143129,-0.0668762799999998,0.9790947,-0.0805999,-0.1384909,-30.36613,-27.05311,13.83455
69.72847414,0.2961664,0.1430232,0.1163469,0.975687,-0.07967177,-0.1399453,-30.36613,-27.05311,13.83455
69.738605976,0.1713425,0.2017131,0.05519908,0.9815611,-0.08304432,-0.1433153,-30.01799,-26.67339,15.03269
69.748738766,0.1088036,0.2603662,0.05512978,0.9825086,-0.08107916,-0.1408959,-30.01799,-26.67339,15.03269
69.758870602,0.1708734,0.1421707,-0.00599860000000001,0.9790441,-0.07574322,-0.1365504,-30.01799,-26.67339,15.03269
69.769002914,-0.2025797,0.3185082,-0.0671652600000002,0.9800259,-0.07717424,-0.1351033,-30.01799,-26.67339,15.03269
69.77913475,-0.2023448,0.3181266,0.1161349,0.9790934,-0.08059551,-0.1380084,-30.01799,-26.67339,15.03269
69.78926754,-0.1398257,0.376689,-0.1281133,0.9820342,-0.08205955,-0.1418643,-30.36974,-27.04693,14.21366
69.799399376,0.2335884,0.1407194,0.1161883,0.9790937,-0.07965835,-0.1413842,-30.36974,-27.04693,14.21366
69.809531212,0.1090972,0.1404871,0.0550983,0.9858941,-0.07865055,-0.1428121,-30.36974,-27.04693,14.21366
69.819664001,-0.0775614,0.3757332,0.1771858,0.978677,-0.08598809,-0.1452593,-30.36974,-27.04693,14.21366
69.827262402,-0.2641271,0.1397716,-0.06717948,0.978148,-0.08209867,-0.1428395,-30.36974,-27.04693,14.21366
69.837395191,-0.2015498,0.0806895600000002,-0.1893285,0.9737872,-0.08405532,-0.1414073,-30.01019,-26.68678,14.2113
69.847527027,-0.5122505,-0.2137963,-0.1282425,0.9747632,-0.08499803,-0.1394766,-30.01019,-26.68678,14.2113
69.85765934,-0.573774400000003,-0.0955112400000001,-0.1281006,0.9761565,-0.07914463,-0.1356001,-30.01019,-26.68678,14.2113
69.867791653,-0.821723000000002,-0.3895723,0.0551803,0.9800155,-0.07620203,-0.1346187,-30.01019,-26.68678,14.2113
69.877923965,-1.007154,-0.212345,0.05505349,0.9781031,-0.07866744,-0.1380068,-30.01019,-26.68678,14.2113
69.888055801,-0.881417400000002,-0.0941542400000002,0.2991059,0.9776412,-0.08015803,-0.1418716,-30.36974,-27.04693,14.21366
69.898187637,-0.880192999999997,-0.3884021,0.1767845,0.9800935,-0.08302503,-0.1399412,-30.36974,-27.04693,14.21366
69.908320427,-0.6924682,-0.1525287,0.4209142,0.9805882,-0.08351828,-0.1413886,-30.36974,-27.04693,14.21366
69.918452263,-0.629411599999998,-0.1523556,-0.0679535600000001,0.9766746,-0.08159108,-0.1389818,-30.36974,-27.04693,14.21366
69.928584576,-0.628621000000002,-0.2111447,0.1761384,0.9791629,-0.08692145,-0.1418822,-30.36974,-27.04693,14.21366
69.938716888,-0.627850999999999,-0.269897,0.05379879,0.9849977,-0.08828822,-0.1375271,-30.00089,-27.40461,14.66526
69.948849201,-0.8135839,0.08377004,0.1146753,0.9830171,-0.08443209,-0.1375239,-30.00089,-27.40461,14.66526
69.958981037,-0.688129699999999,-0.0340002,0.1754562,0.9810681,-0.08396335,-0.1375279,-30.00089,-27.40461,14.66526
69.969113827,-0.5006461,-0.0927530100000003,0.1751975,0.9800611,-0.08010401,-0.1380048,-30.00089,-27.40461,14.66526
69.979245663,-0.4999782,-0.0926919999999998,0.2971341,0.9825235,-0.08253527,-0.1413815,-30.00343,-27.0493,14.21714
69.989377499,-0.3748982,-0.3871266,0.1137752,0.9800541,-0.07867417,-0.1404145,-30.00343,-27.0493,14.21714
69.999510288,-0.5609293,-0.2102724,-0.0694876900000001,0.9819912,-0.07910348,-0.1360675,-30.00343,-27.0493,14.21714
70.009642124,-0.6221967,0.0255993,0.05264124,0.9761909,-0.08254079,-0.1365724,-30.00343,-27.0493,14.21714
70.017241478,-0.870397000000001,0.1433327,0.1136316,0.9762151,-0.08402759,-0.1404359,-30.00343,-27.0493,14.21714
70.027373314,-0.931529699999999,0.0843756600000001,0.1135081,0.9820353,-0.08300109,-0.138971,-30.00343,-27.0493,14.21714
70.037505627,-0.805868699999998,-0.03350635,0.05221046,0.9791168,-0.08254869,-0.1399427,-30.00764,-27.04209,14.65942
70.047637463,-0.867062899999998,0.0841267300000001,0.2351881,0.976721,-0.08737175,-0.1360989,-30.00764,-27.04209,14.65942
70.057770252,-0.4306267,-0.210382,0.05167687,0.9806066,-0.08451679,-0.1447686,-30.00764,-27.04209,14.65942
70.067902088,-0.4301053,-0.2691537,0.112652,0.9815726,-0.08495806,-0.1409066,-30.00764,-27.04209,14.65942
70.078033924,-0.554017,-0.1510582,0.0514513,0.9815726,-0.08495806,-0.1409066,-29.63713,-27.05168,14.22062
70.088166714,-0.3045346,-0.2097749,0.234545,0.9815758,-0.08543759,-0.1404251,-29.63713,-27.05168,14.22062
70.09829855,-0.490654,-0.1505679,0.173383,0.9805797,-0.08302123,-0.1399399,-29.63713,-27.05168,14.22062
70.108430386,-0.3655858,-0.4447263,0.05123865,0.9800736,-0.08061422,-0.1409011,-29.63713,-27.05168,14.22062
70.118563175,-0.4896176,-0.3853167,-0.01005746,0.9805908,-0.08352704,-0.1423537,-29.63713,-27.05168,14.22062
70.128695011,-0.1158033,-0.3849252,0.1120735,0.9786081,-0.08013292,-0.1399388,-30.37289,-26.69059,13.82872
70.138827324,-0.1778252,-0.2667397,0.1119903,0.9834883,-0.08297218,-0.137037,-30.37289,-26.69059,13.82872
70.148959637,-0.1775823,-0.0897036400000002,0.05098222,0.9830315,-0.08541744,-0.1394562,-30.37289,-26.69059,13.82872
70.159091949,-0.4262045,-0.0896094600000001,0.1119582,0.9810681,-0.08396335,-0.1375279,-30.37289,-26.69059,13.82872
70.169223785,-0.1145785,-0.0895894400000001,-0.01020493,0.9771814,-0.0835317,-0.1399498,-30.37289,-26.69059,13.82872
70.179355621,-0.1766019,-0.266215,0.1118112,0.9805781,-0.08160892,-0.1442798,-30.37649,-26.68441,14.20782
70.189488411,0.01025872,-0.0892720699999997,0.05078414,0.9805895,-0.08352266,-0.1418712,-30.37649,-26.68441,14.20782
70.199620247,0.0725108800000002,-0.206862,0.2338978,0.9761823,-0.07969865,-0.143322,-30.37649,-26.68441,14.20782
70.207219601,0.1969336,-0.3244986,0.1116742,0.9776704,-0.08259951,-0.1442895,-30.37649,-26.68441,14.20782
70.217351437,0.1344407,-0.2652955,0.1726506,0.9829767,-0.07913971,-0.1408905,-30.37649,-26.68441,14.20782
70.227483749,0.00983946399999998,-0.4417929,0.2945329,0.9800964,-0.08209664,-0.1442821,-30.36299,-27.40945,14.21949
70.237616062,0.1342204,-0.5000519,-0.1331362,0.9786174,-0.08016359,-0.1433167,-30.36299,-27.40945,14.21949
70.247748375,-0.1146175,-0.5581268,-0.01094649,0.973725,-0.07822207,-0.1384996,-30.36299,-27.40945,14.21949
70.257880211,-0.05220852,-0.5574443,0.172168,0.9776598,-0.08256446,-0.140429,-30.36299,-27.40945,14.21949
70.268013001,0.0722698699999998,-0.6155952,0.1110077,0.9805759,-0.08207092,-0.1418681,-30.36299,-27.40945,14.21949
70.278144836,0.00987496199999998,-0.5559524,0.04982828,0.9766911,-0.08211443,-0.1433259,-30.01019,-26.68678,14.2113
70.288276672,0.2585514,-0.672919199999998,0.1718265,0.978204,-0.08697286,-0.1467102,-30.01019,-26.68678,14.2113
70.298409462,0.1960593,-0.672036900000001,-0.01150924,0.9811417,-0.09030244,-0.1428494,-30.01019,-26.68678,14.2113
70.308541298,0.195813,-0.730136300000002,0.04939182,0.9795991,-0.0815946,-0.1418696,-30.01019,-26.68678,14.2113
70.318673611,0.0711151999999999,-0.4347792,0.04925307,0.9810708,-0.08162703,-0.1466914,-30.01019,-26.68678,14.2113
70.328805447,0.3199101,-0.728543600000002,0.04911453,0.9790865,-0.07916568,-0.1404181,-30.36299,-27.40945,14.21949
70.338938236,0.2574778,-0.609871100000001,0.1100737,0.9839754,-0.08156484,-0.1423408,-30.36299,-27.40945,14.21949
70.349070072,0.3193803,-0.550254,-0.01204869,0.9796205,-0.08400979,-0.1413922,-30.36299,-27.40945,14.21949
70.359201908,0.5055593,-0.3728804,0.1101231,0.9800916,-0.08254987,-0.1409053,-30.36299,-27.40945,14.21949
70.369334698,0.5671112,-0.5490205,0.1100615,0.9766825,-0.08161736,-0.1418772,-30.36299,-27.40945,14.21949
70.379466534,0.5663793,-0.4305734,0.1100767,0.9815699,-0.0849493,-0.1399415,-29.99983,-27.05548,13.83803
70.38959837,0.5657461,-0.3121456,0.04895599,0.9791317,-0.08400482,-0.1404283,-29.99983,-27.05548,13.83803
70.397197723,0.5030457,-0.370758,0.1100074,0.9820654,-0.08497618,-0.1433181,-29.99983,-27.05548,13.83803
70.407330036,0.3779425,-0.4291804,0.2320642,0.979614,-0.08305073,-0.1423552,-29.99983,-27.05548,13.83803
70.417462349,0.3775264,-0.4286043,0.170982,0.981086,-0.08449108,-0.1423545,-29.99983,-27.05548,13.83803
70.427594662,0.2527176,-0.4281214,0.1709015,0.9757252,-0.08308108,-0.1423653,-30.02114,-26.31705,14.64775
70.437726498,0.3767739,-0.4864902,-0.0734731200000002,0.9757228,-0.08213516,-0.144776,-30.02114,-26.31705,14.64775
70.447859287,0.687313099999998,-0.4269171,0.1096049,0.9761924,-0.08160802,-0.1404308,-30.02114,-26.31705,14.64775
70.457991123,0.4375265,-0.4851393,-0.1957519,0.9732779,-0.07882369,-0.1510484,-30.02114,-26.31705,14.64775
70.468122959,0.561253,-0.602176499999998,-0.01259703,0.9752067,-0.08016386,-0.1404302,-30.02114,-26.31705,14.64775
70.478255272,0.4983221,-1.072561,-0.134642,0.9781507,-0.08210743,-0.1438046,-30.35624,-27.77197,14.22532
70.488387585,0.3110965,-0.835846999999998,-0.0736054600000003,0.9805568,-0.07919373,-0.1447573,-30.35624,-27.77197,14.22532
70.498519421,0.1240279,-0.5403016,-0.07374312,0.9830245,-0.08398761,-0.1418659,-30.35624,-27.77197,14.22532
70.508651734,0.3104522,-0.5985295,0.1094311,0.9781603,-0.08354602,-0.14236,-30.35624,-27.77197,14.22532
70.518784046,0.4344946,-0.3033561,-0.1348855,0.9800812,-0.08157767,-0.1404207,-30.35624,-27.77197,14.22532
70.528916359,0.3717425,-0.3029566,0.1704647,0.9752167,-0.08207323,-0.137539,-30.37649,-26.68441,14.20782
70.539048195,0.4335992,-0.596831099999998,0.04840077,0.9796303,-0.08451124,-0.1433234,-30.37649,-26.68441,14.20782
70.549180985,-0.1890095,-0.890503000000002,-0.0736632899999998,0.9810418,-0.08059348,-0.139451,-30.37649,-26.68441,14.20782
70.559312821,-0.4999018,-0.889458500000001,0.04849003,0.9805642,-0.08109433,-0.1409009,-30.37649,-26.68441,14.20782
70.569444657,-0.3127134,-0.652881799999999,0.04840996,0.9824899,-0.07867272,-0.1423384,-30.37394,-27.03972,14.65594
70.579577446,-0.3744293,-0.593155299999999,-0.1349242,0.9814807,-0.0752754,-0.1404035,-30.37394,-27.03972,14.65594
70.587176323,-0.4362243,-0.710427899999999,0.1093053,0.9805549,-0.07871857,-0.1457213,-30.37394,-27.03972,14.65594
70.597308636,-0.3733918,-0.650740100000003,0.2923071,0.9830381,-0.08543935,-0.141869,-30.37394,-27.03972,14.65594
70.607440948,-0.4972965,-0.4733512,0.1700709,0.9806105,-0.08452993,-0.1462162,-30.37394,-27.03972,14.65594
70.617572784,-0.0612269899999998,-0.4727381,-0.01326264,0.9815702,-0.08401214,-0.1433173,-30.37394,-27.03972,14.65594
70.627705574,-0.1855434,-0.4721813,0.1087381,0.9820707,-0.08499371,-0.1452484,-30.36404,-27.75858,15.04671
70.63783741,-0.1853299,-0.1771482,0.230624,0.9796441,-0.08502582,-0.1467023,-30.36404,-27.75858,15.04671
70.647969246,-0.247323,-0.3535343,0.2303343,0.9771902,-0.08309161,-0.1447743,-30.36404,-27.75858,15.04671
70.658101082,-0.0604713000000002,-0.1764632,-0.01413415,0.9781677,-0.08310155,-0.146702,-30.36404,-27.75858,15.04671
70.668233871,0.0639979500000003,-0.2940731,0.04692361,0.9849513,-0.08016247,-0.1486084,-30.01439,-26.67957,14.65359
70.678365707,-0.0603975400000002,-0.0582256599999999,-0.01413698,0.9796031,-0.07926267,-0.1515156,-30.01439,-26.67957,14.65359
70.68849802,0.001884732,-0.2347981,-0.0751592399999998,0.9825624,-0.08407027,-0.1505531,-30.01439,-26.67957,14.65359
70.698630333,-0.0603240700000002,-0.1755411,-0.0751031800000003,0.9776957,-0.08502785,-0.1452597,-30.01439,-26.67957,14.65359
70.708762646,0.1262536,-0.1754131,-0.01396886,0.9713338,-0.08024679,-0.146231,-30.01439,-26.67957,14.65359
70.718894482,0.1260951,-0.2929133,0.1692453,0.971387,-0.08511223,-0.1491366,-30.37394,-27.03972,14.65594
70.729027271,0.1259171,-0.41034,0.1080887,0.9757361,-0.08217898,-0.1496016,-30.37394,-27.03972,14.65594
70.739159107,0.001267992,-0.527508,-0.1362262,0.9733232,-0.08366283,-0.1510586,-30.37394,-27.03972,14.65594
70.749290943,-0.2475592,-0.585733400000003,0.1080665,0.9781509,-0.08117027,-0.1471805,-30.37394,-27.03972,14.65594
70.759423733,-0.620428099999998,-0.644015299999998,-0.01418759,0.9767219,-0.08362313,-0.1496021,-30.37394,-27.03972,14.65594
70.769555569,-0.868513599999999,-0.702149800000001,0.1079485,0.9810798,-0.08259486,-0.1466934,-30.37755,-27.03354,15.03504
70.777154922,-0.992166699999999,-0.878115300000002,0.1077893,0.9800519,-0.0767911,-0.146201,-30.37755,-27.03354,15.03504
70.787286758,-1.115333,-0.641589799999999,0.1687131,0.9776524,-0.08066386,-0.1442854,-30.37755,-27.03354,15.03504
70.797419071,-1.11403,-0.640802399999999,0.2295795,0.9805698,-0.0801747,-0.146207,-30.37755,-27.03354,15.03504
70.807551384,-0.863805199999999,-0.5222585,0.1071536,0.9781414,-0.08207676,-0.1404267,-30.37755,-27.03354,15.03504
70.817683697,-0.862622599999998,-0.4038636,0.1070382,0.9771609,-0.08065012,-0.1423564,-30.00343,-27.0493,14.21714
70.827815533,-0.923706399999997,-0.3445423,0.04603641,0.9733258,-0.08601668,-0.1438255,-30.00343,-27.0493,14.21714
70.837947369,-1.109146,-0.108576,0.04586355,0.9791285,-0.08118021,-0.1491082,-30.00343,-27.0493,14.21714
70.848080158,-1.107811,-0.2850112,0.10675,0.9796406,-0.08313836,-0.1520063,-30.00343,-27.0493,14.21714
70.858211994,-1.293098,-0.2257467,0.1066351,0.9738277,-0.08700262,-0.146239,-30.00343,-27.0493,14.21714
70.868344307,-1.1671,-0.2843696,0.04546123,0.9810953,-0.08452176,-0.1457324,-30.00343,-27.0493,14.21714
70.87847662,-0.9790537,-0.460732,0.1064633,0.9791679,-0.08553105,-0.1486349,-30.00343,-27.0493,14.21714
70.888608932,-0.977902200000001,-0.1658797,0.04530878,0.9791823,-0.0865164,-0.1505671,-30.00343,-27.0493,14.21714
70.898740768,-0.665719999999997,-0.3424094,0.04529023,0.9830834,-0.08793341,-0.1500776,-30.00343,-27.0493,14.21714
70.908873558,-0.664883899999998,-0.1065013,-0.015845,0.9820347,-0.08018523,-0.148616,-30.00343,-27.0493,14.21714
70.919005394,-0.4775076,-0.2240325,-0.01584429,0.9748097,-0.08749647,-0.1481678,-30.72569,-27.41326,13.83691
70.92913723,-0.2904254,-0.0471241,-0.01582436,0.98206,-0.08261357,-0.1495862,-30.72569,-27.41326,13.83691
70.93927002,-0.1034805,-0.04712041,-0.2600411,0.9767483,-0.086993,-0.1476791,-30.72569,-27.41326,13.83691
70.949401855,0.3322507,-0.04713523,-0.2599255,0.9748491,-0.08950223,-0.1558928,-30.72569,-27.41326,13.83691
70.959533691,0.2696856,-0.1060196,-0.1376724,0.9748245,-0.08660751,-0.1568517,-30.72569,-27.41326,13.83691
70.969666004,0.3937597,-0.04699841,-0.01543872,0.9758049,-0.0889713,-0.1515462,-30.00343,-27.0493,14.21714
70.977265358,0.2067304,-0.0467691,-0.2596225,0.9772591,-0.08660169,-0.1582931,-30.00343,-27.0493,14.21714
70.987397671,0.3308053,0.01223318,-0.1373506,0.974798,-0.08651987,-0.1472006,-30.00343,-27.0493,14.21714
70.997529984,0.3925572,-0.1644092,0.04590348,0.9757069,-0.07973749,-0.1471837,-30.00343,-27.0493,14.21714
71.007661819,0.2676317,-0.2821637,-0.1981224,0.9781621,-0.0816761,-0.1495942,-30.00343,-27.0493,14.21714
71.017793655,0.3916302,-0.2819203,-0.1367952,0.9796154,-0.08071002,-0.1510361,-30.37394,-27.03972,14.65594
71.027926445,0.577679300000001,-0.1050132,-0.3197242,0.9762683,-0.08654793,-0.1515398,-30.37394,-27.03972,14.65594
71.038058281,0.887946699999998,-0.2226204,-0.2583785,0.9762406,-0.08317369,-0.1529803,-30.37394,-27.03972,14.65594
71.048190117,1.011225,-0.0456767,0.04714599,0.9830649,-0.08458983,-0.1548959,-30.37394,-27.03972,14.65594
71.058322907,0.947767700000002,-0.2223388,0.1082226,0.9810863,-0.08355393,-0.1457304,-30.37394,-27.03972,14.65594
71.068454742,1.195266,0.0722880100000002,0.1082593,0.9825285,-0.08114488,-0.1481342,-30.00343,-27.0493,14.21714
71.078587055,1.069391,0.0721601999999999,-0.01386076,0.9776805,-0.0821638,-0.1495965,-30.00343,-27.0493,14.21714
71.088719368,0.943791399999999,-0.04570647,-0.1359233,0.9791322,-0.08213051,-0.14718,-30.00343,-27.0493,14.21714
71.098851681,0.818232199999997,0.1898845,-0.1968501,0.9805232,-0.07533118,-0.1457141,-30.00343,-27.0493,14.21714
71.108983517,0.941578200000002,0.248608,-0.1356204,0.9801006,-0.08117262,-0.1491056,-30.00343,-27.0493,14.21714
71.119116306,1.064887,0.1304642,0.1697499,0.9810684,-0.08068112,-0.1491021,-30.37649,-26.68441,14.20782
71.129248142,1.374679,0.2481504,0.1697093,0.9752553,-0.0822003,-0.1515331,-30.37649,-26.68441,14.20782
71.139379978,1.372972,0.1890802,0.047397,0.9762545,-0.08603336,-0.1481609,-30.37649,-26.68441,14.20782
71.149512291,1.246873,0.3066557,0.1694366,0.9756944,-0.07688221,-0.1524856,-30.37649,-26.68441,14.20782
71.159644604,1.120875,0.247549,0.0472205,0.9776153,-0.07491385,-0.1505462,-29.99668,-27.41182,14.22297
71.167243958,0.995327700000002,0.01176375,-0.01384481,0.9776331,-0.07778666,-0.1471745,-29.99668,-27.41182,14.22297
71.177375793,0.745330199999998,-0.04715755,-0.1360991,0.9761629,-0.07541353,-0.1510336,-29.99668,-27.41182,14.22297
71.187508106,0.682187600000002,0.0117897,-0.01396329,0.9771029,-0.07389285,-0.1442722,-29.99668,-27.41182,14.22297
71.197639942,0.3082682,0.247253,0.04715175,0.9819751,-0.07436074,-0.1466734,-29.99668,-27.41182,14.22297
71.207772732,0.0591335499999998,0.5413455,0.04701582,0.9854093,-0.07631365,-0.1514942,-29.99668,-27.41182,14.22297
71.217904568,-0.06529491,0.5406286,0.2912318,0.9815193,-0.07774755,-0.1461993,-30.36974,-27.04693,14.21366
71.228036404,0.121465,0.5398754,0.2299027,0.9761866,-0.07877464,-0.1481455,-30.36974,-27.04693,14.21366
71.238169193,-0.0652091400000003,0.4802539,0.1687082,0.9757231,-0.08119801,-0.1481519,-30.36974,-27.04693,14.21366
71.248301029,-0.2516878,0.3618561,0.1075714,0.9757437,-0.08407958,-0.1457453,-30.36974,-27.04693,14.21366
71.258433342,-0.4379714,0.3614756,0.04635793,0.9810843,-0.08307878,-0.1466944,-30.35624,-27.77197,14.22532
71.268565655,-0.5618145,0.4199281,0.2904213,0.9825408,-0.08259224,-0.1476547,-30.35624,-27.77197,14.22532
71.278697968,-0.623178500000001,0.3016431,0.3511732,0.9786206,-0.07829804,-0.1510334,-30.35624,-27.77197,14.22532
71.288829804,-0.684562999999998,0.3600412,0.411868,0.9785918,-0.07632733,-0.1471689,-30.35624,-27.77197,14.22532
71.298962593,-0.621457799999999,0.359441,0.2893665,0.9820515,-0.08211651,-0.1481375,-30.35624,-27.77197,14.22532
71.309094429,-0.496323,0.4766915,-0.01635028,0.9820619,-0.08308873,-0.1486221,-30.7428,-26.68203,14.20434
71.319226265,-0.5580428,0.593905900000001,0.1055776,0.9781925,-0.08505911,-0.1491189,-30.7428,-26.68203,14.20434
71.329358101,-0.4952331,0.593307900000002,0.227525,0.9815845,-0.0849975,-0.1452496,-30.7428,-26.68203,14.20434
71.339490891,-0.556798,0.5335637,0.2272392,0.9821035,-0.08697756,-0.1505606,-30.7428,-26.68203,14.20434
71.349622727,-0.3694598,0.532764,0.4101121,0.9815997,-0.08551646,-0.1491111,-30.7428,-26.68203,14.20434
71.35722208,-0.2447966,0.767721499999997,0.3487432,0.9811049,-0.08361527,-0.1524861,-30.00764,-27.04209,14.65942
71.367354393,-0.0577527099999998,0.766720199999998,0.2262636,0.9786509,-0.08168106,-0.1505581,-30.00764,-27.04209,14.65942
71.377486229,0.3155778,0.7069617,0.2870194,0.9767081,-0.08076346,-0.1544215,-30.00764,-27.04209,14.65942
71.387619019,0.1285622,0.764887699999998,0.04247976,0.9781701,-0.08170239,-0.1524896,-30.00764,-27.04209,14.65942
71.397750855,0.3771091,0.88174,-0.01863275,0.9806055,-0.08357525,-0.1476618,-30.00764,-27.04209,14.65942
71.407882691,0.3145463,0.939575999999998,-0.01872443,0.9738048,-0.08317513,-0.1510563,-29.63353,-27.05786,13.84151
71.41801548,0.2520621,0.820730899999998,0.225344,0.9830464,-0.08452849,-0.1481401,-29.63353,-27.05786,13.84151
71.428147316,0.3140496,0.8196815,0.3471409,0.981547,-0.07877672,-0.1529571,-29.63353,-27.05786,13.84151
71.438279152,0.2514292,0.818559400000002,0.2856649,0.9772142,-0.08551555,-0.145262,-29.63353,-27.05786,13.84151
71.448411942,0.4376544,0.817531299999999,0.2853827,0.9806145,-0.08454308,-0.1476639,-29.63353,-27.05786,13.84151
71.458543778,0.2506418,0.698672900000001,0.2849859,0.9839667,-0.07965985,-0.1457146,-30.36974,-27.04693,14.21366
71.46867609,0.3746812,0.756701799999998,0.4067655,0.9815678,-0.08306623,-0.1457281,-30.36974,-27.04693,14.21366
71.478808403,0.001011211,0.696881799999999,0.2843472,0.980095,-0.08209226,-0.1437996,-30.36974,-27.04693,14.21366
71.488940716,0.001009952,0.872726100000001,0.2840476,0.9786403,-0.081646,-0.1466977,-30.36974,-27.04693,14.21366
71.499072552,-0.0612367799999998,1.048386,0.4058092,0.9790995,-0.08014665,-0.1418678,-30.36974,-27.04693,14.21366
71.509205341,-0.1854945,0.752703499999998,0.2221795,0.9776672,-0.08211999,-0.144771,-30.37394,-27.03972,14.65594
71.519337177,-0.1853202,0.928366699999998,0.3440955,0.9796271,-0.0840317,-0.143805,-30.37394,-27.03972,14.65594
71.529469013,-0.1851656,0.809387600000003,0.2827384,0.9771758,-0.08210625,-0.142842,-30.37394,-27.03972,14.65594
71.539601326,-0.2471981,0.9261839,0.3434424,0.9810525,-0.08062854,-0.1433114,-30.37394,-27.03972,14.65594
71.54720068,-0.3714561,0.984180900000002,0.4042355,0.9723119,-0.0807275,-0.146712,-30.37394,-27.03972,14.65594
71.557332993,-0.4954219,0.865224199999999,0.3427837,0.9786211,-0.08111389,-0.1413885,-30.37289,-26.69059,13.82872
71.567465305,-0.619173499999999,1.040838,0.2812556,0.9801451,-0.08647814,-0.1471867,-30.37289,-26.69059,13.82872
71.577597141,-0.5562675,0.980698600000002,0.4029823,0.9786714,-0.08456264,-0.1481515,-30.37289,-26.69059,13.82872
71.587728977,-0.3068995,0.802802799999998,0.3414745,0.9771915,-0.08309599,-0.1452569,-30.37289,-26.69059,13.82872
71.597861767,-0.1821989,0.978310500000001,0.4021815,0.9771527,-0.07921591,-0.1442835,-30.37289,-26.69059,13.82872
71.607993603,0.06677736,0.977174200000002,0.2186139,0.9791823,-0.0865164,-0.1505671,-30.00343,-27.0493,14.21714
71.618125439,0.0666934899999998,0.858244700000001,0.0961826699999997,0.9815763,-0.08356328,-0.1471768,-30.00343,-27.0493,14.21714
71.628258228,0.191003,0.680336199999997,0.0959468000000002,0.9796508,-0.08504773,-0.1491151,-30.00343,-27.0493,14.21714
71.638390064,0.1286153,0.679481700000003,0.278812,0.9796513,-0.08551849,-0.1476685,-30.00343,-27.0493,14.21714
71.648522377,0.4394272,1.031975,0.3395977,0.978213,-0.08794069,-0.1467123,-30.00343,-27.0493,14.21714
71.65865469,0.687681300000001,0.854143999999997,-0.02710714,0.9747996,-0.08793219,-0.1428607,-30.73244,-27.05074,13.83107
71.668787002,0.811249899999997,0.794312700000002,0.1558359,0.978692,-0.08744421,-0.1457449,-30.73244,-27.05074,13.83107
71.678918838,0.996771900000002,0.734500899999999,0.216661,0.9742885,-0.0845705,-0.1452675,-30.73244,-27.05074,13.83107
71.689051628,1.18212,0.733615399999999,0.2164081,0.9776568,-0.08114778,-0.1442864,-30.73244,-27.05074,13.83107
71.699183464,1.180772,0.791563499999998,0.1551155,0.9781712,-0.084989,-0.141398,-30.73244,-27.05074,13.83107
71.7093153,1.11716,1.084935,0.1549782,0.9786187,-0.08016797,-0.1437992,-30.36719,-27.40224,14.66178
71.71944809,1.177963,1.083776,0.1546685,0.9762039,-0.08117668,-0.1462204,-30.36719,-27.40224,14.66178
71.729579925,1.300819,0.964712800000003,0.03245175,0.9767057,-0.0845077,-0.1404357,-30.36719,-27.40224,14.66178
71.737179279,1.237465,0.787102799999999,0.0935378700000001,0.9771907,-0.08356237,-0.1433277,-30.36719,-27.40224,14.66178
71.747311115,1.173645,1.021611,0.2155963,0.9762505,-0.08602021,-0.1467132,-30.36719,-27.40224,14.66178
71.757443428,1.358615,0.902569900000002,0.09330302,0.9786525,-0.08309337,-0.1462182,-30.36299,-27.40945,14.21949
71.767575741,1.232495,0.724809299999998,0.1541875,0.9791035,-0.0801598,-0.1433154,-30.36299,-27.40945,14.21949
71.777708054,1.044328,0.606159900000001,0.0929538200000002,0.981079,-0.08306126,-0.1447642,-30.36299,-27.40945,14.21949
71.787839889,1.043114,0.664304999999998,0.0927411799999997,0.9805602,-0.08108119,-0.1394533,-30.36299,-27.40945,14.21949
71.797971725,0.792997699999998,0.4280481,0.2756296,0.9757245,-0.08354747,-0.1404361,-30.36299,-27.40945,14.21949
71.808104515,0.729756199999998,0.663099499999998,0.2753026,0.9766828,-0.08068021,-0.145253,-30.36613,-27.05311,13.83455
71.818236351,0.5422595,0.3092161,0.2138209,0.9772285,-0.08650091,-0.1471943,-30.36613,-27.05311,13.83455
71.828368664,0.4171851,0.5443428,0.2746115,0.9743015,-0.08555146,-0.1467173,-30.36613,-27.05311,13.83455
71.838500977,0.1679136,0.484919,0.335249,0.979226,-0.09228832,-0.146719,-30.36613,-27.05311,13.83455
71.848633289,0.04325084,0.720046900000002,0.3957529,0.9811422,-0.0907732,-0.1414028,-30.36974,-27.04693,14.21366
71.858765125,0.1675116,0.719179500000002,0.5174508,0.9777206,-0.08933049,-0.1394783,-30.36974,-27.04693,14.21366
71.868897438,0.167223,0.718276099999998,0.2116585,0.9815742,-0.08637036,-0.1365667,-30.36974,-27.04693,14.21366
71.879029751,0.104748,0.4819145,0.2723559,0.9819866,-0.07861956,-0.1360665,-30.36974,-27.04693,14.21366
71.889161587,0.4155703,0.4814572,0.1499914,0.9820707,-0.08733878,-0.1370501,-30.36974,-27.04693,14.21366
71.899294376,0.4772742,0.5397775,0.2108622,0.9839715,-0.08155169,-0.1408931,-30.01439,-26.67957,14.65359
71.909426212,0.663196300000002,0.892483000000003,0.149634,0.9825826,-0.08788901,-0.1447707,-30.01439,-26.67957,14.65359
71.919558048,0.5379699,1.068082,0.3936444,0.9801031,-0.08446363,-0.1384966,-30.01439,-26.67957,14.65359
71.927157402,0.599669499999998,1.302553,0.08813109,0.9776875,-0.08593872,-0.1389886,-30.01439,-26.67957,14.65359
71.937289715,0.661259499999998,1.300843,0.02682698,0.9733515,-0.08985294,-0.1399733,-30.01439,-26.67957,14.65359
71.947422028,0.6604876,1.122508,0.0878141199999998,0.9738347,-0.09077754,-0.1356311,-30.37649,-26.68441,14.20782
71.95755434,0.5352061,1.06221,0.0877037900000001,0.9767705,-0.09128688,-0.1409326,-30.37649,-26.68441,14.20782
71.967686176,0.4101406,0.766565599999998,0.2097503,0.9816174,-0.09167152,-0.1341653,-30.37649,-26.68441,14.20782
71.977818966,0.2230648,0.5302357,0.1485619,0.9766765,-0.08441131,-0.1298195,-30.37649,-26.68441,14.20782
71.987950802,-0.0881691900000001,0.588494700000001,0.0872969899999997,0.9805629,-0.08343503,-0.1322201,-30.37649,-26.68441,14.20782
71.998082638,-0.0879998099999999,0.646754500000002,0.3313089,0.9795529,-0.08050408,-0.128356,-29.63607,-26.70255,13.39339
72.008215427,-0.1501543,0.587165199999999,0.392067,0.980551,-0.08339559,-0.1278771,-29.63607,-26.70255,13.39339
72.018347263,0.2853619,0.4686886,0.0864321399999999,0.9834484,-0.08049564,-0.1307587,-29.63607,-26.70255,13.39339
72.028479099,0.7203897,0.526988,0.2084036,0.9796014,-0.08582276,-0.1278847,-29.63607,-26.70255,13.39339
72.038611412,0.906064999999999,0.702971499999999,0.0862344200000001,0.9854245,-0.08386786,-0.1307608,-29.63607,-26.70255,13.39339
72.048743725,0.842720399999999,0.761069100000001,0.02508612,0.9825652,-0.09111428,-0.1269234,-29.99308,-27.418,13.84387
72.058876038,0.655101400000001,0.819038199999999,-0.03606211,0.9786561,-0.0873259,-0.1327159,-29.99308,-27.418,13.84387
72.069007874,0.3432857,0.582549899999999,0.0859672900000002,0.9762165,-0.08637705,-0.1327202,-29.99308,-27.418,13.84387
72.079140663,0.2806285,0.4640236,0.2690176,0.9820431,-0.08630961,-0.1302923,-29.99308,-27.418,13.84387
72.089272499,0.4668757,0.2868877,0.02465405,0.9781566,-0.08494081,-0.1360899,-29.99308,-27.418,13.84387
72.099404335,0.715134399999998,0.1686589,-0.1585544,0.9830201,-0.08584879,-0.1336666,-30.00658,-26.69296,13.8322
72.109537125,0.5277538,0.3449816,-0.2805695,0.9810475,-0.08436401,-0.1283605,-30.00658,-26.69296,13.8322
72.117135525,0.340481,0.28575,-0.03618354,0.9835112,-0.08679967,-0.1322197,-30.00658,-26.69296,13.8322
72.127268314,0.588800700000001,0.4620922,-0.09721643,0.9805496,-0.08339121,-0.1273945,-30.00658,-26.69296,13.8322
72.13740015,0.588080800000002,0.3436432,0.1470273,0.979139,-0.08684257,-0.1331962,-30.00658,-26.69296,13.8322
72.147532463,0.711833099999997,0.3431745,0.02489687,0.9776859,-0.08687149,-0.1351302,-30.36974,-27.04693,14.21366
72.157664776,0.586623900000002,0.3426325,-0.03611684,0.9757626,-0.08789393,-0.1394803,-30.36974,-27.04693,14.21366
72.167797089,0.4615915,0.2832401,0.02491099,0.9748108,-0.09078309,-0.1370762,-30.36974,-27.04693,14.21366
72.177928925,0.5231791,0.1062758,0.02493723,0.9772174,-0.08834016,-0.1365822,-30.36974,-27.04693,14.21366
72.188061714,0.584747899999997,-0.0116892,0.1469667,0.9781577,-0.08588234,-0.1331966,-30.36974,-27.04693,14.21366
72.19819355,0.4596201,0.04717649,0.1468588,0.9781657,-0.08590864,-0.136092,-29.99668,-27.41182,14.22297
72.208325386,0.5212688,-0.01177078,0.1467127,0.9815694,-0.08447853,-0.1413882,-29.99668,-27.41182,14.22297
72.218458176,0.4584663,-0.0706625100000001,-0.1586716,0.9791288,-0.08493321,-0.1360874,-29.99668,-27.41182,14.22297
72.228590012,0.395684,-0.0705182600000002,-0.03650732,0.9790899,-0.08105314,-0.1351141,-29.99668,-27.41182,14.22297
72.238722324,0.5195412,-0.0704296900000003,-0.0975781700000003,0.9786619,-0.08546911,-0.1413978,-29.99668,-27.41182,14.22297
72.24885416,0.5188691,-0.3058748,0.02470106,0.9776595,-0.08350161,-0.1370532,-30.73605,-27.04455,14.21018
72.25898695,0.4562259,-0.128845,-0.2193941,0.9825323,-0.08444026,-0.1380077,-30.73605,-27.04455,14.21018
72.269118786,0.2690532,-0.1285907,0.1470447,0.9840255,-0.08829581,-0.1375296,-30.73605,-27.04455,14.21018
72.279250622,0.144283,-0.2462052,0.02489513,0.9781848,-0.08644074,-0.1414011,-30.73605,-27.04455,14.21018
72.289383411,0.2684168,-0.1281384,0.1468096,0.9786883,-0.08883899,-0.1394748,-30.73605,-27.04455,14.21018
72.299515247,0.2681773,-0.304697,0.02458358,0.978667,-0.0864238,-0.1399522,-30.36974,-27.04693,14.21366
72.309647083,0.14333,-0.1277243,0.02449518,0.9820811,-0.08831099,-0.1375347,-30.36974,-27.04693,14.21366
72.317246437,0.1431168,-0.1863994,0.1465904,0.9781318,-0.08298325,-0.133673,-30.36974,-27.04693,14.21366
72.32737875,0.1428393,-0.1274808,0.2685821,0.9776835,-0.08358049,-0.1457392,-30.36974,-27.04693,14.21366
72.337511063,-0.1683331,-0.0684141999999997,-0.0979376299999998,0.9795635,-0.07819406,-0.1404147,-30.36974,-27.04693,14.21366
72.347643375,-0.3548386,-0.1272162,0.02403527,0.9776481,-0.08158787,-0.1394619,-30.36974,-27.04693,14.21366
72.357775211,-0.354432,-0.06814995,0.02392838,0.9796351,-0.08640307,-0.138502,-30.36974,-27.04693,14.21366
72.367908001,-0.2294958,-0.0679718300000001,0.2070758,0.9801316,-0.08737149,-0.1389854,-30.36974,-27.04693,14.21366
72.378039837,-0.4158072,-0.2444025,0.0848124099999998,0.9839739,-0.08249761,-0.1384824,-30.36974,-27.04693,14.21366
72.388171673,-0.3530785,-0.244003,0.1457459,0.9829944,-0.08201252,-0.1375188,-30.36974,-27.04693,14.21366
72.398304463,-0.5392152,-0.2436225,0.1455436,0.9806327,-0.08882382,-0.1394697,-30.73244,-27.05074,13.83107
72.408436298,-0.7251962,-0.302186,0.0841674200000003,0.979637,-0.08687822,-0.1375379,-30.73244,-27.05074,13.83107
72.418568134,-0.600009299999999,-0.3607685,0.02296419,0.9757655,-0.08931062,-0.1356229,-30.73244,-27.05074,13.83107
72.428700924,-0.4747647,-0.1838178,0.0839177899999999,0.978624,-0.08253057,-0.1375312,-30.73244,-27.05074,13.83107
72.43883276,-0.785141799999999,0.0519836,0.2058924,0.981061,-0.08347067,-0.1365618,-30.00764,-27.04209,14.65942
72.448965073,-0.659821,-0.00689569099999998,0.2057297,0.9810447,-0.08201017,-0.1355936,-30.00764,-27.04209,14.65942
72.459097386,-0.596805400000002,0.05185297,0.1444696,0.9805943,-0.0854145,-0.1370497,-30.00764,-27.04209,14.65942
72.469229698,-0.471467,0.05184334,0.205309,0.9796378,-0.08641183,-0.1394671,-30.00764,-27.04209,14.65942
72.479361534,-0.781789699999999,-0.06597929,0.2661869,0.9791248,-0.08492007,-0.1346397,-30.00764,-27.04209,14.65942
72.489494324,-0.7186599,-0.00704539599999998,0.02180773,0.9786329,-0.08443557,-0.1341574,-30.00089,-27.40461,14.66526
72.49962616,-0.780022300000002,-0.00692552299999999,0.1438987,0.9772019,-0.08641327,-0.1375432,-30.00089,-27.40461,14.66526
72.507225514,-0.717041899999998,-0.2424155,0.02172147,0.9772235,-0.08789131,-0.1404416,-30.00089,-27.40461,14.66526
72.51735735,-0.778347700000002,-0.4188491,0.082715,0.9786473,-0.08542091,-0.1360897,-30.00089,-27.40461,14.66526
72.527489185,-0.963989300000002,-0.4184155,0.1435744,0.9733459,-0.08842748,-0.1428655,-30.00089,-27.40461,14.66526
72.537621975,-0.776276500000002,-0.3001694,0.2654548,0.9757485,-0.08597142,-0.1409238,-30.74025,-27.03734,14.65246
72.547753811,-0.651045000000001,-0.5353999,0.2652557,0.9747578,-0.0849805,-0.1375464,-30.74025,-27.03734,14.65246
72.557886124,-0.2771842,-0.2992308,0.1428425,0.9835572,-0.08882734,-0.1423575,-30.74025,-27.03734,14.65246
72.56801796,-0.0901777,-0.2987995,0.1426248,0.9825802,-0.08928817,-0.1389831,-30.74025,-27.03734,14.65246
72.578150749,-0.02787758,-0.4750143,-0.04048253,0.9810572,-0.08252037,-0.13849,-30.74025,-27.03734,14.65246
72.588282585,0.0965116,-0.3565676,-0.04033579,0.9762135,-0.08496036,-0.1365775,-30.37394,-27.03972,14.65594
72.598414421,0.1585773,-0.2972132,-0.2233284,0.9844802,-0.08396746,-0.140897,-30.37394,-27.03972,14.65594
72.608547211,0.2826345,-0.2378593,-0.284107,0.9800943,-0.08255863,-0.1418704,-30.37394,-27.03972,14.65594
72.618679047,0.5311051,0.05684251,-0.1006303,0.9820702,-0.08686802,-0.1384967,-30.37394,-27.03972,14.65594
72.628811359,0.468388,-0.0610049099999998,-0.1615055,0.983524,-0.08637272,-0.1384919,-30.37394,-27.03972,14.65594
72.638943672,0.3433087,0.1746422,-0.1612835,0.9748095,-0.08843362,-0.1447919,-30.36974,-27.04693,14.21366
72.649075985,0.529438,-0.0610921600000001,-0.2221976,0.980634,-0.0888282,-0.1399523,-30.36974,-27.04693,14.21366
72.659207821,0.4666253,-0.2376609,-0.4050385,0.9723896,-0.09083274,-0.1404604,-30.36974,-27.04693,14.21366
72.66934061,0.1551049,-0.4139155,-0.3435281,0.9786376,-0.08398232,-0.1375343,-30.36974,-27.04693,14.21366
72.679472446,0.03051681,-0.4722466,-0.1600533,0.9761406,-0.07674696,-0.1380077,-30.36974,-27.04693,14.21366
72.689604282,-0.0939929699999997,-0.765945400000002,-0.2819898,0.9786416,-0.08399547,-0.1389819,-30.36974,-27.04693,14.21366
72.697203636,-0.0939044100000001,-0.588652299999999,0.02341827,0.9825704,-0.08644164,-0.1452502,-30.36974,-27.04693,14.21366
72.707335472,0.0928132199999999,-0.4701,0.02342719,0.9782365,-0.09223895,-0.1404483,-30.36974,-27.04693,14.21366
72.717468262,0.09277483,-0.646173500000001,0.02339773,0.9767997,-0.09372836,-0.1433505,-30.36974,-27.04693,14.21366
72.727600098,0.2791993,-0.4687719,0.2064691,0.9748473,-0.09371725,-0.1404603,-30.36974,-27.04693,14.21366
72.73773241,0.5275961,-0.5270155,0.3895023,0.973381,-0.09135726,-0.145767,-29.99308,-27.418,13.84387
72.747864723,0.713396299999999,-0.820756699999998,0.5721139,0.9802008,-0.09463459,-0.1394833,-29.99308,-27.418,13.84387
72.757997036,1.023474,-0.760819199999998,0.937616000000003,0.9797488,-0.09662661,-0.1452794,-29.99308,-27.418,13.84387
72.768128872,1.395407,-0.701049599999998,1.302582,0.9807346,-0.09807076,-0.1452799,-29.99308,-27.418,13.84387
72.778261661,2.015523,-0.5824485,1.545106,0.9753667,-0.09616808,-0.1443246,-29.99308,-27.418,13.84387
72.788393497,2.323945,-0.875934999999998,1.848308,0.9845957,-0.09466615,-0.1467103,-29.63458,-27.40699,14.66874
72.798525333,3.37836,-1.051406,2.028972,0.9826942,-0.09857456,-0.1491363,-29.63458,-27.40699,14.66874
72.808657169,4.120378,-1.226861,2.514571,0.9749082,-0.09720104,-0.1510837,-29.63458,-27.40699,14.66874
72.818789959,5.110329,-1.343244,2.816632,0.9656115,-0.0905071,-0.1520583,-29.63458,-27.40699,14.66874
72.828921795,5.608137,-1.755589,3.121927,0.9597802,-0.0886827,-0.1593077,-29.63458,-27.40699,14.66874
72.839054108,5.79481499999999,-2.403561,3.366164,0.9680095,-0.08522204,-0.1583139,-30.00343,-27.0493,14.21714
72.84918642,5.73258899999999,-2.580281,3.549341,0.9727947,-0.0778991,-0.1553906,-30.00343,-27.0493,14.21714
72.859318733,5.670363,-2.580281,3.366164,0.9761891,-0.07409324,-0.1655072,-30.00343,-27.0493,14.21714
72.869450569,5.297007,-2.580281,3.182986,0.9765624,-0.0657446,-0.1524594,-30.00343,-27.0493,14.21714
72.879583359,4.861425,-2.815907,2.877691,0.9799232,-0.06042128,-0.1553346,-30.00343,-27.0493,14.21714
72.887181759,4.7992,-2.93372,2.572395,0.9818752,-0.0623067,-0.1514732,-30.3843,-26.67101,15.02921
72.897314548,4.550296,-3.110439,2.083921,0.9799398,-0.06328971,-0.1514803,-30.3843,-26.67101,15.02921
72.907446384,4.612522,-3.110439,1.839685,0.9838596,-0.06711315,-0.1495482,-30.3843,-26.67101,15.02921
72.917578697,4.425844,-3.346065,1.778626,0.9848847,-0.07290813,-0.1490755,-30.3843,-26.67101,15.02921
72.92771101,4.7992,-3.051533,1.778626,0.9873721,-0.07964205,-0.1466708,-30.3843,-26.67101,15.02921
72.937843323,4.861425,-2.874813,1.900744,0.989337,-0.08250845,-0.1442592,-30.74955,-26.31951,14.19851
72.947975159,4.363618,-2.639187,1.900744,0.9791605,-0.08597554,-0.1442929,-30.74955,-26.31951,14.19851
72.958107471,3.990262,-2.462468,2.083921,0.981575,-0.08590399,-0.1384959,-30.74955,-26.31951,14.19851
72.968239784,3.492455,-1.755589,2.328158,0.9840394,-0.08881041,-0.1409085,-30.74955,-26.31951,14.19851
72.97837162,3.679132,-1.225431,2.267099,0.9830658,-0.08881361,-0.1404285,-30.74955,-26.31951,14.19851
72.98850441,3.616906,-0.989804699999999,2.267099,0.9811203,-0.08788725,-0.1433268,-30.37755,-27.03354,15.03504
72.998636246,3.430228,-1.048711,2.267099,0.9771543,-0.08062822,-0.1399436,-30.37755,-27.03354,15.03504
73.008768082,3.119099,-1.284337,2.144981,0.98006,-0.07916248,-0.1408981,-30.37755,-27.03354,15.03504
73.018900871,2.745743,-0.989804699999999,1.961803,0.9790542,-0.07530751,-0.1418575,-30.37755,-27.03354,15.03504
73.029032707,2.372387,-0.813085099999997,2.022862,0.9868718,-0.08006842,-0.1399174,-30.39526,-26.30128,15.46566
73.03916502,1.936806,-0.341833,2.083921,0.9824889,-0.08007627,-0.1370334,-30.39526,-26.30128,15.46566
73.049297333,1.438998,-0.1651135,2.083921,0.980052,-0.07913619,-0.1380027,-30.39526,-26.30128,15.46566
73.059429646,1.25232,-0.341833,2.083921,0.979625,-0.08683878,-0.1331949,-30.39526,-26.30128,15.46566
73.069561481,0.692286499999999,-0.22402,2.20604,0.9742835,-0.08830597,-0.1303166,-30.39526,-26.30128,15.46566
73.077160835,-0.1788768,-0.5185525,2.328158,0.9815881,-0.08923003,-0.1317474,-30.39526,-26.30128,15.46566
73.087292671,-0.3655547,-0.577458999999998,2.328158,0.9786617,-0.08875136,-0.1298237,-30.38175,-27.02632,15.47733
73.097425461,-0.8011364,-0.5185525,2.328158,0.9859735,-0.0901681,-0.1322206,-30.38175,-27.02632,15.47733
73.107557297,-1.174492,-0.341833,2.572395,0.9840125,-0.08731484,-0.1360799,-30.38175,-27.02632,15.47733
73.117689133,-1.298944,-0.04730047,2.694513,0.9801466,-0.0911727,-0.1312727,-30.38175,-27.02632,15.47733
73.127821922,-1.174492,0.1883256,2.755572,0.9786742,-0.08926155,-0.13272,-31.12111,-26.65905,15.46454
73.137953758,-1.112266,0.1883256,2.633454,0.9845508,-0.09358002,-0.1336793,-31.12111,-26.65905,15.46454
73.148086071,-0.5522325,0.3061386,2.816632,0.9836366,-0.0979998,-0.1399643,-31.12111,-26.65905,15.46454
73.158218384,-0.1788768,0.4828582,2.755572,0.984152,-0.1004375,-0.1423809,-31.12111,-26.65905,15.46454
73.168350697,0.2567049,0.600671200000002,2.816632,0.9832251,-0.1052842,-0.1423937,-31.12111,-26.65905,15.46454
73.178482533,0.754512400000002,1.013017,2.877691,0.9846837,-0.1043357,-0.1457658,-30.39105,-26.30849,15.02338
73.188614368,1.003416,1.366456,2.877691,0.9808366,-0.1073177,-0.1510901,-30.39105,-26.30849,15.02338
73.198747158,1.750128,1.719895,2.694513,0.981372,-0.1121662,-0.1525468,-30.39105,-26.30849,15.02338
73.208878994,2.496839,1.719895,2.755572,0.985792,-0.1155633,-0.1573682,-30.39105,-26.30849,15.02338
73.219011307,3.056873,1.778802,2.633454,0.982843,-0.1093828,-0.1670135,-30.39105,-26.30849,15.02338
73.22914362,4.114714,1.837708,2.450276,0.9843062,-0.1112632,-0.1621883,-30.39105,-26.30849,15.02338
73.239275932,4.674747,2.014427,2.511336,0.9780024,-0.1123023,-0.1646195,-30.39105,-26.30849,15.02338
73.249407768,5.234781,2.250053,2.450276,0.9823644,-0.1112872,-0.1631584,-30.39105,-26.30849,15.02338
73.259540081,5.608137,2.780212,2.450276,0.9819097,-0.1156155,-0.1597911,-30.39105,-26.30849,15.02338
73.267138958,5.79481499999999,2.839119,2.572395,0.9862908,-0.1151325,-0.1636391,-30.39105,-26.30849,15.02338
73.277271748,6.35484800000002,2.839119,2.755572,0.9819621,-0.1209473,-0.1607675,-30.39105,-26.30849,15.02338
73.287403584,6.54152600000002,3.310371,2.93875,0.9906932,-0.1194098,-0.1588115,-30.39105,-26.30849,15.02338
73.29753542,6.60375200000002,3.899436,3.427223,0.9872528,-0.1155607,-0.1583295,-30.39105,-26.30849,15.02338
73.307668209,6.60375200000002,4.665221,3.793578,0.986864,-0.1252646,-0.1607641,-30.39105,-26.30849,15.02338
73.317800045,6.85265600000003,5.01866,4.037815,1.000446,-0.125062,-0.1501126,-30.39105,-26.30849,15.02338
73.327932358,6.23039600000002,5.96116399999999,4.648407,1.006838,-0.1322889,-0.1520419,-30.41551,-25.21372,15.44816
73.338064671,5.670363,7.02148199999997,5.07582,0.9927649,-0.1357601,-0.1491903,-30.41551,-25.21372,15.44816
73.348196983,5.608137,7.49273299999998,5.747471,0.9835377,-0.1353921,-0.1540388,-30.41551,-25.21372,15.44816
73.358328819,5.79481499999999,7.49273299999998,6.60230000000002,0.9771478,-0.1281739,-0.1530747,-30.41551,-25.21372,15.44816
73.368461609,6.41707400000002,7.49273299999998,7.09077300000001,0.9765967,-0.1223357,-0.1492032,-30.41551,-25.21372,15.44816
73.378593445,6.72820400000002,7.25710699999999,7.15183199999999,0.9667873,-0.1155579,-0.140528,-31.13041,-25.94122,15.01058
73.388725281,6.41707400000002,6.43241600000002,6.90759599999999,0.9760012,-0.113537,-0.1390523,-31.13041,-25.94122,15.01058
73.39885807,5.608137,5.313192,7.45712800000002,0.9926279,-0.1259284,-0.1322803,-31.13041,-25.94122,15.01058
73.408989906,5.79481499999999,5.489912,6.90759599999999,0.9740723,-0.1178242,-0.129898,-31.13041,-25.94122,15.01058
73.419121742,6.29262299999999,5.195379,6.66335900000001,0.9865803,-0.1065078,-0.1201904,-31.13041,-25.94122,15.01058
73.429254532,7.47491599999997,6.02007100000003,6.60230000000002,0.9764307,-0.1138156,-0.1168545,-31.51443,-25.20659,15.43772
73.439386368,8.28385300000001,5.84335099999999,7.15183199999999,0.9768326,-0.1027475,-0.1240679,-31.51443,-25.20659,15.43772
73.449518681,7.97272300000001,4.84194,7.70136499999999,0.9757938,-0.09550073,-0.1245375,-31.51443,-25.20659,15.43772
73.457118034,6.72820400000002,4.076156,8.06772,0.9830681,-0.09304176,-0.1264437,-31.51443,-25.20659,15.43772
73.46724987,5.048103,3.545997,8.86148999999998,0.994823,-0.1007459,-0.1322205,-31.51443,-25.20659,15.43772
73.47738266,3.990262,3.251464,8.80043000000002,0.9979111,-0.1209862,-0.1255004,-31.51698,-24.85128,14.9896
73.487514496,2.683517,3.604903,8.80043000000002,0.9902563,-0.1369284,-0.1159034,-31.51698,-24.85128,14.9896
73.497646332,1.438998,4.135062,8.92254900000003,0.9928297,-0.1552018,-0.10532,-31.51698,-24.85128,14.9896
73.507779122,0.941190199999998,4.665221,9.83843600000001,0.9914936,-0.1682788,-0.1053516,-31.51698,-24.85128,14.9896
73.517910957,1.87458,5.489912,10.69326,0.9965021,-0.1813899,-0.1145353,-31.51698,-24.85128,14.9896
73.528042793,3.928036,6.02007100000003,11.85339,0.9947526,-0.2012762,-0.1179604,-31.15487,-24.84645,15.43537
73.538175583,6.97710800000003,6.66804200000002,12.76928,0.9880586,-0.2096697,-0.1305419,-31.15487,-24.84645,15.43537
73.548307419,10.27508,6.726949,13.6241,0.9754892,-0.2170315,-0.1310727,-31.15487,-24.84645,15.43537
73.558439732,12.57744,7.08038799999998,14.53999,0.9720691,-0.214656,-0.1330066,-31.15487,-24.84645,15.43537
73.568572045,14.19532,7.43382699999997,15.578,0.9832309,-0.2145074,-0.1262219,-31.15487,-24.84645,15.43537
73.578704357,15.68874,8.31742400000001,16.73812,0.9793648,-0.2169573,-0.1262371,-31.1563,-24.55156,14.98822
73.588836193,16.68435,9.377742,18.20354,0.9745421,-0.2227497,-0.1204714,-31.1563,-24.55156,14.98822
73.598968983,17.30662,10.90931,20.46273,0.9595488,-0.2348424,-0.1070247,-31.1563,-24.55156,14.98822
73.609100819,17.80442,12.26416,23.57675,0.9656097,-0.2566519,-0.1157418,-31.1563,-24.55156,14.98822
73.619232654,18.24,12.67651,27.05712,0.9643844,-0.2785358,-0.1264081,-31.52575,-24.19284,14.5998
73.629364967,18.98672,12.55869,31.14808,0.9626817,-0.3103009,-0.1057312,-31.52575,-24.19284,14.5998
73.63949728,20.35569,11.85182,35.48329,0.9735976,-0.3395566,-0.08598142,-31.52575,-24.19284,14.5998
73.649629593,22.03579,10.8504,39.69637,0.9801374,-0.368842,-0.06576046,-31.52575,-24.19284,14.5998
73.65722847,22.96918,9.84899300000001,43.17674,0.9879976,-0.3864056,-0.03489483,-31.52575,-24.19284,14.5998
73.667360783,23.46698,10.49697,47.81724,1.036128,-0.3973066,0.002362128,-31.52575,-24.19284,14.5998
73.677492618,23.28031,12.14635,53.5568,1.074417,-0.3881912,0.01406164,-32.22792,-22.73223,14.94918
73.687625408,24.77373,15.38621,58.50259,1.052392,-0.3728592,0.015968,-32.22792,-22.73223,14.94918
73.697757244,27.44945,16.91778,63.8147400000002,1.03396,-0.3717269,-0.003379059,-32.22792,-22.73223,14.94918
73.70788908,30.9341,17.62465,69.4932399999998,1.034511,-0.3719378,-0.02702298,-32.22792,-22.73223,14.94918
73.71802187,33.98317,16.38762,75.9655199999998,1.035406,-0.3613586,-0.03520126,-33.35587,-20.9791,14.53144
73.728153706,35.84995,14.4437,82.2546099999998,1.025468,-0.33305,-0.05350289,-33.35587,-20.9791,14.53144
73.738286018,36.47221,13.61901,86.2845200000001,1.006671,-0.2913215,-0.0785542,-33.35587,-20.9791,14.53144
73.748418331,37.46783,13.5012,89.3374700000001,0.9893704,-0.2539281,-0.1026459,-33.35587,-20.9791,14.53144
73.758550644,37.96563,12.14635,90.8028899999998,0.994935,-0.2691419,-0.1306521,-33.35587,-20.9791,14.53144
73.76868248,36.78334,9.31883500000001,92.7567800000002,0.9849615,-0.2868791,-0.1567736,-34.1383,-18.0814,14.03552
73.778815269,30.74742,5.313192,93.9169100000001,0.9871506,-0.3223756,-0.1240309,-34.1383,-18.0814,14.03552
73.788947105,20.10678,2.721306,96.4813899999999,1.020724,-0.3428539,-0.06318718,-34.1383,-18.0814,14.03552
73.799078941,9.27946900000002,4.370688,100.0228,1.023162,-0.3513044,-0.03665887,-34.1383,-18.0814,14.03552
73.809211731,2.559065,7.90507799999998,101.9767,0.9956855,-0.3785453,-0.02858497,-34.1383,-18.0814,14.03552
73.819343567,0.941190199999998,10.26134,103.6864,0.9669429,-0.4261308,-0.02152316,-35.29686,-14.872,13.97354
73.829475403,3.430228,11.02712,105.0297,0.943168,-0.4810642,-0.02845826,-35.29686,-14.872,13.97354
73.839608192,5.85704099999999,11.02712,106.4951,0.9271058,-0.5347849,-0.01510381,-35.29686,-14.872,13.97354
73.847207069,7.599367,10.49697,107.9605,0.926257,-0.5558349,0.01235403,-35.29686,-14.872,13.97354
73.857339382,9.03056399999999,8.670863,108.449,0.9601007,-0.591744,0.02587549,-35.29686,-14.872,13.97354
73.867471695,9.40391999999999,7.96398500000002,109.487,0.9737428,-0.6015897,0.04905185,-36.04157,-10.94034,13.90396
73.877603531,11.2707,8.08179899999999,109.7923,0.9653903,-0.5980784,0.06978745,-36.04157,-10.94034,13.90396
73.88773632,14.69313,8.84758299999997,109.9755,0.9457707,-0.5746717,0.05289797,-36.04157,-10.94034,13.90396
73.897868156,18.11555,9.02430199999998,108.6322,0.9320855,-0.5665602,0.05191501,-36.04157,-10.94034,13.90396
73.907999992,22.22247,9.02430199999998,106.8615,0.9307675,-0.5815729,0.05187934,-36.04157,-10.94034,13.90396
73.918132782,22.22247,8.670863,106.9836,0.9618803,-0.5761779,0.03315178,-36.47883,-6.721952,13.01102
73.928264618,19.36007,10.90931,105.2739,0.949964,-0.5953426,0.01136514,-36.47883,-6.721952,13.01102
73.938396454,15.68874,14.79714,101.6104,0.8990952,-0.6108475,-0.0003805525,-36.47883,-6.721952,13.01102
73.948529243,11.76851,17.33012,97.5804600000002,0.8599612,-0.6349279,-0.007288933,-36.47883,-6.721952,13.01102
73.958661079,5.670363,19.27404,94.4664399999999,0.8374637,-0.6742463,-0.001158347,-36.47883,-6.721952,13.01102
73.968793392,2.123483,18.44934,91.4134800000002,0.7919154,-0.6849317,-0.01963564,-36.91048,-2.805664,12.12295
73.978925705,-0.2411028,15.68074,87.2614599999999,0.7713444,-0.716672,-0.0332683,-36.91048,-2.805664,12.12295
73.989058018,-0.1788768,14.62042,85.1243900000002,0.7876192,-0.7524898,0.005300577,-36.91048,-2.805664,12.12295
73.999189854,0.3189308,16.68215,84.0253199999999,0.7996379,-0.7430428,0.02272364,-36.91048,-2.805664,12.12295
74.009322643,0.0700270099999998,20.86451,81.2776599999998,0.8032063,-0.760446,0.02173033,-36.91048,-2.805664,12.12295
74.019454479,1.687902,25.75375,80.7891799999999,0.7799314,-0.7697304,0.03178388,-36.60952,1.105875,11.24183
74.029586315,3.305777,29.11142,79.0795299999999,0.7304571,-0.7271285,0.02257944,-36.60952,1.105875,11.24183
74.037185669,6.72820400000002,30.99643,78.3468199999998,0.7278055,-0.7006242,0.01249605,-36.60952,1.105875,11.24183
74.047317505,12.45299,32.11566,76.3318699999998,0.702607,-0.650701,-0.01062396,-36.60952,1.105875,11.24183
74.057450295,16.87103,31.82112,71.8134899999999,0.6839773,-0.6334418,-0.01256509,-36.60952,1.105875,11.24183
74.06758213,17.86665,31.34987,68.27206,0.6581271,-0.6216326,-0.02225735,-35.9024,3.250492,9.634195
74.077714443,18.98672,31.88003,64.9137999999997,0.6380506,-0.6062986,-0.02179362,-35.9024,3.250492,9.634195
74.087846756,18.11555,31.76222,61.7997900000002,0.6214752,-0.6062699,-0.004464546,-35.9024,3.250492,9.634195
74.097979069,14.13309,32.23347,58.4415299999999,0.6014238,-0.5966464,0.006603052,-35.9024,3.250492,9.634195
74.108110905,11.5196,31.6444,55.81599,0.5766641,-0.6002273,0.006531497,-35.9024,3.250492,9.634195
74.118243694,9.09279100000002,29.40596,53.92315,0.559514,-0.5933443,0.03304225,-35.64117,6.423993,7.942778
74.12837553,5.85704099999999,26.57844,50.8702,0.5421332,-0.6060671,0.03248752,-35.64117,6.423993,7.942778
74.138507366,4.612522,25.22359,48.73312,0.5353634,-0.6048305,0.01461842,-35.64117,6.423993,7.942778
74.148640156,6.16817000000002,23.33858,44.76428,0.5351619,-0.6325051,0.004907424,-35.64117,6.423993,7.942778
74.158771992,7.72381900000001,22.04264,40.91755,0.5303979,-0.6455254,0.01403558,-35.64117,6.423993,7.942778
74.168904305,7.47491599999997,20.51107,37.80354,0.5149385,-0.6600328,0.02844098,-34.93594,8.51334,6.652031
74.179036617,6.35484800000002,17.27121,33.95681,0.4965349,-0.6702515,0.03802253,-34.93594,8.51334,6.652031
74.18916893,6.16817000000002,13.97245,30.53749,0.4917248,-0.6765541,0.04089186,-34.93594,8.51334,6.652031
74.199300766,7.537141,11.49838,27.2403,0.494206,-0.686082,0.05535425,-34.93594,8.51334,6.652031
74.209432602,8.40830500000001,10.55587,24.49263,0.4993368,-0.6740714,0.09447975,-34.93594,8.51334,6.652031
74.219565392,6.91488200000003,9.84899300000001,21.2565,0.5054948,-0.6580135,0.09887309,-34.58207,9.585135,5.816618
74.227164745,5.670363,9.84899300000001,18.99731,0.4844874,-0.6451678,0.0925734,-34.58207,9.585135,5.816618
74.237296581,5.421459,8.37633000000002,15.39482,0.4714258,-0.6497,0.08432664,-34.58207,9.585135,5.816618
74.247428417,6.91488200000003,6.78585500000001,11.60915,0.4676927,-0.6619685,0.06884907,-34.58207,9.585135,5.816618
74.257561207,8.96833799999999,4.84194,7.70136499999999,0.4708647,-0.6871749,0.06156483,-34.58207,9.585135,5.816618
74.267693043,8.65720799999998,1.837708,3.427223,0.495644,-0.6949145,0.09394287,-33.86754,10.95665,4.979826
74.277825356,5.172555,-0.106207,0.618501600000002,0.5066608,-0.6825628,0.1123347,-33.86754,10.95665,4.979826
74.287957668,3.056873,-0.930898099999999,-2.251279,0.5002357,-0.6771051,0.1325969,-33.86754,10.95665,4.979826
74.298089981,0.630060600000001,-0.871991600000001,-4.693646,0.5108894,-0.6750115,0.1408322,-33.86754,10.95665,4.979826
74.308221817,-3.725756,0.3061386,-6.708599,0.522074,-0.6740001,0.1360377,-34.60015,10.9614,4.972866
74.318353653,-5.903665,1.896614,-8.41825400000002,0.5120547,-0.6864274,0.1084799,-34.60015,10.9614,4.972866
74.328486443,-2.916819,2.014427,-10.18897,0.5000226,-0.6934854,0.0876841,-34.60015,10.9614,4.972866
74.338618279,1.936806,0.4239517,-12.50922,0.5062974,-0.693758,0.105554,-34.60015,10.9614,4.972866
74.348750115,4.861425,-0.695272100000002,-15.0737,0.5221786,-0.6856009,0.1374607,-34.60015,10.9614,4.972866
74.358882904,4.861425,-1.932309,-18.00455,0.537946,-0.6634673,0.1631241,-33.8785,11.32639,5.416277
74.36901474,2.372387,-2.462468,-20.81327,0.5523359,-0.6472397,0.1791202,-33.8785,11.32639,5.416277
74.379147053,-0.7389104,-1.343244,-23.92728,0.5757598,-0.6478264,0.1478136,-33.8785,11.32639,5.416277
74.389279366,-2.979045,0.954110300000003,-26.49177,0.5812352,-0.6533661,0.1193455,-33.8785,11.32639,5.416277
74.399411678,-4.472467,2.839119,-29.11731,0.5677546,-0.658592,0.08841635,-33.8785,11.32639,5.416277
74.409543514,-5.530309,2.48568,-31.62074,0.5451949,-0.6841047,0.06948391,-34.5976,10.60609,5.420984
74.417142868,-6.40147199999998,1.307549,-33.57463,0.5361188,-0.7034633,0.07713966,-34.5976,10.60609,5.420984
74.427275658,-9.574996,-1.519963,-35.46746,0.5326566,-0.7070457,0.1118665,-34.5976,10.60609,5.420984
74.437407494,-12.56184,-4.759821,-37.29924,0.5306004,-0.6996576,0.1278012,-34.5976,10.60609,5.420984
74.44753933,-13.30855,-7.17498899999998,-38.58148,0.5417033,-0.690873,0.1264011,-34.5976,10.60609,5.420984
74.457671642,-11.62845,-7.88186700000001,-39.80267,0.572848,-0.6902733,0.1124888,-34.56751,9.209219,5.001064
74.467803955,-8.39270199999999,-7.705148,-41.14597,0.6031138,-0.7040584,0.1139849,-34.56751,9.209219,5.001064
74.477936268,-7.52153900000001,-6.58592300000003,-42.06186,0.6541395,-0.7040782,0.1213547,-34.56751,9.209219,5.001064
74.488068104,-10.94397,-4.465289,-42.73351,0.6632172,-0.688477,0.1262371,-34.56751,9.209219,5.001064
74.498200417,-15.05088,-2.580281,-44.80952,0.6505454,-0.6781486,0.1020992,-34.56751,9.209219,5.001064
74.508332729,-16.60653,-1.225431,-47.19082,0.6372724,-0.7004735,0.05327954,-34.91777,8.131243,5.457373
74.518464565,-14.80198,-1.284337,-49.45001,0.6415499,-0.7345538,0.02715966,-34.91777,8.131243,5.457373
74.528597355,-11.87736,-2.167935,-51.34285,0.6541201,-0.7752305,0.01359327,-34.91777,8.131243,5.457373
74.538729191,-11.56623,-2.93372,-52.62509,0.6610147,-0.7951686,0.0502419,-34.91777,8.131243,5.457373
74.548861027,-15.67314,-4.229663,-52.68615,0.6674829,-0.7780579,0.1168871,-34.91777,8.131243,5.457373
74.558993817,-18.34886,-3.522785,-53.11356,0.6557874,-0.7262655,0.1280669,-35.2618,6.750137,5.855358
74.569125652,-16.91766,-3.110439,-53.78521,0.6526615,-0.6951143,0.09724268,-35.2618,6.750137,5.855358
74.579257965,-12.62407,-3.758411,-55.98335,0.6643794,-0.6867509,0.04903601,-35.2618,6.750137,5.855358
74.589390278,-8.33047700000002,-4.877635,-58.1814700000003,0.6830788,-0.7047088,0.02733093,-35.2618,6.750137,5.855358
74.599522591,-8.57937999999999,-6.64483000000001,-58.5478299999999,0.7199502,-0.7046502,0.05541398,-35.2618,6.750137,5.855358
74.609654426,-12.68629,-6.58592300000003,-59.3416000000002,0.7150838,-0.6617931,0.08927198,-35.9074,4.955282,6.699539
74.61725378,-15.23756,-5.93795199999998,-59.4637199999999,0.7080269,-0.6342851,0.08690017,-35.9074,4.955282,6.699539
74.627385616,-16.10872,-7.35170799999999,-59.4637199999999,0.7182667,-0.6329026,0.0705229,-35.9074,4.955282,6.699539
74.637518406,-15.73536,-9.41343699999997,-59.28054,0.7627399,-0.661949,0.08456906,-35.9074,4.955282,6.699539
74.647650242,-17.91327,-8.17639999999998,-60.0132500000002,0.7895752,-0.6723865,0.08461583,-35.9074,4.955282,6.699539
74.657782078,-22.95358,-4.818728,-60.1353699999999,0.810727,-0.6503339,0.09678151,-35.87897,3.21031,7.170027
74.667914867,-29.05172,-0.813085099999997,-60.5627799999999,0.8171251,-0.6589863,0.09774451,-35.87897,3.21031,7.170027
74.678046703,-28.74059,3.899436,-62.21138,0.7992101,-0.6551395,0.05717248,-35.87897,3.21031,7.170027
74.688179016,-21.70906,4.193969,-64.4095099999998,0.7648956,-0.6602855,-0.0003503922,-35.87897,3.21031,7.170027
74.698311329,-12.12626,1.366456,-67.5235300000002,0.7625319,-0.7245067,0.01735976,-35.87897,3.21031,7.170027
74.708443642,-8.20602399999999,-3.051533,-68.25623,0.7965999,-0.7492313,0.08977679,-37.28342,-0.04287672,7.208612
74.718575478,-12.56184,-4.11185,-68.8668300000002,0.8113649,-0.6822528,0.1517251,-37.28342,-0.04287672,7.208612
74.728708267,-17.9755,-2.167935,-68.25623,0.8051281,-0.5832192,0.137928,-37.28342,-0.04287672,7.208612
74.738840103,-19.6556,-1.048711,-67.82882,0.8092517,-0.534989,0.06324726,-37.28342,-0.04287672,7.208612
74.748971939,-13.1841,-0.7541786,-68.5615300000001,0.8226435,-0.5413945,-0.01393978,-37.28342,-0.04287672,7.208612
74.759104729,-2.916819,-0.636365599999998,-69.72166,0.8230053,-0.5646293,-0.06803427,-36.88554,-2.146562,8.067514
74.769236565,3.679132,-0.989804699999999,-70.8817800000002,0.8082866,-0.5968561,-0.0869609,-36.88554,-2.146562,8.067514
74.779368877,5.73258899999999,-3.994037,-71.9808400000003,0.8025315,-0.6234224,-0.02333642,-36.88554,-2.146562,8.067514
74.78950119,-0.1788768,-8.64765200000002,-70.39331,0.8517062,-0.6113727,0.08876763,-36.88554,-2.146562,8.067514
74.797100067,-6.65037599999998,-8.412025,-67.6456499999999,0.8841815,-0.5580832,0.1203316,-36.88554,-2.146562,8.067514
74.80723238,-13.68191,-4.818728,-66.48552,0.8703862,-0.4804684,0.09923076,-36.83265,-4.986308,8.113216
74.817364693,-14.36639,-3.287159,-66.3023499999999,0.8963902,-0.4358378,0.03569732,-36.83265,-4.986308,8.113216
74.827496529,-10.50838,-4.052943,-66.48552,0.9289829,-0.4239371,-0.01389556,-36.83265,-4.986308,8.113216
74.837629318,-8.952736,-3.758411,-67.6456499999999,0.9403878,-0.4452253,-0.02308034,-36.83265,-4.986308,8.113216
74.847761154,-10.13503,-1.048711,-68.74471,0.8952261,-0.449951,-0.02513717,-36.83265,-4.986308,8.113216
74.85789299,-11.06842,-1.343244,-69.4163599999999,0.8972438,-0.4595571,-0.01887949,-36.79686,-7.094831,8.526352
74.86802578,-10.88174,-2.992626,-69.0499999999997,0.9045976,-0.4653334,-0.02176823,-36.79686,-7.094831,8.526352
74.878157616,-8.82828399999999,-4.347476,-69.1110599999999,0.9102352,-0.499078,-0.01217526,-36.79686,-7.094831,8.526352
74.888289928,-7.52153900000001,-5.93795199999998,-67.4624700000001,0.9098198,-0.5157296,0.01963609,-36.79686,-7.094831,8.526352
74.898422241,-8.64160599999999,-6.17357799999997,-66.2412899999997,0.9012549,-0.5407949,0.03789697,-36.38329,-9.634851,8.570671
74.908554554,-8.26824999999999,-7.11608199999999,-63.6768000000003,0.8689764,-0.5183583,0.03158883,-36.38329,-9.634851,8.570671
74.91868639,-5.84143800000003,-10.17922,-61.8450199999998,0.8638802,-0.4922956,0.02825387,-36.38329,-9.634851,8.570671
74.92881918,-2.232333,-14.00814,-59.64689,0.8974534,-0.4436343,0.02892762,-36.38329,-9.634851,8.570671
74.938951015,1.750128,-15.89315,-58.4867699999998,0.9305464,-0.3931199,0.02091823,-36.38329,-9.634851,8.570671
74.949082851,4.425844,-16.95347,-57.8761799999999,0.9563441,-0.3440572,0.01916005,-36.3382,-12.4612,9.437763
74.959215641,3.928036,-17.89598,-56.77711,0.9996448,-0.3000277,0.03432539,-36.3382,-12.4612,9.437763
74.969347477,-1.174492,-17.1891,-56.10546,1.030841,-0.2548427,0.02726475,-36.3382,-12.4612,9.437763
74.979479313,-7.14818300000001,-14.95065,-54.7011,1.00629,-0.2237401,0.009413992,-36.3382,-12.4612,9.437763
74.989612103,-14.98865,-13.65471,-54.64004,0.9942881,-0.2327733,-0.01572892,-36.3382,-12.4612,9.437763
74.997210979,-19.4067,-14.12596,-53.3578,0.9812828,-0.2459326,-0.01482565,-34.53616,-14.57399,10.31001
75.007343292,-25.69152,-13.77252,-51.89238,0.9826537,-0.2852273,-0.02648776,-34.53616,-14.57399,10.31001
75.017475605,-29.67398,-15.48081,-50.6712,0.9820155,-0.3247931,-0.0130631,-34.53616,-14.57399,10.31001
75.027607441,-33.03418,-17.83707,-48.90048,0.9549336,-0.3442263,0.001784288,-34.53616,-14.57399,10.31001
75.037740231,-36.14548,-19.83989,-48.10671,0.9618462,-0.3567199,0.005635647,-34.53616,-14.57399,10.31001
75.047872067,-37.26554,-19.66317,-47.00765,0.9644876,-0.3789697,0.004629529,-35.2215,-17.10689,10.34389
75.058003902,-37.57667,-20.31114,-45.7254,0.96273,-0.3894495,-0.0286934,-35.2215,-17.10689,10.34389
75.068136692,-36.33215,-21.60708,-45.35905,0.9748909,-0.3907888,-0.02673472,-35.2215,-17.10689,10.34389
75.078268528,-32.90973,-20.72349,-43.09986,0.984094,-0.3816976,-0.0459934,-35.2215,-17.10689,10.34389
75.088400364,-32.66082,-18.48504,-41.51232,0.9921674,-0.3599008,-0.05075121,-35.2215,-17.10689,10.34389
75.098533154,-33.71867,-17.54254,-38.33725,0.9569382,-0.3204911,-0.1038377,-34.08319,-19.22872,10.38836
75.108664989,-37.57667,-18.77957,-36.44441,0.9461002,-0.2980585,-0.12891,-34.08319,-19.22872,10.38836
75.118797302,-37.95003,-18.89738,-33.51357,0.9428077,-0.2532262,-0.1452287,-34.08319,-19.22872,10.38836
75.128929615,-33.78089,-17.07128,-33.81887,0.9483664,-0.2274193,-0.1326127,-34.08319,-19.22872,10.38836
75.139061928,-26.68713,-17.36582,-33.33039,0.9605116,-0.1872366,-0.08810046,-34.08319,-19.22872,10.38836
75.149193764,-18.16218,-17.95488,-33.20827,0.9572231,-0.2129651,-0.04087447,-33.3154,-21.34096,10.87164
75.159326553,-12.87297,-15.18627,-32.53662,0.9779754,-0.2504941,-0.03462849,-33.3154,-21.34096,10.87164
75.169458389,-11.7529,-11.12173,-32.47557,0.9837211,-0.2874095,-0.05447754,-33.3154,-21.34096,10.87164
75.179590225,-14.11749,-7.705148,-30.94909,0.9575648,-0.289329,-0.08350205,-33.3154,-21.34096,10.87164
75.187189579,-16.48208,-6.23248399999998,-29.72791,0.9511796,-0.2816576,-0.08591476,-33.3154,-21.34096,10.87164
75.197321415,-17.9755,-5.93795199999998,-28.14037,0.9422594,-0.2567771,-0.1095292,-32.55578,-22.79579,10.90194
75.207454205,-14.8642,-7.23389499999999,-28.75096,0.9547117,-0.2326142,-0.1239216,-32.55578,-22.79579,10.90194
75.217586041,-9.26386499999997,-7.94077300000002,-28.56778,0.9830066,-0.1978221,-0.1006115,-32.55578,-22.79579,10.90194
75.227718353,-6.52592399999998,-6.76264300000001,-27.59083,0.9842194,-0.175428,-0.08704883,-32.55578,-22.79579,10.90194
75.237850666,-6.58814999999998,-5.407793,-26.55283,0.9925591,-0.1746761,-0.1179088,-32.55578,-22.79579,10.90194
75.247982979,-6.89927999999998,-4.642008,-25.08741,0.9894496,-0.2028704,-0.1290761,-31.86502,-24.23683,11.75305
75.258114815,-7.45931300000001,-4.642008,-24.53788,0.9872663,-0.2290295,-0.1301031,-31.86502,-24.23683,11.75305
75.268247604,-7.89489500000002,-3.110439,-23.31669,0.9849636,-0.2435396,-0.1272449,-31.86502,-24.23683,11.75305
75.27837944,-6.40147199999998,-1.57887,-21.54598,0.9936437,-0.2357375,-0.1281708,-31.86502,-24.23683,11.75305
75.288511276,-2.730141,-0.4596461,-20.56903,0.994092,-0.2351402,-0.1161047,-31.86502,-24.23683,11.75305
75.298644066,0.0700270099999998,0.3650451,-19.59208,1.00171,-0.2195461,-0.1107435,-31.48776,-24.60894,11.32007
75.308775902,1.003416,0.4828582,-18.43196,0.9975987,-0.1939859,-0.1169722,-31.48776,-24.60894,11.32007
75.318908215,-0.3655547,0.5417647,-16.47807,1.000422,-0.1805231,-0.1289998,-31.48776,-24.60894,11.32007
75.329040527,-1.298944,0.3650451,-14.46311,1.002771,-0.1661664,-0.1487473,-31.48776,-24.60894,11.32007
75.33917284,-2.045655,-0.2829265,-12.63134,1.004665,-0.1622317,-0.1434259,-31.48776,-24.60894,11.32007
75.349304676,-2.232333,-0.577458999999998,-10.31109,1.013053,-0.1766496,-0.1395749,-31.47283,-25.62887,11.77889
75.359437466,-2.792367,0.3650451,-7.86872199999999,1.003858,-0.185767,-0.1232116,-31.47283,-25.62887,11.77889
75.369569302,-3.725756,-0.4596461,-5.487415,1.008287,-0.1920062,-0.1212834,-31.47283,-25.62887,11.77889
75.377168655,-3.601304,-0.2829265,-3.777758,1.010762,-0.1963556,-0.122734,-31.47283,-25.62887,11.77889
75.387300491,-2.792367,-0.871991600000001,-1.030096,1.009447,-0.2095028,-0.1304864,-31.47283,-25.62887,11.77889
75.397432327,-1.174492,-0.813085099999997,1.47333,1.002317,-0.2293213,-0.1218615,-30.73347,-25.99614,11.79169
75.407565117,0.3189308,-0.4007396,3.854637,1.000935,-0.2375549,-0.1214002,-30.73347,-25.99614,11.79169
75.417696953,1.687902,0.4239517,6.60230000000002,0.9985248,-0.2428005,-0.1108017,-30.73347,-25.99614,11.79169
75.427829266,3.243551,1.660988,8.98360800000001,0.9877591,-0.2337378,-0.116118,-30.73347,-25.99614,11.79169
75.437961578,5.297007,2.898025,11.48703,0.9876896,-0.2274119,-0.1122442,-30.73347,-25.99614,11.79169
75.448093891,7.84827100000001,4.370688,14.11258,0.9750295,-0.2227502,-0.1209527,-30.71997,-26.72118,11.80336
75.458225727,10.52399,5.489912,17.10448,0.9707502,-0.2334173,-0.119539,-30.71997,-26.72118,11.80336
75.468358517,12.20409,5.84335099999999,20.46273,0.9626158,-0.2446951,-0.1287527,-30.71997,-26.72118,11.80336
75.478490353,13.51083,6.25569700000002,23.75992,0.9622663,-0.261095,-0.1225157,-30.71997,-26.72118,11.80336
75.488622189,14.31977,7.66945300000002,27.60665,0.983272,-0.2734655,-0.1171801,-30.34946,-26.73077,11.36455
75.508886814,16.0621,10.14353,34.01786,0.9853013,-0.2817031,-0.1200878,-30.34946,-26.73077,11.36455
75.51901865,15.62652,9.43664800000001,37.49824,0.9916637,-0.2902372,-0.1060959,-30.34946,-26.73077,11.36455
75.52915144,16.18655,8.435237,41.77238,1.002469,-0.3050586,-0.09548377,-30.34946,-26.73077,11.36455
75.539283276,16.80881,8.49414300000002,46.16864,1.01767,-0.3241354,-0.07763128,-31.11688,-25.26254,12.15564
75.549415589,17.49329,9.20102200000002,50.25961,1.015261,-0.3256325,-0.080536,-31.11688,-25.26254,12.15564
75.559547901,19.11117,9.79008699999999,53.61786,0.9991422,-0.3123702,-0.09840337,-31.11688,-25.26254,12.15564
75.567146778,20.16901,10.73259,55.87705,0.9886863,-0.285839,-0.09885585,-31.11688,-25.26254,12.15564
75.577279568,21.04017,10.96822,58.0141199999998,1.009558,-0.2897944,-0.07275289,-31.11688,-25.26254,12.15564
75.587411404,19.9201,10.96822,60.2122500000003,1.013006,-0.2936698,-0.07613017,-31.79301,-24.60696,11.31717
75.597543239,18.61336,11.26275,62.4103800000001,0.9950663,-0.3028732,-0.06171975,-31.79301,-24.60696,11.31717
75.607676029,18.73781,10.8504,64.6085099999999,0.984473,-0.3159522,-0.05405441,-31.79301,-24.60696,11.31717
75.617807865,19.11117,9.14211600000001,67.4782899999997,0.9770024,-0.3493855,-0.05221536,-31.79301,-24.60696,11.31717
75.627939701,20.10678,6.90366800000001,70.5923100000001,0.9612336,-0.3827693,-0.03785133,-31.79301,-24.60696,11.31717
75.638072491,22.34692,4.959754,73.5842100000002,0.9551959,-0.4114178,-0.04323652,-33.31226,-21.6973,11.25658
75.648204327,25.08486,3.722716,75.9655199999998,0.9684566,-0.4234876,-0.0514316,-33.31226,-21.6973,11.25658
75.658336639,27.20054,2.721306,78.3468199999998,0.9917473,-0.4198831,-0.0475034,-33.31226,-21.6973,11.25658
75.668468952,28.32061,2.839119,80.9113099999998,1.000965,-0.4235027,-0.0277029,-33.31226,-21.6973,11.25658
75.678601265,30.87187,3.015838,83.3536699999999,1.007803,-0.4254334,-0.03299746,-33.31226,-21.6973,11.25658
75.688733101,34.66766,3.133651,86.0402800000002,1.005204,-0.4023866,-0.05080892,-34.84493,-18.47214,12.01251
75.69886589,38.33899,3.074745,87.5056900000002,0.9875832,-0.3866461,-0.06095405,-34.84493,-18.47214,12.01251
75.708997726,40.26799,2.014427,87.6278200000001,0.9434643,-0.3962865,-0.07218719,-34.84493,-18.47214,12.01251
75.719129562,40.57912,1.955521,87.1393400000002,0.947491,-0.4126566,-0.0664214,-34.84493,-18.47214,12.01251
75.729262352,39.27238,2.367867,88.60476,0.9719826,-0.4374683,-0.04855727,-34.84493,-18.47214,12.01251
75.739394188,36.65889,3.192558,90.4365399999999,0.9615229,-0.4711541,-0.01873864,-35.56157,-15.64143,11.13904
75.749526501,33.29869,4.135062,92.51255,0.9497368,-0.5160733,0.000918898,-35.56157,-15.64143,11.13904
75.757125378,30.24961,5.195379,93.5505499999999,0.955879,-0.506998,0.03569776,-35.56157,-15.64143,11.13904
75.767258167,26.82719,5.607725,94.3443200000002,0.9664506,-0.4448734,0.04647466,-35.56157,-15.64143,11.13904
75.777390003,27.44945,7.02148199999997,94.4664399999999,0.9548852,-0.3864752,-0.01423077,-35.56157,-15.64143,11.13904
75.787522316,29.00509,4.665221,93.2452499999999,0.9398531,-0.3820254,-0.04417801,-36.00778,-11.34923,11.06652
75.797654629,27.01386,2.721306,92.9399600000001,0.9531815,-0.4069813,-0.03261611,-36.00778,-11.34923,11.06652
75.807786941,20.66682,2.839119,93.7337299999997,0.9516693,-0.4651689,0.009236648,-36.00778,-11.34923,11.06652
75.817918777,12.39077,5.96116399999999,93.4894899999998,0.9429017,-0.5202494,0.02646738,-36.00778,-11.34923,11.06652
75.828051567,7.47491599999997,9.43664800000001,92.51255,0.8989424,-0.5524585,0.03448809,-36.00778,-11.34923,11.06652
75.838183403,3.803584,9.90789999999999,91.3524200000001,0.8936331,-0.5601289,0.04700418,-36.43373,-8.144586,11.0115
75.848315239,2.247936,9.79008699999999,89.8869999999998,0.8728276,-0.5606119,0.01172342,-36.43373,-8.144586,11.0115
75.858447552,2.932421,7.08038799999998,88.60476,0.8172028,-0.578846,-0.02995844,-36.43373,-8.144586,11.0115
75.868579864,4.985878,4.076156,85.1243900000002,0.7828369,-0.639832,-0.05478816,-36.43373,-8.144586,11.0115
75.878712177,6.29262299999999,-0.4007396,83.5368500000003,0.8093915,-0.6767439,-0.03887492,-36.43373,-8.144586,11.0115
75.88884449,4.923651,-1.107618,82.1935500000003,0.8229708,-0.6826305,-0.006039238,-36.86958,-4.221084,10.56572
75.898976803,4.114714,0.2472321,79.9343599999997,0.7918363,-0.6771672,-0.01720641,-36.86958,-4.221084,10.56572
75.909108639,6.29262299999999,-0.7541786,77.8583500000002,0.7634107,-0.7007416,-0.03084177,-36.86958,-4.221084,10.56572
75.919240475,8.53275700000001,-2.050122,76.5150500000002,0.7662767,-0.6911719,-0.04529027,-36.86958,-4.221084,10.56572
75.934439182,13.13748,-0.636365599999998,73.21785,0.7684521,-0.707864,-0.07330838,-36.55871,-1.028405,10.07537
75.9395051,14.31977,0.954110300000003,70.8365399999998,0.7740068,-0.7352389,-0.05501604,-36.55871,-1.028405,10.07537
75.94963789,16.62213,6.31460299999997,68.6994700000001,0.7439591,-0.7442153,-0.05849068,-36.55871,-1.028405,10.07537
75.95723629,17.36884,8.19961199999998,66.7455800000002,0.7137367,-0.7371392,-0.05276283,-36.55871,-1.028405,10.07537
75.96736908,17.92887,9.61336700000002,63.99792,0.6861725,-0.7066767,-0.03201883,-36.55871,-1.028405,10.07537
75.977500916,21.04017,9.79008699999999,63.0820300000001,0.7002305,-0.7083139,-0.01123649,-36.55871,-1.028405,10.07537
75.987633228,24.2137,9.966806,61.6776699999999,0.7159747,-0.6753176,-0.01498534,-36.97791,1.813716,10.02619
75.997765541,26.82719,11.734,59.9069500000002,0.6974376,-0.6625845,-0.03575538,-36.97791,1.813716,10.02619
76.007897854,27.32499,12.67651,57.15929,0.6823636,-0.6655005,-0.02421935,-36.97791,1.813716,10.02619
76.01802969,25.02263,14.62042,53.92315,0.6808684,-0.6691422,0.002309151,-36.97791,1.813716,10.02619
76.028162479,22.09801,16.68215,50.62596,0.6706237,-0.6742601,0.0336374,-36.97791,1.813716,10.02619
76.038294315,20.79127,16.85887,48.48889,0.6428255,-0.6708961,0.05480509,-35.91372,4.264241,8.796274
76.048426151,19.11117,15.91637,46.16864,0.6240502,-0.6386181,0.05482606,-35.91372,4.264241,8.796274
76.058558941,18.86226,14.09026,44.21475,0.6029362,-0.6183867,0.06253587,-35.91372,4.264241,8.796274
76.068690777,18.48891,13.26557,41.8945,0.5959819,-0.6052866,0.07219708,-35.91372,4.264241,8.796274
76.078822613,18.55113,11.79291,39.69637,0.5984316,-0.6104898,0.08329084,-35.91372,4.264241,8.796274
76.088955402,17.11994,11.02712,37.07082,0.5926722,-0.6159374,0.0745784,-34.90181,6.056721,7.955574
76.099087238,15.37761,11.6751,34.01786,0.6068662,-0.6311548,0.09195404,-34.90181,6.056721,7.955574
76.109219551,10.95957,12.44088,30.78173,0.5840599,-0.6436607,0.1198562,-34.90181,6.056721,7.955574
76.119351864,4.550296,12.20525,27.97301,0.5538311,-0.6356257,0.124621,-34.90181,6.056721,7.955574
76.129484177,0.3811567,10.73259,26.01911,0.539238,-0.6305479,0.1101178,-35.28874,7.790674,6.660219
76.139616013,-0.2411028,8.31742400000001,24.12628,0.535994,-0.639539,0.08210226,-35.28874,7.790674,6.660219
76.147215366,1.190094,7.08038799999998,22.72192,0.5302362,-0.6431165,0.06615561,-35.28874,7.790674,6.660219
76.157347202,3.243551,6.13788400000002,19.54684,0.5134742,-0.6675283,0.05689147,-35.28874,7.790674,6.660219
76.167479992,3.55468,5.01866,15.82223,0.5156217,-0.6921007,0.06697771,-35.28874,7.790674,6.660219
76.177611828,1.003416,3.899436,13.13563,0.5414296,-0.7051776,0.09693418,-34.93908,8.869678,6.267094
76.187744141,-1.858978,3.369277,10.51009,0.5510092,-0.6905624,0.09940305,-34.93908,8.869678,6.267094
76.197876453,-0.7389104,4.724127,8.73937099999998,0.5320225,-0.6784221,0.06704941,-34.93908,8.869678,6.267094
76.208008289,3.119099,4.370688,5.686412,0.5161321,-0.6903015,0.05154133,-34.93908,8.869678,6.267094
76.218140602,6.91488200000003,4.193969,1.778626,0.4925935,-0.7134548,0.02682086,-34.93908,8.869678,6.267094
76.228272915,8.96833799999999,2.191147,-2.129161,0.476611,-0.722216,0.03496414,-34.20962,9.22127,5.889118
76.238405228,7.28823799999997,-0.4007396,-5.365297,0.5008634,-0.7256041,0.06735017,-34.20962,9.22127,5.889118
76.248537064,4.239166,-1.107618,-7.807663,0.5344531,-0.6854384,0.09165059,-34.20962,9.22127,5.889118
76.258669853,3.803584,0.3061386,-10.25003,0.551149,-0.6495529,0.08549765,-34.20962,9.22127,5.889118
76.268801689,4.985878,1.071923,-12.81451,0.5544617,-0.6403188,0.0869737,-34.20962,9.22127,5.889118
76.278933525,5.670363,2.191147,-15.98959,0.5428838,-0.649613,0.08595877,-34.57847,9.578953,5.437515
76.289066315,4.425844,2.603492,-19.16467,0.5420288,-0.6640767,0.09268115,-34.57847,9.578953,5.437515
76.299198151,2.372387,1.719895,-21.97339,0.5421215,-0.6709478,0.08205054,-34.57847,9.578953,5.437515
76.309330463,1.25232,0.718484199999998,-24.0494,0.5418633,-0.6895245,0.06174289,-34.57847,9.578953,5.437515
76.319462776,3.679132,-0.577458999999998,-25.698,0.5377093,-0.7090466,0.04721374,-34.57847,9.578953,5.437515
76.329595089,6.16817000000002,-1.637776,-27.46872,0.5459514,-0.7154766,0.0781043,-33.83596,8.855341,5.835247
76.337194443,6.41707400000002,-2.403561,-28.81202,0.5740016,-0.70634,0.1008761,-33.83596,8.855341,5.835247
76.347326279,3.616906,-2.167935,-31.01015,0.6013205,-0.6706052,0.1222555,-33.83596,8.855341,5.835247
76.357458115,0.5056086,-1.166524,-33.14722,0.600129,-0.6422197,0.1049417,-33.83596,8.855341,5.835247
76.367590904,-0.8011364,-1.932309,-35.65064,0.5898942,-0.6375216,0.09816972,-33.83596,8.855341,5.835247
76.37772274,-2.170107,-3.110439,-38.15407,0.6110192,-0.6662312,0.1160168,-34.19551,8.495197,5.837601
76.387854576,-4.659145,-2.639187,-39.25313,0.6465712,-0.6788357,0.1363484,-34.19551,8.495197,5.837601
76.397987366,-8.14379900000002,-1.107618,-40.16902,0.6717712,-0.6699411,0.1349849,-34.19551,8.495197,5.837601
76.408119202,-9.574996,0.954110300000003,-41.6955,0.6547759,-0.660755,0.09539181,-34.19551,8.495197,5.837601
76.418251515,-8.64160599999999,1.425362,-43.28304,0.6447877,-0.6737538,0.05818185,-34.19551,8.495197,5.837601
76.428383827,-8.26824999999999,0.895203799999999,-44.99269,0.6591908,-0.7037297,0.04898612,-35.63793,7.061826,6.289305
76.43851614,-9.699448,0.5417647,-46.82447,0.638097,-0.738167,0.05850866,-35.63793,7.061826,6.289305
76.448647976,-8.70383300000002,-0.04730047,-48.7173,0.6100329,-0.750071,0.05068991,-35.63793,7.061826,6.289305
76.458780766,-5.156953,-2.639187,-51.15967,0.6066188,-0.7575641,0.08106557,-35.63793,7.061826,6.289305
76.468912602,-4.410242,-6.998269,-51.83132,0.6824365,-0.722019,0.1464816,-35.63793,7.061826,6.289305
76.479044438,-9.20164,-6.64483000000001,-51.95344,0.7276527,-0.6260909,0.1728621,-35.62661,6.048078,7.127224
76.489177227,-14.11749,-3.463878,-55.0064,0.7222872,-0.5569316,0.119434,-35.62661,6.048078,7.127224
76.499309063,-13.433,-3.463878,-57.5098200000003,0.7321404,-0.5441561,0.02587242,-35.62661,6.048078,7.127224
76.509440899,-10.94397,-4.11185,-60.86808,0.724326,-0.5850973,0.0006717152,-35.62661,6.048078,7.127224
76.519573689,-11.81513,-2.462468,-62.5777400000002,0.7117745,-0.655562,0.03233608,-35.62661,6.048078,7.127224
76.527173042,-14.17972,-1.284337,-63.3104400000001,0.6998163,-0.6797473,0.04383442,-35.22654,4.233099,7.159876
76.537304878,-17.7266,-1.048711,-63.4936199999999,0.7237614,-0.70624,0.09016391,-35.22654,4.233099,7.159876
76.547437191,-21.95796,-2.639187,-63.79892,0.7653297,-0.6910632,0.1269774,-35.22654,4.233099,7.159876
76.557569504,-25.25594,-2.93372,-64.47057,0.7643755,-0.6351214,0.1063457,-35.22654,4.233099,7.159876
76.567701817,-24.13587,-1.519963,-65.2643400000002,0.7690504,-0.6044548,0.06878483,-35.22654,4.233099,7.159876
76.577833653,-18.65999,-2.344655,-66.3633999999997,0.77342,-0.5893955,0.01816085,-36.59493,2.13368,7.559671
76.587966442,-13.433,-3.640598,-67.5235300000002,0.7999226,-0.6214463,0.03649715,-36.59493,2.13368,7.559671
76.598098278,-15.79759,-3.110439,-67.7066999999997,0.8281665,-0.6392119,0.08092629,-36.59493,2.13368,7.559671
76.608230114,-20.46454,-1.225431,-67.82882,0.8031156,-0.6094729,0.07320484,-36.59493,2.13368,7.559671
76.618362904,-21.39793,-0.341833,-69.3552999999998,0.7901595,-0.5649093,0.03562842,-36.59493,2.13368,7.559671
76.628494739,-17.41547,-2.815907,-71.5534300000002,0.8073478,-0.5681663,-0.01789717,-36.92493,-0.03185749,8.033482
76.638626575,-12.56184,-5.761232,-72.8967399999999,0.8660291,-0.6073174,-0.00962667,-36.92493,-0.03185749,8.033482
76.648759365,-14.30417,-5.231073,-72.0419100000001,0.9295055,-0.6569998,0.06039981,-36.92493,-0.03185749,8.033482
76.658891201,-20.34009,-0.695272100000002,-72.3471999999999,0.8865601,-0.6492756,0.09504918,-36.92493,-0.03185749,8.033482
76.669023514,-23.94919,3.428184,-73.6294399999998,0.8066446,-0.6248702,0.07993653,-36.92493,-0.03185749,8.033482
76.679155826,-19.59337,1.366456,-74.4842700000002,0.7867564,-0.5588377,0.01440055,-37.2394,-3.218355,8.902927
76.689288139,-12.18849,-3.640598,-74.5453299999998,0.8486621,-0.5221373,0.005953223,-37.2394,-3.218355,8.902927
76.699419975,-8.45492799999999,-6.11467099999999,-73.8736799999997,0.8727542,-0.5057681,0.02921289,-37.2394,-3.218355,8.902927
76.709552765,-10.50838,-5.879045,-72.8356700000001,0.8832176,-0.4833501,0.0374914,-37.2394,-3.218355,8.902927
76.717151165,-13.55746,-5.054354,-70.8207200000001,0.9001096,-0.4706225,0.03900997,-37.2394,-3.218355,8.902927
76.727283955,-16.73098,-4.642008,-69.6605999999999,0.939726,-0.4432428,0.03579317,-36.80669,-6.785518,8.963778
76.73741579,-20.27786,-4.11185,-68.4394099999999,0.9854157,-0.4508454,0.06533013,-36.80669,-6.785518,8.963778
76.747548103,-26.43823,-2.462468,-67.9509400000003,0.9840924,-0.4634955,0.05902639,-36.80669,-6.785518,8.963778
76.757680416,-30.04733,1.307549,-67.8898800000001,0.9059877,-0.4693179,0.01779579,-36.80669,-6.785518,8.963778
76.767812729,-28.67836,1.366456,-66.7297599999999,0.8851597,-0.4720716,-0.001083249,-36.02795,-9.267492,9.010605
76.777944565,-25.00703,0.6595777,-65.9359900000002,0.9033011,-0.4874515,-0.004929916,-36.02795,-9.267492,9.010605
76.788077354,-20.21564,0.2472321,-64.89798,0.8974919,-0.4946111,0.01096382,-36.02795,-9.267492,9.010605
76.79820919,-16.79321,-0.2829265,-64.47057,0.8902746,-0.5028858,0.01189252,-36.02795,-9.267492,9.010605
76.808341026,-14.36639,-3.346065,-63.6157400000001,0.8970543,-0.4999336,0.0114338,-36.02795,-9.267492,9.010605
76.818473816,-11.87736,-6.998269,-60.86808,0.9304462,-0.4860477,0.0197531,-36.70091,-12.46501,9.055182
76.828605652,-9.761674,-9.53125000000003,-58.97524,0.9513883,-0.4846081,0.0005082524,-36.70091,-12.46501,9.055182
76.838737488,-8.08157300000002,-10.47375,-57.4487600000001,0.9763085,-0.4975021,-0.001867941,-36.70091,-12.46501,9.055182
76.848870277,-5.219179,-10.47375,-56.22758,0.9684158,-0.4849899,-0.002826496,-36.70091,-12.46501,9.055182
76.859002113,-2.916819,-10.17922,-55.80017,0.944412,-0.4639318,-0.008151168,-36.70091,-12.46501,9.055182
76.869134426,0.1944789,-9.64906199999999,-55.3117,0.9420281,-0.4155994,-0.0128789,-36.29206,-14.93843,9.477631
76.879266739,2.372387,-9.05999799999999,-55.37275,0.93622,-0.3681606,-0.00651876,-36.29206,-14.93843,9.477631
76.889399052,3.368003,-8.58874499999998,-55.43381,0.9322752,-0.3101218,-0.00688671,-36.29206,-14.93843,9.477631
76.899530888,3.243551,-9.41343699999997,-54.82322,0.9494511,-0.2699913,-0.02557554,-36.29206,-14.93843,9.477631
76.907130241,1.750128,-11.00391,-54.82322,0.957359,-0.2345178,-0.01631046,-36.29206,-14.93843,9.477631
76.917262077,-1.921203,-14.18486,-53.11356,0.9884818,-0.2319693,-0.02877099,-35.22044,-16.75776,9.516663
76.927394867,-6.65037599999998,-17.13019,-50.48802,0.9972547,-0.2347914,-0.02730678,-35.22044,-16.75776,9.516663
76.937526703,-11.93958,-17.48363,-47.43506,1.006279,-0.2651746,-0.02348843,-35.22044,-16.75776,9.516663
76.947659492,-16.66875,-17.01238,-45.66434,0.989386,-0.3310928,-0.02029587,-35.22044,-16.75776,9.516663
76.957791328,-17.9755,-16.3055,-44.13787,0.9751956,-0.3747107,-0.0151182,-35.22044,-16.75776,9.516663
76.967923164,-15.92204,-14.71502,-43.16092,0.9650981,-0.3939147,0.01038956,-35.1878,-18.50994,9.544863
76.978055954,-14.36639,-13.12455,-43.22198,0.9511174,-0.401912,-0.0055878,-35.1878,-18.50994,9.544863
76.98818779,-12.25071,-12.77111,-42.06186,0.9649276,-0.3745932,0.006570267,-35.1878,-18.50994,9.544863
76.998320103,-8.766058,-12.00532,-40.29114,0.9544054,-0.3375254,-0.005923451,-35.1878,-18.50994,9.544863
77.008452415,-4.908049,-12.12314,-38.58148,0.9648472,-0.3089392,-0.0111431,-35.1878,-18.50994,9.544863
77.018584728,-4.036886,-11.35735,-36.44441,0.9594882,-0.2477742,-0.03901326,-33.71434,-19.5864,10.83996
77.028716564,-5.903665,-12.29986,-35.28429,0.9738084,-0.2158404,-0.0519365,-33.71434,-19.5864,10.83996
77.038849354,-12.00181,-12.88892,-33.75781,0.9831019,-0.1665148,-0.06387021,-33.71434,-19.5864,10.83996
77.04898119,-18.97112,-13.71361,-33.20827,0.9956374,-0.1491924,-0.08551533,-33.71434,-19.5864,10.83996
77.059113026,-23.45138,-14.77393,-32.90298,0.9941003,-0.1451923,-0.07006913,-33.71434,-19.5864,10.83996
77.069245815,-24.38477,-15.77534,-32.04815,0.9961899,-0.1168478,-0.04153243,-32.9392,-22.06219,11.26589
77.079377651,-23.26471,-17.42472,-30.82697,1.014122,-0.1179356,-0.01687853,-32.9392,-22.06219,11.26589
77.089509487,-22.08241,-17.66035,-29.91108,1.030257,-0.129847,-0.01010684,-32.9392,-22.06219,11.26589
77.097108841,-21.52238,-17.07128,-29.78896,1.024808,-0.1682093,-0.01985434,-32.9392,-22.06219,11.26589
77.107241154,-21.83351,-14.65612,-28.07931,0.9965275,-0.203516,-0.04654337,-32.9392,-22.06219,11.26589
77.117373467,-24.82035,-12.94783,-26.0033,0.9681107,-0.2289954,-0.05680496,-32.54228,-23.52083,10.91361
77.127505779,-28.74059,-13.12455,-25.57588,0.9649259,-0.2470933,-0.07518893,-32.54228,-23.52083,10.91361
77.137637615,-29.4873,-12.06423,-25.33164,0.96288,-0.231297,-0.09253201,-32.54228,-23.52083,10.91361
77.147770405,-25.69152,-11.18063,-25.33164,0.9783762,-0.2234768,-0.09730072,-32.54228,-23.52083,10.91361
77.157902241,-21.0868,-10.8861,-25.698,0.9787704,-0.2161354,-0.08859804,-32.54228,-23.52083,10.91361
77.168034077,-19.09557,-10.17922,-25.08741,0.9627153,-0.2101187,-0.1050332,-31.79301,-24.60696,11.31717
77.178166866,-17.10434,-10.47375,-22.88928,0.9790227,-0.1900353,-0.09240167,-31.79301,-24.60696,11.31717
77.188298702,-15.42424,-9.118904,-21.30174,0.9689978,-0.1986921,-0.13105,-31.79301,-24.60696,11.31717
77.198431015,-14.80198,-9.17781099999998,-20.38585,0.9701414,-0.2119123,-0.1489298,-31.79301,-24.60696,11.31717
77.208563328,-13.55746,-7.99968,-19.46996,0.9716144,-0.2142942,-0.1460359,-31.79301,-24.60696,11.31717
77.218695641,-12.43739,-5.99685799999999,-17.69925,0.9813597,-0.2194537,-0.1363708,-31.46502,-25.64227,10.9575
77.228827477,-11.7529,-4.818728,-15.86747,0.9770623,-0.2281852,-0.134953,-31.46502,-25.64227,10.9575
77.238960266,-10.38393,-4.229663,-14.27993,0.9667256,-0.213303,-0.1392906,-31.46502,-25.64227,10.9575
77.249092102,-8.766058,-3.994037,-12.75346,0.9708513,-0.1852456,-0.1440452,-31.46502,-25.64227,10.9575
77.259223938,-6.77482799999998,-3.817317,-11.22698,0.9876871,-0.1662358,-0.1434783,-31.46502,-25.64227,10.9575
77.269356728,-4.721371,-3.463878,-10.00579,1.0076,-0.162741,-0.1487275,-31.44477,-26.72983,10.975
77.279488564,-3.414626,-3.228252,-8.54037300000002,1.021243,-0.1697752,-0.1356786,-31.44477,-26.72983,10.975
77.2896204,-3.414626,-1.873402,-6.52542100000001,1.023758,-0.1789462,-0.1352093,-31.44477,-26.72983,10.975
77.297219753,-3.3524,-0.871991600000001,-4.449409,1.014644,-0.1934875,-0.129956,-31.44477,-26.72983,10.975
77.307352543,-3.04127,0.2472321,-2.007043,1.014725,-0.2040723,-0.1232229,-31.44477,-26.72983,10.975
77.317484379,-2.356785,1.189736,0.5574424,1.005962,-0.2026932,-0.1237251,-30.70226,-27.45344,11.37274
77.327616692,-0.925588299999998,1.896614,2.328158,1.020483,-0.1986205,-0.1140279,-30.70226,-27.45344,11.37274
77.337749004,0.00780105600000001,2.544586,4.648407,1.026285,-0.1980034,-0.1043606,-30.70226,-27.45344,11.37274
77.347881317,0.692286499999999,3.781623,6.05276700000002,1.02578,-0.1979458,-0.09760613,-30.70226,-27.45344,11.37274
77.358013153,1.56345,4.311782,8.00666100000002,1.015477,-0.1864554,-0.1024335,-30.3391,-27.09947,10.99128
77.368145943,2.559065,4.252875,9.83843600000001,1.007775,-0.1905189,-0.1169385,-30.3391,-27.09947,10.99128
77.378277779,3.55468,3.84053,11.79233,0.9927725,-0.1978908,-0.1165105,-30.3391,-27.09947,10.99128
77.388409615,5.670363,3.66381,13.99046,0.983605,-0.2056924,-0.1151033,-30.3391,-27.09947,10.99128
77.398542404,8.47053100000001,3.781623,15.76117,0.9631689,-0.2048489,-0.1112938,-30.3391,-27.09947,10.99128
77.40867424,11.5196,3.722716,17.65401,0.9495491,-0.2030501,-0.1147029,-30.69865,-27.45962,10.99363
77.418806076,13.57306,3.781623,19.6079,0.9445958,-0.1952797,-0.1074608,-30.69865,-27.45962,10.99363
77.428938866,15.37761,4.017249,21.98921,0.93825,-0.1919592,-0.1094002,-30.69865,-27.45962,10.99363
77.439070702,16.43545,4.252875,24.43158,0.9494871,-0.1986248,-0.1069728,-30.69865,-27.45962,10.99363
77.449203014,17.30662,5.666632,27.11818,0.9597366,-0.2033711,-0.1055089,-30.69865,-27.45962,10.99363
77.459335327,18.24,6.90366800000001,29.37737,0.9852884,-0.2322174,-0.1064701,-31.07846,-26.7322,10.97849
77.46946764,19.85788,8.31742400000001,32.55244,0.9868762,-0.2481094,-0.09926195,-31.07846,-26.7322,10.97849
77.479599476,21.66243,9.31883500000001,35.9107,0.9954222,-0.2771148,-0.1031627,-31.07846,-26.7322,10.97849
77.48719883,22.7825,9.554461,38.96366,0.9922353,-0.3013021,-0.09936249,-31.07846,-26.7322,10.97849
77.497330666,24.40037,10.20243,42.87144,0.9899195,-0.3124861,-0.1032529,-31.07846,-26.7322,10.97849
77.507463455,25.64489,10.43806,46.59605,0.9991198,-0.3113585,-0.09357576,-31.46608,-25.99139,11.78473
77.517595291,26.01825,10.73259,50.44278,1.0044,-0.3012467,-0.1036739,-31.46608,-25.99139,11.78473
77.527727127,26.3916,10.96822,53.49574,1.001396,-0.2930078,-0.09980358,-31.46608,-25.99139,11.78473
77.537859917,26.20493,10.26134,56.5487,1.021709,-0.2873501,-0.08043707,-31.46608,-25.99139,11.78473
77.547991753,24.83595,9.259929,60.0290699999998,1.022218,-0.2921109,-0.07224266,-31.46608,-25.99139,11.78473
77.558124066,24.58705,8.140705,63.02097,1.006217,-0.2961206,-0.0737402,-32.91534,-23.15594,10.90429
77.568256378,25.64489,6.66804200000002,65.9518099999999,0.9921286,-0.2948534,-0.08197714,-32.91534,-23.15594,10.90429
77.578388691,27.5739,5.607725,68.6384099999999,0.9961846,-0.31132,-0.08682757,-32.91534,-23.15594,10.90429
77.588520527,29.19177,5.666632,70.8976100000002,1.006579,-0.3357709,-0.07044666,-32.91534,-23.15594,10.90429
77.598653316,29.68958,5.607725,73.5231500000001,1.019064,-0.3696026,-0.07627779,-32.91534,-23.15594,10.90429
77.608785152,29.06732,5.372099,76.2097500000001,1.022663,-0.3997691,-0.04400258,-33.68951,-21.32519,11.68955
77.618917942,27.13832,5.313192,79.14059,1.020712,-0.4030446,-0.03002074,-33.68951,-21.32519,11.68955
77.629049778,25.39599,4.84194,80.9723699999999,1.007615,-0.4084,-0.02234525,-33.68951,-21.32519,11.68955
77.639181614,24.15147,3.958343,83.5979099999998,0.9954699,-0.4146149,-0.003570527,-33.68951,-21.32519,11.68955
77.649314403,22.59582,2.426773,86.34557,1.014729,-0.4002543,0.01581197,-33.68951,-21.32519,11.68955
77.659446239,24.2137,2.898025,89.5816999999998,1.029428,-0.3599893,0.01400624,-34.47502,-18.48069,11.63689
77.669578552,26.51606,4.665221,91.9019499999998,1.002585,-0.33311,-0.04053321,-34.47502,-18.48069,11.63689
77.677177429,28.63174,6.02007100000003,92.6957200000001,0.9773897,-0.333579,-0.07051723,-34.47502,-18.48069,11.63689
77.687309742,30.56074,6.84476199999999,93.6726700000002,0.9586455,-0.4002899,-0.09966192,-34.47502,-18.48069,11.63689
77.697442055,29.87626,6.78585500000001,94.6496200000003,0.9398437,-0.4686867,-0.1013051,-34.47502,-18.48069,11.63689
77.707574367,25.27154,6.13788400000002,94.8327899999998,0.9459271,-0.5112056,-0.0458877,-35.93463,-15.27654,11.12972
77.717706203,20.35569,5.84335099999999,95.8708,0.9467134,-0.5049573,0.001900096,-35.93463,-15.27654,11.12972
77.727838993,16.311,6.49132300000001,96.4813899999999,0.9361947,-0.4791573,0.02750352,-35.93463,-15.27654,11.12972
77.737970829,15.19093,5.666632,97.3362199999997,0.9361045,-0.4629145,0.004375863,-35.93463,-15.27654,11.12972
77.748102665,17.24439,4.252875,97.7636299999998,0.8929498,-0.4631408,-0.03675257,-35.93463,-15.27654,11.12972
77.758235455,20.72904,2.014427,97.5194000000001,0.8727793,-0.4814635,-0.06531437,-36.74714,-10.98196,11.05372
77.76836729,21.3513,-0.04730047,96.6035100000002,0.8895273,-0.5177044,-0.02047204,-36.74714,-10.98196,11.05372
77.778499603,17.43107,-1.166524,97.1530500000002,0.9317915,-0.5261962,0.02063536,-36.74714,-10.98196,11.05372
77.788631916,8.65720799999998,-1.637776,98.2521100000002,0.9994829,-0.501018,0.07056659,-36.74714,-10.98196,11.05372
77.798764229,2.372387,2.839119,97.45834,0.9595162,-0.4850339,0.05312612,-36.74714,-10.98196,11.05372
77.808896065,-0.1166508,5.902257,94.89385,0.8715932,-0.4798284,0.008998613,-37.5529,-7.049899,10.98356
77.819028854,5.048103,4.84194,92.8788999999999,0.8168139,-0.5353552,-0.03662163,-37.5529,-7.049899,10.98356
77.82916069,11.2707,3.958343,90.61971,0.80755,-0.6290625,-0.06242206,-37.5529,-7.049899,10.98356
77.839292526,16.74658,4.370688,88.8489999999999,0.8217972,-0.6976501,-0.06012002,-37.5529,-7.049899,10.98356
77.849425316,15.31539,5.136473,86.5287499999998,0.814309,-0.7399359,-0.02066124,-37.5529,-7.049899,10.98356
77.859557152,9.71504999999999,6.84476199999999,84.5137900000001,0.8050557,-0.7502685,0.02175698,-36.87775,-3.563675,10.11273
77.867156506,6.29262299999999,6.609136,82.3767199999998,0.7744699,-0.7520426,0.01250586,-36.87775,-3.563675,10.11273
77.877288341,8.78165999999999,4.606314,80.6060099999997,0.7509815,-0.7334222,0.00476453,-36.87775,-3.563675,10.11273
77.887421131,17.36884,3.722716,79.9343599999997,0.7744963,-0.7427499,-0.02993839,-36.87775,-3.563675,10.11273
77.897552967,26.45383,4.488501,78.1025799999998,0.7704536,-0.7183548,-0.05788421,-36.87775,-3.563675,10.11273
77.90768528,30.80965,5.96116399999999,75.9044600000003,0.782811,-0.6981001,-0.02306528,-36.92817,-0.6696908,9.686958
77.917817593,32.05417,7.31601399999998,72.4240799999997,0.7674642,-0.6686946,-0.02255909,-36.92817,-0.6696908,9.686958
77.927949905,28.94287,6.66804200000002,69.6764200000001,0.7229151,-0.6450258,0.01067277,-36.92817,-0.6696908,9.686958
77.938081741,22.90695,6.726949,65.5243999999999,0.6907104,-0.6303362,0.003865606,-36.92817,-0.6696908,9.686958
77.948214531,17.43107,6.31460299999997,61.6776699999999,0.6922118,-0.6412532,0.02604325,-36.92817,-0.6696908,9.686958
77.958346367,13.57306,8.140705,60.0290699999998,0.686128,-0.6226516,0.05453793,-36.60695,2.154286,8.823347
77.968478203,11.14625,11.91072,58.2583500000001,0.6818502,-0.6276957,0.03569666,-36.60695,2.154286,8.823347
77.978610992,10.89734,14.67933,55.14434,0.6565491,-0.6189046,0.01297051,-36.60695,2.154286,8.823347
77.988742828,7.350463,15.56293,51.11443,0.6254714,-0.6178491,-0.003996585,-36.60695,2.154286,8.823347
77.998874664,5.172555,14.14917,48.06147,0.576072,-0.6394756,0.001620105,-35.61416,4.973909,7.966116
78.009007454,3.55468,12.20525,45.61911,0.5646735,-0.6746866,0.02419481,-35.61416,4.973909,7.966116
78.01913929,2.994647,11.32166,43.54309,0.5696435,-0.6876705,0.0290052,-35.61416,4.973909,7.966116
78.029271603,3.990262,10.37915,42.87144,0.5724003,-0.6707064,0.02953133,-35.61416,4.973909,7.966116
78.039403915,7.72381900000001,10.67369,40.49014,0.57926,-0.669425,0.004941784,-35.61416,4.973909,7.966116
78.049536228,9.59059799999999,10.08462,37.19294,0.5593358,-0.6714767,0.009228927,-34.91674,7.076652,7.496758
78.057135582,9.34169399999999,9.966806,34.5674,0.5446356,-0.6618247,0.01886274,-34.91674,7.076652,7.496758
78.067267418,6.66597800000002,9.49555499999999,30.78173,0.5540232,-0.6842949,0.04103589,-34.91674,7.076652,7.496758
78.077399254,3.430228,8.31742400000001,28.15619,0.5450926,-0.6711048,0.06227336,-34.91674,7.076652,7.496758
78.087532043,0.692286499999999,7.61054599999998,25.40852,0.5542236,-0.658024,0.0560519,-34.91674,7.076652,7.496758
78.097663879,0.754512400000002,7.66945300000002,22.84404,0.5764579,-0.6433627,0.05276292,-34.92918,8.15082,6.657866
78.107795715,1.56345,9.554461,19.6079,0.5648593,-0.6483673,0.04451892,-34.92918,8.15082,6.657866
78.117928505,1.003416,11.08603,15.63906,0.5527728,-0.6552458,0.04350786,-34.92918,8.15082,6.657866
78.128060341,-2.605689,11.02712,11.79233,0.532846,-0.661979,0.06515669,-34.92918,8.15082,6.657866
78.138192654,-4.410242,11.26275,9.53313999999999,0.5212542,-0.6707587,0.06752067,-34.92918,8.15082,6.657866
78.148324966,-2.667915,9.259929,7.39606899999997,0.5140936,-0.6764058,0.03805458,-34.20647,8.864929,6.274054
78.158457279,-0.3033287,7.08038799999998,4.831584,0.5209954,-0.6921466,0.05734049,-34.20647,8.864929,6.274054
78.168589592,1.25232,5.96116399999999,2.144981,0.5321168,-0.6913958,0.07715528,-34.20647,8.864929,6.274054
78.178721905,0.816738400000003,5.607725,-0.663740899999998,0.5246475,-0.6763287,0.09067979,-34.20647,8.864929,6.274054
78.188853741,-0.614458500000001,4.606314,-3.228226,0.519538,-0.6502222,0.09217037,-34.20647,8.864929,6.274054
78.19898653,-0.7389104,3.722716,-6.58647999999999,0.5005994,-0.6443378,0.0636638,-34.94163,9.224987,5.818972
78.209118366,1.687902,2.780212,-9.578379,0.5031642,-0.6574239,0.05929935,-34.94163,9.224987,5.818972
78.219250202,3.243551,1.248643,-12.50922,0.5204611,-0.6905848,0.06988874,-34.94163,9.224987,5.818972
78.229382992,2.683517,0.2472321,-14.70735,0.541404,-0.7013413,0.09308197,-34.94163,9.224987,5.818972
78.239514828,1.750128,-0.4007396,-17.21078,0.5563297,-0.6880878,0.1008697,-34.94163,9.224987,5.818972
78.249647141,1.065642,-1.107618,-19.7142,0.5761937,-0.6820859,0.1052768,-34.21216,9.576578,5.440996
78.257246018,0.2567049,-0.695272100000002,-20.69115,0.5848764,-0.6742926,0.1033858,-34.21216,9.576578,5.440996
78.26737833,-0.1166508,1.071923,-21.91233,0.5696891,-0.6580754,0.09035264,-34.21216,9.576578,5.440996
78.277510643,1.750128,1.896614,-24.3547,0.5392566,-0.6687964,0.05502504,-34.21216,9.576578,5.440996
78.287642956,5.85704099999999,0.836297300000002,-27.3466,0.5161177,-0.686971,0.04527532,-34.21216,9.576578,5.440996
78.297774792,8.59498199999998,-0.7541786,-31.19333,0.5307591,-0.7006497,0.07182386,-34.20541,9.214056,5.446831
78.307907581,8.15940100000001,-1.519963,-33.75781,0.5536088,-0.7075154,0.09551292,-34.20541,9.214056,5.446831
78.318039417,5.048103,-2.344655,-35.65064,0.5681227,-0.7024837,0.104247,-34.20541,9.214056,5.446831
78.328171253,1.87458,-3.699504,-36.68865,0.6036412,-0.7041905,0.09902694,-34.20541,9.214056,5.446831
78.338304043,-1.112266,-3.640598,-37.29924,0.6176817,-0.6963905,0.09328934,-34.20541,9.214056,5.446831
78.348435879,-3.3524,-2.285748,-38.45936,0.6146601,-0.6880947,0.1034329,-35.30178,8.865871,5.88451
78.358568192,-2.916819,-1.932309,-39.86372,0.5888765,-0.6835397,0.09420778,-35.30178,8.865871,5.88451
78.368700504,-1.734526,-2.93372,-42.18397,0.5766805,-0.6769256,0.08695231,-35.30178,8.865871,5.88451
78.378832817,-2.045655,-4.759821,-44.07681,0.5907515,-0.6748536,0.08988835,-35.30178,8.865871,5.88451
78.38896513,-4.534693,-6.64483000000001,-46.0307,0.6520374,-0.6787177,0.09148575,-35.30178,8.865871,5.88451
78.399097443,-8.26824999999999,-6.58592300000003,-47.00765,0.6973032,-0.6780868,0.06892404,-35.63793,7.061826,6.289305
78.409229279,-11.19287,-4.170756,-48.47307,0.7042535,-0.6808563,0.02454153,-35.63793,7.061826,6.289305
78.419362068,-11.37955,-1.57887,-50.24378,0.694235,-0.6951623,0.003252784,-35.63793,7.061826,6.289305
78.429493904,-11.44177,0.3061386,-51.95344,0.7200187,-0.7020622,0.0206762,-35.63793,7.061826,6.289305
78.43962574,-11.81513,2.48568,-55.43381,0.712867,-0.7189947,0.02737704,-35.63793,7.061826,6.289305
78.447225094,-11.69068,4.193969,-58.0593600000003,0.7033728,-0.7399885,0.0152437,-35.92091,5.680323,6.687872
78.45735693,-11.56623,2.839119,-60.3796000000001,0.6541674,-0.7725723,-0.01342363,-35.92091,5.680323,6.687872
78.467489719,-11.62845,-3.051533,-61.2344299999999,0.6548965,-0.8043228,0.006777044,-35.92091,5.680323,6.687872
78.477621555,-8.89051100000002,-5.99685799999999,-60.86808,0.6439586,-0.8380387,0.03369909,-35.92091,5.680323,6.687872
78.487753868,-3.165722,-7.23389499999999,-62.45562,0.6521877,-0.7902927,0.06181078,-35.92091,5.680323,6.687872
78.497886181,1.314546,-9.29562399999998,-64.22633,0.7139188,-0.6970076,0.1027046,-36.62035,3.873499,6.773264
78.508018494,4.612522,-7.99968,-65.5085800000002,0.7759335,-0.5749118,0.1185686,-36.62035,3.873499,6.773264
78.51815033,6.41707400000002,-7.05717599999998,-66.0581099999999,0.8113263,-0.5028431,0.08407132,-36.62035,3.873499,6.773264
78.528283119,6.16817000000002,-6.05576499999998,-66.3023499999999,0.843625,-0.460896,0.03936776,-36.62035,3.873499,6.773264
78.538414955,2.372387,-4.11185,-68.4394099999999,0.8247924,-0.4642717,0.003603318,-36.62035,3.873499,6.773264
78.548546791,-3.850208,-1.755589,-69.5384800000002,0.7974067,-0.5539195,0.01395604,-36.57467,1.046117,7.577173
78.558679581,-13.55746,-0.930898099999999,-68.25623,0.7828783,-0.6214783,0.04755174,-36.57467,1.046117,7.577173
78.568811417,-23.07803,0.3061386,-67.5845899999997,0.7587239,-0.6446768,0.07156703,-36.57467,1.046117,7.577173
78.578943253,-24.82035,1.719895,-68.74471,0.7541145,-0.6134537,0.04990756,-36.57467,1.046117,7.577173
78.589076042,-19.09557,0.3061386,-71.0038999999999,0.7875248,-0.5855587,0.002281361,-36.9193,-0.3339584,8.038343
78.599207878,-10.94397,-3.287159,-71.3702499999998,0.8652501,-0.5782163,-0.001845336,-36.9193,-0.3339584,8.038343
78.609340668,-6.46369799999998,-3.758411,-70.8817800000002,0.880298,-0.5836558,0.02568706,-36.9193,-0.3339584,8.038343
78.619472504,-7.39708700000001,-1.932309,-70.0269499999998,0.8676828,-0.5927429,0.04831479,-36.9193,-0.3339584,8.038343
78.629604816,-12.12626,-0.989804699999999,-68.6225900000003,0.8449755,-0.5598843,0.06232078,-36.9193,-0.3339584,8.038343
78.63720417,-16.2954,-0.989804699999999,-68.6225900000003,0.8266907,-0.5233961,0.0459454,-37.22483,-3.59427,8.087372
78.647336006,-19.84228,-2.109029,-69.4774200000001,0.8361775,-0.4901843,0.01805344,-37.22483,-3.59427,8.087372
78.657468796,-19.6556,-3.758411,-70.6985999999998,0.875974,-0.4732473,-0.01606848,-37.22483,-3.59427,8.087372
78.667600632,-18.28663,-5.702326,-72.2861399999998,0.9229353,-0.5005888,-0.02951751,-37.22483,-3.59427,8.087372
78.677732468,-18.65999,-5.4667,-72.0419100000001,0.9644706,-0.5295879,-0.007758035,-37.22483,-3.59427,8.087372
78.687865257,-23.26471,-2.403561,-69.4163599999999,0.967725,-0.5271962,0.03954528,-36.81599,-6.067688,8.509821
78.697997093,-26.74936,2.898025,-66.9739900000002,0.9053978,-0.5151396,0.03506752,-36.81599,-6.067688,8.509821
78.708128929,-25.8782,4.606314,-66.4244599999999,0.8472496,-0.5251135,-0.0008125016,-36.81599,-6.067688,8.509821
78.718261719,-21.02457,2.426773,-65.9359900000002,0.8590318,-0.5254037,-0.04276449,-36.81599,-6.067688,8.509821
78.728393555,-15.92204,-0.1651135,-65.3253900000001,0.9047042,-0.5179417,-0.05951986,-36.81599,-6.067688,8.509821
78.738525867,-12.99742,-1.461057,-65.3864599999999,0.9398196,-0.529775,-0.06041984,-37.48896,-9.265205,8.554396
78.74865818,-11.87736,-2.874813,-64.8369199999999,0.9593446,-0.5434904,-0.04206211,-37.48896,-9.265205,8.554396
78.758790493,-12.62407,-4.759821,-62.9440900000002,0.9729441,-0.556478,0.00813012,-37.48896,-9.265205,8.554396
78.768922329,-14.80198,-5.054354,-59.8911299999999,0.9805165,-0.5482365,0.05642225,-37.48896,-9.265205,8.554396
78.779055119,-15.79759,-3.699504,-57.8151199999998,0.9415989,-0.4975938,0.07090721,-37.48896,-9.265205,8.554396
78.789186954,-14.80198,-2.580281,-57.5098200000003,0.9316693,-0.4217484,0.06477153,-36.3439,-11.74956,8.604706
78.79931879,-10.25948,-1.461057,-58.85313,0.9300855,-0.3503295,0.04368883,-36.3439,-11.74956,8.604706
78.80945158,-5.156953,-0.989804699999999,-60.7459599999997,0.9503074,-0.313417,-0.01215533,-36.3439,-11.74956,8.604706
78.819583416,-1.6723,-2.109029,-61.1123100000002,0.9634618,-0.3021564,-0.06228226,-36.3439,-11.74956,8.604706
78.82718277,-0.5522325,-3.876224,-60.4406600000002,0.9671534,-0.3265314,-0.08500495,-36.3439,-11.74956,8.604706
78.837314606,-2.481237,-5.28998,-58.85313,0.9720928,-0.3370695,-0.07729407,-36.30759,-13.91747,9.081999
78.847447395,-7.33486100000001,-6.23248399999998,-57.02135,0.9651384,-0.3898267,-0.01903703,-36.30759,-13.91747,9.081999
78.857579231,-13.37078,-6.880456,-54.82322,0.9593959,-0.4089309,0.01372041,-36.30759,-13.91747,9.081999
78.867711544,-17.9755,-6.52701700000001,-53.72416,0.9459316,-0.4282798,0.02619036,-36.30759,-13.91747,9.081999
78.877843857,-18.65999,-6.11467099999999,-52.07556,0.9283752,-0.4183812,0.01217245,-36.30759,-13.91747,9.081999
78.88797617,-16.5443,-7.99968,-51.03755,0.9288368,-0.4107926,-0.005181806,-35.52885,-16.39944,9.128826
78.898108005,-12.25071,-9.82578199999997,-49.87743,0.9257798,-0.395814,-0.005157489,-35.52885,-16.39944,9.128826
78.908240795,-7.70821700000002,-11.47516,-48.41201,0.9347598,-0.3676968,-0.007486626,-35.52885,-16.39944,9.128826
78.918372631,-5.281405,-13.18345,-46.94659,0.9520144,-0.3465854,0.01094011,-35.52885,-16.39944,9.128826
78.928504467,-3.97466,-14.30268,-45.7254,0.9598947,-0.3077376,0.01876474,-35.52885,-16.39944,9.128826
78.938637257,-3.601304,-15.89315,-43.83257,0.9605178,-0.2643706,-0.002372576,-34.8122,-19.23015,10.0023
78.948769093,-3.3524,-17.248,-42.91668,0.9709907,-0.2443283,0.01072634,-34.8122,-19.23015,10.0023
78.958901405,-3.850208,-17.71926,-42.36715,0.9664046,-0.2253759,0.02330153,-34.8122,-19.23015,10.0023
78.969033718,-5.343631,-16.3055,-41.08491,0.9722567,-0.2267997,0.02138336,-34.8122,-19.23015,10.0023
78.979166031,-7.45931300000001,-13.94924,-39.86372,1.008258,-0.2313055,0.02725711,-34.8122,-19.23015,10.0023
78.989298344,-10.44616,-9.236717,-37.97089,1.029883,-0.2539613,0.0185783,-34.04583,-21.0475,10.03843
78.999430656,-12.9352,-5.761232,-34.79581,1.023259,-0.2686808,0.002122909,-34.04583,-21.0475,10.03843
79.009562492,-14.98865,-4.170756,-31.07121,0.9942746,-0.2821714,-0.01969554,-34.04583,-21.0475,10.03843
79.017161846,-17.35324,-5.054354,-28.9952,0.9695392,-0.2816118,-0.04340302,-34.04583,-21.0475,10.03843
79.027293682,-22.08241,-6.76264300000001,-27.0413,0.9699264,-0.2634602,-0.06990319,-34.04583,-21.0475,10.03843
79.037426472,-28.67836,-8.17639999999998,-26.24753,0.9796883,-0.2103209,-0.08858317,-32.93559,-22.06837,10.88679
79.047558308,-32.41192,-9.118904,-26.12541,0.9897255,-0.1904489,-0.0938226,-32.93559,-22.06837,10.88679
79.057690144,-29.54953,-10.35594,-26.18647,0.9908074,-0.1577743,-0.06720939,-32.93559,-22.06837,10.88679
79.067822933,-25.44261,-12.12314,-25.27059,0.9904452,-0.1214063,-0.05892881,-32.93559,-22.06837,10.88679
79.077954769,-22.33132,-13.65471,-24.47682,1.014678,-0.1176933,-0.04389932,-32.93559,-22.06837,10.88679
79.088087082,-22.14464,-12.41767,-25.08741,1.029673,-0.1644315,-0.03431014,-32.89402,-23.89437,10.09457
79.098219395,-23.20248,-9.64906199999999,-24.84317,1.030437,-0.1944216,-0.03340754,-32.89402,-23.89437,10.09457
79.108351707,-23.76251,-5.93795199999998,-24.59893,1.007291,-0.2177308,-0.02241873,-32.89402,-23.89437,10.09457
79.118483543,-25.31816,-2.992626,-25.63694,0.9922398,-0.2207213,-0.01908613,-32.89402,-23.89437,10.09457
79.128616333,-26.81159,-1.57887,-25.698,0.9755278,-0.193979,-0.04416429,-32.89402,-23.89437,10.09457
79.138748169,-27.5583,-1.107618,-25.3927,0.9655641,-0.16465,-0.0566732,-31.47853,-24.91722,10.94583
79.148880005,-27.5583,-1.755589,-25.20953,0.956257,-0.1546388,-0.06536155,-31.47853,-24.91722,10.94583
79.159012795,-24.38477,-1.343244,-25.27059,0.9656039,-0.1624364,-0.07934813,-31.47853,-24.91722,10.94583
79.16914463,-22.14464,0.4239517,-25.02635,0.9665036,-0.1546862,-0.07932916,-31.47853,-24.91722,10.94583
79.179276466,-20.46454,0.0705125599999998,-24.3547,0.9625869,-0.1522794,-0.07740388,-31.45721,-25.65566,10.13611
79.189409256,-20.46454,0.777390799999998,-23.43881,0.960322,-0.1650379,-0.09480891,-31.45721,-25.65566,10.13611
79.199541092,-19.78005,1.543175,-22.4008,0.9814015,-0.179528,-0.1097447,-31.45721,-25.65566,10.13611
79.207140446,-18.65999,2.30896,-20.75221,0.9809526,-0.1843446,-0.1068609,-31.45721,-25.65566,10.13611
79.217272759,-17.66437,4.135062,-18.79832,0.9863734,-0.1953321,-0.09577194,-31.45721,-25.65566,10.13611
79.227405071,-16.66875,6.25569700000002,-16.53913,0.9960393,-0.1889741,-0.09669844,-31.06644,-26.75281,9.714809
79.237537384,-14.36639,6.726949,-14.40205,1.004759,-0.1841149,-0.1019735,-31.06644,-26.75281,9.714809
79.24766922,-11.62845,5.725538,-11.28803,1.032301,-0.2196639,-0.0966709,-31.06644,-26.75281,9.714809
79.25780201,-9.51277,5.548819,-5.487415,1.053567,-0.2661906,-0.0692108,-31.06644,-26.75281,9.714809
79.267933846,-9.20164,7.96398500000002,1.351211,1.058794,-0.310977,-0.04950909,-31.06644,-26.75281,9.714809
79.278065682,-11.00619,10.43806,6.90759599999999,1.041313,-0.3158651,-0.03991371,-30.67208,-27.85614,8.914402
79.288198471,-11.06842,12.14635,10.38797,1.041401,-0.2690575,-0.05477187,-30.67208,-27.85614,8.914402
79.298330307,-8.01934599999999,11.26275,11.54809,1.034315,-0.2292569,-0.08896555,-30.67208,-27.85614,8.914402
79.308462143,-3.04127,8.670863,11.42597,1.021478,-0.2015032,-0.1125839,-30.67208,-27.85614,8.914402
79.318594933,1.750128,5.607725,11.54809,0.9922803,-0.1983435,-0.1126524,-30.67208,-27.85614,8.914402
79.328726769,5.359233,2.48568,11.85339,0.9719757,-0.2105963,-0.1122485,-31.02802,-28.22247,8.537653
79.338859081,8.40830500000001,-0.2829265,12.89139,0.9620087,-0.23961,-0.101238,-31.02802,-28.22247,8.537653
79.348991394,12.7019,-2.109029,13.99046,0.9562794,-0.2540678,-0.0897027,-31.02802,-28.22247,8.537653
79.359123707,18.86226,-2.462468,14.41787,0.9460205,-0.2492908,-0.08778869,-31.02802,-28.22247,8.537653
79.36925602,25.33376,-1.40215,14.47893,0.9341092,-0.2218426,-0.09258588,-31.02802,-28.22247,8.537653
79.379388332,30.00071,-0.577458999999998,14.41787,0.9429564,-0.1782796,-0.0992251,-31.40469,-27.85139,8.907442
79.389520168,32.80088,0.954110300000003,15.08952,0.9497667,-0.1316136,-0.08221801,-31.40469,-27.85139,8.907442
79.397119522,33.11201,1.955521,15.94435,0.9563294,-0.1091865,-0.06960659,-31.40469,-27.85139,8.907442
79.407251358,30.18739,2.132241,17.9593,0.966317,-0.0933718,-0.04204156,-31.40469,-27.85139,8.907442
79.417384148,25.33376,2.898025,20.15743,0.9759322,-0.09012953,-0.01305686,-31.40469,-27.85139,8.907442
79.427515984,19.36007,4.665221,22.53874,0.9960558,-0.1107779,-0.0125668,-31.4224,-27.11914,9.33806
79.43764782,15.00426,6.07897699999998,25.5917,1.035368,-0.1507969,-0.0299232,-31.4224,-27.11914,9.33806
79.447780609,13.94641,7.61054599999998,28.94995,1.043336,-0.2130009,-0.06526244,-31.4224,-27.11914,9.33806
79.457912445,15.00426,8.25851700000003,32.79668,1.017627,-0.2712667,-0.06448892,-31.4224,-27.11914,9.33806
79.468044758,16.80881,8.90648899999999,37.74247,1.010772,-0.3252898,-0.03904764,-31.4224,-27.11914,9.33806
79.478177071,18.92449,10.08462,42.68827,0.9827921,-0.3459131,-0.04785002,-31.7437,-26.03681,8.87537
79.488309384,21.3513,10.7915,47.20665,0.9687328,-0.3466166,-0.05995151,-31.7437,-26.03681,8.87537
79.498441219,23.71589,10.90931,51.05337,0.9798509,-0.3430412,-0.04881653,-31.7437,-26.03681,8.87537
79.508574009,25.33376,9.259929,54.35057,1.00259,-0.3331276,-0.04246344,-31.7437,-26.03681,8.87537
79.518705845,25.70712,7.90507799999998,57.09823,1.000421,-0.3131752,-0.02843222,-31.7437,-26.03681,8.87537
79.528838635,23.34253,6.78585500000001,59.4795400000001,1.026929,-0.2934566,-0.01143225,-32.85612,-25.30464,8.85326
79.538970471,17.9911,5.548819,63.5094400000001,1.075773,-0.2725431,0.01141847,-32.85612,-25.30464,8.85326
79.549102306,12.26631,5.313192,68.39417,1.072964,-0.2342627,0.0192143,-32.85612,-25.30464,8.85326
79.559235096,10.46176,7.31601399999998,71.0807799999997,1.016478,-0.2142144,-0.01611434,-32.85612,-25.30464,8.85326
79.569366932,12.63967,7.37491999999999,72.4851399999998,1.001625,-0.227238,-0.05188926,-32.85612,-25.30464,8.85326
79.579499245,14.00864,7.61054599999998,73.5231500000001,1.006539,-0.2796331,-0.07032607,-33.64943,-22.44675,9.621988
79.587098122,14.44422,7.84617200000003,74.8053899999999,1.002636,-0.3309358,-0.06755114,-33.64943,-22.44675,9.621988
79.597230434,11.89296,7.78726600000001,77.5530500000001,1.011821,-0.3838878,-0.04447895,-33.64943,-22.44675,9.621988
79.607362747,7.661593,7.84617200000003,80.6670699999999,1.006275,-0.4247462,-0.009355026,-33.64943,-22.44675,9.621988
79.61749506,5.359233,9.02430199999998,83.1094400000002,0.9806548,-0.4469926,0.01417597,-33.64943,-22.44675,9.621988
79.627626896,5.85704099999999,8.02289200000001,85.4907499999999,0.9634004,-0.4727941,0.0121458,-34.80439,-19.24354,9.180908
79.637759685,8.65720799999998,5.78444499999998,87.2003999999998,0.9460964,-0.4890532,-0.004822989,-34.80439,-19.24354,9.180908
79.647891521,14.00864,2.662399,87.9941700000001,0.9321193,-0.498938,-0.01549636,-34.80439,-19.24354,9.180908
79.658023357,20.66682,-0.4596461,89.7038299999997,0.9336105,-0.4976282,-0.0323789,-34.80439,-19.24354,9.180908
79.668156147,25.70712,-2.874813,91.9019499999998,0.943778,-0.4955384,-0.02414486,-34.80439,-19.24354,9.180908
79.678287983,28.81842,-3.699504,93.7337299999997,0.9513629,-0.4798347,-0.006719783,-35.89095,-16.40428,8.683058
