Time (s),Gyroscope X (deg/s),Gyroscope Y (deg/s),Gyroscope Z (deg/s),Accelerometer X (g),Accelerometer Y (g),Accelerometer Z (g),Magnetometer X (uT),Magnetometer Y (uT),Magnetometer Z (uT)
13.734742165,11.6586,2.31894,2.022861,-0.3110687,-0.2960078,0.05092503,-1.442968,53.39128,-10.64345
13.744740009,7.41280299999999,3.862102,-5.171688,-0.377202,-0.3294392,0.04530602,-1.442968,53.39128,-10.64345
13.754738331,3.35161,4.514977,-11.08585,-0.3035473,-0.3068824,0.06766488,-1.442968,53.39128,-10.64345
13.764736175,-0.03271778,6.71101499999999,-17.73167,-0.2701768,-0.3193172,0.07048137,-1.442968,53.39128,-10.64345
13.774734974,-3.109379,8.254177,-23.95068,-0.2499662,-0.332262,0.04604209,0.4405804,53.02117,-11.07902
13.784732819,-8.093571,9.73798600000003,-30.41358,-0.2307598,-0.3430811,0.04361851,0.4405804,53.02117,-11.07902
13.794730663,-15.16989,12.05273,-37.73008,-0.2502487,-0.394897,0.0522802,0.4405804,53.02117,-11.07902
13.804728985,-21.69242,13.65524,-42.72968,-0.2555372,-0.4510514,0.03411799,0.4405804,53.02117,-11.07902
13.814726829,-26.06128,14.78294,-47.4854,-0.2710139,-0.5099773,0.0006598156,0.4405804,53.02117,-11.07902
13.824724674,-25.01521,14.84229,-51.81432,-0.2654413,-0.5737317,-0.02182656,-0.3089027,53.01555,-11.08458
13.834722519,-23.23075,13.952,-56.4481,-0.2276984,-0.6377303,-0.03431885,-0.3089027,53.01555,-11.08458
13.84472084,-21.69242,14.60488,-60.6550799999999,-0.2065577,-0.5176482,-0.0209865,-0.3089027,53.01555,-11.08458
13.854718685,-24.27681,15.55452,-65.1669199999998,-0.1648474,-0.507057,-0.0157976,-0.3089027,53.01555,-11.08458
13.864717483,-27.59961,17.39444,-71.0810799999999,-0.1236985,-0.4934043,-0.04650172,-0.3089027,53.01555,-11.08458
13.874715328,-29.50714,18.9376,-77.8488300000002,-0.09837509,-0.493097,-0.06760328,-2.556549,52.63194,-9.486731
13.884713173,-30.7378,20.54012,-85.71406,-0.0745752,-0.5150108,-0.07098917,-2.556549,52.63194,-9.486731
13.894711494,-31.2916,21.60846,-93.1525000000001,-0.07374949,-0.5850008,-0.07432261,-2.556549,52.63194,-9.486731
13.904709339,-34.42979,21.90522,-97.3594699999998,-0.1017234,-0.6784604,-0.08429988,-2.556549,52.63194,-9.486731
13.914707184,-37.32186,21.37105,-98.70084,-0.08675334,-0.6978567,-0.1120784,-2.556549,52.63194,-9.486731
13.924705029,-41.50612,20.48076,-100.53,-0.01881661,-0.657355,-0.1342217,-5.553959,52.24325,-7.829937
13.93470335,-44.27511,20.24335,-104.0053,0.04336,-0.6476604,-0.1649615,-5.553959,52.24325,-7.829937
13.944701195,-44.21358,19.94659,-107.6635,0.1117748,-0.6323041,-0.1746563,-5.553959,52.24325,-7.829937
13.954699993,-43.10598,18.87825,-112.6631,0.1533341,-0.6140988,-0.1866978,-5.553959,52.24325,-7.829937
13.964697838,-40.58312,18.8189,-119.9796,0.182359,-0.6541514,-0.1656807,-5.553959,52.24325,-7.829937
13.974695683,-37.75259,19.11566,-126.6255,0.1873485,-0.7124317,-0.1728531,-10.00333,52.60394,-6.252363
13.984694004,-35.90659,18.99695,-131.625,0.2080937,-0.7797958,-0.1977578,-10.00333,52.60394,-6.252363
13.994691849,-36.09119,19.59048,-135.893,0.2050935,-0.9058719,-0.2149489,-10.00333,52.60394,-6.252363
14.004689693,-35.90659,18.22537,-133.9419,0.2109542,-0.8819459,-0.2680872,-10.00333,52.60394,-6.252363
14.014687538,-40.76772,15.37646,-131.686,0.2394731,-0.7664204,-0.2906597,-10.00333,52.60394,-6.252363
14.02468586,-46.85951,12.64625,-132.2348,0.2951104,-0.7191699,-0.2922046,-14.48081,51.13286,-3.826944
14.034683704,-49.32084,10.03475,-133.6981,0.3188869,-0.7138582,-0.2941618,-14.48081,51.13286,-3.826944
14.044682503,-47.96711,8.37288200000001,-137.2953,0.3751883,-0.7798322,-0.2971143,-14.48081,51.13286,-3.826944
14.054680347,-44.02898,8.37288200000001,-143.1485,0.4010449,-0.9373357,-0.3062118,-14.48081,51.13286,-3.826944
14.064678192,-39.47552,10.50957,-147.4774,0.400518,-1.065267,-0.3190995,-14.48081,51.13286,-3.826944
14.074676514,-40.58312,10.39086,-145.8922,0.4003695,-1.058345,-0.3588229,-20.06969,49.20252,-2.246006
14.084674358,-46.61338,7.423244,-140.5878,0.4229158,-1.014595,-0.4057739,-20.06969,49.20252,-2.246006
14.094672203,-52.45903,3.031168,-135.4662,0.4509211,-1.000939,-0.4077405,-20.06969,49.20252,-2.246006
14.104670048,-51.72063,-2.073135,-131.9299,0.4867963,-0.9645016,-0.380055,-20.06969,49.20252,-2.246006
14.114668369,-45.56731,-6.10909600000003,-132.4177,0.5526008,-0.9400123,-0.3950119,-20.06969,49.20252,-2.246006
14.124666214,-36.95266,-6.52456300000001,-139.0025,0.611725,-1.001338,-0.4271638,-26.01706,46.14246,1.015244
14.134665012,-28.39954,-7.94901899999999,-143.7582,0.6091721,-1.072735,-0.4175694,-26.01706,46.14246,1.015244
14.144662857,-24.89214,-8.42383900000002,-144.6118,0.5921878,-1.153386,-0.379233,-26.01706,46.14246,1.015244
14.154660702,-26.24587,-8.30513400000001,-141.8072,0.5835056,-1.184233,-0.3859099,-26.01706,46.14246,1.015244
14.164659023,-36.70652,-11.98498,-134.2468,0.5630831,-1.135307,-0.4117301,-26.01706,46.14246,1.015244
14.174656868,-50.48997,-19.52273,-123.8818,0.5478327,-1.102315,-0.4375551,-31.57618,42.69396,2.991296
14.184654713,-57.5662900000002,-28.60365,-114.6752,0.5716448,-1.098973,-0.4423832,-31.57618,42.69396,2.991296
14.194652557,-54.92036,-36.55686,-108.8829,0.642198,-1.040999,-0.4195495,-31.57618,42.69396,2.991296
14.204650879,-47.47484,-42.90756,-106.8099,0.7264889,-0.9617404,-0.3838236,-31.57618,42.69396,2.991296
14.214648724,-34.55286,-43.73849,-111.5657,0.8167256,-0.9925947,-0.3925874,-35.92699,38.11711,5.43374
14.224647522,-14.24689,-36.43816,-120.4064,0.8883269,-1.044118,-0.4424708,-35.92699,38.11711,5.43374
14.234645367,-0.03271778,-27.77271,-128.6375,0.8695526,-1.030388,-0.4414845,-35.92699,38.11711,5.43374
14.244643211,0.02881546,-21.89683,-130.7105,0.7913638,-1.044615,-0.4466088,-35.92699,38.11711,5.43374
14.254641533,-4.216978,-20.94719,-125.6499,0.7110011,-1.099491,-0.4813907,-35.92699,38.11711,5.43374
14.264639378,-7.66283799999999,-23.85546,-117.9676,0.6583463,-1.124562,-0.5052212,-38.85086,33.93467,8.271816
14.274637222,-8.27817099999997,-29.07846,-111.1998,0.6201841,-1.090266,-0.4984635,-38.85086,33.93467,8.271816
14.284635067,-6.55523999999999,-36.3788,-105.7734,0.6114168,-1.011949,-0.470711,-38.85086,33.93467,8.271816
14.294633389,-4.955376,-44.56943,-101.3226,0.6351309,-0.8990697,-0.4535526,-38.85086,33.93467,8.271816
14.30463171,-5.263042,-50.74208,-97.6643299999998,0.6969082,-0.814332,-0.4077388,-38.85086,33.93467,8.271816
14.314630032,-4.955376,-53.88775,-100.0422,0.7280057,-0.7835542,-0.4039723,-43.27592,30.11044,9.806736
14.324627876,0.5210813,-53.53164,-105.5905,0.7846449,-0.7890234,-0.3806194,-43.27592,30.11044,9.806736
14.334625721,6.428272,-52.87876,-110.2243,0.8477395,-0.8541412,-0.410863,-43.27592,30.11044,9.806736
14.344623566,14.05839,-50.68272,-110.956,0.9097784,-0.9638619,-0.3214491,-43.27592,30.11044,9.806736
14.354621887,31.22616,-45.57842,-115.5288,0.894023,-1.033247,-0.329061,-43.27592,30.11044,9.806736
14.364619732,50.60913,-39.04966,-118.0895,0.8916674,-1.011321,-0.3175767,-45.08172,26.31352,12.26412
14.374617577,61.86971,-34.53888,-118.2724,0.8824745,-0.9372543,-0.328587,-45.08172,26.31352,12.26412
14.384615898,62.6081100000002,-32.5209,-114.8581,0.8847492,-0.8506548,-0.3223918,-45.08172,26.31352,12.26412
14.39461422,56.63939,-31.03709,-112.7241,0.883787,-0.7997815,-0.3367605,-45.08172,26.31352,12.26412
14.404612541,47.84013,-30.74033,-110.834,0.8674526,-0.7609886,-0.3635423,-45.08172,26.31352,12.26412
14.414610386,39.04088,-31.3932,-108.0903,0.890659,-0.7257002,-0.3808205,-46.47848,21.35765,12.27937
14.424608231,30.67237,-31.92738,-103.8833,0.8936653,-0.7563779,-0.394218,-46.47848,21.35765,12.27937
14.434606075,22.98071,-33.29248,-99.7983099999999,0.9113221,-0.7886925,-0.4057263,-46.47848,21.35765,12.27937
14.444604397,20.70398,-34.12341,-96.0790900000001,0.9070018,-0.7921838,-0.4061964,-46.47848,21.35765,12.27937
14.454602242,20.21172,-34.77629,-92.1769599999999,0.9185035,-0.8080848,-0.4162625,-46.47848,21.35765,12.27937
14.464600086,17.01199,-34.36082,-85.1043500000002,0.9102436,-0.8091321,-0.4066763,-48.62719,16.09661,14.35475
14.474598885,11.22786,-35.84463,-78.3366,0.8513299,-0.7869148,-0.4534798,-48.62719,16.09661,14.35475
14.484596729,10.551,-37.56585,-76.8123300000002,0.8211442,-0.7629431,-0.4768835,-48.62719,16.09661,14.35475
14.494595051,14.30453,-38.33743,-77.5439799999998,0.8347462,-0.7343318,-0.4596859,-48.62719,16.09661,14.35475
14.504592896,15.84286,-36.43816,-73.21506,0.8346483,-0.7545547,-0.4391018,-48.62719,16.09661,14.35475
14.51459074,18.48878,-32.69896,-65.8985599999997,0.8306572,-0.7226789,-0.3989026,-49.34273,14.19956,15.58483
14.524588585,17.44272,-26.40761,-61.4477,0.8421915,-0.6614013,-0.3654382,-49.34273,14.19956,15.58483
14.534586907,9.25880099999997,-20.35367,-57.8504299999998,0.8371931,-0.6290384,-0.3759665,-49.34273,14.19956,15.58483
14.544584751,-3.047846,-14.83389,-53.5215,0.8036148,-0.6325526,-0.4218503,-49.34273,14.19956,15.58483
14.554582596,-15.41603,-11.0947,-48.39996,0.7741736,-0.648523,-0.4572096,-49.34273,14.19956,15.58483
14.564581394,-25.50747,-9.373476,-44.01006,0.7553332,-0.6578748,-0.4825388,-49.65545,10.79044,17.59981
14.574579239,-30.67627,-8.18642900000001,-36.87648,0.7530974,-0.7207018,-0.4930474,-49.65545,10.79044,17.59981
14.584577561,-30.98393,-6.22780099999998,-29.55999,0.7672301,-0.7722737,-0.4772657,-49.65545,10.79044,17.59981
14.594575405,-30.79933,-3.556944,-22.97515,0.7583292,-0.8170991,-0.4710172,-49.65545,10.79044,17.59981
14.60457325,-32.3992,-2.251192,-15.7806,0.7319619,-0.8406216,-0.4886725,-49.65545,10.79044,17.59981
14.614571094,-34.30673,-2.073135,-7.85440200000002,0.7084568,-0.8349355,-0.506819,-49.95354,6.987883,18.06881
14.624569416,-36.27579,-3.735002,-0.7817937,0.7011845,-0.8370886,-0.5139843,-49.95354,6.987883,18.06881
14.634567261,-36.70652,-6.64326800000002,7.022464,0.697859,-0.8686494,-0.5570423,-49.95354,6.987883,18.06881
14.644566059,-33.93753,-10.38247,13.79022,0.6919323,-0.890783,-0.5732977,-49.95354,6.987883,18.06881
14.654563904,-29.93787,-14.59649,20.13118,0.6759541,-0.8973424,-0.6182544,-49.95354,6.987883,18.06881
14.664561748,-26.67661,-20.41302,27.87446,0.6539531,-0.8941439,-0.6459743,-50.2828,4.706205,18.4652
14.67456007,-25.87667,-27.4166,35.86163,0.6304353,-0.8616698,-0.6574275,-50.2828,4.706205,18.4652
14.684557915,-27.415,-33.35183,37.44687,0.6243091,-0.8458941,-0.6196133,-50.2828,4.706205,18.4652
14.694555759,-23.96914,-36.20074,47.20219,0.6318795,-0.8590922,-0.5913872,-50.2828,4.706205,18.4652
14.704553604,-16.27749,-35.1324,47.68996,0.6697336,-0.9273207,-0.5354422,-50.2828,4.706205,18.4652
14.714551926,-2.309447,-33.64859,53.54315,0.6459073,-0.878278,-0.5411562,-49.54037,4.725451,20.08327
14.72454977,7.47433699999998,-32.6396,51.95791,0.6323521,-0.8828667,-0.5353885,-49.54037,4.725451,20.08327
14.734548569,17.93499,-33.52989,57.5062500000001,0.6449018,-0.8777339,-0.5856622,-49.54037,4.725451,20.08327
14.744546413,25.87277,-35.90398,59.3353799999998,0.6266021,-0.8123233,-0.6201046,-49.54037,4.725451,20.08327
14.754544258,27.28804,-40.35541,60.0670199999998,0.6217747,-0.736432,-0.6004941,-48.49227,8.167441,21.29887
14.76454258,20.21172,-42.90756,61.1644999999999,0.6393585,-0.7112611,-0.5431021,-48.49227,8.167441,21.29887
14.774540424,13.25846,-42.4921,62.5058599999998,0.6347119,-0.6964281,-0.5052903,-48.49227,8.167441,21.29887
14.784538269,4.828408,-41.18634,62.5668299999998,0.6636751,-0.7850674,-0.4833034,-48.49227,8.167441,21.29887
14.794536114,13.56613,-38.39678,62.6887700000002,0.6644401,-0.852327,-0.5067377,-48.49227,8.167441,21.29887
14.804534435,16.08899,-38.51549,63.23751,0.6014657,-0.7165445,-0.50762,-48.14478,9.318404,22.13407
14.814532757,8.95113399999999,-40.83023,63.4204199999999,0.6200675,-0.6176713,-0.5229924,-48.14478,9.318404,22.13407
14.824531078,1.874812,-44.68813,63.6643000000002,0.6480429,-0.7067599,-0.5479041,-48.14478,9.318404,22.13407
14.834528923,8.33580199999998,-46.58741,63.9691600000002,0.6911969,-0.7472079,-0.5474904,-48.14478,9.318404,22.13407
14.844526768,24.14984,-45.75648,62.0790599999999,0.7106794,-0.7989416,-0.5609112,-48.14478,9.318404,22.13407
14.854525089,34.79509,-46.40936,66.7128399999998,0.7627144,-0.8177441,-0.497825,-45.98986,13.53281,23.74095
14.864522934,33.87209,-43.79785,73.9073899999999,0.8342044,-0.782713,-0.4352651,-45.98986,13.53281,23.74095
14.874520779,33.44136,-36.97233,78.1753500000001,0.808611,-0.7667869,-0.3390308,-45.98986,13.53281,23.74095
14.884518623,34.97969,-29.61263,78.5411699999997,0.7523357,-0.7535958,-0.3159645,-45.98986,13.53281,23.74095
14.894517422,38.48708,-22.72776,76.7120399999999,0.7687901,-0.9035451,-0.3288761,-45.98986,13.53281,23.74095
14.904515266,48.7016,-21.00654,80.9800000000001,0.7176829,-0.8830876,-0.4254646,-44.52404,15.06876,24.13096
14.914513588,58.4853799999999,-22.431,83.4188299999999,0.7395257,-0.9317283,-0.477655,-44.52404,15.06876,24.13096
14.924511433,66.3616299999997,-24.86444,85.1260100000001,0.7181627,-0.8576653,-0.462801,-44.52404,15.06876,24.13096
14.934509277,50.79373,-27.11983,87.0770700000001,0.6277466,-0.6615946,-0.4540794,-44.52404,15.06876,24.13096
14.944507599,45.80954,-27.95077,81.8335900000002,0.6858894,-0.7465003,-0.4058228,-44.52404,15.06876,24.13096
14.954505444,49.87073,-25.16121,77.1998099999998,0.6086226,-0.7841313,-0.4214714,-42.77811,21.17232,24.56392
14.964503288,53.56273,-23.14323,73.4196200000001,0.6046345,-0.7265225,-0.3836718,-42.77811,21.17232,24.56392
14.974502087,52.02439,-20.70978,61.04256,0.4556087,-0.4744283,-0.4983352,-42.77811,21.17232,24.56392
14.984499931,36.02575,-31.63061,53.60413,0.3659525,-0.5306894,-0.6642303,-42.77811,21.17232,24.56392
14.994497776,-22.30775,-42.31404,70.9198199999997,0.3153728,-0.5874316,-0.648813,-42.77811,21.17232,24.56392
15.004496098,-23.16921,-38.51549,66.46896,0.6064278,-0.9575018,-0.616682,-40.22239,24.548,24.11397
15.014493942,12.82773,-32.69896,60.2499399999999,0.429863,-1.130777,-0.6373869,-40.22239,24.548,24.11397
15.024491787,59.3468500000002,-31.74932,48.05579,0.2002367,-0.9730075,-0.7959145,-40.22239,24.548,24.11397
15.034490108,88.6981999999997,-38.27808,50.55559,0.3767873,-0.9004392,-0.6818613,-40.22239,24.548,24.11397
15.044487953,96.0206499999998,-39.9993,45.49501,0.4191195,-0.6609948,-0.5747957,-40.22239,24.548,24.11397
15.054485798,88.02133,-39.9993,39.21502,0.3676698,-0.5924461,-0.5134659,-38.04836,27.99516,24.9509
15.064484596,78.9144100000001,-41.06764,32.75212,0.3196775,-0.5797968,-0.5143427,-38.04836,27.99516,24.9509
15.074482441,80.51428,-41.06764,22.69195,0.4179472,-0.623061,-0.5159385,-38.04836,27.99516,24.9509
15.084480286,88.7597399999999,-41.2457,13.66828,0.519559,-0.6886168,-0.5180131,-38.04836,27.99516,24.9509
15.094478607,99.4665099999997,-39.16837,9.52226500000001,0.5811561,-0.6966703,-0.4161817,-38.04836,27.99516,24.9509
15.104476452,112.2654,-34.95435,1.596066,0.5263993,-0.6334622,-0.3471876,-36.65197,30.27446,23.33689
15.114474297,117.5573,-32.04608,-6.26916200000001,0.4279094,-0.5778037,-0.3183157,-36.65197,30.27446,23.33689
15.124472141,115.8344,-31.09644,-15.29283,0.393746,-0.5223104,-0.2871629,-36.65197,30.27446,23.33689
15.134470463,115.6498,-29.01911,-25.59689,0.4297136,-0.5691693,-0.2814707,-36.65197,30.27446,23.33689
15.144468784,113.8038,-26.58566,-33.70601,0.4295243,-0.6109553,-0.2805024,-36.65197,30.27446,23.33689
15.154467106,115.5882,-23.43999,-43.21745,0.4580931,-0.756475,-0.2604145,-35.57376,32.92795,21.26702
15.164464951,122.0492,-19.81949,-45.22948,0.3813529,-0.7967184,-0.2971207,-35.57376,32.92795,21.26702
15.174462795,136.0173,-18.92921,-54.80189,0.2583334,-0.7090147,-0.3773297,-35.57376,32.92795,21.26702
15.184461117,143.4012,-20.76913,-68.3983600000001,0.2491508,-0.7123301,-0.3481197,-35.57376,32.92795,21.26702
15.194458962,141.9244,-23.97416,-82.9094099999999,0.1172624,-0.4361106,-0.3594467,-35.57376,32.92795,21.26702
15.204456806,132.6329,-26.1702,-86.5066800000001,0.3213195,-0.8436618,-0.3056184,-35.96136,34.04551,18.80715
15.214454651,122.0492,-26.88243,-81.1412500000001,0.1725869,-0.6552788,-0.2676001,-35.96136,34.04551,18.80715
15.224453449,119.2187,-29.49393,-83.6410499999998,0.2264259,-0.9024181,-0.3083093,-35.96136,34.04551,18.80715
15.234451294,118.5418,-28.01012,-86.9944499999999,0.300902,-1.105392,-0.293551,-35.96136,34.04551,18.80715
15.244449616,127.7103,-27.06048,-80.0437800000002,0.1497311,-0.8409804,-0.3321202,-35.96136,34.04551,18.80715
15.25444746,140.9399,-26.64502,-92.96958,0.140268,-0.6217006,-0.2986598,-37.00706,34.00648,15.12275
15.264445305,145.1242,-23.7961,-106.4441,0.3231302,-0.8084092,-0.2276227,-37.00706,34.00648,15.12275
15.274443626,138.8478,-19.46338,-103.8833,0.3836727,-0.8128242,-0.1506764,-37.00706,34.00648,15.12275
15.284441471,133.8021,-15.13066,-93.0305600000002,0.3079028,-0.6962242,-0.1491386,-37.00706,34.00648,15.12275
15.294439316,130.8485,-9.25477200000002,-109.4317,0.3433879,-0.6652456,-0.1329368,-37.00706,34.00648,15.12275
15.304438114,125.3105,-4.20982,-103.9443,0.4594735,-0.8243399,-0.03307585,-39.97516,33.19603,11.87955
15.314435959,121.68,0.894483100000001,-94.4938499999998,0.4468045,-0.6685458,-0.02687239,-39.97516,33.19603,11.87955
15.324433804,117.6188,7.00777700000002,-100.2861,0.5651615,-0.794745,-0.001203114,-39.97516,33.19603,11.87955
15.334432125,111.404,10.50957,-101.3226,0.5501664,-0.6961145,0.0294265,-39.97516,33.19603,11.87955
15.34442997,103.8354,15.55452,-103.2127,0.5685542,-0.7144222,0.06002803,-42.15447,30.48943,8.652044
15.354427815,102.4816,20.83688,-100.6519,0.5792207,-0.8680937,0.02463437,-42.15447,30.48943,8.652044
15.364426136,108.5734,22.49874,-103.3956,0.5929685,-0.9257324,0.0155323,-42.15447,30.48943,8.652044
15.374423981,120.9416,21.66781,-97.5423899999999,0.5677891,-0.908228,0.01796457,-42.15447,30.48943,8.652044
15.384422779,132.756,19.29372,-102.2371,0.5649773,-0.8363686,0.01747239,-42.15447,30.48943,8.652044
15.394420624,136.3249,14.30812,-104.1882,0.612542,-0.8782094,0.01548594,-44.32423,27.39919,5.039567
15.404418469,134.7251,6.23619700000001,-106.0173,0.5599456,-0.6465614,0.006903616,-44.32423,27.39919,5.039567
15.414416313,121.3108,-1.479612,-108.1513,0.576757,-0.6071873,0.02505006,-44.32423,27.39919,5.039567
15.424414635,102.5432,-7.53355299999998,-107.2977,0.6435371,-0.6331455,0.07088364,-44.32423,27.39919,5.039567
15.43441248,85.5600099999998,-8.542543,-103.4566,0.7290156,-0.6690443,0.1052013,-44.32423,27.39919,5.039567
15.444410324,75.0993600000001,-8.77995300000002,-102.481,0.7731012,-0.7590092,0.1089763,-47.19181,21.64738,2.209729
15.454409123,69.3767599999999,-8.60189500000002,-99.1276199999999,0.8501386,-0.8398087,0.08732685,-47.19181,21.64738,2.209729
15.464406967,70.60743,-9.72959,-91.5062899999999,0.8892532,-0.846811,0.08726047,-47.19181,21.64738,2.209729
15.474405289,74.1763599999999,-8.83930499999998,-91.2623999999998,0.8389331,-0.6046712,0.1581151,-47.19181,21.64738,2.209729
15.484403134,70.7920299999999,-8.42383900000002,-86.87251,0.8951062,-0.6102583,0.2226264,-47.19181,21.64738,2.209729
15.494400978,63.5311099999997,-7.53355299999998,-86.1408500000002,0.8774306,-0.4992918,0.2264572,-49.375,18.64397,1.370427
15.504398823,53.62426,-7.59290600000003,-85.5921200000001,0.8936546,-0.4809958,0.2259457,-49.375,18.64397,1.370427
15.514397144,42.30214,-8.42383900000002,-81.3241700000002,0.9153853,-0.5495273,0.1775892,-49.375,18.64397,1.370427
15.524394989,34.79509,-7.94901899999999,-76.6294199999998,0.928912,-0.594807,0.1919346,-49.375,18.64397,1.370427
15.534393788,28.08797,-7.53355299999998,-72.1785499999998,0.9284545,-0.6226199,0.1804567,-49.375,18.64397,1.370427
15.544391632,24.82671,-9.61088600000001,-62.6671099999998,0.9119574,-0.6014513,0.1398011,-50.44053,15.96597,0.5377769
15.554389477,25.56511,-10.79793,-61.75256,0.8836771,-0.548517,0.1441439,-50.44053,15.96597,0.5377769
15.564387798,27.9649,-12.87527,-61.2038200000002,0.8693743,-0.4604231,0.1900895,-50.44053,15.96597,0.5377769
15.574385643,25.99584,-12.75656,-61.1428499999997,0.8848288,-0.3998776,0.2412546,-50.44053,15.96597,0.5377769
15.584383488,19.10412,-11.27275,-59.9844000000002,0.8861483,-0.4175901,0.2675785,-50.44053,15.96597,0.5377769
15.594381333,9.38186599999998,-10.56052,-55.65548,0.8709278,-0.4900953,0.2365163,-51.48811,12.15778,1.001217
15.604379654,4.213075,-10.44182,-51.14364,0.8856663,-0.5487434,0.2211913,-51.48811,12.15778,1.001217
15.614377975,6.05907200000001,-9.96700000000001,-47.79025,0.8959439,-0.5772986,0.2116092,-51.48811,12.15778,1.001217
15.624376297,11.78166,-10.0857,-45.35142,0.8954326,-0.5501091,0.2101673,-51.48811,12.15778,1.001217
15.634374142,15.41212,-10.67923,-43.76618,0.8976259,-0.4847567,0.231204,-51.48811,12.15778,1.001217
15.644371986,12.52006,-9.72959,-42.18094,0.9142892,-0.463317,0.2546197,-51.78423,8.351413,1.018717
15.654369831,5.320673,-9.25477200000002,-38.21784,0.9139053,-0.4685822,0.2641932,-51.78423,8.351413,1.018717
15.664368153,-1.447982,-7.71161000000001,-35.83998,0.9172868,-0.4670883,0.2608369,-51.78423,8.351413,1.018717
15.674365997,-5.693775,-6.88067700000001,-34.43765,0.9042231,-0.473069,0.2197037,-51.78423,8.351413,1.018717
15.684364796,-5.01691,-7.77096299999999,-34.31571,0.9073499,-0.4587184,0.1881085,-51.78423,8.351413,1.018717
15.69436264,-1.694115,-8.95800999999999,-34.01086,0.9102467,-0.4579262,0.1622602,-52.48035,5.686568,1.414353
15.704360485,2.367078,-11.74757,-32.91339,0.9219845,-0.4608468,0.1363974,-52.48035,5.686568,1.414353
15.714358807,5.689873,-14.29972,-29.31611,0.9496751,-0.4564604,0.1310836,-52.48035,5.686568,1.414353
15.724356651,6.24367199999998,-15.60548,-25.41398,0.956256,-0.4429688,0.1573904,-52.48035,5.686568,1.414353
15.734354496,2.428612,-16.49576,-22.36544,0.930939,-0.3917881,0.1760858,-52.48035,5.686568,1.414353
15.744352341,-2.801713,-17.68281,-19.25594,0.9332877,-0.361101,0.1789452,-52.86833,6.074461,2.63505
15.754350662,-6.24757399999999,-18.8105,-17.18293,0.9332728,-0.3343833,0.1779812,-52.86833,6.074461,2.63505
15.764348984,-7.41670600000002,-19.99755,-17.42681,0.9295155,-0.3160137,0.1755902,-52.86833,6.074461,2.63505
15.774347305,-7.17057299999998,-21.54071,-17.06099,0.9378059,-0.342739,0.1578753,-52.86833,6.074461,2.63505
15.78434515,-4.216978,-22.96517,-16.45128,0.9573308,-0.3705861,0.1525841,-52.86833,6.074461,2.63505
15.794342995,-1.386449,-23.55869,-15.23186,0.9887451,-0.3561134,0.1793258,-52.44024,3.418054,3.039029
15.804341316,-2.309447,-24.15222,-12.42721,0.9873695,-0.3347592,0.1793227,-52.44024,3.418054,3.039029
15.814339161,-4.46311,-27.11983,-8.890904,0.9714997,-0.3464073,0.1621247,-52.44024,3.418054,3.039029
15.824337006,-3.047846,-29.85004,-5.537513,1.008883,-0.3387603,0.1735434,-52.44024,3.418054,3.039029
15.83433485,-2.309447,-31.09644,-4.196156,0.9979289,-0.2999302,0.1922169,-52.44024,3.418054,3.039029
15.844333649,-2.494047,-30.79968,-2.488975,0.9618995,-0.3008956,0.2176445,-52.43156,2.670962,4.655592
15.854331493,-2.247914,-28.30688,-5.049747,0.9416763,-0.3396319,0.2234327,-52.43156,2.670962,4.655592
15.864329815,-2.986313,-25.69538,-7.54954800000001,0.9464048,-0.4101315,0.2090853,-52.43156,2.670962,4.655592
15.87432766,-2.063314,-22.5497,-8.03731400000003,0.9435542,-0.4141061,0.2057412,-52.43156,2.670962,4.655592
15.884325504,-1.447982,-20.59108,-7.00081100000001,0.92614,-0.4470872,0.1971657,-52.43156,2.670962,4.655592
15.894323826,0.644147799999998,-19.87885,-5.90333699999997,0.9177799,-0.4435579,0.176122,-52.80212,2.294875,5.493344
15.904321671,3.905409,-19.46338,-6.14722099999998,0.9391289,-0.4123989,0.1894769,-52.80212,2.294875,5.493344
15.914320469,3.782343,-17.62346,-5.90333699999997,0.9347536,-0.3865725,0.2067066,-52.80212,2.294875,5.493344
15.924318314,1.628679,-15.0713,-6.87886999999998,0.9224323,-0.3789664,0.214862,-52.80212,2.294875,5.493344
15.934316158,0.890280700000001,-13.11268,-7.91537200000002,0.9062845,-0.4018185,0.1952744,-52.04227,1.550141,6.728467
15.944314003,3.782343,-11.98498,-9.378671,0.9116695,-0.455249,0.1861858,-52.04227,1.550141,6.728467
15.954312325,8.27426799999999,-11.51016,-9.50061200000003,0.9211352,-0.4662124,0.1890436,-52.04227,1.550141,6.728467
15.964310169,11.41246,-10.26376,-9.62255399999997,0.9257767,-0.4532493,0.2148753,-52.04227,1.550141,6.728467
15.974308014,11.78166,-8.542543,-9.43964200000003,0.9418297,-0.4248738,0.2540832,-52.04227,1.550141,6.728467
15.984306335,9.074201,-6.04974400000001,-8.64702100000002,0.963286,-0.4252595,0.2717532,-52.42067,1.554412,7.56419
15.994304657,7.53587,-2.726011,-7.85440200000002,0.9808128,-0.449297,0.3152793,-52.42067,1.554412,7.56419
16.004302979,8.15120200000001,1.606712,-7.61051899999998,0.9918593,-0.4401038,0.3401436,-52.42067,1.554412,7.56419
16.014300823,7.53587,6.59230999999998,-6.39110400000002,0.9913518,-0.4376656,0.3951801,-52.42067,1.554412,7.56419
16.024298668,7.53587,11.39985,-4.805864,1.002877,-0.4536134,0.4329716,-52.42067,1.554412,7.56419
16.034296513,8.705001,16.50415,-3.098683,1.01172,-0.4829057,0.4521068,-52.42067,1.554412,7.56419
16.044294834,11.474,22.26134,-1.513443,1.080748,-0.4984919,0.5113339,-52.42067,1.554412,7.56419
16.054292679,15.04292,27.42499,-1.391501,1.019222,-0.4920508,0.4985179,-52.42067,1.554412,7.56419
16.064290524,18.18112,33.18217,0.986358399999998,1.031835,-0.4888114,0.5066309,-52.42067,1.554412,7.56419
16.074289322,20.64245,38.93935,3.425189,1.050571,-0.4742393,0.5185589,-52.42067,1.554412,7.56419
16.084287167,23.22684,43.09402,5.193341,1.054243,-0.4619129,0.5300351,-52.43273,2.30804,6.721631
16.094285488,27.0419,47.66415,6.29081499999999,1.088175,-0.4774136,0.5682661,-52.43273,2.30804,6.721631
16.104283333,29.50323,53.12457,6.04693200000002,1.098611,-0.461302,0.6070084,-52.43273,2.30804,6.721631
16.114281178,30.24163,59.83139,4.705575,1.089385,-0.4621228,0.6433965,-52.43273,2.30804,6.721631
16.124279022,30.9185,67.3097800000001,4.705575,1.097687,-0.4628341,0.6539108,-52.43273,2.30804,6.721631
16.134277344,32.70296,74.1946600000002,4.644604,1.102795,-0.4753633,0.6543838,-53.17936,2.662067,4.263029
16.144275665,36.51802,80.54536,5.13237,1.099657,-0.4636662,0.6649148,-53.17936,2.662067,4.263029
16.154273987,41.87141,84.8780800000001,5.86401899999998,1.119729,-0.4685931,0.6672741,-53.17936,2.662067,4.263029
16.164271832,48.94773,88.85469,6.16887299999999,1.170411,-0.4684233,0.6825,-53.17936,2.662067,4.263029
16.174269676,54.36266,92.65324,5.86401899999998,1.229531,-0.477053,0.6737849,-53.17936,2.662067,4.263029
16.184267998,58.1161800000001,96.5111500000003,6.59566799999998,1.281715,-0.4794499,0.670823,-52.38851,1.492303,0.2111549
16.194265842,61.5620500000003,102.0903,8.30284999999999,1.296532,-0.4640842,0.6717504,-52.38851,1.492303,0.2111549
16.204263687,61.1313099999997,108.5003,9.217411,1.251061,-0.4300123,0.6699066,-52.38851,1.492303,0.2111549
16.214262486,57.5008499999999,112.4176,11.59527,1.195404,-0.4770975,0.6365154,-52.38851,1.492303,0.2111549
16.22426033,59.2853199999997,114.1388,13.54634,1.184084,-0.4973589,0.6240974,-52.38851,1.492303,0.2111549
16.234258175,63.1619099999999,116.6316,13.30245,1.192509,-0.4786038,0.6374781,-52.7244,0.684104,-5.076595
16.244256496,63.4080400000003,118.9463,12.9976,1.210985,-0.4762467,0.6427096,-52.7244,0.684104,-5.076595
16.254254341,62.7927100000001,121.083,12.87566,1.24878,-0.4903799,0.6627475,-52.7244,0.684104,-5.076595
16.264252186,63.1619099999999,123.1604,14.52187,1.271805,-0.5222902,0.6837729,-52.7244,0.684104,-5.076595
16.274250031,66.7308300000001,125.6532,18.18011,1.287533,-0.5291325,0.6985831,-52.7244,0.684104,-5.076595
16.284248352,72.0842299999999,126.3654,25.13078,1.264587,-0.5530032,0.6885792,-52.35796,2.163665,-10.37095
16.294246674,78.6682799999997,126.128,33.36183,1.275331,-0.554262,0.687125,-52.35796,2.163665,-10.37095
16.304244995,82.9756099999999,127.7898,40.3125,1.26408,-0.5000499,0.6880879,-52.35796,2.163665,-10.37095
16.31424284,80.3296800000001,130.5201,45.61695,1.236287,-0.4470972,0.693387,-52.35796,2.163665,-10.37095
16.324240685,74.7916900000001,135.1496,44.94628,1.189322,-0.4109839,0.705424,-52.35796,2.163665,-10.37095
16.334239006,71.46889,141.2628,38.05658,1.118026,-0.4553528,0.6840237,-51.17549,0.5989227,-16.48203
16.344236851,71.46889,145.6549,31.71562,1.062338,-0.5267751,0.6463317,-51.17549,0.5989227,-16.48203
16.354234696,73.6225600000002,147.851,27.02087,1.008986,-0.5670862,0.604799,-51.17549,0.5989227,-16.48203
16.364233494,78.6067499999998,148.029,22.81389,0.9772813,-0.5659662,0.583318,-51.17549,0.5989227,-16.48203
16.376730919,83.4063400000002,147.5542,19.4605,0.9468408,-0.475543,0.600098,-48.52997,0.940671,-23.36613
16.386728764,82.4218100000001,147.3761,18.66788,0.9309096,-0.4565244,0.641757,-48.52997,0.940671,-23.36613
16.394227505,81.2526800000002,148.029,19.27759,0.9378898,-0.4644764,0.6604114,-48.52997,0.940671,-23.36613
16.40422535,80.51428,152.1243,16.59487,0.9460286,-0.429997,0.69341,-48.52997,0.940671,-23.36613
16.414223194,74.2378899999998,156.3383,12.93663,0.8981175,-0.3953339,0.7083204,-48.52997,0.940671,-23.36613
16.424221516,66.9769700000002,159.5434,10.55877,0.8750404,-0.386093,0.7059655,-48.52997,0.940671,-23.36613
16.436719418,64.0233800000002,161.2052,8.91255800000001,0.8555451,-0.4365642,0.7553057,-45.5114,1.288501,-29.86044
16.444218159,65.1924999999998,162.689,9.03449899999999,0.8537489,-0.4441818,0.7763682,-45.5114,1.288501,-29.86044
16.456715107,68.2691700000002,162.9858,10.86362,0.8111548,-0.4332554,0.7879255,-45.5114,1.288501,-29.86044
16.466713429,71.7765599999999,161.7988,13.54634,0.7921379,-0.4319321,0.8142799,-45.5114,1.288501,-29.86044
16.474211693,75.28396,161.9175,15.37546,0.7849314,-0.4110123,0.832473,-41.31694,-1.011186,-35.55821
16.486710072,80.6373399999998,164.4696,14.21701,0.7515869,-0.3480215,0.8315578,-41.31694,-1.011186,-35.55821
16.494207859,81.5603500000002,166.6063,12.14401,0.7167677,-0.3103464,0.8287373,-41.31694,-1.011186,-35.55821
16.506705761,77.0068900000002,169.3365,8.85158600000001,0.6657619,-0.2928839,0.8293003,-41.31694,-1.011186,-35.55821
16.514204502,73.1918299999999,169.5739,7.205376,0.6480141,-0.3077689,0.8341208,-41.31694,-1.011186,-35.55821
16.524202347,71.6535000000002,168.5649,5.254312,0.6322179,-0.3496975,0.8001803,-37.13233,-2.926701,-40.80651
16.536699772,76.9453500000001,166.4282,4.644604,0.6160375,-0.3712592,0.7624065,-37.13233,-2.926701,-40.80651
16.544198513,79.8374199999999,163.52,4.522663,0.5775837,-0.3221819,0.7390107,-37.13233,-2.926701,-40.80651
16.556695938,81.80648,157.9409,5.0714,0.5242767,-0.2336595,0.7567881,-37.13233,-2.926701,-40.80651
16.56669426,82.9756099999999,157.0506,1.596066,0.5119309,-0.1716712,0.8132656,-37.13233,-2.926701,-40.80651
16.576692581,79.9604800000003,159.8401,-2.367033,0.4963326,-0.1443632,0.8573148,-31.12271,-5.585521,-45.58581
16.586690426,73.99176,163.0452,-5.171688,0.4934366,-0.1707743,0.8980056,-31.12271,-5.585521,-45.58581
16.596688271,70.1151699999999,163.9354,-7.12275300000002,0.4985338,-0.2349407,0.8846132,-31.12271,-5.585521,-45.58581
16.606686115,72.7610899999999,162.5703,-8.52507999999999,0.5078912,-0.2408109,0.8601909,-31.12271,-5.585521,-45.58581
16.616684437,78.23755,160.9085,-8.58605100000002,0.4748517,-0.2465555,0.8348855,-31.12271,-5.585521,-45.58581
16.626682281,86.2983999999997,158.8905,-9.50061200000003,0.4313828,-0.1897364,0.818675,-25.02924,-9.685013,-48.35736
16.63668108,90.0519300000002,157.1099,-9.92740700000002,0.3498743,-0.07916886,0.8106529,-25.02924,-9.685013,-48.35736
16.646678924,89.8057999999998,153.9642,-11.45168,0.2483523,-0.01851449,0.8079427,-25.02924,-9.685013,-48.35736
16.656676769,88.6366699999999,150.9966,-14.37827,0.1719484,0.002474064,0.8238636,-25.02924,-9.685013,-48.35736
16.666675091,86.72913,147.7323,-15.90254,0.1138133,0.009914524,0.8067343,-25.02924,-9.685013,-48.35736
16.676672935,86.2983999999997,145.5362,-18.46332,0.08820782,-0.02814046,0.7924315,-18.93785,-13.84136,-50.35458
16.68667078,84.5139400000002,144.6459,-20.7802,0.08146851,-0.007063248,0.7737733,-18.93785,-13.84136,-50.35458
16.696668625,81.6834099999999,144.824,-21.75574,0.05078385,0.01807226,0.7723846,-18.93785,-13.84136,-50.35458
16.706667423,80.2066100000001,145.7143,-21.26797,0.02468818,0.006327393,0.7666903,-18.93785,-13.84136,-50.35458
16.716665268,83.7139999999998,145.5362,-22.91418,0.004129865,0.01051307,0.7375318,-18.93785,-13.84136,-50.35458
16.726663589,93.6208600000001,144.3492,-27.91378,-0.01037398,0.03003607,0.7251092,-11.72787,-17.97837,-51.05344
16.736661434,103.9584,144.3492,-33.88892,0.007842207,0.04511363,0.687266,-11.72787,-17.97837,-51.05344
16.746659279,102.3586,144.4085,-36.20581,0.02752687,0.06044391,0.6738276,-11.72787,-17.97837,-51.05344
16.7566576,90.8518600000003,144.5272,-33.52309,0.002693873,0.03306421,0.6561706,-11.72787,-17.97837,-51.05344
16.766655445,79.40668,145.3582,-28.58446,-0.02095146,0.04593145,0.6265368,-11.72787,-17.97837,-51.05344
16.776654243,71.4073600000001,145.3582,-24.62136,-0.08143929,0.04897389,0.6118056,-5.319181,-22.87239,-50.59326
16.786652088,71.46889,142.5092,-21.38991,-0.1437476,-0.05893276,0.5841846,-5.319181,-22.87239,-50.59326
16.796649933,82.8525500000001,139.9571,-21.14603,-0.1430231,-0.07231959,0.5535579,-5.319181,-22.87239,-50.59326
16.806647778,88.1444,138.3546,-21.87768,-0.1724251,0.03960986,0.5286943,-5.319181,-22.87239,-50.59326
16.816646099,81.3757500000003,137.9391,-21.75574,-0.2191005,0.1634562,0.5158224,-5.319181,-22.87239,-50.59326
16.826643944,65.1309699999999,136.2772,-20.41438,-0.2963432,0.2283813,0.5025401,1.505617,-26.99205,-48.9084
16.836641788,53.99346,134.4967,-19.31691,-0.3304894,0.3341586,0.5059224,1.505617,-26.99205,-48.9084
16.846640587,38.54862,133.6064,-14.68313,-0.2710114,0.09918805,0.5082721,1.505617,-26.99205,-48.9084
16.856638432,32.57989,133.1316,-10.59809,-0.343058,0.1979027,0.459079,1.505617,-26.99205,-48.9084
16.866636276,32.21069,129.4517,-9.80546599999998,-0.3205901,0.1427958,0.4423039,1.505617,-26.99205,-48.9084
16.876634598,37.62562,126.4247,-11.14682,-0.3091658,0.1570612,0.4365374,8.695319,-30.72474,-46.77128
16.886632442,39.28701,123.8726,-12.36624,-0.3274122,0.1946392,0.4403881,8.695319,-30.72474,-46.77128
16.896630287,32.57989,121.3798,-7.976343,-0.3398494,0.1822274,0.4384987,8.695319,-30.72474,-46.77128
16.906628609,23.04224,117.9967,0.4376215,-0.4030267,0.1475852,0.4534536,8.695319,-30.72474,-46.77128
16.91662693,14.85832,113.7827,10.19294,-0.4534744,0.05699101,0.4334647,13.58967,-32.19271,-44.72751
16.926625252,13.25846,108.6784,17.87526,-0.5244585,-0.03027489,0.3967606,13.58967,-32.19271,-44.72751
16.936623096,21.01165,103.0399,18.18011,-0.5935528,-0.009820865,0.3916114,13.58967,-32.19271,-44.72751
16.946620941,31.22616,99.7161699999998,12.81469,-0.6415268,0.07955942,0.3854505,13.58967,-32.19271,-44.72751
16.956618786,38.79475,98.11366,7.38828800000001,-0.6693278,0.1586783,0.3826071,13.58967,-32.19271,-44.72751
16.966617107,37.99482,97.8168900000002,3.48616,-0.6485669,0.2720803,0.3571772,18.84527,-33.26662,-41.39298
16.976614952,32.88756,96.98596,2.815481,-0.6821771,0.3483564,0.3218015,18.84527,-33.26662,-41.39298
16.98661375,25.62664,93.1874199999998,6.473727,-0.7271054,0.3267302,0.2859922,18.84527,-33.26662,-41.39298
16.996611595,21.44238,86.1838299999997,10.4978,-0.7411574,0.2441311,0.2645021,18.84527,-33.26662,-41.39298
17.00660944,23.28838,79.4770100000001,13.11954,-0.7327359,0.2107105,0.2582745,18.84527,-33.26662,-41.39298
17.016607761,28.21103,75.4410599999998,10.61974,-0.7742452,0.2935601,0.267897,21.87208,-35.12574,-38.97408
17.026605606,30.9185,72.5327900000001,5.254312,-0.8129932,0.3588869,0.2684264,21.87208,-35.12574,-38.97408
17.036603451,30.05703,69.5651699999998,0.1937385,-0.7892944,0.3943518,0.2693331,21.87208,-35.12574,-38.97408
17.046601295,27.0419,68.0220100000001,-2.976741,-0.7379791,0.412413,0.2735461,21.87208,-35.12574,-38.97408
17.056600094,20.76551,67.8439500000002,-3.403537,-0.677916,0.4066834,0.3141219,21.87208,-35.12574,-38.97408
17.066597939,12.76619,68.4968300000001,-1.452472,-0.6776941,0.3694721,0.3361456,25.17945,-35.46055,-36.49648
17.07659626,6.73593800000001,68.2000700000001,1.778978,-0.7232717,0.2532982,0.3247691,25.17945,-35.46055,-36.49648
17.086594105,5.689873,65.4698599999997,4.888487,-0.7600753,0.1623648,0.2913564,25.17945,-35.46055,-36.49648
17.096591949,10.67406,62.0274199999999,4.034896,-0.8316698,0.1861447,0.2833393,25.17945,-35.46055,-36.49648
17.106590271,15.16599,58.9411,0.3766508,-0.8563601,0.2557772,0.2991574,25.17945,-35.46055,-36.49648
17.116588116,14.18146,57.33858,-3.098683,-0.810616,0.3112205,0.3115063,27.06772,-36.57012,-34.41248
17.126586914,8.82806800000001,56.92312,-4.379068,-0.7857302,0.3092079,0.3033276,27.06772,-36.57012,-34.41248
17.136584759,6.55133799999999,56.62636,-4.379068,-0.8041089,0.2757437,0.2971469,27.06772,-36.57012,-34.41248
17.146582603,8.88960099999997,54.84579,-4.013244,-0.809567,0.2545781,0.2794545,27.06772,-36.57012,-34.41248
17.156580448,12.2124,52.29364,-3.586449,-0.8329552,0.2282558,0.2680162,27.06772,-36.57012,-34.41248
17.16657877,14.79679,48.8512,-2.671887,-0.869627,0.234759,0.2613784,28.56919,-36.92887,-33.17383
17.176576614,15.35059,46.00229,-3.220624,-0.8912858,0.2721907,0.2566208,28.56919,-36.92887,-33.17383
17.186574459,12.0278,44.93394,-4.135185,-0.8622897,0.3104828,0.2364601,28.56919,-36.92887,-33.17383
17.196573257,8.88960099999997,43.68754,-5.84236700000003,-0.876752,0.3282208,0.2412666,28.56919,-36.92887,-33.17383
17.206571102,9.074201,39.82964,-5.90333699999997,-0.9028475,0.2387779,0.2413351,28.56919,-36.92887,-33.17383
17.216569424,17.01199,37.04008,-6.20819099999998,-0.8879975,0.2264237,0.2398766,29.31162,-36.90963,-31.55576
17.226567268,21.93465,35.31886,-7.06178199999999,-0.8876218,0.2578462,0.2212034,29.31162,-36.90963,-31.55576
17.236565113,16.70432,34.72533,-5.964308,-0.8868256,0.2925909,0.1929571,29.31162,-36.90963,-31.55576
17.246562958,4.889941,34.13181,-5.049747,-0.8871936,0.2855129,0.1637664,29.31162,-36.90963,-31.55576
17.256561279,-2.92478,31.87642,-3.891303,-0.8758547,0.2519833,0.1393479,29.31162,-36.90963,-31.55576
17.266559601,-0.6480501,27.95916,-2.976741,-0.8645403,0.2456527,0.1134867,31.18614,-37.2623,-29.92732
17.276557922,5.382206,25.22895,-2.8548,-0.8479723,0.2718183,0.122544,31.18614,-37.2623,-29.92732
17.286555767,5.81293900000002,23.03292,-1.696355,-0.8547531,0.295456,0.1182426,31.18614,-37.2623,-29.92732
17.296553612,0.4595481,21.3117,-0.05014454,-0.8596601,0.2965493,0.08905773,31.18614,-37.2623,-29.92732
17.306551933,-6.92443900000002,19.88724,0.803446099999999,-0.8826331,0.2990232,0.03741093,31.18614,-37.2623,-29.92732
17.316549778,-14.00076,16.74156,0.620533899999998,-0.92483,0.3133142,-0.008941071,32.3084,-37.25005,-29.46747
17.3265481,-18.61575,10.15345,0.681504599999997,-0.9593894,0.2846915,-0.03519514,32.3084,-37.25005,-29.46747
17.336546421,-16.21596,1.903473,-0.05014454,-0.941083,0.2435946,-0.05196663,32.3084,-37.25005,-29.46747
17.346544266,-8.40123700000001,-6.405858,-1.757326,-0.8879158,0.2671562,-0.03483664,32.3084,-37.25005,-29.46747
17.356542111,-4.340044,-13.76555,-1.757326,-0.8768468,0.3267958,-0.02003544,32.3084,-37.25005,-29.46747
17.366540432,-6.18604100000003,-20.23496,0.4985923,-0.8666221,0.3276241,-0.004739043,33.05619,-37.24115,-29.07491
17.376538277,-9.81650199999998,-26.40761,2.75451,-0.877173,0.3187082,-0.0004111697,33.05619,-37.24115,-29.07491
17.386536121,-9.878035,-30.91838,3.973926,-0.8601124,0.3186471,0.009130626,33.05619,-37.24115,-29.07491
17.39653492,-10.3703,-35.1324,4.400721,-0.854553,0.3344956,0.02969562,33.05619,-37.24115,-29.07491
17.406532765,-12.0317,-39.9993,5.437224,-0.8527531,0.316582,0.03304713,33.05619,-37.24115,-29.07491
17.416530609,-11.35483,-45.51907,6.90052199999999,-0.8315519,0.2777537,0.04546315,33.41887,-36.48471,-29.91469
17.426528931,-8.64737,-50.74208,8.91255800000001,-0.8184959,0.257081,0.0416171,33.41887,-36.48471,-29.91469
17.436526775,-7.78590499999999,-56.61796,11.1075,-0.8096335,0.2524976,0.05261008,33.41887,-36.48471,-29.91469
17.44652462,-7.539772,-61.8409700000001,11.77818,-0.7958565,0.2462869,0.08752371,33.41887,-36.48471,-29.91469
17.456522942,-7.10903899999999,-66.3517500000001,10.80265,-0.8016656,0.2185743,0.09854823,31.92696,-36.50958,-31.53832
17.466521263,-6.49370699999998,-71.5154100000001,10.071,-0.8040162,0.2134754,0.07749629,31.92696,-36.50958,-31.53832
17.476519585,-7.90897099999997,-77.3913000000001,10.31489,-0.7851931,0.2230539,0.07458956,31.92696,-36.50958,-31.53832
17.486517429,-9.57036899999999,-83.80135,11.9611,-0.7139542,0.2446394,0.1022172,31.92696,-36.50958,-31.53832
17.496515274,-7.539772,-87.83731,14.58284,-0.6613584,0.2989093,0.1308261,31.92696,-36.50958,-31.53832
17.506513119,-10.9241,-90.6268699999998,17.9972,-0.6589903,0.3558473,0.1877579,29.70128,-37.30079,-33.16346
17.51651144,-19.84642,-91.87327,21.47253,-0.6649461,0.3630724,0.2466312,29.70128,-37.30079,-33.16346
17.526509285,-26.86121,-91.5171599999998,23.4236,-0.6479225,0.2880054,0.2906499,29.70128,-37.30079,-33.16346
17.536508083,-30.98393,-91.69521,24.21622,-0.6638181,0.2258013,0.2715506,29.70128,-37.30079,-33.16346
17.546505928,-33.93753,-94.7815400000002,23.85039,-0.6992201,0.1897105,0.2275926,29.70128,-37.30079,-33.16346
17.556503773,-36.46039,-102.6754,22.93583,-0.7330604,0.1747215,0.2027695,27.07505,-36.58428,-36.08949
17.566502094,-32.2146,-111.9937,19.82632,-0.7166153,0.1550088,0.1903029,27.07505,-36.58428,-36.08949
17.576499939,-22.30775,-120.0063,15.31449,-0.6541101,0.200053,0.1983182,27.07505,-36.58428,-36.08949
17.586497784,-19.47722,-125.4667,12.50983,-0.5995492,0.3053988,0.2283462,27.07505,-36.58428,-36.08949
17.596496582,-28.5226,-130.0368,13.48536,-0.5629371,0.3544804,0.2555486,27.07505,-36.58428,-36.08949
17.606494427,-39.53705,-133.5386,14.09507,-0.5648955,0.3556724,0.2837877,23.02945,-36.64199,-39.34463
17.616492271,-45.01351,-136.5062,12.50983,-0.5698264,0.2806303,0.2718512,23.02945,-36.64199,-39.34463
17.626490593,-44.39818,-138.3462,9.70517700000002,-0.5132832,0.2021714,0.2846944,23.02945,-36.64199,-39.34463
17.636488438,-44.70584,-142.8569,8.30284999999999,-0.44576,0.189051,0.3511021,23.02945,-36.64199,-39.34463
17.646486282,-44.21358,-148.1393,9.15644099999999,-0.4168749,0.2090252,0.40034,23.02945,-36.64199,-39.34463
17.656484604,-41.25998,-151.7005,10.37586,-0.4062754,0.1907347,0.4496195,18.15618,-35.94508,-42.60985
17.666482925,-39.29092,-153.0656,11.04653,-0.3783288,0.2079492,0.4648808,18.15618,-35.94508,-42.60985
17.676481247,-42.30605,-152.8875,11.77818,-0.3518063,0.2232182,0.4830166,18.15618,-35.94508,-42.60985
17.686479092,-51.6591,-152.8281,12.63177,-0.3292378,0.2148338,0.4738864,18.15618,-35.94508,-42.60985
17.696476936,-62.6735499999999,-151.9379,12.32692,-0.2924823,0.1768153,0.4350675,18.15618,-35.94508,-42.60985
17.706474781,-75.2263300000002,-150.276,11.90012,-0.2454168,0.1610038,0.4110607,12.50645,-34.1062,-45.11271
17.716473103,-90.5481000000002,-151.2256,12.63177,-0.2079152,0.1374661,0.4660376,12.50645,-34.1062,-45.11271
17.726470947,-97.9936200000002,-157.2202,16.04613,-0.1954013,0.09558655,0.5354201,12.50645,-34.1062,-45.11271
17.736469746,-87.5329699999999,-161.0188,16.04613,-0.1972501,0.01248033,0.5383162,12.50645,-34.1062,-45.11271
17.74646759,-69.6883399999997,-163.6896,12.87566,-0.1668652,0.02983075,0.5631447,12.50645,-34.1062,-45.11271
17.756465435,-64.9502799999999,-166.1231,10.37586,-0.1301405,0.1244702,0.5769349,5.714272,-31.14503,-48.85551
17.766463757,-74.6725299999999,-167.4288,10.80265,-0.0554445,0.1686212,0.5672219,5.714272,-31.14503,-48.85551
17.776461601,-91.7787700000002,-168.3191,10.80265,0.02666557,0.1557353,0.5747393,5.714272,-31.14503,-48.85551
17.786459446,-107.5313,-168.2004,9.70517700000002,0.07403594,0.09913808,0.6067359,5.714272,-31.14503,-48.85551
17.796458244,-119.4687,-167.6069,9.88808900000002,0.1298958,0.03303892,0.6971064,5.714272,-31.14503,-48.85551
17.806456089,-119.961,-166.0637,12.38789,0.1885866,-0.002517204,0.7735854,-1.479101,-27.40526,-50.15412
17.816453934,-111.9001,-162.8587,13.79022,0.2157703,-0.07414856,0.7993996,-1.479101,-27.40526,-50.15412
17.826452255,-100.8857,-159.6537,13.11954,0.2168817,-0.08140695,0.8003567,-1.479101,-27.40526,-50.15412
17.8364501,-98.1782200000002,-158.7634,12.50983,0.2455996,-0.05355228,0.8084352,-1.479101,-27.40526,-50.15412
17.846447945,-103.5931,-158.8227,12.81469,0.2690052,-0.02822349,0.8174809,-1.479101,-27.40526,-50.15412
17.856446266,-112.7616,-158.0511,13.24148,0.2771559,-0.01979173,0.8715435,-8.6134,-23.65849,-50.67828
17.866444588,-120.884,-155.6177,13.48536,0.2601075,-0.04498958,0.9160874,-8.6134,-23.65849,-50.67828
17.876442432,-123.0992,-150.8102,14.15604,0.2901949,-0.1163847,0.908396,-8.6134,-23.65849,-50.67828
17.886440754,-119.4072,-143.9846,13.97313,0.3789367,-0.1980608,0.8718906,-8.6134,-23.65849,-50.67828
17.896438599,-116.269,-138.3462,12.87566,0.4375039,-0.2305442,0.8067105,-8.6134,-23.65849,-50.67828
17.906436443,-117.4381,-136.0908,12.32692,0.4140737,-0.2030419,0.7828155,-15.48823,-17.61634,-49.92227
17.916434765,-125.622,-138.8803,10.68071,0.1251363,-0.1266833,0.777078,-15.48823,-17.61634,-49.92227
17.926433086,-133.1291,-141.9667,9.09546899999999,0.3720363,-0.2745751,0.7565855,-15.48823,-17.61634,-49.92227
17.936431408,-132.1446,-144.044,6.59566799999998,0.3225808,-0.2371419,0.705933,-15.48823,-17.61634,-49.92227
17.946429253,-130.8524,-146.1213,3.059364,0.3832166,-0.2230209,0.6842877,-15.48823,-17.61634,-49.92227
17.956427097,-131.5292,-149.0889,-0.2330568,0.4757577,-0.2720015,0.7075893,-21.97965,-12.31847,-47.54692
17.966424942,-129.8678,-151.4037,-2.732858,0.5547084,-0.349229,0.7534148,-21.97965,-12.31847,-47.54692
17.976423264,-124.9452,-151.4037,-4.744893,0.6285225,-0.4132719,0.7643099,-21.97965,-12.31847,-47.54692
17.986421108,-120.6994,-149.3264,-6.513045,0.6697809,-0.4310892,0.7460567,-21.97965,-12.31847,-47.54692
17.996419907,-119.8995,-148.8515,-7.73246000000002,0.6980904,-0.4092635,0.6804367,-21.97965,-12.31847,-47.54692
18.006417751,-123.5914,-151.6411,-9.62255399999997,0.6981404,-0.3874575,0.620609,-27.36912,-5.934483,-45.16898
18.016415596,-130.4832,-159.1195,-12.36624,0.7366951,-0.4418606,0.6459204,-27.36912,-5.934483,-45.16898
18.026413918,-130.1755,-166.0637,-13.58565,0.7997303,-0.5275452,0.7046974,-27.36912,-5.934483,-45.16898
18.036411762,-123.776,-169.2688,-14.13439,0.8665894,-0.5564297,0.8022178,-27.36912,-5.934483,-45.16898
18.046409607,-119.7764,-167.7849,-12.91498,0.9025955,-0.5515711,0.8835117,-33.1198,-0.6140981,-40.78855
18.056407452,-121.2532,-163.5709,-10.84197,0.9214864,-0.5716776,0.8758268,-33.1198,-0.6140981,-40.78855
18.06640625,-122.4223,-160.3659,-11.02488,0.918142,-0.6294717,0.7806108,-33.1198,-0.6140981,-40.78855
18.076404095,-119.4072,-161.8497,-14.62216,0.8714559,-0.6364938,0.698379,-33.1198,-0.6140981,-40.78855
18.086402416,-113.0693,-167.963,-20.35341,0.8480252,-0.6338789,0.7161264,-33.1198,-0.6140981,-40.78855
18.096400261,-103.8393,-171.3461,-25.53592,0.9000219,-0.6251545,0.7605411,-38.41086,3.205579,-34.33277
18.106398106,-100.5165,-170.0403,-28.46252,0.9724369,-0.5877851,0.8111343,-38.41086,3.205579,-34.33277
18.116396427,-105.0084,-165.3515,-27.85281,1.018871,-0.5950235,0.8225411,-38.41086,3.205579,-34.33277
18.126394749,-110.4233,-159.0602,-25.47495,1.049245,-0.6564844,0.7846964,-38.41086,3.205579,-34.33277
18.13639307,-109.1927,-155.8551,-24.98719,0.9959329,-0.7242872,0.7656638,-38.41086,3.205579,-34.33277
18.146390915,-99.1012200000003,-154.49,-25.53592,0.9972891,-0.7447094,0.7613595,-43.38713,6.657596,-26.64713
18.15638876,-88.8866999999998,-151.285,-26.6334,1.048603,-0.725921,0.7918941,-43.38713,6.657596,-26.64713
18.166386604,-82.3026499999999,-146.5961,-29.98679,1.067638,-0.7017952,0.7851546,-43.38713,6.657596,-26.64713
18.176384926,-81.3796499999998,-141.4325,-33.70601,1.099492,-0.7121416,0.7539943,-43.38713,6.657596,-26.64713
18.186383247,-84.8870499999999,-137.0998,-35.41319,1.14245,-0.7697253,0.6878907,-43.38713,6.657596,-26.64713
18.196381569,-87.4714400000001,-132.5296,-36.6326,1.186125,-0.8137191,0.6184324,-46.84531,9.353614,-19.72032
18.206379414,-89.74817,-131.2239,-37.85202,1.150607,-0.8426536,0.6132374,-46.84531,9.353614,-19.72032
18.216377258,-86.1177100000002,-131.1645,-36.81551,1.16294,-0.8755409,0.6567748,-46.84531,9.353614,-19.72032
18.22637558,-75.8416599999998,-126.1789,-34.49863,1.206133,-0.8393751,0.6921049,-46.84531,9.353614,-19.72032
18.236373425,-71.4727999999998,-117.8696,-33.64503,1.18093,-0.7682335,0.7146235,-46.84531,9.353614,-19.72032
18.246371269,-75.2263300000002,-110.0944,-32.36465,1.134909,-0.7050906,0.7046373,-49.10823,8.634322,-12.83142
18.256370068,-79.6567200000001,-102.9722,-30.90135,1.138496,-0.6892511,0.6754339,-49.10823,8.634322,-12.83142
18.266367912,-78.85679,-96.9775799999999,-30.96232,1.122504,-0.6698112,0.604149,-49.10823,8.634322,-12.83142
18.276365757,-75.4109300000001,-96.3246999999999,-33.21824,1.028429,-0.6433896,0.5617129,-49.10823,8.634322,-12.83142
18.286364079,-65.6886699999998,-98.5207400000001,-32.6695,1.009507,-0.6483519,0.5382969,-49.10823,8.634322,-12.83142
18.296361923,-53.38203,-97.4523900000002,-32.24271,1.098344,-0.733996,0.5458213,-51.00088,8.291661,-6.715759
18.306359768,-43.59825,-93.00097,-30.90135,1.073358,-0.6489289,0.5496715,-51.00088,8.291661,-6.715759
18.316358566,-43.84438,-87.5999,-28.40155,1.058503,-0.6103076,0.5539947,-51.00088,8.291661,-6.715759
18.326356411,-47.90557,-81.1898399999998,-24.68233,1.048527,-0.6241768,0.546837,-51.00088,8.291661,-6.715759
18.336354256,-48.58244,-75.1359000000001,-22.85321,1.038247,-0.64852,0.510968,-51.00088,8.291661,-6.715759
18.346352577,-48.64397,-69.5567799999999,-21.93865,1.024236,-0.6296005,0.4846659,-51.78725,9.087607,-1.887854
18.356350422,-51.04377,-65.4021100000001,-20.35341,1.008789,-0.6122197,0.4526238,-51.78725,9.087607,-1.887854
18.366348267,-53.93583,-61.6035600000001,-20.29244,1.008392,-0.5914724,0.4373047,-51.78725,9.087607,-1.887854
18.376346588,-56.02796,-58.1611199999998,-19.92661,0.9921936,-0.6633312,0.4258656,-51.78725,9.087607,-1.887854
18.38634491,-52.9513,-54.89674,-19.43885,0.9735244,-0.681207,0.424467,-51.78725,9.087607,-1.887854
18.396343231,-46.36724,-51.09819,-19.01205,0.9897552,-0.6891122,0.4282694,-52.1309,6.833715,1.798052
18.406341076,-40.58312,-47.65575,-18.52429,0.9838799,-0.6878538,0.4191864,-52.1309,6.833715,1.798052
18.416338921,-35.47586,-44.68813,-18.40234,0.9653108,-0.6333795,0.4115475,-52.1309,6.833715,1.798052
18.426336765,-31.96847,-42.4921,-16.14643,0.980302,-0.6536552,0.3938192,-52.1309,6.833715,1.798052
18.436335087,-27.84574,-39.76189,-14.13439,0.9787697,-0.6240913,0.38855,-52.1309,6.833715,1.798052
18.446333408,-24.52294,-37.32844,-12.48818,0.9812919,-0.6026293,0.3918901,-52.12589,6.093707,4.253119
18.45633173,-22.36928,-33.94535,-11.51265,0.976459,-0.5781996,0.4167782,-52.12589,6.093707,4.253119
18.466329575,-21.56935,-29.61263,-9.13478800000001,0.9919601,-0.5985256,0.445471,-52.12589,6.093707,4.253119
18.476327419,-19.96948,-23.43999,-6.513045,1.013326,-0.6196814,0.4770252,-52.12589,6.093707,4.253119
18.486325741,-18.43115,-15.78353,-3.525478,1.02452,-0.5918001,0.5258132,-52.12589,6.093707,4.253119
18.496323586,-15.47756,-9.31412399999998,-1.940238,0.9964659,-0.6031108,0.5186864,-51.74446,5.353243,6.323966
18.506322384,-9.75496900000002,-4.091116,-7.85440200000002,1.012341,-0.6448908,0.4856477,-51.74446,5.353243,6.323966
18.516320229,2.428612,-1.301555,-0.7817937,0.9458758,-0.662491,0.4053674,-51.74446,5.353243,6.323966
18.526318073,18.18112,1.013188,-3.098683,0.9581576,-0.6169603,0.362741,-51.74446,5.353243,6.323966
18.536315918,24.51904,2.853111,-3.464507,0.9289569,-0.5677572,0.3331075,-51.74446,5.353243,6.323966
18.54631424,27.90337,3.921454,-3.891303,0.923694,-0.5477192,0.3039184,-52.10097,4.219714,7.552775
18.556312084,30.24163,5.345911,-4.013244,0.9466915,-0.5532891,0.2828224,-52.10097,4.219714,7.552775
18.566310883,31.96456,7.48259600000002,-3.403537,0.9589216,-0.5560377,0.274666,-52.10097,4.219714,7.552775
18.576308727,31.4723,10.45021,-2.184121,0.9625889,-0.5430895,0.3009779,-52.10097,4.219714,7.552775
18.586306572,30.24163,14.07071,-1.025677,0.9693771,-0.5408493,0.3186728,-52.11669,4.980426,7.548719
18.596304894,30.85696,18.52213,-0.5379106,0.9678189,-0.5610704,0.3426096,-52.11669,4.980426,7.548719
18.606302738,33.01062,23.03292,0.2547093,0.9805104,-0.5879402,0.3526444,-52.11669,4.980426,7.548719
18.616300583,35.96422,27.12823,0.4376215,0.9869724,-0.5945587,0.3588564,-52.11669,4.980426,7.548719
18.626298427,38.91782,31.93577,1.291212,0.9821301,-0.5960684,0.3636509,-52.11669,4.980426,7.548719
18.636297226,40.08695,36.20914,3.059364,0.9758352,-0.5716895,0.3861487,-52.48608,4.967262,6.320433
18.646295071,41.93295,40.24511,3.669072,0.9712856,-0.5630763,0.3813687,-52.48608,4.967262,6.320433
18.656293392,44.51734,44.45912,4.400721,0.9657916,-0.555865,0.3847264,-52.48608,4.967262,6.320433
18.666291237,45.3788,48.25768,5.315282,0.953995,-0.5501571,0.3967099,-52.48608,4.967262,6.320433
18.676289081,46.24027,52.47169,5.92499000000001,0.9658265,-0.5570853,0.4105698,-52.48608,4.967262,6.320433
18.686287403,46.8556,57.27923,4.705575,0.9671291,-0.5481415,0.4292297,-52.85011,4.943746,3.866641
18.696285725,46.91714,61.61195,2.75451,0.9540974,-0.5546635,0.434997,-52.85011,4.943746,3.866641
18.706283569,47.4094,65.9446799999998,0.31568,0.9408432,-0.5752867,0.4402897,-52.85011,4.943746,3.866641
18.716281891,48.76313,70.2180499999998,-1.147618,0.9483505,-0.612241,0.4216217,-52.85011,4.943746,3.866641
18.726279736,49.44,75.3817099999997,-4.135185,0.9250649,-0.5910127,0.4551572,-52.85011,4.943746,3.866641
18.73627758,48.3324,80.9014700000002,-7.61051899999998,0.9102292,-0.5789818,0.474323,-52.47669,5.679485,0.5758495
18.746275902,46.8556,85.2341900000003,-10.53712,0.9328973,-0.5927314,0.4628012,-52.47669,5.679485,0.5758495
18.756274223,47.90167,88.1424599999999,-11.45168,0.9616821,-0.5946012,0.4617943,-52.47669,5.679485,0.5758495
18.766272545,49.0708,91.1100800000003,-11.14682,1.002462,-0.559341,0.5095717,-52.47669,5.679485,0.5758495
18.77627039,47.9632,95.0866900000002,-10.72003,1.024176,-0.4947667,0.5626392,-52.47669,5.679485,0.5758495
18.786268234,44.57887,99.5974700000002,-11.14682,1.025595,-0.4914371,0.6047505,-52.81794,4.881638,-3.486395
18.796266079,42.91748,103.8115,-11.14682,1.042215,-0.5195731,0.6272219,-52.81794,4.881638,-3.486395
18.8062644,44.08661,110.1622,-13.82954,1.05472,-0.5368286,0.6262474,-52.81794,4.881638,-3.486395
18.816262722,45.5634,115.1478,-16.75613,1.037523,-0.5551044,0.6310678,-52.81794,4.881638,-3.486395
18.826261044,47.0402,119.065,-20.23147,1.027423,-0.5620633,0.635873,-52.81794,4.881638,-3.486395
18.836258888,49.87073,120.7863,-20.41438,1.04798,-0.6183543,0.6530803,-52.40603,4.082334,-8.381582
18.846256733,54.05499,123.4571,-16.8171,1.076646,-0.6395633,0.663086,-52.40603,4.082334,-8.381582
18.856255054,58.3007899999997,126.6028,-12.854,1.090759,-0.5860843,0.6884121,-52.40603,4.082334,-8.381582
18.866252899,59.0391800000002,129.6298,-10.65906,1.098547,-0.5332822,0.7065708,-52.40603,4.082334,-8.381582
18.876250744,56.02406,133.0722,-8.95187600000001,1.104167,-0.4945142,0.7357442,-52.40603,4.082334,-8.381582
18.886249542,51.90133,134.9715,-7.366636,1.097641,-0.4573343,0.7769036,-51.22384,2.518134,-14.42816
18.896247387,49.2554,137.9391,-5.415571,1.127844,-0.4046015,0.7921517,-51.22384,2.518134,-14.42816
18.906245232,46.4864,141.2628,-4.683922,1.129185,-0.423938,0.8002902,-51.22384,2.518134,-14.42816
18.916243553,46.97867,144.2898,-3.830332,1.125523,-0.4367194,0.792164,-51.22384,2.518134,-14.42816
18.926241398,49.74767,147.7916,-3.403537,1.12709,-0.4426338,0.7797199,-51.22384,2.518134,-14.42816
18.936240196,52.27053,149.2754,-0.964705900000002,1.116202,-0.4335678,0.7850009,-49.66492,0.9529352,-20.92345
18.946238041,52.76279,151.2934,-0.5379106,1.108802,-0.4281669,0.8070269,-49.66492,0.9529352,-20.92345
18.956235886,50.97833,150.9373,0.4376215,1.060255,-0.4642892,0.7879778,-49.66492,0.9529352,-20.92345
18.966234207,50.97833,150.2251,2.571598,1.014827,-0.4576081,0.8196413,-49.66492,0.9529352,-20.92345
18.976232052,53.80886,151.1153,3.425189,0.9921463,-0.4426894,0.8526987,-49.66492,0.9529352,-20.92345
18.986229897,54.85492,153.3707,2.449656,0.9923606,-0.4016643,0.8747023,-46.63062,0.5400534,-27.41371
18.996227741,51.4706,155.4481,2.75451,0.9717358,-0.3933906,0.8675575,-46.63062,0.5400534,-27.41371
19.00622654,47.71707,156.9912,4.400721,0.9685832,-0.4070067,0.8733094,-46.63062,0.5400534,-27.41371
19.016224384,45.07114,159.7214,7.57120099999999,0.9804503,-0.3894923,0.9029559,-46.63062,0.5400534,-27.41371
19.026222706,42.17908,162.8671,10.98556,0.9552765,-0.3453961,0.9436674,-46.63062,0.5400534,-27.41371
19.036220551,39.84081,165.7754,14.09507,0.9003366,-0.3525058,0.9227076,-43.18565,-1.765256,-33.11705
19.046218395,39.96388,166.6656,15.61934,0.8640528,-0.3406058,0.9208535,-43.18565,-1.765256,-33.11705
19.056216717,40.02541,166.7844,16.41196,0.8554909,-0.3256581,0.9266075,-43.18565,-1.765256,-33.11705
19.066215038,39.53315,165.4786,18.66788,0.848164,-0.3505376,0.9318911,-43.18565,-1.765256,-33.11705
19.07621336,40.08695,164.7664,21.89933,0.8466749,-0.3483514,0.9615647,-43.18565,-1.765256,-33.11705
19.086211205,40.70228,165.716,26.83796,0.8090609,-0.3431755,0.9712005,-38.63835,-2.924331,-39.20512
19.096209049,40.88688,166.547,31.89853,0.7698624,-0.3575036,0.9770154,-38.63835,-2.924331,-39.20512
19.106206894,42.85594,168.5056,34.39833,0.7504271,-0.3602076,0.9890146,-38.63835,-2.924331,-39.20512
19.116205215,46.73254,170.5829,34.58125,0.7210923,-0.4069824,0.9857277,-38.63835,-2.924331,-39.20512
19.126203537,54.11652,172.0074,32.8131,0.7119673,-0.4154334,0.9316666,-38.63835,-2.924331,-39.20512
19.136201859,60.70058,173.4318,29.52067,0.6867682,-0.3721317,0.885756,-33.40967,-4.067353,-43.9981
19.146199703,63.3465099999998,174.3815,25.06981,0.6355886,-0.3469951,0.8226668,-33.40967,-4.067353,-43.9981
19.156197548,62.85424,173.9066,22.20418,0.5806842,-0.3040214,0.8050441,-33.40967,-4.067353,-43.9981
19.166195393,61.1313099999997,172.1261,20.74088,0.5186504,-0.269532,0.831465,-33.40967,-4.067353,-43.9981
19.176193714,61.5005100000001,171.6512,20.80186,0.5045692,-0.2466166,0.8171265,-26.60694,-5.953374,-48.06593
19.186192036,63.2234399999998,170.7016,22.38709,0.4955072,-0.2584987,0.7597161,-26.60694,-5.953374,-48.06593
19.196190357,62.9157800000001,169.3959,21.77739,0.4866479,-0.2289445,0.7161735,-26.60694,-5.953374,-48.06593
19.206188202,56.39325,168.6836,19.4605,0.4504591,-0.222559,0.6956562,-26.60694,-5.953374,-48.06593
19.216186047,48.64007,167.8527,18.48497,0.4031586,-0.2212305,0.6775524,-26.60694,-5.953374,-48.06593
19.226184368,41.13301,166.8437,18.72885,0.3486979,-0.2270387,0.6915276,-20.16717,-8.595293,-51.22948
19.236182213,34.30282,166.7844,21.16768,0.3013836,-0.2238315,0.7193667,-20.16717,-8.595293,-51.22948
19.246181011,30.24163,166.725,24.33816,0.2513996,-0.2079461,0.7577358,-20.16717,-8.595293,-51.22948
19.256178856,29.9955,166.9624,27.02087,0.2091567,-0.1896974,0.772162,-20.16717,-8.595293,-51.22948
19.266176701,32.88756,166.6063,27.3867,0.1577405,-0.1775587,0.7229552,-20.16717,-8.595293,-51.22948
19.276174545,42.85594,165.1225,24.03331,0.1261921,-0.1597829,0.662705,-11.86009,-11.14995,-53.21845
19.286172867,51.16293,163.2826,20.13118,0.1020423,-0.09386591,0.6431085,-11.86009,-11.14995,-53.21845
19.296170712,50.23993,160.3743,20.07021,0.07138535,-0.04453367,0.6307063,-11.86009,-11.14995,-53.21845
19.30616951,43.84047,157.8815,23.11874,0.02512577,0.006329754,0.659967,-11.86009,-11.14995,-53.21845
19.316167355,34.85662,155.8635,29.52067,-0.01831025,-0.01583966,0.6677057,-11.86009,-11.14995,-53.21845
19.326165199,28.76484,154.3204,37.50784,-0.02319354,-0.01477564,0.6882926,-5.140368,-12.63157,-54.38626
19.336163521,25.93431,154.4984,42.99521,-0.04583674,0.07514458,0.6863946,-5.140368,-12.63157,-54.38626
19.346161366,22.36538,155.2106,40.55638,-0.09621798,0.08457673,0.6577654,-5.140368,-12.63157,-54.38626
19.35615921,21.68851,154.6765,35.55678,-0.1350124,-0.003098704,0.6659915,-5.140368,-12.63157,-54.38626
19.366158009,26.48811,154.0236,36.28843,-0.149341,-0.04326314,0.7153201,-5.140368,-12.63157,-54.38626
19.376155853,32.64143,155.8042,38.48338,-0.1627071,-0.05735634,0.7440616,1.269566,-14.48553,-54.32885
19.386153698,36.70262,158.7718,42.99521,-0.1997849,-0.02962011,0.7221047,1.269566,-14.48553,-54.32885
19.39615202,34.91816,158.475,48.36064,-0.2554303,0.02545138,0.6475296,1.269566,-14.48553,-54.32885
19.406149864,32.76449,155.9229,49.702,-0.282266,-0.02699311,0.5504389,1.269566,-14.48553,-54.32885
19.416147709,32.21069,153.074,48.29967,-0.2599993,-0.0216869,0.445112,1.269566,-14.48553,-54.32885
19.426146507,24.64211,148.3258,44.88531,-0.281309,-0.004957106,0.354694,8.419956,-16.31644,-52.20187
19.436144352,14.18146,140.4319,45.67793,-0.3362958,0.04006643,0.2427915,8.419956,-16.31644,-52.20187
19.446142674,0.705681,129.5111,49.45811,-0.3790798,-0.09570488,0.207965,8.419956,-16.31644,-52.20187
19.456140518,3.290077,120.8456,48.60452,-0.4967254,-0.1884494,0.2043653,8.419956,-16.31644,-52.20187
19.466138363,5.81293900000002,114.9697,43.23909,-0.5055336,-0.02908014,0.2742117,8.419956,-16.31644,-52.20187
19.476136208,4.520741,110.0435,37.26396,-0.5872558,0.042022,0.3083148,14.83239,-18.54041,-50.91692
19.486135006,-1.201849,106.1856,32.44727,-0.5735046,0.08860727,0.3245504,14.83239,-18.54041,-50.91692
19.496132851,-10.24723,101.8529,31.04494,-0.5932369,0.0764154,0.3623955,14.83239,-18.54041,-50.91692
19.506131172,-13.3239,99.24136,31.04494,-0.582293,0.0388203,0.3724362,14.83239,-18.54041,-50.91692
19.516129017,-14.98529,97.22337,31.16688,-0.5898467,0.0525406,0.4011604,14.83239,-18.54041,-50.91692
19.526126862,-17.26202,94.4931600000003,31.16688,-0.6484583,0.06030501,0.4204036,19.35201,-20.0112,-48.87593
19.536125183,-15.23143,91.1100800000003,29.09388,-0.6914186,0.03855637,0.4200055,19.35201,-20.0112,-48.87593
19.546123505,-6.001441,86.8367099999997,25.43563,-0.7127161,0.004381925,0.3956441,19.35201,-20.0112,-48.87593
19.556121349,3.105477,81.2575799999998,21.47253,-0.7340564,0.02401455,0.3569115,19.35201,-20.0112,-48.87593
19.566119671,8.33580199999998,76.3313400000001,17.81429,-0.7161793,-0.0206854,0.3190844,19.35201,-20.0112,-48.87593
19.576117516,8.76653499999999,71.76121,18.05817,-0.6920853,-0.03166142,0.3420169,23.41422,-20.35073,-47.61828
19.58611536,7.90506900000002,70.63351,20.55797,-0.6792153,-0.04118644,0.3884187,23.41422,-20.35073,-47.61828
19.596113682,8.88960099999997,69.7432299999997,22.81389,-0.7344701,0.02090306,0.3894562,23.41422,-20.35073,-47.61828
19.606112003,14.42759,68.6748900000001,19.09467,-0.8079246,0.06611537,0.3910083,23.41422,-20.35073,-47.61828
19.616110325,21.44238,66.6569099999998,13.36342,-0.8601258,0.1207875,0.3714637,23.41422,-20.35073,-47.61828
19.626108169,23.59604,63.68929,7.022464,-0.8975828,0.169053,0.3633808,26.42055,-21.07478,-45.91497
19.636106014,17.50425,62.2054700000002,3.48616,-0.8731212,0.190016,0.3709899,26.42055,-21.07478,-45.91497
19.646103859,3.782343,62.9177099999999,3.608101,-0.8258401,0.1896283,0.3857435,26.42055,-21.07478,-45.91497
19.65610218,-12.83163,65.9446799999998,7.754113,-0.7782965,0.1766298,0.455536,26.42055,-21.07478,-45.91497
19.666100502,-27.47654,70.3367499999999,12.9976,-0.7557288,0.1433448,0.4866127,26.42055,-21.07478,-45.91497
19.676098823,-33.876,73.6604799999999,18.72885,-0.7620187,0.1150491,0.4880667,29.03302,-21.03439,-43.44449
19.686096668,-29.0764,73.2450200000002,19.15564,-0.787076,0.09993194,0.4833285,29.03302,-21.03439,-43.44449
19.696094513,-18.12349,71.5831500000001,15.74128,-0.8378546,0.1300938,0.437466,29.03302,-21.03439,-43.44449
19.706092834,-8.64737,68.2000700000001,10.31489,-0.8707249,0.1142213,0.3671767,29.03302,-21.03439,-43.44449
19.716090679,-4.586177,62.73965,8.05896700000001,-0.8507261,0.08520021,0.2857913,32.03963,-21.75898,-41.80568
19.726089477,-3.170913,57.33858,8.36382100000002,-0.8162727,0.06538709,0.2235215,32.03963,-21.75898,-41.80568
19.736087322,-0.0942510000000003,52.05622,10.31489,-0.7534162,0.06570093,0.2281976,32.03963,-21.75898,-41.80568
19.746085167,4.336142,48.61379,14.0341,-0.7331506,0.1019075,0.2114028,32.03963,-21.75898,-41.80568
19.756083012,8.58193500000002,44.57783,16.41196,-0.7382824,0.08883384,0.1745647,32.03963,-21.75898,-41.80568
19.766081333,14.18146,39.41417,16.59487,-0.7651298,0.1160362,0.1253112,33.15063,-21.35983,-40.57386
19.776079178,16.58125,33.7757,14.4609,-0.7858326,0.1536832,0.08896582,33.15063,-21.35983,-40.57386
19.786077976,14.91986,27.5437,13.18051,-0.8251728,0.1985538,0.08567281,33.15063,-21.35983,-40.57386
19.796075821,11.35093,20.95558,12.26595,-0.85905,0.1598494,0.07138455,33.15063,-21.35983,-40.57386
19.806073666,11.474,14.66423,12.44886,-0.8768902,0.1497869,0.07237539,33.15063,-21.35983,-40.57386
19.816071987,14.79679,9.61928199999999,10.13197,-0.9331632,0.1886934,0.09112795,34.65997,-22.09894,-39.33318
19.826069832,18.55032,4.218216,5.376253,-0.970199,0.1890169,0.1002854,34.65997,-22.09894,-39.33318
19.83606863,19.53485,-0.5299737,1.596066,-0.9290212,0.1763908,0.1184027,34.65997,-22.09894,-39.33318
19.846066475,15.04292,-5.040754,0.620533899999998,-0.9078596,0.1665919,0.1700546,34.65997,-22.09894,-39.33318
19.85606432,9.01266799999998,-8.18642900000001,1.352183,-0.9017392,0.1280797,0.2494974,34.65997,-22.09894,-39.33318
19.866062164,6.24367199999998,-9.25477200000002,2.449656,-0.916976,0.1373897,0.3438011,35.41982,-22.84368,-38.09805
19.876060486,6.67440499999999,-7.889668,2.266744,-0.9493126,0.1742746,0.4084557,35.41982,-22.84368,-38.09805
19.886058331,7.41280299999999,-5.45622,-0.5379106,-0.9741779,0.2025688,0.4740567,35.41982,-22.84368,-38.09805
19.896057129,6.612871,-2.19184,-2.306063,-0.9444496,0.1764294,0.4740116,35.41982,-22.84368,-38.09805
19.906054974,4.828408,-0.1738595,-3.891303,-0.9178146,0.1323621,0.4332976,35.41982,-22.84368,-38.09805
19.916052818,1.013347,0.8351307,-4.074214,-0.8944115,0.1047793,0.3954564,34.67231,-22.85312,-38.55511
19.92605114,-5.201509,-0.3519166,-2.91577,-0.8764573,0.0563249,0.3719873,34.67231,-22.85312,-38.55511
19.936048985,-6.92443900000002,-1.18285,-3.220624,-0.8571975,0.04255171,0.3652572,34.67231,-22.85312,-38.55511
19.946046829,-5.570708,-0.589326100000003,-4.622952,-0.8396395,0.09333125,0.3537277,34.67231,-22.85312,-38.55511
19.956045628,-4.83231,-0.05515479,-6.20819099999998,-0.8631511,0.1516481,0.3518394,34.67231,-22.85312,-38.55511
19.966043472,-3.417045,-0.2925643,-7.67149000000001,-0.8854943,0.1734459,0.3394297,34.68187,-23.23674,-38.94009
19.976041317,-0.832649800000001,-1.123497,-9.43964200000003,-0.8885512,0.1799826,0.3169403,34.68187,-23.23674,-38.94009
19.986039639,-1.140316,-3.20083,-9.74449500000001,-0.8729758,0.1799131,0.2757556,34.68187,-23.23674,-38.94009
19.996037483,-3.109379,-6.82132499999999,-8.46410900000001,-0.8706052,0.1304982,0.2341281,34.68187,-23.23674,-38.94009
20.006035328,-1.817181,-10.73858,-7.12275300000002,-0.8467406,0.05238217,0.1958205,34.68187,-23.23674,-38.94009
20.016034126,2.244012,-15.24936,-6.75692799999998,-0.8415365,0.06000565,0.1680521,35.06447,-23.61428,-38.93528
20.026031971,5.44374,-20.29431,-8.22022599999998,-0.8569643,0.1285115,0.147004,35.06447,-23.61428,-38.93528
20.036029816,7.843536,-25.57667,-10.72003,-0.8547633,0.166147,0.1130116,35.06447,-23.61428,-38.93528
20.046028137,11.474,-31.57126,-13.34177,-0.8514729,0.1981482,0.09816174,35.06447,-23.61428,-38.93528
20.056025982,15.35059,-37.74391,-15.7806,-0.8378647,0.2254149,0.07468078,35.06447,-23.61428,-38.93528
20.06602478,18.48878,-44.86619,-17.91458,-0.8253629,0.2336728,0.04737801,35.04874,-22.85357,-38.93934
20.076022625,21.50391,-52.582,-19.37788,-0.8066126,0.194318,0.007633647,35.04874,-22.85357,-38.93934
20.08602047,24.45751,-61.72227,-19.49982,-0.7948231,0.1363291,-0.03544382,35.04874,-22.85357,-38.93934
20.096018791,29.2571,-72.1089299999997,-19.07302,-0.7788844,0.06549032,-0.05794644,35.04874,-22.85357,-38.93934
20.106016636,36.02575,-81.7833700000003,-18.58526,-0.7565025,0.04181967,-0.03787917,35.04874,-22.85357,-38.93934
20.116014481,41.62528,-89.6178800000002,-17.73167,-0.7424837,0.1008219,0.007067351,34.30462,-22.86955,-40.1704
20.126013279,43.40974,-96.4434099999998,-16.39031,-0.7667806,0.1760182,0.045855,34.30462,-22.86955,-40.1704
20.136011124,41.87141,-103.0315,-17.36584,-0.7746333,0.2058344,0.08175422,34.30462,-22.86955,-40.1704
20.146008968,38.97935,-108.4919,-18.82914,-0.7428219,0.1731523,0.105636,34.30462,-22.86955,-40.1704
20.15600729,33.19522,-113.9524,-18.7072,-0.6909935,0.1376605,0.09789756,34.30462,-22.86955,-40.1704
20.166005135,25.13437,-119.7689,-18.03652,-0.6516566,0.1183342,0.07821234,31.70589,-23.66684,-42.18533
20.176002979,16.27359,-126.535,-16.2074,-0.6177245,0.07642595,0.09826418,31.70589,-23.66684,-42.18533
20.186001778,11.1048,-134.0134,-12.42721,-0.5799072,0.03654359,0.1719092,31.70589,-23.66684,-42.18533
20.195999622,14.55066,-138.999,-7.91537200000002,-0.5713608,0.0234219,0.2063552,31.70589,-23.66684,-42.18533
20.205997944,22.48845,-141.5512,-5.84236700000003,-0.5775238,0.09241789,0.2187911,31.70589,-23.66684,-42.18533
20.215995789,21.93465,-145.5278,-5.29363,-0.5889051,0.1541138,0.2412882,27.60429,-24.10265,-45.11639
20.225993633,12.2124,-150.9289,-3.220624,-0.5343027,0.1527848,0.2435862,27.60429,-24.10265,-45.11639
20.235991478,0.2134152,-155.9738,-0.8427644,-0.4340232,0.07966781,0.2147157,27.60429,-24.10265,-45.11639
20.245990276,-9.26270200000001,-161.9684,0.5595631,-0.3770311,0.002333501,0.1902288,27.60429,-24.10265,-45.11639
20.255988121,-17.26202,-169.3875,2.632569,-0.3318214,-0.06884521,0.2265401,27.60429,-24.10265,-45.11639
20.265986443,-21.32322,-176.0349,8.48576300000002,-0.2765065,-0.05366692,0.3317266,23.12399,-24.53364,-47.14725
20.275984287,-20.76942,-178.4684,15.4974,-0.2564869,-0.002789549,0.378579,23.12399,-24.53364,-47.14725
20.285982132,-22.30775,-179.1212,18.18011,-0.2732755,0.1131811,0.3962857,23.12399,-24.53364,-47.14725
20.295980454,-31.41467,-182.2669,15.92419,-0.2976639,0.1660388,0.3838716,23.12399,-24.53364,-47.14725
20.305978775,-46.49031,-186.3622,12.93663,-0.2300249,0.1185573,0.3593585,15.69026,-23.8565,-50.49597
20.31597662,-61.8736199999998,-190.4576,9.339353,-0.123952,-0.004270082,0.3022547,15.69026,-23.8565,-50.49597
20.325974941,-76.64159,-195.3838,7.14440499999997,-0.001906813,-0.09353948,0.3197723,15.69026,-23.8565,-50.49597
20.335972786,-89.9942999999998,-200.4287,8.42479100000002,0.03239624,-0.07467387,0.4484446,15.69026,-23.8565,-50.49597
20.345970631,-99.9011499999998,-201.5564,12.87566,0.02318177,-0.1256454,0.5800822,15.69026,-23.8565,-50.49597
20.355969429,-98.1166900000003,-198.9449,18.18011,0.02035601,-0.1809002,0.6547592,7.802444,-22.78484,-51.78595
20.365967274,-91.5326300000001,-194.4342,19.33856,0.04143009,-0.08160431,0.7331833,7.802444,-22.78484,-51.78595
20.375965595,-90.05584,-189.686,15.74128,0.02915413,0.002037767,0.7662049,7.802444,-22.78484,-51.78595
20.38596344,-96.27069,-186.1842,10.68071,0.09059695,-0.0008156798,0.7464769,7.802444,-22.78484,-51.78595
20.395961285,-108.2697,-183.9881,5.80304899999998,0.1991067,-0.045853,0.6883917,7.802444,-22.78484,-51.78595
20.405959129,-123.4068,-183.8694,1.230241,0.2662433,-0.06432202,0.75528,-1.286535,-17.92134,-53.49155
20.415957928,-135.2828,-184.3443,-1.757326,0.2445599,-0.10151,0.8271139,-1.286535,-17.92134,-53.49155
20.425955772,-134.852,-182.8011,-2.976741,0.2417326,-0.2104123,0.8276254,-1.286535,-17.92134,-53.49155
20.435954094,-121.2532,-181.9702,-9.378671,0.2607489,-0.2638148,0.7921914,-1.286535,-17.92134,-53.49155
20.445951939,-107.2851,-183.454,-18.95108,0.3054617,-0.2327338,0.7466407,-1.286535,-17.92134,-53.49155
20.455949783,-101.9317,-186.0061,-25.96272,0.3899655,-0.1925091,0.711547,-9.577677,-13.0245,-51.96613
20.465948582,-109.1927,-188.1428,-29.43805,0.7163848,-0.2145464,0.7310838,-9.577677,-13.0245,-51.96613
20.475946427,-122.9146,-189.9827,-34.01086,0.5861341,-0.2069544,0.7270017,-9.577677,-13.0245,-51.96613
20.485944748,-138.1748,-192.5349,-36.38872,0.5789179,-0.2594136,0.904101,-9.577677,-13.0245,-51.96613
20.495942593,-140.8208,-191.7039,-34.86445,0.5819313,-0.4180937,0.9749658,-9.577677,-13.0245,-51.96613
20.505940437,-124.7606,-188.7363,-33.52309,0.6168867,-0.5407753,0.981158,-17.9398,-7.807355,-49.99134
20.515938282,-97.9320899999998,-185.9468,-34.49863,0.6163014,-0.5882038,0.9505423,-17.9398,-7.807355,-49.99134
20.525937081,-74.8571299999998,-185.4126,-35.96192,0.6635501,-0.5360062,0.9236463,-17.9398,-7.807355,-49.99134
20.535934925,-64.58108,-185.472,-37.97396,0.7122747,-0.4063918,0.9101278,-17.9398,-7.807355,-49.99134
20.545933247,-68.7038,-186.4216,-39.43726,0.6834397,-0.3229935,0.9522713,-17.9398,-7.807355,-49.99134
20.555931091,-76.8261899999999,-185.472,-38.15687,0.6519699,-0.3586767,0.9973215,-26.32351,-2.122488,-45.18092
20.565928936,-79.2259899999999,-181.4953,-35.47416,0.7241479,-0.4912653,1.008716,-26.32351,-2.122488,-45.18092
20.575927735,-71.8420000000002,-174.6698,-33.94989,0.820408,-0.6095533,0.990871,-26.32351,-2.122488,-45.18092
20.585925579,-60.7044899999999,-168.972,-32.97436,0.871877,-0.6526265,0.9520276,-26.32351,-2.122488,-45.18092
20.595923901,-51.53603,-165.1734,-32.48659,0.8965372,-0.6175419,0.9093823,-26.32351,-2.122488,-45.18092
20.605921745,-47.65944,-163.2742,-32.97436,0.8988951,-0.5375922,0.8260854,-32.77033,0.5330505,-40.40485
20.61591959,-53.25896,-162.7993,-35.10833,0.8792436,-0.4259824,0.7983335,-32.77033,0.5330505,-40.40485
20.625917435,-65.75021,-163.3929,-37.48619,0.8508719,-0.3417742,0.8218116,-32.77033,0.5330505,-40.40485
20.635916233,-77.3799900000002,-163.5709,-39.19337,0.8400064,-0.3856008,0.8352419,-32.77033,0.5330505,-40.40485
20.645914078,-78.5491299999998,-162.0871,-40.04696,0.9057598,-0.4878424,0.831325,-32.77033,0.5330505,-40.40485
20.655912399,-71.1651400000002,-158.8227,-39.74211,0.9974396,-0.5169207,0.8541443,-38.75584,1.684612,-33.94044
20.665910244,-63.3504099999999,-155.2022,-37.48619,1.034708,-0.5036157,0.8468973,-38.75584,1.684612,-33.94044
20.675908089,-57.8739600000001,-152.5907,-33.70601,1.061471,-0.5288209,0.7961281,-38.75584,1.684612,-33.94044
20.68590641,-52.5821,-151.7005,-31.26718,1.094385,-0.5192984,0.703703,-38.75584,1.684612,-33.94044
20.695904732,-49.9977,-151.8785,-31.57203,1.093461,-0.4718576,0.6328632,-38.75584,1.684612,-33.94044
20.705902576,-54.55116,-153.9558,-33.70601,1.069841,-0.4084651,0.6017806,-43.31717,3.60113,-28.24341
20.715900898,-63.3504099999999,-155.8551,-37.12037,1.072066,-0.4228853,0.6142234,-43.31717,3.60113,-28.24341
20.725898743,-70.3651999999998,-154.49,-38.94949,1.127416,-0.4897227,0.6251513,-43.31717,3.60113,-28.24341
20.735896587,-75.9031899999997,-151.6411,-39.1324,1.161567,-0.5432804,0.646163,-43.31717,3.60113,-28.24341
20.745895386,-79.1644499999997,-147.3677,-37.12037,1.1804,-0.5854475,0.6705484,-43.31717,3.60113,-28.24341
20.75589323,-80.7027899999997,-142.2041,-33.15727,1.181356,-0.6365139,0.6638598,-46.36102,4.397637,-21.36818
20.765891552,-79.2259899999999,-137.6339,-29.07223,1.179599,-0.6731828,0.6432936,-46.36102,4.397637,-21.36818
20.775889397,-76.64159,-132.4703,-26.93825,1.180783,-0.6586865,0.6318019,-46.36102,4.397637,-21.36818
20.785887241,-74.36486,-128.0189,-27.97475,1.138554,-0.6166668,0.5887929,-46.36102,4.397637,-21.36818
20.795885086,-71.8420000000002,-126.2976,-30.53553,1.092499,-0.6043388,0.5486696,-46.36102,4.397637,-21.36818
20.805883884,-68.3346099999999,-125.5854,-31.81591,1.109733,-0.5879973,0.5448068,-49.35601,2.90874,-14.86778
20.815881729,-66.1194099999998,-123.2707,-31.45009,1.148113,-0.5562572,0.5318101,-49.35601,2.90874,-14.86778
20.825880051,-67.4116099999997,-119.8282,-29.31611,1.180202,-0.5521164,0.5432389,-49.35601,2.90874,-14.86778
20.835877895,-72.0266000000001,-115.4955,-24.62136,1.190164,-0.5635427,0.5475317,-49.35601,2.90874,-14.86778
20.84587574,-77.6876600000001,-111.1628,-18.89011,1.189746,-0.5932329,0.5432329,-51.27394,3.710415,-8.371212
20.855874538,-79.8413200000001,-106.1178,-14.7441,1.181905,-0.6166383,0.5513883,-51.27394,3.710415,-8.371212
20.865872383,-77.5030600000002,-100.3013,-14.13439,1.152889,-0.6283751,0.5528777,-51.27394,3.710415,-8.371212
20.875870705,-71.5958699999998,-94.4847699999998,-15.90254,1.113971,-0.6321869,0.5390679,-51.27394,3.710415,-8.371212
20.885868549,-65.8117399999998,-89.5585300000001,-17.97555,1.090731,-0.6149206,0.5113465,-51.27394,3.710415,-8.371212
20.895866394,-62.7966199999999,-85.4038599999997,-19.07302,1.077907,-0.5814081,0.4840814,-52.40755,2.989754,-2.634971
20.905864239,-65.56561,-81.1304899999998,-18.58526,1.069664,-0.5578125,0.4783468,-52.40755,2.989754,-2.634971
20.915863037,-70.11907,-77.6286999999999,-17.30487,1.058995,-0.5868254,0.4640155,-52.40755,2.989754,-2.634971
20.925860882,-71.3497299999998,-72.5244000000003,-15.65866,1.057972,-0.6357898,0.4788658,-52.40755,2.989754,-2.634971
20.935859203,-70.11907,-66.6485100000002,-13.40274,1.050561,-0.6555834,0.5090341,-52.40755,2.989754,-2.634971
20.945857048,-68.0269399999999,-60.0010499999998,-11.63459,1.032094,-0.6576859,0.5315599,-52.79221,2.640908,1.427796
20.955854893,-65.44254,-53.17552,-11.08585,1.018448,-0.6310005,0.5564628,-52.79221,2.640908,1.427796
20.965853691,-62.8581499999998,-45.63777,-11.87847,1.001949,-0.608347,0.5718001,-52.79221,2.640908,1.427796
20.975851536,-58.3662199999997,-37.86261,-12.06138,0.9910822,-0.6265721,0.5684738,-52.79221,2.640908,1.427796
20.985849857,-51.04377,-31.2745,-10.96391,1.009946,-0.645217,0.561267,-52.79221,2.640908,1.427796
20.995847702,-44.02898,-24.98315,-9.74449500000001,1.02518,-0.6258985,0.5684142,-52.79425,1.914519,5.495372
21.005845547,-36.52193,-20.59108,-8.34216799999998,0.9957486,-0.6430994,0.5048192,-52.79425,1.914519,5.495372
21.015843391,-25.01521,-17.50475,-6.45207400000002,1.005234,-0.682169,0.4631766,-52.79425,1.914519,5.495372
21.02584219,-9.26270200000001,-14.35908,-5.415571,1.016048,-0.6873885,0.4535877,-52.79425,1.914519,5.495372
21.035840034,4.582274,-10.79793,-4.257127,1.000146,-0.6713165,0.4387754,-52.79425,1.914519,5.495372
21.045838356,15.10446,-7.236791,-3.525478,0.9797184,-0.6481985,0.407219,-52.40745,1.163705,6.340713
21.055836201,22.24231,-3.735002,-3.464507,0.9708783,-0.6195895,0.3665481,-52.40745,1.163705,6.340713
21.065834045,26.05737,-1.123497,-3.098683,0.9598734,-0.5792774,0.3349709,-52.40745,1.163705,6.340713
21.075832844,27.53417,0.4790165,-2.976741,0.9685664,-0.5504053,0.2851763,-52.40745,1.163705,6.340713
21.085830688,28.7033,1.784769,-3.281595,0.969868,-0.5422633,0.269379,-52.40745,1.163705,6.340713
21.095828533,30.42623,4.396273,-3.830332,0.9880209,-0.5222258,0.2956639,-52.04057,1.546873,6.341465
21.105826855,30.85696,8.66964300000001,-3.891303,0.9786879,-0.5179051,0.3100363,-52.04057,1.546873,6.341465
21.115824699,30.42623,12.88366,-4.257127,0.976608,-0.4840741,0.3473601,-52.04057,1.546873,6.341465
21.125822544,26.73424,17.21638,-2.91577,0.9605784,-0.4860714,0.3761032,-52.04057,1.546873,6.341465
21.135821342,23.90371,21.25234,-1.635384,0.9680656,-0.4949282,0.4009784,-52.04057,1.546873,6.341465
21.145819187,21.19625,25.94118,-0.4159691,0.9909319,-0.4922608,0.4306095,-52.40547,1.159891,5.889211
21.155817509,18.24265,31.57966,0.864416900000002,1.019779,-0.4967993,0.4564035,-52.40547,1.159891,5.889211
21.165815353,15.35059,38.46453,1.596066,1.023641,-0.5203894,0.4721959,-52.40547,1.159891,5.889211
21.175813198,14.48913,45.112,1.352183,1.029003,-0.5714467,0.5100071,-52.40547,1.159891,5.889211
21.185811997,15.90439,53.12457,2.388686,1.054585,-0.6087472,0.5736228,-52.40547,1.159891,5.889211
21.195809841,16.39665,62.9177099999999,5.376253,1.071838,-0.6166656,0.6798386,-52.78889,1.904168,4.269866
21.205807686,15.41212,73.6604799999999,10.01003,1.063251,-0.6242934,0.767435,-52.78889,1.904168,4.269866
21.215806007,14.11993,84.7000299999998,16.29002,1.039947,-0.6533796,0.8253908,-52.78889,1.904168,4.269866
21.225803852,12.76619,94.8492800000002,21.77739,1.05379,-0.6629205,0.8679624,-52.78889,1.904168,4.269866
21.235801697,13.44306,104.4644,25.13078,1.064806,-0.7044193,0.8760897,-52.78889,1.904168,4.269866
21.245800495,17.87345,113.3079,26.10631,1.086042,-0.7980672,0.8454479,-52.76244,1.122754,1.82291
21.25579834,28.8879,122.2701,27.3867,1.136044,-0.8670163,0.7965637,-52.76244,1.122754,1.82291
21.265796661,41.68681,131.1136,28.48417,1.180675,-0.8828408,0.7763898,-52.76244,1.122754,1.82291
21.275794506,51.03986,138.77,30.923,1.210317,-0.8790904,0.7504941,-52.76244,1.122754,1.82291
21.285792351,56.45479,145.6549,34.39833,1.225507,-0.8324206,0.7198267,-52.76244,1.122754,1.82291
21.295791149,56.20865,150.8186,37.32493,1.229219,-0.7714082,0.6882185,-52.75754,2.208795,-4.697704
21.305788994,52.45513,154.9732,38.8492,1.241967,-0.7498538,0.6795763,-52.75754,2.208795,-4.697704
21.315786839,46.97867,159.1873,39.51988,1.260223,-0.7358561,0.682891,-52.75754,2.208795,-4.697704
21.32578516,41.62528,163.8761,39.70279,1.270675,-0.7471718,0.6981901,-52.75754,2.208795,-4.697704
21.335783005,39.10242,167.912,39.94667,1.294328,-0.7605863,0.7211239,-52.75754,2.208795,-4.697704
21.345781803,41.44068,173.3131,41.53191,1.329378,-0.7846549,0.7234619,-51.98376,2.532668,-12.04721
21.355779648,46.36334,177.6458,44.15366,1.346277,-0.7766643,0.7105088,-51.98376,2.532668,-12.04721
21.365777493,50.97833,181.1476,47.68996,1.352459,-0.7688987,0.6961388,-51.98376,2.532668,-12.04721
21.375775814,55.53179,183.1656,51.95791,1.340574,-0.7326046,0.7052431,-51.98376,2.532668,-12.04721
21.385773659,58.7930499999999,183.7591,57.01849,1.315801,-0.685034,0.7000097,-51.98376,2.532668,-12.04721
21.395771504,62.0543099999999,183.403,61.9571200000001,1.299841,-0.6661574,0.6732324,-49.76266,5.523743,-20.17379
21.405770302,66.7923699999997,182.2753,65.1276000000001,1.28384,-0.6711146,0.6440685,-49.76266,5.523743,-20.17379
21.415768147,73.9302199999999,181.5037,66.10313,1.246306,-0.6455066,0.6029697,-49.76266,5.523743,-20.17379
21.425765991,79.7143499999999,180.6728,65.6763399999999,1.191955,-0.5794196,0.6140547,-49.76266,5.523743,-20.17379
21.435764313,81.7449399999998,179.9012,65.6763399999999,1.141603,-0.5185858,0.6265698,-45.61449,5.869658,-27.88527
21.445762158,79.7758799999998,179.3671,67.5664299999999,1.076409,-0.497923,0.6357711,-45.61449,5.869658,-27.88527
21.455760956,78.6067499999998,178.2987,70.3710900000002,1.054373,-0.5183785,0.625286,-45.61449,5.869658,-27.88527
21.465758801,81.0680799999997,176.5181,72.1392399999998,1.024959,-0.5358195,0.5884915,-45.61449,5.869658,-27.88527
21.475756645,87.0983400000001,172.957,72.2611800000002,0.9929919,-0.5213132,0.5435573,-45.61449,5.869658,-27.88527
21.48575449,92.4517300000002,170.2861,70.4930300000001,0.967147,-0.4426899,0.5354463,-41.83322,5.832405,-35.5975
21.495752812,91.0364600000002,167.7934,66.9567299999998,0.8834378,-0.3705201,0.5312665,-41.83322,5.832405,-35.5975
21.505751133,84.1447399999998,164.4696,62.4448899999999,0.7942461,-0.3171867,0.5515084,-41.83322,5.832405,-35.5975
21.515749455,75.3454899999999,159.0092,57.6891700000002,0.7212207,-0.2940253,0.5851302,-41.83322,5.832405,-35.5975
21.525747299,67.4692400000001,154.6171,54.15286,0.6711949,-0.3020089,0.617284,-41.83322,5.832405,-35.5975
21.535745144,63.10038,150.4031,52.93344,0.6304553,-0.3119151,0.6317148,-36.23398,5.06547,-41.22822
21.545743466,62.9157800000001,147.7323,51.71403,0.6006827,-0.3617808,0.6102437,-36.23398,5.06547,-41.22822
21.55574131,66.1155,145.9517,50.00685,0.5523947,-0.4370531,0.6136973,-36.23398,5.06547,-41.22822
21.565740109,71.0381599999997,144.1711,49.33617,0.4952389,-0.4814926,0.6071082,-36.23398,5.06547,-41.22822
21.575737953,75.6531500000001,140.5506,49.88491,0.442255,-0.4883268,0.6119881,-36.23398,5.06547,-41.22822
21.585735798,79.22208,137.2269,49.09229,0.4113735,-0.4780269,0.6359681,-29.42786,3.17291,-46.07005
21.595733643,81.4372800000001,135.9805,48.48258,0.3871373,-0.4583891,0.6570626,-29.42786,3.17291,-46.07005
21.605731964,79.40668,134.9121,47.14122,0.3630005,-0.4169381,0.7250519,-29.42786,3.17291,-46.07005
21.615730286,74.7916900000001,135.2682,47.99482,0.3267543,-0.379763,0.7767917,-29.42786,3.17291,-46.07005
21.625728607,68.6998999999999,135.2089,48.8484,0.3083812,-0.3602234,0.8275478,-29.42786,3.17291,-46.07005
21.635726452,65.1309699999999,135.0902,47.93384,0.2934966,-0.3715099,0.8476768,-24.50082,1.27664,-49.70029
21.645724296,67.2231,136.6927,47.01928,0.2881341,-0.3709807,0.8639576,-24.50082,1.27664,-49.70029
21.655722618,72.6995600000001,137.6423,44.45851,0.2595167,-0.3264676,0.8515531,-24.50082,1.27664,-49.70029
21.66572094,78.0529500000001,139.9571,40.06861,0.2497619,-0.2998721,0.8582633,-24.50082,1.27664,-49.70029
21.675719261,81.0680799999997,140.3726,35.3129,0.2121937,-0.2722465,0.8252999,-24.50082,1.27664,-49.70029
21.685717106,81.7449399999998,140.0164,32.20339,0.2016645,-0.2563834,0.8291428,-18.43918,-1.361554,-52.09261
21.69571495,79.8989499999998,140.0164,31.3498,0.1752489,-0.2767894,0.8335012,-18.43918,-1.361554,-52.09261
21.705712795,79.65282,141.5002,32.26436,0.1690363,-0.257549,0.8253714,-18.43918,-1.361554,-52.09261
21.715711117,77.12995,143.6369,32.44727,0.1408213,-0.2079668,0.8349793,-18.43918,-1.361554,-52.09261
21.725709438,71.5304300000001,144.8833,31.59368,0.06405671,-0.1689582,0.8030385,-18.43918,-1.361554,-52.09261
21.73570776,66.4231699999999,143.9337,29.70359,0.006284734,-0.1817763,0.7485849,-12.36379,-4.756645,-54.02937
21.745705604,66.4846999999998,142.3312,25.61855,-0.02867024,-0.1888412,0.7424261,-12.36379,-4.756645,-54.02937
21.755703449,68.0230300000001,141.4409,20.98477,-0.03896109,-0.1591564,0.7692366,-12.36379,-4.756645,-54.02937
21.765701294,66.9769700000002,141.2628,18.18011,-0.05285398,-0.1201311,0.7625508,-12.36379,-4.756645,-54.02937
21.775700092,63.7157100000002,140.1351,17.93623,-0.06952864,-0.1147389,0.750614,-12.36379,-4.756645,-54.02937
21.785697937,60.70058,140.0758,18.66788,-0.0776218,-0.1252263,0.7372307,-5.981199,-8.139585,-54.80283
21.795696258,58.6699799999998,140.4319,19.70438,-0.1046067,-0.1156293,0.7291394,-5.981199,-8.139585,-54.80283
21.805694103,59.1622500000003,139.3042,19.39953,-0.1595345,-0.1751898,0.7115433,-5.981199,-8.139585,-54.80283
21.815691948,67.1000400000002,139.0668,18.97273,-0.1269166,-0.1743489,0.6799002,-5.981199,-8.139585,-54.80283
21.825690746,72.1457599999998,139.3042,17.08264,-0.1266492,-0.08500057,0.6722195,-5.981199,-8.139585,-54.80283
21.835688591,67.5922999999998,139.0074,16.29002,-0.1668625,0.005815408,0.6469017,0.08243752,-11.45113,-54.35342
21.845686913,56.70092,137.1082,17.44846,-0.1858996,0.05933494,0.6421353,0.08243752,-11.45113,-54.35342
21.855684757,48.27087,135.3869,20.55797,-0.2130833,0.05249284,0.5904983,0.08243752,-11.45113,-54.35342
21.865682602,45.5634,131.351,22.87486,-0.266434,-0.03985776,0.5441932,0.08243752,-11.45113,-54.35342
21.8756814,51.4706,126.6622,24.39913,-0.264579,-0.08786009,0.4987375,0.08243752,-11.45113,-54.35342
21.885679245,59.4083800000001,122.8636,24.33816,-0.296713,-0.06392249,0.4758158,6.896589,-14.81989,-53.83361
21.89567709,63.3465099999998,119.3025,22.69195,-0.3079362,-0.01115905,0.4777361,6.896589,-14.81989,-53.83361
21.905675411,59.4083800000001,116.3348,21.5335,-0.3333537,0.04458956,0.4648445,6.896589,-14.81989,-53.83361
21.915673256,50.7322,114.3169,22.26515,-0.3189205,0.02902726,0.4854021,6.896589,-14.81989,-53.83361
21.925671101,41.31761,114.5543,24.09428,-0.3461534,0.05245827,0.5026723,6.896589,-14.81989,-53.83361
21.935669899,31.71843,115.4445,26.89893,-0.3696278,0.05756354,0.5271192,12.57974,-18.18401,-51.77414
21.945667744,24.51904,115.86,29.4597,-0.4406438,0.07650423,0.5200595,12.57974,-18.18401,-51.77414
21.955666065,21.44238,114.9104,30.06941,-0.5072255,0.06683127,0.5096494,12.57974,-18.18401,-51.77414
21.96566391,23.22684,112.4769,29.15485,-0.5478076,0.07361154,0.4886611,12.57974,-18.18401,-51.77414
21.975661755,24.08831,109.3906,27.32573,-0.5518436,0.1328079,0.4876957,17.48785,-20.40888,-49.27481
21.985660553,20.82705,106.4823,25.86243,-0.5914192,0.163949,0.4714851,17.48785,-20.40888,-49.27481
21.995658398,18.11959,103.5147,25.37466,-0.6168127,0.1140163,0.4332561,17.48785,-20.40888,-49.27481
22.005656242,20.02711,101.6748,24.70398,-0.6510166,0.09285642,0.4251854,17.48785,-20.40888,-49.27481
22.015654564,22.79611,100.4284,24.03331,-0.6729813,0.09410305,0.3965088,17.48785,-20.40888,-49.27481
22.025652409,25.44204,98.35107,22.63098,-0.6990112,0.1303054,0.3730947,22.01335,-22.25621,-46.7803
22.035651207,26.6727,95.7989200000002,19.88729,-0.6882048,0.1776816,0.3759351,22.01335,-22.25621,-46.7803
22.045649052,24.27291,93.1874199999998,17.32652,-0.6859756,0.2154282,0.4070289,22.01335,-22.25621,-46.7803
22.055646896,19.10412,91.1100800000003,16.65584,-0.6920924,0.2043106,0.4266641,22.01335,-22.25621,-46.7803
22.065645218,13.44306,89.1514500000001,16.5339,-0.7019482,0.1841747,0.4247721,22.01335,-22.25621,-46.7803
22.075643063,9.13573400000002,88.20181,16.83875,-0.6884704,0.1668637,0.4156601,24.97573,-24.11198,-43.91035
22.085641384,5.505273,86.3025400000002,17.14361,-0.6987481,0.1425864,0.3869697,24.97573,-24.11198,-43.91035
22.095639706,5.074541,84.6406700000001,16.83875,-0.7008141,0.1224816,0.3716641,24.97573,-24.11198,-43.91035
22.10563755,8.33580199999998,82.8600999999998,14.15604,-0.736367,0.1211923,0.3607192,24.97573,-24.11198,-43.91035
22.115635395,12.2124,80.07054,11.35139,-0.7493767,0.1138172,0.3794082,24.97573,-24.11198,-43.91035
22.125633717,14.61219,77.9338499999998,10.19294,-0.7265769,0.1198017,0.3999457,28.36297,-25.2103,-41.81523
22.135631561,14.55066,77.5777400000002,9.76614900000002,-0.7598541,0.153861,0.4234452,28.36297,-25.2103,-41.81523
22.14563036,10.98173,77.2216300000001,10.98556,-0.7735444,0.1566114,0.4349541,28.36297,-25.2103,-41.81523
22.155628204,6.85900399999999,77.0435700000001,14.21701,-0.757844,0.1504289,0.4157853,28.36297,-25.2103,-41.81523
22.165626049,4.828408,76.3906900000002,16.29002,-0.7755919,0.1347728,0.3894986,28.36297,-25.2103,-41.81523
22.175623894,7.47433699999998,74.0165999999997,15.74128,-0.7866936,0.1020646,0.3440616,30.98529,-25.55408,-39.79424
22.185622215,14.73526,71.10833,13.11954,-0.8069187,0.08737003,0.2689643,30.98529,-25.55408,-39.79424
22.195620537,23.28838,67.0723700000001,10.19294,-0.8114855,0.0962188,0.2369053,30.98529,-25.55408,-39.79424
22.205618858,28.64177,62.9177099999999,8.42479100000002,-0.8176376,0.1383654,0.2359481,30.98529,-25.55408,-39.79424
22.215616703,29.31863,59.0004500000001,9.70517700000002,-0.8297983,0.1371182,0.232141,30.98529,-25.55408,-39.79424
22.225614548,29.38017,56.56701,12.02207,-0.8525839,0.1564468,0.2163827,33.61349,-26.27441,-37.3197
22.235612869,26.54964,53.65874,15.80225,-0.8650383,0.1450373,0.2178431,33.61349,-26.27441,-37.3197
22.245611191,24.76517,50.80983,18.30205,-0.8663355,0.1354937,0.1867404,33.61349,-26.27441,-37.3197
22.255609512,26.73424,47.07063,16.47293,-0.9084318,0.1188004,0.1528392,33.61349,-26.27441,-37.3197
22.265607357,32.45683,43.68754,12.9976,-0.9187074,0.1202341,0.1193564,33.61349,-26.27441,-37.3197
22.275605202,34.11823,41.3728,10.92459,-0.9238383,0.1856647,0.1116912,34.75675,-27.76342,-34.46523
22.285603046,29.50323,38.52388,9.58323599999998,-0.9351823,0.2190275,0.1179239,34.75675,-27.76342,-34.46523
22.295601845,22.73458,36.20914,10.80265,-0.9023585,0.2101151,0.1350977,34.75675,-27.76342,-34.46523
22.30559969,18.48878,34.96274,13.36342,-0.8978695,0.1785913,0.1322266,34.75675,-27.76342,-34.46523
22.315598011,17.56579,33.06347,14.4609,-0.9236091,0.1735513,0.115044,34.75675,-27.76342,-34.46523
22.325595856,17.75039,30.92678,12.75372,-0.950598,0.2094418,0.1126889,35.89134,-28.50534,-33.22733
22.3355937,16.45819,28.9088,10.61974,-0.9785591,0.2446034,0.08592835,35.89134,-28.50534,-33.22733
22.345592499,13.68919,25.82248,7.99799599999998,-0.985745,0.2630798,0.04956433,35.89134,-28.50534,-33.22733
22.355590344,9.32033300000002,22.38004,5.559165,-0.9839715,0.2730705,0.07540178,35.89134,-28.50534,-33.22733
22.365588665,6.05907200000001,19.64983,5.437224,-0.9339148,0.2284161,0.07915463,35.89134,-28.50534,-33.22733
22.37558651,5.87447300000001,17.6912,7.14440499999997,-0.9120028,0.150901,0.05760046,36.65708,-29.62662,-31.53868
22.385584354,8.397335,14.54553,8.48576300000002,-0.9194204,0.1565375,0.0523476,36.65708,-29.62662,-31.53868
22.395583153,8.82806800000001,11.57791,8.48576300000002,-0.9277452,0.2109169,0.06526967,36.65708,-29.62662,-31.53868
22.405580998,8.45886800000002,9.08511,7.44925899999998,-0.9513255,0.2204189,0.03946522,36.65708,-29.62662,-31.53868
22.415578842,8.27426799999999,6.29554899999997,5.254312,-0.9669349,0.2466136,0.01507831,36.65708,-29.62662,-31.53868
22.425577164,6.612871,2.853111,2.815481,-0.9646271,0.2791032,0.002622941,37.40656,-29.62099,-31.53312
22.435575008,2.120945,-1.479612,2.571598,-0.9433767,0.2892463,0.00306186,37.40656,-29.62099,-31.53312
22.445573807,-2.370981,-5.574925,3.059364,-0.9243319,0.2880253,0.04083648,37.40656,-29.62099,-31.53312
22.455571652,-4.64771,-8.60189500000002,3.791013,-0.9100563,0.280642,0.0527779,37.40656,-29.62099,-31.53312
22.465569496,-4.770776,-11.15405,4.400721,-0.9149541,0.2563797,0.06714997,37.40656,-29.62099,-31.53312
22.475567341,-2.617113,-13.35009,3.791013,-0.9087964,0.2400495,0.07480066,37.03432,-29.99381,-30.30836
22.485565662,1.136414,-15.48677,2.144803,-0.9187495,0.2509945,0.07098658,37.03432,-29.99381,-30.30836
22.495563984,3.35161,-17.80151,0.1327677,-0.9213268,0.2580747,0.05376051,37.03432,-29.99381,-30.30836
22.505562306,2.305545,-20.76913,-1.147618,-0.9153805,0.2785141,0.04417336,37.03432,-29.99381,-30.30836
22.51556015,-1.324916,-24.56768,-1.452472,-0.9095491,0.2789661,0.02789149,37.03432,-29.99381,-30.30836
22.525557995,-5.078443,-28.42559,-0.598881400000002,-0.9033518,0.2607894,0.04607126,37.03799,-30.00089,-31.14687
22.535556317,-6.30910700000001,-32.6396,0.986358399999998,-0.8895501,0.2266216,0.05275606,37.03799,-30.00089,-31.14687
22.545554161,-4.586177,-36.20074,2.266744,-0.8768352,0.2245835,0.06804886,37.03799,-30.00089,-31.14687
22.55555296,-2.494047,-39.70254,2.266744,-0.861363,0.2313117,0.07950598,37.03799,-30.00089,-31.14687
22.565550804,-0.6480501,-42.55145,0.3766508,-0.8555965,0.2615452,0.07853099,35.93316,-30.77712,-31.98966
22.575548649,0.8287475,-45.75648,-2.184121,-0.8458925,0.2892733,0.06079961,35.93316,-30.77712,-31.98966
22.585546494,0.3980148,-50.38596,-4.622952,-0.8390782,0.3148909,0.03110943,35.93316,-30.77712,-31.98966
22.595544815,-1.447982,-57.09278,-6.93983999999998,-0.8288774,0.3165152,0.02726262,35.93316,-30.77712,-31.98966
22.605543137,-2.309447,-63.4434900000002,-7.61051899999998,-0.7968268,0.3233218,0.06453392,35.93316,-30.77712,-31.98966
22.615541458,-0.709583300000001,-68.3103799999998,-6.87886999999998,-0.7879759,0.3463369,0.1176345,35.55761,-30.4132,-33.60697
22.625539303,1.136414,-72.4056899999998,-4.561981,-0.8121825,0.3389424,0.1583576,35.55761,-30.4132,-33.60697
22.635537147,3.043944,-77.2132299999999,-0.7817937,-0.8232989,0.2824456,0.1684416,35.55761,-30.4132,-33.60697
22.645535469,7.47433699999998,-81.1304899999998,0.620533899999998,-0.8286884,0.2580289,0.1670215,35.55761,-30.4132,-33.60697
22.655533791,13.50459,-84.5729300000001,-0.964705900000002,-0.8585328,0.2897912,0.1445723,35.55761,-30.4132,-33.60697
22.665532112,14.42759,-89.7365900000001,-4.135185,-0.8655038,0.3236694,0.1445758,34.05166,-29.68063,-35.62166
22.675529957,10.9202,-94.1880099999997,-6.20819099999998,-0.8355217,0.3359375,0.1459561,34.05166,-29.68063,-35.62166
22.685527801,6.612871,-97.8678600000001,-7.48857699999998,-0.8127376,0.3165605,0.15645,34.05166,-29.68063,-35.62166
22.695525646,2.613211,-101.6664,-7.366636,-0.7867252,0.2813517,0.1822568,34.05166,-29.68063,-35.62166
22.705524445,-0.4634504,-106.1772,-6.63498599999997,-0.7593765,0.2266438,0.1984948,34.05166,-29.68063,-35.62166
22.715522289,-0.2173175,-109.2635,-4.988776,-0.7229866,0.1831684,0.201314,31.46107,-30.85882,-37.69905
22.725520611,-0.03271778,-111.9937,-3.098683,-0.6875633,0.1647806,0.1864212,31.46107,-30.85882,-37.69905
22.735518455,-2.186381,-115.7329,-1.26956,-0.6984556,0.1729482,0.1467162,31.46107,-30.85882,-37.69905
22.7455163,-5.447642,-121.312,-0.1111153,-0.7042774,0.1961267,0.09024844,31.46107,-30.85882,-37.69905
22.755515099,-10.67797,-129.2059,0.5595631,-0.6934991,0.2192886,0.1021881,31.46107,-30.85882,-37.69905
22.765512943,-15.90829,-137.0998,2.571598,-0.6561341,0.2286914,0.1461495,27.7182,-30.53056,-40.56689
22.775510788,-18.24655,-142.2634,4.522663,-0.6156901,0.2299291,0.1939363,27.7182,-30.53056,-40.56689
22.785509109,-17.26202,-143.9253,5.681107,-0.5528535,0.2327039,0.2550838,27.7182,-30.53056,-40.56689
22.795506954,-18.67729,-143.5098,6.29081499999999,-0.4858516,0.2464613,0.2860709,27.7182,-30.53056,-40.56689
22.805505753,-25.32288,-142.5008,7.754113,-0.4318695,0.2525232,0.3008111,27.7182,-30.53056,-40.56689
22.815503597,-36.70652,-142.6195,9.76614900000002,-0.4044362,0.2440375,0.2701366,23.5947,-29.82857,-43.89106
22.825501442,-50.3669,-145.8246,10.92459,-0.4024522,0.2413356,0.2361549,23.5947,-29.82857,-43.89106
22.835499763,-62.7966199999999,-151.9379,9.40032399999997,-0.4094744,0.2518262,0.2294644,23.5947,-29.82857,-43.89106
22.845497608,-72.5803999999999,-159.535,6.16887299999999,-0.4129323,0.2292344,0.2639337,23.5947,-29.82857,-43.89106
22.855496407,-77.9953199999998,-165.4108,2.449656,-0.381764,0.179129,0.296914,23.5947,-29.82857,-43.89106
22.865494251,-81.0719799999999,-168.6752,-1.208589,-0.3089183,0.1416675,0.3470472,18.03102,-29.13028,-46.38737
22.875492096,-84.7024499999999,-169.2688,-5.049747,-0.2368817,0.1211147,0.3880844,18.03102,-29.13028,-46.38737
22.885489941,-92.2094999999999,-168.7346,-7.85440200000002,-0.155778,0.1102887,0.4104389,18.03102,-29.13028,-46.38737
22.895488262,-103.2239,-168.4378,-9.62255399999997,-0.08449683,0.1036948,0.4385523,18.03102,-29.13028,-46.38737
22.905486584,-116.2075,-169.2094,-10.781,-0.03791158,0.06321462,0.4810748,18.03102,-29.13028,-46.38737
22.915484905,-125.3759,-172.2364,-11.57362,-0.02070375,0.005672426,0.581082,11.61358,-26.1663,-50.12738
22.92548275,-124.0222,-174.6698,-12.61012,-0.01938276,-0.03686599,0.6557485,11.61358,-26.1663,-50.12738
22.935480595,-112.4539,-173.6015,-13.15886,-0.002398937,-0.08367899,0.7074172,11.61358,-26.1663,-50.12738
22.945478916,-97.9320899999998,-169.3281,-13.82954,0.06071453,-0.07050627,0.7360183,11.61358,-26.1663,-50.12738
22.955477238,-94.2401000000001,-163.3335,-14.01245,0.1000412,-0.01090843,0.7383273,11.61358,-26.1663,-50.12738
22.965475559,-106.116,-158.526,-13.34177,0.116932,0.02323942,0.7162746,4.035099,-21.67899,-52.65834
22.975473404,-128.7602,-155.6177,-12.18333,0.1252163,-0.002903552,0.7090881,4.035099,-21.67899,-52.65834
22.985471249,-150.1738,-155.7364,-12.30527,0.1269946,-0.0984244,0.6751308,4.035099,-21.67899,-52.65834
22.995469093,-158.1116,-158.7634,-15.17089,0.1238083,-0.2661854,0.6699152,4.035099,-21.67899,-52.65834
23.005467892,-147.6509,-165.0547,-19.01205,0.1551935,-0.4064884,0.6698966,4.035099,-21.67899,-52.65834
23.015465736,-125.0067,-168.8533,-23.09709,0.2227091,-0.4470332,0.6602178,-3.955214,-15.66216,-53.91019
23.025464058,-104.5777,-170.8713,-26.26757,0.2964306,-0.4021393,0.6806565,-3.955214,-15.66216,-53.91019
23.035461903,-98.54742,-171.8802,-26.81631,0.3358718,-0.3225717,0.6877459,-3.955214,-15.66216,-53.91019
23.045459747,-106.116,-171.4054,-25.41398,0.5434648,-0.2955643,0.7476777,-3.955214,-15.66216,-53.91019
23.055458546,-123.2223,-172.4738,-24.80427,0.3232169,-0.2432658,0.778677,-3.955214,-15.66216,-53.91019
23.06545639,-137.498,-174.3731,-23.82874,0.3110375,-0.3461356,0.821318,-11.14403,-9.619087,-52.7695
23.075454235,-136.3288,-172.0583,-25.35301,0.3590629,-0.5162383,0.8212781,-11.14403,-9.619087,-52.7695
23.085452557,-122.4838,-169.2688,-29.07223,0.4241241,-0.5815224,0.82166,-11.14403,-9.619087,-52.7695
23.095450401,-109.3773,-166.954,-33.03533,0.4698544,-0.5521546,0.7990797,-11.14403,-9.619087,-52.7695
23.1054492,-103.9008,-166.7166,-36.6326,0.4982834,-0.5102054,0.7549903,-18.40273,-3.622985,-49.62943
23.115447044,-105.0699,-168.0224,-39.62017,0.5190533,-0.4757625,0.7037376,-18.40273,-3.622985,-49.62943
23.125444889,-112.0232,-173.4234,-42.85162,0.4873031,-0.4706629,0.7454278,-18.40273,-3.622985,-49.62943
23.135443211,-116.5767,-179.1212,-43.21745,0.5163559,-0.5370295,0.8114377,-18.40273,-3.622985,-49.62943
23.145441055,-111.7771,-178.409,-40.16891,0.5982844,-0.6171007,0.8586946,-18.40273,-3.622985,-49.62943
23.155439854,-103.2855,-174.3731,-38.33978,0.670599,-0.6785066,0.8954347,-25.26639,1.30207,-46.02933
23.165437698,-95.16309,-168.8533,-38.64464,0.7134071,-0.6740575,0.9173734,-25.26639,1.30207,-46.02933
23.175435543,-90.9173,-163.3335,-39.5592,0.7265061,-0.6195399,0.8991507,-25.26639,1.30207,-46.02933
23.185433388,-93.6247600000002,-158.704,-40.71764,0.7515892,-0.5554132,0.843097,-25.26639,1.30207,-46.02933
23.195431709,-101.5626,-155.9738,-43.03453,0.775992,-0.533205,0.7746124,-25.26639,1.30207,-46.02933
23.205430031,-110.1157,-157.2202,-46.93666,0.7288404,-0.5403321,0.7349746,-32.11689,5.106215,-40.03663
23.215428352,-115.2845,-163.2148,-50.16811,0.7174702,-0.6080446,0.7943553,-32.11689,5.106215,-40.03663
23.225426197,-109.0081,-164.6393,-50.10714,0.796021,-0.7159119,0.8382751,-32.11689,5.106215,-40.03663
23.235424042,-91.6557000000002,-162.3245,-48.15607,0.8826428,-0.7867979,0.870207,-32.11689,5.106215,-40.03663
23.245422363,-72.6419299999997,-159.0602,-45.83919,0.9084339,-0.7591326,0.8639334,-32.11689,5.106215,-40.03663
23.255420685,-62.4274200000001,-156.6267,-44.07103,0.9278466,-0.6778863,0.8322926,-37.82773,8.158628,-33.96703
23.265419006,-62.48895,-154.2526,-44.01006,0.9302636,-0.6007152,0.7638321,-37.82773,8.158628,-33.96703
23.275416851,-69.3806699999998,-153.1843,-46.38792,0.9387757,-0.5364388,0.7068502,-37.82773,8.158628,-33.96703
23.285414696,-80.5797200000003,-152.4127,-48.82676,0.951213,-0.4991528,0.6656613,-37.82773,8.158628,-33.96703
23.295412541,-92.0249,-152.7094,-51.87529,0.9621536,-0.5360778,0.6958021,-37.82773,8.158628,-33.96703
23.305411339,-97.8705599999999,-149.8012,-52.72888,1.051343,-0.6392254,0.754538,-43.05589,8.93546,-27.49502
23.315409184,-95.7169,-142.1447,-51.4485,1.140794,-0.7309071,0.7912561,-43.05589,8.93546,-27.49502
23.325407505,-91.2249699999999,-132.8858,-49.61937,1.161219,-0.7797493,0.8261691,-43.05589,8.93546,-27.49502
23.33540535,-86.2407800000003,-123.7455,-46.63181,1.11809,-0.7928904,0.8109332,-43.05589,8.93546,-27.49502
23.345404148,-81.13352,-116.8013,-44.49783,1.057291,-0.7477263,0.7799201,-43.05589,8.93546,-27.49502
23.355401993,-78.4260599999998,-111.875,-43.5223,1.008214,-0.6531506,0.7067592,-47.22594,9.727344,-20.17663
23.365399838,-80.88738,-110.8067,-43.46133,0.9961045,-0.6068984,0.6364177,-47.22594,9.727344,-20.17663
23.375397682,-84.0871100000001,-110.8067,-43.40036,1.031556,-0.6282637,0.5617036,-47.22594,9.727344,-20.17663
23.385396004,-83.6563799999998,-110.688,-44.5588,1.062189,-0.6775753,0.5233767,-47.22594,9.727344,-20.17663
23.395394325,-79.3490500000002,-109.0855,-46.38792,1.099562,-0.7215085,0.5271515,-47.22594,9.727344,-20.17663
23.405392647,-73.8110699999999,-105.0495,-47.0586,1.146613,-0.7347054,0.5763662,-49.09134,8.236531,-14.89339
23.415390492,-71.1036,-98.1052700000002,-46.32695,1.139982,-0.7179547,0.6156167,-49.09134,8.236531,-14.89339
23.425388336,-73.8110699999999,-91.5765099999999,-44.37589,1.089063,-0.7047193,0.6319737,-49.09134,8.236531,-14.89339
23.435386658,-77.74919,-86.5909099999998,-42.36385,1.048669,-0.7082277,0.6014161,-49.09134,8.236531,-14.89339
23.445384979,-78.1183899999998,-82.9704100000001,-40.41279,1.018519,-0.7126593,0.5540908,-49.09134,8.236531,-14.89339
23.455383301,-74.1187300000002,-80.5963200000002,-39.43726,1.006707,-0.7074255,0.5143883,-50.60925,7.896684,-8.774961
23.465381146,-68.2730700000003,-78.2222299999998,-39.01046,0.9973915,-0.6792284,0.4828112,-50.60925,7.896684,-8.774961
23.47537899,-63.47348,-75.5513700000001,-38.40075,0.9999154,-0.6584848,0.4607869,-50.60925,7.896684,-8.774961
23.485376835,-61.31982,-72.5244000000003,-36.81551,1.016723,-0.6712996,0.4578895,-50.60925,7.896684,-8.774961
23.495375633,-60.0276200000001,-69.0226099999998,-35.65707,1.029483,-0.7278412,0.4645818,-50.60925,7.896684,-8.774961
23.505373478,-59.5968899999998,-64.9866499999998,-33.82795,1.028344,-0.7711694,0.4583735,-51.77653,9.066905,-4.338865
23.5153718,-59.4122899999999,-60.7132799999998,-31.02329,1.017281,-0.7785675,0.4703591,-51.77653,9.066905,-4.338865
23.525369644,-59.0430900000001,-55.49026,-28.21864,1.007097,-0.7812117,0.4689418,-51.77653,9.066905,-4.338865
23.535367489,-58.6123500000001,-50.80143,-25.77981,1.010436,-0.7779765,0.4435706,-51.77653,9.066905,-4.338865
23.545366287,-56.27409,-47.4777,-24.31651,1.00937,-0.7482815,0.3985787,-51.77653,9.066905,-4.338865
23.555364132,-52.0283,-46.11259,-23.34098,0.9844811,-0.7214869,0.3536291,-52.4775,6.04622,-1.038687
23.565362454,-48.89011,-45.93454,-21.51185,0.9669992,-0.6734838,0.3268469,-52.4775,6.04622,-1.038687
23.575360298,-46.61338,-46.17194,-19.92661,0.9433529,-0.6342309,0.3129993,-52.4775,6.04622,-1.038687
23.585358143,-44.02898,-46.2313,-18.7072,0.9270074,-0.6198879,0.3225956,-52.4775,6.04622,-1.038687
23.595356941,-39.90625,-45.87518,-17.79264,0.9122537,-0.6386452,0.3226262,-52.4775,6.04622,-1.038687
23.605354786,-33.5068,-44.56943,-17.12196,0.9155267,-0.6569323,0.3350682,-52.84894,5.306667,1.800602
23.615352631,-25.01521,-42.78886,-17.06099,0.9325865,-0.6826694,0.3532309,-52.84894,5.306667,1.800602
23.625350952,-15.78522,-39.40577,-17.73167,0.9281145,-0.6777974,0.3642447,-52.84894,5.306667,1.800602
23.635348797,-8.64737,-35.72593,-18.2804,0.9274196,-0.6665687,0.3714217,-52.84894,5.306667,1.800602
23.645347595,-1.878715,-31.33385,-18.82914,0.9302113,-0.6598113,0.3604078,-52.84894,5.306667,1.800602
23.65534544,4.766874,-26.88243,-19.68273,0.9261121,-0.6492542,0.3546693,-53.20464,3.806404,4.643948
23.665343285,9.62799900000003,-22.25294,-20.23147,0.928907,-0.6167505,0.3426917,-53.20464,3.806404,4.643948
23.675341129,12.33546,-18.03892,-19.7437,0.9291024,-0.6019589,0.3125373,-53.20464,3.806404,4.643948
23.685339451,13.38153,-14.18102,-19.86564,0.9455693,-0.5968881,0.3000643,-53.20464,3.806404,4.643948
23.695337772,14.98139,-10.02635,-19.68273,0.96895,-0.5964393,0.2985877,-52.81784,3.055587,5.489288
23.705336094,17.99652,-6.82132499999999,-19.56079,0.9718015,-0.5924385,0.3048032,-52.81784,3.055587,5.489288
23.715333939,22.42691,-4.091116,-18.82914,0.982321,-0.581417,0.3181821,-52.81784,3.055587,5.489288
23.725331783,27.84184,-0.411269,-18.21943,1.014808,-0.57233,0.3382233,-52.81784,3.055587,5.489288
23.735330582,30.48776,4.218216,-16.87807,1.044012,-0.543743,0.372144,-52.81784,3.055587,5.489288
23.745328426,28.3341,9.559929,-14.3173,1.05718,-0.5437275,0.3984427,-52.42906,2.300958,5.883126
23.755326748,25.19591,15.96998,-11.8175,1.072387,-0.574229,0.4309672,-52.42906,2.300958,5.883126
23.765324593,23.47298,23.09227,-8.829934,1.062713,-0.6033178,0.4592275,-52.42906,2.300958,5.883126
23.775322437,21.50391,30.68937,-5.90333699999997,1.046079,-0.5989878,0.4903629,-52.42906,2.300958,5.883126
23.785321236,20.88858,36.26849,-3.769361,1.015283,-0.6193708,0.5066934,-52.42906,2.300958,5.883126
23.79531908,25.87277,40.83863,-2.671887,1.012545,-0.6547231,0.5258503,-52.77683,1.150539,5.112426
23.805316925,35.84116,46.23969,-3.525478,1.041751,-0.6781098,0.5621772,-52.77683,1.150539,5.112426
23.815315247,46.36334,53.42133,-4.440039,1.063736,-0.7058986,0.6109608,-52.77683,1.150539,5.112426
23.825313091,52.76279,61.6713099999998,-3.098683,1.089772,-0.7162538,0.6444184,-52.77683,1.150539,5.112426
23.83531189,55.22412,70.6928600000001,0.01082622,1.108779,-0.7419919,0.6582706,-52.77683,1.150539,5.112426
23.845309734,58.3623200000002,79.41766,2.083832,1.11053,-0.757582,0.6501357,-52.00877,0.7551069,2.669003
23.855307579,63.5926400000002,87.3708799999998,3.791013,1.126635,-0.7329755,0.6491442,-52.00877,0.7551069,2.669003
23.865305901,69.0691000000003,95.0273400000001,4.400721,1.107848,-0.6668298,0.6429384,-52.00877,0.7551069,2.669003
23.875303745,71.7765599999999,102.0309,3.364218,1.095968,-0.6311355,0.6395999,-52.00877,0.7551069,2.669003
23.885302544,72.9456899999999,108.6784,2.144803,1.103337,-0.6344309,0.6352807,-52.00877,0.7551069,2.669003
23.895300388,71.7150300000001,115.3852,2.327715,1.113645,-0.6643601,0.6347919,-53.50371,1.466432,-1.861197
23.905298233,69.5613599999998,121.914,3.730042,1.139113,-0.7231637,0.6323698,-53.50371,1.466432,-1.861197
23.915296078,70.9150900000003,128.8582,3.425189,1.158983,-0.7438552,0.6117616,-53.50371,1.466432,-1.861197
23.925294399,73.8071600000001,134.9121,1.718008,1.165539,-0.7303782,0.5835108,-53.50371,1.466432,-1.861197
23.935292721,76.6992200000003,140.1351,-0.903735200000002,1.169845,-0.7001647,0.5834954,-53.50371,1.466432,-1.861197
23.945291042,77.5606800000002,144.1118,-0.5379106,1.201173,-0.6557934,0.5853437,-52.75299,2.565179,-7.537746
23.955288887,76.4530899999999,149.038,1.596066,1.239588,-0.5996591,0.5828694,-52.75299,2.565179,-7.537746
23.965286732,73.00723,153.1333,4.644604,1.240014,-0.5705161,0.5804683,-52.75299,2.565179,-7.537746
23.97528553,69.0691000000003,156.8132,8.24187900000002,1.248491,-0.5027151,0.5900076,-52.75299,2.565179,-7.537746
23.985283375,63.96184,160.7304,10.4978,1.236251,-0.4474498,0.6019791,-52.75299,2.565179,-7.537746
23.995281219,60.02372,162.4516,12.50983,1.212634,-0.4608701,0.6202096,-51.54156,-0.1509814,-14.86824
24.005279541,60.1467800000003,163.8761,13.85119,1.231956,-0.4509354,0.6551094,-51.54156,-0.1509814,-14.86824
24.015277386,59.0391800000002,165.9534,15.25352,1.235502,-0.4053217,0.6933776,-51.54156,-0.1509814,-14.86824
24.025276184,54.48572,167.912,18.60691,1.195055,-0.3523033,0.7331562,-51.54156,-0.1509814,-14.86824
24.035274029,47.10173,169.2178,22.50904,1.16324,-0.3174089,0.791589,-51.54156,-0.1509814,-14.86824
24.045271873,40.88688,172.3635,26.35019,1.140821,-0.290275,0.8313429,-48.53085,0.5772047,-21.36459
24.055270195,37.07182,175.5685,28.36223,1.106651,-0.3126684,0.8476799,-48.53085,0.5772047,-21.36459
24.06526804,37.62562,179.6045,28.66708,1.093751,-0.3530599,0.8161267,-48.53085,0.5772047,-21.36459
24.075266838,38.42555,182.0973,27.63058,1.088469,-0.383376,0.8070508,-48.53085,0.5772047,-21.36459
24.085264683,37.68715,183.9372,27.50864,1.08517,-0.4148651,0.824772,-48.53085,0.5772047,-21.36459
24.095262527,35.71809,185.1836,29.15485,1.068178,-0.4180682,0.8300667,-46.20924,-1.373077,-29.0778
24.105260372,32.02609,185.1836,32.63018,1.045027,-0.4305995,0.8382462,-46.20924,-1.373077,-29.0778
24.115258694,30.5493,184.412,36.3494,1.023874,-0.4454203,0.8574298,-46.20924,-1.373077,-29.0778
24.125257015,33.50289,185.5397,39.21502,0.9864629,-0.4252113,0.8632327,-46.20924,-1.373077,-29.0778
24.135255337,36.21035,186.8455,42.62939,0.9677979,-0.4173103,0.8642204,-46.20924,-1.373077,-29.0778
24.145253181,36.51802,188.1512,46.59249,0.9479584,-0.399504,0.8350573,-40.55593,-1.392999,-36.38913
24.155251026,33.81056,187.4983,49.33617,0.9305679,-0.382766,0.7900971,-40.55593,-1.392999,-36.38913
24.165249825,31.96456,185.0649,49.76297,0.8735943,-0.4120553,0.739475,-40.55593,-1.392999,-36.38913
24.175247669,33.56443,182.0379,50.61656,0.8440629,-0.4480116,0.7505429,-40.55593,-1.392999,-36.38913
24.185245991,36.88722,180.3167,52.87247,0.8075609,-0.4493055,0.7941573,-40.55593,-1.392999,-36.38913
24.195243835,38.85628,179.7232,57.26237,0.7835488,-0.3634612,0.8276774,-35.3435,-1.409119,-42.86519
24.20524168,36.45649,179.4858,60.6767300000001,0.7327697,-0.3325458,0.8110078,-35.3435,-1.409119,-42.86519
24.215240479,34.79509,179.6638,60.5547900000002,0.6912706,-0.3293914,0.7675289,-35.3435,-1.409119,-42.86519
24.225238323,35.41042,179.1297,56.22587,0.635466,-0.3431206,0.7154649,-35.3435,-1.409119,-42.86519
24.235236168,37.74868,176.2807,51.47015,0.5719209,-0.3591955,0.6892582,-28.56096,-2.160611,-47.7131
24.245234489,41.44068,174.6782,47.32413,0.5512198,-0.3463657,0.7022125,-28.56096,-2.160611,-47.7131
24.255232334,43.16361,173.2538,45.3121,0.5031624,-0.3295844,0.728135,-28.56096,-2.160611,-47.7131
24.265231133,43.96354,171.77,46.59249,0.4671109,-0.3296967,0.7406409,-28.56096,-2.160611,-47.7131
24.275228977,45.00961,170.3455,48.66549,0.4505742,-0.3051439,0.7511921,-28.56096,-2.160611,-47.7131
24.285226822,48.57853,169.5146,48.36064,0.407052,-0.2717783,0.7211092,-21.4172,-2.518038,-51.27026
24.295224667,53.25506,168.1495,45.92181,0.3546,-0.2561882,0.6795604,-21.4172,-2.518038,-51.27026
24.305223465,57.74699,165.3006,41.65385,0.3083485,-0.2330286,0.6552277,-21.4172,-2.518038,-51.27026
24.31522131,61.3159100000002,161.502,37.3859,0.2435121,-0.2320509,0.636676,-21.4172,-2.518038,-51.27026
24.325219631,62.5465799999997,156.8725,35.73969,0.194299,-0.2583712,0.6281542,-21.4172,-2.518038,-51.27026
24.335217476,62.0543099999999,151.8276,36.10551,0.1395877,-0.2496534,0.6899837,-14.24509,-4.390896,-54.1098
24.345215321,59.7775799999999,150.4031,40.25153,0.09381046,-0.2509867,0.6962853,-14.24509,-4.390896,-54.1098
24.355214119,56.08559,149.038,43.17812,0.04679083,-0.2383663,0.6901426,-14.24509,-4.390896,-54.1098
24.365211964,53.93192,149.038,42.32454,0.003886268,-0.1852921,0.6882893,-14.24509,-4.390896,-54.1098
24.375210285,52.27053,148.6225,36.7762,-0.01727132,-0.1745992,0.6811448,-14.24509,-4.390896,-54.1098
24.38520813,52.27053,149.038,29.33776,-0.01287401,-0.1756377,0.6643872,-7.146435,-6.242975,-54.4343
24.395205975,47.10173,150.4624,23.78942,-0.02013969,-0.1255275,0.6864015,-7.146435,-6.242975,-54.4343
24.405204773,35.53349,150.9373,23.05777,-0.05947228,-0.1068363,0.6898153,-7.146435,-6.242975,-54.4343
24.415202618,24.70364,150.9966,26.04534,-0.08381467,-0.1340966,0.6841218,-7.146435,-6.242975,-54.4343
24.425200462,20.08865,150.5218,28.97194,-0.1119613,-0.1670187,0.6521147,-7.146435,-6.242975,-54.4343
24.435198784,21.75005,149.5128,30.86203,-0.1236747,-0.166423,0.636342,-0.3220615,-9.935783,-54.75131
24.445196629,25.50357,148.6225,31.65465,-0.1417346,-0.139204,0.6229665,-0.3220615,-9.935783,-54.75131
24.455195427,26.11891,145.5956,32.32533,-0.1828701,-0.1026957,0.6125001,-0.3220615,-9.935783,-54.75131
24.465193272,24.02678,142.0938,33.72766,-0.2153262,-0.08671404,0.6235598,-0.3220615,-9.935783,-54.75131
24.475191116,23.59604,140.2538,35.73969,-0.221595,-0.09101932,0.5915072,-0.3220615,-9.935783,-54.75131
24.485189438,24.45751,137.4643,37.32493,-0.256979,-0.1016741,0.5657285,6.818246,-11.01688,-53.91839
24.49518776,26.11891,133.9031,39.76376,-0.296159,-0.1169606,0.5729795,6.818246,-11.01688,-53.91839
24.505185604,28.64177,130.8168,42.99521,-0.3242453,-0.1262098,0.5787736,6.818246,-11.01688,-53.91839
24.515183926,29.74937,128.0866,44.51948,-0.3636957,-0.1011773,0.5850574,6.818246,-11.01688,-53.91839
24.52518177,28.21103,125.4751,45.7389,-0.3880515,-0.07603084,0.5712147,6.818246,-11.01688,-53.91839
24.535179615,25.74971,123.5165,45.19016,-0.4309916,-0.04817013,0.5224677,12.84808,-12.8633,-52.63825
24.545178414,24.27291,121.0237,41.16609,-0.5358896,-0.06808302,0.4848481,12.84808,-12.8633,-52.63825
24.555176258,23.41144,117.8186,37.69075,-0.4844775,-0.00419314,0.452199,12.84808,-12.8633,-52.63825
24.56517458,21.81158,113.4266,35.00804,-0.5009992,-0.007124723,0.4330854,12.84808,-12.8633,-52.63825
24.575172424,20.39631,108.3223,35.67872,-0.5063682,-0.03321379,0.4082156,12.84808,-12.8633,-52.63825
24.585170269,18.24265,102.209,37.8127,-0.5192437,-0.074375,0.3986771,18.50736,-15.08582,-50.52037
24.595169068,17.75039,97.22337,37.87367,-0.539293,-0.09668235,0.393932,18.50736,-15.08582,-50.52037
24.605166912,18.18112,94.6118700000002,35.9226,-0.5852889,-0.08634863,0.4011882,18.50736,-15.08582,-50.52037
24.615164757,14.42759,93.0687099999999,33.60571,-0.6313253,-0.04778286,0.4137015,18.50736,-15.08582,-50.52037
24.625163078,9.62799900000003,93.1874199999998,31.53271,-0.6697514,0.0006213889,0.422849,18.50736,-15.08582,-50.52037
24.6351614,5.197607,92.3564799999998,30.19135,-0.7135646,0.02468793,0.4391907,22.96452,-16.55707,-48.47984
24.645159721,2.490145,92.1784199999999,29.39873,-0.7227344,0.04664609,0.4688728,22.96452,-16.55707,-48.47984
24.655157566,1.013347,91.9410099999999,30.25232,-0.7349519,0.0482432,0.4574078,22.96452,-16.55707,-48.47984
24.665155411,-1.140316,89.4482100000002,32.20339,-0.7467086,0.05057127,0.4186631,22.96452,-16.55707,-48.47984
24.675153732,-3.109379,85.7683599999998,33.17892,-0.762948,0.03256353,0.3976387,22.96452,-16.55707,-48.47984
24.685152054,-2.92478,82.9788100000002,31.83756,-0.7711914,0.004842361,0.4129746,26.73267,-18.02966,-45.99291
24.695150375,-2.001781,82.3259300000003,30.19135,-0.7687991,0.007393904,0.4211056,26.73267,-18.02966,-45.99291
24.70514822,-1.571049,82.1478699999998,30.37426,-0.7643236,0.02904798,0.4411924,26.73267,-18.02966,-45.99291
24.715146065,-0.832649800000001,82.5633400000003,31.65465,-0.7661223,0.04699667,0.4416695,26.73267,-18.02966,-45.99291
24.725143909,0.5210813,81.43565,32.8131,-0.7878624,0.06241023,0.4206461,26.73267,-18.02966,-45.99291
24.735142708,5.382206,79.2396099999998,32.32533,-0.7743844,0.07075328,0.4005202,29.75472,-19.51442,-44.28555
24.745140552,11.53553,78.6460799999999,29.33776,-0.765748,0.1040206,0.4062395,29.75472,-19.51442,-44.28555
24.755138874,13.68919,77.6370899999997,25.86243,-0.7443195,0.1043123,0.3918448,29.75472,-19.51442,-44.28555
24.765136719,10.67406,77.1029200000002,24.8869,-0.7144746,0.09666635,0.3415442,29.75472,-19.51442,-44.28555
24.775135517,5.197607,74.7288299999998,26.47214,-0.7068055,0.05088934,0.3142639,29.75472,-19.51442,-44.28555
24.785133362,5.013007,72.3547300000002,29.52067,-0.7141836,0.027492,0.2692966,32.38123,-20.23147,-41.42401
24.795131206,8.82806800000001,69.7432299999997,32.26436,-0.7632568,0.01962278,0.2588555,32.38123,-20.23147,-41.42401
24.805129528,14.67372,65.88532,33.91057,-0.8134112,0.04328769,0.2450581,32.38123,-20.23147,-41.42401
24.815127373,19.22718,62.4428899999999,31.28883,-0.8406756,0.06804869,0.2484493,32.38123,-20.23147,-41.42401
24.825125694,20.76551,60.30621,28.11835,-0.8200585,0.08594553,0.2479302,34.26979,-21.34159,-39.40452
24.835124016,16.64279,59.2972100000002,25.9234,-0.8093113,0.1104549,0.2479051,34.26979,-21.34159,-39.40452
24.84512186,12.27393,57.99146,25.9234,-0.7966151,0.135016,0.2493124,34.26979,-21.34159,-39.40452
24.855119705,9.75106599999998,57.16053,27.26476,-0.8372642,0.1451001,0.2177946,34.26979,-21.34159,-39.40452
24.865118027,8.58193500000002,53.24327,28.17932,-0.8626596,0.1215222,0.1920019,34.26979,-21.34159,-39.40452
24.875116348,12.33546,48.61379,26.83796,-0.8594165,0.1046134,0.1958292,35.40857,-22.45678,-37.32608
24.88511467,17.19659,45.34941,24.15525,-0.8742981,0.1182933,0.1829301,35.40857,-22.45678,-37.32608
24.895112514,17.81192,42.7379,22.38709,-0.8819276,0.1350408,0.1709747,35.40857,-22.45678,-37.32608
24.905110359,15.65826,40.1264,21.89933,-0.8792621,0.1486472,0.1652236,35.40857,-22.45678,-37.32608
24.915109158,15.90439,38.28648,21.16768,-0.8728451,0.1708914,0.1924855,35.40857,-22.45678,-37.32608
24.925107002,17.01199,37.93036,21.16768,-0.8716984,0.1616549,0.1896144,36.92408,-23.57298,-35.69637
24.935104847,16.82739,35.79368,19.82632,-0.8952235,0.1426146,0.1776959,36.92408,-23.57298,-35.69637
24.945103168,17.44272,33.53829,18.78982,-0.9534023,0.1525454,0.1672661,36.92408,-23.57298,-35.69637
24.955101013,17.50425,31.10484,17.20458,-0.9915597,0.1605779,0.1716378,36.92408,-23.57298,-35.69637
24.965099812,17.31965,30.09585,15.0706,-0.9696492,0.2127741,0.1462216,36.92408,-23.57298,-35.69637
24.975097656,12.95079,27.30629,13.24148,-0.945549,0.2268653,0.1471331,38.06456,-24.69145,-34.00493
24.985095501,10.12027,24.69478,12.5708,-0.8834425,0.1892478,0.1503845,38.06456,-24.69145,-34.00493
24.995093822,13.19693,22.49874,11.29042,-0.8384629,0.1550214,0.1364363,38.06456,-24.69145,-34.00493
25.005092144,18.05805,20.71817,9.27838200000003,-0.8434188,0.1327973,0.1082146,38.06456,-24.69145,-34.00493
25.015090466,19.96558,17.80991,7.32731800000001,-0.8715053,0.1484179,0.07045206,38.06456,-24.69145,-34.00493
25.02508831,16.64279,14.42682,5.86401899999998,-0.9329864,0.1787982,0.07150856,38.45781,-25.8199,-32.83506
25.035086155,12.15086,10.62827,7.205376,-0.9306437,0.210843,0.1164824,38.45781,-25.8199,-32.83506
25.045084,10.24333,8.84769999999998,8.79061600000001,-0.9204604,0.2398771,0.1341645,38.45781,-25.8199,-32.83506
25.055082798,10.42793,7.304539,9.88808900000002,-0.9093072,0.2423824,0.1183514,38.45781,-25.8199,-32.83506
25.065080643,8.33580199999998,5.345911,10.19294,-0.9050958,0.2517204,0.1207345,38.45781,-25.8199,-32.83506
25.075078964,3.597743,3.56534,9.82711900000002,-0.8857574,0.2334656,0.102041,38.45414,-25.81281,-31.99656
