Time (s),Gyroscope X (deg/s),Gyroscope Y (deg/s),Gyroscope Z (deg/s),Accelerometer X (g),Accelerometer Y (g),Accelerometer Z (g),Magnetometer X (uT),Magnetometer Y (uT),Magnetometer Z (uT)
0,12.0278,-6.70262,-4.866835,0.9842745,-0.2486254,0.1462842,-60.28352,-8.921871,-17.14572
0.0324893,3.043944,-4.506582,-3.891303,0.9801782,-0.2115598,0.169732,-61.02515,-9.307852,-17.14925
0.0324893,3.043944,-4.506582,-3.891303,0.9801782,-0.2115598,0.169732,-61.02515,-9.307852,-17.14925
0.042485714,-1.386449,-3.260183,-3.342566,0.9792219,-0.2125594,0.1687768,-61.02515,-9.307852,-17.14925
0.052482605,-4.586177,-2.369897,-3.220624,0.9775372,-0.2267113,0.1659119,-61.02515,-9.307852,-17.14925
0.062479019,-6.616774,-1.835726,-2.8548,0.9797747,-0.2423093,0.155862,-61.02515,-9.307852,-17.14925
0.07247591,-6.186041,-1.598316,-2.367033,0.9932287,-0.2580489,0.1591926,-61.02515,-9.307852,-17.14925
0.082472324,-4.770776,-1.301555,-1.879267,0.9797373,-0.2660379,0.1649611,-61.40129,-9.30794,-16.82953
0.092469215,-2.678647,-1.123497,-1.513443,0.9719521,-0.2666951,0.1630605,-61.40129,-9.30794,-16.82953
0.10246563,-0.2173175,-1.18285,-1.26956,0.9826576,-0.2660547,0.1568202,-61.40129,-9.30794,-16.82953
0.112462521,2.305545,-1.18285,-1.147618,0.977676,-0.2603526,0.1534774,-61.40129,-9.30794,-16.82953
0.122458935,3.659276,-1.301555,-0.8427644,0.9809399,-0.2525086,0.1539482,-61.40129,-9.30794,-16.82953
0.132455826,4.582274,-1.657669,-0.6598521,0.9874017,-0.2591315,0.1596816,-60.27089,-9.676589,-16.43216
0.14245224,6.182138,-1.598316,-0.5379106,0.9931664,-0.2545959,0.1649347,-60.27089,-9.676589,-16.43216
0.152448654,6.859004,-0.9454404,-0.5379106,0.9911386,-0.2501791,0.1740301,-60.27089,-9.676589,-16.43216
0.162445545,6.98207,-0.2332119,-0.9037352,0.9993185,-0.2446897,0.1721001,-60.27089,-9.676589,-16.43216
0.172441959,5.997539,1.07254,-1.330531,1.000117,-0.2355288,0.1625248,-60.32548,-10.05741,-16.4306
0.18243885,4.643808,1.903473,-1.574414,0.9962373,-0.2365992,0.160139,-60.32548,-10.05741,-16.4306
0.192435265,3.782343,2.55635,-2.06218,0.9904453,-0.2396732,0.1553641,-60.32548,-10.05741,-16.4306
0.202432156,2.920877,2.853111,-2.001209,0.9827452,-0.2446101,0.1635146,-60.32548,-10.05741,-16.4306
0.21242857,3.043944,3.268578,-1.757326,0.9756234,-0.2543951,0.1716653,-60.32548,-10.05741,-16.4306
0.222425461,3.966942,3.743397,-1.391501,0.9912077,-0.2541837,0.1611094,-60.33504,-9.673789,-16.04562
0.232421875,4.951474,4.158864,-0.7817937,0.9944699,-0.2463968,0.1553588,-60.33504,-9.673789,-16.04562
0.242418766,4.705341,4.693035,-0.2330568,0.9893311,-0.2325025,0.1448355,-60.33504,-9.673789,-16.04562
0.25241518,3.16701,4.871092,0.31568,0.9930082,-0.2207937,0.1419546,-60.33504,-9.673789,-16.04562
0.262412071,0.8902807,5.227206,0.6205339,0.986097,-0.2160839,0.1405298,-60.33504,-9.673789,-16.04562
0.272408485,-2.063314,5.58332,1.230241,0.9763076,-0.2139003,0.1348033,-60.69994,-10.06077,-16.49788
0.282405377,-4.893843,5.58332,1.413154,0.9725477,-0.2212593,0.1352904,-60.69994,-10.06077,-16.49788
0.292401791,-6.247574,5.702025,1.352183,0.9733436,-0.2378094,0.1305075,-60.69994,-10.06077,-16.49788
0.302398682,-5.693775,5.880082,1.230241,0.9744341,-0.2441797,0.1223714,-60.69994,-10.06077,-16.49788
0.312395096,-4.709243,5.82073,1.291212,0.9783835,-0.2470831,0.1151866,-60.69994,-10.06077,-16.49788
0.322391987,-2.617113,5.405263,1.718008,0.9804925,-0.2559069,0.1022637,-60.69994,-10.06077,-16.49788
0.332388401,-0.03271778,5.049149,1.778978,0.985796,-0.252882,0.1027322,-60.69994,-10.06077,-16.49788
0.342385292,2.120945,4.989797,2.083832,0.9919358,-0.2425866,0.09936886,-60.69994,-10.06077,-16.49788
0.352381706,3.53621,4.455625,2.571598,0.993034,-0.2230703,0.1055834,-60.69994,-10.06077,-16.49788
0.362378597,3.043944,4.158864,2.937423,0.9952886,-0.2132586,0.1108413,-60.69994,-10.06077,-16.49788
0.372375012,1.44408,3.56534,3.242276,0.9916687,-0.2021623,0.1098876,-60.31984,-10.06831,-17.7206
0.382371903,-0.5249836,2.675054,2.998394,0.9879086,-0.2095301,0.1094175,-60.31984,-10.06831,-17.7206
0.392368317,-1.632582,1.962826,2.449656,0.9862174,-0.2231128,0.1156454,-60.31984,-10.06831,-17.7206
0.402365208,-1.571049,1.30995,1.1083,0.9819788,-0.2309936,0.1132619,-60.31984,-10.06831,-17.7206
0.412361622,-0.8326498,0.8944831,0.1937385,0.9768237,-0.2417116,0.1214095,-60.31984,-10.06831,-17.7206
0.422358513,1.013347,0.3603118,-0.5988814,0.976399,-0.2451654,0.1166253,-60.69628,-10.06785,-17.33638
0.432354927,2.797811,-0.1738595,-1.147618,0.9803045,-0.2455917,0.1147043,-60.69628,-10.06785,-17.33638
0.442351818,4.397675,-0.8267356,-1.452472,0.9791756,-0.2373399,0.1161399,-60.69628,-10.06785,-17.33638
0.452348232,5.320673,-1.360907,-1.635384,0.9761924,-0.2338919,0.1276301,-60.69628,-10.06785,-17.33638
0.462345123,5.812939,-2.073135,-1.696355,0.9825454,-0.2346681,0.1352764,-60.69628,-10.06785,-17.33638
0.472341538,6.428272,-2.547954,-2.184121,0.982667,-0.2408865,0.1458064,-59.94679,-10.06223,-17.33082
0.482338429,7.53587,-3.20083,-2.793829,0.9875171,-0.2655474,0.1486758,-59.94679,-10.06223,-17.33082
0.492334843,9.504933,-3.794354,-3.586449,0.9909113,-0.264425,0.1577625,-59.94679,-10.06223,-17.33082
0.502331734,11.90473,-4.091116,-4.013244,0.9968867,-0.2710356,0.1658896,-59.94679,-10.06223,-17.33082
0.512328148,14.42759,-4.387877,-4.379068,0.9991694,-0.2626593,0.1735407,-59.94679,-10.06223,-17.33082
0.522325039,16.64279,-4.150468,-4.013244,1.004354,-0.253324,0.1735293,-59.94679,-10.06223,-17.33082
0.532321453,16.82739,-3.497592,-3.037712,1.011519,-0.2196393,0.1749438,-59.94679,-10.06223,-17.33082
0.542318344,13.56613,-1.776374,-1.696355,1.012482,-0.1927838,0.1868996,-59.94679,-10.06223,-17.33082
0.552314758,7.658936,-0.05515479,-0.05014454,0.9963799,-0.1660033,0.1744778,-59.94679,-10.06223,-17.33082
0.562311649,-0.03271778,1.666064,1.1083,0.9770798,-0.1504056,0.168286,-59.94679,-10.06223,-17.33082
0.572308064,-7.908971,2.793759,1.657037,0.9689236,-0.157462,0.1582519,-60.6918,-10.44167,-16.56035
0.582304955,-13.93923,3.743397,1.535095,0.9529322,-0.188537,0.1424948,-60.6918,-10.44167,-16.56035
0.592301369,-16.70822,3.862102,0.6205339,0.9477065,-0.2217106,0.139641,-60.6918,-10.44167,-16.56035
0.60229826,-16.21596,3.921454,-0.4769399,0.9459081,-0.2558059,0.1348671,-60.6918,-10.44167,-16.56035
0.612294674,-12.4009,3.387283,-1.330531,0.9541938,-0.2819094,0.1319879,-60.6918,-10.44167,-16.56035
0.622291565,-6.062974,2.615702,-2.245092,0.9636686,-0.2933584,0.1348458,-59.61878,-10.8206,-17.32445
0.632287979,1.197947,1.666064,-2.671887,0.9759446,-0.2985271,0.1276471,-59.61878,-10.8206,-17.32445
0.64228487,8.151202,1.013188,-2.793829,0.9819322,-0.2798816,0.1343319,-59.61878,-10.8206,-17.32445
0.652281761,12.27393,0.004197581,-2.06218,0.9872942,-0.254012,0.1352731,-59.61878,-10.8206,-17.32445
0.662278175,12.76619,-0.2925643,-1.452472,0.9915755,-0.2222403,0.1462647,-59.61878,-10.8206,-17.32445
0.672275066,10.05873,-0.6486785,-1.086647,0.9975456,-0.2026013,0.1553422,-60.31536,-10.44213,-16.94457
0.682271957,6.366738,-0.1145072,-0.8427644,0.9925837,-0.1978268,0.1567853,-60.31536,-10.44213,-16.94457
0.692268372,2.244012,0.004197581,-0.7208229,0.9872639,-0.1998186,0.1630166,-60.31536,-10.44213,-16.94457
0.702265263,-0.4634504,0.5383689,-0.5988814,0.9850188,-0.2101029,0.1591945,-60.31536,-10.44213,-16.94457
0.712261677,-1.817181,0.8351307,-0.4159691,0.9764864,-0.2229586,0.1534698,-60.31536,-10.44213,-16.94457
0.722258568,-1.447982,1.191245,-0.2330568,0.9780561,-0.2287939,0.14964,-60.0014,-10.44305,-17.32925
0.732254982,0.09034869,1.191245,-0.05014454,0.9728531,-0.2371533,0.1501298,-60.0014,-10.44305,-17.32925
0.742251873,1.44408,1.428654,-0.1720861,0.9721758,-0.2269181,0.1549141,-60.0014,-10.44305,-17.32925
0.752248287,2.551678,1.250597,-0.1111153,0.9667904,-0.2255623,0.1554017,-60.0014,-10.44305,-17.32925
0.762245178,3.35161,1.428654,-0.1720861,0.9677092,-0.2226504,0.1530065,-60.0014,-10.44305,-17.32925
0.772241592,3.043944,1.369302,0.07179698,0.9714678,-0.2153309,0.1482123,-60.00281,-10.44033,-17.00675
0.782238483,2.551678,1.369302,-0.1720861,0.9708441,-0.2080453,0.1491686,-60.00281,-10.44033,-17.00675
0.792234898,1.628679,1.369302,0.01082622,0.9733083,-0.209415,0.1534719,-60.00281,-10.44033,-17.00675
0.802231789,0.705681,1.547359,-0.2940276,0.9641162,-0.2130245,0.1506174,-60.00281,-10.44033,-17.00675
0.812228203,0.02881546,1.428654,-0.5379106,0.9685357,-0.2149117,0.1472601,-60.7506,-10.44922,-17.39932
0.822225094,-0.1557842,1.428654,-0.9037352,0.9729185,-0.2148645,0.1429453,-60.7506,-10.44922,-17.39932
0.832221508,0.3364816,1.30995,-1.26956,0.9745061,-0.2216802,0.1381585,-60.7506,-10.44922,-17.39932
0.842218399,0.8902807,1.07254,-1.330531,0.96674,-0.2232827,0.1391296,-60.7506,-10.44922,-17.39932
0.852214813,1.382547,0.5383689,-1.513443,0.967144,-0.2189319,0.1357778,-60.7506,-10.44922,-17.39932
0.862211704,1.813279,0.5977212,-1.513443,0.962391,-0.2253606,0.1338734,-60.38371,-10.06606,-17.39857
0.872208118,2.182479,0.1822547,-1.696355,0.9706001,-0.2212715,0.1381652,-60.38371,-10.06606,-17.39857
0.882205009,2.120945,-0.05515479,-1.818297,0.9696912,-0.2246471,0.1429534,-60.38371,-10.06606,-17.39857
0.892201424,2.059412,-0.1738595,-1.574414,0.9701236,-0.2217185,0.1434305,-60.38371,-10.06606,-17.39857
0.902198315,1.874812,-0.5299737,-1.391501,0.9750388,-0.2240994,0.1381582,-60.38371,-10.06606,-17.39857
0.912194729,1.382547,-0.7080309,-1.086647,0.973568,-0.2236557,0.1367249,-60.37755,-10.44314,-17.00953
0.92219162,1.07488,-0.886088,-0.7817937,0.9715738,-0.2212698,0.1362492,-60.37755,-10.44314,-17.00953
0.932188988,0.705681,-1.064145,-0.5379106,0.9769598,-0.222608,0.1376759,-60.37755,-10.44314,-17.00953
0.942185402,0.5210813,-1.123497,-0.1111153,0.9726043,-0.2241168,0.1415125,-60.37755,-10.44314,-17.00953
0.952182293,-0.1557842,-1.123497,0.07179698,0.9701322,-0.2222219,0.1415163,-60.37755,-10.44314,-17.00953
0.962178707,-0.6480501,-1.18285,0.31568,0.9705906,-0.2207989,0.1367294,-60.36182,-11.20385,-17.00548
0.972175598,-0.894183,-1.538964,0.1327677,0.9681569,-0.2207899,0.1429551,-60.36182,-11.20385,-17.00548
0.982172012,-1.017249,-1.657669,0.4376215,0.9711146,-0.2227191,0.1381647,-60.36182,-11.20385,-17.00548
0.992168903,-0.7711166,-1.835726,0.3766508,0.9682377,-0.2252013,0.1386489,-60.36182,-11.20385,-17.00548
1.002165318,-0.4634504,-2.013783,0.01082622,0.9750665,-0.2255479,0.1391157,-60.36182,-11.20385,-17.00548
1.012162209,-0.1557842,-2.19184,-0.2330568,0.9761136,-0.2294191,0.1386363,-59.99494,-10.82069,-17.00473
1.022158623,0.2749484,-2.132488,-0.3549984,0.9780912,-0.2307809,0.1448547,-59.99494,-10.82069,-17.00473
1.032155037,0.5826145,-2.310545,-0.4769399,0.9775211,-0.226445,0.1419831,-59.99494,-10.82069,-17.00473
1.042151928,0.5826145,-2.310545,-0.2330568,0.9818331,-0.2224416,0.1453246,-59.99494,-10.82069,-17.00473
1.052148342,0.3980148,-2.666659,0.07179698,0.9876693,-0.2218359,0.1457928,-59.99494,-10.82069,-17.00473
1.062145233,0.2134152,-2.547954,0.4376215,0.9842787,-0.2228485,0.1486704,-59.99494,-10.82069,-17.00473
1.072141647,-0.6480501,-2.488602,1.047329,0.9861981,-0.2214053,0.1429238,-59.99494,-10.82069,-17.00473
1.082138538,-1.201849,-2.547954,1.352183,0.9808511,-0.2219355,0.1496334,-59.99494,-10.82069,-17.00473
1.092134953,-1.571049,-2.547954,1.535095,0.9852161,-0.220895,0.1477112,-59.99494,-10.82069,-17.00473
1.102131844,-1.509515,-2.42925,1.778978,0.9808527,-0.2218828,0.1553763,-59.99494,-10.82069,-17.00473
1.112128258,-1.509515,-2.547954,1.718008,0.9813386,-0.2219127,0.1510682,-60.00111,-10.4436,-17.39375
1.122125149,-1.571049,-2.369897,1.413154,0.9793804,-0.221483,0.1491572,-60.00111,-10.4436,-17.39375
1.132122517,-1.078783,-2.369897,1.352183,0.9798691,-0.2214251,0.1544207,-60.00111,-10.4436,-17.39375
1.142118931,-0.7711166,-2.42925,1.169271,0.983342,-0.22478,0.1520226,-60.00111,-10.4436,-17.39375
1.152115822,-0.6480501,-2.251192,0.9253877,0.9833066,-0.2228019,0.1558508,-60.00111,-10.4436,-17.39375
1.162112236,-0.4019172,-2.132488,0.6815046,0.9837483,-0.2203591,0.156328,-60.75567,-10.43942,-16.23831
1.172109127,-0.4634504,-2.073135,0.6815046,0.9794169,-0.2234261,0.1491577,-60.75567,-10.43942,-16.23831
1.182105541,-0.5249836,-1.776374,0.3766508,0.9828002,-0.2218751,0.1520228,-60.75567,-10.43942,-16.23831
1.192102432,-0.5865169,-1.776374,0.2547093,0.9826984,-0.2165756,0.1472359,-60.75567,-10.43942,-16.23831
1.202098846,-0.8326498,-1.835726,-0.1111153,0.9803731,-0.2224265,0.1501129,-60.75567,-10.43942,-16.23831
1.212095738,-0.7095833,-1.895078,-0.05014454,0.9818991,-0.2257717,0.1529825,-60.76183,-10.06233,-16.62734
1.222092152,-0.4019172,-1.717021,-0.2330568,0.9839101,-0.2291774,0.1481942,-60.76183,-10.06233,-16.62734
1.232089043,-0.2173175,-1.598316,-0.3549984,0.9805028,-0.2291657,0.1568145,-60.76183,-10.06233,-16.62734
1.242085457,0.09034869,-1.538964,-0.6598521,0.980908,-0.2247799,0.1572912,-60.76183,-10.06233,-16.62734
1.252082348,0.2749484,-1.18285,-0.8427644,0.9858673,-0.2296334,0.1472337,-60.76183,-10.06233,-16.62734
1.262078762,0.5210813,-1.360907,-0.9647059,0.9834504,-0.2306443,0.1481953,-60.37137,-10.82023,-16.6205
1.272075653,0.5826145,-1.123497,-1.086647,0.9883036,-0.2295634,0.1496223,-60.37137,-10.82023,-16.6205
1.282072067,0.5826145,-0.9454404,-1.391501,0.9864733,-0.2359299,0.1481914,-60.37137,-10.82023,-16.6205
1.292068958,0.705681,-0.8267356,-1.26956,0.9863172,-0.2277027,0.1448395,-60.37137,-10.82023,-16.6205
1.302066326,0.705681,-0.5299737,-1.26956,0.9882936,-0.2291039,0.1467508,-60.37137,-10.82023,-16.6205
1.31206274,0.705681,-0.5893261,-1.086647,0.9848385,-0.2267337,0.1477133,-60.38879,-10.05625,-16.23756
1.322059631,0.6441478,-0.1145072,-1.025677,0.9878057,-0.2291399,0.1438802,-60.38879,-10.05625,-16.23756
1.332056046,0.5210813,-0.1145072,-0.6598521,0.9896811,-0.2252153,0.1438759,-60.38879,-10.05625,-16.23756
1.342052937,0.4595481,-0.1145072,-0.5379106,0.9837711,-0.2219568,0.1410139,-60.38879,-10.05625,-16.23756
1.352049351,0.2134152,0.06354995,-0.05014454,0.9916546,-0.2267043,0.1362156,-60.38879,-10.05625,-16.23756
1.362045765,0.09034869,0.3009594,-0.05014454,0.9882374,-0.2262333,0.1419644,-60.38709,-10.05952,-16.62456
1.372042656,-0.094251,0.3009594,0.2547093,0.9833378,-0.2249117,0.1376654,-60.38709,-10.05952,-16.62456
1.38203907,0.09034869,0.4790165,0.4376215,0.9827951,-0.2220331,0.1347941,-60.38709,-10.05952,-16.62456
1.392035961,-0.094251,0.3603118,0.3766508,0.9856988,-0.2210258,0.1323959,-60.38709,-10.05952,-16.62456
1.402032375,-0.094251,0.4196641,0.3766508,0.9828212,-0.2235299,0.1304873,-60.76522,-10.05579,-15.85334
1.412029266,-0.4019172,0.3603118,0.4985923,0.9832633,-0.2210739,0.1324002,-60.76522,-10.05579,-15.85334
1.422025681,-0.4019172,0.3603118,0.3766508,0.980302,-0.2192544,0.1252262,-60.76522,-10.05579,-15.85334
1.432022572,-0.5249836,0.2416071,0.4376215,0.9778022,-0.2159154,0.123794,-60.76522,-10.05579,-15.85334
1.442018986,-0.8326498,0.1229023,0.31568,0.9798055,-0.2187871,0.1242698,-60.76522,-10.05579,-15.85334
1.452016354,-0.9557163,-0.05515479,0.01082622,0.9817535,-0.2187617,0.1228307,-60.76353,-10.05906,-16.24034
1.462013245,-0.7095833,-0.3519166,-0.05014454,0.9841709,-0.2177377,0.1233048,-60.76353,-10.05906,-16.24034
1.472009659,-0.5865169,-0.411269,-0.2940276,0.9842435,-0.221637,0.1218699,-60.76353,-10.05906,-16.24034
1.48200655,-0.4634504,-0.3519166,-0.4769399,0.9846947,-0.2196668,0.123783,-60.76353,-10.05906,-16.24034
1.492002964,-0.2788507,-0.5893261,-0.4159691,0.9875968,-0.2187077,0.1161204,-60.76353,-10.05906,-16.24034
1.501999855,-0.4019172,-0.7080309,-0.7817937,0.9846665,-0.2182358,0.1209112,-60.02191,-9.67308,-16.23681
1.511996269,-0.4019172,-0.8267356,-0.7817937,0.9817073,-0.2163505,0.1209159,-60.02191,-9.67308,-16.23681
1.52199316,-0.7095833,-0.8267356,-0.9647059,0.9850624,-0.2133642,0.1213878,-60.02191,-9.67308,-16.23681
1.531989575,-0.9557163,-0.7080309,-0.7817937,0.9816719,-0.2143724,0.124744,-60.02191,-9.67308,-16.23681
1.541986466,-1.632582,-1.064145,-0.7208229,0.9831041,-0.2129432,0.1185197,-60.02191,-9.67308,-16.23681
1.55198288,-1.878715,-1.123497,-0.7208229,0.9788328,-0.218758,0.1295359,-60.38262,-10.43334,-15.84853
1.561979771,-2.001781,-1.242202,-0.6598521,0.9763688,-0.217384,0.1257112,-60.38262,-10.43334,-15.84853
1.571976185,-1.878715,-1.420259,-0.9647059,0.9813235,-0.2216113,0.130968,-60.38262,-10.43334,-15.84853
1.581973076,-1.817181,-1.420259,-1.086647,0.9813505,-0.2230818,0.1295326,-60.38262,-10.43334,-15.84853
1.591970444,-1.694115,-1.479612,-0.9647059,0.9789237,-0.2236244,0.1285798,-60.38262,-10.43334,-15.84853
1.601966858,-1.324916,-1.717021,-1.26956,0.9833275,-0.2244611,0.1338367,-60.38093,-10.4366,-16.23553
1.611963749,-0.7095833,-1.657669,-1.452472,0.9829332,-0.22928,0.1391029,-60.38093,-10.4366,-16.23553
1.621960163,-0.5249836,-1.895078,-1.330531,0.9785934,-0.2318393,0.1343254,-60.38093,-10.4366,-16.23553
1.631957054,-0.1557842,-1.538964,-1.513443,0.9760869,-0.2279399,0.1410288,-60.38093,-10.4366,-16.23553
1.641953468,-0.094251,-1.717021,-1.513443,0.9819856,-0.2307785,0.1367121,-60.38093,-10.4366,-16.23553
1.651950359,-0.03271778,-1.657669,-1.391501,0.9844024,-0.2297764,0.1347933,-60.38879,-10.05625,-16.23756
1.661946773,0.2134152,-1.479612,-1.391501,0.9800918,-0.2337359,0.1362376,-60.38879,-10.05625,-16.23756
1.671943664,0.2134152,-1.479612,-1.208589,0.9849907,-0.2350838,0.1376651,-60.38879,-10.05625,-16.23756
1.681940079,0.2749484,-1.360907,-1.086647,0.9859292,-0.2330952,0.1405344,-60.38879,-10.05625,-16.23756
1.691936493,0.5210813,-1.420259,-0.9647059,0.9825647,-0.2356045,0.1391052,-60.38879,-10.05625,-16.23756
1.701933384,0.705681,-1.360907,-0.5379106,0.9860392,-0.2389068,0.14245,-60.76522,-10.05579,-15.85334
1.711930752,1.013347,-1.064145,-0.2330568,0.9879423,-0.2364307,0.1434032,-60.76522,-10.05579,-15.85334
1.721927166,0.8902807,-0.886088,0.01082622,0.9854348,-0.232562,0.1467566,-60.76522,-10.05579,-15.85334
1.731924057,0.7672142,-0.3519166,0.1937385,0.9854698,-0.2345533,0.1414928,-60.76522,-10.05579,-15.85334
1.741920471,0.5826145,-0.05515479,0.5595631,0.9859465,-0.2340974,0.1371846,-60.76522,-10.05579,-15.85334
1.751917362,0.09034869,0.1822547,0.6815046,0.9829328,-0.2292932,0.1376672,-60.74164,-11.19686,-15.84725
1.761913776,-0.3403839,0.3603118,0.8644169,0.9881994,-0.2243385,0.1366996,-60.74164,-11.19686,-15.84725
1.771910667,-0.7095833,0.6570736,1.230241,0.9863048,-0.2273223,0.1333537,-60.74164,-11.19686,-15.84725
1.781907082,-1.201849,0.716426,1.413154,0.9867464,-0.2248794,0.1338308,-60.74164,-11.19686,-15.84725
1.791903973,-1.386449,0.6570736,1.596066,0.9908254,-0.2345265,0.132869,-60.74164,-11.19686,-15.84725
1.801900387,-1.263382,0.5977212,1.596066,0.9858809,-0.2307498,0.131441,-60.38262,-10.43334,-15.84853
1.811897278,-0.894183,0.4196641,1.839949,0.9863578,-0.2302895,0.1276114,-60.38262,-10.43334,-15.84853
1.821893692,-0.5249836,0.004197581,1.96189,0.9819534,-0.2294748,0.1199616,-60.38262,-10.43334,-15.84853
1.83189106,0.1518819,0.06354995,1.96189,0.9755687,-0.2266064,0.1285864,-60.38262,-10.43334,-15.84853
1.841887951,0.6441478,-0.2925643,1.96189,0.9730843,-0.2243266,0.1175829,-60.38262,-10.43334,-15.84853
1.851884365,1.013347,-0.3519166,1.718008,0.9662016,-0.2210435,0.1195084,-60.77309,-9.675436,-15.85537
1.861881256,1.197947,-0.7673832,1.474125,0.9710721,-0.2209648,0.1175856,-60.77309,-9.675436,-15.85537
1.87187767,1.690213,-1.064145,1.230241,0.9740409,-0.2233183,0.1194953,-60.77309,-9.675436,-15.85537
1.881874561,2.059412,-1.123497,0.7424754,0.9793454,-0.2202628,0.1233139,-60.77309,-9.675436,-15.85537
1.891870975,2.305545,-1.479612,0.2547093,0.9804011,-0.2246373,0.1209203,-60.77309,-9.675436,-15.85537
1.901867866,2.613211,-1.598316,0.07179698,0.9832786,-0.2221376,0.1223503,-60.01743,-10.0469,-15.46078
1.911864281,2.797811,-1.598316,-0.1720861,0.9872389,-0.2254697,0.1213871,-60.01743,-10.0469,-15.46078
1.921861172,2.674744,-1.598316,-0.1720861,0.9867256,-0.2239869,0.1252162,-60.01743,-10.0469,-15.46078
1.931857586,2.674744,-1.420259,0.07179698,0.9949886,-0.2228386,0.1266373,-60.01743,-10.0469,-15.46078
1.941854954,2.551678,-1.420259,0.4376215,0.9930031,-0.2209517,0.124726,-60.01743,-10.0469,-15.46078
1.951851368,1.874812,-1.301555,0.6815046,0.9919385,-0.2160869,0.127598,-60.75736,-10.43615,-15.85131
1.961848259,1.07488,-1.004793,1.1083,0.9865173,-0.2127661,0.1304781,-60.75736,-10.43615,-15.85131
1.971844673,0.1518819,-1.123497,1.535095,0.989024,-0.2166612,0.1242532,-60.75736,-10.43615,-15.85131
1.981841564,-0.4019172,-0.9454404,1.596066,0.984136,-0.2157464,0.1285687,-60.75736,-10.43615,-15.85131
1.991837978,-0.8326498,-1.004793,1.657037,0.9817836,-0.2201312,0.1324025,-60.75736,-10.43615,-15.85131
2.001834869,-0.7711166,-1.123497,1.474125,0.9832617,-0.2211222,0.1271359,-60.01574,-10.05017,-15.84778
2.011831284,-0.3403839,-1.242202,1.413154,0.9798517,-0.2211983,0.1261847,-60.01574,-10.05017,-15.84778
2.021828175,0.3980148,-1.18285,1.230241,0.9823048,-0.2221437,0.1237878,-60.01574,-10.05017,-15.84778
2.031824589,1.07488,-1.18285,0.7424754,0.9881311,-0.2210786,0.1213844,-60.01574,-10.05017,-15.84778
2.04182148,1.505613,-1.242202,0.4376215,0.9813235,-0.2216113,0.130968,-60.40004,-9.669354,-15.46558
2.051818848,1.874812,-1.064145,0.31568,0.9842179,-0.2201226,0.1280911,-60.40004,-9.669354,-15.46558
2.061815262,1.690213,-1.004793,0.07179698,0.9832085,-0.2181593,0.1323995,-60.40004,-9.669354,-15.46558
2.071812153,1.25948,-0.7673832,-0.2330568,0.9836683,-0.2166924,0.1323983,-60.40004,-9.669354,-15.46558
2.081808567,1.013347,-0.4706214,-0.2330568,0.9861305,-0.2181191,0.1304801,-60.40004,-9.669354,-15.46558
2.091805458,0.6441478,-0.5299737,-0.2940276,0.9812589,-0.2182329,0.1285743,-60.7478,-10.81977,-16.23628
2.101801872,0.3364816,-0.2332119,-0.3549984,0.9842005,-0.2191248,0.1309623,-60.7478,-10.81977,-16.23628
2.111798763,0.2749484,-0.1738595,-0.2940276,0.9866909,-0.2219868,0.1314373,-60.7478,-10.81977,-16.23628
2.121795177,0.2749484,-0.1145072,-0.2940276,0.9907159,-0.2286973,0.1328677,-60.7478,-10.81977,-16.23628
2.131792069,0.3364816,-0.1145072,-0.1720861,0.985761,-0.2244744,0.1271324,-60.7478,-10.81977,-16.23628
2.141788483,0.2134152,0.06354995,-0.1720861,0.9867716,-0.2264026,0.1266525,-60.76522,-10.05579,-15.85334
2.151785851,0.2134152,0.06354995,-0.1111153,0.9872857,-0.2278634,0.1252163,-60.76522,-10.05579,-15.85334
2.161782742,0.2134152,-0.05515479,0.07179698,0.9906523,-0.2252882,0.1338241,-60.76522,-10.05579,-15.85334
2.174278736,0.3364816,0.3009594,0.1937385,0.9834154,-0.229424,0.122352,-60.76522,-10.05579,-15.85334
2.181776047,0.2749484,0.1822547,0.31568,0.9838686,-0.2273923,0.130965,-60.76522,-10.05579,-15.85334
2.194272041,0.1518819,0.3603118,0.3766508,0.9848951,-0.2303623,0.1228282,-60.39048,-10.05298,-15.85056
2.201769352,0.2134152,0.5977212,0.4376215,0.9809713,-0.2289688,0.1242704,-60.39048,-10.05298,-15.85056
2.211765766,-0.03271778,0.5383689,0.6205339,0.9824607,-0.2303753,0.1266611,-60.39048,-10.05298,-15.85056
2.221762657,-0.03271778,0.6570736,0.6815046,0.9829861,-0.2322516,0.1328821,-60.39048,-10.05298,-15.85056
2.231759071,-0.4019172,0.5977212,0.6205339,0.9785459,-0.229472,0.1276248,-60.39048,-10.05298,-15.85056
2.244255066,-0.5865169,0.4790165,0.9863584,0.9828641,-0.2260421,0.1213949,-60.01574,-10.05017,-15.84778
2.25425148,-0.894183,0.6570736,0.8644169,0.9804386,-0.2265453,0.1247493,-60.01574,-10.05017,-15.84778
2.264248371,-0.8326498,0.6570736,0.9863584,0.9795278,-0.2299824,0.1228375,-60.01574,-10.05017,-15.84778
2.274245739,-1.017249,0.5977212,0.5595631,0.9819361,-0.2284726,0.1233115,-60.01574,-10.05017,-15.84778
2.284242153,-0.7095833,0.4196641,0.8034461,0.984427,-0.2313215,0.1252221,-60.01574,-10.05017,-15.84778
2.294239044,-0.7095833,0.5383689,0.5595631,0.9834147,-0.2294459,0.1199591,-60.75567,-10.43942,-16.23831
2.304235458,-0.5865169,0.4790165,0.4985923,0.9829726,-0.2319019,0.1180462,-60.75567,-10.43942,-16.23831
2.314232349,-0.3403839,0.4790165,0.2547093,0.9814485,-0.2284998,0.121398,-60.75567,-10.43942,-16.23831
2.324228764,-0.5249836,0.3603118,0.4376215,0.981908,-0.2270372,0.1209183,-60.75567,-10.43942,-16.23831
2.334225655,-0.4019172,0.3009594,0.4376215,0.9771284,-0.2319823,0.121885,-60.75567,-10.43942,-16.23831
2.344222069,-0.4019172,0.1822547,0.31568,0.9820089,-0.2323631,0.1228338,-60.39217,-10.04971,-15.46356
2.35421896,-0.3403839,0.004197581,0.31568,0.9815032,-0.2314143,0.1213987,-60.39217,-10.04971,-15.46356
2.364216328,-0.1557842,-0.1738595,0.2547093,0.9804377,-0.226576,0.1213993,-60.39217,-10.04971,-15.46356
2.374212742,-0.4634504,-0.3519166,0.31568,0.9780929,-0.2314993,0.1194903,-60.39217,-10.04971,-15.46356
2.384209633,-0.03271778,-0.2332119,0.31568,0.9801258,-0.235758,0.1276237,-60.39217,-10.04971,-15.46356
2.394206047,-0.1557842,-0.1738595,0.31568,0.9815043,-0.2313792,0.1252273,-60.78095,-9.29508,-15.85739
2.404202938,-0.2173175,-0.4706214,0.1937385,0.9820112,-0.2322928,0.130491,-60.78095,-9.29508,-15.85739
2.414199352,-0.2788507,-0.2925643,0.07179698,0.9805842,-0.2343306,0.1233153,-60.78095,-9.29508,-15.85739
2.424196243,-0.1557842,-0.2332119,0.1327677,0.9883604,-0.2331832,0.1256943,-60.78095,-9.29508,-15.85739
2.434192658,-0.2788507,-0.1738595,0.1937385,0.9877542,-0.226891,0.124258,-60.78095,-9.29508,-15.85739
2.444189549,-0.4634504,-0.1738595,0.4376215,0.9805225,-0.2308644,0.1304932,-60.39048,-10.05298,-15.85056
2.45418644,-0.8326498,0.004197581,0.2547093,0.9883143,-0.2307719,0.1237795,-60.39048,-10.05298,-15.85056
2.464183331,-1.201849,-0.05515479,0.31568,0.9780933,-0.2314861,0.120926,-60.39048,-10.05298,-15.85056
2.474179745,-1.386449,-0.2332119,0.3766508,0.9806213,-0.2362561,0.12523,-60.39048,-10.05298,-15.85056
2.484176636,-1.140316,0.06354995,0.3766508,0.9782037,-0.2372889,0.1237988,-60.40004,-9.669354,-15.46558
2.49417305,-0.8326498,-0.1738595,0.4376215,0.977735,-0.2382613,0.124757,-60.40004,-9.669354,-15.46558
2.504169941,-0.3403839,-0.1145072,0.2547093,0.978653,-0.2353757,0.1194903,-60.40004,-9.669354,-15.46558
2.514166355,-0.03271778,0.004197581,0.1327677,0.977159,-0.2333387,0.1328925,-60.40004,-9.669354,-15.46558
2.524163246,0.2749484,0.004197581,0.31568,0.9829562,-0.2308733,0.1242674,-60.40004,-9.669354,-15.46558
2.53415966,0.09034869,-0.1145072,0.1937385,0.9865329,-0.2394619,0.1338349,-60.76691,-10.05252,-15.46634
2.544157028,-0.094251,-0.1738595,0.1327677,0.9845017,-0.2351549,0.1309659,-60.76691,-10.05252,-15.46634
2.554153919,-0.2173175,-0.1738595,0.1327677,0.9864305,-0.2341844,0.1266551,-60.76691,-10.05252,-15.46634
2.564150334,-0.2173175,-0.2332119,0.2547093,0.9878748,-0.2331445,0.1309595,-60.76691,-10.05252,-15.46634
2.574147225,-0.03271778,-0.3519166,0.3766508,0.9841237,-0.2410025,0.1300109,-60.76691,-10.05252,-15.46634
2.584143639,0.2134152,-0.05515479,0.31568,0.9821414,-0.2390145,0.1391068,-60.38879,-10.05625,-16.23756
2.59414053,0.3980148,-0.1738595,0.4985923,0.9825807,-0.2366463,0.1314482,-60.38879,-10.05625,-16.23756
2.604136944,0.5826145,-0.05515479,0.4376215,0.9766818,-0.2338121,0.1352864,-60.38879,-10.05625,-16.23756
2.614133835,0.5826145,0.1229023,0.5595631,0.9786286,-0.2338219,0.1300187,-60.38879,-10.05625,-16.23756
2.624130249,0.1518819,0.2416071,0.8034461,0.9839427,-0.2312433,0.1347945,-60.38879,-10.05625,-16.23756
2.634127617,-0.2788507,0.5977212,0.9253877,0.9794569,-0.2260305,0.1300152,-60.75736,-10.43615,-15.85131
2.644124508,-0.7711166,0.7757784,0.9863584,0.9798899,-0.2230887,0.131928,-60.75736,-10.43615,-15.85131
2.654120922,-1.263382,0.9538354,1.047329,0.9843906,-0.2293741,0.1257003,-60.75736,-10.43615,-15.85131
2.664117813,-1.571049,0.9538354,0.9253877,0.975191,-0.2324495,0.12811,-60.75736,-10.43615,-15.85131
2.674114227,-1.447982,0.8944831,0.9253877,0.9766404,-0.2320227,0.1185358,-60.75736,-10.43615,-15.85131
2.684111118,-1.386449,0.5383689,0.8034461,0.9770918,-0.2300437,0.121406,-60.77309,-9.675436,-15.85537
2.694107532,-1.140316,0.2416071,0.6205339,0.9800341,-0.2309135,0.1261869,-60.77309,-9.675436,-15.85537
2.704104423,-0.9557163,0.1229023,0.6205339,0.9795294,-0.2299341,0.1281018,-60.77309,-9.675436,-15.85537
2.714101314,-0.894183,-0.1145072,0.7424754,0.9790959,-0.232889,0.1247533,-60.77309,-9.675436,-15.85537
2.724098206,-0.7095833,-0.2925643,0.4985923,0.9805675,-0.2333108,0.1285794,-60.77309,-9.675436,-15.85537
2.73409462,-0.6480501,-0.2925643,0.7424754,0.9790776,-0.2319219,0.1242745,-60.77647,-9.668899,-15.08136
2.744091511,-0.7711166,-0.4706214,0.8034461,0.9799525,-0.2265285,0.1276216,-60.77647,-9.668899,-15.08136
2.754087925,-1.078783,-0.411269,0.7424754,0.9789319,-0.2241409,0.1252299,-60.77647,-9.668899,-15.08136
2.764084816,-1.201849,-0.6486785,0.6205339,0.9760817,-0.2281023,0.1233216,-60.77647,-9.668899,-15.08136
2.77408123,-1.140316,-0.411269,0.31568,0.9795198,-0.2294615,0.1266659,-60.77647,-9.668899,-15.08136
2.784078121,-1.263382,-0.411269,0.1327677,0.9726566,-0.227106,0.1333774,-61.14952,-9.67498,-15.47114
2.794075489,-1.140316,-0.2925643,-0.1111153,0.9828925,-0.2274686,0.1247453,-61.14952,-9.67498,-15.47114
2.804071903,-1.078783,-0.5299737,-0.3549984,0.9795396,-0.2303847,0.1319305,-61.14952,-9.67498,-15.47114
2.814068794,-0.9557163,-0.4706214,-0.1111153,0.9789604,-0.2255631,0.1290588,-61.14952,-9.67498,-15.47114
2.824065208,-1.017249,-0.7080309,0.07179698,0.9761401,-0.2309027,0.1357652,-61.14952,-9.67498,-15.47114
2.834062099,-1.571049,-0.5893261,0.2547093,0.9828564,-0.2255124,0.1261805,-60.78265,-9.291811,-15.47039
2.844058514,-2.001781,-1.004793,0.31568,0.9853481,-0.228335,0.1309627,-60.78265,-9.291811,-15.47039
2.854055405,-2.001781,-1.123497,0.3766508,0.9811096,-0.2362113,0.1290578,-60.78265,-9.291811,-15.47039
2.864052772,-1.386449,-1.004793,0.2547093,0.9861263,-0.2438961,0.1280939,-60.78265,-9.291811,-15.47039
2.874049187,-0.5865169,-1.123497,0.07179698,0.9803453,-0.2473987,0.1295406,-60.78265,-9.291811,-15.47039
2.884046078,0.2749484,-0.886088,0.07179698,0.9796651,-0.2372556,0.1242748,-60.39048,-10.05298,-15.85056
2.894042492,0.8902807,-0.9454404,0.2547093,0.9757141,-0.2343961,0.1266738,-60.39048,-10.05298,-15.85056
2.904039383,1.25948,-1.004793,0.01082622,0.9752553,-0.2358367,0.1295465,-60.39048,-10.05298,-15.85056
2.914035797,1.321013,-1.123497,0.01082622,0.9742288,-0.2328624,0.1381619,-60.39048,-10.05298,-15.85056
2.924032688,1.013347,-1.123497,0.1327677,0.9736128,-0.2261064,0.1343326,-60.39048,-10.05298,-15.85056
2.934029102,0.3364816,-1.479612,0.1327677,0.9781718,-0.235201,0.1395913,-60.77478,-9.672167,-15.46836
2.944025993,0.4595481,-1.420259,0.01082622,0.9801918,-0.2390925,0.1348031,-60.77478,-9.672167,-15.46836
2.954022884,0.8902807,-1.538964,0.07179698,0.9793649,-0.24684,0.1395923,-60.77478,-9.672167,-15.46836
2.964019775,1.690213,-1.598316,0.31568,0.975963,-0.2474326,0.1352911,-60.77478,-9.672167,-15.46836
2.97401619,2.736278,-1.717021,0.5595631,0.9823572,-0.2507737,0.1281022,-60.77478,-9.672167,-15.46836
2.984013081,3.290077,-1.479612,0.7424754,0.986165,-0.2457689,0.1357515,-60.40004,-9.669354,-15.46558
2.994009495,3.782343,-1.538964,0.9253877,0.9894202,-0.237426,0.137658,-60.40004,-9.669354,-15.46558
3.004006386,3.720809,-1.064145,0.9863584,0.9874908,-0.2384141,0.1400545,-60.40004,-9.669354,-15.46558
3.0140028,3.16701,-0.9454404,1.291212,0.9898355,-0.2334952,0.1414849,-60.40004,-9.669354,-15.46558
3.024000168,2.244012,-1.123497,1.291212,0.9878851,-0.2335951,0.1347882,-60.40004,-9.669354,-15.46558
3.033997059,1.628679,-0.7080309,1.047329,0.9810859,-0.2346399,0.1415004,-60.76861,-10.04925,-15.07933
3.043993473,1.44408,-0.7080309,1.291212,0.9777302,-0.2376395,0.1395927,-60.76861,-10.04925,-15.07933
3.053990364,1.751746,-0.7673832,1.352183,0.9783255,-0.2435028,0.1348075,-60.76861,-10.04925,-15.07933
3.063986778,2.367078,-0.7080309,1.352183,0.9793096,-0.243943,0.1376773,-60.76861,-10.04925,-15.07933
3.073983669,3.474676,-0.8267356,1.352183,0.9758531,-0.2416167,0.1338541,-60.78265,-9.291811,-15.47039
3.083980083,4.213075,-0.8267356,1.413154,0.977341,-0.2430714,0.1309804,-60.78265,-9.291811,-15.47039
3.093977451,4.705341,-0.7673832,1.778978,0.9767726,-0.2386829,0.1338518,-60.78265,-9.291811,-15.47039
3.103974342,4.889941,-0.7080309,1.657037,0.9839317,-0.2308146,0.1285729,-60.78265,-9.291811,-15.47039
3.113970757,4.336142,-0.5299737,1.90092,0.9844016,-0.2298028,0.1319219,-60.78265,-9.291811,-15.47039
3.123967648,3.659276,-0.411269,1.90092,0.9809192,-0.2259709,0.1333627,-61.15908,-9.291355,-15.08617
3.133964062,3.043944,-0.2332119,1.96189,0.9794767,-0.2269537,0.1352797,-61.15908,-9.291355,-15.08617
3.143960953,2.428612,0.1229023,1.839949,0.9834889,-0.2332925,0.1242671,-61.15908,-9.291355,-15.08617
3.153957367,1.936346,0.3009594,1.718008,0.9766238,-0.2309985,0.1242785,-61.15908,-9.291355,-15.08617
3.163954258,1.813279,0.4196641,1.96189,0.9742152,-0.2325171,0.1228474,-61.15908,-9.291355,-15.08617
3.173951149,2.059412,0.716426,1.96189,0.976209,-0.2349161,0.1218874,-61.15908,-9.291355,-15.08617
3.18394804,2.120945,0.8351307,1.90092,0.9766495,-0.2325084,0.118536,-61.15908,-9.291355,-15.08617
3.193944454,2.305545,0.9538354,1.839949,0.977145,-0.2330065,0.1161423,-61.15908,-9.291355,-15.08617
3.203941345,1.997879,0.9538354,1.718008,0.9707752,-0.2312193,0.1128029,-61.15908,-9.291355,-15.08617
3.213937759,1.567146,1.013188,1.535095,0.969661,-0.2240487,0.1022744,-61.15908,-9.291355,-15.08617
3.22393465,0.705681,1.191245,1.230241,0.9750544,-0.2259254,0.09795826,-60.78434,-9.288543,-15.08339
3.233931065,0.1518819,0.9538354,0.9253877,0.9682931,-0.2288649,0.1099352,-60.78434,-9.288543,-15.08339
3.243928433,-0.1557842,0.8944831,0.4985923,0.9708153,-0.2338193,0.09413908,-60.78434,-9.288543,-15.08339
3.253925324,0.02881546,0.8351307,0.1327677,0.9723485,-0.2377116,0.09030881,-60.78434,-9.288543,-15.08339
3.263921738,0.2749484,0.5383689,-0.2330568,0.9738187,-0.2381773,0.08934921,-60.78434,-9.288543,-15.08339
3.273918629,0.8902807,0.1229023,-0.6598521,0.9803435,-0.2482268,0.09221187,-60.78265,-9.291811,-15.47039
3.283915043,1.25948,0.004197581,-1.147618,0.9769867,-0.2512658,0.08599702,-60.78265,-9.291811,-15.47039
3.293911934,1.628679,-0.7080309,-1.208589,0.9808465,-0.2492634,0.08407547,-60.78265,-9.291811,-15.47039
3.303908348,1.936346,-0.7673832,-1.635384,0.9794763,-0.2541499,0.08407912,-60.78265,-9.291811,-15.47039
3.313905716,2.059412,-1.004793,-1.879267,0.9843224,-0.2525261,0.09172747,-60.78265,-9.291811,-15.47039
3.323902607,1.936346,-1.360907,-1.635384,0.9848092,-0.2525252,0.09076947,-60.77647,-9.668899,-15.08136
3.333899021,1.751746,-1.598316,-1.452472,0.9847996,-0.2520526,0.08933364,-60.77647,-9.668899,-15.08136
3.343895912,1.382547,-1.776374,-0.9037352,0.9912058,-0.2557873,0.09219489,-60.77647,-9.668899,-15.08136
3.353892326,1.07488,-2.073135,-0.3549984,0.995204,-0.261023,0.0955393,-60.77647,-9.668899,-15.08136
3.363889217,1.136414,-2.073135,0.5595631,0.9971456,-0.2604285,0.103193,-60.77647,-9.668899,-15.08136
3.373886108,0.9518139,-1.95443,1.1083,0.9941683,-0.2575672,0.103676,-61.15739,-9.294624,-15.47317
3.383883,0.4595481,-2.251192,1.718008,0.9922473,-0.2590631,0.1036797,-61.15739,-9.294624,-15.47317
3.393879414,0.6441478,-2.132488,2.205774,0.9888395,-0.259069,0.1103857,-61.15739,-9.294624,-15.47317
3.403876305,0.3980148,-2.073135,2.327715,0.9853931,-0.2571976,0.1099127,-61.15739,-9.294624,-15.47317
3.413872719,0.2749484,-2.310545,2.449656,0.986827,-0.2557115,0.1099098,-61.15739,-9.294624,-15.47317
3.42386961,0.5210813,-2.013783,2.266744,0.9854755,-0.2615607,0.1108708,-61.52596,-9.674523,-15.08692
3.433866024,0.8902807,-2.132488,2.205774,0.9824814,-0.2576841,0.1161394,-61.52596,-9.674523,-15.08692
3.443863392,1.44408,-2.19184,2.083832,0.9830039,-0.2596526,0.1123104,-61.52596,-9.674523,-15.08692
3.453860283,2.120945,-2.251192,1.778978,0.9796329,-0.2615928,0.119974,-61.52596,-9.674523,-15.08692
3.463856697,2.982411,-2.013783,1.718008,0.9805232,-0.2572588,0.1137498,-61.52596,-9.674523,-15.08692
3.473853588,3.413143,-1.95443,1.596066,0.9844853,-0.2605382,0.1185295,-60.78603,-9.285274,-14.69639
3.483850002,3.843876,-1.776374,1.718008,0.9843507,-0.2531816,0.1261851,-60.78603,-9.285274,-14.69639
3.493846893,3.659276,-1.242202,1.657037,0.9867302,-0.2502584,0.121873,-60.78603,-9.285274,-14.69639
3.503843308,3.290077,-0.6486785,2.022861,0.9920723,-0.2491152,0.129042,-60.78603,-9.285274,-14.69639
3.513840675,2.859344,-0.3519166,2.022861,0.9918994,-0.2398682,0.1309542,-60.78603,-9.285274,-14.69639
3.523837566,1.997879,0.2416071,2.266744,0.9870096,-0.2390104,0.1290482,-61.15908,-9.291355,-15.08617
3.533833981,1.013347,0.5383689,2.632569,0.9923484,-0.2379681,0.12521,-61.15908,-9.291355,-15.08617
3.543830872,0.1518819,0.716426,2.815481,0.992394,-0.2403969,0.1252106,-61.15908,-9.291355,-15.08617
3.553827286,-0.03271778,1.07254,3.181306,0.9909331,-0.2404127,0.1266489,-61.15908,-9.291355,-15.08617
3.563824177,0.02881546,1.30995,3.181306,0.9929168,-0.2423567,0.1223387,-61.15908,-9.291355,-15.08617
3.573820591,0.3364816,1.30995,3.059364,0.993889,-0.2423989,0.115637,-61.16694,-8.910999,-15.0882
3.583817959,0.5826145,1.428654,2.937423,0.9874483,-0.2366598,0.1194753,-61.16694,-8.910999,-15.0882
3.593814373,0.8287475,1.547359,2.449656,0.9806179,-0.2363614,0.1137443,-61.16694,-8.910999,-15.0882
3.603811264,0.7672142,1.369302,1.778978,0.9785545,-0.2299709,0.1261892,-61.16694,-8.910999,-15.0882
3.613807678,0.9518139,1.428654,1.352183,0.9824853,-0.2319203,0.1170899,-61.16694,-8.910999,-15.0882
3.623804569,0.6441478,1.428654,0.7424754,0.9801306,-0.2363798,0.112788,-60.41746,-8.905375,-15.08264
3.633800983,0.8902807,1.606712,-0.1111153,0.9756754,-0.2325233,0.1190162,-60.41746,-8.905375,-15.08264
3.643798351,1.136414,1.428654,-0.7817937,0.9840745,-0.2386877,0.1175675,-60.41746,-8.905375,-15.08264
3.653795242,1.628679,1.725416,-1.452472,0.9773181,-0.2422447,0.1151873,-60.41746,-8.905375,-15.08264
3.663791656,1.936346,1.844121,-1.879267,0.9783657,-0.2460984,0.1166222,-61.18136,-8.21368,-15.09192
3.673788547,2.182479,1.844121,-1.940238,0.9801773,-0.2387735,0.1166171,-61.18136,-8.21368,-15.09192
3.683784962,1.936346,1.962826,-1.818297,0.9816201,-0.2377819,0.1156572,-61.18136,-8.21368,-15.09192
3.693781853,1.628679,1.962826,-1.757326,0.9831181,-0.2396917,0.1161336,-61.18136,-8.21368,-15.09192
3.703779221,0.8902807,1.725416,-1.391501,0.9738631,-0.2398701,0.1166284,-61.18136,-8.21368,-15.09192
3.713775635,0.5210813,2.081531,-1.391501,0.9788071,-0.2436644,0.1161422,-61.17519,-8.590767,-14.70289
3.723772526,-0.1557842,2.022178,-1.26956,0.9796987,-0.2392908,0.1142252,-61.17519,-8.590767,-14.70289
3.73376894,-0.4634504,2.200235,-1.26956,0.9769673,-0.2495583,0.1132755,-61.17519,-8.590767,-14.70289
3.743765831,-0.2173175,2.022178,-1.452472,0.9827493,-0.246025,0.1151788,-61.17519,-8.590767,-14.70289
3.753762245,-0.03271778,2.022178,-1.452472,0.978861,-0.2466053,0.1132714,-61.17519,-8.590767,-14.70289
3.763759136,0.09034869,1.903473,-1.574414,0.977977,-0.2515129,0.1099242,-61.16525,-8.914268,-15.4752
3.773756027,0.2134152,1.666064,-1.696355,0.9754417,-0.2462001,0.1118415,-61.16525,-8.914268,-15.4752
3.783752918,0.2134152,1.784769,-1.818297,0.9744875,-0.2471338,0.1180649,-61.16525,-8.914268,-15.4752
3.793749332,0.09034869,1.784769,-1.696355,0.9755353,-0.2509831,0.1199784,-61.16525,-8.914268,-15.4752
3.803746223,-0.2173175,2.022178,-1.818297,0.9705997,-0.2476965,0.1180718,-61.16525,-8.914268,-15.4752
3.813742638,-0.5865169,1.903473,-1.452472,0.9715553,-0.2467189,0.1166342,-60.41915,-8.902105,-14.69563
3.823739529,-1.078783,1.606712,-1.086647,0.9725195,-0.2462446,0.1132824,-60.41915,-8.902105,-14.69563
3.833736896,-1.817181,1.606712,-0.9647059,0.9661509,-0.2444135,0.1147287,-60.41915,-8.902105,-14.69563
3.843733311,-1.694115,1.547359,-0.9647059,0.9702115,-0.2530978,0.1128096,-60.41915,-8.902105,-14.69563
3.853730202,-1.571049,1.250597,-0.9647059,0.9745492,-0.2506043,0.1104085,-60.41915,-8.902105,-14.69563
3.863726616,-1.324916,1.131893,-0.9037352,0.9741086,-0.253012,0.1137599,-60.43018,-8.211325,-15.47336
3.873723507,-1.140316,0.8351307,-0.8427644,0.9764345,-0.2471392,0.1132758,-60.43018,-8.211325,-15.47336
3.883719921,-0.7711166,0.4196641,-1.025677,0.9779501,-0.2500424,0.1113596,-60.43018,-8.211325,-15.47336
3.893717289,-0.894183,0.3603118,-1.025677,0.977914,-0.2480862,0.1127948,-60.43018,-8.211325,-15.47336
3.90371418,-0.7095833,0.2416071,-0.9037352,0.9774263,-0.2481134,0.1108814,-60.43018,-8.211325,-15.47336
3.913710594,-0.9557163,0.1822547,-0.7208229,0.9768865,-0.245147,0.1175817,-60.04102,-8.90583,-15.46686
3.923707485,-1.201849,0.06354995,-0.6598521,0.9749837,-0.2476099,0.1180642,-60.04102,-8.90583,-15.46686
3.933703899,-1.447982,0.004197581,-0.5988814,0.972449,-0.2422795,0.1218958,-60.04102,-8.90583,-15.46686
3.94370079,-1.817181,-0.1738595,-0.4159691,0.9782925,-0.2422211,0.1156641,-60.04102,-8.90583,-15.46686
3.953697681,-2.370981,0.06354995,-0.3549984,0.9733034,-0.2359805,0.1180641,-60.04102,-8.90583,-15.46686
3.963694572,-3.047846,0.1822547,-0.2330568,0.9742597,-0.234981,0.1190193,-61.16525,-8.914268,-15.4752
3.973690987,-3.601645,0.06354995,-0.2940276,0.9772288,-0.2373257,0.1218862,-61.16525,-8.914268,-15.4752
3.983687878,-3.724712,0.004197581,-0.2940276,0.97926,-0.2416415,0.1237981,-61.16525,-8.914268,-15.4752
3.993684292,-3.663178,0.004197581,-0.3549984,0.9817116,-0.2426307,0.1166154,-61.16525,-8.914268,-15.4752
4.003681183,-3.355512,0.1229023,-0.5988814,0.9832389,-0.2459363,0.1237923,-61.16525,-8.914268,-15.4752
4.013678551,-2.801713,0.004197581,-0.7817937,0.9802423,-0.2421387,0.1204465,-61.16525,-8.914268,-15.4752
4.023674965,-2.309447,0.004197581,-0.9647059,0.9811737,-0.2396029,0.1300157,-61.16525,-8.914268,-15.4752
4.033671856,-2.124848,0.004197581,-1.26956,0.978222,-0.238256,0.1242776,-61.16525,-8.914268,-15.4752
4.04366827,-2.063314,-0.05515479,-1.330531,0.9826075,-0.2381211,0.1295343,-61.16525,-8.914268,-15.4752
4.053665161,-2.124848,0.3009594,-1.26956,0.9807147,-0.2410435,0.1328883,-61.16525,-8.914268,-15.4752
4.063661575,-2.432514,0.06354995,-1.513443,0.9801003,-0.2342393,0.1343234,-60.7922,-8.908187,-15.08542
4.073658943,-2.55558,0.1822547,-1.513443,0.9835747,-0.2375503,0.1367111,-60.7922,-8.908187,-15.08542
4.083655834,-2.801713,0.3603118,-1.757326,0.9805879,-0.2342165,0.1357583,-60.7922,-8.908187,-15.08542
4.093652248,-2.801713,0.5383689,-1.757326,0.9831418,-0.240492,0.1347983,-60.7922,-8.908187,-15.08542
4.103649139,-2.617113,0.6570736,-2.06218,0.9856333,-0.243319,0.1391018,-60.7922,-8.908187,-15.08542
4.113645554,-2.186381,0.6570736,-2.123151,0.9812584,-0.2438957,0.138631,-60.78434,-9.288543,-15.08339
4.123642445,-2.063314,1.013188,-2.245092,0.9802632,-0.2430269,0.1295396,-60.78434,-9.288543,-15.08339
4.133639813,-1.571049,1.131893,-2.428004,0.9822398,-0.2444193,0.132408,-60.78434,-9.288543,-15.08339
4.143636227,-1.571049,1.131893,-2.671887,0.9783148,-0.2430654,0.129543,-60.78434,-9.288543,-15.08339
4.153633118,-1.324916,1.07254,-2.793829,0.9821939,-0.2419993,0.1314503,-60.78434,-9.288543,-15.08339
4.163629532,-1.263382,1.250597,-2.91577,0.9802985,-0.2450094,0.1252329,-61.16525,-8.914268,-15.4752
4.173625946,-0.7711166,1.191245,-2.793829,0.9813589,-0.2492347,0.1391108,-61.16525,-8.914268,-15.4752
4.183622837,-0.5249836,0.9538354,-2.8548,0.9793988,-0.2488665,0.1304998,-61.16525,-8.914268,-15.4752
4.193620205,0.09034869,1.07254,-3.159653,0.9813675,-0.2497381,0.1371966,-61.16525,-8.914268,-15.4752
4.203616619,0.3364816,1.131893,-2.91577,0.9838368,-0.2517164,0.1280999,-61.16525,-8.914268,-15.4752
4.21361351,0.3980148,1.369302,-2.671887,0.9866151,-0.2438338,0.1338359,-61.51443,-10.06196,-15.9234
4.223609924,-0.03271778,1.428654,-2.428004,0.9813299,-0.2478257,0.1338462,-61.51443,-10.06196,-15.9234
4.233606815,-0.3403839,1.903473,-2.184121,0.9861465,-0.2448061,0.1347941,-61.51443,-10.06196,-15.9234
4.24360323,-0.7711166,1.903473,-1.940238,0.9852175,-0.2472674,0.1333607,-61.51443,-10.06196,-15.9234
4.253600597,-1.263382,1.962826,-1.574414,0.9807491,-0.2430568,0.1252316,-61.51443,-10.06196,-15.9234
4.263597488,-1.571049,2.259588,-1.26956,0.9816524,-0.2390856,0.1324076,-60.76522,-10.05579,-15.85334
4.273593903,-1.632582,2.31894,-1.147618,0.976364,-0.2431785,0.1214107,-60.76522,-10.05579,-15.85334
4.283590794,-1.632582,2.200235,-1.025677,0.9788196,-0.2440448,0.1276281,-60.76522,-10.05579,-15.85334
4.293587208,-1.263382,2.259588,-1.086647,0.9792876,-0.24309,0.1247556,-60.76522,-10.05579,-15.85334
4.303584576,-0.9557163,2.081531,-1.208589,0.9778916,-0.2464709,0.1300232,-60.39217,-10.04971,-15.46356
4.313581467,-0.7095833,2.081531,-1.086647,0.9773577,-0.2440912,0.1257163,-60.39217,-10.04971,-15.46356
4.323577881,-0.5865169,1.844121,-1.330531,0.976308,-0.240299,0.1175814,-60.39217,-10.04971,-15.46356
4.333574772,-0.5865169,1.725416,-1.208589,0.975271,-0.2368872,0.1209324,-60.39217,-10.04971,-15.46356
4.343571186,-0.5865169,1.488007,-1.147618,0.9791033,-0.2334318,0.1185319,-60.39217,-10.04971,-15.46356
4.353568077,-0.7711166,1.369302,-0.9037352,0.9723023,-0.2345293,0.1195012,-60.40004,-9.669354,-15.46558
4.363564968,-0.9557163,1.30995,-0.5379106,0.9751613,-0.2310668,0.1199739,-60.40004,-9.669354,-15.46558
4.373561859,-1.078783,1.07254,-0.5988814,0.9772013,-0.2358728,0.1214073,-60.40004,-9.669354,-15.46558
4.383558273,-0.9557163,0.9538354,-0.4159691,0.9727973,-0.235045,0.1151933,-60.40004,-9.669354,-15.46558
4.393555164,-1.078783,0.7757784,-0.2330568,0.9728453,-0.2373991,0.1233296,-60.40004,-9.669354,-15.46558
4.403551579,-1.324916,0.6570736,-0.5379106,0.9776334,-0.2329574,0.1204487,-60.7728,-9.675981,-15.91987
4.41354847,-1.386449,0.4790165,-0.3549984,0.9741505,-0.229143,0.1199752,-60.7728,-9.675981,-15.91987
4.423545838,-1.755648,0.4196641,-0.5379106,0.9760354,-0.2256954,0.1209281,-60.7728,-9.675981,-15.91987
4.433542252,-1.878715,0.3603118,-0.4769399,0.9756554,-0.2316088,0.1127945,-60.7728,-9.675981,-15.91987
4.443539143,-2.124848,0.3603118,-0.4769399,0.9755555,-0.2262479,0.1147076,-60.7728,-9.675981,-15.91987
4.453535557,-2.432514,0.004197581,-0.2940276,0.9731016,-0.2253289,0.1142331,-60.7728,-9.675981,-15.91987
4.463532448,-2.432514,-0.1738595,-0.2940276,0.9648666,-0.2279169,0.1147267,-60.7728,-9.675981,-15.91987
4.473529816,-2.55558,-0.3519166,-0.3549984,0.963377,-0.2265148,0.1118575,-60.7728,-9.675981,-15.91987
4.48352623,-2.494047,-0.3519166,-0.3549984,0.9706945,-0.2267992,0.1180663,-60.7728,-9.675981,-15.91987
4.493523121,-2.309447,-0.7673832,-0.6598521,0.9722649,-0.2326126,0.1166293,-60.7728,-9.675981,-15.91987
4.503519535,-2.124848,-1.242202,-0.9647059,0.9761235,-0.2306496,0.1104006,-60.7728,-9.675981,-15.91987
4.513516426,-1.632582,-1.420259,-1.208589,0.9824672,-0.2309444,0.1175683,-60.7728,-9.675981,-15.91987
4.52351284,-1.201849,-1.420259,-1.391501,0.9845263,-0.2366956,0.1218733,-60.7728,-9.675981,-15.91987
4.533510208,-1.263382,-1.420259,-1.696355,0.9840297,-0.2362326,0.1204383,-60.7728,-9.675981,-15.91987
4.543506622,-0.894183,-1.598316,-1.696355,0.9855447,-0.239149,0.1170864,-60.7728,-9.675981,-15.91987
4.553503513,-1.201849,-1.598316,-1.452472,0.9854638,-0.2347421,0.120914,-60.76494,-10.05634,-15.91784
4.563499928,-1.324916,-1.598316,-0.9647059,0.9829563,-0.230869,0.124746,-60.76494,-10.05634,-15.91784
4.573496819,-1.755648,-1.717021,-0.7817937,0.9849412,-0.2327735,0.1247431,-60.76494,-10.05634,-15.91784
4.583494187,-2.186381,-1.420259,-0.4769399,0.9829937,-0.2327857,0.1276179,-60.76494,-10.05634,-15.91784
4.593490601,-2.678647,-1.301555,0.01082622,0.9854485,-0.233674,0.1314425,-60.76494,-10.05634,-15.91784
4.603487492,-3.170913,-1.301555,0.31568,0.983996,-0.2342018,0.1300094,-60.77478,-9.672167,-15.46836
4.613483906,-3.109379,-1.064145,0.3766508,0.9888657,-0.234145,0.1256937,-60.77478,-9.672167,-15.46836
4.623480797,-3.232446,-1.123497,0.5595631,0.9897409,-0.2287429,0.129998,-60.77478,-9.672167,-15.46836
4.633477211,-2.863246,-0.7673832,0.31568,0.9849709,-0.2341606,0.1324006,-60.77478,-9.672167,-15.46836
4.643474579,-2.863246,-0.8267356,0.1937385,0.9811003,-0.23573,0.1285791,-60.77478,-9.672167,-15.46836
4.65347147,-2.494047,-0.6486785,0.07179698,0.9854023,-0.2312671,0.129049,-60.40004,-9.669354,-15.46558
4.663467884,-2.124848,-0.886088,-0.3549984,0.9903195,-0.2335821,0.1309554,-60.40004,-9.669354,-15.46558
4.673464775,-1.632582,-0.6486785,-0.2940276,0.9855491,-0.239013,0.1319222,-60.40004,-9.669354,-15.46558
4.683461189,-1.017249,-0.9454404,-0.4769399,0.9869196,-0.2341133,0.1333543,-60.40004,-9.669354,-15.46558
4.693458557,-0.2788507,-1.004793,-0.7208229,0.9869642,-0.2365729,0.1300049,-60.40004,-9.669354,-15.46558
4.703454971,0.2749484,-1.004793,-0.7817937,0.9845396,-0.237054,0.1357521,-60.03905,-8.909644,-15.91836
4.713451862,0.5210813,-0.886088,-1.086647,0.9864604,-0.2355627,0.1352698,-60.03905,-8.909644,-15.91836
4.723448276,0.9518139,-0.7080309,-1.26956,0.9811581,-0.238548,0.1391084,-60.03905,-8.909644,-15.91836
4.733445167,1.136414,-0.7673832,-1.513443,0.9849908,-0.2350794,0.1381437,-60.03905,-8.909644,-15.91836
4.743442535,1.44408,-0.7080309,-1.757326,0.9811118,-0.2361411,0.136715,-60.03905,-8.909644,-15.91836
4.75343895,1.628679,-0.4706214,-1.940238,0.9791444,-0.23523,0.1343253,-61.15121,-9.671711,-15.08414
4.763435841,2.059412,-0.2925643,-1.879267,0.9782147,-0.2377132,0.130499,-61.15121,-9.671711,-15.08414
4.773432255,2.059412,-0.1145072,-2.06218,0.982573,-0.2361166,0.1362339,-61.15121,-9.671711,-15.08414
4.783429146,2.120945,0.1229023,-2.123151,0.9807166,-0.2409864,0.1391098,-61.15121,-9.671711,-15.08414
4.793426514,1.997879,0.3009594,-2.123151,0.9787229,-0.2385873,0.1400698,-61.15121,-9.671711,-15.08414
4.803422928,1.997879,0.06354995,-2.06218,0.9758805,-0.243074,0.1338544,-61.14335,-10.05207,-15.08211
4.813419819,2.305545,0.004197581,-1.940238,0.9730023,-0.2455956,0.1300315,-61.14335,-10.05207,-15.08211
4.823416233,2.920877,-0.2925643,-1.635384,0.9750069,-0.2484278,0.1348145,-61.14335,-10.05207,-15.08211
4.833413124,3.782343,-0.411269,-1.391501,0.9736156,-0.252435,0.1247679,-61.14335,-10.05207,-15.08211
4.843409538,4.643808,-0.3519166,-1.147618,0.9677149,-0.2496578,0.1223845,-61.14335,-10.05207,-15.08211
4.853406906,5.44374,-0.3519166,-1.330531,0.9686724,-0.2486188,0.127647,-60.77478,-9.672167,-15.46836
4.863403797,5.689873,-0.1738595,-1.086647,0.9754393,-0.2455036,0.134813,-60.77478,-9.672167,-15.46836
4.873400211,5.44374,0.1822547,-0.7817937,0.975418,-0.2446287,0.1242841,-60.77478,-9.672167,-15.46836
4.883397102,4.889941,0.3603118,-0.4769399,0.9791969,-0.2382148,0.1266688,-60.77478,-9.672167,-15.46836
4.893393517,3.905409,0.4790165,-0.2940276,0.9811245,-0.2372882,0.1175722,-60.77478,-9.672167,-15.46836
4.903390884,3.16701,0.716426,0.1937385,0.9797284,-0.2406735,0.1223613,-60.77478,-9.672167,-15.46836
4.913387299,2.551678,0.7757784,0.7424754,0.9788259,-0.2446184,0.1180567,-60.77478,-9.672167,-15.46836
4.92338419,2.367078,0.3603118,1.535095,0.9827656,-0.2470579,0.1084789,-60.77478,-9.672167,-15.46836
4.933380604,2.490145,0.2416071,1.778978,0.98375,-0.2474893,0.1123059,-60.77478,-9.672167,-15.46836
4.943377495,2.736278,-0.1145072,2.144803,0.981872,-0.2514973,0.1032173,-60.38432,-10.43007,-15.46153
4.953374863,3.35161,-0.411269,2.75451,0.9764214,-0.2467807,0.09939698,-60.38432,-10.43007,-15.46153
4.963371277,3.843876,-1.064145,2.937423,0.9808073,-0.2466327,0.1060894,-60.38432,-10.43007,-15.46153
4.973368168,4.213075,-1.242202,3.181306,0.98021,-0.2408351,0.103696,-60.38432,-10.43007,-15.46153
4.983365536,4.151542,-1.242202,3.364218,0.9858916,-0.2319583,0.1055981,-60.38432,-10.43007,-15.46153
4.993361473,3.782343,-1.420259,3.608101,0.9805514,-0.2330445,0.1046506,-60.7728,-9.675981,-15.91987
5.003358841,2.920877,-1.538964,3.730042,0.9849176,-0.2319732,0.1060784,-60.7728,-9.675981,-15.91987
5.013355255,2.305545,-1.242202,4.034896,0.9858477,-0.2294768,0.1113405,-60.7728,-9.675981,-15.91987
5.023352146,1.690213,-1.420259,4.217809,0.9809489,-0.228129,0.109913,-60.7728,-9.675981,-15.91987
5.03334856,1.136414,-1.538964,4.217809,0.9848634,-0.2290411,0.1079921,-60.7728,-9.675981,-15.91987
5.043345451,0.8902807,-1.598316,4.461692,0.9828897,-0.2275564,0.1151738,-60.03486,-9.282917,-15.07783
5.053342342,0.5826145,-1.657669,4.522663,0.9833014,-0.2237353,0.1070363,-60.03486,-9.282917,-15.07783
5.063339233,0.4595481,-1.598316,4.33975,0.9843606,-0.2280002,0.116607,-60.03486,-9.282917,-15.07783
5.073335648,0.7672142,-1.657669,4.33975,0.9858217,-0.2279757,0.1161259,-60.03486,-9.282917,-15.07783
5.083332539,0.8287475,-1.657669,4.217809,0.9852894,-0.2255433,0.117562,-60.03486,-9.282917,-15.07783
5.093328953,1.07488,-1.776374,4.034896,0.9842869,-0.224136,0.1142133,-60.7728,-9.675981,-15.91987
5.103326321,1.197947,-1.776374,3.912955,0.9891217,-0.2220879,0.1151615,-60.7728,-9.675981,-15.91987
5.113323212,0.9518139,-1.776374,3.48616,0.9920365,-0.2215049,0.1194634,-60.7728,-9.675981,-15.91987
5.123319626,0.8287475,-1.360907,3.364218,0.987654,-0.2215433,0.1247354,-60.7728,-9.675981,-15.91987
5.133316517,0.6441478,-1.479612,2.998394,0.9876056,-0.2192023,0.1151634,-60.7728,-9.675981,-15.91987
5.143312931,0.2134152,-1.242202,2.69354,0.9880595,-0.2171486,0.1261693,-61.15291,-9.668442,-14.69714
5.153310299,-0.03271778,-1.123497,2.327715,0.9865429,-0.2142805,0.1242569,-61.15291,-9.668442,-14.69714
5.16330719,-0.5249836,-1.064145,1.96189,0.9910455,-0.2205088,0.1242507,-61.15291,-9.668442,-14.69714
5.173303604,-0.5249836,-1.004793,1.352183,0.9905582,-0.2205228,0.123773,-61.15291,-9.668442,-14.69714
5.183300495,-0.2788507,-0.886088,0.9253877,0.9876368,-0.220541,0.1280852,-61.15291,-9.668442,-14.69714
5.193296909,-0.03271778,-0.5893261,0.3766508,0.9891801,-0.2248884,0.1276051,-60.79875,-8.591224,-15.08711
5.203294277,0.4595481,-0.411269,-0.1111153,0.9900721,-0.2205017,0.1271238,-60.79875,-8.591224,-15.08711
5.213291168,0.9518139,-0.3519166,-0.4159691,0.99056,-0.2204657,0.1299944,-60.79875,-8.591224,-15.08711
5.223287582,1.07488,-0.2332119,-0.9037352,0.9871981,-0.2228917,0.1376581,-60.79875,-8.591224,-15.08711
5.233284473,0.8902807,-0.05515479,-1.330531,0.9852198,-0.2215519,0.1290469,-60.79875,-8.591224,-15.08711
5.243280888,0.6441478,0.3009594,-1.818297,0.9779517,-0.2235778,0.1357601,-60.79875,-8.591224,-15.08711
5.253278256,-0.03271778,0.5383689,-2.306063,0.981802,-0.2210984,0.1328813,-60.79875,-8.591224,-15.08711
5.26327467,-0.03271778,0.9538354,-2.91577,0.9858273,-0.2278001,0.1352689,-60.79875,-8.591224,-15.08711
5.273271561,0.09034869,1.30995,-3.098683,0.9849176,-0.2312021,0.1371857,-60.79875,-8.591224,-15.08711
5.283267975,0.02881546,1.606712,-3.586449,0.9893376,-0.2330717,0.1357427,-60.79875,-8.591224,-15.08711
5.293264866,0.3980148,1.903473,-3.769361,0.9889775,-0.239904,0.1333522,-61.16496,-8.914813,-15.5397
5.303262234,0.4595481,1.903473,-3.769361,0.992857,-0.2388291,0.1362166,-61.16496,-8.914813,-15.5397
5.313258648,0.5826145,2.200235,-3.403537,0.9893551,-0.2340652,0.1333501,-61.16496,-8.914813,-15.5397
5.323255539,0.09034869,2.496997,-3.464507,0.9883989,-0.2350647,0.1323948,-61.16496,-8.914813,-15.5397
5.333251953,-0.2788507,2.675054,-3.281595,0.9762657,-0.2377693,0.1285881,-61.16496,-8.914813,-15.5397
5.343248844,-0.5249836,2.496997,-2.91577,0.9762842,-0.238732,0.1295454,-60.39387,-10.04644,-15.07655
5.353246212,-1.017249,2.734407,-2.671887,0.9752539,-0.2358806,0.1247607,-60.39387,-10.04644,-15.07655
5.363242626,-0.9557163,2.615702,-2.671887,0.9748819,-0.2423148,0.1127986,-60.39387,-10.04644,-15.07655
5.373239517,-0.8326498,2.31894,-2.488975,0.9778428,-0.2441431,0.1190154,-60.39387,-10.04644,-15.07655
5.383235931,-0.2788507,2.378292,-2.671887,0.9784014,-0.2480678,0.1137511,-60.39387,-10.04644,-15.07655
5.393233299,0.705681,2.140883,-3.037712,0.9793929,-0.2490508,0.1103996,-60.76861,-10.04925,-15.07933
5.403229714,1.44408,2.081531,-3.220624,0.9814252,-0.2533271,0.1166187,-60.76861,-10.04925,-15.07933
5.413226605,1.690213,1.725416,-3.586449,0.9818955,-0.2523021,0.1214034,-60.76861,-10.04925,-15.07933
5.423223019,1.751746,1.725416,-3.342566,0.9803239,-0.2465281,0.1185331,-60.76861,-10.04925,-15.07933
5.43321991,1.505613,1.547359,-3.281595,0.9812793,-0.2455549,0.1166169,-60.76861,-10.04925,-15.07933
5.443217278,1.07488,1.606712,-2.8548,0.9822993,-0.2479557,0.1175729,-61.15739,-9.294624,-15.47317
5.453213692,0.5826145,1.488007,-2.367033,0.9798348,-0.2465992,0.111834,-61.15739,-9.294624,-15.47317
5.463210583,0.2134152,1.606712,-1.452472,0.9783482,-0.245105,0.1190148,-61.15739,-9.294624,-15.47317
5.473206997,-0.1557842,1.428654,-0.7208229,0.9809311,-0.2527851,0.123798,-61.15739,-9.294624,-15.47317
5.483203888,-0.094251,1.30995,-0.2330568,0.9832746,-0.2479057,0.1209212,-60.78434,-9.288543,-15.08339
5.493201256,-0.1557842,1.250597,0.5595631,0.9846711,-0.2445073,0.1175679,-60.78434,-9.288543,-15.08339
5.50319767,-0.2788507,0.9538354,0.9253877,0.9822724,-0.2464853,0.1190083,-60.78434,-9.288543,-15.08339
5.513194561,-0.4634504,1.013188,1.291212,0.9782113,-0.2378186,0.1190132,-60.78434,-9.288543,-15.08339
5.523190975,-0.4634504,0.5977212,1.657037,0.9772831,-0.2402534,0.1204511,-60.78434,-9.288543,-15.08339
5.533187866,-0.4019172,0.5383689,1.413154,0.9783397,-0.2446017,0.120929,-60.39387,-10.04644,-15.07655
5.543185234,-0.2173175,0.4196641,1.657037,0.9744433,-0.2446611,0.1228501,-60.39387,-10.04644,-15.07655
5.553181648,0.02881546,0.4196641,1.474125,0.972927,-0.2417842,0.1218949,-60.39387,-10.04644,-15.07655
5.563178063,0.09034869,0.3009594,1.474125,0.9688931,-0.2345791,0.1214215,-60.39387,-10.04644,-15.07655
5.573174954,0.3980148,0.3009594,1.291212,0.9728544,-0.2378849,0.1233297,-60.39387,-10.04644,-15.07655
5.583172321,0.3980148,0.3009594,1.1083,0.9742871,-0.2364382,0.1190196,-60.39976,-9.669899,-15.53008
5.593168736,0.3980148,0.4196641,1.352183,0.9726813,-0.2286466,0.1242848,-60.39976,-9.669899,-15.53008
5.603165627,-0.2173175,0.06354995,1.230241,0.9726987,-0.2296445,0.1214136,-60.39976,-9.669899,-15.53008
5.613162041,-0.2173175,0.1822547,1.352183,0.9731512,-0.2276348,0.1276338,-60.39976,-9.669899,-15.53008
5.623158932,-0.1557842,0.2416071,1.169271,0.9723153,-0.2348966,0.1324228,-60.39976,-9.669899,-15.53008
5.6331563,-0.03271778,0.004197581,1.230241,0.9742068,-0.2320093,0.1252401,-60.40762,-9.289544,-15.53211
5.643152714,0.09034869,-0.2332119,1.169271,0.9776898,-0.2358193,0.1261922,-60.40762,-9.289544,-15.53211
5.653149605,0.4595481,-0.1145072,0.9863584,0.9757777,-0.2378052,0.1257175,-60.40762,-9.289544,-15.53211
5.663146019,0.8287475,-0.2332119,0.6815046,0.9838759,-0.2279352,0.1247437,-60.40762,-9.289544,-15.53211
5.673143387,0.8902807,-0.1738595,0.4376215,0.9859163,-0.2327279,0.1276128,-60.40762,-9.289544,-15.53211
5.683140278,0.8902807,-0.05515479,0.07179698,0.98044,-0.2265058,0.1290565,-60.7745,-9.672712,-15.53287
5.693136692,0.705681,-0.1738595,-0.05014454,0.9854847,-0.2356302,0.1300072,-60.7745,-9.672712,-15.53287
5.703133583,0.8287475,0.06354995,-0.1720861,0.9829495,-0.230313,0.1324031,-60.7745,-9.672712,-15.53287
5.713129997,0.9518139,-0.1738595,-0.1720861,0.982913,-0.2283699,0.1324027,-60.7745,-9.672712,-15.53287
5.723127365,0.9518139,-0.05515479,-0.1720861,0.9834265,-0.2298483,0.1290521,-60.7745,-9.672712,-15.53287
5.733123779,0.7672142,-0.1145072,-0.05014454,0.9810548,-0.2332968,0.1290572,-60.78236,-9.292356,-15.53489
5.74312067,0.8902807,-0.1145072,0.01082622,0.9820661,-0.235203,0.1309702,-60.78236,-9.292356,-15.53489
5.753117084,0.705681,0.004197581,0.07179698,0.9849533,-0.2331671,0.1347932,-60.78236,-9.292356,-15.53489
5.763113975,0.705681,0.1229023,0.1937385,0.9766372,-0.2313526,0.1386359,-60.78236,-9.292356,-15.53489
5.773111343,0.4595481,0.3009594,0.07179698,0.9790616,-0.2308801,0.1319315,-60.78236,-9.292356,-15.53489
5.783107758,0.3980148,0.4790165,-0.1720861,0.9806139,-0.2357177,0.1309728,-60.40004,-9.669354,-15.46558
5.793104649,0.4595481,0.5383689,-0.3549984,0.9805127,-0.2304006,0.1281002,-60.40004,-9.669354,-15.46558
5.803101063,0.6441478,0.5383689,-0.5379106,0.9839424,-0.2312521,0.1338373,-60.40004,-9.669354,-15.46558
5.813098431,0.8902807,0.716426,-0.5379106,0.9859002,-0.2316906,0.1347912,-60.40004,-9.669354,-15.46558
5.823095322,1.07488,0.5977212,-0.3549984,0.9820656,-0.2352206,0.1290559,-60.40004,-9.669354,-15.46558
5.833091736,1.197947,0.5383689,-0.2940276,0.9791972,-0.238206,0.1276259,-60.79022,-8.912001,-15.53692
5.843088627,1.136414,0.4196641,-0.2330568,0.9854676,-0.2346236,0.1338356,-60.79022,-8.912001,-15.53692
5.853085041,1.25948,0.5383689,0.01082622,0.9821391,-0.2390891,0.130971,-60.79022,-8.912001,-15.53692
5.863082409,1.07488,0.5977212,0.07179698,0.9824989,-0.2322657,0.1324044,-60.79022,-8.912001,-15.53692
5.8730793,1.136414,0.5383689,0.1937385,0.9776977,-0.2363445,0.1218851,-60.79022,-8.912001,-15.53692
5.883075714,1.07488,0.5977212,0.01082622,0.9821278,-0.2386692,0.1237923,-60.40593,-9.292812,-15.91911
5.893072128,1.07488,0.5383689,0.31568,0.9834985,-0.2337651,0.125703,-60.40593,-9.292812,-15.91911
5.903069496,0.8287475,0.716426,0.31568,0.9805121,-0.2304182,0.1261859,-60.40593,-9.292812,-15.91911
5.913066387,0.8287475,0.5383689,0.5595631,0.9800252,-0.2304234,0.1266653,-60.40593,-9.292812,-15.91911
5.923062801,0.705681,0.5977212,0.6205339,0.977176,-0.2343497,0.1285856,-60.40593,-9.292812,-15.91911
5.933059692,0.5210813,0.2416071,0.6815046,0.9752741,-0.2367907,0.131461,-60.03119,-9.29,-15.91633
5.943056107,0.705681,0.4790165,0.9253877,0.9777615,-0.2397449,0.1218859,-60.03119,-9.29,-15.91633
5.953053474,0.8287475,0.3603118,0.9253877,0.9835612,-0.2372006,0.1218751,-60.03119,-9.29,-15.91633
5.963050365,0.8902807,0.4196641,0.8644169,0.9816504,-0.239147,0.1257076,-60.03119,-9.29,-15.91633
5.97304678,1.136414,0.3603118,0.9253877,0.9771565,-0.2334177,0.1242782,-60.03119,-9.29,-15.91633
5.983043671,1.197947,0.4790165,1.047329,0.9810458,-0.2328066,0.1295356,-60.78236,-9.292356,-15.53489
5.993041039,0.9518139,0.4790165,1.047329,0.9795659,-0.2318771,0.1281022,-60.78236,-9.292356,-15.53489
6.003037453,0.5210813,0.8351307,0.9253877,0.981579,-0.2352126,0.130971,-60.78236,-9.292356,-15.53489
6.013034344,0.3364816,0.5383689,0.9863584,0.9756607,-0.231442,0.1309804,-60.78236,-9.292356,-15.53489
6.023030758,-0.03271778,0.5977212,0.9863584,0.9785565,-0.2299095,0.1328892,-60.78236,-9.292356,-15.53489
6.033027649,-0.03271778,0.3009594,0.9253877,0.9751464,-0.22999,0.1314595,-60.78236,-9.292356,-15.53489
6.04302454,0.2134152,0.5383689,0.8644169,0.9751438,-0.230069,0.1228451,-60.78236,-9.292356,-15.53489
6.053021431,0.2749484,0.3603118,0.9253877,0.9795824,-0.2329013,0.1223595,-60.78236,-9.292356,-15.53489
6.063017845,0.705681,0.5977212,0.7424754,0.9776621,-0.2343708,0.1252347,-60.78236,-9.292356,-15.53489
6.073014736,0.8902807,0.3603118,0.6815046,0.9756492,-0.2310309,0.1228445,-61.15121,-9.671711,-15.08414
6.083012104,1.013347,0.4196641,0.6815046,0.9790412,-0.2299745,0.1247526,-61.15121,-9.671711,-15.08414
6.093008518,0.8287475,0.5383689,0.3766508,0.9790164,-0.2284381,0.1333666,-61.15121,-9.671711,-15.08414
6.103005409,0.6441478,0.4790165,0.1937385,0.9829189,-0.2289567,0.1213956,-61.15121,-9.671711,-15.08414
6.113001823,0.4595481,0.5977212,0.2547093,0.9766259,-0.2309326,0.1314571,-61.15121,-9.671711,-15.08414
6.122999191,0.2749484,0.4196641,0.31568,0.9771029,-0.230468,0.1281061,-61.14924,-9.675525,-15.53565
6.132996082,0.1518819,0.3603118,0.3766508,0.97768,-0.2353555,0.1237992,-61.14924,-9.675525,-15.53565
6.142992497,0.2134152,0.4790165,0.6205339,0.9776363,-0.2328652,0.1304987,-61.14924,-9.675525,-15.53565
6.152989388,0.3980148,0.5383689,0.3766508,0.9757866,-0.2382998,0.1247604,-61.14924,-9.675525,-15.53565
6.162985802,0.5826145,0.5977212,0.2547093,0.9767615,-0.2382586,0.1271516,-61.14924,-9.675525,-15.53565
6.17298317,0.5210813,0.5977212,0.4376215,0.9762476,-0.2367934,0.1290664,-60.40593,-9.292812,-15.91911
6.182980061,0.2134152,0.5977212,0.1327677,0.9796107,-0.2343279,0.1257099,-60.40593,-9.292812,-15.91911
6.192976475,0.2134152,0.8351307,0.07179698,0.9791879,-0.2377247,0.1271472,-60.40593,-9.292812,-15.91911
6.202972889,-0.03271778,0.716426,0.1327677,0.9835622,-0.2371698,0.1252252,-60.40593,-9.292812,-15.91911
6.212970257,-0.2173175,0.6570736,0.01082622,0.977744,-0.2387514,0.1242786,-60.40593,-9.292812,-15.91911
6.222967148,-0.094251,0.6570736,0.2547093,0.9801601,-0.2377713,0.1199669,-60.78236,-9.292356,-15.53489
6.232963562,-0.3403839,0.5383689,0.4376215,0.9820654,-0.2352249,0.1285773,-60.78236,-9.292356,-15.53489
6.242960453,-0.2173175,0.2416071,0.6205339,0.9733519,-0.2383215,0.1276361,-60.78236,-9.292356,-15.53489
6.252957821,-0.5865169,0.06354995,0.7424754,0.9723582,-0.2374088,0.1233305,-60.78236,-9.292356,-15.53489
6.262954235,-0.7095833,0.004197581,0.7424754,0.9645357,-0.2361494,0.118558,-60.78236,-9.292356,-15.53489
6.272951126,-0.7095833,-0.1738595,0.6205339,0.9689649,-0.2385003,0.1175937,-60.78236,-9.292356,-15.53489
6.28294754,-0.2173175,-0.2925643,0.3766508,0.9714286,-0.2398875,0.1199827,-60.78236,-9.292356,-15.53489
6.292944431,0.09034869,-0.4706214,-0.1111153,0.974839,-0.2397982,0.1223696,-60.78236,-9.292356,-15.53489
6.302941799,0.6441478,-0.5299737,-0.5379106,0.9778525,-0.2446113,0.1209298,-60.78236,-9.292356,-15.53489
6.312938213,0.7672142,-0.6486785,-0.8427644,0.9841949,-0.2449456,0.1237903,-60.78236,-9.292356,-15.53489
6.322935104,1.136414,-0.5893261,-1.147618,0.9826987,-0.2429831,0.1290568,-60.76494,-10.05634,-15.91784
6.332931519,1.197947,-0.7673832,-1.147618,0.9841689,-0.2434444,0.1285758,-60.76494,-10.05634,-15.91784
6.342928886,1.07488,-0.7080309,-1.025677,0.9840682,-0.2381142,0.1271388,-60.76494,-10.05634,-15.91784
6.352925301,0.705681,-0.7673832,-0.8427644,0.9851069,-0.2414733,0.1295308,-60.76494,-10.05634,-15.91784
6.362922192,-0.03271778,-0.7673832,-0.3549984,0.9850983,-0.24097,0.1314449,-60.76494,-10.05634,-15.91784
6.372918606,-0.6480501,-0.886088,0.1327677,0.9836272,-0.2405351,0.1290545,-60.79022,-8.912001,-15.53692
6.382915974,-0.8326498,-0.411269,0.3766508,0.9841418,-0.2419827,0.129054,-60.79022,-8.912001,-15.53692
6.392912865,-1.201849,-0.5299737,0.5595631,0.9900236,-0.2438059,0.1295228,-60.79022,-8.912001,-15.53692
6.402909279,-1.078783,-0.4706214,0.8034461,0.9798314,-0.2459335,0.1314554,-60.79022,-8.912001,-15.53692
6.41290617,-0.7711166,-0.4706214,0.6205339,0.9792894,-0.243033,0.130977,-60.79022,-8.912001,-15.53692
6.422903538,-0.5249836,-0.7673832,0.8034461,0.9822763,-0.2463624,0.1324084,-60.78236,-9.292356,-15.53489
6.432899952,-0.2788507,-0.6486785,0.7424754,0.977375,-0.2450935,0.1223665,-60.78236,-9.292356,-15.53489
6.442896843,0.1518819,-0.6486785,0.4985923,0.9749238,-0.2440867,0.1314635,-60.78236,-9.292356,-15.53489
6.452893257,0.4595481,-0.5299737,0.4985923,0.9811562,-0.2386094,0.1324084,-60.78236,-9.292356,-15.53489
6.462890148,0.7672142,-0.6486785,0.4376215,0.9812202,-0.2420053,0.1328877,-60.78236,-9.292356,-15.53489
6.472887516,0.705681,-0.5893261,0.2547093,0.9831762,-0.2425009,0.1276201,-60.03288,-9.286732,-15.52933
6.48288393,0.7672142,-0.5299737,0.1327677,0.9846101,-0.2410148,0.1276172,-60.03288,-9.286732,-15.52933
6.492880821,0.6441478,-0.2925643,0.07179698,0.9806694,-0.2386059,0.1338449,-60.03288,-9.286732,-15.52933
6.502877236,0.3364816,-0.1145072,-0.1720861,0.9815515,-0.2337597,0.1304921,-60.03288,-9.286732,-15.52933
6.512874603,0.02881546,-0.1145072,-0.1111153,0.978675,-0.2362287,0.1324121,-60.03288,-9.286732,-15.52933
6.522871018,0.02881546,-0.1145072,-0.2330568,0.9826285,-0.2390093,0.1386274,-60.7922,-8.908187,-15.08542
6.532867909,0.02881546,-0.1145072,-0.1720861,0.9825991,-0.2376134,0.131927,-60.7922,-8.908187,-15.08542
6.542864323,0.3980148,-0.05515479,-0.1720861,0.9875616,-0.242366,0.1328767,-60.7922,-8.908187,-15.08542
6.552861691,0.4595481,-0.1145072,-0.3549984,0.9850154,-0.2366245,0.1285725,-60.7922,-8.908187,-15.08542
6.562858582,0.5826145,0.004197581,-0.3549984,0.9855491,-0.239013,0.1319222,-60.7922,-8.908187,-15.08542
6.572854996,0.9518139,0.06354995,-0.3549984,0.9846212,-0.2414391,0.1343174,-60.79022,-8.912001,-15.53692
6.582851887,1.013347,0.2416071,-0.5379106,0.983097,-0.2380369,0.1376692,-60.79022,-8.912001,-15.53692
6.592849255,1.136414,0.2416071,-0.7817937,0.9875098,-0.2393593,0.1429262,-60.79022,-8.912001,-15.53692
6.602845669,1.013347,0.4196641,-1.025677,0.9807056,-0.2405577,0.1328882,-60.79022,-8.912001,-15.53692
6.61284256,0.8902807,0.5383689,-0.7817937,0.97636,-0.2425303,0.1391178,-60.79022,-8.912001,-15.53692
6.622838974,0.8902807,0.716426,-0.9037352,0.9778571,-0.2444664,0.1367228,-60.41548,-8.909188,-15.53414
6.632836342,0.9518139,0.8351307,-0.7208229,0.9807437,-0.2424525,0.138153,-60.41548,-8.909188,-15.53414
6.642832756,1.07488,0.9538354,-1.025677,0.9774155,-0.2469092,0.1362456,-60.41548,-8.909188,-15.53414
6.652829647,1.197947,1.131893,-0.9647059,0.9817706,-0.2454136,0.1309733,-60.41548,-8.909188,-15.53414
6.662826061,1.321013,1.30995,-0.6598521,0.9793643,-0.2468576,0.137678,-60.76494,-10.05634,-15.91784
6.672823429,1.44408,1.369302,-0.5379106,0.9876361,-0.2462038,0.1381419,-60.76494,-10.05634,-15.91784
6.68282032,1.44408,1.428654,-0.5379106,0.9831958,-0.2434285,0.132406,-60.76494,-10.05634,-15.91784
6.692816734,1.136414,1.725416,-0.3549984,0.9836557,-0.2419572,0.1328834,-60.76494,-10.05634,-15.91784
6.702813625,0.8902807,1.725416,-0.2940276,0.9783792,-0.2464481,0.1314581,-60.76494,-10.05634,-15.91784
6.712810993,0.5826145,1.725416,-0.1720861,0.9798598,-0.24736,0.1348058,-60.78067,-9.295625,-15.92189
6.722807407,0.3980148,1.903473,-0.2330568,0.9768903,-0.2450285,0.1305032,-60.78067,-9.295625,-15.92189
6.732804298,0.705681,2.140883,-0.1111153,0.9803094,-0.2454381,0.1314545,-60.78067,-9.295625,-15.92189
6.742800713,0.9518139,1.903473,-0.05014454,0.9803265,-0.2464447,0.1276261,-60.78067,-9.295625,-15.92189
6.75279808,1.197947,2.081531,-0.1720861,0.9739864,-0.2460402,0.1324228,-60.78067,-9.295625,-15.92189
6.762794971,1.505613,2.081531,-0.1720861,0.9759146,-0.2450916,0.1257191,-60.41548,-8.909188,-15.53414
6.772791386,1.505613,2.022178,0.01082622,0.976844,-0.2426216,0.1281097,-60.41548,-8.909188,-15.53414
6.782788277,1.567146,1.844121,-0.05014454,0.9830932,-0.2381554,0.1247477,-60.41548,-8.909188,-15.53414
6.792785168,1.382547,1.784769,-0.1720861,0.9792154,-0.2391776,0.1276262,-60.41548,-8.909188,-15.53414
6.802782059,1.013347,1.606712,-0.2940276,0.9811546,-0.2386577,0.1271441,-60.41548,-8.909188,-15.53414
6.812778473,0.7672142,1.488007,-0.1111153,0.978223,-0.2382253,0.1276276,-60.77898,-9.298894,-16.3089
6.822775364,0.7672142,1.369302,-0.1720861,0.9836249,-0.2406053,0.1213973,-60.77898,-9.298894,-16.3089
6.832771778,0.8902807,1.30995,-0.1720861,0.9802238,-0.241176,0.1194891,-60.77898,-9.298894,-16.3089
6.842769146,1.07488,1.30995,-0.05014454,0.9850981,-0.2409788,0.1304878,-60.77898,-9.298894,-16.3089
6.852766037,1.25948,1.250597,-0.1111153,0.9816794,-0.2405516,0.1314508,-60.77898,-9.298894,-16.3089
6.862762451,1.505613,1.191245,0.1937385,0.9806501,-0.2376695,0.1300161,-60.42034,-8.595493,-15.92283
6.872759342,1.44408,1.369302,0.1937385,0.9782432,-0.2391354,0.1343279,-60.42034,-8.595493,-15.92283
6.88275671,1.382547,1.250597,0.1327677,0.9776556,-0.2338016,0.1343275,-60.42034,-8.595493,-15.92283
6.892753124,1.382547,1.07254,0.1937385,0.9713414,-0.2349027,0.1338602,-60.42034,-8.595493,-15.92283
6.902750015,1.07488,1.131893,0.31568,0.9767342,-0.2368013,0.1271513,-60.42034,-8.595493,-15.92283
6.912747383,0.9518139,0.8944831,0.2547093,0.971809,-0.233961,0.129552,-61.16327,-8.918082,-15.9267
6.922743797,0.7672142,1.013188,0.31568,0.9747407,-0.234389,0.129547,-61.16327,-8.918082,-15.9267
6.932740688,0.9518139,0.8944831,0.2547093,0.9728199,-0.2358804,0.1300293,-61.16327,-8.918082,-15.9267
6.942737102,0.9518139,1.131893,0.07179698,0.9753184,-0.239259,0.1271544,-61.16327,-8.918082,-15.9267
6.95273447,1.382547,0.8944831,-0.05014454,0.9762759,-0.2382199,0.1324168,-61.16327,-8.918082,-15.9267
6.962730885,1.567146,1.07254,-0.1720861,0.9767276,-0.2362365,0.1357655,-60.39806,-9.673168,-15.91709
6.972727776,1.751746,0.8944831,-0.2940276,0.9723875,-0.2388046,0.1300308,-60.39806,-9.673168,-15.91709
6.98272419,1.813279,0.7757784,-0.3549984,0.9787383,-0.2396466,0.1304986,-60.39806,-9.673168,-15.91709
6.992721081,1.813279,0.8351307,-0.4769399,0.9781603,-0.2347899,0.1314555,-60.39806,-9.673168,-15.91709
7.002718449,1.690213,0.6570736,-0.2940276,0.9797313,-0.2405813,0.1324113,-60.39806,-9.673168,-15.91709
7.012714863,1.382547,0.716426,-0.1111153,0.9797223,-0.2400912,0.1328898,-61.15541,-9.298437,-15.92467
7.022711754,1.44408,0.716426,-0.1111153,0.9787491,-0.2400797,0.1362416,-61.15541,-9.298437,-15.92467
7.032709122,1.25948,0.5383689,0.01082622,0.981166,-0.2390732,0.1348014,-61.15541,-9.298437,-15.92467
7.042705536,1.321013,0.3603118,0.07179698,0.9782627,-0.2400674,0.1386353,-61.15541,-9.298437,-15.92467
7.052702427,1.197947,0.6570736,0.07179698,0.9748424,-0.2396929,0.1338554,-61.15541,-9.298437,-15.92467
7.062698841,1.25948,0.5383689,-0.05014454,0.9759467,-0.2463997,0.141991,-60.39806,-9.673168,-15.91709
7.072696209,1.25948,0.716426,-0.2940276,0.9743453,-0.2392431,0.1309847,-60.39806,-9.673168,-15.91709
7.082692623,1.44408,0.8351307,-0.1720861,0.974889,-0.242091,0.1372059,-60.39806,-9.673168,-15.91709
7.092689514,1.690213,0.716426,-0.1720861,0.9733279,-0.2367589,0.1391216,-60.39806,-9.673168,-15.91709
7.102685928,1.567146,0.8351307,-0.05014454,0.9787667,-0.2410688,0.1343275,-60.39806,-9.673168,-15.91709
7.112683296,1.505613,0.716426,0.2547093,0.9778379,-0.2435256,0.1333726,-60.39189,-10.05025,-15.52806
7.122680187,1.751746,0.6570736,0.3766508,0.978299,-0.2420192,0.1376786,-60.39189,-10.05025,-15.52806
7.132676601,1.690213,0.7757784,0.7424754,0.9767737,-0.2386477,0.1376804,-60.39189,-10.05025,-15.52806
7.142673492,1.505613,0.6570736,0.9253877,0.9763229,-0.2406048,0.1372031,-60.39189,-10.05025,-15.52806
7.15267086,1.382547,0.5977212,1.169271,0.975229,-0.2343443,0.1333748,-60.39189,-10.05025,-15.52806
7.162667275,1.197947,0.6570736,0.9863584,0.9718475,-0.2358426,0.1362525,-60.78067,-9.295625,-15.92189
7.172664166,1.136414,0.7757784,0.9863584,0.9757059,-0.233884,0.1295452,-60.78067,-9.295625,-15.92189
7.18266058,0.8902807,0.716426,0.6815046,0.9679779,-0.2373813,0.1357811,-60.78067,-9.295625,-15.92189
7.192657948,0.8287475,0.6570736,0.4376215,0.9766988,-0.2348231,0.1309794,-60.78067,-9.295625,-15.92189
7.202654839,0.9518139,0.5383689,0.07179698,0.9783431,-0.2444919,0.1328934,-60.78067,-9.295625,-15.92189
7.212651253,1.628679,0.716426,-0.1111153,0.9807509,-0.2429997,0.1314531,-60.78067,-9.295625,-15.92189
7.222648144,1.874812,0.5383689,-0.2330568,0.9851097,-0.2413855,0.1391023,-60.78067,-9.295625,-15.92189
7.232645035,1.628679,0.8351307,-0.2330568,0.9850926,-0.2403789,0.1429306,-60.78067,-9.295625,-15.92189
7.242641926,1.44408,0.7757784,-0.05014454,0.9855339,-0.2379449,0.1424507,-60.78067,-9.295625,-15.92189
7.25263834,0.8902807,0.7757784,0.3766508,0.9864987,-0.2374487,0.1414917,-60.39976,-9.669899,-15.53008
7.262635231,0.4595481,0.8944831,0.7424754,0.9811678,-0.2390162,0.1410228,-60.39976,-9.669899,-15.53008
7.272632599,-0.1557842,0.7757784,1.291212,0.9796881,-0.2380779,0.1405466,-60.39976,-9.669899,-15.53008
7.282629013,-0.094251,1.013188,1.535095,0.9762954,-0.2391519,0.1367242,-60.39976,-9.669899,-15.53008
7.292625904,-0.4634504,1.013188,1.657037,0.9758652,-0.2420103,0.1439043,-60.39976,-9.669899,-15.53008
7.302622318,-0.4634504,1.131893,1.596066,0.9772435,-0.2376359,0.1410293,-60.77111,-9.67925,-16.30687
7.312619686,-0.2173175,1.191245,1.657037,0.9723627,-0.2372683,0.1386448,-60.77111,-9.67925,-16.30687
7.322616577,-0.03271778,1.250597,1.230241,0.9709391,-0.2392007,0.142955,-60.77111,-9.67925,-16.30687
7.332612991,0.02881546,1.250597,1.291212,0.9718476,-0.2358382,0.1367311,-60.77111,-9.67925,-16.30687
7.342609882,0.1518819,1.013188,0.7424754,0.9694307,-0.2368447,0.1381713,-60.77111,-9.67925,-16.30687
7.35260725,0.2749484,1.07254,0.6815046,0.9753299,-0.2396701,0.1352903,-60.03119,-9.29,-15.91633
7.362603664,0.2749484,1.07254,0.6205339,0.9722981,-0.2338899,0.1362512,-60.03119,-9.29,-15.91633
7.372600079,0.3364816,0.8351307,0.5595631,0.9757726,-0.2371965,0.1391174,-60.03119,-9.29,-15.91633
7.382597447,0.2134152,0.716426,0.4985923,0.9748597,-0.2406951,0.1305056,-60.03119,-9.29,-15.91633
7.392594338,0.3364816,0.5977212,0.4376215,0.9743457,-0.2392299,0.1324204,-60.03119,-9.29,-15.91633
7.402590752,0.2749484,0.716426,0.4985923,0.9757707,-0.2372536,0.132896,-60.77898,-9.298894,-16.3089
7.412587643,-0.1557842,0.3603118,0.6205339,0.973879,-0.2401452,0.1396001,-60.77898,-9.298894,-16.3089
7.422585011,0.02881546,0.2416071,0.3766508,0.9729126,-0.2406897,0.1352947,-60.77898,-9.298894,-16.3089
7.432581425,0.02881546,0.4196641,0.2547093,0.976157,-0.2319138,0.1314582,-60.77898,-9.298894,-16.3089
7.442578316,-0.094251,0.4196641,0.2547093,0.975229,-0.2343443,0.1333748,-60.77898,-9.298894,-16.3089
7.45257473,-0.2788507,0.2416071,0.01082622,0.9748633,-0.240581,0.1429485,-60.41379,-8.912457,-15.92114
7.462572098,-0.094251,0.2416071,0.07179698,0.9797325,-0.2405462,0.13624,-60.41379,-8.912457,-15.92114
7.472568989,-0.094251,0.004197581,0.01082622,0.9758351,-0.2406364,0.1348111,-60.41379,-8.912457,-15.92114
7.482565403,-0.1557842,-0.1145072,-0.05014454,0.9748412,-0.239728,0.1300268,-60.41379,-8.912457,-15.92114
7.492562294,-0.2173175,-0.2332119,-0.05014454,0.9738314,-0.2377779,0.1328995,-60.41379,-8.912457,-15.92114
7.502559185,-0.094251,-0.2332119,0.1327677,0.9791009,-0.2327354,0.1415034,-60.78514,-8.921807,-16.69793
7.512556076,-0.4634504,-0.5299737,0.1327677,0.9742749,-0.235278,0.1395982,-60.78514,-8.921807,-16.69793
7.52255249,-0.7711166,-0.4706214,0.1937385,0.9752668,-0.2362478,0.1376824,-60.78514,-8.921807,-16.69793
7.532549858,-0.9557163,-0.5893261,0.1327677,0.9767479,-0.2371422,0.1429444,-60.78514,-8.921807,-16.69793
7.542546749,-0.894183,-0.5893261,-0.1111153,0.9732985,-0.2353631,0.1324212,-60.78514,-8.921807,-16.69793
7.552543163,-0.7095833,-0.5893261,0.01082622,0.9747984,-0.2372114,0.1395977,-60.40593,-9.292812,-15.91911
7.562540054,-0.7711166,-0.5299737,-0.2940276,0.9704977,-0.2416348,0.143435,-60.40593,-9.292812,-15.91911
7.572537422,-0.4019172,-0.5893261,-0.2330568,0.9772791,-0.2396096,0.1376797,-60.40593,-9.292812,-15.91911
7.582533837,-0.5865169,-0.411269,-0.1720861,0.974864,-0.2405591,0.1453414,-60.40593,-9.292812,-15.91911
7.592530728,-0.5865169,-0.2332119,-0.6598521,0.9738725,-0.2395761,0.1486929,-60.40593,-9.292812,-15.91911
7.602527142,-0.6480501,-0.3519166,-0.8427644,0.9797721,-0.2423927,0.146769,-60.40424,-9.296082,-16.30611
7.61252451,-0.7095833,-0.1145072,-0.7208229,0.9768961,-0.2448441,0.1506033,-60.40424,-9.296082,-16.30611
7.6225214,-0.7095833,-0.05515479,-0.8427644,0.9763982,-0.2444207,0.1448611,-60.40424,-9.296082,-16.30611
7.632517815,-0.5865169,0.004197581,-0.9037352,0.9739718,-0.2449545,0.1448655,-60.40424,-9.296082,-16.30611
7.642514706,-0.4634504,0.2416071,-0.8427644,0.9725119,-0.2449395,0.1496538,-60.40424,-9.296082,-16.30611
7.652511597,-0.5865169,0.2416071,-0.5379106,0.9769511,-0.2477499,0.1515611,-60.77898,-9.298894,-16.3089
7.662508488,-0.7095833,0.3603118,-0.4769399,0.9783475,-0.2443559,0.1477292,-60.77898,-9.298894,-16.3089
7.672504902,-0.9557163,0.3603118,-0.3549984,0.9759195,-0.244938,0.1424692,-60.77898,-9.298894,-16.3089
7.68250227,-0.9557163,0.3603118,-0.1720861,0.9784302,-0.2487101,0.1496445,-60.77898,-9.298894,-16.3089
7.692499161,-1.017249,0.4790165,-0.05014454,0.9745396,-0.2493607,0.1400799,-60.77898,-9.298894,-16.3089
7.702495575,-1.140316,0.4790165,0.1937385,0.9750004,-0.2478587,0.1439073,-61.15372,-9.301706,-16.31168
7.712492466,-0.9557163,0.3603118,0.07179698,0.9739624,-0.2444776,0.1439082,-61.15372,-9.301706,-16.31168
7.722489834,-1.078783,0.3603118,0.1327677,0.9716368,-0.2503417,0.1453495,-61.15372,-9.301706,-16.31168
7.732486248,-1.017249,0.5977212,0.01082622,0.9739869,-0.2460226,0.1343371,-61.15372,-9.301706,-16.31168
7.742483139,-0.6480501,0.5977212,0.1937385,0.9726013,-0.2498542,0.1434334,-61.15372,-9.301706,-16.31168
7.752479553,-0.5865169,0.3603118,0.2547093,0.9764615,-0.2478386,0.1429476,-60.40593,-9.292812,-15.91911
7.762476921,-0.6480501,0.4790165,0.2547093,0.9779419,-0.2487549,0.1458167,-60.40593,-9.292812,-15.91911
7.772473812,-0.6480501,0.4196641,0.1937385,0.9779044,-0.2468426,0.1424663,-60.40593,-9.292812,-15.91911
7.782470226,-0.9557163,0.4196641,0.3766508,0.9759209,-0.2448941,0.147255,-60.40593,-9.292812,-15.91911
7.792467594,-0.9557163,0.4790165,0.3766508,0.9701,-0.2465591,0.1372154,-60.40593,-9.292812,-15.91911
7.802464008,-1.140316,0.3009594,0.4376215,0.9696782,-0.2499251,0.1420028,-60.40424,-9.296082,-16.30611
7.812460899,-1.324916,0.4790165,0.3766508,0.9686493,-0.2470254,0.1424824,-60.40424,-9.296082,-16.30611
7.822457313,-1.140316,0.1229023,0.4985923,0.9696601,-0.2489492,0.1424812,-60.40424,-9.296082,-16.30611
7.832454681,-0.8326498,0.1229023,0.6205339,0.9725193,-0.245478,0.143911,-60.40424,-9.296082,-16.30611
7.842451572,-0.7711166,0.06354995,0.5595631,0.9715898,-0.2479524,0.1410418,-60.79508,-8.598307,-15.92561
7.852447987,-0.5865169,0.2416071,0.4985923,0.9726556,-0.2527819,0.1419984,-60.79508,-8.598307,-15.92561
7.862444878,-0.5865169,0.06354995,0.4376215,0.9705971,-0.2470089,0.1400862,-60.79508,-8.598307,-15.92561
7.872442245,-0.894183,0.4196641,0.4376215,0.9784362,-0.2492924,0.1391159,-60.79508,-8.598307,-15.92561
7.88243866,-0.7711166,-0.05515479,0.31568,0.9763955,-0.2445041,0.1357682,-60.79508,-8.598307,-15.92561
7.892435551,-0.7095833,0.1229023,0.31568,0.9793739,-0.2473302,0.1391138,-60.77898,-9.298894,-16.3089
7.902432442,-0.894183,-0.05515479,0.6205339,0.9804488,-0.2526455,0.1400704,-60.77898,-9.298894,-16.3089
7.912429333,-0.9557163,-0.1145072,0.4985923,0.9779487,-0.2493152,0.1376811,-60.77898,-9.298894,-16.3089
7.922425747,-0.7711166,-0.411269,0.8034461,0.9789591,-0.2512478,0.1367227,-60.77898,-9.298894,-16.3089
7.932422638,-0.7711166,-0.4706214,0.9863584,0.9764434,-0.2468626,0.143426,-60.77898,-9.298894,-16.3089
7.942420006,-0.7711166,-0.5299737,1.047329,0.9716079,-0.2489327,0.1400849,-60.77728,-9.302163,-16.6959
7.95241642,-0.8326498,-0.5299737,0.9863584,0.9735933,-0.2508197,0.1419962,-60.77728,-9.302163,-16.6959
7.962413311,-0.7095833,-0.411269,0.8034461,0.9725366,-0.2464802,0.1405612,-60.77728,-9.302163,-16.6959
7.972409725,-0.7095833,-0.5299737,0.6205339,0.9784364,-0.2492881,0.1395945,-60.77728,-9.302163,-16.6959
7.982407093,-0.6480501,-0.411269,0.4376215,0.9754676,-0.2469302,0.1381633,-60.77728,-9.302163,-16.6959
7.992403984,-0.5249836,-0.2925643,0.2547093,0.9764516,-0.2473747,0.1405546,-60.78853,-8.91527,-15.92392
8.002400398,-0.4019172,-0.411269,0.31568,0.9808292,-0.246719,0.1496398,-60.78853,-8.91527,-15.92392
8.012397766,-0.2788507,-0.2925643,0.2547093,0.9769856,-0.2497588,0.1443829,-60.78853,-8.91527,-15.92392
8.022394657,-0.094251,-0.4706214,0.3766508,0.9764057,-0.2449547,0.1395969,-60.78853,-8.91527,-15.92392
8.032391071,-0.1557842,-0.3519166,0.4376215,0.9759741,-0.247857,0.1419913,-60.78853,-8.91527,-15.92392
8.042387962,-0.4634504,-0.4706214,0.4985923,0.9753151,-0.2385932,0.1467758,-60.10636,-8.596419,-16.30752
8.052384853,-0.8326498,-0.3519166,0.7424754,0.9690167,-0.240736,0.1386516,-60.10636,-8.596419,-16.30752
8.062381744,-1.447982,-0.3519166,0.6815046,0.9666454,-0.2441757,0.1396137,-60.10636,-8.596419,-16.30752
8.072378159,-1.755648,-0.1738595,0.8644169,0.9661843,-0.2456821,0.1353077,-60.10636,-8.596419,-16.30752
8.082375526,-1.694115,-0.1145072,0.5595631,0.9676015,-0.2431805,0.1400904,-60.10636,-8.596419,-16.30752
8.092372417,-1.694115,-0.2925643,0.2547093,0.9720211,-0.2450633,0.1372117,-60.77898,-9.298894,-16.3089
8.102368832,-1.017249,-0.3519166,-0.1720861,0.9716247,-0.2499481,0.1352994,-60.77898,-9.298894,-16.3089
8.112365723,-0.4019172,-0.1738595,-0.5379106,0.9761013,-0.2546752,0.1400785,-60.77898,-9.298894,-16.3089
8.122363091,-0.094251,-0.2332119,-0.9037352,0.9785179,-0.2536775,0.1376812,-60.77898,-9.298894,-16.3089
8.132359505,0.3980148,-0.3519166,-0.9647059,0.979969,-0.253198,0.1338499,-60.77898,-9.298894,-16.3089
8.142356396,0.3980148,-0.411269,-1.147618,0.9804121,-0.2507069,0.1395914,-60.40424,-9.296082,-16.30611
8.152353764,0.09034869,-0.3519166,-1.086647,0.9764709,-0.2483156,0.1439049,-60.40424,-9.296082,-16.30611
8.162350178,-0.5249836,-0.4706214,-0.7817937,0.9794474,-0.2511987,0.141029,-60.40424,-9.296082,-16.30611
8.172347069,-1.078783,-0.411269,-0.4159691,0.9793933,-0.2482666,0.1429426,-60.40424,-9.296082,-16.30611
8.182343483,-1.632582,-0.2925643,-0.1720861,0.9843629,-0.2535708,0.1367138,-60.40424,-9.296082,-16.30611
8.192340851,-1.571049,-0.2925643,0.2547093,0.9804577,-0.2531357,0.139592,-60.41379,-8.912457,-15.92114
8.202337265,-1.632582,-0.2925643,0.6815046,0.9815052,-0.2569982,0.1400697,-60.41379,-8.912457,-15.92114
8.212334156,-1.571049,-0.1738595,1.047329,0.9771214,-0.257076,0.1410345,-60.41379,-8.912457,-15.92114
8.222331524,-1.263382,-0.1145072,1.047329,0.9824238,-0.2540862,0.1376745,-60.41379,-8.912457,-15.92114
8.232327938,-1.263382,-0.1145072,1.169271,0.9755588,-0.2517922,0.1376859,-60.41379,-8.912457,-15.92114
8.242324829,-1.324916,-0.1145072,1.535095,0.9779394,-0.2488339,0.1372024,-60.79339,-8.601575,-16.31261
8.252321243,-1.324916,-0.2332119,1.718008,0.9730785,-0.2493808,0.1410396,-60.79339,-8.601575,-16.31261
8.262318611,-1.632582,-0.05515479,1.718008,0.977021,-0.2517326,0.1410333,-60.79339,-8.601575,-16.31261
8.272315502,-1.571049,-0.05515479,1.535095,0.9755571,-0.2518449,0.131943,-60.79339,-8.601575,-16.31261
8.282311916,-1.755648,-0.2925643,1.352183,0.9705685,-0.2455911,0.1357787,-60.79339,-8.601575,-16.31261
8.292308807,-1.386449,-0.1145072,1.413154,0.9731228,-0.2518535,0.1362544,-60.79508,-8.598307,-15.92561
8.302306175,-1.140316,-0.1738595,1.169271,0.9790229,-0.2546481,0.1367234,-60.79508,-8.598307,-15.92561
8.312302589,-0.7095833,-0.1738595,1.047329,0.9725436,-0.2470318,0.1333827,-60.79508,-8.598307,-15.92561
8.322299004,-0.5865169,-0.1738595,0.9863584,0.9754313,-0.2449827,0.1386415,-60.79508,-8.598307,-15.92561
8.332296372,-0.7095833,-0.2332119,0.9863584,0.9779003,-0.2469698,0.1285876,-60.79508,-8.598307,-15.92561
8.342293263,-1.140316,-0.2925643,0.9863584,0.9779208,-0.2478711,0.136245,-60.79022,-8.912001,-15.53692
8.352289677,-1.447982,-0.5299737,0.9863584,0.9754657,-0.2469916,0.1314633,-60.79022,-8.912001,-15.53692
8.362287045,-1.509515,-0.5893261,1.1083,0.9754839,-0.2479632,0.1314635,-60.79022,-8.912001,-15.53692
8.372283936,-1.571049,-0.411269,0.8644169,0.9784244,-0.2488901,0.1300229,-60.79022,-8.912001,-15.53692
8.38228035,-1.509515,-0.5893261,0.7424754,0.9745364,-0.2494616,0.1290727,-60.79022,-8.912001,-15.53692
8.392277241,-0.9557163,-0.6486785,0.4985923,0.9706764,-0.2514685,0.1305157,-60.79508,-8.598307,-15.92561
8.402274609,-0.7711166,-0.886088,0.4376215,0.9774861,-0.2508699,0.1281107,-60.79508,-8.598307,-15.92561
8.412271023,-0.4634504,-0.9454404,0.4985923,0.976872,-0.244057,0.130503,-60.79508,-8.598307,-15.92561
8.422267914,-0.5865169,-1.064145,0.4376215,0.9724604,-0.2426951,0.1295531,-60.79508,-8.598307,-15.92561
8.432264328,-0.5865169,-1.360907,0.31568,0.9701703,-0.2505329,0.1276448,-60.79508,-8.598307,-15.92561
8.442261696,-0.894183,-1.360907,0.1937385,0.9726138,-0.2510056,0.1238121,-61.55244,-8.223576,-15.9332
8.45225811,-0.9557163,-1.479612,0.07179698,0.9754288,-0.2450618,0.1300271,-61.55244,-8.223576,-15.9332
8.462255001,-1.017249,-1.420259,0.2547093,0.9749945,-0.248043,0.1238072,-61.55244,-8.223576,-15.9332
8.472252369,-1.017249,-1.657669,0.1327677,0.9789473,-0.2508454,0.1276296,-61.55244,-8.223576,-15.9332
8.482248783,-1.140316,-1.420259,-0.05014454,0.9725503,-0.2475922,0.125247,-60.81081,-7.837595,-15.92967
8.492245674,-1.201849,-1.479612,-0.05014454,0.9725604,-0.2480472,0.1285972,-60.81081,-7.837595,-15.92967
8.502243042,-1.386449,-1.895078,-0.1111153,0.9710886,-0.2476342,0.1238139,-60.81081,-7.837595,-15.92967
8.512239456,-1.324916,-1.717021,-0.1720861,0.9720643,-0.2475667,0.1290765,-60.81081,-7.837595,-15.92967
8.522236347,-1.324916,-1.776374,-0.05014454,0.9671842,-0.2471728,0.1295635,-60.81081,-7.837595,-15.92967
8.532232762,-1.017249,-1.895078,-0.4159691,0.9683866,-0.2592976,0.1295645,-60.80464,-8.214682,-15.54064
8.542230129,-0.7095833,-1.776374,-0.5379106,0.9668888,-0.2573834,0.1295666,-60.80464,-8.214682,-15.54064
8.55222702,-0.2173175,-1.95443,-0.5988814,0.9732039,-0.256256,0.1329053,-60.80464,-8.214682,-15.54064
8.562223435,0.2749484,-1.717021,-0.4159691,0.9751787,-0.2577055,0.1295522,-60.80464,-8.214682,-15.54064
8.572220802,0.7672142,-1.835726,-0.5988814,0.979525,-0.2557154,0.125237,-60.80464,-8.214682,-15.54064
8.582217217,0.3980148,-1.895078,-0.6598521,0.9731299,-0.2524007,0.1295545,-61.17938,-8.217494,-15.54342
8.592214108,-0.094251,-1.717021,-0.4159691,0.9744909,-0.2470284,0.1295507,-61.17938,-8.217494,-15.54342
8.602210522,-0.5865169,-1.479612,-0.3549984,0.9759538,-0.2469513,0.1348125,-61.17938,-8.217494,-15.54342
8.61220789,-1.201849,-1.420259,0.07179698,0.9760644,-0.2527453,0.1386424,-61.17938,-8.217494,-15.54342
8.62220478,-1.509515,-1.479612,-0.05014454,0.9751425,-0.2557538,0.130509,-61.17938,-8.217494,-15.54342
8.632201195,-1.263382,-1.301555,0.07179698,0.980105,-0.2605107,0.1309801,-60.80464,-8.214682,-15.54064
8.642198563,-0.894183,-1.242202,0.07179698,0.9829002,-0.2536436,0.1319306,-60.80464,-8.214682,-15.54064
8.652195454,-0.7095833,-1.064145,0.01082622,0.9804538,-0.2532586,0.1261919,-60.80464,-8.214682,-15.54064
8.662191868,-0.1557842,-1.064145,-0.2330568,0.9789681,-0.251738,0.1362442,-60.80464,-8.214682,-15.54064
8.672189236,-0.03271778,-1.004793,-0.2330568,0.9814109,-0.2522327,0.1300186,-60.80464,-8.214682,-15.54064
8.682186127,-0.1557842,-0.8267356,-0.4769399,0.973057,-0.2485146,0.1295536,-60.79847,-8.591768,-15.15161
8.692182541,-0.5865169,-1.18285,-0.4769399,0.9706044,-0.2475517,0.1338648,-60.79847,-8.591768,-15.15161
8.702179432,-0.7095833,-1.123497,-0.5988814,0.973552,-0.2490259,0.1257242,-60.79847,-8.591768,-15.15161
8.712176323,-0.6480501,-1.123497,-0.5988814,0.9761253,-0.2562378,0.1285931,-60.79847,-8.591768,-15.15161
8.722173214,-0.5865169,-1.004793,-0.5988814,0.973111,-0.2514511,0.1271614,-60.79847,-8.591768,-15.15161
8.732169628,-0.2173175,-1.004793,-0.7208229,0.9824684,-0.2565502,0.1338464,-60.80464,-8.214682,-15.54064
8.742166996,0.1518819,-1.004793,-0.7208229,0.9722008,-0.2548663,0.1276424,-60.80464,-8.214682,-15.54064
8.752163887,0.2749484,-0.6486785,-0.9647059,0.975107,-0.25378,0.1338585,-60.80464,-8.214682,-15.54064
8.762160301,0.2749484,-0.8267356,-0.8427644,0.9784595,-0.250877,0.1252376,-60.80464,-8.214682,-15.54064
8.772157669,-0.03271778,-0.7673832,-0.8427644,0.9843681,-0.2541794,0.1233138,-60.80464,-8.214682,-15.54064
8.78215456,-0.03271778,-0.4706214,-0.8427644,0.9818882,-0.2517593,0.1276247,-60.80634,-8.211412,-15.15364
8.792150974,-0.2788507,-0.6486785,-1.086647,0.9780348,-0.2543308,0.1204535,-60.80634,-8.211412,-15.15364
8.802147865,-0.4634504,-0.6486785,-0.9647059,0.9798844,-0.2489051,0.1252346,-60.80634,-8.211412,-15.15364
8.812145233,-0.5249836,-0.5299737,-0.9037352,0.9785231,-0.2542861,0.1242812,-60.80634,-8.211412,-15.15364
8.822141647,-0.5249836,-0.7080309,-1.025677,0.9805604,-0.2591799,0.1161431,-60.80634,-8.211412,-15.15364
8.832138538,-0.2173175,-0.7080309,-0.9037352,0.9770601,-0.2543676,0.1185409,-60.47794,-8.909657,-15.5346
8.842135429,-0.1557842,-0.6486785,-0.9647059,0.9740745,-0.2509944,0.1218952,-60.47794,-8.909657,-15.5346
8.85213232,-0.03271778,-0.7673832,-0.9037352,0.9746727,-0.2567656,0.12716,-60.47794,-8.909657,-15.5346
8.862128735,0.3364816,-0.7080309,-1.025677,0.9751506,-0.2562702,0.127159,-60.47794,-8.909657,-15.5346
8.872125626,0.705681,-0.3519166,-1.025677,0.9732389,-0.2582474,0.1276415,-60.47794,-8.909657,-15.5346
8.882122993,0.5210813,-0.3519166,-1.025677,0.9717962,-0.2592346,0.12908,-60.43945,-7.828245,-15.15288
8.892119408,0.3364816,-0.1738595,-1.147618,0.9771095,-0.256678,0.1314629,-60.43945,-7.828245,-15.15288
8.902116299,0.2134152,-0.05515479,-1.025677,0.9766027,-0.25576,0.1266778,-60.43945,-7.828245,-15.15288
8.912113667,-0.094251,-0.05515479,-1.086647,0.975657,-0.2572014,0.1305085,-60.43945,-7.828245,-15.15288
8.922110081,-0.2173175,-0.05515479,-0.6598521,0.9786234,-0.2596295,0.1242824,-60.43945,-7.828245,-15.15288
8.932106972,-0.1557842,-0.05515479,-0.4159691,0.9874188,-0.2609092,0.124746,-60.42204,-8.592225,-15.53583
8.94210434,0.02881546,-0.05515479,-0.05014454,0.9825465,-0.2610449,0.1204473,-60.42204,-8.592225,-15.53583
8.952100754,0.2749484,0.06354995,0.1327677,0.9883843,-0.260391,0.1261799,-60.42204,-8.592225,-15.53583
8.962097168,0.3364816,0.1822547,0.31568,0.97808,-0.2567728,0.1190183,-60.42204,-8.592225,-15.53583
8.972094059,0.09034869,0.4196641,0.5595631,0.9749847,-0.2475792,0.1214142,-60.42204,-8.592225,-15.53583
8.982091427,-0.5249836,0.4790165,0.6815046,0.9725748,-0.2491416,0.1151973,-61.17769,-8.220763,-15.93042
8.992087841,-1.140316,0.06354995,0.6815046,0.9715837,-0.2481455,0.1199845,-61.17769,-8.220763,-15.93042
9.002084732,-1.140316,0.1229023,0.7424754,0.9701298,-0.2487128,0.1142443,-61.17769,-8.220763,-15.93042
9.0120821,-0.9557163,-0.2332119,0.1937385,0.97467,-0.256849,0.1180671,-61.17769,-8.220763,-15.93042
9.022078514,-0.2788507,-0.1145072,0.01082622,0.9747337,-0.2602537,0.1175893,-61.17769,-8.220763,-15.93042
9.032075405,0.8287475,-0.3519166,-0.4769399,0.9724175,-0.2665948,0.1199878,-60.80634,-8.211412,-15.15364
9.042072773,1.874812,-0.2332119,-0.8427644,0.9766997,-0.2612087,0.1151932,-60.80634,-8.211412,-15.15364
9.052069187,2.551678,-0.1738595,-1.208589,0.979089,-0.2587537,0.1127955,-60.80634,-8.211412,-15.15364
9.062066078,2.613211,-0.1145072,-1.025677,0.9858221,-0.2536078,0.1295326,-60.80634,-8.211412,-15.15364
9.072062969,1.874812,0.004197581,-0.7817937,0.9852787,-0.250751,0.1242685,-61.16666,-8.911544,-15.1527
9.08205986,1.321013,-0.1145072,-0.4159691,0.986187,-0.2473929,0.117566,-61.16666,-8.911544,-15.1527
9.092056274,0.3364816,0.06354995,0.01082622,0.9857744,-0.2512448,0.1223535,-61.16666,-8.911544,-15.1527
9.102053165,-0.03271778,0.1229023,0.5595631,0.98183,-0.2489544,0.1156597,-61.16666,-8.911544,-15.1527
9.112050533,-0.4634504,0.1229023,0.8644169,0.9804172,-0.2513199,0.1257129,-61.16666,-8.911544,-15.1527
9.122046948,-0.5249836,0.06354995,1.230241,0.9755822,-0.2533724,0.1242861,-60.49405,-8.209069,-15.15132
9.132043839,-0.03271778,0.06354995,1.047329,0.9775202,-0.2528876,0.1199754,-60.49405,-8.209069,-15.15132
9.142041206,0.3980148,0.3009594,0.9253877,0.9808391,-0.2479495,0.1214041,-60.49405,-8.209069,-15.15132
9.152037621,0.6441478,0.06354995,0.7424754,0.9743418,-0.2393528,0.1190203,-60.49405,-8.209069,-15.15132
9.162034512,0.705681,0.1229023,0.4376215,0.9695339,-0.2428713,0.1166367,-60.49405,-8.209069,-15.15132
9.172031879,0.5210813,0.06354995,0.2547093,0.9734684,-0.2447023,0.1204589,-60.85923,-8.595507,-15.53907
9.182028294,0.5210813,0.1229023,-0.1111153,0.9774033,-0.2465201,0.1257169,-60.85923,-8.595507,-15.53907
9.192025185,0.7672142,0.1229023,-0.2940276,0.9759312,-0.2461158,0.1199764,-60.85923,-8.595507,-15.53907
9.202022076,0.7672142,0.06354995,-0.2940276,0.9823067,-0.2484985,0.1113516,-60.85923,-8.595507,-15.53907
9.212018967,1.013347,0.3603118,-0.4769399,0.9817672,-0.245519,0.1194875,-60.85923,-8.595507,-15.53907
9.222015381,1.013347,0.3009594,-0.5379106,0.9783196,-0.2436872,0.1147073,-60.47963,-8.906388,-15.1476
9.232012272,0.7672142,0.3603118,-0.4159691,0.9782017,-0.2373503,0.1170988,-60.47963,-8.906388,-15.1476
9.24200964,0.4595481,0.3009594,-0.5988814,0.9778515,-0.244642,0.1175798,-60.47963,-8.906388,-15.1476
9.252006054,0.1518819,0.1822547,-0.5988814,0.9777589,-0.2398283,0.112793,-60.47963,-8.906388,-15.1476
9.262002945,-0.03271778,-0.1738595,-0.6598521,0.9803603,-0.2484712,0.1185336,-60.47963,-8.906388,-15.1476
9.272000313,-0.03271778,-0.1145072,-0.6598521,0.9784188,-0.2490657,0.1108799,-60.49574,-8.2058,-14.76432
9.281996727,0.7672142,-0.1738595,-1.147618,0.9837776,-0.2489422,0.1127848,-60.49574,-8.2058,-14.76432
9.291993618,1.321013,-0.2925643,-1.26956,0.985734,-0.2494246,0.1089529,-60.49574,-8.2058,-14.76432
9.301990986,1.690213,-0.411269,-1.330531,0.9822972,-0.2480215,0.1103943,-60.49574,-8.2058,-14.76432
9.3119874,1.874812,-0.4706214,-1.452472,0.9838451,-0.2522285,0.1252285,-60.49574,-8.2058,-14.76432
9.321984291,1.690213,-0.6486785,-1.330531,0.9778411,-0.2441957,0.1132725,-61.1749,-8.591312,-14.76739
9.331981182,1.321013,-0.7080309,-1.330531,0.9734852,-0.2457177,0.1156734,-61.1749,-8.591312,-14.76739
9.341978073,0.705681,-0.7673832,-1.147618,0.9773287,-0.2426866,0.1199731,-61.1749,-8.591312,-14.76739
9.351974487,0.3364816,-0.886088,-1.086647,0.9832724,-0.2479716,0.1137426,-61.1749,-8.591312,-14.76739
9.361971378,0.3364816,-0.7673832,-0.9647059,0.984258,-0.2483723,0.1209197,-61.1749,-8.591312,-14.76739
9.371968746,0.705681,-0.4706214,-0.9037352,0.9848832,-0.2556095,0.1252276,-60.86092,-8.592237,-15.15207
9.38196516,1.013347,-0.411269,-0.8427644,0.9848185,-0.2522355,0.1223554,-60.86092,-8.592237,-15.15207
9.391962051,1.197947,-0.3519166,-1.086647,0.9798836,-0.2489315,0.1223632,-60.86092,-8.592237,-15.15207
9.401959419,1.07488,-0.1145072,-0.9647059,0.9754814,-0.2480422,0.1228492,-60.86092,-8.592237,-15.15207
9.411955834,0.7672142,0.1229023,-1.025677,0.975525,-0.2505368,0.1156711,-60.86092,-8.592237,-15.15207
9.421952725,0.4595481,0.1822547,-0.9037352,0.9778699,-0.2456091,0.1180586,-60.48449,-8.592693,-15.53629
9.431950092,0.1518819,0.004197581,-0.8427644,0.9851922,-0.2465153,0.1094317,-60.48449,-8.592693,-15.53629
9.441946507,0.1518819,-0.5299737,-0.9037352,0.9925129,-0.2474741,0.09506192,-60.48449,-8.592693,-15.53629
9.451943398,1.07488,-0.886088,-0.7208229,0.9941173,-0.2553052,0.08548962,-60.48449,-8.592693,-15.53629
9.461940289,2.736278,-1.598316,-0.9037352,0.9892394,-0.2548455,0.09315523,-60.48449,-8.592693,-15.53629
9.47193718,4.520741,-2.19184,-1.208589,0.9784301,-0.2502567,0.0869514,-60.80016,-8.5885,-14.76461
9.481933594,5.751406,-2.963421,-1.452472,0.9676039,-0.244648,0.08601167,-60.80016,-8.5885,-14.76461
9.491930962,6.243672,-3.675649,-1.757326,0.9563345,-0.2415349,0.07885188,-60.80016,-8.5885,-14.76461
9.501927853,6.243672,-4.269173,-2.428004,0.953231,-0.2318247,0.08459769,-60.80016,-8.5885,-14.76461
9.511924267,5.936006,-4.565935,-2.488975,0.952735,-0.2313398,0.08555559,-60.80016,-8.5885,-14.76461
9.521921635,5.197607,-4.743992,-3.098683,0.9601973,-0.2394358,0.08745898,-60.86262,-8.588968,-14.76507
9.531918526,5.566806,-4.743992,-3.281595,0.9607931,-0.2452817,0.08458798,-60.86262,-8.588968,-14.76507
9.54191494,5.751406,-4.862697,-3.769361,0.9652116,-0.2471996,0.0778807,-60.86262,-8.588968,-14.76507
9.551911831,6.120605,-5.159458,-4.196156,0.9720247,-0.2472624,0.05633292,-60.86262,-8.588968,-14.76507
9.561909199,6.98207,-6.46521,-4.50101,0.9887706,-0.2573687,0.0309418,-60.86262,-8.588968,-14.76507
9.571905613,9.074201,-8.364487,-4.927805,1.008293,-0.2596584,0.004108097,-61.17033,-8.904462,-14.3142
9.581902027,11.96626,-10.56052,-5.598484,1.015567,-0.258206,-0.01217654,-61.17033,-8.904462,-14.3142
9.591899395,15.35059,-13.11268,-7.183723,1.003195,-0.248329,-0.02125046,-61.17033,-8.904462,-14.3142
9.601896286,17.50425,-15.78353,-9.561584,0.978004,-0.2304267,-0.0283898,-61.17033,-8.904462,-14.3142
9.6118927,17.68885,-18.5731,-12.18333,0.9670301,-0.2170985,-0.03507417,-61.17033,-8.904462,-14.3142
9.621890068,16.82739,-20.53172,-14.13439,0.9605253,-0.2079635,-0.03171515,-60.85018,-9.282474,-14.30985
9.631886959,14.85832,-21.65942,-14.98798,0.9506406,-0.2002784,-0.02021407,-60.85018,-9.282474,-14.30985
9.641883373,12.0278,-22.5497,-14.98798,0.9359477,-0.1961163,-0.01157516,-60.85018,-9.282474,-14.30985
9.651880741,7.782002,-23.49934,-14.43924,0.9256212,-0.1908785,-0.001029831,-60.85018,-9.282474,-14.30985
9.661877632,2.182479,-25.51732,-14.92701,0.9131861,-0.1775792,-0.007711643,-60.83952,-10.03338,-13.14479
9.671874046,-4.093911,-27.95077,-15.41478,0.9455751,-0.1638452,-0.0106431,-60.83952,-10.03338,-13.14479
9.681871414,-11.04717,-29.9094,-15.10992,0.9652913,-0.1754857,0.002247082,-60.83952,-10.03338,-13.14479
9.691867828,-18.92342,-30.44357,-14.25633,0.9719049,-0.1897008,0.02760374,-60.83952,-10.03338,-13.14479
9.701864719,-22.80001,-30.26551,-12.00041,0.9837038,-0.2209794,0.03572702,-60.83952,-10.03338,-13.14479
9.711861134,-23.53841,-29.67199,-9.683525,0.9960826,-0.2570576,0.04911486,-61.51789,-10.78563,-11.53332
9.721858501,-18.86189,-29.37523,-7.061782,1.000291,-0.2998777,0.03380412,-61.51789,-10.78563,-11.53332
9.731855392,-10.5549,-28.663,-5.232659,1.008787,-0.3107198,0.05197799,-61.51789,-10.78563,-11.53332
9.741851807,-1.817181,-28.42559,-3.891303,1.025249,-0.3050229,0.05481928,-61.51789,-10.78563,-11.53332
9.751849174,5.62834,-28.06947,-2.8548,1.034085,-0.2824643,0.0581481,-61.51789,-10.78563,-11.53332
9.761846065,11.53553,-28.60365,-1.757326,1.026754,-0.2554183,0.05576104,-61.13419,-11.53045,-9.978477
9.77184248,15.16599,-28.54429,-0.9647059,1.027765,-0.2309127,0.07633173,-61.13419,-11.53045,-9.978477
9.781839848,15.16599,-27.59465,0.01082622,1.034702,-0.2107204,0.09067173,-61.13419,-11.53045,-9.978477
9.791836739,12.39699,-25.87344,1.474125,1.032972,-0.196014,0.1083783,-61.13419,-11.53045,-9.978477
9.801833153,8.458868,-23.43999,3.181306,1.019928,-0.1757569,0.1198816,-61.13419,-11.53045,-9.978477
9.811830521,4.090009,-21.54071,2.510627,1.027735,-0.1495276,0.1547973,-61.53341,-10.75566,-7.985806
9.821826935,-5.263042,-17.02993,2.388686,1.040068,-0.07751619,0.244251,-61.53341,-10.75566,-7.985806
9.831823826,-18.30809,-12.40045,2.022861,1.017041,-0.07058114,0.2552966,-61.53341,-10.75566,-7.985806
9.841821194,-28.5226,-8.661248,0.3766508,0.9745014,-0.08975234,0.2170896,-61.53341,-10.75566,-7.985806
9.851817608,-33.81446,-5.990392,-2.06218,0.9828762,-0.1471912,0.1883752,-61.53341,-10.75566,-7.985806
9.861814499,-31.90693,-3.20083,-5.171688,0.9899979,-0.1894633,0.1735379,-61.51151,-11.89346,-7.59272
9.871811867,-26.36894,-0.9454404,-8.52508,0.982959,-0.2043693,0.1529752,-61.51151,-11.89346,-7.59272
9.881808281,-19.90795,1.07254,-12.18333,0.9823543,-0.1988043,0.1252174,-61.51151,-11.89346,-7.59272
9.891805172,-14.49303,3.505987,-14.7441,1.007198,-0.1990363,0.09933104,-61.51151,-11.89346,-7.59272
9.90180254,-11.4779,6.176844,-16.08545,1.022734,-0.1708562,0.06531779,-61.51151,-11.89346,-7.59272
9.911798954,-11.72403,7.363891,-16.57322,1.023839,-0.1270084,0.02223273,-61.91181,-10.75139,-7.150082
9.921795845,-16.64669,7.898063,-16.87807,1.025429,-0.1081086,0.01313214,-61.91181,-10.75139,-7.150082
9.931792736,-21.93855,8.491587,-16.08545,1.009757,-0.1041194,0.005022646,-61.91181,-10.75139,-7.150082
9.941789627,-27.90727,8.728995,-16.93905,1.014608,-0.1023464,0.02894254,-61.91181,-10.75139,-7.150082
9.951786041,-33.01453,9.678634,-17.97555,1.012956,-0.1177844,0.0447424,-61.91181,-10.75139,-7.150082
9.961783409,-34.30673,10.33151,-19.92661,0.9957172,-0.1335216,0.06152667,-62.26885,-11.51873,-7.600309
9.9717803,-33.876,11.3405,-23.40195,0.9686101,-0.1425936,0.08454791,-62.26885,-11.51873,-7.600309
9.981776714,-31.41467,13.29913,-28.64543,0.9596371,-0.1314451,0.1008323,-62.26885,-11.51873,-7.600309
9.994272709,-26.79967,16.50415,-38.27881,0.9867811,-0.1235319,0.1103544,-62.26885,-11.51873,-7.600309
10.001770973,-24.58448,20.0653,-41.32735,0.9908684,-0.133691,0.1065213,-62.26885,-11.51873,-7.600309
10.014266968,-22.24621,23.56709,-46.38792,1.025955,-0.1084385,0.08204627,-61.4924,-12.66071,-8.362667
10.021764755,-21.75395,25.1696,-48.03413,1.036963,-0.09814347,0.06814572,-61.4924,-12.66071,-8.362667
10.03426075,-18.43115,26.17859,-50.41199,1.058302,-0.09292385,0.06140711,-61.4924,-12.66071,-8.362667
10.04175806,-15.23143,27.06888,-51.75335,1.061023,-0.08143464,0.0896354,-61.4924,-12.66071,-8.362667
10.054254055,-10.7395,28.73074,-53.64344,1.054534,-0.04617151,0.1336666,-61.4924,-12.66071,-8.362667
10.061751843,-10.06263,30.0365,-54.74092,1.055338,-0.03681307,0.1456272,-61.45587,-14.19194,-9.51556
10.074247837,-10.80103,31.46095,-55.59451,1.065109,-0.03803398,0.1503963,-61.45587,-14.19194,-9.51556
10.084244728,-11.78556,32.648,-56.26519,1.064347,-0.02353221,0.1436938,-61.45587,-14.19194,-9.51556
10.094242096,-13.63156,33.95375,-56.50907,1.062469,-0.02831125,0.1034979,-61.45587,-14.19194,-9.51556
10.10423851,-15.90829,34.60663,-56.63101,1.072974,-0.01771564,0.07045512,-60.32048,-17.24752,-11.94247
10.114235401,-16.70822,34.48792,-56.26519,1.068,-0.01256067,0.06041237,-60.32048,-17.24752,-11.94247
10.124232769,-17.13896,35.02209,-55.59451,1.039388,-0.0199423,0.05902841,-60.32048,-17.24752,-11.94247
10.134229183,-19.29262,34.07246,-53.09471,1.024409,-0.02722564,0.0389562,-60.32048,-17.24752,-11.94247
10.144226074,-20.89248,32.82606,-50.10714,1.029943,-0.06269532,0.02746986,-60.32048,-17.24752,-11.94247
10.154223442,-19.90795,30.86743,-46.63181,1.017615,-0.08095822,0.02318888,-59.51338,-19.54419,-14.31125
10.164219856,-17.32355,29.20556,-44.25395,1.020857,-0.07148581,0.04232383,-59.51338,-19.54419,-14.31125
10.174216747,-17.69275,28.01851,-42.66871,1.028887,-0.05755849,0.06001356,-59.51338,-19.54419,-14.31125
10.184213638,-21.56935,27.48434,-40.53473,1.02075,-0.03915259,0.07103024,-59.51338,-19.54419,-14.31125
10.194210529,-28.39954,27.06888,-37.79105,1.022613,-0.03484758,0.05954007,-59.51338,-19.54419,-14.31125
10.204206944,-35.66046,25.88183,-35.10833,1.021763,-0.06818914,0.02892127,-58.32079,-22.52828,-15.83503
10.214204311,-38.86019,23.98255,-31.02329,1.027492,-0.1145167,-0.001227082,-58.32079,-22.52828,-15.83503
10.224201202,-36.89112,21.66781,-27.06019,1.018448,-0.1522577,-0.01699461,-58.32079,-22.52828,-15.83503
10.234197617,-31.04547,19.17501,-22.79224,1.020997,-0.1843233,-0.02177656,-58.32079,-22.52828,-15.83503
10.244194984,-22.49235,16.3261,-18.89011,1.017631,-0.1868809,-0.0284701,-58.32079,-22.52828,-15.83503
10.254191876,-14.30843,13.53654,-15.59769,1.002166,-0.1677488,-0.02844806,-57.53111,-24.06097,-17.82087
10.26418829,-8.339704,10.98439,-12.18333,1.00358,-0.1389187,-0.01410067,-57.53111,-24.06097,-17.82087
10.274185658,-5.816842,8.8477,-9.744495,0.9981902,-0.08487078,0.009345038,-57.53111,-24.06097,-17.82087
10.284182549,-7.908971,7.245187,-8.403138,0.9826707,-0.03639024,0.03041696,-57.53111,-24.06097,-17.82087
10.294178963,-14.00076,5.345911,-7.793431,0.9843365,-0.02128875,0.03088874,-57.53111,-24.06097,-17.82087
10.304176331,-19.16955,3.980806,-6.08625,0.9859517,-0.02955733,0.02658087,-56.37991,-25.20013,-18.58045
10.314172745,-21.32322,2.496997,-4.866835,0.9785945,-0.05307174,0.02181399,-56.37991,-25.20013,-18.58045
10.324169636,-19.16955,1.191245,-3.037712,0.9747806,-0.08391055,0.005556992,-56.37991,-25.20013,-18.58045
10.334167004,-13.1393,-0.6486785,-1.26956,0.9804332,-0.09927004,0.01416546,-56.37991,-25.20013,-18.58045
10.344163418,-6.001441,-2.369897,1.291212,0.9842246,-0.09323663,0.02803601,-56.37991,-25.20013,-18.58045
10.354160309,-0.5865169,-3.853706,3.912955,0.9981484,-0.05590716,0.04140225,-56.36838,-25.58757,-19.41692
10.364157677,1.874812,-5.574925,6.168873,1.000552,-0.02812591,0.04521952,-56.36838,-25.58757,-19.41692
10.374154091,3.105477,-7.177439,7.571201,1.00218,-0.01034105,0.07344809,-56.36838,-25.58757,-19.41692
10.384150982,3.659276,-8.305134,7.754113,1.003722,0.01167083,0.08588271,-56.36838,-25.58757,-19.41692
10.394147873,3.53621,-8.7206,7.144405,1.006899,0.02449527,0.09975258,-56.36838,-25.58757,-19.41692
10.404144764,2.490145,-8.95801,6.473727,1.008219,0.03245433,0.116977,-56.00936,-24.82405,-19.4182
10.414141178,0.7672142,-9.254772,6.412756,1.004244,0.0368677,0.1299043,-56.00936,-24.82405,-19.4182
10.424138546,-0.3403839,-9.017363,5.620136,1.002639,0.04469002,0.1385195,-56.00936,-24.82405,-19.4182
10.434135437,-1.263382,-8.661248,4.644604,1.00131,0.03799655,0.1533594,-56.00936,-24.82405,-19.4182
10.444131851,-0.7711166,-8.245782,4.400721,1.006097,0.01676234,0.1590994,-56.00936,-24.82405,-19.4182
10.454129219,0.705681,-8.008372,4.583633,1.006398,0.0007453841,0.1605387,-56.38947,-24.81651,-18.19547
10.46412611,3.16701,-7.592906,5.559165,1.010878,-0.004664998,0.1437821,-56.38947,-24.81651,-18.19547
10.474122524,6.612871,-7.592906,6.595668,1.017238,-0.005992782,0.14425,-56.38947,-24.81651,-18.19547
10.484119892,10.12027,-7.414848,7.876054,1.012056,0.01042686,0.1442548,-56.38947,-24.81651,-18.19547
10.494116783,11.8432,-6.999382,7.144405,1.015283,0.04661259,0.1619471,-56.38947,-24.81651,-18.19547
10.504113197,10.67406,-5.812335,5.437224,1.019334,0.06479966,0.1758141,-56.7659,-24.81605,-17.81125
10.514110565,5.44374,-4.150468,4.095867,1.010114,0.1146914,0.1782102,-56.7659,-24.81605,-17.81125
10.524106979,-4.401577,-3.260183,2.205774,1.004771,0.1135262,0.1686483,-56.7659,-24.81605,-17.81125
10.534103871,-11.6625,-2.666659,0.9863584,1.001881,0.05935419,0.1495243,-56.7659,-24.81605,-17.81125
10.544101238,-13.01623,-2.251192,1.230241,1.008222,0.006888095,0.1375623,-56.7659,-24.81605,-17.81125
10.554097653,-9.570369,-2.073135,2.205774,1.003085,-0.03120017,0.1284881,-57.15189,-24.43197,-17.04206
10.564094544,-3.909311,-2.073135,3.120335,1.012962,-0.0383775,0.1193798,-57.15189,-24.43197,-17.04206
10.574091911,1.751746,-2.488602,3.669072,1.015422,-0.03987006,0.110283,-57.15189,-24.43197,-17.04206
10.584088326,5.62834,-2.666659,4.217809,1.017687,-0.03050908,0.1193695,-57.15189,-24.43197,-17.04206
10.594085217,6.612871,-2.607306,4.583633,1.014206,-0.0009792804,0.1145823,-57.15189,-24.43197,-17.04206
10.604082585,4.705341,-2.785364,4.33975,1.016201,0.02231077,0.106437,-57.15975,-24.05161,-17.04408
10.614078999,1.936346,-2.666659,2.815481,1.003556,0.02115048,0.1131594,-57.15975,-24.05161,-17.04408
10.624075889,-0.4634504,-2.132488,1.535095,0.9941708,0.002030861,0.115095,-57.15975,-24.05161,-17.04408
10.634072781,-1.509515,-1.657669,0.9253877,0.9925839,-0.01754343,0.103617,-57.15975,-24.05161,-17.04408
10.644069672,-0.6480501,-1.835726,0.9863584,0.9938104,-0.03122644,0.0926111,-57.15975,-24.05161,-17.04408
10.654066086,2.305545,-2.013783,1.90092,0.9876059,-0.03814344,0.09358084,-57.54237,-23.67407,-17.04889
10.664063454,5.013007,-2.369897,3.54713,0.9944867,-0.04149242,0.08447677,-57.54237,-23.67407,-17.04889
10.674060345,7.412803,-3.260183,5.498195,1.007168,-0.04225763,0.0796691,-57.54237,-23.67407,-17.04889
10.684056759,10.05873,-3.616297,6.473727,1.010868,-0.03137976,0.09210283,-57.54237,-23.67407,-17.04889
10.694054127,11.22786,-3.735002,6.412756,1.012501,-0.01424306,0.1026242,-57.54237,-23.67407,-17.04889
10.704051018,10.551,-3.735002,5.254312,1.01035,-0.00362553,0.09927522,-57.54237,-23.67407,-17.04889
10.714048386,9.135734,-3.735002,4.156838,1.008017,-0.008942406,0.1074165,-57.54237,-23.67407,-17.04889
10.7240448,7.720469,-3.497592,3.425189,1.008603,-0.01434638,0.09975961,-57.54237,-23.67407,-17.04889
10.734041691,7.412803,-3.43824,3.120335,1.006629,-0.01287054,0.1059842,-57.54237,-23.67407,-17.04889
10.744038582,7.289737,-3.319535,3.425189,1.011938,-0.01042804,0.09592418,-57.1693,-23.66799,-16.65911
10.754035473,7.289737,-3.735002,4.644604,1.01405,-0.01917275,0.09161557,-57.1693,-23.66799,-16.65911
10.764031887,8.581935,-4.091116,5.376253,1.011533,-0.01481829,0.09496886,-57.1693,-23.66799,-16.65911
10.774029255,10.85866,-4.150468,5.010429,1.002601,-0.006247821,0.09498222,-57.1693,-23.66799,-16.65911
10.784026146,12.70466,-4.44723,3.912955,1.004332,0.005501616,0.1007191,-57.1693,-23.66799,-16.65911
10.79402256,12.39699,-4.091116,2.998394,1.000569,0.02447111,0.1107709,-57.54772,-23.66372,-15.82339
10.804019928,9.935666,-3.319535,2.69354,1.00412,0.0430202,0.1121956,-57.54772,-23.66372,-15.82339
10.814016819,4.828408,-2.488602,2.022861,1.008914,0.07328276,0.1164867,-57.54772,-23.66372,-15.82339
10.824013233,-2.063314,-2.132488,1.474125,1.005512,0.07267697,0.1107498,-57.54772,-23.66372,-15.82339
10.834010601,-7.478239,-1.717021,1.474125,1.008115,0.03769237,0.10549,-57.54772,-23.66372,-15.82339
10.844007492,-8.278171,-1.479612,1.596066,1.004965,-0.002274108,0.09928426,-57.93819,-22.90582,-15.83022
10.854003906,-5.324575,-1.598316,1.718008,0.9996007,-0.02820517,0.09164308,-57.93819,-22.90582,-15.83022
10.864001274,-0.6480501,-1.717021,1.778978,1.001262,-0.0388806,0.08972862,-57.93819,-22.90582,-15.83022
10.873997688,3.720809,-2.013783,2.144803,1.011409,-0.0343286,0.08731689,-57.93819,-22.90582,-15.83022
10.883994579,6.428272,-2.19184,2.327715,1.009514,-0.01090925,0.1016714,-57.93819,-22.90582,-15.83022
10.893991947,6.859004,-1.776374,1.596066,1.009115,0.01056959,0.1131524,-57.17467,-23.65764,-15.43361
10.903988361,4.643808,-1.479612,0.6205339,1.010972,0.01545692,0.1121908,-57.17467,-23.65764,-15.43361
10.913985252,2.120945,-0.9454404,0.5595631,1.012722,-0.0001595261,0.1011845,-57.17467,-23.65764,-15.43361
10.92398262,0.8902807,-0.8267356,0.6205339,0.9990032,-0.02241638,0.08829259,-57.17467,-23.65764,-15.43361
10.933979034,2.428612,-1.064145,0.9253877,1.001665,-0.03455619,0.08350533,-57.17467,-23.65764,-15.43361
10.943975925,5.197607,-1.360907,1.839949,1.006715,-0.0442849,0.07153462,-58.30506,-23.28899,-15.83098
10.953973293,7.966602,-1.95443,3.608101,1.011092,-0.04366425,0.07679117,-58.30506,-23.28899,-15.83098
10.963969707,8.520401,-2.310545,4.827517,1.008733,-0.02184788,0.07631108,-58.30506,-23.28899,-15.83098
10.973967075,6.428272,-2.607306,5.193341,1.009784,6.220373e-05,0.07869649,-58.30506,-23.28899,-15.83098
10.98396349,1.936346,-2.904068,5.13237,1.011094,0.008467523,0.0916136,-58.30506,-23.28899,-15.83098
10.993960381,-3.109379,-2.488602,4.33975,1.004995,-0.004397111,0.07966314,-57.93032,-23.28617,-15.8282
11.003957748,-6.062974,-2.488602,3.912955,1.005538,-0.03369202,0.06339815,-57.93032,-23.28617,-15.8282
11.013954163,-5.263042,-2.666659,3.730042,0.9979377,-0.07040624,0.05049929,-57.93032,-23.28617,-15.8282
11.023951054,-0.7711166,-3.260183,3.912955,0.9962802,-0.08601981,0.04715617,-57.93032,-23.28617,-15.8282
11.033948421,4.274609,-3.735002,4.888487,1.000108,-0.08193383,0.06054858,-57.93032,-23.28617,-15.8282
11.043944836,7.720469,-4.387877,6.229844,0.9990368,-0.07650436,0.07203487,-58.31293,-22.90863,-15.833
11.053941727,8.951134,-4.803344,7.51023,1.006326,-0.07536655,0.07441475,-58.31293,-22.90863,-15.833
11.063939095,8.705001,-5.45622,9.339353,1.005878,-0.07722265,0.08494469,-58.31293,-22.90863,-15.833
11.073935509,7.474337,-6.109096,11.59527,1.014444,-0.09206498,0.09067649,-58.31293,-22.90863,-15.833
11.0839324,6.489805,-6.346506,14.52187,1.018136,-0.1070562,0.09067391,-58.31293,-22.90863,-15.833
11.093929291,5.874473,-6.524563,17.02167,1.014975,-0.1201777,0.09738287,-58.32417,-22.52174,-15.06103
11.103926182,5.44374,-6.524563,19.0337,1.011906,-0.1381173,0.1084001,-58.32417,-22.52174,-15.06103
11.113922596,5.505273,-5.812335,20.31409,1.002979,-0.1293976,0.124685,-58.32417,-22.52174,-15.06103
11.123919964,4.643808,-5.159458,20.80186,1.003669,-0.1399957,0.1333009,-58.32417,-22.52174,-15.06103
11.133916855,4.889941,-3.853706,21.28962,1.009339,-0.1563486,0.1395167,-58.32417,-22.52174,-15.06103
11.143913269,6.366738,-2.666659,21.65545,1.00906,-0.1675966,0.1323414,-58.3416,-21.75776,-14.67808
11.153910637,9.320333,-1.242202,22.20418,1.012049,-0.1708514,0.1419086,-58.3416,-21.75776,-14.67808
11.163907528,12.33546,-0.05515479,23.72845,1.021005,-0.1545858,0.1476317,-58.3416,-21.75776,-14.67808
11.173904896,13.75073,1.07254,25.80146,1.023622,-0.1378717,0.1629373,-58.3416,-21.75776,-14.67808
11.18390131,13.38153,2.55635,27.69155,1.019244,-0.1121331,0.1705955,-58.3416,-21.75776,-14.67808
11.193898201,11.41246,3.387283,28.54514,1.021409,-0.09738047,0.1849452,-59.48325,-21.00222,-14.30348
11.203895092,7.843536,5.345911,29.15485,1.025596,-0.08650616,0.1959424,-59.48325,-21.00222,-14.30348
11.213891983,3.720809,7.363891,29.09388,1.029184,-0.06988256,0.1992818,-59.48325,-21.00222,-14.30348
11.223888397,0.09034869,9.08511,28.17932,1.035163,-0.07715005,0.1887446,-59.48325,-21.00222,-14.30348
11.233885765,-0.894183,10.98439,27.56961,1.038388,-0.09307854,0.1935289,-59.48325,-21.00222,-14.30348
11.243882656,-1.078783,12.82431,27.02087,1.041704,-0.08821063,0.1873003,-59.12909,-19.925,-14.69345
11.25387907,-0.6480501,14.13006,26.65505,1.035805,-0.08537643,0.1911385,-59.12909,-19.925,-14.69345
11.263876438,-0.7711166,15.55452,26.59408,1.035722,-0.08104408,0.1868304,-59.12909,-19.925,-14.69345
11.273873329,-1.632582,16.68221,27.26476,1.030961,-0.08696067,0.1877973,-59.12909,-19.925,-14.69345
11.283869743,-2.494047,17.86926,27.44767,1.026054,-0.08510508,0.1887625,-59.15267,-18.78393,-14.69953
11.293867111,-4.216978,19.05631,27.69155,1.032443,-0.0878331,0.1954522,-59.15267,-18.78393,-14.69953
11.303864002,-6.247574,20.36206,27.75252,1.03541,-0.09023049,0.1925762,-59.15267,-18.78393,-14.69953
11.313860893,-7.539772,21.4304,27.3867,1.03617,-0.1048288,0.18875,-59.15267,-18.78393,-14.69953
11.323857784,-7.232106,22.5581,26.28922,1.030544,-0.1165894,0.1901986,-59.15267,-18.78393,-14.69953
11.333854199,-6.432174,24.10126,24.70398,1.034411,-0.1151429,0.1806199,-58.43544,-16.89015,-16.31662
11.343851566,-5.447642,25.34766,23.17971,1.026091,-0.1134381,0.1724982,-58.43544,-16.89015,-16.31662
11.353848457,-5.509175,26.416,22.26515,1.021938,-0.09992256,0.1715448,-58.43544,-16.89015,-16.31662
11.363844872,-6.493707,27.30629,21.65545,1.021619,-0.08292968,0.1705838,-58.43544,-16.89015,-16.31662
11.373842239,-8.093571,27.95916,20.98477,1.008422,-0.08073,0.1739563,-58.43544,-16.89015,-16.31662
11.38383913,-9.508835,28.43398,20.74088,1.01034,-0.07856411,0.1940526,-59.20345,-15.76451,-17.48927
11.393835545,-11.53943,29.32427,20.13118,1.012661,-0.07208259,0.2069684,-59.20345,-15.76451,-17.48927
11.403832913,-13.93923,30.33326,19.39953,1.021204,-0.08605433,0.2016928,-59.20345,-15.76451,-17.48927
11.413829804,-15.47756,31.46095,18.424,1.019604,-0.07886702,0.1940365,-59.20345,-15.76451,-17.48927
11.423826218,-16.89282,31.99512,17.02167,1.016349,-0.08720549,0.1926086,-59.20345,-15.76451,-17.48927
11.433823586,-17.75429,32.35124,15.61934,1.016815,-0.08631652,0.1825575,-59.21828,-14.64033,-19.49486
11.44382,-18.06195,32.82606,14.09507,1.01492,-0.0893047,0.1787329,-59.21828,-14.64033,-19.49486
11.453817368,-18.06195,32.94476,12.87566,1.01401,-0.09273305,0.1777783,-59.21828,-14.64033,-19.49486
11.463814259,-17.81582,32.94476,11.59527,1.013148,-0.09849803,0.1868742,-59.21828,-14.64033,-19.49486
11.473810673,-17.63122,32.70735,10.43683,1.00849,-0.08401621,0.1864,-59.21828,-14.64033,-19.49486
11.483808041,-17.50816,32.58865,8.973528,1.000219,-0.08464362,0.1888075,-58.87579,-12.74936,-21.11473
11.493804932,-16.21596,32.41059,7.571201,0.9897035,-0.09552454,0.1907429,-58.87579,-12.74936,-21.11473
11.503801346,-13.63156,32.17318,5.681107,0.9869626,-0.1053195,0.1883573,-58.87579,-12.74936,-21.11473
11.513798714,-10.7395,32.41059,3.669072,0.9921677,-0.0968942,0.1950462,-58.87579,-12.74936,-21.11473
11.523795605,-8.893503,32.41059,1.839949,0.9889035,-0.07833062,0.2127544,-58.87579,-12.74936,-21.11473
11.533792019,-9.447302,32.88541,0.1937385,0.9834098,-0.04546531,0.2050983,-58.50018,-12.38308,-23.11349
11.543789387,-11.78556,32.46994,-1.513443,0.9823552,-0.04105565,0.2113205,-58.50018,-12.38308,-23.11349
11.553785801,-14.12383,32.5293,-2.8548,0.9881837,-0.03992476,0.2160958,-58.50018,-12.38308,-23.11349
11.563783169,-15.72369,32.70735,-4.805864,0.9842576,-0.03860151,0.2098808,-58.50018,-12.38308,-23.11349
11.57378006,-16.27749,32.82606,-7.244694,0.9840072,-0.05125849,0.2079702,-58.50018,-12.38308,-23.11349
11.583776474,-14.61609,32.5293,-9.805466,0.982746,-0.06199167,0.2060608,-57.76384,-11.25655,-25.50052
11.593773842,-12.15476,32.5293,-12.30527,0.9740072,-0.06356952,0.2118194,-57.76384,-11.25655,-25.50052
11.603770733,-9.631902,32.05448,-14.62216,0.9698753,-0.05094648,0.2194806,-57.76384,-11.25655,-25.50052
11.613767147,-6.985973,31.81707,-16.75613,0.9715473,-0.06206378,0.222352,-57.76384,-11.25655,-25.50052
11.623764515,-4.770776,31.2829,-18.82914,0.9717897,-0.04889033,0.2276125,-57.76384,-11.25655,-25.50052
11.633761406,-3.847778,30.86743,-20.65826,0.9746016,-0.04304295,0.2232989,-57.00758,-11.264,-27.04297
11.64375782,-3.970845,30.1552,-22.36544,0.9757167,-0.02454198,0.2247279,-57.00758,-11.264,-27.04297
11.653755188,-5.570708,29.32427,-24.31651,0.9751211,-0.01868735,0.2285561,-57.00758,-11.264,-27.04297
11.663751602,-7.662838,28.9088,-25.53592,0.979902,-0.01370278,0.2318964,-57.00758,-11.264,-27.04297
11.67374897,-10.12417,28.25592,-27.06019,0.9798821,-0.01278393,0.2261534,-57.00758,-11.264,-27.04297
11.683745861,-12.15476,27.78111,-28.88931,0.9750644,-0.01583424,0.2218553,-56.23532,-12.03271,-28.64585
11.693742275,-13.26236,27.18758,-31.2062,0.9738962,-0.03137235,0.22569,-56.23532,-12.03271,-28.64585
11.703739643,-13.01623,26.77212,-33.46212,0.9667323,-0.03938984,0.2146973,-56.23532,-12.03271,-28.64585
