Time (s),Gyroscope X (deg/s),Gyroscope Y (deg/s),Gyroscope Z (deg/s),Accelerometer X (g),Accelerometer Y (g),Accelerometer Z (g),Magnetometer X (uT),Magnetometer Y (uT),Magnetometer Z (uT)
35.13,5.020424,0.645634099999999,-4.491457,0.8990783,-0.009103088,0.4477532,-48.97015,-10.49184,-8.409943
35.14,2.904742,0.7634471,-4.30828,0.902019,-0.01150427,0.4472731,-48.97015,-10.49184,-8.409943
35.15,2.344709,1.352512,-4.002984,0.8962821,-0.02171638,0.4467538,-48.58313,-11.23162,-9.153
35.16,2.593612,1.823764,-3.026038,0.8910386,-0.03476245,0.4534679,-48.58313,-11.23162,-9.153
35.17,2.406934,1.529232,-2.293328,0.8822684,-0.03101202,0.4476628,-48.58313,-11.23162,-9.153
35.18,2.593612,1.175793,-1.743795,0.8954275,-0.03196065,0.4385263,-48.58313,-11.23162,-9.153
35.19,2.655838,0.8223537,-1.499558,0.896404,-0.03102905,0.4337053,-48.58313,-11.23162,-9.153
35.2,2.718064,0.999073199999999,-1.499558,0.9031732,-0.02710462,0.4337312,-48.58779,-11.57457,-7.946673
35.21,2.842516,1.234699,-1.682736,0.9060765,-0.02469295,0.430366,-48.58779,-11.57457,-7.946673
35.22,2.344709,1.293606,-2.171209,0.9045895,-0.02273363,0.4342268,-48.58779,-11.57457,-7.946673
35.23,1.286867,1.411419,-2.598624,0.9020945,-0.01738135,0.4395399,-48.58779,-11.57457,-7.946673
35.24,0.291252,0.940166700000002,-2.84286,0.9049941,-0.01401938,0.4342465,-48.58779,-11.57457,-7.946673
35.25,0.2290261,1.175793,-3.148156,0.9001752,-0.02076202,0.4419405,-48.57998,-11.58796,-8.768063
35.26,0.5401558,1.764858,-2.720742,0.8953903,-0.02949288,0.4438395,-48.57998,-11.58796,-8.768063
35.27,0.5401558,1.647045,-2.476505,0.8846794,-0.02905301,0.4481558,-48.57998,-11.58796,-8.768063
35.28,-0.1443296,1.470325,-2.354387,0.88028,-0.02384735,0.4389872,-48.57998,-11.58796,-8.768063
35.29,-1.015493,1.411419,-2.232268,0.8920228,-0.02916698,0.4293551,-48.57998,-11.58796,-8.768063
35.3,-0.5176854,1.764858,-2.232268,0.8973847,-0.03151852,0.4322591,-48.21728,-11.58415,-8.385479
35.31,0.5401558,1.882671,-2.354387,0.9070292,-0.02837265,0.4506276,-48.21728,-11.58415,-8.385479
35.32,1.100189,1.941577,-2.720742,0.9065011,-0.0207346,0.4395441,-48.21728,-11.58415,-8.385479
35.33,1.286867,2.118297,-3.148156,0.9089289,-0.02633418,0.4602879,-48.21728,-11.58415,-8.385479
35.34,0.913511500000001,2.295016,-3.453452,0.9035739,-0.02306739,0.4515952,-48.21728,-11.58415,-8.385479
35.35,0.04234824,2.766268,-3.392393,0.9054126,-0.01285497,0.4554823,-48.57684,-11.9443,-8.383125
35.36,-0.5176854,3.178614,-3.087097,0.9146848,-0.01665419,0.4554981,-48.57684,-11.9443,-8.383125
35.37,-1.637753,3.532053,-2.84286,0.915463,0.001345856,0.4651897,-48.57684,-11.9443,-8.383125
35.38,-2.508916,3.649866,-2.903919,0.9207143,0.008738319,0.4753527,-48.57684,-11.9443,-8.383125
35.39,-2.75782,4.592371,-3.209215,0.9251526,-0.0003474108,0.4835479,-48.57684,-11.9443,-8.383125
35.4,-2.322238,6.59519200000001,-3.331333,0.9295892,-0.008957991,0.4907791,-48.57323,-11.95048,-8.762228
35.41,-1.637753,8.83363899999998,-3.331333,0.9210438,-0.02799095,0.4805826,-48.57323,-11.95048,-8.762228
35.42,-2.695594,9.65833,-3.453452,0.9039704,-0.01760909,0.4660844,-48.57323,-11.95048,-8.762228
35.43,-4.562372,9.54051799999998,-3.880866,0.9071494,0.006604407,0.4651796,-48.57323,-11.95048,-8.762228
35.44,-5.495761,9.65833,-4.857812,0.9129992,0.003781508,0.469049,-48.57323,-11.95048,-8.762228
35.45,-3.940113,11.07209,-5.77370000000002,0.9235457,0.01842184,0.4734506,-47.89491,-12.31735,-8.750013
35.46,-1.264397,12.66256,-6.68958799999998,0.9190911,0.02662299,0.4744219,-47.89491,-12.31735,-8.750013
35.47,0.726833699999999,13.36944,-7.60547500000002,0.9093205,0.0295207,0.4821237,-47.89491,-12.31735,-8.750013
35.48,0.975737500000002,13.36944,-9.13195300000002,0.8932524,0.0318282,0.4835348,-47.89491,-12.31735,-8.750013
35.49,-0.2065556,13.36944,-10.90267,0.8796726,0.03115041,0.4738474,-47.89491,-12.31735,-8.750013
35.5,-3.380079,14.54757,-12.24597,0.8793036,0.07457561,0.4599459,-47.83026,-12.32393,-9.128536
35.51,-7.92257399999999,14.48866,-13.52821,0.8929592,0.07500365,0.4421277,-47.83026,-12.32393,-9.128536
35.52,-9.66490099999997,14.31194,-15.42105,0.9129126,0.1221815,0.4509665,-47.83026,-12.32393,-9.128536
35.53,-10.66052,14.25304,-17.49706,0.9390249,0.1868209,0.4588935,-47.83026,-12.32393,-9.128536
35.54,-11.46945,13.016,-20.55002,0.9560516,0.2265051,0.4976267,-47.83026,-12.32393,-9.128536
35.55,-11.90504,11.89678,-25.74005,0.9728847,0.230516,0.5517242,-48.18875,-12.33495,-9.953406
35.56,-14.14517,10.18849,-31.29643,0.9203916,0.2132024,0.6084923,-48.18875,-12.33495,-9.953406
35.57,-19.68328,11.24881,-36.12011,0.8774911,0.1666455,0.6343393,-48.18875,-12.33495,-9.953406
35.58,-27.83488,15.43117,-39.78365,0.8590201,0.1170551,0.6250166,-48.18875,-12.33495,-9.953406
35.59,-35.73758,23.50136,-42.83661,0.8840182,0.06149582,0.5607826,-48.18875,-12.33495,-9.953406
35.6,-39.16,29.80436,-44.91262,0.9031051,0.05793653,0.5255981,-47.80225,-13.01534,-10.76062
35.61,-40.65343,35.22376,-47.66029,0.9122009,0.08098236,0.4976833,-47.80225,-13.01534,-10.76062
35.62,-39.34668,37.81564,-50.40795,0.9476507,0.03615514,0.4870623,-47.80225,-13.01534,-10.76062
35.63,-31.94179,39.40612,-51.62913,0.9281418,0.002250212,0.4473701,-47.80225,-13.01534,-10.76062
35.64,-21.92341,38.99377,-53.39985,0.8827581,-0.02492328,0.4249974,-47.80225,-13.01534,-10.76062
35.65,-12.15394,35.51829,-53.33879,0.8727836,-0.005876764,0.4525179,-47.08506,-14.50172,-12.6896
35.66,-3.628983,32.39624,-53.39985,0.8629189,0.005304446,0.4665104,-47.08506,-14.50172,-12.6896
35.67,3.40255,28.50842,-52.36184,0.8544336,0.02519872,0.4795601,-47.08506,-14.50172,-12.6896
35.68,8.62952999999998,25.97544,-50.83536,0.8455718,0.08010132,0.5110209,-47.08506,-14.50172,-12.6896
35.69,11.30525,23.61917,-50.59113,0.8288032,0.1018711,0.5245358,-47.08506,-14.50172,-12.6896
35.7,10.62076,20.61494,-50.0416,0.8267183,0.1159201,0.5279385,-45.92559,-17.0108,-14.1557
35.71,6.07826600000002,18.78884,-49.06465,0.8336747,0.1541318,0.5198352,-45.92559,-17.0108,-14.1557
35.72,1.909127,17.31618,-50.59113,0.874507,0.1525762,0.5266929,-45.92559,-17.0108,-14.1557
35.73,-5.682439,16.31477,-49.49206,0.9193612,0.1967724,0.5056714,-45.92559,-17.0108,-14.1557
35.74,-7.86034799999999,13.60507,-56.26963,0.8694714,0.1939158,0.4471483,-45.92559,-17.0108,-14.1557
35.75,-10.53606,3.355334,-57.5518700000001,0.8452985,0.1508812,0.3654426,-45.13904,-19.50616,-14.93026
35.76,-16.19863,-8.36706299999998,-56.14751,0.8300159,0.06758854,0.3724624,-45.13904,-19.50616,-14.93026
35.77,-18.87434,-11.4302,-52.97243,0.8284199,0.009677015,0.4447161,-45.13904,-19.50616,-14.93026
35.78,-19.37215,-7.83690400000002,-50.16371,0.8342948,-0.009173939,0.4953583,-45.13904,-19.50616,-14.93026
35.79,-19.80773,-2.240785,-47.11075,0.8067417,-0.03241215,0.5179171,-44.04722,-22.00352,-15.70193
35.8,-22.67013,2.353923,-42.95873,0.7985612,-0.03931717,0.5106429,-44.04722,-22.00352,-15.70193
35.81,-23.54129,3.237521,-37.40235,0.7776158,-0.07377436,0.4646727,-44.04722,-22.00352,-15.70193
35.82,-20.67889,2.530643,-32.70079,0.7864056,-0.07852767,0.4666153,-44.04722,-22.00352,-15.70193
35.83,-13.89627,1.352512,-26.28958,0.7953725,-0.1026244,0.4699645,-44.04722,-22.00352,-15.70193
35.84,-8.29592900000002,-1.475,-20.00049,0.7822744,-0.1075047,0.4766759,-44.04722,-22.00352,-15.70193
35.85,-4.251243,-4.302513,-14.13881,0.7577352,-0.08722538,0.4925804,-43.27724,-23.82705,-16.0449
35.86,-0.8288152,-6.95330600000001,-7.666534,0.7551398,-0.07403846,0.5080435,-43.27724,-23.82705,-16.0449
35.87,1.846901,-7.777998,-2.232268,0.7621344,-0.05049077,0.5370651,-43.27724,-23.82705,-16.0449
35.88,4.584843,-6.83549300000001,2.957761,0.7972102,-0.01275085,0.5594341,-43.27724,-23.82705,-16.0449
35.89,6.824977,-5.18611,7.96461200000002,0.8264569,0.02727548,0.5721418,-42.53112,-24.55684,-16.02627
35.9,8.69175500000001,-3.949074,12.29981,0.8412103,0.05798046,0.5833445,-42.53112,-24.55684,-16.02627
35.91,9.81182300000002,-3.772354,16.63501,0.8322068,0.08735643,0.5751811,-42.53112,-24.55684,-16.02627
35.92,8.81620799999999,-4.597045,20.90915,0.816016,0.1088277,0.555401,-42.53112,-24.55684,-16.02627
35.93,5.95381400000002,-5.83408200000001,24.5727,0.8211988,0.13333,0.5313395,-42.53112,-24.55684,-16.02627
35.94,3.775905,-7.42455799999999,27.5646,0.8511532,0.1566835,0.5194033,-42.89541,-24.85038,-15.64578
35.95,2.158031,-8.83831500000002,29.15214,0.8503874,0.188086,0.5141608,-42.89541,-24.85038,-15.64578
35.96,-0.0821036699999998,-10.78223,29.33532,0.821867,0.2217706,0.5175375,-42.89541,-24.85038,-15.64578
35.97,-3.877887,-12.96177,28.60261,0.7887811,0.2206762,0.5319263,-42.89541,-24.85038,-15.64578
35.98,-5.246858,-14.43443,27.44249,0.7740835,0.1771246,0.5448235,-42.89541,-24.85038,-15.64578
35.99,-4.375694,-15.49475,27.74778,0.7891902,0.1201716,0.5486005,-42.54569,-24.18093,-15.21071
36,-1.637753,-16.37835,28.23626,0.8407809,0.06388634,0.5413743,-42.54569,-24.18093,-15.21071
36.01,2.904742,-16.55507,29.15214,0.8896823,0.03235374,0.5443279,-42.54569,-24.18093,-15.21071
36.02,10.86966,-16.02491,29.88485,0.934511,0.0201561,0.5482777,-42.54569,-24.18093,-15.21071
36.03,17.9012,-14.61115,30.12909,0.9539356,0.01896567,0.5603889,-42.54569,-24.18093,-15.21071
36.04,23.00372,-11.31239,29.5185,0.9330915,0.05914206,0.579241,-44.04513,-22.70898,-14.48976
36.05,24.24824,-6.36424099999997,28.41943,0.8878682,0.1059386,0.6019047,-44.04513,-22.70898,-14.48976
36.06,22.44369,-0.002337579,28.05308,0.839112,0.1658005,0.6274828,-44.04513,-22.70898,-14.48976
36.07,20.51469,7.06644399999999,28.96897,0.8525961,0.1691389,0.6637159,-44.04513,-22.70898,-14.48976
36.08,20.82582,13.95851,30.06803,0.8812481,0.1708627,0.6691015,-44.04513,-22.70898,-14.48976
36.09,20.20356,19.37791,32.38828,0.9218513,0.1450068,0.6648077,-44.43837,-21.66607,-13.68839
36.1,17.59007,23.50136,35.80759,0.9373944,0.1522029,0.6445962,-44.43837,-21.66607,-13.68839
36.11,12.98535,25.56309,37.88361,0.9443081,0.1514303,0.6069736,-44.43837,-21.66607,-13.68839
36.12,7.88281799999998,25.79872,38.12784,0.9401299,0.1380851,0.5799114,-44.43837,-21.66607,-13.68839
36.13,3.215872,24.09043,36.41819,0.9186257,0.1556521,0.5610743,-44.43837,-21.66607,-13.68839
36.14,0.664607699999999,23.14792,33.12099,0.8949518,0.1418553,0.5542278,-45.12914,-20.22503,-14.53949
36.15,-0.3932334,21.85198,27.99202,0.8527144,0.1305616,0.5724316,-45.12914,-20.22503,-14.53949
36.16,-0.3932334,25.20965,23.41258,0.8527529,0.1257444,0.574834,-45.12914,-20.22503,-14.53949
36.17,2.406934,32.27843,20.97021,0.8425735,0.1213489,0.5791413,-45.12914,-20.22503,-14.53949
36.18,6.824977,36.81424,20.17645,0.7861929,0.1143181,0.5992478,-45.12914,-20.22503,-14.53949
36.19,9.56291900000002,37.81564,18.77208,0.7691468,0.1147612,0.6093383,-45.14473,-18.79452,-15.76332
36.2,9.68737100000002,38.64034,17.24561,0.7866226,0.1149766,0.6180697,-45.14473,-18.79452,-15.76332
36.21,8.00726999999998,41.58566,16.39078,0.8012064,0.1122746,0.6277525,-45.14473,-18.79452,-15.76332
36.22,4.833747,44.00083,15.04748,0.8043345,0.0895578,0.6281943,-45.14473,-18.79452,-15.76332
36.23,2.344709,44.11864,16.02442,0.8185734,0.06762688,0.6523113,-45.14473,-18.79452,-15.76332
36.24,6.38939600000002,43.94192,17.8562,0.7735028,0.103602,0.6556502,-44.79034,-17.78211,-16.53458
36.25,10.80744,43.11723,19.07738,0.7893623,0.1099549,0.7020295,-44.79034,-17.78211,-16.53458
36.26,12.17641,44.35427,18.22255,0.8318756,0.1327328,0.7224551,-44.79034,-17.78211,-16.53458
36.27,8.75398199999999,48.59554,15.29171,0.8815275,0.1790516,0.7178573,-44.79034,-17.78211,-16.53458
36.28,-0.4554594,54.78072,11.44499,0.9211105,0.2159212,0.6939111,-44.79034,-17.78211,-16.53458
36.29,-12.46507,59.5521499999999,7.231902,0.9388006,0.2545556,0.6699124,-44.76751,-17.82127,-18.93556
36.3,-27.77265,62.2029399999999,3.568352,0.9335412,0.2495345,0.6544465,-44.76751,-17.82127,-18.93556
36.31,-42.20908,62.6741899999997,0.2100982,0.9192908,0.2201843,0.6321494,-44.76751,-17.82127,-18.93556
36.32,-52.16523,59.2576199999999,-4.979931,0.8975943,0.1638864,0.5798572,-44.76751,-17.82127,-18.93556
36.33,-56.02324,52.7779,-9.37618999999999,0.8723344,0.1216919,0.5382021,-44.76751,-17.82127,-18.93556
36.34,-55.33875,44.70771,-13.89457,0.8318331,0.03425606,0.5369446,-44.08918,-16.78442,-21.78996
36.35,-50.36068,38.64034,-16.52011,0.7950054,-0.03743191,0.5613055,-44.08918,-16.78442,-21.78996
36.36,-41.83572,38.46362,-18.84036,0.7604305,-0.05344454,0.6393548,-44.08918,-16.78442,-21.78996
36.37,-31.75511,45.06115,-22.32073,0.750866,-0.02335623,0.6567665,-44.08918,-16.78442,-21.78996
36.38,-23.10571,52.48337,-25.0684,0.7727606,0.05781347,0.7298624,-43.72593,-15.43629,-24.20983
36.39,-25.90587,63.4988899999999,-28.30453,0.8240544,0.1799135,0.7553497,-43.72593,-15.43629,-24.20983
36.4,-32.56405,69.0949999999999,-32.33443,0.8343691,0.2916598,0.6885422,-43.72593,-15.43629,-24.20983
36.41,-41.33791,64.8537400000002,-42.28708,0.775936,0.4019471,0.5202191,-43.72593,-15.43629,-24.20983
36.42,-51.54297,42.58707,-48.14876,0.678636,0.3914005,0.4017211,-43.72593,-15.43629,-24.20983
36.43,-61.0013099999999,23.91371,-53.39985,0.587019,0.3099098,0.4061351,-43.72593,-15.43629,-24.20983
36.44,-67.0994599999998,11.89678,-57.00234,0.5445821,0.2158636,0.4246428,-41.84523,-16.52682,-27.33508
36.45,-67.2239099999999,4.94581,-60.0553,0.5504194,0.1048161,0.4480641,-41.84523,-16.52682,-27.33508
36.46,-63.1169900000002,0.8223537,-61.2154200000002,0.545265,0.02561894,0.4710428,-41.84523,-16.52682,-27.33508
36.47,-54.52981,-4.125793,-64.3905000000001,0.5609336,-0.08946506,0.4679405,-41.84523,-16.52682,-27.33508
36.48,-40.52897,-10.31098,-69.2752299999999,0.5633038,-0.09112322,0.4964135,-40.04878,-16.93379,-29.33431
36.49,-32.4396,-17.55648,-71.1070000000001,0.5707681,-0.114616,0.5142365,-40.04878,-16.93379,-29.33431
36.5,-27.15039,-25.33214,-72.4503099999998,0.5965648,-0.1248419,0.5384085,-40.04878,-16.93379,-29.33431
36.51,-18.87434,-32.2242,-73.2440800000001,0.6307505,-0.1066083,0.598372,-40.04878,-16.93379,-29.33431
36.52,-5.931343,-33.69686,-76.8465700000001,0.6914847,-0.1144808,0.6385632,-40.04878,-16.93379,-29.33431
36.53,8.00726999999998,-34.22702,-74.7094999999998,0.73389,-0.09463011,0.7096499,-39.28917,-18.38862,-29.30401
36.54,10.86966,-31.39951,-72.7556000000002,0.7928575,-0.03188695,0.8001735,-39.28917,-18.38862,-29.30401
36.55,-3.940113,-19.67711,-65.4285,0.8522621,0.09547167,0.8647795,-39.28917,-18.38862,-29.30401
36.56,-28.51937,-10.19316,-56.94128,0.7824519,0.2421624,0.8243807,-39.28917,-18.38862,-29.30401
36.57,-52.47636,-13.72756,-55.78115,0.7224913,0.3343763,0.7452863,-39.28917,-18.38862,-29.30401
36.58,-67.7217199999997,-23.27041,-59.9331799999997,0.6950258,0.3987492,0.6102402,-38.89174,-20.84246,-27.68107
36.59,-71.2063699999997,-35.64078,-60.6658899999998,0.7003706,0.3336799,0.4750004,-38.89174,-20.84246,-27.68107
36.6,-72.9486899999999,-59.6746400000001,-57.18552,0.5829075,0.194175,0.3484523,-38.89174,-20.84246,-27.68107
36.61,-69.6507199999997,-83.8263100000001,-51.0796,0.4939054,0.04295453,0.3459675,-38.89174,-20.84246,-27.68107
36.62,-55.52543,-95.1952699999999,-49.12571,0.5507961,-0.1443798,0.4513897,-38.89174,-20.84246,-27.68107
36.63,-32.93741,-96.7857400000002,-41.73755,0.6278037,-0.2618956,0.6071989,-38.50375,-22.22729,-27.21294
36.64,-16.1364,-84.70991,-39.84471,0.7682491,-0.3249219,0.8467699,-38.50375,-22.22729,-27.21294
36.65,-1.82443,-65.7419999999999,-36.85281,0.8568938,-0.3161626,0.9358063,-38.50375,-22.22729,-27.21294
36.66,13.85651,-49.48381,-34.22727,0.899582,-0.232325,0.8588888,-38.50375,-22.22729,-27.21294
36.67,28.66629,-42.82737,-33.1282,0.8628765,-0.03375139,0.8013151,-38.50375,-22.22729,-27.21294
36.68,23.93711,-58.2019699999998,-13.4061,0.8754775,-0.0714461,0.5836371,-39.6057,-23.61873,-24.04085
36.69,22.19479,-61.6185499999999,-7.666534,0.9538071,-0.1081048,0.6894385,-39.6057,-23.61873,-24.04085
36.7,13.17202,-59.6746400000001,7.29296200000002,0.8737273,0.04246077,0.65819,-39.6057,-23.61873,-24.04085
36.71,3.589228,-55.37446,11.20075,0.9299545,0.03545869,0.7446963,-39.6057,-23.61873,-24.04085
36.72,-3.940113,-36.34766,7.41507999999999,0.8862745,0.2035832,0.8568963,-39.6057,-23.61873,-24.04085
36.73,-9.47822299999997,-38.35048,13.45994,0.9417973,0.09332281,0.6584749,-40.33727,-24.66857,-22.00843
36.74,-14.64298,-31.10498,14.8643,0.960465,0.02883974,0.6294315,-40.33727,-24.66857,-22.00843
36.75,-12.09171,-26.33355,16.45184,0.8958164,0.0009229467,0.5418634,-40.33727,-24.66857,-22.00843
36.76,-6.304699,-23.56494,17.5509,0.8700318,-0.08965304,0.5020332,-40.33727,-24.66857,-22.00843
36.77,1.100189,-22.44572,20.2375,0.8639416,-0.118597,0.5173968,-40.33727,-24.66857,-22.00843
36.78,7.88281799999998,-21.03196,21.33657,0.874082,-0.1136037,0.525637,-41.07567,-24.94635,-20.81003
36.79,15.97219,-19.08805,22.43563,0.8883286,-0.08330317,0.546006,-41.07567,-24.94635,-20.81003
36.8,21.63475,-17.02632,23.35152,0.8920881,-0.02120971,0.559178,-41.07567,-24.94635,-20.81003
36.81,24.24824,-12.25489,22.00822,0.8785706,0.1192014,0.5782644,-41.07567,-24.94635,-20.81003
36.82,21.7592,-10.66442,17.30666,0.8928729,0.2627429,0.545314,-41.07567,-24.94635,-20.81003
36.83,14.16764,-12.43161,13.521,0.9070681,0.3021239,0.553156,-42.8767,-23.88815,-19.64289
36.84,4.522617,-13.07958,11.38393,0.9042091,0.2887794,0.5782125,-42.8767,-23.88815,-19.64289
36.85,-3.566757,-11.01786,9.735329,0.8779452,0.2316748,0.6007018,-42.8767,-23.88815,-19.64289
36.86,-8.73151100000002,-8.54378199999999,8.94155999999999,0.86023,0.1535284,0.5903546,-42.8767,-23.88815,-19.64289
36.87,-10.22493,-6.24642799999998,8.758382,0.8439466,0.07782618,0.5814639,-42.8767,-23.88815,-19.64289
36.88,-9.22931900000003,-4.36142,8.57520400000001,0.8409563,0.03798283,0.5664116,-42.89487,-23.50606,-18.44823
36.89,-6.740281,-3.360009,7.84249399999999,0.8473899,0.03202801,0.5447007,-42.89487,-23.50606,-18.44823
36.9,-3.753435,-3.360009,6.80448800000001,0.8610846,0.02716804,0.5307316,-42.89487,-23.50606,-18.44823
36.91,-1.077719,-3.301102,6.49919199999998,0.8596891,0.02085264,0.5292668,-42.89487,-23.50606,-18.44823
36.92,0.602381800000001,-3.124383,6.31601500000002,0.8610321,0.03484494,0.5235098,-42.89487,-23.50606,-18.44823
36.93,1.784675,-2.653131,5.82754100000001,0.8743937,0.06297438,0.5187792,-42.90476,-22.7872,-18.83901
36.94,2.033579,-2.122972,4.789536,0.8703527,0.08126704,0.5115699,-42.90476,-22.7872,-18.83901
36.95,1.100189,-1.533907,4.056826,0.8741992,0.08706493,0.5072494,-42.90476,-22.7872,-18.83901
36.96,0.04234824,-0.885935200000002,3.507293,0.8689929,0.07624125,0.4922536,-42.90476,-22.7872,-18.83901
36.97,-0.4554594,-0.885935200000002,2.835642,0.8667275,0.05691829,0.4979968,-42.90476,-22.7872,-18.83901
36.98,-0.2065556,-1.121561,2.957761,0.8640324,0.03459166,0.4931164,-43.27106,-22.78482,-18.84249
36.99,0.2290261,-0.6503092,3.263057,0.8597851,0.01912923,0.4993453,-43.27106,-22.78482,-18.84249
37,2.531386,-0.2379636,2.713524,0.8516229,0.05879328,0.504235,-43.27106,-22.78482,-18.84249
37.01,2.593612,-0.944841800000002,0.881749099999998,0.8560404,0.109537,0.4927743,-43.27106,-22.78482,-18.84249
37.02,1.535771,-3.477822,-0.8279076,0.8558761,0.1246172,0.5014923,-43.27106,-22.78482,-18.84249
37.03,-0.1443296,-5.480643,-1.316381,0.8540806,0.1067586,0.5082049,-43.28143,-22.41612,-18.46922
37.04,-2.384464,-6.36424099999997,-1.682736,0.8455577,0.07967875,0.5177757,-43.28143,-22.41612,-18.46922
37.05,-2.197786,-6.54095999999998,-1.072144,0.8336558,0.05155631,0.5220274,-43.28143,-22.41612,-18.46922
37.06,-0.2065556,-6.01080199999999,-1.011085,0.8239728,0.04619242,0.5258514,-43.28143,-22.41612,-18.46922
37.07,1.224641,-5.775176,-1.133204,0.8182919,0.08195595,0.525431,-43.28143,-22.41612,-18.46922
37.08,0.726833699999999,-6.54095999999998,-2.171209,0.8290313,0.129458,0.5245957,-42.91512,-22.41849,-18.46574
37.09,-2.695594,-5.89298899999999,-4.857812,0.8621277,0.2233074,0.5456325,-42.91512,-22.41849,-18.46574
37.1,-9.789352,-6.59986700000002,-7.60547500000002,0.8813565,0.2541843,0.5187257,-42.91512,-22.41849,-18.46574
37.11,-18.0654,-9.721912,-9.55936799999998,0.8628172,0.2179507,0.4881994,-42.91512,-22.41849,-18.46574
37.12,-22.6079,-11.84255,-10.29208,0.8280182,0.1408409,0.5000076,-43.64773,-22.41374,-18.4727
37.13,-21.79896,-11.37129,-10.23102,0.8049328,0.0585079,0.5127999,-43.64773,-22.41374,-18.4727
37.14,-17.87873,-9.54519299999999,-9.742545,0.8135664,0.01326852,0.5329919,-43.64773,-22.41374,-18.4727
37.15,-14.89188,-6.24642799999998,-10.47526,0.8461019,0.01738529,0.5321196,-43.64773,-22.41374,-18.4727
37.16,-13.14955,-3.654541,-10.90267,0.8832373,0.04256738,0.5554319,-43.64773,-22.41374,-18.4727
37.17,-12.27839,-0.2968701,-11.14691,0.8987225,0.0970531,0.5734432,-43.64773,-22.41374,-18.4727
37.18,-13.27401,2.000484,-13.65033,0.9033285,0.1820797,0.5533709,-43.64773,-22.41374,-18.4727
37.19,-19.43438,1.882671,-16.45905,0.9016761,0.207096,0.5384614,-43.64773,-22.41374,-18.4727
37.2,-26.59036,2.412829,-19.75625,0.8959608,0.1930608,0.5432419,-43.64773,-22.41374,-18.4727
37.21,-31.0084,4.76909,-22.56497,0.9124709,0.144742,0.5373901,-43.64773,-22.41374,-18.4727
37.22,-32.56405,8.656919,-24.45781,0.9457213,0.1213758,0.5470765,-43.27827,-22.77246,-18.08428
37.23,-32.1907,13.31053,-25.31263,0.9849356,0.07886518,0.5750741,-43.27827,-22.77246,-18.08428
37.24,-33.8708,18.84775,-25.49581,1.019157,0.055511,0.5852457,-43.27827,-22.77246,-18.08428
37.25,-34.86641,29.45092,-26.04534,1.035446,0.03230756,0.5741392,-43.27827,-22.77246,-18.08428
37.26,-33.06186,36.69642,-25.0684,1.053097,0.02209793,0.5538957,-43.27827,-22.77246,-18.08428
37.27,-29.95056,42.05692,-24.03039,1.065001,0.04364712,0.571827,-42.52029,-23.17167,-20.03018
37.28,-28.39491,46.71053,-24.51886,1.028089,0.07909579,0.6166852,-42.52029,-23.17167,-20.03018
37.29,-28.95495,50.89289,-25.61793,1.008421,0.09375061,0.6485141,-42.52029,-23.17167,-20.03018
37.3,-30.5106,55.78213,-25.92323,0.9791331,0.09955339,0.6730611,-42.52029,-23.17167,-20.03018
37.31,-32.37737,60.5535600000001,-27.08335,0.9542876,0.1037589,0.6778315,-42.52029,-23.17167,-20.03018
37.32,-35.42645,66.91547,-28.18242,0.9616796,0.1421409,0.6880666,-41.7617,-23.57191,-22.03927
37.33,-38.16439,74.3965900000001,-29.58677,0.9811498,0.1925884,0.6843649,-41.7617,-23.57191,-22.03927
37.34,-42.33353,79.7570800000001,-30.01419,0.9819451,0.2128766,0.6795851,-41.7617,-23.57191,-22.03927
37.35,-46.87602,83.5860100000003,-29.64783,0.9716841,0.1710319,0.6635445,-41.7617,-23.57191,-22.03927
37.36,-51.72964,86.0011699999999,-28.18242,0.941049,0.1209153,0.6599799,-41.7617,-23.57191,-22.03927
37.37,-51.60519,89.0643200000002,-25.98428,0.9450755,0.09563558,0.6970922,-39.94348,-24.36716,-25.61226
37.38,-50.54735,96.1920000000003,-23.1145,0.937958,0.06498937,0.7389897,-39.94348,-24.36716,-25.61226
37.39,-48.92948,102.6128,-23.96933,0.9609665,0.03977877,0.7674653,-39.94348,-24.36716,-25.61226
37.4,-46.87602,108.2678,-24.15251,0.9558002,0.05997566,0.8109247,-39.94348,-24.36716,-25.61226
37.41,-45.44482,112.7447,-23.84721,0.9473373,0.07651322,0.8273451,-39.94348,-24.36716,-25.61226
37.42,-42.64466,117.4573,-26.1064,0.926353,0.08646844,0.8224869,-38.12735,-24.45694,-30.39741
37.43,-39.16,121.2273,-26.16746,0.9271119,0.09702819,0.8654584,-38.12735,-24.45694,-30.39741
37.44,-31.94179,127.1179,-27.57182,0.9219932,0.02005785,0.8672099,-38.12735,-24.45694,-30.39741
37.45,-27.77265,132.1839,-24.09145,0.9137529,0.0585725,0.9053929,-38.12735,-24.45694,-30.39741
37.46,-24.97249,136.3073,-26.04534,0.8851227,0.0007678419,0.9061599,-38.12735,-24.45694,-30.39741
37.47,-22.359,139.3116,-25.31263,0.8268779,-0.09839406,0.8546463,-34.12689,-23.83593,-35.17334
37.48,-16.94534,143.3761,-20.24472,0.7509705,-0.04272985,0.867599,-34.12689,-23.83593,-35.17334
37.49,-13.14955,144.2597,-17.7413,0.7338021,-0.02687596,0.869519,-34.12689,-23.83593,-35.17334
37.5,-11.84281,145.9091,-13.77245,0.7386251,0.02601319,0.8807438,-34.12689,-23.83593,-35.17334
37.51,-12.02949,150.8572,-11.20796,0.7398164,-0.000964486,0.8932351,-34.12689,-23.83593,-35.17334
37.52,-9.22931900000003,155.2163,-9.80360399999999,0.7065085,-0.003871783,0.81497,-29.3554,-24.68933,-41.11947
37.53,-8.980414,156.9246,-6.50640999999998,0.7223369,-0.05014231,0.87523,-29.3554,-24.68933,-41.11947
37.54,-11.78058,159.9288,-0.644730100000001,0.6942065,-0.003005119,0.867538,-29.3554,-24.68933,-41.11947
37.55,-6.80250599999998,159.3987,-6.20111400000002,0.6039534,0.001381897,0.7886592,-29.3554,-24.68933,-41.11947
37.56,5.82936200000002,160.6357,-2.84286,0.5734552,-0.0410141,0.8888596,-29.3554,-24.68933,-41.11947
37.57,4.149261,162.344,-2.171209,0.5836637,0.05372998,0.9214203,-24.32849,-24.05547,-44.68505
37.58,6.513847,166.5264,3.079879,0.5340309,0.0727365,0.8721132,-24.32849,-24.05547,-44.68505
37.59,7.136107,168.7648,0.02692074,0.4964893,0.0831299,0.8763817,-24.32849,-24.05547,-44.68505
37.6,-0.0821036699999998,170.1786,-0.583670900000002,0.5024319,0.07906312,0.8498482,-24.32849,-24.05547,-44.68505
37.61,-5.246858,172.8883,1.980814,0.4569829,0.06711198,0.798555,-24.32849,-24.05547,-44.68505
37.62,-7.42476599999998,171.2389,6.987666,0.3620132,0.03440367,0.7953445,-17.43944,-24.88975,-48.589
37.63,-8.66928500000002,167.2332,12.23875,0.276361,0.04156176,0.8043075,-17.43944,-24.88975,-48.589
37.64,-8.54483300000002,165.4072,11.93346,0.290033,0.0184864,0.8626815,-17.43944,-24.88975,-48.589
37.65,-9.97603000000001,169.1183,11.01757,0.2776875,0.03872469,0.8636582,-17.43944,-24.88975,-48.589
37.66,-12.02949,169.8251,9.12473700000001,0.3033254,-0.001661058,0.8708757,-17.43944,-24.88975,-48.589
37.67,-12.02949,169.4717,8.14779000000001,0.2411246,-0.009718466,0.8895174,-11.01196,-24.25882,-51.76213
37.68,-12.71397,165.2304,11.26181,0.1891674,-0.009371328,0.8657393,-11.01196,-24.25882,-51.76213
37.69,-11.53168,167.3511,13.94841,0.1565056,0.02980559,0.9443946,-11.01196,-24.25882,-51.76213
37.7,-13.46068,170.4142,14.19265,0.1519504,0.04959439,0.9424953,-11.01196,-24.25882,-51.76213
37.71,-18.31431,172.5938,13.45994,0.1971774,0.004192643,0.9135614,-11.01196,-24.25882,-51.76213
37.72,-22.29677,173.4184,13.09358,0.1158032,0.0323397,0.8854242,-3.06708,-23.97351,-53.27216
37.73,-17.87873,166.6442,12.97146,0.007483392,0.02043805,0.8933226,-3.06708,-23.97351,-53.27216
37.74,-19.93218,167.1154,13.521,-0.01053768,0.02557251,0.8879791,-3.06708,-23.97351,-53.27216
37.75,-19.55883,164.5235,14.559,-0.07906241,0.03295734,0.8540398,-3.06708,-23.97351,-53.27216
37.76,-18.62544,160.2234,15.9023,-0.1007176,0.002985482,0.8761168,-3.06708,-23.97351,-53.27216
37.77,-18.43876,158.3973,19.68797,-0.1210563,-0.0002438654,0.8577206,4.07378,-23.31435,-54.41644
37.78,-19.43438,156.0999,20.60386,-0.1415665,-0.04344031,0.8614352,4.07378,-23.31435,-54.41644
37.79,-19.30992,156.4534,21.94716,-0.1662453,-0.0355631,0.7909364,4.07378,-23.31435,-54.41644
37.8,-18.37654,152.271,23.5347,-0.2065406,-0.04026831,0.786962,4.07378,-23.31435,-54.41644
37.81,-17.50537,146.8516,22.25246,-0.2223766,-0.05795463,0.7714415,4.07378,-23.31435,-54.41644
37.82,-13.89627,141.1377,23.2294,-0.2267145,-0.05904862,0.7612945,11.61506,-21.61743,-54.75182
37.83,-12.65175,138.3691,25.48859,-0.2783833,-0.0364727,0.7337044,11.61506,-21.61743,-54.75182
37.84,-16.19863,134.3634,26.40448,-0.3679348,-0.07218734,0.7145773,11.61506,-21.61743,-54.75182
37.85,-11.84281,129.592,29.33532,-0.3682902,-0.08809895,0.7212978,11.61506,-21.61743,-54.75182
37.86,-5.495761,123.1123,30.61756,-0.3946549,-0.08604832,0.7564603,18.06468,-21.27111,-53.11657
37.87,-0.2687815,117.7518,31.41133,-0.435335,-0.1075059,0.7731985,18.06468,-21.27111,-53.11657
37.88,4.771521,114.9832,32.93781,-0.4501443,-0.08483196,0.7780346,18.06468,-21.27111,-53.11657
37.89,6.14049099999999,115.3955,34.159,-0.45648,-0.07638554,0.7543915,18.06468,-21.27111,-53.11657
37.9,7.385011,113.805,35.31912,-0.4640136,-0.05594717,0.7732353,18.06468,-21.27111,-53.11657
37.91,9.93627500000003,109.6816,35.62442,-0.4882149,-0.07289423,0.7929211,24.16196,-21.2973,-52.23717
37.92,11.49192,110.2118,35.68547,-0.4938664,-0.04191726,0.7982811,24.16196,-21.2973,-52.23717
37.93,10.80744,112.0378,35.62442,-0.4707442,0.02903841,0.811522,24.16196,-21.2973,-52.23717
37.94,9.50069300000002,111.5666,36.11289,-0.5390674,0.1149476,0.7912635,24.16196,-21.2973,-52.23717
37.95,7.073881,110.5652,36.05183,-0.5084364,0.1142276,0.7923061,24.16196,-21.2973,-52.23717
37.96,2.842516,113.6283,35.31912,-0.5930569,0.1249491,0.7665358,28.05314,-21.646,-49.79324
37.97,-0.1443296,108.9747,36.23501,-0.5953628,0.1156087,0.7525159,28.05314,-21.646,-49.79324
37.98,-2.820045,106.3239,37.63937,-0.6047102,0.07396436,0.7577102,28.05314,-21.646,-49.79324
37.99,-1.82443,104.0266,39.59326,-0.5716032,0.03586423,0.6906394,28.05314,-21.646,-49.79324
38,-3.131175,101.1991,40.02068,-0.6130926,0.0119858,0.6547725,28.05314,-21.646,-49.79324
38.01,-6.304699,98.4304499999999,39.34903,-0.6648756,0.009413855,0.575978,32.38518,-22.72251,-47.33356
38.02,-2.571142,92.7754200000002,36.60136,-0.7179526,-0.02560241,0.5492256,32.38518,-22.72251,-47.33356
38.03,5.020424,88.5930600000002,37.63937,-0.6760176,-0.03930522,0.5497868,32.38518,-22.72251,-47.33356
38.04,8.44285199999998,84.8230399999999,38.12784,-0.6802557,0.0007416545,0.540211,32.38518,-22.72251,-47.33356
38.05,8.75398199999999,80.4050500000002,38.12784,-0.6624932,0.01099849,0.5885338,32.38518,-22.72251,-47.33356
38.06,9.43846700000002,81.7598999999999,38.73843,-0.727484,0.1074839,0.5576905,35.23737,-23.00406,-44.90045
38.07,8.25617399999998,76.51723,35.92971,-0.7351013,0.1281983,0.6069353,35.23737,-23.00406,-44.90045
38.08,7.88281799999998,70.98001,35.197,-0.7576281,0.1571789,0.566888,35.23737,-23.00406,-44.90045
38.09,8.75398199999999,68.1525000000003,30.43439,-0.7767828,0.07192457,0.574376,35.23737,-23.00406,-44.90045
38.1,11.24302,61.31934,28.90791,-0.7809311,0.1470493,0.5904509,35.23737,-23.00406,-44.90045
38.11,11.05634,62.4385700000002,28.35837,-0.7597239,0.1124407,0.598152,37.75559,-24.80096,-42.8888
38.12,7.571689,59.9644899999997,26.28236,-0.806469,0.1278134,0.5724894,37.75559,-24.80096,-42.8888
38.13,5.082651,53.95603,22.13034,-0.7974173,0.04367686,0.5723319,37.75559,-24.80096,-42.8888
38.14,5.70491,51.77649,19.81009,-0.7848,0.04853578,0.5636891,37.75559,-24.80096,-42.8888
38.15,9.43846700000002,45.00224,19.62691,-0.7907546,0.05498708,0.5863673,37.75559,-24.80096,-42.8888
38.16,13.42093,47.53522,20.29856,-0.7896369,0.1048961,0.5391877,39.96008,-26.1719,-40.82367
38.17,12.98535,45.41459,22.43563,-0.7407635,0.1695278,0.5799868,39.96008,-26.1719,-40.82367
38.18,5.642684,45.94474,22.67987,-0.7917215,0.1763594,0.5234119,39.96008,-26.1719,-40.82367
38.19,-0.766589199999999,40.40753,20.17645,-0.8368846,0.1254785,0.5014713,39.96008,-26.1719,-40.82367
38.2,-0.3932334,33.57438,17.48984,-0.8326985,0.1053003,0.4609046,39.96008,-26.1719,-40.82367
38.21,2.966968,25.09184,12.60511,-0.8055707,0.1194236,0.4474936,41.7394,-27.25136,-39.58885
38.22,4.709295,22.44105,9.12473700000001,-0.8190864,0.05924253,0.4400911,41.7394,-27.25136,-39.58885
38.23,10.55853,19.26009,8.26990900000001,-0.8682844,0.06763549,0.4472205,41.7394,-27.25136,-39.58885
38.24,18.77236,18.90665,10.04062,-0.863117,0.08233924,0.4631896,41.7394,-27.25136,-39.58885
38.25,22.19479,13.54616,11.68922,-0.831978,0.1574567,0.5546331,41.7394,-27.25136,-39.58885
38.26,17.52784,12.48584,9.307915,-0.8313754,0.142538,0.5632884,42.10104,-27.59668,-38.37905
38.27,10.99412,9.12817200000001,8.63626400000003,-0.8399732,0.1773416,0.5662364,42.10104,-27.59668,-38.37905
38.28,4.024809,4.062212,5.15589,-0.8274242,0.1852398,0.5725589,42.10104,-27.59668,-38.37905
38.29,0.353478,0.174382,1.309163,-0.8276495,0.1599892,0.5633355,42.10104,-27.59668,-38.37905
38.3,-0.891041099999997,-0.944841800000002,-0.0951975900000001,-0.8331433,0.1283403,0.5468467,42.10104,-27.59668,-38.37905
38.31,3.029194,-5.009391,-1.316381,-0.8474063,0.1573854,0.5068208,42.10419,-27.95302,-37.99411
38.32,6.26494400000002,-10.31098,-3.819807,-0.8531419,0.1391965,0.5337896,42.10419,-27.95302,-37.99411
38.33,9.37624199999999,-12.25489,-4.186162,-0.8230632,0.1522914,0.5112156,42.10419,-27.95302,-37.99411
38.34,9.56291900000002,-16.14272,-4.430398,-0.7835053,0.1798639,0.5292311,42.10419,-27.95302,-37.99411
38.35,5.642684,-19.14695,-5.895818,-0.8004131,0.1751612,0.5055326,42.10419,-27.95302,-37.99411
38.36,1.162415,-23.1526,-6.68958799999998,-0.8313165,0.1592271,0.4827388,42.4804,-28.67426,-37.59986
38.37,-2.44669,-28.15965,-6.872765,-0.8340547,0.1445467,0.4672587,42.4804,-28.67426,-37.59986
38.38,-3.628983,-32.98999,-7.72759299999999,-0.8489407,0.1381971,0.4203994,42.4804,-28.67426,-37.59986
38.39,-3.131175,-39.29298,-9.86466400000001,-0.851305,0.1346768,0.4078394,42.4804,-28.67426,-37.59986
38.4,-2.75782,-46.95083,-13.95563,-0.8263504,0.1160415,0.4126892,42.4804,-28.67426,-37.59986
38.41,-2.633368,-53.54836,-17.55812,-0.7762689,0.1088869,0.4345177,42.13053,-28.99253,-38.73579
38.42,-2.011108,-59.7924499999998,-21.7712,-0.7594796,0.1233599,0.4683705,42.13053,-28.99253,-38.73579
38.43,-0.1443296,-70.74906,-23.54192,-0.8004441,0.1201927,0.5276116,42.13053,-28.99253,-38.73579
38.44,1.971353,-74.4012699999999,-24.88522,-0.7860942,0.1365518,0.5580844,42.13053,-28.99253,-38.73579
38.45,3.09142,-76.6986199999998,-24.7631,-0.7908106,0.1097739,0.5975836,41.03486,-28.34757,-40.3997
38.46,4.398165,-75.8150199999999,-22.93133,-0.798811,0.140931,0.5715724,41.03486,-28.34757,-40.3997
38.47,1.597997,-81.1755099999999,-22.93133,-0.7946361,0.1585088,0.5851323,41.03486,-28.34757,-40.3997
38.48,-5.309083,-88.5977300000003,-25.12946,-0.7940266,0.1524777,0.5600283,41.03486,-28.34757,-40.3997
38.49,-10.97165,-95.3719900000002,-27.99924,-0.7616495,0.1259639,0.5436482,41.03486,-28.34757,-40.3997
38.5,-14.89188,-102.6764,-29.52572,-0.7507479,0.1023838,0.5489336,38.89959,-27.63443,-42.01127
38.51,-16.94534,-112.6905,-29.89207,-0.7229342,0.09005775,0.5533218,38.89959,-27.63443,-42.01127
38.52,-16.32308,-116.9907,-29.83101,-0.6851633,0.0969294,0.5847996,38.89959,-27.63443,-42.01127
38.53,-15.26524,-122.1745,-29.34254,-0.6268807,0.1549655,0.5841096,38.89959,-27.63443,-42.01127
38.54,-14.64298,-126.0034,-31.90702,-0.6067199,0.179417,0.5948303,38.89959,-27.63443,-42.01127
38.55,-14.33185,-128.4774,-32.45655,-0.563312,0.1680224,0.5818889,36.05094,-26.94952,-45.65168
38.56,-15.32746,-133.9558,-35.38739,-0.6015846,0.09956149,0.5898464,36.05094,-26.94952,-45.65168
38.57,-16.07417,-142.7328,-37.15811,-0.6138988,0.003458101,0.6224213,36.05094,-26.94952,-45.65168
38.58,-11.0961,-143.911,-37.21917,-0.5912392,-0.06649294,0.5740744,36.05094,-26.94952,-45.65168
38.59,-2.695594,-150.803,-34.65468,-0.5741943,-0.06927678,0.5726648,36.05094,-26.94952,-45.65168
38.6,3.775905,-162.2898,-32.51761,-0.5626668,-0.05653384,0.5804427,32.08318,-25.57946,-48.49183
38.61,11.18079,-173.7766,-28.97618,-0.5168011,-0.03731581,0.6322351,32.08318,-25.57946,-48.49183
38.62,17.65229,-181.3166,-23.90827,-0.472699,-0.04872416,0.7235259,32.08318,-25.57946,-48.49183
38.63,22.19479,-176.9575,-21.7712,-0.3941036,-0.05041706,0.7893516,32.08318,-25.57946,-48.49183
38.64,25.36831,-168.4161,-20.91637,-0.3726051,-0.02696341,0.848811,32.08318,-25.57946,-48.49183
38.65,27.48399,-165.2351,-17.31388,-0.3926407,0.08337,0.8654032,26.72003,-24.85874,-50.95554
38.66,24.74605,-167.2968,-17.86341,-0.3929712,0.1718906,0.8612498,26.72003,-24.85874,-50.95554
38.67,20.01688,-171.8916,-19.02354,-0.330447,0.1936197,0.8556671,26.72003,-24.85874,-50.95554
38.68,14.91435,-178.6658,-20.18366,-0.2778463,0.1899435,0.83215,26.72003,-24.85874,-50.95554
38.69,11.6786,-185.499,-15.72634,-0.2239161,0.1517986,0.7955334,26.72003,-24.85874,-50.95554
38.7,10.62076,-190.7416,-10.29208,-0.1667661,0.0676546,0.8065985,19.54515,-25.56386,-52.65509
38.71,10.62076,-188.9744,-8.21606599999997,-0.0179949,-0.03811941,0.8086849,19.54515,-25.56386,-52.65509
38.72,14.97658,-183.4372,-6.14005499999998,0.01760511,-0.1087669,0.8322698,19.54515,-25.56386,-52.65509
38.73,26.3017,-177.9589,-3.209215,0.04664961,-0.1594567,0.8742175,19.54515,-25.56386,-52.65509
38.74,39.68028,-174.4834,2.530346,0.02558551,-0.1063612,0.930253,19.54515,-25.56386,-52.65509
38.75,48.39191,-170.8312,8.45308599999998,0.0202231,-0.06066142,0.9578427,11.30891,-25.81253,-52.72854
38.76,52.6855,-168.5928,13.03252,0.008394982,0.007513858,0.9613366,11.30891,-25.81253,-52.72854
38.77,53.30776,-170.8312,16.14654,0.00320519,0.04701665,0.9459665,11.30891,-25.81253,-52.72854
38.78,54.80119,-174.778,18.46679,0.04341544,0.06700993,0.9282589,11.30891,-25.81253,-52.72854
38.79,59.0325500000001,-179.4905,19.81009,0.1214785,0.09641904,0.9024658,11.30891,-25.81253,-52.72854
38.8,67.4330499999999,-183.9085,19.32162,0.2013625,0.1398505,0.8738123,2.705973,-26.81852,-51.21323
38.81,66.4996599999999,-186.5593,20.42068,0.3335621,0.1418898,0.8785006,2.705973,-26.81852,-51.21323
38.82,64.0106300000001,-180.9043,18.46679,0.4690682,0.1018646,0.8845546,2.705973,-26.81852,-51.21323
38.83,52.4366,-178.3713,17.24561,0.4892096,0.1791059,0.8997316,2.705973,-26.81852,-51.21323
38.84,62.5172000000001,-166.0009,18.52785,0.4891604,0.123728,0.930013,2.705973,-26.81852,-51.21323
38.85,64.4462099999997,-157.2238,22.37457,0.3969993,0.165698,0.8878838,-5.160841,-28.82962,-48.03165
38.86,66.00185,-156.2813,23.90105,0.2922627,0.2007946,0.8457074,-5.160841,-28.82962,-48.03165
38.87,68.17976,-161.8185,24.20635,0.2747634,0.2048774,0.830712,-5.160841,-28.82962,-48.03165
38.88,72.4733600000001,-166.7667,26.77083,0.3297268,0.2014436,0.8318115,-5.160841,-28.82962,-48.03165
38.89,77.2025300000001,-172.0683,29.09108,0.4590066,0.1460546,0.8566359,-5.160841,-28.82962,-48.03165
38.9,80.2515999999999,-170.9491,30.37333,0.5653046,0.2024806,0.9038385,-12.72391,-31.54198,-43.25591
38.91,78.5714999999997,-167.4147,29.27426,0.6354648,0.2313037,0.9267612,-12.72391,-31.54198,-43.25591
38.92,82.0561500000003,-161.8185,25.61071,0.6733953,0.2432769,0.88056,-12.72391,-31.54198,-43.25591
38.93,78.1359200000001,-157.3416,28.78579,0.6526386,0.2765996,0.8907117,-12.72391,-31.54198,-43.25591
38.94,76.8291699999999,-152.3346,29.27426,0.6624679,0.3681735,0.8943117,-12.72391,-31.54198,-43.25591
38.95,68.8642500000003,-148.5057,36.05183,0.6455053,0.3720936,0.8609806,-19.57817,-33.5749,-37.2834
38.96,63.3883700000001,-141.967,34.52535,0.5939881,0.4728896,0.866855,-19.57817,-33.5749,-37.2834
38.97,57.29022,-128.9487,16.14654,0.7262508,0.315405,0.6781809,-19.57817,-33.5749,-37.2834
38.98,50.7565,-138.0792,34.40323,0.7604601,0.4647367,0.99852,-19.57817,-33.5749,-37.2834
38.99,46.52514,-137.5491,44.96647,0.8378496,0.4310479,0.8997247,-19.57817,-33.5749,-37.2834
39,47.14739,-129.42,43.25681,0.8771971,0.4398861,0.8800607,-24.97868,-35.18819,-30.92468
39.01,48.51637,-118.8757,33.12099,0.9581152,0.2452857,0.7514931,-24.97868,-35.18819,-30.92468
39.02,48.26746,-123.4115,51.68298,0.8416448,0.4768787,0.7743704,-24.97868,-35.18819,-30.92468
39.03,45.46729,-121.4676,42.46304,0.8657756,0.3900132,0.7805189,-24.97868,-35.18819,-30.92468
39.04,41.60928,-117.4619,42.27987,0.8549596,0.4533745,0.7859353,-24.97868,-35.18819,-30.92468
39.05,34.32885,-112.6316,41.97457,0.8831198,0.425368,0.7154956,-29.64396,-36.16736,-26.1493
39.06,32.5243,-110.9233,51.62192,0.9030374,0.4482762,0.8227221,-29.64396,-36.16736,-26.1493
39.07,28.04403,-101.675,52.23251,0.8969756,0.4696192,0.8333684,-29.64396,-36.16736,-26.1493
39.08,20.20356,-91.3663400000002,48.14154,0.9012189,0.5047926,0.759625,-29.64396,-36.16736,-26.1493
39.09,12.30086,-91.4252500000002,55.835,0.8788962,0.5255968,0.6717882,-33.68913,-34.60604,-20.96608
39.1,1.784675,-88.89227,57.66677,0.8825808,0.545529,0.6785963,-33.68913,-34.60604,-20.96608
39.11,-9.913804,-83.3550599999997,58.7047800000002,0.8925083,0.479539,0.6509748,-33.68913,-34.60604,-20.96608
39.12,-16.75866,-77.1109600000002,56.38453,0.8903363,0.4006163,0.6483868,-33.68913,-34.60604,-20.96608
39.13,-17.75427,-66.8023200000001,52.8431,0.8899145,0.2426918,0.6311569,-33.68913,-34.60604,-20.96608
39.14,-14.51852,-62.1487100000003,53.51475,0.8491414,0.2398308,0.6175343,-33.68913,-34.60604,-20.96608
39.15,-9.602674,-56.31696,48.01943,0.8868635,0.164392,0.5914117,-36.6155,-33.49538,-17.02929
39.16,-4.002338,-49.4249,43.68423,0.8798814,0.2434417,0.5626107,-36.6155,-33.49538,-17.02929
39.17,-0.0821036699999998,-42.41503,38.55526,0.9814644,0.3469153,0.5722635,-36.6155,-33.49538,-17.02929
39.18,0.726833699999999,-35.40515,35.31912,0.9970505,0.3605356,0.5134621,-36.6155,-33.49538,-17.02929
39.19,0.726833699999999,-28.92544,33.05993,0.9886118,0.3723041,0.5375931,-39.53682,-31.28208,-15.89107
39.2,-1.451075,-23.68276,28.66367,0.9847955,0.3528058,0.578558,-39.53682,-31.28208,-15.89107
39.21,-3.877887,-14.96459,21.76398,0.9945046,0.2959776,0.6006581,-39.53682,-31.28208,-15.89107
39.22,-5.993569,-2.476411,14.13159,0.9647662,0.3176031,0.5562335,-39.53682,-31.28208,-15.89107
39.23,-6.80250599999998,5.299249,5.76648200000002,0.9686292,0.3205325,0.5557671,-39.53682,-31.28208,-15.89107
39.24,-5.184632,12.48584,-2.415446,0.9652327,0.3139196,0.5764938,-40.68339,-29.49701,-14.35011
39.25,-4.562372,20.02588,-9.55936799999998,0.9584094,0.3120491,0.589501,-40.68339,-29.49701,-14.35011
39.26,-5.869117,28.3906,-17.19176,0.9618103,0.3148959,0.5803474,-40.68339,-29.49701,-14.35011
39.27,-7.98479900000002,40.34863,-24.45781,0.9995319,0.3336551,0.5886883,-40.68339,-29.49701,-14.35011
39.28,-9.913804,50.83398,-30.31948,1.018954,0.3851975,0.5989828,-40.68339,-29.49701,-14.35011
39.29,-13.89627,60.4946500000001,-35.99799,1.020827,0.4297347,0.6521637,-41.04924,-29.14448,-15.11764
39.3,-17.50537,68.6237500000001,-38.62353,1.022871,0.4629183,0.6807107,-41.04924,-29.14448,-15.11764
39.31,-24.78581,77.1062900000001,-41.24907,0.9982293,0.4915074,0.7058011,-41.04924,-29.14448,-15.11764
39.32,-34.99086,84.5874199999999,-44.42415,0.9783084,0.4889761,0.7105699,-41.04924,-29.14448,-15.11764
39.33,-44.38698,92.7754200000002,-47.72134,0.9471204,0.4451728,0.7099127,-41.04924,-29.14448,-15.11764
39.34,-50.98293,98.6071700000002,-49.12571,0.9086021,0.4131651,0.6822392,-39.18032,-29.57142,-18.31677
39.35,-56.52104,101.9648,-50.83536,0.9172629,0.3706495,0.6826528,-39.18032,-29.57142,-18.31677
39.36,-58.6989500000003,109.7994,-53.27773,0.9244101,0.332526,0.6883798,-39.18032,-29.57142,-18.31677
39.37,-59.3212100000003,116.3969,-48.88147,0.9315664,0.2957798,0.6859065,-39.18032,-29.57142,-18.31677
39.38,-60.0056999999999,118.8121,-45.76745,0.9085507,0.2659431,0.670824,-39.18032,-29.57142,-18.31677
39.39,-58.8233999999999,121.1684,-45.64533,0.8832537,0.2343882,0.7879503,-36.96059,-31.07282,-24.27657
39.4,-58.3878200000003,129.0618,-44.17991,0.8855029,0.1972866,0.8038005,-36.96059,-31.07282,-24.27657
39.41,-48.18277,129.1796,-37.15811,0.8368726,0.2813199,0.8796158,-36.96059,-31.07282,-24.27657
39.42,-48.68057,135.7183,-43.14191,0.8713511,0.194074,0.8351227,-36.96059,-31.07282,-24.27657
39.43,-46.44044,137.5444,-38.50141,0.9013208,0.2122185,0.8357216,-36.96059,-31.07282,-24.27657
39.44,-46.06709,144.5542,-39.78365,0.8301648,0.2099285,0.9108107,-32.93312,-31.90189,-29.02917
39.45,-44.20031,149.3846,-40.88272,0.7637396,0.2032161,0.8681607,-32.93312,-31.90189,-29.02917
39.46,-42.95579,150.6805,-38.13506,0.7327161,0.2333697,0.9110923,-32.93312,-31.90189,-29.02917
39.47,-41.08901,154.8629,-40.7606,0.7053944,0.1999888,0.8824798,-32.93312,-31.90189,-29.02917
39.48,-38.28884,157.0424,-39.35624,0.6780817,0.2061723,0.8940037,-32.93312,-31.90189,-29.02917
39.49,-36.42206,156.8068,-37.64658,0.6451068,0.1972082,0.8943819,-28.95168,-32.75632,-35.36194
39.5,-33.68412,159.3398,-36.05904,0.6255048,0.2041424,0.9286073,-28.95168,-32.75632,-35.36194
39.51,-32.75073,161.7549,-33.55562,0.5934265,0.2519128,0.940691,-28.95168,-32.75632,-35.36194
39.52,-31.07063,167.3511,-37.09705,0.5794708,0.24055,0.9271193,-28.95168,-32.75632,-35.36194
39.53,-33.18631,168.8826,-37.40235,0.5289147,0.2331246,0.9520654,-28.95168,-32.75632,-35.36194
39.54,-34.67973,168.3525,-35.0821,0.4994837,0.2176245,0.9225208,-23.17654,-32.154,-40.56334
39.55,-36.67096,167.8223,-34.10515,0.4633267,0.284281,0.93946,-23.17654,-32.154,-40.56334
39.56,-35.86203,168.2347,-34.10515,0.445329,0.2389576,0.9200141,-23.17654,-32.154,-40.56334
39.57,-40.90233,162.5207,-22.62603,0.4274308,0.2235203,0.9406844,-23.17654,-32.154,-40.56334
39.58,-38.10216,164.5825,-15.42105,0.3403534,0.30834,1.029431,-23.17654,-32.154,-40.56334
39.59,-39.28445,171.2978,-21.03849,0.4137138,0.09278727,0.8916305,-16.67045,-31.90453,-44.86737
39.6,-33.8708,172.4759,-17.06965,0.2839828,0.1674851,0.9681818,-16.67045,-31.90453,-44.86737
39.61,-39.84449,172.5938,-12.67339,0.2932609,0.1203202,0.9357736,-16.67045,-31.90453,-44.86737
39.62,-39.96894,179.1324,-14.32198,0.2199306,0.1209186,0.9047026,-16.67045,-31.90453,-44.86737
39.63,-41.46236,180.3105,-13.22292,0.1885178,0.1149064,0.8558713,-16.67045,-31.90453,-44.86737
39.64,-41.77349,178.9556,-12.36809,0.1091444,0.1344414,0.8368891,-9.074074,-31.35493,-48.8499
39.65,-38.97332,178.5433,-11.39114,0.08267257,0.1038162,0.8444758,-9.074074,-31.35493,-48.8499
39.66,-35.5509,179.0735,-9.68148600000002,0.06124826,0.1070498,0.8458751,-9.074074,-31.35493,-48.8499
39.67,-34.18193,177.4241,-8.82665800000002,0.03090838,0.1299899,0.8400556,-9.074074,-31.35493,-48.8499
39.68,-35.67535,177.5419,-9.55936799999998,0.06256151,0.1319268,0.8131186,-9.074074,-31.35493,-48.8499
39.69,-37.35545,180.3105,-8.58242099999999,0.008302564,0.11354,0.8066661,-1.576349,-29.62914,-51.14552
39.7,-38.35107,180.605,-6.75064700000002,-0.0478979,0.09606653,0.7958675,-1.576349,-29.62914,-51.14552
39.71,-37.10655,175.598,-6.07899599999999,-0.1250918,0.09186113,0.7720145,-1.576349,-29.62914,-51.14552
39.72,-36.73319,172.0636,-6.32323300000002,-0.1314604,0.04346918,0.7776846,-1.576349,-29.62914,-51.14552
39.73,-34.3686,171.7691,-3.57557,-0.17783,0.06296235,0.7790546,-1.576349,-29.62914,-51.14552
39.74,-31.07063,168.8237,-3.758748,-0.189929,0.06456654,0.7529692,6.70595,-27.95139,-52.35851
39.75,-30.26169,166.4086,-2.781801,-0.2368583,0.04423533,0.7392931,6.70595,-27.95139,-52.35851
39.76,-27.58598,160.8124,-2.171209,-0.3037774,0.02019272,0.7603009,6.70595,-27.95139,-52.35851
39.77,-26.34146,157.1602,-2.415446,-0.3285724,-0.02427299,0.7345663,6.70595,-27.95139,-52.35851
39.78,-24.41245,153.2724,-0.9500259,-0.3840116,-0.01947011,0.7247827,6.70595,-27.95139,-52.35851
39.79,-19.12325,150.5038,-0.888966700000001,-0.3960034,-0.03744788,0.7271259,15.28711,-26.55711,-52.30006
39.8,-11.90504,145.2022,2.163991,-0.4532561,-6.326335e-05,0.736227,15.28711,-26.55711,-52.30006
39.81,-9.41599700000003,140.2541,1.919755,-0.4611861,-0.03827811,0.7448103,15.28711,-26.55711,-52.30006
39.82,-5.557987,135.5415,3.446234,-0.4716239,-0.06453237,0.740384,15.28711,-26.55711,-52.30006
39.83,-0.8288152,131.4181,8.02567199999998,-0.4963214,-0.03106911,0.7693451,22.0155,-24.82208,-50.62109
39.84,5.331554,127.8248,9.24685499999998,-0.4894257,-0.04725875,0.7924905,22.0155,-24.82208,-50.62109
39.85,8.56730399999999,127.2357,9.24685499999998,-0.4899244,-0.04440726,0.7871872,22.0155,-24.82208,-50.62109
39.86,9.43846700000002,126.8823,9.85744699999997,-0.4834798,-0.003300318,0.7786064,22.0155,-24.82208,-50.62109
39.87,10.18518,125.3507,12.91041,-0.5518774,0.03997681,0.7534304,22.0155,-24.82208,-50.62109
39.88,9.93627500000003,122.4054,15.04748,-0.5741174,0.08462605,0.7332021,27.80032,-24.83392,-48.98639
39.89,5.642684,119.8135,18.22255,-0.622341,0.09911592,0.7181498,27.80032,-24.83392,-48.98639
39.9,1.037963,116.8682,19.56585,-0.6349588,0.0565405,0.6770091,27.80032,-24.83392,-48.98639
39.91,-0.953267000000001,112.568,22.1914,-0.6515368,0.0193279,0.6435905,27.80032,-24.83392,-48.98639
39.92,1.286867,112.2735,25.85495,-0.5956044,-0.07500093,0.6001025,27.80032,-24.83392,-48.98639
39.93,5.020424,109.7994,30.43439,-0.6564927,-0.06099285,0.5961153,32.05314,-25.52794,-45.33264
39.94,9.00288599999999,105.9705,32.2051,-0.6863129,-0.04191156,0.5912539,32.05314,-25.52794,-45.33264
39.95,12.54976,100.6689,35.197,-0.7323017,0.03487946,0.6134976,32.05314,-25.52794,-45.33264
39.96,14.60322,98.5482600000002,32.63251,-0.676835,0.0234201,0.6362959,32.05314,-25.52794,-45.33264
39.97,14.10541,95.4851200000001,33.42628,-0.7164289,0.109391,0.5982571,32.05314,-25.52794,-45.33264
39.98,12.67422,91.0082199999998,32.26616,-0.677484,0.04646453,0.6165592,36.00064,-25.81044,-42.50999
39.99,13.04757,87.2971199999999,31.04498,-0.697579,0.05951486,0.631977,36.00064,-25.81044,-42.50999
40,15.72329,88.004,29.70168,-0.6934808,0.1068913,0.5698406,36.00064,-25.81044,-42.50999
40.01,17.52784,83.8216299999997,33.60946,-0.7430915,0.2200213,0.5467935,36.00064,-25.81044,-42.50999
40.02,13.04757,78.4611399999998,31.77769,-0.7498363,0.2132021,0.5477266,36.00064,-25.81044,-42.50999
40.03,7.88281799999998,73.2773700000002,29.03002,-0.787088,0.08717239,0.5570105,39.61718,-27.61342,-40.42471
40.04,5.39378,68.27031,28.05308,-0.8023897,0.01003912,0.5495669,39.61718,-27.61342,-40.42471
40.05,7.82059199999998,65.0893600000002,28.60261,-0.7851148,0.02733179,0.5737762,39.61718,-27.61342,-40.42471
40.06,10.62076,66.9743699999997,30.12909,-0.7088511,-0.02602492,0.6013634,39.61718,-27.61342,-40.42471
40.07,12.23864,67.6812499999999,29.39638,-0.7219551,0.09332567,0.5393374,39.61718,-27.61342,-40.42471
40.08,11.55415,64.08795,26.28236,-0.7063336,0.1883632,0.5463377,41.37473,-28.30461,-37.61613
40.09,5.580458,60.1412100000001,23.47364,-0.7727072,0.2836503,0.4913608,41.37473,-28.30461,-37.61613
40.1,-0.01987772,50.42164,17.79514,-0.8150127,0.2414281,0.4612429,41.37473,-28.30461,-37.61613
40.11,-5.06018,41.35004,15.29171,-0.8213801,0.1295194,0.506828,41.37473,-28.30461,-37.61613
40.12,0.1668001,40.113,17.42878,-0.759783,0.05408249,0.4605,41.37473,-28.30461,-37.61613
40.13,3.215872,38.16908,20.84809,-0.7719672,0.09884454,0.4972386,42.85442,-29.6842,-36.37936
40.14,1.535771,34.28125,20.5428,-0.800431,0.07164417,0.510618,42.85442,-29.6842,-36.37936
40.15,1.224641,34.63469,19.93221,-0.8528501,0.1283858,0.46235,42.85442,-29.6842,-36.37936
40.16,-0.953267000000001,29.2742,19.01632,-0.9400531,0.1503761,0.453969,42.85442,-29.6842,-36.37936
40.17,-1.699978,24.91512,18.71103,-0.9290643,0.1754823,0.4381272,42.85442,-29.6842,-36.37936
40.18,-1.202171,19.67244,17.06243,-0.8431622,0.2312124,0.4794852,44.25287,-30.38537,-34.33247
40.19,-5.184632,15.96133,13.39888,-0.8284892,0.2743765,0.4772031,44.25287,-30.38537,-34.33247
40.2,-6.366925,11.83787,9.24685499999998,-0.8488083,0.2701443,0.4549443,44.25287,-30.38537,-34.33247
40.21,-2.75782,6.53628500000003,5.82754100000001,-0.8280698,0.2839797,0.4685389,44.25287,-30.38537,-34.33247
40.22,1.224641,1.764858,3.140938,-0.8382134,0.2714934,0.4877879,44.25287,-30.38537,-34.33247
40.23,2.033579,-0.1790571,2.713524,-0.911009,0.2677141,0.4538136,44.25856,-31.09702,-33.4994
40.24,-0.01987772,-5.245017,-0.2783751,-0.9898769,0.2274279,0.4549712,44.25856,-31.09702,-33.4994
40.25,-0.8288152,-11.01786,-4.491457,-1.000758,0.2005588,0.4365485,44.25856,-31.09702,-33.4994
40.26,-0.704363199999999,-15.61256,-6.75064700000002,-0.972086,0.2036248,0.4298734,44.25856,-31.09702,-33.4994
40.27,-1.264397,-21.09087,-9.00983499999998,-0.9239352,0.2006306,0.4319213,44.25856,-31.09702,-33.4994
40.28,-1.513301,-25.39104,-11.26902,-0.8678624,0.1803375,0.4407082,44.97873,-30.0276,-34.33134
40.29,-1.451075,-28.80762,-12.00173,-0.8464861,0.1819518,0.4402843,44.97873,-30.0276,-34.33134
40.3,-2.322238,-30.86935,-10.1089,-0.7857012,0.2247626,0.4661081,44.97873,-30.0276,-34.33134
40.31,-6.740281,-32.87217,-11.4522,-0.8000782,0.2042718,0.4602364,44.97873,-30.0276,-34.33134
40.32,-9.913804,-35.28734,-12.7955,-0.8497089,0.1635102,0.437341,44.97873,-30.0276,-34.33134
40.33,-10.66052,-39.58751,-13.34504,-0.8723315,0.1433643,0.4232454,44.26998,-31.1166,-34.6999
40.34,-10.66052,-44.94801,-14.13881,-0.8689456,0.1453222,0.4227758,44.26998,-31.1166,-34.6999
40.35,-10.34939,-50.19069,-15.35999,-0.8503716,0.1338743,0.4252119,44.26998,-31.1166,-34.6999
40.36,-10.10048,-56.96494,-15.05469,-0.8623973,0.1235121,0.4135774,44.26998,-31.1166,-34.6999
40.37,-8.42038199999999,-60.4404199999999,-19.0846,-0.8637798,0.1082433,0.4386336,44.26998,-31.1166,-34.6999
40.38,-4.375694,-66.44888,-20.97743,-0.8713809,0.0869649,0.4467716,42.85021,-29.67698,-35.93707
40.39,0.602381800000001,-73.3409500000003,-21.46591,-0.8069901,0.1028696,0.4908838,42.85021,-29.67698,-35.93707
40.4,1.909127,-78.6425300000002,-22.44285,-0.7425546,0.1153431,0.5301632,42.85021,-29.67698,-35.93707
40.41,1.037963,-82.8838000000002,-22.87027,-0.739409,0.138729,0.5446981,42.85021,-29.67698,-35.93707
40.42,-1.139945,-86.4181900000001,-22.13756,-0.7184338,0.172619,0.5814987,41.78194,-29.72241,-39.16988
40.43,-6.366925,-90.4827399999998,-22.93133,-0.7330158,0.1668735,0.6007507,41.78194,-29.72241,-39.16988
40.44,-12.09171,-94.4883899999997,-25.25157,-0.7257056,0.1136742,0.5982424,41.78194,-29.72241,-39.16988
40.45,-14.7052,-99.4365300000002,-26.04534,-0.7367834,0.1038692,0.5938498,41.78194,-29.72241,-39.16988
40.46,-16.07417,-103.6189,-26.4117,-0.7485733,0.1154402,0.5991523,41.78194,-29.72241,-39.16988
40.47,-14.82965,-110.6288,-25.74005,-0.7493792,0.09846937,0.5962185,41.78194,-29.72241,-39.16988
40.48,-10.34939,-115.518,-24.03039,-0.7085952,0.1125499,0.5664359,40.01516,-28.72293,-41.60422
40.49,-8.73151100000002,-122.469,-22.25968,-0.6721365,0.1029834,0.6007704,40.01516,-28.72293,-41.60422
40.5,-8.04702599999999,-126.8281,-22.93133,-0.6136188,0.07937885,0.6158296,40.01516,-28.72293,-41.60422
40.51,-7.11363599999998,-127.0637,-22.74815,-0.5969536,0.07155053,0.5922108,40.01516,-28.72293,-41.60422
40.52,-6.615829,-130.7159,-24.45781,-0.6175345,0.08084405,0.6206481,36.41258,-27.29483,-44.44187
40.53,-6.429151,-139.1984,-25.80111,-0.6280249,0.1074892,0.632742,36.41258,-27.29483,-44.44187
40.54,-6.366925,-147.033,-26.59488,-0.6061406,0.1038763,0.6424416,36.41258,-27.29483,-44.44187
40.55,-5.184632,-157.106,-25.61793,-0.584052,0.07004403,0.6815124,36.41258,-27.29483,-44.44187
40.56,-3.815661,-164.1159,-25.19052,-0.5135371,0.006514636,0.7129233,36.41258,-27.29483,-44.44187
40.57,0.851285599999998,-164.1748,-23.23662,-0.4681084,-0.01496559,0.7067212,32.09825,-26.95058,-47.33216
40.58,4.335939,-162.8199,-20.91637,-0.4509321,0.01203165,0.7338462,32.09825,-26.95058,-47.33216
40.59,6.576073,-157.106,-19.93943,-0.4030561,0.03855179,0.7354743,32.09825,-26.95058,-47.33216
40.6,8.81620799999999,-156.6348,-18.65718,-0.387231,0.06096333,0.7384587,32.09825,-26.95058,-47.33216
40.61,9.12733700000002,-163.6446,-16.82541,-0.3745806,0.1029628,0.7694647,32.09825,-26.95058,-47.33216
40.62,7.385011,-169.712,-18.16871,-0.3246976,0.124602,0.7648144,26.376,-26.23984,-50.55754
40.63,6.949429,-173.3053,-17.68024,-0.280292,0.1117239,0.7475295,26.376,-26.23984,-50.55754
40.64,6.949429,-181.8468,-17.37494,-0.2812916,0.1089925,0.7673055,26.376,-26.23984,-50.55754
40.65,9.43846700000002,-188.4443,-15.48211,-0.2609565,0.0702947,0.7518332,26.376,-26.23984,-50.55754
40.66,13.73206,-197.8693,-13.83351,-0.2406842,0.01820314,0.8067841,26.376,-26.23984,-50.55754
40.67,18.71013,-201.2859,-12.97868,-0.1537727,-0.03257165,0.8430902,19.19692,-26.93776,-51.81481
40.68,29.59967,-191.4485,-8.27712500000002,-0.03207926,-0.04811998,0.8385452,19.19692,-26.93776,-51.81481
40.69,40.55144,-183.555,-4.979931,-0.01192355,-0.02271384,0.8478202,19.19692,-26.93776,-51.81481
40.7,45.7162,-179.9028,-2.781801,-0.0214082,0.05327124,0.856645,19.19692,-26.93776,-51.81481
40.71,46.83627,-180.0206,0.4543349,-0.02813864,0.1033518,0.8350206,19.19692,-26.93776,-51.81481
40.72,44.90726,-184.7921,2.469287,-0.004653421,0.1360607,0.8462501,11.32135,-26.8867,-51.88964
40.73,45.65397,-189.5046,7.96461200000002,0.03949117,0.1395198,0.8695337,11.32135,-26.8867,-51.88964
40.74,43.60051,-193.3335,13.88735,0.09576795,0.1412652,0.9068389,11.32135,-26.8867,-51.88964
40.75,40.48922,-192.5677,16.63501,0.2056506,0.06774756,0.9769338,11.32135,-26.8867,-51.88964
40.76,40.61367,-179.5494,23.35152,0.2710836,0.03398573,0.9866809,11.32135,-26.8867,-51.88964
40.77,40.36477,-170.2422,24.75588,0.271749,0.01041795,1.002074,2.371244,-28.91746,-50.36128
40.78,41.92041,-163.5268,26.83189,0.2246566,0.06539272,0.9678093,2.371244,-28.91746,-50.36128
40.79,44.40945,-163.6446,29.39638,0.189144,0.08396403,0.911782,2.371244,-28.91746,-50.36128
40.8,46.46291,-165.7653,32.14404,0.1819188,0.1439182,0.8588119,2.371244,-28.91746,-50.36128
40.81,54.92564,-170.4778,33.8537,0.2304651,0.1227362,0.7763757,2.371244,-28.91746,-50.36128
40.82,58.1613899999997,-178.0178,33.5484,0.4156944,-0.00948627,0.8721138,-5.503742,-30.27115,-47.63269
40.83,72.4111299999999,-178.4302,39.41008,0.4718641,0.06034578,0.8931584,-5.503742,-30.27115,-47.63269
40.84,80.0026899999999,-174.6013,40.08173,0.5466126,0.06598833,0.9174908,-5.503742,-30.27115,-47.63269
40.85,84.7940999999998,-173.6588,38.37208,0.5795916,0.1084364,0.9803985,-5.503742,-30.27115,-47.63269
40.86,84.3585099999999,-168.1215,35.38018,0.5965027,0.1253221,0.9602113,-5.503742,-30.27115,-47.63269
40.87,84.5451899999997,-162.172,36.35712,0.5632395,0.2108365,0.9197752,-13.45652,-31.53723,-43.26286
40.88,82.7406399999999,-154.573,37.88361,0.5497299,0.2678116,0.8638873,-13.45652,-31.53723,-43.26286
40.89,84.4829600000001,-152.6291,40.08173,0.4501046,0.3817791,0.816103,-13.45652,-31.53723,-43.26286
40.9,80.7494000000001,-156.0457,43.25681,0.6001272,0.3641296,0.7691622,-13.45652,-31.53723,-43.26286
40.91,75.7091099999998,-157.9896,45.76024,0.6306643,0.5045447,0.8573667,-13.45652,-31.53723,-43.26286
40.92,67.9930899999999,-151.2154,36.11289,0.7450428,0.4908927,0.854737,-20.61709,-33.91729,-36.46604
40.93,60.5882000000001,-159.2267,52.59887,0.8597868,0.3778178,0.88133,-20.61709,-33.91729,-36.46604
40.94,57.04132,-158.8143,59.6817300000003,0.8776712,0.3311944,0.9010604,-20.61709,-33.91729,-36.46604
40.95,61.4593599999999,-138.4916,47.04248,0.7674698,0.3858662,0.834302,-20.61709,-33.91729,-36.46604
40.96,58.0991600000001,-137.9025,50.82815,0.7607461,0.3988744,0.9399908,-20.61709,-33.91729,-36.46604
40.97,53.68112,-132.7187,54.85805,0.7304474,0.464556,0.9511525,-26.08181,-35.17385,-30.49284
40.98,45.46729,-126.5924,52.72098,0.734017,0.370774,0.8530027,-26.08181,-35.17385,-30.49284
40.99,36.63121,-118.9935,55.10229,0.7358068,0.3947482,0.8270012,-26.08181,-35.17385,-30.49284
41,30.22194,-117.6976,62.3683300000003,0.779102,0.3035986,0.7714238,-26.08181,-35.17385,-30.49284
41.01,23.43931,-110.2753,65.2381100000001,0.8100978,0.2791643,0.7188534,-26.08181,-35.17385,-30.49284
41.02,22.31924,-108.2725,65.4212899999999,0.802847,0.2897599,0.6662596,-31.15541,-34.67481,-24.16467
41.03,22.25701,-103.3244,70.9776800000001,0.8412853,0.2423737,0.6377865,-31.15541,-34.67481,-24.16467
41.04,23.93711,-100.8503,74.0916900000002,0.834425,0.2994482,0.6403042,-31.15541,-34.67481,-24.16467
41.05,24.24824,-97.0802700000003,71.2829699999999,0.8486279,0.2441384,0.6127167,-31.15541,-34.67481,-24.16467
41.06,22.25701,-91.6608699999997,72.0767400000001,0.8434583,0.26716,0.6474964,-31.15541,-34.67481,-24.16467
41.07,21.01249,-83.7084999999998,70.4892000000002,0.8377227,0.2639787,0.6218997,-35.87042,-33.17058,-19.05005
41.08,20.32801,-79.11378,68.4742399999999,0.8380412,0.2842324,0.6137407,-35.87042,-33.17058,-19.05005
41.09,20.26578,-74.3423599999999,66.6424700000003,0.828732,0.3040991,0.5712951,-35.87042,-33.17058,-19.05005
41.1,18.95904,-70.2189000000002,64.3222200000002,0.8408631,0.3080171,0.5660268,-35.87042,-33.17058,-19.05005
41.11,18.46123,-66.44888,65.4823500000001,0.847765,0.3082211,0.5293713,-35.87042,-33.17058,-19.05005
41.12,16.78113,-62.5021499999998,66.3982299999997,0.88298,0.3389364,0.5242202,-39.53997,-30.92574,-16.27601
41.13,16.28332,-57.9663500000003,62.6736299999998,0.9549229,0.3875364,0.5385041,-39.53997,-30.92574,-16.27601
41.14,13.3587,-54.49086,55.40759,1.024009,0.4923935,0.5152628,-39.53997,-30.92574,-16.27601
41.15,6.01604000000002,-52.72367,51.37768,1.071849,0.5326317,0.4821768,-39.53997,-30.92574,-16.27601
41.16,-1.82443,-53.07711,47.89731,1.056724,0.4888834,0.4738404,-41.45127,-28.37894,-12.79498
41.17,-10.84719,-52.66476,43.50105,1.071347,0.4216004,0.5128199,-41.45127,-28.37894,-12.79498
41.18,-15.07856,-50.77975,39.89856,1.053347,0.3094912,0.5463109,-41.45127,-28.37894,-12.79498
41.19,-17.75427,-46.00832,35.86865,1.033185,0.2337235,0.5335497,-41.45127,-28.37894,-12.79498
41.2,-15.57637,-36.46547,26.64872,1.050584,0.1423401,0.5276076,-41.45127,-28.37894,-12.79498
41.21,-16.01195,-35.46406,28.78579,1.019104,0.1388965,0.4951882,-43.64967,-26.21226,-10.51152
41.22,-10.78497,-28.86653,24.32847,1.01441,0.1167343,0.5100875,-43.64967,-26.21226,-10.51152
41.23,-8.29592900000002,-24.27182,21.09233,0.9880933,0.1355091,0.4685608,-43.64967,-26.21226,-10.51152
41.24,-5.744665,-19.97165,16.2076,1.002877,0.1745565,0.4392474,-43.64967,-26.21226,-10.51152
41.25,-2.695594,-15.73038,11.44499,0.9915478,0.1932499,0.4291248,-43.64967,-26.21226,-10.51152
41.26,-1.015493,-12.37271,7.04872499999998,0.9651071,0.212903,0.4310291,-44.79264,-24.43338,-9.349665
41.27,-2.322238,-8.36706299999998,2.28611,0.9518587,0.2282157,0.423307,-44.79264,-24.43338,-9.349665
41.28,-3.753435,-2.770944,-2.84286,0.9595574,0.2313508,0.442153,-44.79264,-24.43338,-9.349665
41.29,-5.309083,4.180025,-8.46030300000001,0.9716505,0.23258,0.4605237,-44.79264,-24.43338,-9.349665
41.3,-8.17147700000002,11.01318,-13.4061,0.9793928,0.2346333,0.4668212,-44.79264,-24.43338,-9.349665
41.31,-11.03387,18.02306,-19.14566,0.9945006,0.2275886,0.4774611,-44.78903,-24.43956,-9.728767
41.32,-13.46068,26.26997,-25.67899,1.008639,0.2219355,0.482311,-44.78903,-24.43956,-9.728767
41.33,-15.01633,34.87032,-31.54067,1.003704,0.2263623,0.4943714,-44.78903,-24.43956,-9.728767
41.34,-16.69643,44.47208,-37.03599,1.008286,0.255457,0.4968585,-44.78903,-24.43956,-9.728767
41.35,-17.50537,56.54792,-41.00484,1.053177,0.2784292,0.5365927,-44.78903,-24.43956,-9.728767
41.36,-18.87434,66.5620299999999,-45.34004,1.057376,0.3444328,0.5536346,-44.78122,-24.45295,-10.55016
41.37,-24.16355,75.5747200000001,-50.89642,1.067744,0.3657584,0.6014796,-44.78122,-24.45295,-10.55016
41.38,-30.5106,85.0586700000003,-54.68209,1.07008,0.3703079,0.6207973,-44.78122,-24.45295,-10.55016
41.39,-38.10216,93.4233900000003,-56.94128,1.061364,0.3696592,0.6101574,-44.78122,-24.45295,-10.55016
41.4,-46.50267,99.4907700000001,-60.2384799999998,1.08458,0.3828895,0.6083155,-44.78122,-24.45295,-10.55016
41.41,-52.22745,110.3296,-61.0322399999998,1.105242,0.3480036,0.6391769,-43.24612,-26.27852,-14.42543
41.42,-55.08985,117.0449,-58.5288200000001,1.091755,0.3296663,0.6564745,-43.24612,-26.27852,-14.42543
41.43,-58.2633700000001,123.1712,-57.6129300000002,1.05896,0.2943148,0.6818889,-43.24612,-26.27852,-14.42543
41.44,-59.0723099999999,128.0015,-58.3456399999998,1.037013,0.2765616,0.7705832,-43.24612,-26.27852,-14.42543
41.45,-60.9390899999999,133.4798,-58.8951700000001,1.029021,0.2427721,0.7868966,-43.24612,-26.27852,-14.42543
41.46,-62.4325099999997,137.7211,-52.7282,1.083744,0.2527939,0.8309712,-41.02946,-27.83312,-19.94197
41.47,-63.8014799999999,147.6174,-55.90327,1.063817,0.2992557,0.8483915,-41.02946,-27.83312,-19.94197
41.48,-63.9881599999997,150.6805,-53.70514,1.068052,0.2850135,0.7687512,-41.02946,-27.83312,-19.94197
41.49,-73.9443100000001,158.3384,-56.63598,1.018032,0.251163,0.8674719,-41.02946,-27.83312,-19.94197
41.5,-73.9443100000001,166.2907,-54.25468,0.915315,0.3021737,0.923775,-41.02946,-27.83312,-19.94197
41.51,-75.9355400000003,174.302,-56.4528,0.8976557,0.238851,0.8405948,-36.97715,-28.99726,-26.71159
41.52,-73.0731499999997,176.5994,-57.12446,0.8502294,0.2176139,0.8341537,-36.97715,-28.99726,-26.71159
41.53,-68.5928800000001,176.7761,-57.4297499999998,0.8183641,0.1927277,0.8388435,-36.97715,-28.99726,-26.71159
41.54,-61.8102500000003,180.016,-57.0634,0.8178779,0.1824064,0.8750113,-36.97715,-28.99726,-26.71159
41.55,-57.20553,182.1955,-54.68209,0.7878426,0.1696376,0.8802144,-36.97715,-28.99726,-26.71159
41.56,-56.02324,182.1955,-51.32384,0.7820287,0.1573345,0.9158816,-31.88793,-29.52309,-34.68253
41.57,-50.04955,187.3793,-54.49891,0.7276489,0.1067866,0.885232,-31.88793,-29.52309,-34.68253
41.58,-42.45798,190.5013,-51.81231,0.7067071,0.04839905,0.9217262,-31.88793,-29.52309,-34.68253
41.59,-38.10216,190.5602,-45.27898,0.6743528,0.02258064,0.9307557,-31.88793,-29.52309,-34.68253
41.6,-32.62628,192.7987,-40.88272,0.6197178,0.05373909,0.8915953,-31.88793,-29.52309,-34.68253
41.61,-28.39491,196.0385,-39.53942,0.5552008,0.1310407,0.9326118,-25.35225,-29.67529,-41.38171
41.62,-43.14246,182.4311,-22.44285,0.655768,0.1048107,1.048626,-25.35225,-29.67529,-41.38171
41.63,-36.35984,193.3877,-19.69519,0.4466499,0.141274,0.7673221,-25.35225,-29.67529,-41.38171
41.64,-19.74551,202.1648,-24.21357,0.3937861,-0.001104299,0.8547035,-25.35225,-29.67529,-41.38171
41.65,-19.30992,199.6318,-16.21482,0.4087319,0.09877539,0.915758,-25.35225,-29.67529,-41.38171
41.66,-23.35461,203.932,-14.99363,0.3545022,0.1334872,0.8944606,-17.07148,-29.44451,-46.11121
41.67,-25.90587,207.702,-17.55812,0.3224329,0.03805774,0.8584641,-17.07148,-29.44451,-46.11121
41.68,-20.05663,206.5239,-14.93257,0.2588429,0.0297611,0.8520092,-17.07148,-29.44451,-46.11121
41.69,-20.05663,209.1158,-13.46715,0.2442524,0.0903701,0.824114,-17.07148,-29.44451,-46.11121
41.7,-20.86557,212.1789,-12.36809,0.2364583,0.04561023,0.8046957,-17.07148,-29.44451,-46.11121
41.71,-22.17232,211.0597,-11.7575,0.1699606,0.05367573,0.7374672,-9.109924,-28.83686,-50.09123
41.72,-23.72797,207.3486,-7.42229700000003,0.1292142,0.04040964,0.7503625,-9.109924,-28.83686,-50.09123
41.73,-25.53252,204.9334,-1.621677,0.05886562,0.07900334,0.7439909,-9.109924,-28.83686,-50.09123
41.74,-27.46152,201.6347,2.102932,0.01216242,0.03353927,0.7336392,-9.109924,-28.83686,-50.09123
41.75,-26.96372,200.2798,6.74342900000002,-0.03131532,0.001817864,0.7416622,-9.109924,-28.83686,-50.09123
41.76,-26.03033,201.4579,12.23875,-0.1062996,0.01477437,0.7405315,0.6101608,-28.62963,-51.96256
41.77,-25.03471,196.0974,13.88735,-0.1601753,-0.002800413,0.7697903,0.6101608,-28.62963,-51.96256
41.78,-22.11009,194.0357,22.25246,-0.1381268,-0.02712088,0.7905445,0.6101608,-28.62963,-51.96256
41.79,-16.82089,193.9768,25.48859,-0.1822904,0.0264293,0.7567673,0.6101608,-28.62963,-51.96256
41.8,-16.26085,190.5013,26.2213,-0.2163111,0.02614179,0.7542661,9.205888,-27.61128,-52.71967
41.81,-17.19424,188.2629,27.32037,-0.2611794,0.09494802,0.7489904,9.205888,-27.61128,-52.71967
41.82,-19.30992,183.3147,25.36647,-0.2954351,0.08116602,0.6996524,9.205888,-27.61128,-52.71967
41.83,-19.4966,179.7803,27.93096,-0.2939282,0.0861762,0.6639584,9.205888,-27.61128,-52.71967
41.84,-21.48783,171.5923,28.35837,-0.3676898,0.07814798,0.6425188,9.205888,-27.61128,-52.71967
41.85,-19.30992,165.9962,28.41943,-0.343597,0.05679629,0.6155123,17.40573,-26.18887,-51.0851
41.86,-17.5676,159.4576,30.25121,-0.4818872,0.0342562,0.5967703,17.40573,-26.18887,-51.0851
41.87,-14.39407,148.2065,31.83875,-0.5446273,-0.009471906,0.5781777,17.40573,-26.18887,-51.0851
41.88,-8.17147700000002,143.9652,33.60946,-0.5476636,-0.05197774,0.5896596,17.40573,-26.18887,-51.0851
41.89,0.913511500000001,138.1923,34.70853,-0.6326177,-0.06099097,0.5759098,17.40573,-26.18887,-51.0851
41.9,8.06949599999998,128.7084,35.01382,-0.6293038,-0.05176128,0.5769032,24.58173,-25.54417,-49.38457
41.91,17.34116,124.4082,35.99077,-0.5703537,-0.02245825,0.6089665,24.58173,-25.54417,-49.38457
41.92,23.1904,120.108,36.96772,-0.6433918,0.1058084,0.5675547,24.58173,-25.54417,-49.38457
41.93,22.38146,113.216,36.8456,-0.6463753,0.1526352,0.6105945,24.58173,-25.54417,-49.38457
41.94,16.53222,108.3267,33.42628,-0.6522385,0.06411972,0.5674422,24.58173,-25.54417,-49.38457
41.95,18.08787,102.2594,36.72348,-0.6553119,0.02877181,0.5678409,29.94691,-26.56081,-46.5369
41.96,19.70575,100.0209,39.89856,-0.7059153,0.0313508,0.5754367,29.94691,-26.56081,-46.5369
41.97,21.44807,97.90029,46.24871,-0.7311866,0.08010711,0.5836797,29.94691,-26.56081,-46.5369
41.98,22.81705,94.1302699999998,43.37893,-0.6953737,0.03287533,0.6275824,29.94691,-26.56081,-46.5369
41.99,25.92834,88.7697799999999,41.85245,-0.7567042,0.1404622,0.6435797,29.94691,-26.56081,-46.5369
42,27.29732,87.3560299999999,40.99762,-0.7219595,0.2107164,0.676151,33.53959,-27.27005,-44.09003
42.01,26.73728,84.7052300000002,37.27301,-0.707662,0.2879473,0.6951734,33.53959,-27.27005,-44.09003
42.02,22.07034,84.7641400000002,34.52535,-0.7073856,0.3681006,0.6750794,33.53959,-27.27005,-44.09003
42.03,17.27894,83.8216299999997,32.14404,-0.7245463,0.3956535,0.6331126,33.53959,-27.27005,-44.09003
42.04,12.36309,79.1680100000002,27.68672,-0.719264,0.2904574,0.661853,33.53959,-27.27005,-44.09003
42.05,9.31401500000002,75.6925400000001,26.09918,-0.7301764,0.1615231,0.6485189,36.05817,-29.71096,-40.80401
42.06,11.61638,74.9267499999999,20.48174,-0.7844439,0.04756106,0.6158032,36.05817,-29.71096,-40.80401
42.07,17.9012,72.8650200000001,23.71788,-0.848474,0.150658,0.5661571,36.05817,-29.71096,-40.80401
42.08,21.19917,69.0360899999999,21.8861,-0.8795898,0.2022197,0.5686005,36.05817,-29.71096,-40.80401
42.09,22.63037,69.9785999999998,21.09233,-0.8361843,0.2599736,0.4964542,36.05817,-29.71096,-40.80401
42.1,21.44807,62.4385700000002,19.81009,-0.745086,0.2752419,0.5541453,38.20019,-30.78662,-39.18661
42.11,15.10103,60.0233999999997,20.60386,-0.7055876,0.2181938,0.5266193,38.20019,-30.78662,-39.18661
42.12,9.12733700000002,57.7849500000002,21.76398,-0.7309017,0.1771161,0.5013731,38.20019,-30.78662,-39.18661
42.13,5.331554,54.66291,23.83999,-0.7541745,0.1254162,0.4770745,38.20019,-30.78662,-39.18661
42.14,3.527002,49.89148,23.47364,-0.8788793,0.1091636,0.4463174,38.20019,-30.78662,-39.18661
42.15,9.93627500000003,44.00083,21.5808,-0.8651525,0.1606756,0.4049643,40.03477,-32.149,-36.74585
42.16,11.98973,37.69783,20.42068,-0.8451084,0.1887949,0.4465757,40.03477,-32.149,-36.74585
42.17,12.05196,33.22094,18.16149,-0.8341117,0.2162199,0.4196402,40.03477,-32.149,-36.74585
42.18,13.91874,28.03716,19.32162,-0.8625534,0.278453,0.4756764,40.03477,-32.149,-36.74585
42.19,8.00726999999998,22.85339,16.63501,-0.7889546,0.1961043,0.5104327,40.03477,-32.149,-36.74585
42.2,4.087035,23.32464,17.5509,-0.7317693,0.2233927,0.4821684,41.43743,-32.85739,-35.14125
42.21,1.722449,19.55463,18.77208,-0.7620406,0.3403029,0.4857195,41.43743,-32.85739,-35.14125
42.22,-3.380079,14.72429,14.80324,-0.8376924,0.3763652,0.471608,41.43743,-32.85739,-35.14125
42.23,-6.553603,9.59942399999999,7.65931700000003,-0.9090888,0.3247561,0.4452553,41.43743,-32.85739,-35.14125
42.24,-3.255627,3.649866,3.629411,-0.9307029,0.3016837,0.4277782,41.43743,-32.85739,-35.14125
42.25,-1.015493,-0.4735897,-0.1562568,-0.9886254,0.2623575,0.4101725,41.43637,-33.20651,-34.31403
42.26,2.531386,-7.42455799999999,-4.186162,-0.9933158,0.2486253,0.3942068,41.43637,-33.20651,-34.31403
42.27,6.14049099999999,-14.96459,-7.30017899999999,-0.9149023,0.2784852,0.4176356,41.43637,-33.20651,-34.31403
42.28,6.638299,-21.20868,-9.19301299999997,-0.7838759,0.295249,0.4459973,41.43637,-33.20651,-34.31403
42.29,3.71368,-24.50745,-10.65843,-0.7464258,0.2907853,0.4552528,41.43637,-33.20651,-34.31403
42.3,0.291252,-27.21715,-10.35314,-0.7784717,0.2871299,0.453232,41.08042,-33.57284,-34.69077
42.31,-3.131175,-29.4556,-10.04784,-0.8007388,0.2767976,0.453635,41.08042,-33.57284,-34.69077
42.32,-6.180247,-31.39951,-10.59737,-0.8310944,0.2475325,0.4544588,41.08042,-33.57284,-34.69077
42.33,-7.17586199999998,-34.81609,-12.12385,-0.8502841,0.2240301,0.4408475,41.08042,-33.57284,-34.69077
42.34,-7.23808799999998,-39.35189,-12.7955,-0.8571321,0.2288074,0.439875,41.08042,-33.57284,-34.69077
42.35,-8.85596300000002,-44.94801,-13.4061,-0.8626314,0.2470887,0.4326619,41.09499,-33.94876,-35.50633
42.36,-10.66052,-50.77975,-14.87152,-0.8723175,0.2375142,0.4524008,41.09499,-33.94876,-35.50633
42.37,-10.34939,-53.37164,-16.33694,-0.8717592,0.2311832,0.4475631,41.09499,-33.94876,-35.50633
42.38,-8.54483300000002,-57.6129100000002,-17.25282,-0.8598352,0.2470394,0.4780286,41.09499,-33.94876,-35.50633
42.39,-7.36253999999998,-60.73495,-18.7793,-0.8219988,0.2499433,0.498882,41.09499,-33.94876,-35.50633
42.4,-6.304699,-65.5652800000001,-21.22167,-0.7578049,0.2409718,0.5217081,40.04828,-32.87404,-36.73418
42.41,-7.67366999999998,-68.3338900000001,-24.7631,-0.7491214,0.2389141,0.5540568,40.04828,-32.87404,-36.73418
42.42,-8.73151100000002,-71.1614100000001,-24.88522,-0.7103781,0.2561109,0.5493682,40.04828,-32.87404,-36.73418
42.43,-12.71397,-74.2834499999999,-23.90827,-0.7124051,0.2634026,0.5546867,40.04828,-32.87404,-36.73418
42.44,-18.0654,-78.1712799999998,-24.94628,-0.7149042,0.2122909,0.5772501,40.04828,-32.87404,-36.73418
42.45,-21.11448,-81.5878599999999,-25.19052,-0.7332376,0.1905853,0.6008011,38.96183,-32.53736,-38.77234
42.46,-23.54129,-85.2400699999998,-25.86217,-0.7673795,0.149227,0.6054497,38.96183,-32.53736,-38.77234
42.47,-22.29677,-82.8838000000002,-24.88522,-0.7498466,0.09840424,0.5894615,38.96183,-32.53736,-38.77234
42.48,-19.43438,-85.4167900000002,-22.80921,-0.7632217,0.1249214,0.5899665,38.96183,-32.53736,-38.77234
42.49,-17.50537,-91.8965000000001,-21.83226,-0.7488011,0.1293228,0.6358553,37.19866,-31.54408,-41.58578
42.5,-15.94972,-98.84747,-19.93943,-0.7067732,0.1605358,0.6263798,37.19866,-31.54408,-41.58578
42.51,-18.25208,-104.9148,-18.16871,-0.6798706,0.1932231,0.6323101,37.19866,-31.54408,-41.58578
42.52,-23.60351,-110.8055,-17.80236,-0.6807806,0.1817549,0.6491722,37.19866,-31.54408,-41.58578
42.53,-27.6482,-118.2277,-20.36684,-0.6849996,0.1601024,0.6664866,37.19866,-31.54408,-41.58578
42.54,-27.89711,-124.5896,-23.54192,-0.6543906,0.1646134,0.6574069,34.63034,-30.11652,-44.03447
42.55,-28.20823,-130.9515,-26.16746,-0.629081,0.1576703,0.670486,34.63034,-30.11652,-44.03447
42.56,-28.33269,-133.7201,-30.62478,-0.5730923,0.1437514,0.6884548,34.63034,-30.11652,-44.03447
42.57,-27.33707,-133.838,-34.22727,-0.550033,0.1272838,0.6672466,34.63034,-30.11652,-44.03447
42.58,-23.23016,-138.5505,-34.7768,-0.5620396,0.1084171,0.6782739,34.63034,-30.11652,-44.03447
42.59,-14.7052,-137.6669,-29.64783,-0.5020488,0.145943,0.6558294,30.36153,-28.7517,-47.31981
42.6,-12.46507,-138.6683,-25.74005,-0.5328066,0.1625577,0.6466174,30.36153,-28.7517,-47.31981
42.61,-14.95411,-146.2672,-25.37369,-0.5455688,0.115299,0.6759183,30.36153,-28.7517,-47.31981
42.62,-17.50537,-155.1032,-26.35064,-0.5154848,0.06486406,0.6918117,30.36153,-28.7517,-47.31981
42.63,-17.94095,-161.3473,-27.02229,-0.4654976,0.02077042,0.6961887,30.36153,-28.7517,-47.31981
42.64,-15.20301,-168.7106,-25.49581,-0.4158978,0.01547315,0.7098166,25.29013,-27.30792,-49.79227
42.65,-10.84719,-175.8972,-24.03039,-0.3668679,0.0151383,0.7374476,25.29013,-27.30792,-49.79227
42.66,-6.118021,-181.7289,-23.78615,-0.3113767,0.0007842188,0.7612048,25.29013,-27.30792,-49.79227
42.67,-0.0821036699999998,-177.9589,-22.99239,-0.1742086,-0.003120768,0.7465911,25.29013,-27.30792,-49.79227
42.68,7.385011,-167.0612,-17.25282,-0.1919201,-0.03464985,0.7537158,25.29013,-27.30792,-49.79227
42.69,16.78113,-169.7709,-8.093948,-0.2905264,-0.003101135,0.7950286,19.18341,-26.21271,-51.82648
42.7,18.89681,-175.9561,-0.4004934,-0.3551586,0.04389608,0.8031662,19.18341,-26.21271,-51.82648
42.71,18.399,-181.1988,3.385175,-0.3163347,-0.003624023,0.8128152,19.18341,-26.21271,-51.82648
42.72,20.26578,-183.9085,7.96461200000002,-0.2710253,-0.006420014,0.7859033,19.18341,-26.21271,-51.82648
42.73,26.3017,-189.6224,12.05558,-0.1765815,-0.01177132,0.7552522,19.18341,-26.21271,-51.82648
42.74,31.71536,-197.2803,15.84124,-0.094248,0.01520224,0.7772372,12.04827,-26.1798,-52.71574
42.75,34.4533,-205.9984,15.41383,0.02831827,0.0009272881,0.8055105,12.04827,-26.1798,-52.71574
42.76,36.69343,-202.1106,12.54405,0.2180477,-0.006993251,0.783303,12.04827,-26.1798,-52.71574
42.77,43.10271,-190.3882,12.29981,0.3266205,0.006149768,0.8584064,12.04827,-26.1798,-52.71574
42.78,49.13862,-177.252,13.76523,0.3657711,0.06789415,0.9093077,12.04827,-26.1798,-52.71574
42.79,49.82311,-165.6475,16.14654,0.3083648,0.1561661,0.9798015,2.712725,-27.18104,-51.20739
42.8,44.53391,-156.3991,21.09233,0.2063249,0.2423918,1.023153,2.712725,-27.18104,-51.20739
42.81,38.99579,-150.0372,27.13719,0.1235853,0.2010811,1.021403,2.712725,-27.18104,-51.20739
42.82,36.63121,-154.573,33.48735,0.09684394,0.2149604,0.9740744,2.712725,-27.18104,-51.20739
42.83,34.7022,-164.4693,36.72348,0.163789,0.2417313,0.9337704,2.712725,-27.18104,-51.20739
42.84,32.02649,-175.0136,38.12784,0.2937713,0.2402347,0.8708886,-5.160841,-28.82962,-48.03165
42.85,24.37269,-187.0305,37.21195,0.4519268,0.2029149,0.9421509,-5.160841,-28.82962,-48.03165
42.86,15.66106,-185.0866,33.67052,0.6015756,0.2099475,0.9488251,-5.160841,-28.82962,-48.03165
42.87,8.25617399999998,-171.4792,28.84685,0.6870542,0.2132101,0.9683545,-5.160841,-28.82962,-48.03165
42.88,3.278098,-155.1621,25.00012,0.6377247,0.2855492,0.9828593,-5.160841,-28.82962,-48.03165
42.89,-1.451075,-142.4383,22.13034,0.5373522,0.3626553,0.9798709,-13.11144,-29.807,-44.48808
42.9,-9.10486700000003,-133.9558,22.92411,0.4570541,0.474815,0.9828002,-13.11144,-29.807,-44.48808
42.91,-10.90942,-134.8983,16.87925,0.5067231,0.3605551,0.9879907,-13.11144,-29.807,-44.48808
42.92,-13.70959,-138.9628,18.8942,0.5163637,0.3946665,0.8992999,-13.11144,-29.807,-44.48808
42.93,-16.44753,-147.7399,15.96336,0.5959811,0.3112836,0.8684429,-13.11144,-29.807,-44.48808
42.94,-17.38092,-157.2238,15.53595,0.621415,0.2361969,0.8915094,-19.60672,-30.07502,-41.32135
42.95,-14.95411,-160.8171,15.71913,0.7074751,0.0833161,0.8759611,-19.60672,-30.07502,-41.32135
42.96,-13.33623,-160.1692,15.78018,0.7026862,0.0190584,0.8917348,-19.60672,-30.07502,-41.32135
42.97,-11.03387,-155.5744,16.69607,0.6952673,-0.02251814,0.9027249,-19.60672,-30.07502,-41.32135
42.98,-2.633368,-145.3247,19.56585,0.6420991,-0.04269519,0.8581499,-19.60672,-30.07502,-41.32135
42.99,7.75836700000001,-140.0231,18.8942,0.6030259,-0.01800171,0.8397653,-25.40255,-28.53621,-38.24003
43,22.00811,-138.4326,19.50479,0.6163225,0.0309774,0.786342,-25.40255,-28.53621,-38.24003
43.01,34.26662,-140.8478,15.35277,0.674458,0.1087269,0.7717001,-25.40255,-28.53621,-38.24003
43.02,41.42261,-141.8492,7.96461200000002,0.8030788,0.1753012,0.7982325,-25.40255,-28.53621,-38.24003
43.03,39.36915,-138.3737,7.59825700000001,0.9018125,0.2513292,0.8787537,-25.40255,-28.53621,-38.24003
43.04,29.72413,-124.7074,7.47613899999998,0.9295401,0.3060825,0.8625363,-30.46361,-28.11717,-33.11138
43.05,13.66983,-110.8055,9.307915,1.004798,0.2246912,1.001047,-30.46361,-28.11717,-33.11138
43.06,3.527002,-109.5095,30.98392,0.8988862,0.2018952,0.8733319,-30.46361,-28.11717,-33.11138
43.07,-0.4554594,-98.9063699999998,24.38953,0.8635197,0.1414644,0.8571867,-30.46361,-28.11717,-33.11138
43.08,-2.44669,-99.2008999999998,32.63251,0.825945,0.198127,0.8938853,-30.46361,-28.11717,-33.11138
43.09,-1.202171,-87.8319499999998,26.70978,0.941843,0.100875,0.7969828,-34.84351,-28.65478,-27.07622
43.1,1.224641,-78.81925,23.59576,0.9588749,0.2586569,0.784337,-34.84351,-28.65478,-27.07622
43.11,1.411319,-64.8584100000003,15.47489,0.9746308,0.3438715,0.7753925,-34.84351,-28.65478,-27.07622
43.12,2.344709,-54.96212,12.29981,0.9897233,0.3514163,0.7407041,-34.84351,-28.65478,-27.07622
43.13,0.851285599999998,-49.30709,16.26866,0.9609419,0.2973934,0.7849082,-37.75847,-27.5637,-24.33993
43.14,-0.3310075,-39.41079,14.43688,0.9335572,0.1512641,0.8105811,-37.75847,-27.5637,-24.33993
43.15,0.5401558,-29.75013,14.98642,0.9144357,0.06590021,0.8060054,-37.75847,-27.5637,-24.33993
43.16,2.220257,-23.2115,15.10853,0.9170192,0.05603496,0.783311,-37.75847,-27.5637,-24.33993
43.17,4.522617,-14.55225,14.80324,0.9187675,0.09093332,0.7346531,-37.75847,-27.5637,-24.33993
43.18,7.82059199999998,-4.773765,14.62006,0.9094223,0.1641132,0.7010079,-37.75847,-27.5637,-24.33993
43.19,9.31401500000002,1.234699,13.39888,0.8743129,0.2389708,0.6610267,-38.51706,-27.16346,-22.33084
43.2,7.073881,4.297838,11.93346,0.8369038,0.2955564,0.6359593,-38.51706,-27.16346,-22.33084
43.21,2.78029,4.533464,10.83439,0.8083086,0.2973972,0.5968031,-38.51706,-27.16346,-22.33084
43.22,-0.891041099999997,4.121119,9.97956599999998,0.7987009,0.2795917,0.616042,-38.51706,-27.16346,-22.33084
43.23,-2.260012,4.886903,8.758382,0.7853855,0.2503718,0.607259,-39.56422,-26.4389,-22.79466
43.24,-2.944497,5.77050099999998,6.56025100000003,0.7699153,0.2405896,0.6091282,-39.56422,-26.4389,-22.79466
43.25,-4.313468,5.004716,3.568352,0.7416188,0.2095549,0.5732799,-39.56422,-26.4389,-22.79466
43.26,-7.54921799999998,2.177203,1.064927,0.7263615,0.2325688,0.562674,-39.56422,-26.4389,-22.79466
43.27,-10.78497,-2.476411,-1.011085,0.745392,0.2273192,0.5545084,-39.56422,-26.4389,-22.79466
43.28,-14.89188,-5.303924,-2.781801,0.7954886,0.227618,0.5445048,-39.93052,-26.43653,-22.79814
43.29,-17.25647,-5.89298899999999,-5.224167,0.828369,0.1954237,0.5416251,-39.93052,-26.43653,-22.79814
43.3,-17.44315,-5.716269,-7.11700199999997,0.8230599,0.1401857,0.5385973,-39.93052,-26.43653,-22.79814
43.31,-15.32746,-5.127204,-9.25407200000002,0.8076743,0.1179313,0.5525037,-39.93052,-26.43653,-22.79814
43.32,-11.90504,-5.421737,-11.20796,0.7904626,0.0882365,0.5480525,-39.93052,-26.43653,-22.79814
43.33,-10.47384,-7.36565199999998,-11.33008,0.7771235,0.05440525,0.5643521,-40.31033,-25.70911,-22.81329
43.34,-9.66490099999997,-7.66018500000001,-11.94068,0.7901378,0.0642517,0.571645,-40.31033,-25.70911,-22.81329
43.35,-6.180247,-3.477822,-16.76435,0.8528178,0.11193,0.5989318,-40.31033,-25.70911,-22.81329
43.36,-2.944497,0.881260199999998,-19.0846,0.8766198,0.1606776,0.617435,-40.31033,-25.70911,-22.81329
43.37,-3.442305,4.356745,-19.38989,0.8694816,0.1875158,0.6478749,-40.31033,-25.70911,-22.81329
43.38,-6.180247,6.30066,-19.26778,0.844628,0.1861203,0.6753131,-39.94823,-25.70427,-22.36752
43.39,-8.04702599999999,8.12676100000001,-19.69519,0.8483012,0.2032761,0.6961089,-39.94823,-25.70427,-22.36752
43.4,-10.59829,9.83504999999998,-22.50391,0.8692965,0.2450728,0.6977006,-39.94823,-25.70427,-22.36752
43.41,-15.45191,13.54616,-24.82416,0.8708941,0.2310244,0.6947792,-39.94823,-25.70427,-22.36752
43.42,-19.93218,19.67244,-24.64098,0.8602356,0.1799728,0.6777527,-39.94823,-25.70427,-22.36752
43.43,-19.37215,23.44246,-23.4198,0.8564309,0.1712232,0.6767591,-39.19116,-26.8038,-22.78534
43.44,-18.00318,25.15075,-24.7631,0.8566781,0.1912427,0.6961047,-39.19116,-26.8038,-22.78534
43.45,-18.50099,29.92217,-27.51076,0.8754205,0.2028888,0.7367121,-39.19116,-26.8038,-22.78534
43.46,-21.36338,38.58143,-28.73195,0.8626395,0.2182666,0.7357472,-39.19116,-26.8038,-22.78534
43.47,-24.5369,44.70771,-30.4416,0.8765612,0.2442802,0.7107465,-39.19116,-26.8038,-22.78534
43.48,-27.3993,49.30241,-32.76185,0.9049116,0.2723237,0.7369375,-38.49783,-27.19643,-24.35272
43.49,-30.94618,55.13416,-32.82291,0.9235197,0.2541975,0.7499754,-38.49783,-27.19643,-24.35272
43.5,-35.11531,62.0262200000002,-31.7849,0.9067212,0.2327199,0.7440953,-38.49783,-27.19643,-24.35272
43.51,-38.03994,67.7401599999999,-30.86902,0.8848391,0.1765647,0.7608073,-38.49783,-27.19643,-24.35272
43.52,-37.60435,74.04315,-30.93008,0.867499,0.1538594,0.7800157,-38.49783,-27.19643,-24.35272
43.53,-35.86203,80.4639600000002,-31.72384,0.8575884,0.1148105,0.8049988,-36.26366,-27.97487,-26.72116
43.54,-33.68412,89.6533799999998,-29.89207,0.8591347,0.1536572,0.8181151,-36.26366,-27.97487,-26.72116
43.55,-32.6885,94.3069900000002,-30.62478,0.8638346,0.175331,0.8027322,-36.26366,-27.97487,-26.72116
43.56,-32.4396,96.8988799999998,-30.93008,0.8384964,0.1818997,0.8017159,-36.26366,-27.97487,-26.72116
43.57,-33.43521,100.3155,-30.7469,0.8225043,0.1722321,0.8166129,-36.26366,-27.97487,-26.72116
43.58,-32.1907,103.4964,-29.4036,0.7939743,0.1518153,0.8309719,-34.45114,-28.05847,-31.1272
43.59,-32.81295,106.5595,-26.717,0.7541034,0.1501313,0.8395513,-34.45114,-28.05847,-31.1272
43.6,-31.75511,110.0939,-26.16746,0.7364483,0.1156023,0.8360537,-34.45114,-28.05847,-31.1272
43.61,-28.95495,112.568,-24.39675,0.7365872,0.09263296,0.8644751,-34.45114,-28.05847,-31.1272
43.62,-26.40368,117.4573,-25.12946,0.7221579,0.06809366,0.892373,-34.45114,-28.05847,-31.1272
43.63,-22.98125,120.6382,-21.46591,0.7274637,0.009449007,0.931347,-31.53467,-28.45027,-35.45476
43.64,-20.11886,130.4756,-22.13756,0.7032986,0.07766772,1.003331,-31.53467,-28.45027,-35.45476
43.65,-17.44315,137.9567,-23.17556,0.7181747,0.09624419,1.01113,-31.53467,-28.45027,-35.45476
43.66,-17.06979,144.6721,-23.60298,0.7092476,0.1202095,0.9933044,-31.53467,-28.45027,-35.45476
43.67,-20.05663,143.6706,-20.67214,0.6589061,0.1601125,0.9541739,-31.53467,-28.45027,-35.45476
43.68,-21.11448,144.6131,-22.19862,0.6042091,0.1980414,0.9145453,-27.89422,-28.53956,-39.4643
43.69,-23.60351,144.4364,-22.13756,0.599265,0.2010909,0.9348062,-27.89422,-28.53956,-39.4643
43.7,-26.15478,144.4953,-21.03849,0.5956026,0.1745198,0.942943,-27.89422,-28.53956,-39.4643
43.71,-26.71481,137.0731,-15.05469,0.6384867,0.05263496,0.966919,-27.89422,-28.53956,-39.4643
43.72,-27.08817,144.9077,-12.91762,0.499898,0.1948848,1.029116,-27.89422,-28.53956,-39.4643
43.73,-28.70604,146.616,-7.60547500000002,0.5266907,0.04470074,0.9883283,-22.11399,-28.64786,-43.76946
43.74,-26.217,147.7941,-1.011085,0.3817348,0.1800238,1.092476,-22.11399,-28.64786,-43.76946
43.75,-19.99441,150.3271,-6.62852899999999,0.4483665,0.05132666,0.9857278,-22.11399,-28.64786,-43.76946
43.76,-15.57637,154.156,-2.964978,0.3797704,0.09338236,1.039204,-22.11399,-28.64786,-43.76946
43.77,-10.10048,157.8671,-6.38429200000001,0.3813278,0.09353588,1.00157,-22.11399,-28.64786,-43.76946
43.78,-9.789352,161.7549,-5.529463,0.3789295,0.03880891,0.9990332,-16.34914,-28.08638,-47.76939
43.79,-10.72274,164.6414,-3.331333,0.3403766,0.0982973,1.028015,-16.34914,-28.08638,-47.76939
43.8,-13.39846,168.2347,-2.598624,0.2956392,0.1139456,0.9777477,-16.34914,-28.08638,-47.76939
43.81,-16.94534,170.1786,-1.438499,0.2661372,0.1038387,0.9559352,-16.34914,-28.08638,-47.76939
43.82,-20.30554,172.2403,-0.4615526,0.2383206,0.1278989,0.9115207,-9.508863,-27.0823,-50.12291
43.83,-23.23016,174.2431,1.980814,0.2026546,0.1045675,0.8776002,-9.508863,-27.0823,-50.12291
43.84,-23.72797,173.1828,4.728477,0.1623823,0.1040072,0.8504723,-9.508863,-27.0823,-50.12291
43.85,-26.83926,171.7691,8.69732300000001,0.1089418,0.09739092,0.8604538,-9.508863,-27.0823,-50.12291
43.86,-26.217,168.1169,9.00261899999998,0.07210302,0.02949101,0.8756545,-9.508863,-27.0823,-50.12291
43.87,-21.98564,170.5909,13.2157,0.06423029,-0.01594748,0.8880827,-2.65509,-26.80327,-52.46477
43.88,-19.43438,172.9472,15.96336,0.01297949,0.01529887,0.8556869,-2.65509,-26.80327,-52.46477
43.89,-18.62544,173.3595,17.42878,-0.01422308,-0.04802096,0.8873289,-2.65509,-26.80327,-52.46477
43.9,-15.94972,174.4787,17.18455,-0.09105627,-0.02601477,0.8186561,-2.65509,-26.80327,-52.46477
43.91,-11.46945,173.1239,18.64997,-0.1065854,-0.02247082,0.7959439,-2.65509,-26.80327,-52.46477
43.92,-8.10925100000002,172.2403,20.60386,-0.1552521,0.04131694,0.7742407,5.950994,-26.15361,-53.59514
43.93,-6.92695900000001,170.0019,19.56585,-0.1591382,0.04690514,0.7534932,5.950994,-26.15361,-53.59514
43.94,-7.42476599999998,167.1743,18.77208,-0.191769,0.05201341,0.7577629,5.950994,-26.15361,-53.59514
43.95,-7.36253999999998,163.3454,18.52785,-0.2097411,0.0560486,0.7379407,5.950994,-26.15361,-53.59514
43.96,-5.557987,158.5151,20.2375,-0.220495,0.05709946,0.7562521,5.950994,-26.15361,-53.59514
43.97,-4.624598,155.9821,21.70292,-0.2247081,0.03261354,0.7812812,12.75185,-24.43855,-53.11608
43.98,-3.193401,154.156,22.92411,-0.2564761,0.04653187,0.7957057,12.75185,-24.43855,-53.11608
43.99,-2.882272,151.6819,26.58766,-0.3353058,0.05040388,0.8099871,12.75185,-24.43855,-53.11608
44,-4.74905,146.9694,25.12224,-0.3300934,0.01082659,0.8171537,12.75185,-24.43855,-53.11608
44.01,-4.997954,150.2682,22.74093,-0.2863687,0.03047837,0.7589203,12.75185,-24.43855,-53.11608
44.02,-4.997954,157.6315,23.10728,-0.3103664,0.05433041,0.741538,20.26634,-25.54903,-51.44764
44.03,-6.491377,152.271,23.35152,-0.4511421,0.1388116,0.7326706,20.26634,-25.54903,-51.44764
44.04,-7.86034799999999,143.4939,22.98517,-0.5053819,0.1777778,0.7002838,20.26634,-25.54903,-51.44764
44.05,-8.73151100000002,137.3087,21.39763,-0.5459014,0.1478176,0.6866035,20.26634,-25.54903,-51.44764
44.06,-10.16271,128.2371,17.67302,-0.6165144,0.05536878,0.6920132,20.26634,-25.54903,-51.44764
44.07,-3.380079,123.1123,12.91041,-0.6036419,0.02937112,0.6958509,25.97915,-25.19075,-49.37707
44.08,2.718064,123.8781,9.185796,-0.6076754,0.04810826,0.6842996,25.97915,-25.19075,-49.37707
44.09,8.13172199999998,120.5204,11.01757,-0.5872349,0.0491259,0.6722907,25.97915,-25.19075,-49.37707
44.1,10.93189,120.2848,11.75028,-0.6112328,-0.02403154,0.6305724,25.97915,-25.19075,-49.37707
44.11,14.60322,114.0407,15.29171,-0.6651914,-0.06873366,0.603797,25.97915,-25.19075,-49.37707
44.12,18.399,113.864,18.71103,-0.6868289,-0.1453929,0.6006811,31.3252,-25.18025,-46.54593
44.13,22.9415,111.5666,22.92411,-0.7235051,-0.1261982,0.6141391,31.3252,-25.18025,-46.54593
44.14,29.84858,106.265,26.64872,-0.6865398,-0.08779272,0.6548511,31.3252,-25.18025,-46.54593
44.15,31.27978,104.6156,29.2132,-0.6943578,0.06998842,0.6633735,31.3252,-25.18025,-46.54593
44.16,27.85735,102.2594,28.54155,-0.697299,0.1862854,0.6293549,31.3252,-25.18025,-46.54593
44.17,18.52345,98.1948200000001,32.44934,-0.682769,0.1865745,0.648695,36.00898,-25.88322,-43.26722
44.18,8.25617399999998,96.7221600000001,33.12099,-0.6505237,0.06583008,0.6475535,36.00898,-25.88322,-43.26722
44.19,4.273713,95.3673099999998,35.99077,-0.7445642,-0.009137062,0.6264002,36.00898,-25.88322,-43.26722
44.2,4.460391,94.0713700000001,39.04373,-0.7699985,-0.04137727,0.6151667,36.00898,-25.88322,-43.26722
44.21,8.94065999999999,90.7725999999997,43.31787,-0.8428858,0.1217657,0.577208,36.00898,-25.88322,-43.26722
44.22,9.00288599999999,89.8889999999998,49.17955,-0.7336617,0.1306161,0.6054966,38.87782,-27.24615,-40.43751
44.23,4.024809,86.35461,47.83625,-0.736674,0.1944213,0.5998354,38.87782,-27.24615,-40.43751
44.24,-3.566757,83.2325700000002,46.30977,-0.747574,0.185437,0.525958,38.87782,-27.24615,-40.43751
44.25,-5.184632,79.69817,45.69918,-0.7819453,0.2378937,0.4700064,38.87782,-27.24615,-40.43751
44.26,-8.29592900000002,71.8046999999999,40.69233,-0.8207018,0.2762808,0.4670937,38.87782,-27.24615,-40.43751
44.27,-7.11363599999998,67.3278099999998,35.197,-0.8385348,0.1669016,0.4282087,41.38509,-28.67331,-37.9894
44.28,-1.202171,59.84668,31.22815,-0.8977098,0.2149848,0.3914858,41.38509,-28.67331,-37.9894
44.29,3.40255,50.18601,26.77083,-0.8803297,0.2202059,0.4185645,41.38509,-28.67331,-37.9894
44.3,5.70491,43.7063,22.31352,-0.8610327,0.1915664,0.3924951,41.38509,-28.67331,-37.9894
44.31,5.269328,38.75815,21.09233,-0.8376858,0.1912339,0.3891767,41.38509,-28.67331,-37.9894
44.32,3.527002,32.04281,18.10043,-0.8614856,0.1867629,0.3968265,42.4803,-29.66843,-35.56145
44.33,3.962583,27.80154,16.08548,-0.844363,0.1762189,0.3934702,42.4803,-29.66843,-35.56145
44.34,4.398165,24.09043,16.5129,-0.8772619,0.2084745,0.4031056,42.4803,-29.66843,-35.56145
44.35,3.464776,27.27138,15.29171,-0.8730637,0.1835668,0.3745925,42.4803,-29.66843,-35.56145
44.36,3.775905,19.61353,15.78018,-0.9175932,0.2594277,0.3997333,42.4803,-29.66843,-35.56145
44.37,-0.5176854,13.25163,13.09358,-0.9119936,0.2333117,0.3967963,43.90113,-30.75891,-35.1515
44.38,-2.073334,7.41988299999998,10.95651,-0.9250816,0.2288672,0.3982007,43.90113,-30.75891,-35.1515
44.39,-2.322238,-0.1790571,7.84249399999999,-0.9063096,0.1787788,0.4618379,43.90113,-30.75891,-35.1515
44.4,-0.8288152,-4.125793,4.850595,-0.8763183,0.1860649,0.4923314,43.90113,-30.75891,-35.1515
44.41,1.162415,-5.95189500000001,3.446234,-0.7603698,0.2531208,0.5294483,43.90113,-30.75891,-35.1515
44.42,-4.624598,-6.48205400000003,1.492341,-0.799518,0.2309629,0.5210964,43.53376,-31.10566,-34.32776
44.43,-6.242473,-5.245017,-0.4004934,-0.9129874,0.2221196,0.4440595,43.53376,-31.10566,-34.32776
44.44,-4.686824,-9.721912,-1.865914,-0.9800598,0.2243768,0.43038,43.53376,-31.10566,-34.32776
44.45,-3.940113,-15.25912,-4.979931,-0.9943788,0.2018189,0.4100275,43.53376,-31.10566,-34.32776
44.46,-1.699978,-21.79775,-7.42229700000003,-0.988906,0.1939427,0.3907228,43.53737,-31.11185,-34.70686
44.47,0.353478,-28.51309,-7.971829,-0.925487,0.2220317,0.3919118,43.53737,-31.11185,-34.70686
44.48,-0.891041099999997,-33.22561,-7.30017899999999,-0.8057723,0.2503966,0.4284727,43.53737,-31.11185,-34.70686
44.49,-5.682439,-35.16953,-8.15500699999999,-0.7746708,0.24598,0.4483279,43.53737,-31.11185,-34.70686
44.5,-8.980414,-37.17235,-10.59737,-0.8057227,0.2417914,0.4400355,43.53737,-31.11185,-34.70686
44.51,-10.66052,-41.06018,-12.97868,-0.8062908,0.2439335,0.463201,43.23992,-31.12326,-35.53115
44.52,-12.21616,-43.35753,-15.54317,-0.8109398,0.2206852,0.4650692,43.23992,-31.12326,-35.53115
44.53,-13.70959,-47.00974,-18.7793,-0.8481023,0.1937165,0.4581597,43.23992,-31.12326,-35.53115
44.54,-14.02072,-52.42913,-21.22167,-0.871241,0.1764791,0.4450341,43.23992,-31.12326,-35.53115
44.55,-14.58075,-58.5554099999998,-23.23662,-0.8511044,0.1539126,0.4474503,43.23992,-31.12326,-35.53115
44.56,-14.26962,-64.4460600000002,-24.88522,-0.8315306,0.139098,0.4513294,42.51198,-30.77557,-36.74444
44.57,-13.70959,-71.3381299999999,-26.28958,-0.8042663,0.1358881,0.4475323,42.51198,-30.77557,-36.74444
44.58,-13.58514,-78.0534700000001,-27.93818,-0.7832407,0.1211069,0.4538279,42.51198,-30.77557,-36.74444
44.59,-12.58952,-84.0619399999999,-27.57182,-0.7614192,0.1191078,0.4813852,42.51198,-30.77557,-36.74444
44.6,-12.65175,-87.53741,-27.02229,-0.7474558,0.1318522,0.4872392,42.51198,-30.77557,-36.74444
44.61,-13.58514,-91.7786899999997,-29.34254,-0.7980615,0.1227145,0.5367916,41.03019,-28.69051,-39.19337
44.62,-14.08294,-94.4883899999997,-35.50951,-0.8509471,0.09758435,0.5858211,41.03019,-28.69051,-39.19337
44.63,-10.22493,-98.9652799999998,-39.90577,-0.8562007,0.1372975,0.5936137,41.03019,-28.69051,-39.19337
44.64,-7.86034799999999,-103.56,-43.50826,-0.8221764,0.1865473,0.6053886,41.03019,-28.69051,-39.19337
44.65,-6.491377,-108.9794,-42.77555,-0.74972,0.2435022,0.5801228,41.03019,-28.69051,-39.19337
44.66,-9.789352,-115.2824,-41.49331,-0.675626,0.2736146,0.5818262,38.91309,-28.35947,-41.9996
44.67,-18.43876,-121.7621,-44.48521,-0.6289796,0.2297592,0.5620677,38.91309,-28.35947,-41.9996
44.68,-25.65697,-129.3021,-46.92758,-0.6274302,0.1767441,0.5315572,38.91309,-28.35947,-41.9996
44.69,-28.39491,-136.7833,-46.01169,-0.6478335,0.1327264,0.4981141,38.91309,-28.35947,-41.9996
44.7,-27.83488,-149.0947,-46.37804,-0.7018884,0.02764322,0.5368353,38.91309,-28.35947,-41.9996
44.71,-24.78581,-158.2252,-48.14876,-0.6572238,-0.07727194,0.5627825,36.78355,-26.95427,-45.64471
44.72,-17.13202,-154.573,-49.67524,-0.6076216,-0.1899049,0.5872783,36.78355,-26.95427,-45.64471
44.73,-3.380079,-152.2168,-50.10265,-0.6391052,-0.1617171,0.6273093,36.78355,-26.95427,-45.64471
44.74,8.56730399999999,-154.8087,-49.24783,-0.6654,-0.05772826,0.6433891,36.78355,-26.95427,-45.64471
44.75,19.14572,-160.0513,-47.35499,-0.5845616,0.03146106,0.6433068,36.78355,-26.95427,-45.64471
44.76,25.11941,-166.8256,-45.52322,-0.4676058,0.1059123,0.6413557,31.35163,-25.22558,-49.32602
44.77,23.75043,-173.4231,-43.87462,-0.3874719,0.1660724,0.6426568,31.35163,-25.22558,-49.32602
44.78,18.33678,-178.0767,-38.44035,-0.3257385,0.1693745,0.6336547,31.35163,-25.22558,-49.32602
44.79,10.49631,-183.3783,-31.29643,-0.3014251,0.1172801,0.6316752,31.35163,-25.22558,-49.32602
44.8,5.456006,-192.2732,-24.64098,-0.2990007,0.000142951,0.6801671,31.35163,-25.22558,-49.32602
44.81,7.509463,-205.8217,-19.81731,-0.3251432,-0.100509,0.8096889,25.24971,-24.13862,-51.8657
44.82,9.56291900000002,-202.1695,-20.55002,-0.2414405,-0.1622676,0.8117021,25.24971,-24.13862,-51.8657
44.83,19.64352,-189.3279,-25.80111,-0.2505676,-0.1753615,0.816476,25.24971,-24.13862,-51.8657
44.84,35.88449,-182.4947,-28.85406,-0.2889983,-0.0663636,0.8084078,25.24971,-24.13862,-51.8657
44.85,49.88533,-185.9113,-27.20547,-0.287335,0.07848723,0.7706022,25.24971,-24.13862,-51.8657
44.86,57.10355,-194.8651,-22.99239,-0.2381923,0.1808875,0.760333,17.38871,-24.46348,-52.75608
44.87,54.24115,-203.6422,-20.7332,-0.0930066,0.1942732,0.7776254,17.38871,-24.46348,-52.75608
44.88,47.27185,-207.1176,-14.87152,0.03570183,0.1485412,0.8005389,17.38871,-24.46348,-52.75608
44.89,41.04925,-208.7081,-7.72759299999999,0.08523142,0.07855582,0.8849622,17.38871,-24.46348,-52.75608
44.9,33.89326,-206.882,-4.796753,0.1386369,0.03021677,0.8985074,17.38871,-24.46348,-52.75608
44.91,31.03087,-195.8665,2.591406,0.1984003,-0.07139493,0.9023035,9.175275,-26.15501,-52.3639
44.92,36.00895,-189.5635,7.72037600000002,0.1592078,-0.1461324,0.9126577,9.175275,-26.15501,-52.3639
44.93,49.38753,-188.8566,14.68112,0.08142874,-0.08697136,0.8860442,9.175275,-26.15501,-52.3639
44.94,61.3971399999999,-190.6827,18.16149,0.06364205,-0.01233165,0.9136641,9.175275,-26.15501,-52.3639
44.95,69.3620600000001,-192.0376,22.49669,0.09699991,0.06939994,0.8791823,9.175275,-26.15501,-52.3639
44.96,72.1622199999999,-196.6323,26.2213,0.2254032,0.07954535,0.8206642,0.2085819,-27.51394,-50.40395
44.97,72.2244500000001,-199.6365,31.59451,0.3198539,0.0727642,0.7924229,0.2085819,-27.51394,-50.40395
44.98,68.8642500000003,-201.6393,36.11289,0.3958738,0.05538556,0.7853433,0.2085819,-27.51394,-50.40395
44.99,54.67673,-203.2298,32.44934,0.4865552,0.01816443,0.8187931,0.2085819,-27.51394,-50.40395
45,69.5487399999999,-194.276,39.34903,0.5833032,-0.007386612,0.906329,0.2085819,-27.51394,-50.40395
45.01,79.1315300000001,-186.5593,51.4998,0.501026,0.08638249,0.8045006,-8.395504,-29.86324,-46.02301
45.02,88.4031999999999,-187.1483,50.33968,0.4964216,0.2103781,0.8201969,-8.395504,-29.86324,-46.02301
45.03,90.7677800000001,-188.7977,48.2026,0.5331153,0.2928261,0.808405,-8.395504,-29.86324,-46.02301
45.04,88.5898799999998,-191.2718,41.36398,0.5982533,0.3083422,0.7560086,-8.395504,-29.86324,-46.02301
45.05,85.6652600000001,-196.9268,43.80634,0.6681474,0.3497671,0.8344508,-8.395504,-29.86324,-46.02301
45.06,81.3716699999998,-195.9254,45.8213,0.7391409,0.2904872,0.8538084,-17.44812,-31.82251,-40.13554
45.07,78.1981400000001,-189.0334,50.09544,0.7737235,0.2581683,0.9421345,-17.44812,-31.82251,-40.13554
45.08,74.6512700000002,-178.3124,52.35463,0.7986808,0.2418693,0.9378209,-17.44812,-31.82251,-40.13554
45.09,78.4470399999999,-163.3501,41.97457,0.8180768,0.2585945,0.8978553,-17.44812,-31.82251,-40.13554
45.1,78.2603699999997,-159.4623,48.26366,0.8891396,0.2579089,0.8681191,-17.44812,-31.82251,-40.13554
45.11,78.01147,-157.8129,58.4605400000002,0.9735692,0.3178952,0.8998315,-24.62325,-33.82666,-32.52316
45.12,70.6688000000001,-145.9727,57.3614800000002,0.9457,0.6204966,0.9920944,-24.62325,-33.82666,-32.52316
45.13,57.7258100000001,-131.6584,45.76024,1.116215,0.5519069,0.9137313,-24.62325,-33.82666,-32.52316
45.14,46.08955,-135.1928,65.0549299999997,1.057252,0.6808245,0.8786303,-24.62325,-33.82666,-32.52316
45.15,27.54622,-128.5364,63.2842200000002,1.063202,0.5726867,0.8494602,-24.62325,-33.82666,-32.52316
45.16,19.14572,-120.8196,69.3901400000001,1.047425,0.4427904,0.840937,-30.79367,-34.02596,-24.99328
45.17,15.34993,-111.2767,73.4200400000001,1.010511,0.3948337,0.8141985,-30.79367,-34.02596,-24.99328
45.18,10.37186,-107.3889,73.35898,0.968163,0.3333251,0.685599,-30.79367,-34.02596,-24.99328
45.19,7.94504500000001,-103.56,73.1147499999998,0.9539574,0.3574916,0.6412199,-30.79367,-34.02596,-24.99328
45.2,4.584843,-99.96669,69.20695,1.004934,0.4244285,0.6144725,-34.81439,-33.55941,-20.23485
45.21,0.913511500000001,-96.0788699999998,66.2761199999998,1.049507,0.440276,0.6160691,-34.81439,-33.55941,-20.23485
45.22,-1.015493,-88.4799199999999,60.1701999999999,1.063135,0.379158,0.6420306,-34.81439,-33.55941,-20.23485
45.23,0.353478,-81.9413,59.9259599999999,1.032887,0.2752373,0.6817807,-34.81439,-33.55941,-20.23485
45.24,-0.891041099999997,-74.5779900000002,58.6437200000001,0.9557701,0.2157086,0.6409198,-34.81439,-33.55941,-20.23485
45.25,0.5401558,-67.8037299999997,56.62877,0.9464077,0.1825556,0.6220049,-39.18544,-30.26452,-16.34641
45.26,-0.2687815,-58.8499500000002,54.98017,0.9556094,0.1986865,0.578634,-39.18544,-30.26452,-16.34641
45.27,0.353478,-52.01679,52.47675,0.9689645,0.2371553,0.5401472,-39.18544,-30.26452,-16.34641
45.28,-2.695594,-46.53848,47.1646,0.9744759,0.2856292,0.4910456,-39.18544,-30.26452,-16.34641
45.29,-2.322238,-42.70956,44.53905,0.9771891,0.3083653,0.4877236,-39.18544,-30.26452,-16.34641
45.3,-3.380079,-37.76141,39.10479,0.9560173,0.3004488,0.4336066,-41.8295,-27.36179,-13.5732
45.31,0.1668001,-35.52296,32.87675,0.9716158,0.2826066,0.4804157,-41.8295,-27.36179,-13.5732
45.32,2.158031,-29.5145,25.00012,0.9841477,0.2359589,0.5020624,-41.8295,-27.36179,-13.5732
45.33,2.593612,-20.4429,17.61196,0.9852287,0.2173173,0.5266351,-41.8295,-27.36179,-13.5732
45.34,2.531386,-9.60409900000001,9.43003299999998,0.9963034,0.2252568,0.5387444,-41.8295,-27.36179,-13.5732
45.35,1.100189,1.116886,1.736577,0.9990742,0.2370162,0.5522882,-43.63779,-25.88168,-12.47605
45.36,-1.264397,11.77896,-5.04099,1.014082,0.2448414,0.5484834,-43.63779,-25.88168,-12.47605
45.37,-3.628983,21.32182,-11.57432,1.034304,0.2676833,0.541829,-43.63779,-25.88168,-12.47605
45.38,-6.98918399999998,30.92358,-18.16871,1.059053,0.2703621,0.5491368,-43.63779,-25.88168,-12.47605
45.39,-9.913804,41.76238,-24.70204,1.07736,0.2869944,0.5530801,-43.63779,-25.88168,-12.47605
45.4,-12.40284,51.8943,-31.05219,1.079932,0.3219204,0.5599176,-43.64455,-25.51916,-12.48188
45.41,-16.82089,61.4960599999998,-37.58553,1.057738,0.350005,0.5806703,-43.64455,-25.51916,-12.48188
45.42,-23.04348,72.27596,-43.63038,1.046794,0.3676273,0.6120456,-43.64455,-25.51916,-12.48188
45.43,-29.76388,84.4107000000001,-47.41605,1.036176,0.356035,0.6235745,-43.64455,-25.51916,-12.48188
45.44,-36.54651,95.4851200000001,-49.91948,1.025479,0.354086,0.6312635,-43.64455,-25.51916,-12.48188
45.45,-42.5202,103.0841,-51.99549,1.023991,0.3499516,0.6568258,-42.51305,-25.93311,-15.18251
45.46,-48.30722,111.6255,-54.55997,1.051,0.3131487,0.6843217,-42.51305,-25.93311,-15.18251
45.47,-51.29406,124.526,-53.82726,1.041263,0.309368,0.7026253,-42.51305,-25.93311,-15.18251
45.48,-53.7831,130.24,-53.15561,1.046296,0.2919543,0.6992229,-42.51305,-25.93311,-15.18251
45.49,-57.8900099999998,136.4251,-53.52197,1.055874,0.2929743,0.7499175,-42.51305,-25.93311,-15.18251
45.5,-62.9303200000001,140.4308,-53.52197,1.055853,0.2770995,0.8135798,-40.64972,-28.15099,-20.75502
45.51,-65.9171600000003,147.7941,-53.39985,1.041578,0.2785138,0.8748296,-40.64972,-28.15099,-20.75502
45.52,-67.1616800000003,152.7422,-49.24783,1.041696,0.2649949,0.8781788,-40.64972,-28.15099,-20.75502
45.53,-68.4061999999997,159.2809,-49.24783,1.016731,0.2649046,0.9427757,-40.64972,-28.15099,-20.75502
45.54,-73.2598300000002,168.7059,-50.71325,0.9708551,0.2382156,0.9208854,-40.64972,-28.15099,-20.75502
45.55,-75.5621899999998,174.6555,-47.90452,0.9543589,0.1852573,0.9120431,-36.59628,-29.37555,-27.52366
45.56,-73.0731499999997,176.7172,-40.94378,0.8871388,0.2030085,0.8993616,-36.59628,-29.37555,-27.52366
45.57,-66.85056,180.7228,-43.99673,0.8576952,0.141859,0.852347,-36.59628,-29.37555,-27.52366
45.58,-64.9215499999997,183.0791,-44.48521,0.8255709,0.1384622,0.878797,-36.59628,-29.37555,-27.52366
45.59,-57.7033399999997,183.9627,-42.28708,0.8198585,0.02131063,0.8794955,-36.59628,-29.37555,-27.52366
45.6,-51.72964,187.9094,-39.35624,0.7764883,0.02179425,0.916541,-31.88327,-29.18015,-35.88886
45.61,-43.32914,191.3849,-37.58553,0.7366784,0.007246124,0.9472902,-31.88327,-29.18015,-35.88886
45.62,-34.18193,197.2756,-37.58553,0.7094375,0.01319308,0.9327562,-31.88327,-29.18015,-35.88886
45.63,-34.1197,186.1422,-20.00049,0.7371675,0.03604809,1.027457,-31.88327,-29.18015,-35.88886
45.64,-23.72797,192.7398,-20.91637,0.6640196,0.02271327,0.7946506,-31.88327,-29.18015,-35.88886
45.65,-11.345,197.5112,-26.65594,0.5208991,0.1654461,0.9137778,-25.00763,-28.29521,-41.84288
45.66,-14.7052,200.6332,-32.15126,0.5211075,0.2043533,0.8815313,-25.00763,-28.29521,-41.84288
45.67,-22.8568,200.7511,-27.51076,0.4914934,0.1498627,0.8750647,-25.00763,-28.29521,-41.84288
45.68,-25.22139,204.1676,-27.81606,0.3875503,0.1977502,0.855115,-25.00763,-28.29521,-41.84288
45.69,-25.65697,199.6907,-23.84721,0.3444369,0.1357501,0.8326733,-25.00763,-28.29521,-41.84288
45.7,-19.68328,195.8618,-20.30578,0.3037452,0.07473677,0.8102399,-17.07042,-29.09538,-46.93843
45.71,-23.04348,194.4481,-16.52011,0.2574369,0.08230297,0.8304038,-17.07042,-29.09538,-46.93843
45.72,-24.41245,191.6795,-14.68834,0.226199,0.04851291,0.8133613,-17.07042,-29.09538,-46.93843
45.73,-20.67889,191.8562,-11.4522,0.2017896,-0.08746892,0.7816404,-17.07042,-29.09538,-46.93843
45.74,-14.33185,194.0357,-6.93382399999998,0.1528753,-0.0596455,0.7965332,-17.07042,-29.09538,-46.93843
45.75,-10.72274,194.2124,-6.26217300000001,0.1104305,-0.04258538,0.7930825,-8.759602,-28.16843,-49.71935
45.76,-9.35377,195.8618,-3.636629,0.08391681,-0.06556869,0.7895869,-8.759602,-28.16843,-49.71935
45.77,-3.504531,198.5126,1.919755,0.02916582,-0.02558586,0.7629914,-8.759602,-28.16843,-49.71935
45.78,2.344709,199.3373,7.10978400000003,-0.01176674,0.03230911,0.7784519,-8.759602,-28.16843,-49.71935
45.79,0.664607699999999,196.2153,5.278009,-0.02425773,0.06053102,0.8059856,0.2278042,-27.54691,-52.42583
45.8,-2.508916,196.2742,4.545299,-0.04141047,0.07774026,0.7972925,0.2278042,-27.54691,-52.42583
45.81,-4.189016,196.6865,9.12473700000001,-0.06852011,0.1275388,0.7621036,0.2278042,-27.54691,-52.42583
45.82,-9.29154500000003,196.1563,13.27676,-0.0890746,0.1484701,0.7398983,0.2278042,-27.54691,-52.42583
45.83,-16.01195,196.5687,12.05558,-0.1614929,0.1403636,0.7618914,0.2278042,-27.54691,-52.42583
45.84,-25.34584,194.4481,10.34592,-0.2073829,0.1123149,0.7501315,8.839583,-27.6089,-52.72315
45.85,-26.90149,190.0301,11.01757,-0.2434087,0.07355578,0.7229325,8.839583,-27.6089,-52.72315
45.86,-23.97687,185.1997,15.78018,-0.2660758,0.1072202,0.7190861,8.839583,-27.6089,-52.72315
45.87,-22.98125,181.9599,16.87925,-0.2653342,0.08527695,0.7002214,8.839583,-27.6089,-52.72315
45.88,-21.98564,179.3091,20.66492,-0.3152592,0.0750326,0.6807687,8.839583,-27.6089,-52.72315
45.89,-22.73235,172.9472,22.49669,-0.3593204,0.06004282,0.6666289,17.42599,-27.27643,-51.0676
45.9,-20.18109,167.5867,25.12224,-0.4027269,0.02621049,0.6553456,17.42599,-27.27643,-51.0676
45.91,-16.94534,165.7017,24.38953,-0.4626242,-0.00974785,0.6372595,17.42599,-27.27643,-51.0676
45.92,-12.27839,156.7479,26.46554,-0.5718777,-0.01943909,0.622963,17.42599,-27.27643,-51.0676
45.93,-7.86034799999999,149.9736,27.93096,-0.6031559,-0.04465452,0.5909799,17.42599,-27.27643,-51.0676
45.94,-0.953267000000001,145.968,27.62566,-0.6107119,-0.02320451,0.6146514,25.26064,-25.91207,-49.43554
45.95,4.335939,143.6117,22.67987,-0.5967138,-0.004946738,0.5881866,25.26064,-25.91207,-49.43554
45.96,9.43846700000002,137.6033,19.44374,-0.6249785,0.06233082,0.5602705,25.26064,-25.91207,-49.43554
45.97,15.78551,128.1193,21.5808,-0.6693587,0.1269127,0.5689808,25.26064,-25.91207,-49.43554
45.98,15.47438,121.1095,21.21445,-0.6473734,0.1196845,0.5535803,25.26064,-25.91207,-49.43554
45.99,13.73206,115.5133,25.06118,-0.6786548,0.1354809,0.5612544,31.03907,-26.20541,-46.5323
46,10.68299,109.5638,26.09918,-0.7342836,0.05374762,0.5614178,31.03907,-26.20541,-46.5323
46.01,14.85213,104.0855,27.62566,-0.7579526,0.03805893,0.5593928,31.03907,-26.20541,-46.5323
46.02,19.5813,98.9017000000002,27.74778,-0.7487556,0.04435617,0.5521918,31.03907,-26.20541,-46.5323
46.03,23.00372,95.0727799999997,28.1752,-0.7541469,0.09906188,0.5590512,31.03907,-26.20541,-46.5323
46.04,22.25701,90.4780700000002,27.25931,-0.7067391,0.1156702,0.5886447,36.02871,-26.91139,-43.31388
46.05,20.63914,87.94509,27.68672,-0.7174873,0.1303032,0.5572827,36.02871,-26.91139,-43.31388
46.06,18.77236,83.64491,28.05308,-0.7694593,0.1297614,0.5421885,36.02871,-26.91139,-43.31388
46.07,15.90997,78.4022400000001,27.13719,-0.7713956,0.06948976,0.5681116,36.02871,-26.91139,-43.31388
46.08,15.72329,75.6925400000001,30.43439,-0.7594504,0.04239839,0.5589157,36.02871,-26.91139,-43.31388
46.09,14.04319,76.2816000000002,32.69358,-0.7932895,0.08016862,0.537195,38.89808,-28.33372,-40.42001
46.1,11.80305,69.6840700000003,33.73158,-0.8687069,0.09200891,0.5201367,38.89808,-28.33372,-40.42001
46.11,10.86966,65.32499,36.5403,-0.8380549,0.1434765,0.5126057,38.89808,-28.33372,-40.42001
46.12,11.55415,60.4357499999998,36.35712,-0.765973,0.1747344,0.5355385,38.89808,-28.33372,-40.42001
46.13,9.62514500000002,62.3207599999999,34.64747,-0.749882,0.2241394,0.5265178,38.89808,-28.33372,-40.42001
46.14,7.385011,59.7288700000003,33.73158,-0.7683668,0.2814533,0.5121168,41.0208,-28.96686,-37.60892
46.15,3.651453,53.24915,27.68672,-0.8637128,0.2870356,0.5157433,41.0208,-28.96686,-37.60892
46.16,0.5401558,48.53663,23.10728,-0.8880021,0.2415708,0.4861475,41.0208,-28.96686,-37.60892
46.17,2.842516,42.88161,18.52785,-0.936983,0.2361162,0.4604344,41.0208,-28.96686,-37.60892
46.18,4.958199,35.93064,14.62006,-0.9514333,0.2252467,0.44831,41.0208,-28.96686,-37.60892
46.19,11.80305,28.15498,12.97146,-0.9306738,0.24042,0.4493613,41.78926,-31.48968,-36.36063
46.2,16.78113,25.38637,10.71228,-0.8422954,0.2423544,0.4799939,41.78926,-31.48968,-36.36063
46.21,14.72767,24.44387,9.735329,-0.7483059,0.2647639,0.5222663,41.78926,-31.48968,-36.36063
46.22,9.50069300000002,23.32464,8.81944099999999,-0.7389336,0.2950703,0.5474481,41.78926,-31.48968,-36.36063
46.23,1.784675,25.44528,9.85744699999997,-0.7560524,0.3705214,0.5041368,41.78926,-31.48968,-36.36063
46.24,-7.17586199999998,21.49854,8.94155999999999,-0.8204049,0.3455801,0.477377,41.78146,-31.47628,-35.53923
46.25,-12.40284,17.5518,6.92660599999998,-0.8776387,0.2854231,0.456833,41.78146,-31.47628,-35.53923
46.26,-14.08294,12.30912,3.812589,-0.9666529,0.1968173,0.4216695,41.78146,-31.47628,-35.53923
46.27,-9.97603000000001,8.30348000000001,3.079879,-0.9825583,0.1425795,0.3780824,41.78146,-31.47628,-35.53923
46.28,-3.940113,4.121119,2.163991,-0.9738053,0.1468584,0.3621901,41.78146,-31.47628,-35.53923
46.29,0.975737500000002,-1.710626,-0.1562568,-0.9596195,0.1839249,0.3816083,42.51503,-32.12608,-34.32109
46.3,3.651453,-8.190343,-3.270274,-0.9371274,0.2176336,0.3971803,42.51503,-32.12608,-34.32109
46.31,4.335939,-13.66865,-5.04099,-0.8582525,0.2447646,0.4394239,42.51503,-32.12608,-34.32109
46.32,2.344709,-17.61539,-6.872765,-0.8111523,0.2420213,0.46994,42.51503,-32.12608,-34.32109
46.33,-0.0821036699999998,-18.61679,-6.872765,-0.8064108,0.2527711,0.4772136,42.51503,-32.12608,-34.32109
46.34,-3.068949,-20.20727,-6.68958799999998,-0.8150943,0.2421662,0.4892321,43.24201,-31.82873,-34.31899
46.35,-6.055795,-21.32649,-7.84971100000002,-0.8347578,0.2172127,0.4760989,43.24201,-31.82873,-34.31899
46.36,-7.30031399999998,-23.32932,-8.27712500000002,-0.8662097,0.206171,0.4595874,43.24201,-31.82873,-34.31899
46.37,-8.73151100000002,-27.04043,-8.39924299999999,-0.8812661,0.2074175,0.4499003,43.24201,-31.82873,-34.31899
46.38,-10.28716,-31.2817,-8.948776,-0.8743909,0.2044269,0.43447,43.24201,-31.82873,-34.31899
46.39,-11.96726,-36.22984,-9.68148600000002,-0.8679547,0.1961183,0.4199923,42.52644,-32.14565,-35.52158
46.4,-14.14517,-41.59034,-10.96373,-0.8527763,0.1841512,0.4214534,42.52644,-32.14565,-35.52158
46.41,-15.63859,-46.83302,-13.65033,-0.84286,0.1615444,0.428186,42.52644,-32.14565,-35.52158
46.42,-14.76743,-53.0182,-16.52011,-0.858797,0.1488813,0.4329432,42.52644,-32.14565,-35.52158
46.43,-12.71397,-58.6143199999999,-20.24472,-0.8491166,0.1448736,0.4628775,41.79287,-31.49586,-36.73973
46.44,-9.540448,-64.91731,-23.29768,-0.8618779,0.146586,0.5024173,41.79287,-31.49586,-36.73973
46.45,-6.86473199999998,-67.5092000000002,-23.78615,-0.8367613,0.1646662,0.5001082,41.79287,-31.49586,-36.73973
46.46,-6.055795,-71.4559400000002,-22.50391,-0.8173679,0.2219324,0.5012465,41.79287,-31.49586,-36.73973
46.47,-9.10486700000003,-76.2273599999997,-22.93133,-0.8107238,0.2379941,0.5056411,41.79287,-31.49586,-36.73973
46.48,-13.27401,-81.8234899999997,-24.88522,-0.7950454,0.2231711,0.5119227,41.79287,-31.49586,-36.73973
46.49,-16.3853,-87.7141299999998,-26.717,-0.7588702,0.2030837,0.5071474,41.05923,-30.43652,-38.78607
46.5,-19.74551,-93.3102599999998,-27.99924,-0.728574,0.1882607,0.5009205,41.05923,-30.43652,-38.78607
46.51,-23.47906,-99.6132499999999,-29.03724,-0.6992148,0.163465,0.5163845,41.05923,-30.43652,-38.78607
46.52,-24.91026,-104.9148,-30.01419,-0.7059129,0.1471122,0.5332213,41.05923,-30.43652,-38.78607
46.53,-25.15916,-111.6891,-31.47961,-0.7069438,0.1463602,0.5578271,38.93537,-29.74295,-41.59813
46.54,-23.66574,-121.4087,-34.65468,-0.7251105,0.153851,0.5988129,38.93537,-29.74295,-41.59813
46.55,-21.11448,-129.5378,-38.50141,-0.7543687,0.1656511,0.591042,38.93537,-29.74295,-41.59813
46.56,-18.12763,-133.1311,-41.73755,-0.7078589,0.1358467,0.5732436,38.93537,-29.74295,-41.59813
46.57,-16.82089,-137.4312,-44.7905,-0.6994115,0.1235811,0.5476639,38.93537,-29.74295,-41.59813
46.58,-13.70959,-146.7974,-46.7444,-0.7156654,0.09159708,0.5567216,36.06759,-28.0309,-45.25507
46.59,-8.54483300000002,-157.8718,-47.29393,-0.6445097,0.0732521,0.5539705,36.06759,-28.0309,-45.25507
46.6,-4.064565,-165.8831,-44.42415,-0.5758561,0.06216002,0.552676,36.06759,-28.0309,-45.25507
46.61,-1.948882,-174.778,-43.08085,-0.5684249,0.04440413,0.5627906,36.06759,-28.0309,-45.25507
46.62,-1.82443,-177.0753,-42.71449,-0.4836882,0.01547792,0.608789,36.06759,-28.0309,-45.25507
46.63,-1.886656,-179.6083,-43.56932,-0.4619026,-0.03725267,0.6454056,31.06505,-26.6009,-48.54835
46.64,1.162415,-180.3152,-41.43225,-0.4428358,-0.05106371,0.6536283,31.06505,-26.6009,-48.54835
46.65,9.56291900000002,-179.0781,-34.83786,-0.4294528,-0.02769454,0.6575736,31.06505,-26.6009,-48.54835
46.66,14.04319,-178.3713,-29.46466,-0.416851,0.02196869,0.6799101,31.06505,-26.6009,-48.54835
46.67,12.98535,-182.4358,-27.38865,-0.4362587,0.06176019,0.7084159,31.06505,-26.6009,-48.54835
46.68,9.87404900000002,-189.3279,-26.22852,-0.4112487,0.08957127,0.7119181,24.60156,-25.57817,-51.46964
46.69,7.509463,-197.1035,-26.1064,-0.3446185,0.0871657,0.709672,24.60156,-25.57817,-51.46964
46.7,7.073881,-206.3519,-25.92323,-0.2987089,0.05304422,0.7497686,24.60156,-25.57817,-51.46964
46.71,6.700525,-210.7699,-25.43475,-0.2080489,0.02527352,0.758146,24.60156,-25.57817,-51.46964
46.72,5.39378,-209.7684,-24.09145,-0.1390423,-0.02356387,0.7567713,24.60156,-25.57817,-51.46964
46.73,10.74521,-210.3575,-19.93943,-0.0956331,-0.04528028,0.7795164,17.05302,-25.91737,-53.11533
46.74,18.46123,-205.5272,-13.4061,-0.02176038,-0.03949443,0.7671731,17.05302,-25.91737,-53.11533
46.75,26.42615,-203.9367,-7.971829,-0.0003975142,-0.04111854,0.7831489,17.05302,-25.91737,-53.11533
46.76,34.26662,-205.5861,-4.613576,0.004656015,-0.0171284,0.809271,17.05302,-25.91737,-53.11533
46.77,40.73812,-209.415,-2.232268,0.04000726,-0.007028539,0.8253081,17.05302,-25.91737,-53.11533
46.78,44.59613,-211.0644,1.125986,0.09506992,0.02552198,0.8453045,8.080564,-26.1551,-52.81663
46.79,47.58297,-214.0097,3.385175,0.1514646,0.02031289,0.8628106,8.080564,-26.1551,-52.81663
46.8,49.20085,-215.0111,6.31601500000002,0.2171356,0.07011366,0.8548836,8.080564,-26.1551,-52.81663
46.81,49.01417,-216.8372,6.49919199999998,0.298407,0.04605699,0.9071568,8.080564,-26.1551,-52.81663
46.82,53.12109,-210.063,11.01757,0.3378685,0.0861411,0.9174783,8.080564,-26.1551,-52.81663
46.83,57.5391299999997,-201.227,15.47489,0.3741886,0.1466407,0.9403818,-0.513073,-27.87893,-50.84737
46.84,54.61451,-198.2228,23.35152,0.3856203,0.1770519,0.9221398,-0.513073,-27.87893,-50.84737
46.85,52.74773,-195.4542,26.77083,0.4008801,0.2189496,0.8865606,-0.513073,-27.87893,-50.84737
46.86,50.00979,-197.8693,30.61756,0.4434685,0.1887536,0.8822626,-0.513073,-27.87893,-50.84737
46.87,51.56544,-202.0517,32.81569,0.4872088,0.1415582,0.8702103,-0.513073,-27.87893,-50.84737
46.88,50.25869,-203.2298,35.31912,0.5138381,0.1514978,0.8760908,-10.25652,-28.45551,-45.68367
46.89,48.8275,-202.9942,35.25806,0.5409852,0.1128312,0.8582234,-10.25652,-28.45551,-45.68367
46.9,47.14739,-197.5159,33.97582,0.5679669,0.1075391,0.7854168,-10.25652,-28.45551,-45.68367
46.91,48.32969,-188.3265,37.70043,0.6004525,0.1090065,0.8125265,-10.25652,-28.45551,-45.68367
46.92,52.00102,-181.8468,41.30292,0.5493432,0.2283548,0.7827332,-10.25652,-28.45551,-45.68367
46.93,58.5347400000003,-177.6055,36.90666,0.5889675,0.3009306,0.8003632,-18.51501,-30.06978,-40.5527
46.94,54.80119,-173.6588,30.61756,0.6802217,0.3580928,0.8349824,-18.51501,-30.06978,-40.5527
46.95,47.70743,-171.7737,28.90791,0.8160489,0.4240673,0.8957931,-18.51501,-30.06978,-40.5527
46.96,40.36477,-168.5928,25.91601,0.9304398,0.409905,0.8902671,-18.51501,-30.06978,-40.5527
46.97,35.76004,-163.3501,23.71788,0.9815651,0.3436992,0.9100412,-18.51501,-30.06978,-40.5527
46.98,33.45768,-152.8058,20.29856,0.9780451,0.2388768,0.774693,-26.12319,-31.3595,-33.77745
46.99,33.14655,-158.1663,32.75463,0.9647057,0.1914458,0.8387356,-26.12319,-31.3595,-33.77745
47,31.46645,-160.6404,46.18765,0.9386654,0.2038815,0.8980487,-26.12319,-31.3595,-33.77745
47.01,38.00018,-140.0231,28.66367,0.9441422,0.1531148,0.8453559,-26.12319,-31.3595,-33.77745
47.02,35.38669,-143.5575,48.38578,0.9862701,0.01034392,0.8615643,-26.12319,-31.3595,-33.77745
47.03,37.31569,-135.6051,53.63687,0.9108957,0.08508562,0.7901133,-31.90667,-31.88904,-27.81881
47.04,41.11148,-127.1226,53.39263,0.938502,0.05964381,0.7360844,-31.90667,-31.88904,-27.81881
47.05,41.29815,-119.7004,59.9870200000001,0.9451913,0.08587405,0.6879031,-31.90667,-31.88904,-27.81881
47.06,42.66713,-114.1632,63.7726899999998,1.007671,0.1199439,0.6558067,-31.90667,-31.88904,-27.81881
47.07,41.67151,-106.4464,65.8487,1.047602,0.1671196,0.6473252,-31.90667,-31.88904,-27.81881
47.08,40.86257,-95.78433,67.9857700000003,1.090382,0.2117301,0.6735892,-36.25643,-30.73631,-21.87349
47.09,36.1334,-84.0030299999999,69.6343699999998,1.08225,0.2606737,0.6345869,-36.25643,-30.73631,-21.87349
47.1,28.66629,-73.57658,72.6262699999999,1.047919,0.2537059,0.5896064,-36.25643,-30.73631,-21.87349
47.11,21.07472,-65.7419999999999,73.1758000000002,0.9777755,0.2299868,0.5425673,-36.25643,-30.73631,-21.87349
47.12,19.14572,-58.6732299999999,74.7633400000002,0.9808639,0.1598338,0.5419419,-39.5648,-29.18695,-17.1256
47.13,19.64352,-51.66335,74.3359300000001,0.9303445,0.1122241,0.5117912,-39.5648,-29.18695,-17.1256
47.14,24.6216,-47.77552,74.1527500000003,0.9007878,0.09666953,0.5295358,-39.5648,-29.18695,-17.1256
47.15,32.89765,-44.24113,70.3060199999998,0.896629,0.1345792,0.4977583,-39.5648,-29.18695,-17.1256
47.16,39.05802,-44.65347,60.5365600000001,0.9387615,0.2294292,0.4083169,-39.5648,-29.18695,-17.1256
47.17,36.32008,-47.77552,53.1484,1.000786,0.3622783,0.3827048,-42.19115,-27.01647,-14.78301
47.18,30.71974,-51.84007,49.11849,1.039359,0.3917612,0.3987917,-42.19115,-27.01647,-14.78301
47.19,24.06157,-54.49086,45.516,1.04612,0.3858652,0.4364353,-42.19115,-27.01647,-14.78301
47.2,18.21233,-55.7868,43.50105,1.030524,0.2715131,0.4872994,-42.19115,-27.01647,-14.78301
47.21,13.48315,-53.0182,41.30292,1.01206,0.2078302,0.5247537,-42.19115,-27.01647,-14.78301
47.22,12.30086,-51.07428,40.08173,1.007289,0.1453898,0.5275025,-44.05492,-23.74503,-11.31307
47.23,9.31401500000002,-45.71379,36.78454,1.015323,0.1230328,0.5101034,-44.05492,-23.74503,-11.31307
47.24,9.81182300000002,-42.65065,34.03688,1.007848,0.1498428,0.4845666,-44.05492,-23.74503,-11.31307
47.25,7.198333,-37.34907,30.43439,1.038552,0.1577957,0.4282047,-44.05492,-23.74503,-11.31307
47.26,4.771521,-32.28311,26.83189,1.008918,0.1528128,0.4377685,-44.05492,-23.74503,-11.31307
47.27,8.00726999999998,-30.33919,21.27551,0.9802312,0.1130157,0.3965923,-45.51567,-21.88417,-8.954598
47.28,10.49631,-28.6309,16.2076,0.9908929,0.1103928,0.4183289,-45.51567,-21.88417,-8.954598
47.29,14.41654,-24.21291,12.1777,0.9865433,0.1079303,0.4173473,-45.51567,-21.88417,-8.954598
47.3,17.71452,-18.79351,8.88049999999998,0.9898292,0.1163149,0.4318503,-45.51567,-21.88417,-8.954598
47.31,16.90558,-11.90145,4.728477,0.9927334,0.1653526,0.4469222,-45.51567,-21.88417,-8.954598
47.32,13.98096,-4.243607,-0.4004934,1.008816,0.2068115,0.4687675,-45.91252,-20.83507,-7.774117
47.33,10.2474,4.415651,-6.445351,1.015696,0.2532496,0.4606817,-45.91252,-20.83507,-7.774117
47.34,3.838131,10.83646,-13.16186,1.030479,0.2847954,0.4578924,-45.91252,-20.83507,-7.774117
