Time (s),Gyroscope X (deg/s),Gyroscope Y (deg/s),Gyroscope Z (deg/s),Accelerometer X (g),Accelerometer Y (g),Accelerometer Z (g),Magnetometer X (uT),Magnetometer Y (uT),Magnetometer Z (uT)
6.378768921,19.67054,-9.38942300000003,8.95792600000003,-0.5475771,-0.8935028,-0.296985,44.39519,-29.79838,-18.80793
6.388628006,22.83846,-20.69612,25.57104,-0.546292,-0.8803598,-0.2988092,44.39519,-29.79838,-18.80793
6.398487091,24.9504,-32.30036,41.63242,-0.511105,-0.8382053,-0.3003926,47.01,-27.97092,-17.62404
6.408345699,26.75176,-42.05983,56.34514,-0.4520648,-0.787437,-0.2672616,47.01,-27.97092,-17.62404
6.418205261,29.29851,-50.74813,68.4831299999998,-0.4108656,-0.7489607,-0.2258337,47.01,-27.97092,-17.62404
6.428064346,31.72103,-58.0677300000002,80.00809,-0.3836489,-0.7072695,-0.202389,47.01,-27.97092,-17.62404
6.437922955,35.75857,-65.5063500000002,90.1843900000001,-0.3383808,-0.6693377,-0.1859421,47.01,-27.97092,-17.62404
6.447782517,41.10054,-72.5879100000002,100.9124,-0.3061074,-0.6256033,-0.1486554,46.26057,-28.71017,-18.44481
6.457641125,49.05137,-80.0265300000001,110.2305,-0.2945163,-0.5504903,-0.1294979,46.26057,-28.71017,-18.44481
6.46750021,57.12644,-88.2387599999999,118.3838,-0.267495,-0.47042,-0.1224985,46.26057,-28.71017,-18.44481
6.477359295,65.38786,-97.7006799999998,125.311,-0.2349756,-0.3765984,-0.09485583,46.26057,-28.71017,-18.44481
6.489683151,71.1025200000001,-107.8767,134.0161,-0.1566468,-0.2448259,-0.04694019,46.26057,-28.71017,-18.44481
6.49954176,71.7236800000002,-114.9583,140.2076,-0.08761039,-0.139011,-0.02163355,42.90191,-32.3822,-20.50218
6.509401322,71.4130999999998,-121.1472,146.2153,-0.003404001,-0.1095768,-0.02737729,42.90191,-32.3822,-20.50218
6.51925993,75.14006,-126.4435,152.9587,0.01618142,-0.1041631,-0.05732111,42.90191,-32.3822,-20.50218
6.529119015,83.8362900000002,-133.2275,158.8438,0.03187964,-0.0860826,-0.07416423,42.90191,-32.3822,-20.50218
6.538978577,94.76868,-141.0232,163.1963,0.05707463,0.02867155,-0.02707253,42.90191,-32.3822,-20.50218
6.548837185,101.6636,-147.8667,164.8515,0.1175218,0.1994042,0.07126351,36.62695,-37.48677,-22.08123
6.55869627,101.4772,-150.4256,165.2806,0.2367507,0.309651,0.121769,36.62695,-37.48677,-22.08123
6.568555355,103.0301,-150.5446,165.3419,0.3193747,0.3317161,0.1011304,36.62695,-37.48677,-22.08123
6.578413963,111.9748,-150.6041,163.748,0.3896109,0.3116403,0.03191362,36.62695,-37.48677,-22.08123
6.588273525,128.3734,-150.6636,163.0737,0.4624077,0.2989423,-0.02242222,36.62695,-37.48677,-22.08123
6.59813261,149.7413,-148.9974,166.8131,0.5466636,0.3440139,-0.01078352,28.43749,-43.96335,-22.41959
6.607991218,171.7924,-145.3673,172.5143,0.5831006,0.4709355,0.01037388,28.43749,-43.96335,-22.41959
6.61785078,188.0047,-140.3091,178.3994,0.6321652,0.6075731,-0.002589857,28.43749,-43.96335,-22.41959
6.627709865,200.1794,-135.9649,185.7558,0.6831521,0.6960189,-0.02461329,28.43749,-43.96335,-22.41959
6.637568474,216.8265,-133.8226,194.1543,0.6972965,0.8252423,0.01413244,28.43749,-43.96335,-22.41959
6.647427559,227.821,-130.4306,199.549,0.724463,1.02714,0.06720269,18.09785,-49.67478,-18.08059
6.659751415,231.2995,-125.6699,203.1045,0.8049811,1.195832,0.09287632,18.09785,-49.67478,-18.08059
6.669610023,233.1008,-123.0515,204.3306,0.8412476,1.297099,0.150718,18.09785,-49.67478,-18.08059
6.679469585,228.3179,-120.3141,203.3497,0.8479238,1.369233,0.1656076,18.09785,-49.67478,-18.08059
6.68932867,217.5097,-118.6478,203.2884,0.8538011,1.384068,0.2150066,18.09785,-49.67478,-18.08059
6.699187279,201.3596,-118.6478,204.5758,0.8590754,1.344675,0.2083694,7.722743,-55.27155,-9.965074
6.709046841,188.688,-118.1718,207.457,0.8805813,1.322402,0.1872693,7.722743,-55.27155,-9.965074
6.718905449,182.9112,-119.1834,213.3421,0.8978708,1.35873,0.2314158,7.722743,-55.27155,-9.965074
6.728764534,175.0846,-118.4693,216.959,0.9141071,1.465551,0.2603587,7.722743,-55.27155,-9.965074
6.738623619,162.972,-116.327,217.8785,0.9946958,1.516734,0.2237021,7.722743,-55.27155,-9.965074
6.748482227,160.2389,-114.6012,216.7751,1.115872,1.529351,0.1875791,-4.099552,-56.47756,-0.6064978
6.758341789,162.0402,-110.9117,218.2464,1.198671,1.564159,0.1910056,-4.099552,-56.47756,-0.6064978
6.768200874,161.8539,-105.7344,219.9016,1.255284,1.601241,0.2135133,-4.099552,-56.47756,-0.6064978
6.778059483,157.0088,-102.2829,222.1698,1.260945,1.635274,0.1921558,-4.099552,-56.47756,-0.6064978
6.787919044,149.6792,-101.1522,225.664,1.243821,1.686604,0.1655187,-4.099552,-56.47756,-0.6064978
6.79777813,138.4362,-102.6399,226.9514,1.189155,1.742517,0.1523937,-14.8227,-54.76291,7.883937
6.807636738,117.5031,-103.7111,230.9361,1.141699,1.799789,0.09509109,-14.8227,-54.76291,7.883937
6.817495823,93.7748299999998,-105.0203,232.8365,1.165312,1.826399,0.1280439,-14.8227,-54.76291,7.883937
6.827355385,73.58716,-102.4019,229.2196,1.241317,1.815052,0.1666384,-14.8227,-54.76291,7.883937
6.839678287,57.7476000000001,-93.1184899999997,218.1851,1.272263,1.796455,0.1952716,-14.8227,-54.76291,7.883937
6.849537849,50.16946,-88.4172900000002,207.1505,1.219521,1.740355,0.1529011,-24.52155,-50.21321,13.7148
6.859396934,47.80906,-88.8338499999997,195.8095,1.109031,1.703131,0.08994895,-24.52155,-50.21321,13.7148
6.869255543,46.50462,-93.1780000000002,183.5489,1.045932,1.655351,0.08469465,-24.52155,-50.21321,13.7148
6.879115105,42.09439,-98.6528199999999,173.1887,1.066211,1.598605,0.08680191,-24.52155,-50.21321,13.7148
6.88897419,34.14355,-104.9013,167.3036,1.134644,1.543809,0.1059697,-24.52155,-50.21321,13.7148
6.898832798,26.00637,-108.7693,165.0967,1.158265,1.524798,0.1711229,-32.3066,-43.05275,19.12457
6.908691883,17.12379,-110.2571,159.9472,1.15003,1.544059,0.2658051,-32.3066,-43.05275,19.12457
6.918551445,2.153856,-108.5313,152.5909,1.123077,1.562141,0.3502018,-32.3066,-43.05275,19.12457
6.928410053,-11.76011,-105.0798,141.6789,1.074409,1.562403,0.4050472,-32.3066,-43.05275,19.12457
6.938269138,-22.63039,-99.4859499999998,128.4375,1.033244,1.475166,0.4667144,-32.3066,-43.05275,19.12457
6.9481287,-27.10274,-91.2142100000002,115.993,0.9993805,1.355626,0.4613962,-37.54856,-36.68659,22.48024
6.957987308,-24.74234,-81.0381800000001,106.3684,0.9539502,1.236873,0.4337271,-37.54856,-36.68659,22.48024
6.967846394,-17.78535,-72.1118400000001,99.0120200000002,0.8983721,1.150993,0.3724569,-37.54856,-36.68659,22.48024
6.977705002,-8.53008099999998,-65.2088000000001,92.57521,0.8606005,1.080325,0.302915,-37.54856,-36.68659,22.48024
6.987564087,-0.02020105,-56.40148,87.11925,0.8199229,1.080297,0.2618041,-37.54856,-36.68659,22.48024
6.997423649,5.81869499999997,-49.49844,80.25331,0.7866296,1.086206,0.2292638,-39.41382,-32.25603,26.2221
7.007282257,9.11083900000002,-44.5592,71.7321899999999,0.7874437,1.097751,0.1914928,-39.41382,-32.25603,26.2221
7.019606113,15.26031,-37.59666,59.4716,0.7699947,1.043094,0.1912802,-39.41382,-32.25603,26.2221
7.029465199,47.00155,-29.32492,43.71672,0.7457191,0.9207907,0.20497,-39.41382,-32.25603,26.2221
7.03932476,72.4069599999998,-9.62745900000001,30.04616,0.8692444,1.090475,0.2640623,-39.41382,-32.25603,26.2221
7.049183369,84.5816800000001,-2.188842,38.68988,0.8311743,1.409274,0.3717608,-40.91438,-28.90138,27.92426
7.059042454,58.8035699999999,-7.18759300000001,28.63619,0.7918389,1.571232,0.5715976,-40.91438,-28.90138,27.92426
7.068901062,25.63367,-4.926253,15.45604,0.812355,1.443573,0.3493169,-40.91438,-28.90138,27.92426
7.078760147,9.35930300000001,-2.664914,9.44834999999999,0.8001295,1.222787,0.1554689,-40.91438,-28.90138,27.92426
7.088619709,-4.741011,3.226471,1.47896,0.8552705,1.157597,0.159404,-40.91438,-28.90138,27.92426
7.098478317,-21.01538,7.39209699999998,-3.363976,0.8559835,1.170442,0.07947595,-41.67593,-25.19969,28.7226
7.108337402,-42.50748,9.41540100000002,-4.038309,0.8345926,1.095591,0.02356199,-41.67593,-25.19969,28.7226
7.118196964,-67.7886699999998,12.92643,-3.670491,0.8157431,0.9600305,-0.007023771,-41.67593,-25.19969,28.7226
7.128055573,-93.5046500000002,12.86692,-1.892705,0.8051828,0.8200068,-0.07945568,-41.67593,-25.19969,28.7226
7.137914658,-111.8288,11.14116,-2.62834,0.8184698,0.6671135,-0.1365225,-41.67593,-25.19969,28.7226
7.147773743,-114.4998,13.10495,-4.344824,0.8523728,0.4616108,-0.1272393,-41.30819,-25.21559,27.88849
7.157632351,-100.7101,16.85402,-7.04215600000001,0.8565494,0.274647,-0.1648166,-41.30819,-25.21559,27.88849
7.167491913,-72.2610100000001,18.81781,-10.53643,0.8674404,0.1417635,-0.2005956,-41.30819,-25.21559,27.88849
7.177350998,-34.99146,19.65094,-14.27591,0.8658966,0.1036471,-0.2397105,-41.30819,-25.21559,27.88849
7.189674377,7.68217200000001,18.93683,-19.48666,0.8626609,0.1800518,-0.2303939,-41.30819,-25.21559,27.88849
7.199533463,27.62138,18.57978,-21.93878,0.8732314,0.2746732,-0.1971605,-41.68426,-28.19209,25.36003
7.209393024,36.06915,18.69879,-23.16484,0.8676928,0.3550029,-0.1738812,-41.68426,-28.19209,25.36003
7.219251633,35.57222,18.28223,-23.65527,0.8671835,0.4061215,-0.1662546,-41.68426,-28.19209,25.36003
7.229110718,30.60295,17.92518,-23.96178,0.8670204,0.431951,-0.1554919,-41.68426,-28.19209,25.36003
7.238969803,24.82616,17.56812,-24.08439,0.8696142,0.4354324,-0.1416027,-41.68426,-28.19209,25.36003
7.248828411,20.97498,18.28223,-25.12654,0.8727599,0.4330773,-0.1282498,-41.67702,-28.92215,25.81567
7.258687973,19.60843,18.69879,-26.16869,0.8742907,0.4233438,-0.1321874,-41.67702,-28.92215,25.81567
7.268547058,21.59614,19.29388,-27.63996,0.8704495,0.4145417,-0.1346029,-41.67702,-28.92215,25.81567
7.278405666,27.3108,19.94848,-30.27599,0.8654876,0.4105726,-0.1431913,-41.67702,-28.92215,25.81567
7.288265228,35.19952,20.48406,-31.68596,0.8648618,0.4149234,-0.1493752,-41.67702,-28.92215,25.81567
7.298124313,43.08825,21.31719,-31.80857,0.8601335,0.4357852,-0.1548822,-41.30928,-28.93805,24.98156
7.307982922,49.98311,20.7221,-33.89287,0.8456205,0.4721835,-0.146701,-41.30928,-28.93805,24.98156
7.317842007,51.72236,19.17487,-33.15723,0.8505248,0.4985946,-0.122588,-41.30928,-28.93805,24.98156
7.327701569,48.11963,16.67549,-32.4829,0.8482444,0.5517017,-0.09958493,-41.30928,-28.93805,24.98156
7.337560177,40.23092,16.0804,-31.50205,0.847796,0.5614735,-0.08799528,-41.30928,-28.93805,24.98156
7.347419262,28.98793,15.24728,-27.45605,0.890985,0.5323833,-0.03183161,-40.55303,-30.04578,25.37309
7.359743118,17.24802,19.23438,-19.91578,0.8834091,0.4778394,-0.02547516,-40.55303,-30.04578,25.37309
7.369601727,14.20434,22.32884,-14.45982,0.8687313,0.4314625,-0.03044935,-40.55303,-30.04578,25.37309
7.379461289,14.39069,24.82821,-10.35252,0.8451736,0.4123269,-0.0168575,-40.55303,-30.04578,25.37309
7.389320374,16.75109,27.50612,-6.06130799999997,0.8340857,0.3981153,-0.01729861,-40.55303,-30.04578,25.37309
7.399178982,19.60843,29.88647,-2.015311,0.8489377,0.3919487,-0.009895138,-40.92555,-29.66708,25.81935
7.409038067,21.8446,33.04045,3.195444,0.8631384,0.3736609,0.0108329,-40.92555,-29.66708,25.81935
7.418897629,23.64596,36.13491,9.632258,0.8720092,0.3752223,0.01694924,-40.92555,-29.66708,25.81935
7.428756237,24.88828,39.52692,14.90432,0.8699126,0.3771179,0.008369533,-40.92555,-29.66708,25.81935
7.438615322,25.7579,41.84777,20.11507,0.8755329,0.3943218,0.04102018,-40.92555,-29.66708,25.81935
7.448474884,22.96269,45.00174,25.44843,0.8840933,0.4275293,0.05220001,-41.30526,-29.67435,24.9891
7.458333492,16.68898,48.63179,32.00785,0.8814899,0.4611504,0.07025124,-41.30526,-29.67435,24.9891
7.468192577,9.66988199999998,50.65509,37.95424,0.9240739,0.4154231,0.1032816,-41.30526,-29.67435,24.9891
7.478051186,3.706754,54.82072,44.94279,0.8862609,0.4295596,0.06943744,-41.30526,-29.67435,24.9891
7.487910271,0.1040308,56.84402,51.13439,0.9025819,0.3903421,0.08372904,-41.30526,-29.67435,24.9891
7.497769833,0.911537699999999,59.2838899999999,58.6746600000002,0.8764933,0.3650317,0.01392414,-41.31773,-28.58238,24.0816
7.507628441,3.706754,58.1532200000002,64.3145300000001,0.8825161,0.3423157,0.04096096,-41.31773,-28.58238,24.0816
7.517487526,6.75043299999998,58.9863399999999,69.2187700000003,0.8832576,0.3748328,0.01630644,-41.31773,-28.58238,24.0816
7.527347088,9.42141799999999,59.6409400000002,73.1421600000002,0.9044424,0.3692031,0.02218658,-41.31773,-28.58238,24.0816
7.539670944,10.9122,58.8078199999999,78.5368300000001,0.9175255,0.4130897,0.0156617,-41.31773,-28.58238,24.0816
7.549529553,11.22278,60.3550499999998,83.6249800000001,0.9357637,0.4116895,-0.01144522,-43.89877,-26.3734,21.95972
7.559388637,12.15452,59.2838899999999,85.6479700000001,0.923442,0.4304607,-0.03746716,-43.89877,-26.3734,21.95972
7.569247723,11.71971,57.02255,87.3644599999997,0.9421489,0.4298176,0.006347141,-43.89877,-26.3734,21.95972
7.579106331,10.72585,56.60598,89.7552699999999,0.9570178,0.4342615,-0.01155765,-43.89877,-26.3734,21.95972
7.588965893,9.17295499999997,54.99924,91.2265499999998,0.9610236,0.4226051,-0.01506752,-43.89877,-26.3734,21.95972
7.598824501,8.30333200000001,54.16612,91.9621800000001,0.9538515,0.4185464,-0.04231392,-46.17194,-23.43083,19.8927
7.608683586,9.66988199999998,52.0238,90.307,0.9675459,0.4192903,-0.00608366,-46.17194,-23.43083,19.8927
7.618543148,7.49582399999998,50.59558,91.9008800000002,0.9714618,0.4294432,-0.03288896,-46.17194,-23.43083,19.8927
7.628401756,8.986607,49.22688,91.1039399999998,0.9612811,0.4157082,-0.03813097,-46.17194,-23.43083,19.8927
7.638260841,12.96203,48.21523,88.1613899999998,0.9664606,0.4078867,-0.05983477,-46.17194,-23.43083,19.8927
7.648119926,18.24188,47.44161,86.0157899999998,0.98505,0.3852399,-0.04399806,-48.44923,-19.81421,17.75476
7.657978535,25.07463,47.32259,84.7284199999998,0.9869375,0.3740083,-0.05897493,-48.44923,-19.81421,17.75476
7.667838097,33.58451,46.25143,82.8893400000002,0.9850278,0.3574047,-0.07010943,-48.44923,-19.81421,17.75476
7.677697182,43.95787,45.89438,79.7015799999999,0.9774406,0.3636155,-0.08288725,-48.44923,-19.81421,17.75476
7.68755579,53.21314,44.16862,77.5559799999999,0.9750801,0.3849651,-0.09369502,-48.44923,-19.81421,17.75476
7.697415352,59.5489599999999,41.3717,75.4103700000002,0.9656091,0.4136378,-0.08133807,-51.10461,-15.39563,15.61057
7.707274437,60.9155099999999,39.16987,73.2647700000002,0.9528035,0.4408411,-0.0636748,-51.10461,-15.39563,15.61057
7.719597816,56.69163,36.0754,70.3222200000002,0.925055,0.4879906,-0.01208626,-51.10461,-15.39563,15.61057
7.729456901,48.55445,32.62389,66.6440399999999,0.8971282,0.5248367,0.01737469,-51.10461,-15.39563,15.61057
7.739315987,38.18109,28.51777,61.5559000000002,0.8738896,0.5567857,0.02755952,-51.10461,-15.39563,15.61057
7.749174595,27.00022,24.35214,54.56736,0.8530561,0.5833741,0.02999763,-51.49963,-12.08422,15.13047
7.759034157,16.44052,19.17487,45.86233,0.8444365,0.6012784,0.02356279,-51.49963,-12.08422,15.13047
7.768893242,5.94292600000003,13.75955,37.21861,0.8556602,0.5974643,0.01809944,-51.49963,-12.08422,15.13047
7.77875185,-4.057736,8.701293,29.49443,0.8719077,0.582502,0.01247041,-51.49963,-12.08422,15.13047
7.788611412,-13.43724,4.119105,21.83156,0.8677901,0.5716681,-0.01200151,-51.49963,-12.08422,15.13047
7.798470497,-21.885,-0.701118900000002,14.96562,0.8717881,0.5678211,-0.009215758,-52.65412,-7.671318,13.81074
7.808329105,-30.76758,-5.342815,8.467502,0.8732749,0.5678396,-0.007799194,-52.65412,-7.671318,13.81074
7.81818819,-41.82421,-10.04402,3.011535,0.8970008,0.5651881,0.007653859,-52.65412,-7.671318,13.81074
7.828047752,-54.93067,-14.92375,-1.524887,0.885183,0.5684796,0.004974871,-52.65412,-7.671318,13.81074
7.837906361,-70.2732999999999,-18.79183,-5.019157,0.9019186,0.5745151,0.01772567,-52.65412,-7.671318,13.81074
7.847765446,-84.6220799999998,-23.55255,-8.26821599999997,0.9259744,0.5792809,0.06390538,-52.66215,-6.198727,13.79566
7.857625008,-96.17564,-24.02862,-12.55943,0.9172544,0.5995976,0.05222114,-52.66215,-6.198727,13.79566
7.867483616,-105.3067,-25.09978,-17.03454,0.9463491,0.5430675,0.09110294,-52.66215,-6.198727,13.79566
7.877342701,-109.0957,-23.07648,-20.59012,0.9467492,0.4928942,0.07629783,-52.66215,-6.198727,13.79566
7.889666557,-108.164,-22.42188,-24.88133,0.9172526,0.4487875,0.06292841,-52.27997,-6.558718,14.69369
7.899525166,-109.0336,-22.36237,-28.86602,0.8954808,0.4033916,0.07675238,-52.27997,-6.558718,14.69369
7.909384251,-115.121,-25.8734,-32.85072,0.8437964,0.4855737,0.05422261,-52.27997,-6.558718,14.69369
7.919243813,-124.3763,-29.44393,-37.81626,0.8720385,0.532034,0.04942019,-52.27997,-6.558718,14.69369
7.929102421,-139.0977,-32.18135,-39.28753,0.9194879,0.5164775,0.071135,-52.27997,-6.558718,14.69369
7.938961506,-155.9933,-35.98992,-38.6745,0.9659371,0.4868826,0.1147888,-52.26591,-9.135752,14.72009
7.948821068,-165.6833,-33.37152,-41.55574,0.9994427,0.4437937,0.09430042,-52.26591,-9.135752,14.72009
7.958679676,-165.5591,-30.87215,-44.43699,1.000353,0.3390847,0.06896459,-52.26591,-9.135752,14.72009
7.968538761,-156.1175,-27.42063,-48.11516,0.9888397,0.2641288,0.09149767,-52.26591,-9.135752,14.72009
7.978397846,-139.6568,-23.9096,-52.46768,0.9601507,0.2321878,0.07630261,-52.26591,-9.135752,14.72009
7.988256454,-116.736,-20.22005,-57.18801,0.9696092,0.1958351,0.0921538,-52.26591,-9.135752,14.72009
7.998116016,-89.8398100000002,-16.82804,-61.54052,0.9778122,0.1866001,0.07566616,-51.12666,-12.46203,14.74823
8.007975101,-59.9620599999999,-14.62621,-67.2417,0.9752678,0.1987561,0.07915941,-51.12666,-12.46203,14.74823
8.01783371,-29.71161,-14.09063,-74.7819699999998,0.9663146,0.2496294,0.0413804,-51.12666,-12.46203,14.74823
8.027693272,1.03577,-14.32866,-80.72836,0.9864433,0.2477395,0.008971205,-51.12666,-12.46203,14.74823
8.037552357,30.29236,-14.5667,-86.3682400000001,0.97957,0.2905005,0.008950844,-51.12666,-12.46203,14.74823
8.047410965,55.44931,-15.8759,-92.9889600000002,0.9922432,0.309641,0.02234934,-51.10382,-16.13816,15.17002
8.059734821,80.3578,-20.22005,-99.60969,0.9746283,0.372683,0.005881248,-51.10382,-16.13816,15.17002
8.069594383,93.9611800000003,-21.2317,-105.4948,0.9800126,0.4197365,0.08335272,-51.10382,-16.13816,15.17002
8.079452992,99.42738,-20.99367,-111.012,0.9807507,0.4717817,0.07563505,-51.10382,-16.13816,15.17002
8.089312077,100.4212,-20.99367,-114.8741,0.9961258,0.5182224,0.09593422,-48.83614,-20.20744,15.648
8.099171162,98.4335299999998,-20.39858,-116.8358,0.9909849,0.5293372,0.0874757,-48.83614,-20.20744,15.648
8.10902977,91.91135,-21.05317,-116.7132,0.989277,0.5083972,0.08732332,-48.83614,-20.20744,15.648
8.118889332,83.8362900000002,-21.70777,-116.7132,0.967657,0.4979265,0.07125031,-48.83614,-20.20744,15.648
8.128748417,77.3762299999999,-24.14764,-114.8128,0.9421911,0.4877934,0.0245662,-48.83614,-20.20744,15.648
8.138607025,72.2206099999999,-28.78934,-113.2803,0.9259928,0.5052109,0.03596565,-47.30756,-23.07379,18.16635
8.14846611,67.3134500000002,-33.60956,-113.4029,0.9232134,0.5255997,0.02946854,-47.30756,-23.07379,18.16635
8.158325672,61.4124400000002,-35.09728,-114.5676,0.926511,0.5675813,0.05709021,-47.30756,-23.07379,18.16635
8.16818428,52.15717,-37.2396,-114.445,0.9323988,0.6011909,0.05201874,-47.30756,-23.07379,18.16635
8.178043366,39.73399,-38.37027,-111.2573,0.9282204,0.5938924,0.06207988,-47.30756,-23.07379,18.16635
8.187902927,27.62138,-39.56045,-109.7247,0.9337074,0.5871351,0.06386145,-47.30756,-23.07379,18.16635
8.197761536,14.94973,-39.32242,-106.1691,0.9229735,0.5486131,0.06800213,-45.0279,-27.11991,20.30869
8.207620621,6.37773799999999,-39.08438,-98.6901400000002,0.9098721,0.530327,0.02394819,-45.0279,-27.11991,20.30869
8.217479706,3.520406,-40.75063,-96.17672,0.8693187,0.5132465,-0.02305872,-45.0279,-27.11991,20.30869
8.227338314,0.600958099999998,-42.41688,-93.66329,0.8645505,0.5045856,0.0143137,-45.0279,-27.11991,20.30869
8.239662647,-6.977184,-44.14264,-87.4716900000001,0.8646858,0.5464765,0.02520769,-41.31643,-30.44004,22.88419
8.249521732,-15.36283,-41.40523,-80.2379400000001,0.8518665,0.524718,-0.03708915,-41.31643,-30.44004,22.88419
8.259380817,-16.04611,-44.20215,-80.5444599999999,0.8228756,0.5265138,-0.008867241,-41.31643,-30.44004,22.88419
8.269239426,-19.77306,-43.96412,-77.3567000000001,0.8454899,0.5471152,-0.01859968,-41.31643,-30.44004,22.88419
8.279098988,-30.02219,-45.45184,-79.1344799999999,0.8472117,0.5923879,0.1116209,-41.31643,-30.44004,22.88419
8.288958073,-54.18528,-41.52425,-64.2991600000002,0.8766969,0.527181,0.1715087,-39.42896,-33.40145,23.28878
8.298816681,-61.1422600000001,-30.39608,-54.12286,0.8284783,0.428138,-0.04332129,-39.42896,-33.40145,23.28878
8.308675766,-40.27131,-29.62246,-57.8623400000002,0.7961139,0.3887717,-0.08344499,-39.42896,-33.40145,23.28878
8.318535328,-15.54918,-28.67032,-62.82789,0.8995045,0.3731876,0.05823055,-39.42896,-33.40145,23.28878
8.328393936,8.86237499999997,-19.56545,-61.0500900000003,0.8529306,0.4419403,0.07576735,-39.42896,-33.40145,23.28878
8.338253021,22.83846,-17.48264,-55.34892,0.7701508,0.4361601,0.02754085,-36.03767,-37.41699,24.14442
8.34811163,27.18657,-17.06608,-46.95041,0.7374569,0.4282994,-0.04489784,-36.03767,-37.41699,24.14442
8.357971191,31.9695,-20.33907,-39.41014,0.6903344,0.4733255,-0.1243517,-36.03767,-37.41699,24.14442
8.367830277,23.70808,-26.528,-32.78941,0.7155063,0.5340151,-0.09065435,-36.03767,-37.41699,24.14442
8.377688885,-1.138287,-30.27706,-26.72042,0.8407775,0.5831167,-0.009603093,-36.03767,-37.41699,24.14442
8.38754797,-23.25155,-24.62371,-19.85448,0.9072372,0.6336203,0.06511023,-33.02859,-39.27443,25.4281
8.397407532,-43.43922,-21.17219,-11.21076,0.7816215,0.6233434,-0.04292284,-33.02859,-39.27443,25.4281
8.409731388,-54.68221,-22.18384,-7.83909500000001,0.6698481,0.6387522,-0.08193171,-33.02859,-39.27443,25.4281
8.419589996,-53.56412,-25.15929,-8.636034,0.7024202,0.6248258,-0.1093486,-33.02859,-39.27443,25.4281
8.429449082,-48.53273,-27.12309,-8.697337,0.7080786,0.6573933,-0.132156,-33.02859,-39.27443,25.4281
8.439308643,-41.88633,-31.82429,-9.86209499999999,0.6352521,0.7048298,-0.1570737,-31.54086,-39.67767,24.14386
8.449167252,-43.06653,-39.858,-10.16861,0.5712627,0.7710409,-0.1273301,-31.54086,-39.67767,24.14386
8.459026337,-53.93681,-45.8684,-8.39082200000002,0.5667136,0.7994125,-0.07718911,-31.54086,-39.67767,24.14386
8.468885422,-70.08695,-49.08188,-2.873553,0.5745507,0.8072964,-0.06956708,-31.54086,-39.67767,24.14386
8.47874403,-88.4732699999998,-50.15304,4.666717,0.5627097,0.7955814,-0.05128761,-31.54086,-39.67767,24.14386
8.488603592,-108.5988,-51.81929,10.91962,0.5746232,0.7750114,0.01497772,-31.1671,-40.79801,23.32106
8.498462677,-126.7367,-49.2009,17.60165,0.5825428,0.7386252,0.02557935,-31.1671,-40.79801,23.32106
8.508321285,-142.2035,-47.8322,26.61319,0.559181,0.7068518,0.04241615,-31.1671,-40.79801,23.32106
8.518180847,-152.639,-46.16594,33.72434,0.5669078,0.6088114,0.09227377,-31.1671,-40.79801,23.32106
8.528039932,-155.869,-43.54755,40.65158,0.5583369,0.5511895,0.05884487,-31.1671,-40.79801,23.32106
8.537898541,-152.2042,-40.92916,46.59797,0.5635505,0.5065429,0.07899934,-30.43278,-42.32021,20.38765
8.547757626,-148.7257,-39.73898,51.74742,0.5753973,0.5140005,0.09326942,-30.43278,-42.32021,20.38765
8.557617188,-146.9865,-36.82304,56.95817,0.5749582,0.5591453,0.06490471,-30.43278,-42.32021,20.38765
8.567475796,-148.1667,-37.35862,61.0654800000002,0.6314849,0.6091666,0.1641947,-30.43278,-42.32021,20.38765
8.577334881,-158.6642,-34.14514,69.2187700000003,0.6723069,0.6776702,0.1685038,-30.43278,-42.32021,20.38765
8.589658737,-166.3666,-32.06233,72.7743500000003,0.6872738,0.66066,0.1389158,-30.82763,-43.4729,16.62408
8.599517345,-169.3482,-32.47889,73.6325800000002,0.7196051,0.6182652,0.1764331,-30.82763,-43.4729,16.62408
8.609376907,-171.2738,-31.28871,74.91994,0.7361712,0.6154642,0.1689854,-30.82763,-43.4729,16.62408
8.619235992,-168.168,-31.52675,76.5138200000001,0.7462363,0.6048902,0.1802535,-30.82763,-43.4729,16.62408
8.629094601,-164.7516,-30.27706,77.9238000000002,0.7636254,0.6251354,0.2175541,-30.82763,-43.4729,16.62408
8.638954163,-164.1926,-31.46724,78.1076999999997,0.8010772,0.6007783,0.2517963,-32.73137,-44.26335,11.2001
8.648813248,-157.2356,-27.06358,77.8011900000002,0.8152553,0.5333084,0.263484,-32.73137,-44.26335,11.2001
8.658671856,-148.6636,-23.61206,81.8471799999999,0.8105171,0.4880389,0.2708367,-32.73137,-44.26335,11.2001
8.668530941,-139.6568,-19.98201,82.9506400000001,0.7877634,0.5220791,0.3184098,-32.73137,-44.26335,11.2001
8.678390503,-131.8923,-19.08938,79.7015799999999,0.7922623,0.5814388,0.3059083,-32.73137,-44.26335,11.2001
8.688249111,-129.9046,-18.49429,76.8816500000001,0.8148967,0.636575,0.2921542,-35.01289,-43.19715,6.591386
8.698108196,-132.5134,-21.52925,71.4256700000001,0.8889888,0.6501223,0.3559044,-35.01289,-43.19715,6.591386
8.707967281,-136.1162,-20.87465,67.6862000000002,0.8933415,0.6086477,0.3157189,-35.01289,-43.19715,6.591386
8.71782589,-137.0479,-21.41023,65.6018899999998,0.838659,0.6054814,0.2493835,-35.01289,-43.19715,6.591386
8.727685451,-134.0042,-23.31451,61.3719899999997,0.8368815,0.5734274,0.2702231,-35.01289,-43.19715,6.591386
8.737544537,-131.9544,-24.68322,56.52905,0.8568039,0.5654021,0.2890394,-38.03515,-41.73726,3.199025
8.747403145,-127.0472,-26.46849,50.64396,0.8711762,0.5567926,0.2949916,-38.03515,-41.73726,3.199025
8.759727001,-123.7551,-24.92126,43.83933,0.8722375,0.5608659,0.3405347,-38.03515,-41.73726,3.199025
8.769586563,-122.9476,-27.59916,38.50597,0.8580753,0.5352243,0.2839747,-38.03515,-41.73726,3.199025
8.779445648,-120.8357,-29.56295,34.8891,0.798924,0.5474882,0.1905189,-38.03515,-41.73726,3.199025
8.789304256,-116.3012,-33.49054,30.78179,0.8394545,0.4934162,0.2091321,-39.93977,-39.55312,-0.1426582
8.799163818,-105.8036,-32.30036,25.87755,0.8755383,0.4744449,0.2554193,-39.93977,-39.55312,-0.1426582
8.809022903,-95.4923599999999,-28.96786,19.74725,0.8801566,0.4930981,0.2876172,-39.93977,-39.55312,-0.1426582
8.818881512,-89.7155799999997,-27.18259,17.90816,0.8261995,0.5179675,0.2991385,-39.93977,-39.55312,-0.1426582
8.828740597,-86.36132,-26.58751,16.74341,0.8230906,0.4294402,0.3161661,-39.93977,-39.55312,-0.1426582
8.838600159,-78.4725999999999,-22.12433,17.47904,0.8284655,0.3454284,0.3494036,-41.4579,-38.09267,-2.262471
8.848458767,-69.52791,-18.25625,18.82771,0.8222345,0.2918389,0.3476026,-41.4579,-38.09267,-2.262471
8.858317852,-61.6391899999998,-16.41148,20.6055,0.8171946,0.2544303,0.3756315,-41.4579,-38.09267,-2.262471
8.868176937,-52.3218,-14.50719,22.07677,0.8427596,0.2517625,0.3824326,-41.4579,-38.09267,-2.262471
8.878035545,-46.42079,-11.94831,23.18022,0.8584441,0.2743683,0.404443,-41.4579,-38.09267,-2.262471
8.887895107,-45.11636,-9.92500399999998,24.95801,0.8524858,0.2966144,0.3817141,-42.59828,-37.37282,-4.376673
8.897754192,-42.25902,-9.865495,26.18407,0.8301446,0.3391548,0.3593899,-42.59828,-37.37282,-4.376673
8.907612801,-41.14093,-9.865495,25.38713,0.8312842,0.3376095,0.3339631,-42.59828,-37.37282,-4.376673
8.917472362,-34.61876,-8.67531599999998,24.16107,0.8549078,0.3188173,0.3277174,-42.59828,-37.37282,-4.376673
8.927331448,-28.15871,-8.79433299999997,23.91586,0.8636602,0.3281565,0.3319843,-42.59828,-37.37282,-4.376673
8.939654827,-22.63039,-6.23544999999998,22.56719,0.8907982,0.3302789,0.3148434,-43.29311,-36.70155,-5.212224
8.949513912,-19.89729,-5.87839600000002,21.77025,0.8800005,0.3223618,0.3053465,-43.29311,-36.70155,-5.212224
8.959373474,-19.5246,-5.580852,21.21853,0.8978449,0.3157492,0.3165372,-43.29311,-36.70155,-5.212224
8.969232082,-19.58672,-5.045271,21.34113,0.9060047,0.3211488,0.3097576,-43.29311,-36.70155,-5.212224
8.979091167,-18.03382,-4.033619,19.86986,0.929769,0.2789618,0.2932493,-43.29311,-36.70155,-5.212224
8.988950253,-13.49935,-2.783932,18.76641,0.9212894,0.2685888,0.2721978,-43.67408,-35.96718,-5.665929
8.998808861,-9.399704,-2.605405,16.37559,0.9128385,0.2854294,0.2413125,-43.67408,-35.96718,-5.665929
9.008668423,-7.72257499999999,-2.724423,13.24914,0.9329893,0.27294,0.2370863,-43.67408,-35.96718,-5.665929
9.018527508,-5.67275,-2.962458,12.14568,0.934541,0.2597949,0.231682,-43.67408,-35.96718,-5.665929
9.028386116,-4.430431,-3.021967,11.10353,0.924859,0.2524139,0.2327161,-43.67408,-35.96718,-5.665929
9.038245201,-2.939649,-3.97411,11.28744,0.9120778,0.2226368,0.2379182,-44.05383,-34.85842,-5.675309
9.048104763,-0.3928965,-4.926253,13.06523,0.9018114,0.1914363,0.246906,-44.05383,-34.85842,-5.675309
9.057963371,2.40232,-6.17594099999999,16.6208,0.8756679,0.1697982,0.2480544,-44.05383,-34.85842,-5.675309
9.067822456,5.259652,-7.36611899999999,20.36028,0.8684546,0.1780686,0.2645198,-44.05383,-34.85842,-5.675309
9.077682018,5.88081099999999,-9.38942300000003,23.67065,0.8776919,0.1976636,0.2774919,-44.05383,-34.85842,-5.675309
9.087540627,6.129274,-10.69862,26.8584,0.8900554,0.2061099,0.2946381,-44.80531,-34.11349,-5.678987
9.097399712,5.632347,-11.76978,28.8814,0.9141462,0.2249092,0.319851,-44.80531,-34.11349,-5.678987
9.107258797,4.141565,-11.59125,29.18792,0.9373107,0.2349266,0.3411694,-44.80531,-34.11349,-5.678987
9.11958313,3.520406,-10.5796,28.57489,0.9506173,0.2243307,0.3389735,-44.80531,-34.11349,-5.678987
9.129441738,4.452145,-9.50844099999999,28.14577,0.9593183,0.1869206,0.334221,-44.80531,-34.11349,-5.678987
9.139300823,6.439854,-8.43728100000002,27.77795,0.9485935,0.1668187,0.319349,-45.54758,-33.35075,-4.40239
9.149159908,8.80025999999999,-8.49678899999997,26.7358,0.9427854,0.1764137,0.2965111,-45.54758,-33.35075,-4.40239
9.159018517,8.676027,-9.38942300000003,25.44843,0.959035,0.2057455,0.2941311,-45.54758,-33.35075,-4.40239
9.168878079,3.76887,-10.46058,25.81625,0.9567484,0.2285808,0.2900436,-45.54758,-33.35075,-4.40239
9.178737164,-4.741011,-13.13849,25.44843,0.9507739,0.2885509,0.3352004,-45.54758,-33.35075,-4.40239
9.188595772,-13.80993,-11.76978,24.95801,1.01677,0.1873543,0.3142378,-46.67278,-32.6015,-4.404137
9.198454857,-13.87205,-10.5796,26.67449,0.9812362,0.0920193,0.2794373,-46.67278,-32.6015,-4.404137
9.208314419,-9.64816799999999,-10.5796,26.18407,0.9529059,0.05125738,0.2469115,-46.67278,-32.6015,-4.404137
9.218173027,-3.312345,-11.2342,24.7741,0.9582981,0.08925471,0.2452386,-46.67278,-32.6015,-4.404137
9.228032112,-1.076172,-11.59125,21.77025,0.9744367,0.1400368,0.2535835,-46.67278,-32.6015,-4.404137
9.237891674,-3.250229,-11.65076,19.80856,0.9907366,0.1854943,0.2690692,-47.4243,-30.74055,-3.586947
9.247750282,-7.34987899999998,-10.75813,17.04992,0.989061,0.185422,0.2537581,-47.4243,-30.74055,-3.586947
9.257609367,-8.34373400000002,-10.16304,14.16868,0.983546,0.156666,0.2545524,-47.4243,-30.74055,-3.586947
9.267468453,-6.72872000000001,-9.80598499999999,12.08438,0.9794763,0.1176638,0.2446973,-47.4243,-30.74055,-3.586947
9.277327061,-2.566953,-8.79433299999997,10.5518,0.96429,0.1228939,0.247833,-47.4243,-30.74055,-3.586947
9.289651394,2.712899,-8.13973500000002,8.83531999999998,0.9502832,0.1402604,0.2405121,-47.80401,-30.74782,-4.417194
9.299510479,5.259652,-7.90170000000001,7.057533,0.9494271,0.1733509,0.2427203,-47.80401,-30.74782,-4.417194
9.309369564,3.644638,-8.615807,5.708868,0.9395997,0.2072925,0.2335628,-47.80401,-30.74782,-4.417194
9.319228172,1.470581,-8.91335200000002,4.176292,0.9442163,0.2073925,0.2493115,-47.80401,-30.74782,-4.417194
9.329087734,0.4146104,-8.49678899999997,2.153293,0.9423602,0.1873865,0.2391059,-47.80401,-30.74782,-4.417194
9.338946819,1.408465,-8.615807,1.785475,0.9406517,0.165958,0.2384702,-48.55151,-29.62316,-3.592464
9.348805428,4.141565,-7.96120899999999,1.601566,0.9363794,0.165468,0.2476318,-48.55151,-29.62316,-3.592464
9.35866499,6.19139099999999,-8.02071800000003,1.049839,0.9352981,0.1878884,0.2598163,-48.55151,-29.62316,-3.592464
9.368524075,6.874665,-8.08022700000001,0.0689914200000002,0.9403427,0.2117632,0.2561124,-48.55151,-29.62316,-3.592464
9.378382683,5.632347,-8.199244,-0.6053416,0.9498106,0.2201948,0.2761749,-48.55151,-29.62316,-3.592464
9.388241768,5.13542,-7.84219100000002,-0.6666446,0.9324144,0.2000827,0.2743363,-48.17456,-29.62124,-3.146298
9.39810133,6.99889700000002,-7.42562799999997,-1.402281,0.9351249,0.1816273,0.2774964,-48.17456,-29.62124,-3.146298
9.407959938,8.42756399999998,-7.12808399999997,-1.892705,0.9317426,0.1830736,0.2818696,-48.17456,-29.62124,-3.146298
9.417819023,7.30947700000003,-7.30661099999998,-1.279675,0.9466182,0.2007016,0.2760559,-48.17456,-29.62124,-3.146298
9.427678108,4.949072,-6.89004799999999,-1.647493,0.9532729,0.1988892,0.2960722,-48.17456,-29.62124,-3.146298
9.437536717,3.893102,-6.05692300000003,-2.199219,0.9491168,0.1803679,0.2978919,-48.16979,-29.98404,-2.758445
9.447396278,5.011188,-5.461833,-2.934855,0.9545797,0.1574922,0.2837242,-48.16979,-29.98404,-2.758445
9.459720135,9.297187,-4.688217,-3.731794,0.9521497,0.1330638,0.2634263,-48.16979,-29.98404,-2.758445
9.469578743,12.71356,-4.450181,-4.160915,0.9505374,0.1579091,0.2746806,-48.16979,-29.98404,-2.758445
9.479437828,13.83165,-4.390673,-5.509581,0.957027,0.1842316,0.2714558,-48.16979,-29.98404,-2.758445
9.48929739,12.21663,-3.795583,-6.12261100000003,0.9613857,0.2032989,0.2849722,-47.79485,-29.61397,-2.316051
9.499155998,9.60776600000003,-3.43853,-7.164762,0.9633167,0.2037971,0.2835113,-47.79485,-29.61397,-2.316051
9.509015083,7.68217200000001,-3.081476,-7.961701,0.9587864,0.1750515,0.2847708,-47.79485,-29.61397,-2.316051
9.518874645,7.80640399999998,-2.962458,-8.94255000000001,0.9478946,0.1651547,0.2666329,-47.79485,-29.61397,-2.316051
9.52873373,7.49582399999998,-3.676566,-9.06515500000003,0.9412628,0.156856,0.275283,-47.79485,-29.61397,-2.316051
9.538592339,6.93678100000001,-3.617057,-7.47127699999998,0.9501872,0.155015,0.2823283,-47.79208,-29.60863,-1.931969
9.548451424,5.632347,-3.319512,-5.325672,0.9488097,0.1540512,0.2880902,-47.79208,-29.60863,-1.931969
9.558310986,4.762724,-3.260003,-3.609189,0.9560803,0.1623969,0.290453,-47.79208,-29.60863,-1.931969
9.568169594,3.955218,-3.081476,-2.505734,0.9519347,0.1676666,0.2780974,-47.79208,-29.60863,-1.931969
9.578028679,2.837131,-3.43853,-1.647493,0.955854,0.1720969,0.2823917,-47.79208,-29.60863,-1.931969
9.587887764,2.588667,-3.081476,-2.505734,0.9498937,0.1720193,0.2757672,-47.78686,-29.97054,-1.480101
9.597746372,3.147711,-3.260003,-2.812249,0.946095,0.1568823,0.2709016,-47.78686,-29.97054,-1.480101
9.607605934,4.452145,-2.605405,-3.118764,0.9644786,0.1488236,0.2844684,-47.78686,-29.97054,-1.480101
9.617465019,5.197536,-2.010315,-3.118764,0.9601849,0.1769977,0.281413,-47.78686,-29.97054,-1.480101
9.627323627,3.023479,-1.296208,-2.812249,0.9579856,0.1798406,0.2661339,-47.78686,-29.97054,-1.480101
9.639647484,-0.765591999999998,-1.712771,-1.708796,0.9610025,0.1740312,0.2670003,-47.41113,-30.343,-1.478261
9.649507046,-2.629069,-1.593753,-1.279675,0.9595516,0.1588879,0.2549132,-47.41113,-30.343,-1.478261
9.659365654,-2.132142,-1.355717,-0.850553500000001,0.9621149,0.1506432,0.2562446,-47.41113,-30.343,-1.478261
9.669224739,-0.5171283,-1.296208,-1.095766,0.953033,0.169039,0.2522165,-47.41113,-30.343,-1.478261
9.679084301,0.1040308,-1.712771,-1.647493,0.9590658,0.1821842,0.2397823,-47.41113,-30.343,-1.478261
9.688942909,-0.579244300000001,-1.593753,-1.340978,0.9576021,0.1802195,0.238349,-47.41113,-30.343,-1.478261
9.698801994,-0.2686647,-1.474735,-0.727947499999999,0.9522604,0.1796948,0.2408167,-47.41113,-30.343,-1.478261
9.708661079,0.911537699999999,-1.593753,-0.2375236,0.9439555,0.1859713,0.2472176,-47.41113,-30.343,-1.478261
9.718520641,1.532697,-1.415226,-0.1149176,0.9478582,0.1879558,0.2481371,-47.41113,-30.343,-1.478261
9.72837925,1.222117,-1.117681,0.3142034,0.9458996,0.1908673,0.2505856,-47.41113,-30.343,-1.478261
9.738238335,0.787305800000002,-0.879645599999998,0.743324399999998,0.9465904,0.182141,0.2576901,-47.77808,-31.06963,-1.084705
9.748097897,1.284233,-0.701118900000002,0.620718400000002,0.9362991,0.1727685,0.2481737,-47.77808,-31.06963,-1.084705
9.757956028,2.153856,-0.820136700000001,0.1915974,0.9445326,0.1752597,0.2442438,-47.77808,-31.06963,-1.084705
9.76781559,2.215972,-0.760627799999999,0.1302944,0.9453092,0.188393,0.2409892,-47.77808,-31.06963,-1.084705
9.777674675,1.03577,-0.939154599999998,0.007688423,0.9482706,0.1889147,0.2433473,-47.77808,-31.06963,-1.084705
9.787533283,0.04191487,-0.641609900000002,0.007688423,0.9556639,0.1792309,0.2388474,-47.78209,-30.33334,-1.092247
9.797392845,-0.1444329,-0.4630831,-0.05361458,0.9602457,0.1734623,0.2468799,-47.78209,-30.33334,-1.092247
9.809716701,0.4767263,-0.1655384,-0.1762206,0.9686181,0.1686697,0.2467201,-47.78209,-30.33334,-1.092247
9.81957531,1.408465,0.2510241,0.0689914200000002,0.9582676,0.1719742,0.2440203,-47.78209,-30.33334,-1.092247
9.829434395,2.029624,0.01298836,0.4368094,0.9520805,0.1898963,0.2365925,-47.78209,-30.33334,-1.092247
9.839293957,2.029624,-0.1060295,1.111142,0.9516616,0.1845414,0.2370325,-47.40314,-30.69957,-0.642312
9.849152565,1.719045,-0.3440652,0.927233400000001,0.9481723,0.1971865,0.2434186,-47.40314,-30.69957,-0.642312
9.85901165,0.911537699999999,-0.2250474,0.2529004,0.9565375,0.2006917,0.2500377,-47.40314,-30.69957,-0.642312
9.868870735,0.04191487,0.1320062,0.1915974,0.9589794,0.2026651,0.2514572,-47.40314,-30.69957,-0.642312
9.878729343,-0.641360199999998,0.310533,-0.4214326,0.9516848,0.1913832,0.2447571,-47.40314,-30.69957,-0.642312
9.888588905,0.04191487,0.727095499999998,-0.5440385,0.9472317,0.1918181,0.2414698,-47.77887,-30.3271,-0.6441507
9.89844799,-0.02020105,0.4295509,-0.6666446,0.9560308,0.1845709,0.2345745,-47.77887,-30.3271,-0.6441507
9.908307552,0.2282626,0.1915152,-0.05361458,0.9557043,0.1670368,0.2310768,-47.77887,-30.3271,-0.6441507
9.918166161,0.973653600000002,0.2510241,0.5594154,0.9528773,0.1606947,0.2334595,-47.77887,-30.3271,-0.6441507
9.928025246,2.588667,0.2510241,0.804627399999999,0.9556746,0.1645872,0.2267437,-47.77887,-30.3271,-0.6441507
9.937884331,3.955218,0.5485688,0.007688423,0.9546444,0.1733518,0.230666,-47.77808,-31.06963,-1.084705
9.947742939,4.079449,0.727095499999998,-0.789250600000002,0.9501206,0.1918309,0.2380744,-47.77808,-31.06963,-1.084705
9.957602501,3.147711,0.786604499999998,-1.708796,0.9540254,0.1996748,0.2443145,-47.77808,-31.06963,-1.084705
9.967461586,1.967508,0.786604499999998,-2.750947,0.9609059,0.1914446,0.239355,-47.77808,-31.06963,-1.084705
9.977320194,1.532697,0.1320062,-2.567038,0.9593167,0.1664973,0.2084984,-47.77808,-31.06963,-1.084705
9.989644051,6.62620199999998,2.15531,-3.486583,0.9726306,0.1752147,0.2955965,-48.15382,-30.69717,-1.086545
9.999503613,4.141565,1.738747,-1.157069,0.9159547,0.203132,0.2180512,-48.15382,-30.69717,-1.086545
10.009362221,3.830986,0.310533,0.007688423,0.959646,0.1778205,0.2426124,-48.15382,-30.69717,-1.086545
10.019221306,3.209827,0.846113400000001,0.4368094,0.9531808,0.1845692,0.2408447,-48.15382,-30.69717,-1.086545
10.029080391,2.775015,0.310533,0.620718400000002,0.9362828,0.1872755,0.2238572,-48.15382,-30.69717,-1.086545
10.038939953,2.650783,0.2510241,0.0689914200000002,0.9481401,0.1800894,0.2260235,-47.78209,-30.33334,-1.092247
10.048798561,3.582522,0.1320062,-0.5440385,0.944483,0.189269,0.2170484,-47.78209,-30.33334,-1.092247
10.058657646,3.644638,-0.4035742,-1.095766,0.9499831,0.1913035,0.2275295,-47.78209,-30.33334,-1.092247
10.068517208,3.085595,-0.3440652,-1.524887,0.9619989,0.1812332,0.2387741,-47.78209,-30.33334,-1.092247
10.078375816,3.271943,-0.2845563,-1.708796,0.9590232,0.184125,0.2383617,-47.78209,-30.33334,-1.092247
10.088234901,3.147711,-0.3440652,-1.58619,0.9532228,0.18214,0.241782,-47.41113,-30.343,-1.478261
10.098093987,3.582522,-0.4035742,-0.6666446,0.9549863,0.1583143,0.2425142,-47.41113,-30.343,-1.478261
10.107952595,5.81869499999997,-0.3440652,0.1915974,0.947349,0.1578109,0.2560364,-47.41113,-30.343,-1.478261
10.117812157,7.930636,0.1320062,0.3755064,0.9459861,0.1703864,0.2389107,-47.41113,-30.343,-1.478261
10.127671242,8.30333200000001,0.310533,0.1915974,0.9504389,0.1914335,0.2610681,-47.41113,-30.343,-1.478261
10.13752985,6.81255000000002,0.727095499999998,0.0689914200000002,0.9482968,0.2064983,0.2607466,-48.1526,-30.32279,-0.6422195
10.147388935,5.197536,0.786604499999998,0.2529004,0.9533554,0.1968247,0.2644264,-48.1526,-30.32279,-0.6422195
10.159713268,4.700608,1.143658,0.2529004,0.9560279,0.1876346,0.2729363,-48.1526,-30.32279,-0.6422195
10.169572353,4.638493,1.441203,-0.1149176,0.9519532,0.1968303,0.2692384,-48.1526,-30.32279,-0.6422195
10.179430962,3.45829,1.917274,0.007688423,0.9571844,0.2105056,0.2702377,-48.1526,-30.32279,-0.6422195
10.189290047,1.284233,1.738747,0.0689914200000002,0.9526597,0.215314,0.2655508,-47.40636,-30.7058,-1.090408
10.199149609,-0.827707900000002,1.441203,-0.2988266,0.9569869,0.2089846,0.2544141,-47.40636,-30.7058,-1.090408
10.209008217,-2.00791,1.500712,0.007688423,0.9467181,0.2015714,0.2482683,-47.40636,-30.7058,-1.090408
10.218867302,-2.256374,1.441203,-0.2988266,0.9478489,0.1947883,0.2534661,-47.40636,-30.7058,-1.090408
10.228726864,-1.573099,1.798256,-0.4827355,0.9517469,0.185054,0.2437444,-47.40636,-30.7058,-1.090408
10.238585472,-0.2065488,1.798256,-0.6666446,0.9380103,0.1741805,0.2313892,-47.78209,-30.33334,-1.092247
10.248444557,0.663074000000001,1.262676,-0.6053416,0.9436734,0.1888202,0.2290361,-47.78209,-30.33334,-1.092247
10.258303642,0.600958099999998,0.846113400000001,-0.6053416,0.9506668,0.186481,0.2375423,-47.78209,-30.33334,-1.092247
10.268162251,0.849421699999999,0.9056224,-0.6053416,0.9543698,0.1942673,0.2289296,-47.78209,-30.33334,-1.092247
10.278021813,1.284233,0.965131299999997,-0.850553500000001,0.9491648,0.1893876,0.2375882,-47.78209,-30.33334,-1.092247
10.287880898,2.09174,0.9056224,-1.279675,0.9480854,0.195697,0.23574,-47.03141,-30.33573,-0.6480141
10.297739506,3.334059,0.846113400000001,-1.892705,0.9486729,0.1918236,0.2395325,-47.03141,-30.33573,-0.6480141
10.307598591,4.514261,1.143658,-2.567038,0.9579337,0.1923845,0.2374885,-47.03141,-30.33573,-0.6480141
10.317458153,5.570231,1.500712,-2.996159,0.9546055,0.1821288,0.2355326,-47.03141,-30.33573,-0.6480141
10.327316761,7.12312899999999,1.560221,-2.996159,0.9481801,0.184983,0.2332523,-47.03141,-30.33573,-0.6480141
10.339640617,8.36544800000002,1.441203,-2.996159,0.9448318,0.1962036,0.2487291,-48.1506,-30.69093,-0.6384487
10.349499703,7.86851999999999,0.965131299999997,-2.567038,0.9340695,0.2286843,0.2414894,-48.1506,-30.69093,-0.6384487
10.359359264,4.638493,1.084149,-2.137917,0.9464841,0.2234748,0.2503733,-48.1506,-30.69093,-0.6384487
10.369217873,1.656929,1.084149,-0.911856500000002,0.952059,0.2060016,0.2491879,-48.1506,-30.69093,-0.6384487
10.379076958,1.284233,1.381694,-0.727947499999999,0.944805,0.1913137,0.2424586,-48.1506,-30.69093,-0.6384487
10.38893652,2.215972,1.322185,-1.463584,0.9412852,0.1966267,0.2401576,-47.40314,-30.69957,-0.642312
10.398795128,2.961363,1.322185,-2.137917,0.9378254,0.1985391,0.2392647,-47.40314,-30.69957,-0.642312
10.408654213,3.023479,0.608077699999999,-2.62834,0.9391055,0.2082632,0.2340573,-47.40314,-30.69957,-0.642312
10.418513298,2.09174,0.5485688,-2.996159,0.946478,0.2063852,0.2348947,-47.40314,-30.69957,-0.642312
10.428371906,1.408465,0.786604499999998,-2.567038,0.9519475,0.1966935,0.2328182,-47.40314,-30.69957,-0.642312
10.438231468,1.097885,0.9056224,-1.770099,0.9441872,0.1966432,0.2377204,-47.77486,-31.0634,-0.6366091
10.448090553,1.097885,0.2510241,-1.279675,0.9415821,0.2073171,0.2354516,-47.77486,-31.0634,-0.6366091
10.457949162,0.849421699999999,-0.1655384,-0.973159599999999,0.9439783,0.2048834,0.2296465,-47.77486,-31.0634,-0.6366091
10.467808724,0.787305800000002,-0.4035742,-0.911856500000002,0.9480102,0.1976285,0.2319238,-47.77486,-31.0634,-0.6366091
10.477667809,1.470581,-0.4035742,-0.973159599999999,0.9425991,0.1985487,0.2305711,-47.77486,-31.0634,-0.6366091
10.487526894,1.843277,-0.3440652,-1.095766,0.9407847,0.2019895,0.2440436,-47.0274,-31.07203,-0.6404724
10.497385502,2.278088,-0.4630831,-1.279675,0.9431694,0.2049231,0.2421176,-47.0274,-31.07203,-0.6404724
10.509709358,2.526551,-0.3440652,-1.340978,0.9412203,0.2097902,0.2469784,-47.0274,-31.07203,-0.6404724
10.51956892,2.029624,-0.2845563,-1.095766,0.9417919,0.2083534,0.2517501,-47.0274,-31.07203,-0.6404724
10.529427529,1.097885,-0.2250474,-0.4214326,0.9413396,0.2025009,0.2493112,-47.40234,-31.4421,-1.082867
10.539286614,0.911537699999999,-0.3440652,0.0689914200000002,0.9423429,0.1932403,0.2429892,-47.40234,-31.4421,-1.082867
10.549146176,0.849421699999999,-0.5225921,0.4981124,0.9481823,0.1952365,0.2424436,-47.40234,-31.4421,-1.082867
10.559004784,0.911537699999999,-0.2250474,0.1915974,0.9486037,0.2108447,0.2511949,-47.40234,-31.4421,-1.082867
10.568863869,0.1661467,-0.760627799999999,-0.1149176,0.9425705,0.2185579,0.2460747,-47.40234,-31.4421,-1.082867
10.578722954,-0.765591999999998,-0.582100999999999,-0.4827355,0.9476444,0.2103532,0.2521628,-47.40314,-30.69957,-0.642312
10.588581562,-0.951939799999999,-0.582100999999999,-0.727947499999999,0.9450685,0.2059005,0.2387444,-47.40314,-30.69957,-0.642312
10.598441124,-1.200403,-0.4630831,-1.095766,0.9541065,0.1972567,0.2481265,-47.40314,-30.69957,-0.642312
10.608300209,-0.703476100000001,-0.1655384,-0.727947499999999,0.9506314,0.188912,0.2370841,-47.40314,-30.69957,-0.642312
10.618159771,-0.02020105,-0.4035742,-0.5440385,0.9471282,0.1966709,0.2381579,-47.40314,-30.69957,-0.642312
10.628018379,0.2903785,-0.4630831,-0.4214326,0.9456185,0.2073868,0.2444994,-47.40314,-30.69957,-0.642312
10.637877464,0.1661467,-0.582100999999999,0.0689914200000002,0.9454709,0.2044154,0.2310589,-47.39791,-31.06148,-0.190444
10.647736549,-0.3928965,-0.760627799999999,0.007688423,0.9508075,0.2147031,0.23682,-47.39791,-31.06148,-0.190444
10.657595158,-1.386751,-0.820136700000001,0.0689914200000002,0.9494256,0.2064147,0.2358114,-47.39791,-31.06148,-0.190444
10.667454719,-1.573099,-0.939154599999998,0.1915974,0.9461226,0.195678,0.2352886,-47.39791,-31.06148,-0.190444
10.677313805,-1.076172,-1.236699,0.3142034,0.9417366,0.1932026,0.2343719,-47.39791,-31.06148,-0.190444
10.689637661,-0.02020105,-1.296208,0.2529004,0.9412062,0.1873278,0.2261835,-47.3959,-31.42962,-0.1866732
10.699496269,0.849421699999999,-1.355717,0.1915974,0.9402269,0.2039186,0.2407134,-47.3959,-31.42962,-0.1866732
10.709355831,1.03577,-1.593753,-0.1762206,0.9396041,0.2146171,0.2403334,-47.3959,-31.42962,-0.1866732
10.719214916,0.4767263,-1.77228,-0.05361458,0.9416357,0.2127029,0.2441218,-47.3959,-31.42962,-0.1866732
10.729073524,0.2282626,-1.474735,-0.05361458,0.9396626,0.2102398,0.2407748,-47.02538,-31.44018,-0.6367025
10.738932609,-0.579244300000001,-1.77228,-0.1762206,0.9477246,0.2074467,0.2554915,-47.02538,-31.44018,-0.6367025
10.748792171,-0.765591999999998,-1.831789,-0.05361458,0.9461676,0.2039907,0.2459005,-47.02538,-31.44018,-0.6367025
10.75865078,-0.951939799999999,-2.129333,0.007688423,0.9496757,0.1996509,0.2482099,-47.02538,-31.44018,-0.6367025
10.768509865,-1.324635,-2.188842,-0.3601296,0.9430491,0.1947712,0.2602432,-47.02538,-31.44018,-0.6367025
10.778369427,-1.821563,-2.248351,-0.5440385,0.9374585,0.1938225,0.279962,-47.39791,-31.06148,-0.190444
10.788228035,-2.070026,-2.30786,-0.4827355,0.9382817,0.1909928,0.3019696,-47.39791,-31.06148,-0.190444
10.79808712,-2.132142,-1.653262,-0.6053416,0.9399466,0.1925267,0.3177724,-47.39791,-31.06148,-0.190444
10.807946205,-1.200403,0.1320062,-0.4827355,0.9496622,0.179547,0.3371715,-47.39791,-31.06148,-0.190444
10.817804813,2.278088,1.798256,-0.3601296,0.9456449,0.1537419,0.3427614,-47.39791,-31.06148,-0.190444
10.827664375,7.06101299999998,3.464506,-0.5440385,0.9394754,0.1449517,0.3490048,-47.02216,-31.43394,-0.1886053
10.83752346,11.34701,3.524015,-1.218372,0.943351,0.1767102,0.3741359,-47.02216,-31.43394,-0.1886053
10.847382069,12.58933,4.357141,-1.770099,0.9766098,0.1825088,0.4144428,-47.02216,-31.43394,-0.1886053
10.859705925,10.53951,6.14240899999998,-0.850553500000001,0.9781036,0.2095169,0.475987,-47.02216,-31.43394,-0.1886053
10.869565487,4.82484,7.57062300000002,-0.2375236,0.9998739,0.2255362,0.5438582,-47.02216,-31.43394,-0.1886053
10.879424572,-2.194258,10.84361,0.743324399999998,1.027556,0.1924435,0.6073971,-47.0274,-31.07203,-0.6404724
10.88928318,-8.03315400000002,14.7117,1.969384,1.041374,0.1674817,0.665931,-47.0274,-31.07203,-0.6404724
10.899142265,-13.31301,19.05585,4.482807,1.065685,0.147421,0.7090224,-47.0274,-31.07203,-0.6404724
10.909001827,-15.98399,24.7092,7.30274499999998,1.084431,0.1292128,0.7402287,-47.0274,-31.07203,-0.6404724
10.918860435,-17.28843,30.42205,10.12268,1.100723,0.1143985,0.7738946,-47.0274,-31.07203,-0.6404724
10.928719521,-16.7915,36.96804,11.90047,1.111145,0.1194141,0.7891228,-47.39912,-31.43586,-0.6347704
10.938579082,-15.85976,43.57353,13.24914,1.120621,0.1293128,0.8111144,-47.39912,-31.43586,-0.6347704
10.948438168,-15.79764,49.88148,14.90432,1.134654,0.1466177,0.850834,-47.39912,-31.43586,-0.6347704
10.958296776,-18.3444,56.30844,16.06907,1.155627,0.152292,0.8870022,-47.39912,-31.43586,-0.6347704
10.968155861,-21.38808,63.0924599999999,17.23383,1.181136,0.1390024,0.9162368,-47.39912,-31.43586,-0.6347704
10.978015423,-24.86657,70.94764,18.88901,1.20437,0.1470865,0.9408922,-48.16975,-31.10006,-3.579313
10.987874031,-29.15257,78.8028200000001,20.6668,1.223239,0.1496372,0.9277064,-48.16975,-31.10006,-3.579313
10.997733116,-32.32048,86.0033999999999,22.87371,1.259941,0.1543596,0.9324944,-48.16975,-31.10006,-3.579313
11.007592678,-34.24607,93.6800499999998,24.46758,1.267806,0.1378403,0.9207422,-48.16975,-31.10006,-3.579313
11.017451286,-34.92934,101.1187,25.63234,1.269658,0.1505215,0.9241772,-48.16975,-31.10006,-3.579313
11.027310371,-37.28975,107.1291,27.90055,1.28991,0.1361081,0.9256837,-48.19891,-30.78448,-7.359899
11.039634228,-38.03514,115.5793,29.98485,1.316359,0.1189104,0.9486423,-48.19891,-30.78448,-7.359899
11.049493313,-38.71841,123.137,30.9044,1.327282,0.1151459,0.9570804,-48.19891,-30.78448,-7.359899
11.059351921,-39.40169,129.802,31.57873,1.336802,0.1143158,0.9727514,-48.19891,-30.78448,-7.359899
11.069211483,-40.45766,137.0026,31.88525,1.365087,0.112101,0.9641832,-48.19891,-30.78448,-7.359899
11.079070568,-40.58189,142.5369,32.43697,1.380585,0.1108657,0.9874327,-47.1333,-29.04489,-13.72191
11.088929176,-41.63786,147.5952,32.9274,1.402897,0.117981,1.015447,-47.1333,-29.04489,-13.72191
11.098788738,-44.24673,153.07,33.47913,1.436829,0.1324891,1.040963,-47.1333,-29.04489,-13.72191
11.108647823,-47.84945,159.6755,34.76649,1.45956,0.1278714,1.053538,-47.1333,-29.04489,-13.72191
11.118506432,-51.88699,165.6859,36.54428,1.459718,0.1585394,1.056191,-47.1333,-29.04489,-13.72191
11.128365517,-57.3531900000002,171.5177,38.38337,1.468206,0.1697562,1.042747,-45.69273,-28.05127,-20.4624
11.138225079,-61.3907199999998,177.5281,40.34506,1.484962,0.1548038,1.038548,-45.69273,-28.05127,-20.4624
11.148083687,-64.1859400000001,183.1815,42.42936,1.472191,0.1571173,1.036833,-45.69273,-28.05127,-20.4624
11.157942772,-65.4903700000001,188.2397,43.59412,1.472052,0.1600071,1.029192,-45.69273,-28.05127,-20.4624
11.167802334,-66.1115300000002,193.3575,45.12669,1.477859,0.1488117,1.014639,-45.69273,-28.05127,-20.4624
11.177661419,-64.93133,198.4753,46.90448,1.466987,0.1350149,0.9945514,-43.58467,-25.61167,-28.5658
11.187520027,-63.7511299999999,202.0458,48.74357,1.414042,0.126215,0.9789389,-43.58467,-25.61167,-28.5658
11.197379112,-62.9436199999998,204.7237,50.21484,1.400252,0.1188788,1.001596,-43.58467,-25.61167,-28.5658
11.209702969,-61.3907199999998,209.2464,50.52136,1.384903,0.1372446,1.004366,-43.58467,-25.61167,-28.5658
11.219561577,-61.7634200000002,210.7341,53.15739,1.37277,0.0873649,0.9676985,-43.58467,-25.61167,-28.5658
11.229421139,-58.8439700000001,216.8635,54.50605,1.377065,0.06141443,1.044569,-39.17149,-23.1978,-36.6171
11.239280224,-59.6514800000002,221.2077,54.32214,1.246442,0.1510126,0.9800994,-39.17149,-23.1978,-36.6171
11.249139786,-64.37229,222.0408,53.27999,1.228972,0.2067726,0.9678805,-39.17149,-23.1978,-36.6171
11.258998394,-75.5531499999998,223.7071,52.91217,1.233555,0.2178219,0.9190301,-39.17149,-23.1978,-36.6171
11.268857479,-82.3237800000001,224.3022,53.4026,1.190543,0.157399,0.8688172,-39.17149,-23.1978,-36.6171
11.278716564,-83.8766899999999,224.4807,55.11908,1.117356,0.1044282,0.8008878,-32.88737,-20.11899,-43.85279
11.288575172,-80.4603100000001,223.8856,57.4485999999998,1.092933,0.06858137,0.7721814,-32.88737,-20.11899,-43.85279
11.298434734,-76.6712400000002,222.5764,60.08463,1.033572,0.06898542,0.7605717,-32.88737,-20.11899,-43.85279
11.308293819,-74.3108399999998,220.4936,61.5559000000002,0.9506732,0.09748238,0.7696609,-32.88737,-20.11899,-43.85279
11.318152428,-76.1122000000001,218.9464,62.10762,0.8754758,0.1040426,0.7501824,-32.88737,-20.11899,-43.85279
11.32801199,-78.7210600000001,216.566,62.23023,0.8458445,0.09540299,0.722259,-24.41629,-16.61803,-49.82388
11.337871075,-83.50399,214.0071,61.4332900000001,0.8047209,0.07696559,0.7040007,-24.41629,-16.61803,-49.82388
11.347729683,-86.6718999999998,211.3887,62.0463200000001,0.7604014,0.01134023,0.6968907,-24.41629,-16.61803,-49.82388
11.357588768,-87.7278700000001,209.782,62.3528399999999,0.7056477,-0.05868104,0.7100185,-24.41629,-16.61803,-49.82388
11.36744833,-84.0009199999997,213.5906,61.5559000000002,0.6362385,-0.08870919,0.652292,-24.41629,-16.61803,-49.82388
11.377306938,-79.7770400000002,211.8053,64.1306200000002,0.585524,-0.1101076,0.6456462,-14.75258,-11.9969,-53.69993
11.389630795,-76.29855,211.9838,63.5175900000003,0.5501682,-0.0837405,0.623371,-14.75258,-11.9969,-53.69993
11.39948988,-79.4043399999998,209.7225,64.0693199999998,0.517719,-0.08407287,0.6113715,-14.75258,-11.9969,-53.69993
11.409349442,-83.6282199999999,208.4133,66.58274,0.429264,-0.09144925,0.5402108,-14.75258,-11.9969,-53.69993
11.41920805,-87.04459,203.9501,67.6248900000001,0.3854048,-0.112432,0.4984893,-14.75258,-11.9969,-53.69993
11.429067135,-87.5415299999999,199.2489,68.1153199999998,0.346217,-0.143905,0.503095,-5.12393,-9.554535,-55.44058
11.43892622,-87.6036400000003,196.2735,68.0540100000002,0.2952448,-0.1810001,0.4637349,-5.12393,-9.554535,-55.44058
11.448784828,-85.6780500000001,192.7029,68.0540100000002,0.2497329,-0.2115429,0.471793,-5.12393,-9.554535,-55.44058
11.45864439,-82.5101300000001,190.3226,68.1153199999998,0.2025306,-0.2222801,0.4450607,-5.12393,-9.554535,-55.44058
11.468503475,-80.8951200000003,186.6925,68.97356,0.1416258,-0.1868938,0.4227467,-5.12393,-9.554535,-55.44058
11.478363037,-80.1497299999997,182.2888,67.9927099999998,0.09413295,-0.1264327,0.4373514,4.509739,-5.304278,-55.15102
11.488221645,-83.0691799999998,178.7778,67.6248900000001,0.05235416,-0.1253927,0.4240588,4.509739,-5.304278,-55.15102
11.498080731,-87.9763299999998,173.3625,70.0157100000001,-0.02141122,-0.1132412,0.3351232,4.509739,-5.304278,-55.15102
11.507939816,-93.6910000000002,163.1865,68.5444300000002,-0.08298964,-0.07875302,0.3343751,4.509739,-5.304278,-55.15102
11.517798424,-102.3872,154.0221,67.7475000000001,-0.1197144,-0.05627664,0.3159203,4.509739,-5.304278,-55.15102
11.527657986,-109.9654,146.7025,67.4409800000003,-0.1443894,-0.04665506,0.3446259,14.97926,-2.438969,-52.29064
11.537517071,-117.0466,142.1798,66.6440399999999,-0.1632071,-0.08762554,0.3637163,14.97926,-2.438969,-52.29064
11.547375679,-121.1462,138.9068,66.3988300000002,-0.1541741,-0.1759344,0.410283,14.97926,-2.438969,-52.29064
11.559699535,-115.8664,137.1216,66.9505599999997,-0.1648729,-0.2438752,0.3552334,14.97926,-2.438969,-52.29064
11.569559097,-105.493,137.6572,67.2570699999999,-0.1661824,-0.2869422,0.2930719,14.97926,-2.438969,-52.29064
11.579418182,-88.9080699999997,138.6688,65.7244900000001,-0.2358612,-0.3480234,0.2600056,22.77239,0.08912563,-49.41264
11.589276791,-68.3477099999998,138.7878,63.5788900000001,-0.3267809,-0.3712679,0.2452916,22.77239,0.08912563,-49.41264
11.599135876,-49.71293,137.7762,61.8011099999998,-0.4050201,-0.3320529,0.2467377,22.77239,0.08912563,-49.41264
11.608995438,-41.57575,134.0271,61.4332900000001,-0.4555124,-0.2584541,0.2682048,22.77239,0.08912563,-49.41264
11.618854046,-43.00441,130.3376,61.5559000000002,-0.4765454,-0.2128817,0.2727228,22.77239,0.08912563,-49.41264
11.628713131,-47.35253,126.767,61.9850200000003,-0.511223,-0.2073149,0.2818896,29.14009,3.019733,-45.25073
11.638572693,-50.7689,124.2676,62.10762,-0.5477408,-0.2248141,0.2434472,29.14009,3.019733,-45.25073
11.648431778,-51.51429,121.7683,62.1689300000001,-0.5597151,-0.2523254,0.2021746,29.14009,3.019733,-45.25073
11.658290386,-49.02966,119.5069,61.6172,-0.5701005,-0.2636777,0.1840172,29.14009,3.019733,-45.25073
11.668149471,-44.74366,118.0192,61.0654800000002,-0.5765667,-0.2793877,0.1624128,29.14009,3.019733,-45.25073
11.678009033,-38.46995,116.2934,59.4102899999999,-0.5745153,-0.2731316,0.1389556,34.40067,3.386254,-41.05663
11.687867641,-33.12798,115.7579,57.01948,-0.5723978,-0.282833,0.1421979,34.40067,3.386254,-41.05663
11.697726726,-27.97236,115.4008,55.30299,-0.6033148,-0.2963161,0.1233568,34.40067,3.386254,-41.05663
11.707586288,-23.18944,115.9364,53.64781,-0.6385058,-0.3200542,0.1049693,34.40067,3.386254,-41.05663
11.717444897,-19.33825,114.9247,51.5022,-0.684755,-0.3083315,0.09614336,34.40067,3.386254,-41.05663
11.727303982,-18.09593,112.9609,49.11139,-0.7086108,-0.2969289,0.07884921,38.85952,2.289537,-36.84327
11.739627838,-17.599,110.5806,47.08839,-0.7408131,-0.2901378,0.01946556,38.85952,2.289537,-36.84327
11.749486923,-17.9717,107.3076,45.55582,-0.7500274,-0.2688504,0.008275747,38.85952,2.289537,-36.84327
11.759345531,-19.21402,104.5107,44.14585,-0.7482631,-0.2455882,-0.02126345,38.85952,2.289537,-36.84327
11.769205093,-18.96556,101.4757,43.165,-0.7663875,-0.2434495,-0.05692703,38.85952,2.289537,-36.84327
11.779064178,-16.66727,98.6192900000001,41.57112,-0.7721294,-0.2586,-0.06080665,43.38664,1.203684,-31.79805
11.788922787,-11.38741,96.4769699999998,39.18031,-0.7659816,-0.2424925,-0.06219594,43.38664,1.203684,-31.79805
11.798782349,-5.424286,95.22729,36.85079,-0.7653,-0.2406155,-0.08231619,43.38664,1.203684,-31.79805
11.808641434,-0.641360199999998,93.38251,35.37952,-0.7982864,-0.2209487,-0.08024247,43.38664,1.203684,-31.79805
11.818500042,2.153856,90.3475499999998,33.78564,-0.8245004,-0.2163779,-0.09708147,43.38664,1.203684,-31.79805
11.828359127,3.085595,86.95554,31.88525,-0.8522649,-0.2240494,-0.1307736,46.03591,0.1215925,-28.02344
11.838218689,2.588667,81.9567899999998,30.59789,-0.8692445,-0.240272,-0.1345022,46.03591,0.1215925,-28.02344
11.848077297,2.464436,77.85068,28.8201,-0.862073,-0.2373251,-0.1441635,46.03591,0.1215925,-28.02344
11.857936382,1.781161,74.2206300000001,26.7971,-0.873871,-0.2252398,-0.1376638,46.03591,0.1215925,-28.02344
11.867795944,0.4767263,70.5310700000002,25.01931,-0.8982955,-0.2060526,-0.1539257,46.03591,0.1215925,-28.02344
11.877655029,-1.883678,67.0795600000001,22.93501,-0.8992774,-0.2085034,-0.1563284,47.57124,-1.677609,-23.7874
11.887513638,-3.250229,63.8660699999997,22.26068,-0.9150171,-0.2072018,-0.1613643,47.57124,-1.677609,-23.7874
11.897372723,-4.3062,60.2955399999999,19.99247,-0.9255205,-0.2190759,-0.1886292,47.57124,-1.677609,-23.7874
11.909696579,-3.498692,57.20108,19.25683,-0.9519032,-0.2216063,-0.1523345,47.57124,-1.677609,-23.7874
11.919556141,-2.132142,54.64219,17.47904,-0.9824244,-0.1893535,-0.1736705,47.57124,-1.677609,-23.7874
11.929414749,-2.939649,49.82197,16.6821,-0.9704147,-0.1743081,-0.2125298,50.21131,-2.777519,-21.29307
11.939273834,-3.125997,46.25143,15.51735,-0.951162,-0.2066654,-0.1924717,50.21131,-2.777519,-21.29307
11.949133396,-0.02020105,44.34715,15.33344,-0.9598254,-0.2180673,-0.2279052,50.21131,-2.777519,-21.29307
11.958992004,4.638493,41.31219,13.61695,-0.955885,-0.2038664,-0.2134656,50.21131,-2.777519,-21.29307
11.968851089,6.56408599999997,39.28889,11.71656,-0.9749249,-0.168519,-0.2152919,50.21131,-2.777519,-21.29307
11.978710175,5.445999,36.43246,11.04223,-1.00469,-0.1412033,-0.2572859,50.61068,-3.476256,-18.27881
11.988568783,2.029624,32.0288,10.30659,-1.031686,-0.1279322,-0.2879371,50.61068,-3.476256,-18.27881
11.998428345,-1.200403,25.83987,10.4905,-1.046068,-0.1355724,-0.3448213,50.61068,-3.476256,-18.27881
12.00828743,-1.200403,19.82946,9.20313699999998,-1.027496,-0.1360359,-0.3824675,50.61068,-3.476256,-18.27881
12.018146992,0.787305800000002,13.04545,7.36404799999998,-1.027944,-0.1268874,-0.4073023,50.61068,-3.476256,-18.27881
12.0280056,2.278088,6.26142599999997,5.15714,-1.026155,-0.1293588,-0.4217246,51.36814,-4.209602,-17.44296
12.037864685,3.271943,-0.4035742,2.766323,-1.023173,-0.1327372,-0.4213164,51.36814,-4.209602,-17.44296
12.04772377,2.526551,-6.17594099999999,0.4368094,-1.014822,-0.1385122,-0.4238802,51.36814,-4.209602,-17.44296
12.057582378,1.408465,-12.42438,-1.279675,-1.009697,-0.1432848,-0.4110551,51.36814,-4.209602,-17.44296
12.06744194,1.097885,-17.48264,-2.812249,-0.9912006,-0.1713286,-0.4067634,51.36814,-4.209602,-17.44296
12.077301025,2.899247,-21.64826,-4.590036,-0.9854845,-0.1902262,-0.398858,50.99717,-4.19994,-17.05694
12.089624882,5.259652,-26.64701,-6.36782300000001,-0.9949957,-0.1840233,-0.4092125,50.99717,-4.19994,-17.05694
12.09948349,8.11698399999998,-32.06233,-7.77779200000001,-0.9976196,-0.1772606,-0.416306,50.99717,-4.19994,-17.05694
12.109343052,9.17295499999997,-37.59666,-10.10731,-0.9835102,-0.1527456,-0.4004866,50.99717,-4.19994,-17.05694
12.119202137,9.04872300000001,-43.1905,-11.88509,-0.9511,-0.1480303,-0.3874912,50.99717,-4.19994,-17.05694
12.129060745,8.92449099999999,-48.48679,-14.0307,-0.9463258,-0.155697,-0.3670183,50.99043,-4.585015,-18.26943
12.13891983,7.99275200000001,-53.60456,-16.72803,-0.9457952,-0.1454281,-0.3549592,50.99043,-4.585015,-18.26943
12.148779392,6.62620199999998,-58.3652800000002,-19.73188,-0.9427972,-0.1545253,-0.3224932,50.99043,-4.585015,-18.26943
12.158638001,5.383883,-62.3523799999999,-23.53266,-0.9263138,-0.1640498,-0.3060365,50.99043,-4.585015,-18.26943
12.168497086,4.762724,-65.8038899999999,-26.96563,-0.8985407,-0.1724874,-0.285898,50.99043,-4.585015,-18.26943
12.178356648,5.073304,-69.0173700000001,-30.3986,-0.8661186,-0.185833,-0.2879103,50.97324,-4.246269,-20.38566
12.188215733,7.30947700000003,-72.2903699999998,-33.21854,-0.8437186,-0.2157979,-0.2860865,50.97324,-4.246269,-20.38566
12.198074341,10.66374,-77.2296100000001,-34.19938,-0.8367341,-0.1855636,-0.2854517,50.97324,-4.246269,-20.38566
12.207933426,12.71356,-83.1804999999998,-35.48675,-0.8086223,-0.1429111,-0.2672828,50.97324,-4.246269,-20.38566
12.217792988,12.77568,-88.7743500000001,-37.93887,-0.7989383,-0.1422295,-0.2381839,50.97324,-4.246269,-20.38566
12.227651596,11.78182,-94.0111300000002,-40.82011,-0.8106706,-0.1850247,-0.2033962,49.82286,-2.801712,-23.33958
12.237510681,10.85008,-97.6411699999999,-43.64005,-0.8146046,-0.2029945,-0.1848031,49.82286,-2.801712,-23.33958
12.247370243,9.54565000000002,-100.4976,-47.07301,-0.7888551,-0.204145,-0.1631366,49.82286,-2.801712,-23.33958
12.259694099,8.11698399999998,-104.9013,-51.11901,-0.7725107,-0.1767391,-0.1602631,49.82286,-2.801712,-23.33958
12.269552708,7.06101299999998,-109.662,-53.69374,-0.7537822,-0.1809287,-0.1538565,49.82286,-2.801712,-23.33958
12.279411793,5.81869499999997,-115.8509,-55.53283,-0.7589694,-0.1659213,-0.1622815,47.92459,-2.46544,-27.17453
12.289270878,4.452145,-124.7177,-57.8623400000002,-0.7566273,-0.1516354,-0.1214624,47.92459,-2.46544,-27.17453
12.299129486,1.346349,-132.2754,-61.3566100000001,-0.6969483,-0.156831,-0.09072966,47.92459,-2.46544,-27.17453
12.308989048,-0.0823169599999999,-137.8097,-63.9313399999999,-0.6490968,-0.1776434,-0.04414657,47.92459,-2.46544,-27.17453
12.318848133,-2.256374,-142.6299,-67.1804000000001,-0.601728,-0.2022289,0.03547632,47.92459,-2.46544,-27.17453
12.328707695,-2.815417,-144.9508,-70.1229399999999,-0.5418748,-0.2215334,0.06656671,45.25612,-0.6764541,-33.06913
12.338566303,0.1661467,-145.4864,-72.5750699999999,-0.4976589,-0.2411069,0.06289614,45.25612,-0.6764541,-33.06913
12.348425388,6.31562199999998,-146.0219,-74.8432799999999,-0.4675301,-0.2491954,0.04083449,45.25612,-0.6764541,-33.06913
12.358284474,15.57089,-147.6882,-77.29539,-0.4637055,-0.2478566,-0.0004198696,45.25612,-0.6764541,-33.06913
12.368143082,26.50329,-152.7464,-80.4831499999998,-0.4767375,-0.2197414,0.001440743,45.25612,-0.6764541,-33.06913
12.378002644,33.58451,-161.4348,-85.8165100000001,-0.4501325,-0.192819,0.1105462,41.08671,2.234239,-38.96732
12.387861729,33.64663,-166.255,-89.86251,-0.3602309,-0.2072706,0.1968364,41.08671,2.234239,-38.96732
12.397720337,30.4166,-166.5525,-91.0272700000001,-0.2752625,-0.2494711,0.2915884,41.08671,2.234239,-38.96732
12.407579899,26.9381,-162.9225,-91.3337800000002,-0.2071029,-0.3118865,0.3557405,41.08671,2.234239,-38.96732
12.417438984,28.92582,-157.5072,-92.6824500000001,-0.1803319,-0.3617035,0.3736273,41.08671,2.234239,-38.96732
12.427298069,38.98859,-152.8655,-93.7245899999999,-0.1778782,-0.3953673,0.3445563,35.49266,4.804912,-44.02215
12.439621449,54.70392,-153.401,-95.1958699999998,-0.1936796,-0.3532074,0.3350741,35.49266,4.804912,-44.02215
12.449481011,62.9653400000002,-156.555,-97.5253800000002,-0.160779,-0.3084529,0.383382,35.49266,4.804912,-44.02215
12.459340096,64.7666999999999,-159.5305,-99.3031700000002,-0.1110712,-0.2960772,0.4517827,35.49266,4.804912,-44.02215
12.469198704,62.0335999999998,-160.066,-101.1423,-0.0802286,-0.2751568,0.5075861,35.49266,4.804912,-44.02215
12.479057789,56.5674,-160.066,-102.9813,-0.01987739,-0.3138483,0.5581529,27.59795,6.665908,-49.05753
12.488917351,53.58583,-158.1618,-102.0005,0.01435416,-0.3806532,0.5700396,27.59795,6.665908,-49.05753
12.498776436,58.0581799999999,-156.6145,-103.104,0.03035027,-0.4144578,0.6011535,27.59795,6.665908,-49.05753
12.508635044,66.13325,-153.7581,-103.8396,0.07695888,-0.4395304,0.5528369,27.59795,6.665908,-49.05753
12.518494129,79.1775900000002,-152.5084,-104.33,0.1310907,-0.3999042,0.6108621,27.59795,6.665908,-49.05753
12.528353691,83.5878200000002,-152.3894,-105.4335,0.1107019,-0.3383068,0.6049637,20.47593,6.706933,-51.96546
12.538212299,87.9980500000002,-153.401,-106.6595,0.1608039,-0.2855663,0.6660323,20.47593,6.706933,-51.96546
12.548071385,85.1407200000002,-152.6274,-105.9239,0.2025784,-0.2801254,0.7205908,20.47593,6.706933,-51.96546
12.557930946,81.4137600000001,-152.0918,-102.1231,0.1971725,-0.3135974,0.7611173,20.47593,6.706933,-51.96546
12.567789554,79.6745199999999,-151.8538,-98.4449299999999,0.187516,-0.3473354,0.7408438,20.47593,6.706933,-51.96546
12.57764864,82.0970400000002,-153.282,-93.3567799999999,0.2052636,-0.3440759,0.7894967,11.55358,5.664379,-54.85275
12.587507725,84.14687,-154.5317,-88.20733,0.2156137,-0.316487,0.8552324,11.55358,5.664379,-54.85275
12.597367287,83.8362900000002,-154.7697,-83.9774200000002,0.2598184,-0.2696649,0.909147,11.55358,5.664379,-54.85275
12.609691143,77.8110400000001,-153.8176,-82.0770299999999,0.3170403,-0.1932687,0.9032258,11.55358,5.664379,-54.85275
12.619549751,67.9346100000003,-154.8293,-80.5444599999999,0.347543,-0.1702744,0.86417,11.55358,5.664379,-54.85275
12.629408836,57.00221,-156.2575,-80.6057599999997,0.3744628,-0.1908906,0.8827803,3.40345,2.800963,-55.67661
12.639268398,50.60427,-158.3403,-80.0540300000002,0.382587,-0.2384476,0.8985559,3.40345,2.800963,-55.67661
12.649127006,50.85273,-158.8759,-79.2570899999998,0.4051577,-0.2680107,0.8773791,3.40345,2.800963,-55.67661
12.658986092,54.89027,-158.2808,-78.8892700000002,0.4535292,-0.2657806,0.8388517,3.40345,2.800963,-55.67661
12.668845177,63.27592,-158.6378,-77.1727899999997,0.521804,-0.2754871,0.814316,3.40345,2.800963,-55.67661
12.678703785,77.6868100000002,-158.1618,-75.4563099999999,0.5919271,-0.3177833,0.7889997,-4.794079,-0.4049358,-54.70398
12.688563347,96.3837000000001,-154.5317,-71.9007299999999,0.5942237,-0.2947224,0.8342063,-4.794079,-0.4049358,-54.70398
12.698422432,113.9625,-153.9366,-70.4294600000002,0.5612174,-0.2113738,0.8190873,-4.794079,-0.4049358,-54.70398
12.70828104,121.2301,-154.4722,-70.8585799999998,0.587916,-0.08536717,0.8787119,-4.794079,-0.4049358,-54.70398
12.718140602,119.056,-156.4955,-70.9811899999998,0.6330203,-0.01707683,0.9457332,-4.794079,-0.4049358,-54.70398
12.727999687,110.6082,-158.2808,-69.3260000000001,0.644038,-0.006302807,0.938,-12.54886,-3.230794,-52.52111
12.737858772,103.7134,-159.947,-68.8355800000001,0.6805114,-0.005416003,0.9585723,-12.54886,-3.230794,-52.52111
12.74771738,100.1728,-160.7206,-67.8547400000002,0.7394102,-0.02681035,0.9537187,-12.54886,-3.230794,-52.52111
12.757576942,102.2847,-162.2084,-65.4026100000001,0.7785209,-0.01195903,0.9288474,-12.54886,-3.230794,-52.52111
12.767436027,107.5646,-161.9703,-62.46006,0.8023547,0.03446071,0.9236283,-12.54886,-3.230794,-52.52111
12.777294636,111.2294,-163.0415,-62.5213700000002,0.8038521,0.05889352,0.947294,-19.22227,-8.567629,-49.10169
12.789618492,110.7946,-166.731,-62.82789,0.7883939,0.1166394,0.9408137,-19.22227,-8.567629,-49.10169
12.799478054,102.2226,-170.3611,-61.4179200000003,0.8340622,0.1175801,0.9540675,-19.22227,-8.567629,-49.10169
12.809337139,89.2403699999999,-172.3249,-58.2301599999999,0.9102703,0.07384979,1.050848,-19.22227,-8.567629,-49.10169
12.819195747,78.74278,-170.1231,-54.67458,0.9728487,0.003029794,1.092966,-19.22227,-8.567629,-49.10169
12.829054832,74.3325499999999,-164.5887,-52.65158,1.007006,-0.01852652,1.103319,-26.26264,-13.94903,-44.78352
12.838914394,69.8602100000001,-159.3519,-52.77419,1.034064,-0.01740329,1.079462,-26.26264,-13.94903,-44.78352
12.848773479,65.5120899999999,-155.0078,-52.28377,1.047089,-0.02577369,1.02266,-26.26264,-13.94903,-44.78352
12.858632088,61.5366700000001,-153.5796,-51.54813,1.035099,-0.02133682,0.9366122,-26.26264,-13.94903,-44.78352
12.86849165,57.9960599999999,-155.0673,-50.75119,1.045817,-0.001860096,0.9145806,-26.26264,-13.94903,-44.78352
12.878350735,55.20085,-156.198,-50.38337,1.067921,0.03421904,0.8810261,-32.49008,-18.21753,-39.20057
12.888209343,53.02679,-155.5434,-51.11901,1.116041,0.05604163,0.8771701,-32.49008,-18.21753,-39.20057
12.898068428,52.46775,-152.2704,-52.16116,1.166594,0.0526295,0.8860048,-32.49008,-18.21753,-39.20057
12.90792799,53.02679,-146.8551,-52.59028,1.17652,0.04445675,0.8891488,-32.49008,-18.21753,-39.20057
12.917786598,52.71621,-142.3919,-53.63243,1.16883,0.06919096,0.8851543,-32.49008,-18.21753,-39.20057
12.927645683,51.1012,-138.8809,-53.87764,1.166644,0.08131407,0.8790581,-37.2854,-21.38743,-32.86817
12.937505245,47.12578,-136.1434,-54.00025,1.161799,0.08066064,0.8460569,-37.2854,-21.38743,-32.86817
12.94736433,43.33671,-134.5962,-53.38722,1.144855,0.06138363,0.8063622,-37.2854,-21.38743,-32.86817
12.95968771,41.41111,-133.8821,-52.28377,1.133747,0.0289668,0.7525766,-37.2854,-21.38743,-32.86817
12.969546795,42.5292,-134.9533,-50.01556,1.126032,0.06248172,0.7544069,-40.58643,-24.88585,-26.86043
12.979406357,41.03842,-135.7269,-47.37953,1.153015,0.1050829,0.7615699,-40.58643,-24.88585,-26.86043
12.989265442,38.74013,-134.2392,-44.00786,1.192209,0.128393,0.7861264,-40.58643,-24.88585,-26.86043
12.99912405,36.69031,-131.5613,-41.73965,1.190274,0.1557226,0.8117822,-40.58643,-24.88585,-26.86043
13.008983135,35.44799,-127.0386,-41.80096,1.203088,0.1509799,0.8144347,-40.58643,-24.88585,-26.86043
13.018842697,36.69031,-121.0282,-42.35268,1.194475,0.1561922,0.7973503,-43.5251,-26.98447,-21.38118
13.028701305,39.36129,-115.5534,-42.7818,1.175231,0.1471879,0.7774222,-43.5251,-26.98447,-21.38118
13.03856039,43.02613,-111.8043,-43.02702,1.160876,0.1450611,0.7632328,-43.5251,-26.98447,-21.38118
13.048419476,47.49847,-108.1743,-41.61705,1.162421,0.1400788,0.7286665,-43.5251,-26.98447,-21.38118
13.058279037,52.03294,-104.9013,-38.79711,1.152805,0.1281873,0.69468,-43.5251,-26.98447,-21.38118
13.068137646,55.75989,-103.473,-35.18023,1.142092,0.1245535,0.6593412,-43.5251,-26.98447,-21.38118
13.077996731,58.4929900000001,-102.2234,-30.88902,1.145698,0.1498882,0.6590245,-44.89612,-29.82491,-15.00624
13.087856293,56.75375,-101.0927,-27.02693,1.145495,0.1796121,0.6702998,-44.89612,-29.82491,-15.00624
13.097714901,52.52987,-97.9387199999999,-22.3679,1.138354,0.1921621,0.6599651,-44.89612,-29.82491,-15.00624
13.107573986,46.93943,-94.4872000000002,-18.99624,1.126115,0.179357,0.6480515,-44.89612,-29.82491,-15.00624
13.117433071,42.65343,-90.6786300000003,-16.48282,1.099078,0.1621284,0.659313,-44.89612,-29.82491,-15.00624
13.127291679,38.36744,-87.6436700000001,-14.88894,1.079625,0.1531997,0.6599941,-45.59121,-31.57504,-9.094251
13.139616013,34.7026,-81.2167099999998,-12.49812,1.10691,0.1325526,0.6694942,-45.59121,-31.57504,-9.094251
13.149475098,32.83912,-76.2179600000002,-10.41382,1.120946,0.1347234,0.6961476,-45.59121,-31.57504,-9.094251
13.159334183,30.4166,-71.9333099999999,-8.88124700000001,1.141345,0.1700158,0.7162812,-45.59121,-31.57504,-9.094251
13.169192791,23.89443,-67.58916,-7.961701,1.145138,0.2159093,0.7477623,-45.93055,-32.24822,-4.859868
13.179052353,12.21663,-62.76894,-6.36782300000001,1.164007,0.2185948,0.7705176,-45.93055,-32.24822,-4.859868
13.188911438,1.843277,-55.74688,-4.160915,1.171703,0.1510337,0.7731922,-45.93055,-32.24822,-4.859868
13.198770523,-1.510983,-48.18925,-0.727947499999999,1.161338,0.06770012,0.7649695,-45.93055,-32.24822,-4.859868
13.208629131,1.719045,-38.90585,1.785475,1.154642,0.00874286,0.7602545,-45.93055,-32.24822,-4.859868
13.218488693,8.986607,-29.2059,3.992383,1.127191,0.01483104,0.7616556,-46.27589,-32.93298,-1.457662
13.228347778,12.40298,-21.35072,6.87362400000002,1.110438,0.04052534,0.7755287,-46.27589,-32.93298,-1.457662
13.238206387,12.0924,-12.78143,10.30659,1.114254,0.07617282,0.7997351,-46.27589,-32.93298,-1.457662
13.248065949,8.11698399999998,-4.747726,13.12653,1.124685,0.08314402,0.8173757,-46.27589,-32.93298,-1.457662
13.257925034,4.762724,3.643033,14.6591,1.114846,0.08792371,0.8175563,-46.27589,-32.93298,-1.457662
13.267783642,-0.2065488,11.85527,15.45604,1.131303,0.06081551,0.8166137,-46.27589,-32.93298,-1.457662
13.277642727,-4.678895,19.17487,15.70126,1.149451,0.05171308,0.8119655,-45.89617,-32.92571,-0.6274147
13.287502289,-10.70414,24.94723,16.13038,1.160058,0.05043472,0.8352842,-45.89617,-32.92571,-0.6274147
13.297361374,-17.22631,31.85027,17.11123,1.179084,0.04095956,0.8588931,-45.89617,-32.92571,-0.6274147
13.30968523,-23.56213,41.01464,18.52119,1.200081,0.01552934,0.9053407,-45.89617,-32.92571,-0.6274147
13.319543839,-25.73619,48.86982,19.62465,1.211608,-0.002709972,0.9452753,-45.90817,-31.83286,-1.470905
13.3294034,-27.47544,56.725,21.64765,1.253024,0.01643435,1.021518,-45.90817,-31.83286,-1.470905
13.339262486,-30.51912,65.1752699999997,23.42543,1.289431,0.0465957,1.062945,-45.90817,-31.83286,-1.470905
13.349121094,-36.54436,74.3396499999999,25.20322,1.331393,0.06367235,1.105619,-45.90817,-31.83286,-1.470905
13.358980656,-45.42693,83.6230400000001,27.59404,1.351949,0.05227493,1.132065,-45.90817,-31.83286,-1.470905
13.368839741,-53.8747,92.7874099999999,29.55573,1.381275,0.02288103,1.140024,-46.6788,-31.49706,-4.415448
13.378698349,-58.7818599999998,104.2131,31.27222,1.408469,-0.02415645,1.119592,-46.6788,-31.49706,-4.415448
13.388557434,-60.3347500000001,114.2701,32.43697,1.42039,-0.03292423,1.089159,-46.6788,-31.49706,-4.415448
13.398416996,-61.0180300000003,122.7799,33.84694,1.445422,-0.01328554,1.076509,-46.6788,-31.49706,-4.415448
13.408276081,-61.1422600000001,131.5277,37.21861,1.484358,0.002004081,1.039184,-46.6788,-31.49706,-4.415448
13.418134689,-60.3968700000001,139.859,42.55197,1.504862,0.02449751,1.019914,-47.47709,-30.09869,-10.37995
13.427993775,-59.0924299999998,147.8927,46.23015,1.498273,0.03511657,1.01243,-47.47709,-30.09869,-10.37995
13.437853336,-57.8501199999999,154.0221,49.17269,1.495175,0.09056684,1.013422,-47.47709,-30.09869,-10.37995
13.447711945,-60.5832200000001,160.0325,51.3796,1.534893,0.1367027,1.024746,-47.47709,-30.09869,-10.37995
13.45757103,-65.3661400000002,165.6859,54.56736,1.549697,0.167004,1.024791,-47.47709,-30.09869,-10.37995
13.467430592,-71.0808000000003,170.8631,57.20338,1.569483,0.15064,1.026287,-46.03973,-29.1113,-17.56854
13.477289677,-73.13063,177.2306,59.96202,1.588653,0.1191004,1.005142,-46.03973,-29.1113,-17.56854
13.489613056,-71.5156200000002,185.9784,63.0884700000002,1.605279,0.09971678,0.9874905,-46.03973,-29.1113,-17.56854
13.499472141,-67.2917299999998,191.7508,65.54059,1.619382,0.1154418,0.9950894,-46.03973,-29.1113,-17.56854
13.509331703,-64.6207500000002,197.7017,68.2379200000001,1.617806,0.1383445,1.007285,-46.03973,-29.1113,-17.56854
13.519190788,-62.1361200000001,203.4145,69.8931000000001,1.616237,0.1358616,0.9977025,-44.31372,-25.5674,-26.00139
13.529049397,-59.5893600000001,208.8298,71.1804700000001,1.622054,0.1271103,0.9860451,-44.31372,-25.5674,-26.00139
13.538908482,-56.9805,214.1856,72.9582499999998,1.606925,0.1312452,0.9565852,-44.31372,-25.5674,-26.00139
13.548768044,-55.11702,218.4108,74.4295300000003,1.574135,0.133745,0.922092,-44.31372,-25.5674,-26.00139
13.558626652,-55.36548,220.7316,75.4716700000001,1.529584,0.1419935,0.8911694,-44.31372,-25.5674,-26.00139
13.568485737,-56.79415,222.8739,75.9007900000002,1.478755,0.1356976,0.8894447,-40.66,-22.05203,-34.89231
13.578344822,-59.5893600000001,225.4328,76.0847,1.438926,0.1241942,0.9004577,-40.66,-22.05203,-34.89231
13.588204384,-60.5211,228.7058,76.1460100000001,1.394162,0.09164132,0.8897994,-40.66,-22.05203,-34.89231
13.598062992,-59.5272499999997,230.1935,75.5942800000001,1.341144,0.08233261,0.8684334,-40.66,-22.05203,-34.89231
13.607922077,-58.6576200000002,231.5623,74.8586400000001,1.298949,0.09266529,0.8686427,-40.66,-22.05203,-34.89231
13.617781639,-58.47128,232.5144,74.8586400000001,1.249841,0.09413103,0.8564166,-34.75885,-17.8707,-42.58549
13.627640247,-60.5832200000001,232.6334,74.8586400000001,1.197927,0.08974872,0.8484939,-34.75885,-17.8707,-42.58549
13.637499332,-63.0057399999999,231.8003,74.9812500000001,1.149357,0.1145324,0.824477,-34.75885,-17.8707,-42.58549
13.647358417,-67.8507800000001,230.6696,74.7360399999998,1.117102,0.1390198,0.8126842,-34.75885,-17.8707,-42.58549
13.659682751,-75.1183400000002,230.2531,76.1460100000001,1.060609,0.1169724,0.7764049,-34.75885,-17.8707,-42.58549
13.669541359,-77.7893200000003,229.0034,77.8011900000002,0.9795371,0.07674477,0.7513441,-26.66594,-14.74605,-49.44706
13.679400444,-78.7831800000002,227.4561,79.5789699999999,0.8995832,0.06865348,0.7289346,-26.66594,-14.74605,-49.44706
13.689259529,-78.7210600000001,224.1832,80.7437400000002,0.8354186,0.08745678,0.704131,-26.66594,-14.74605,-49.44706
13.699119091,-81.5783999999999,220.6126,80.9276399999998,0.7983853,0.08326301,0.7113322,-26.66594,-14.74605,-49.44706
13.708977699,-84.4978400000003,218.0537,81.3567700000002,0.7531329,0.07693522,0.6879638,-26.66594,-14.74605,-49.44706
13.718836784,-88.8459500000002,216.566,81.29546,0.6844525,0.0679735,0.6663446,-16.62248,-11.23368,-53.31374
13.728696346,-94.9954399999999,213.293,81.3567700000002,0.6288052,0.0445672,0.6549603,-16.62248,-11.23368,-53.31374
13.738554954,-101.8282,210.139,81.6632799999997,0.578069,0.02169793,0.6454272,-16.62248,-11.23368,-53.31374
13.74841404,-108.1019,206.866,82.7054299999998,0.5265192,0.02119027,0.6317816,-16.62248,-11.23368,-53.31374
13.758273125,-112.3879,204.1881,83.44106,0.5076641,-0.02006127,0.5761151,-16.62248,-11.23368,-53.31374
13.768131733,-112.2015,201.5102,84.5445200000002,0.4908247,-0.06079043,0.5252162,-5.880674,-7.33167,-55.07526
13.777991295,-107.6671,199.0704,86.6901200000002,0.4106897,-0.08113901,0.4787458,-5.880674,-7.33167,-55.07526
13.78785038,-101.9524,196.0949,85.95449,0.3537073,-0.116238,0.4668026,-5.880674,-7.33167,-55.07526
13.797709465,-94.8711999999997,192.9409,86.2610000000001,0.2912223,-0.1295842,0.4292446,-5.880674,-7.33167,-55.07526
13.807568073,-88.4111499999997,189.7275,85.4027599999999,0.2549033,-0.119333,0.3939088,-5.880674,-7.33167,-55.07526
13.817427635,-84.99477,187.4066,83.3184599999997,0.2169991,-0.1052224,0.3533569,3.81127,-2.345839,-54.79356
13.82728672,-84.9326600000002,184.6692,81.7245800000001,0.1561843,-0.09541608,0.386892,3.81127,-2.345839,-54.79356
13.839610577,-89.2186500000001,180.5036,81.7245800000001,0.05844922,-0.1148059,0.3780581,3.81127,-2.345839,-54.79356
13.849469185,-93.81523,176.5165,81.6019700000002,0.01196743,-0.1274257,0.3666341,3.81127,-2.345839,-54.79356
13.859328747,-96.67256,172.3509,81.7245800000001,-0.0009722663,-0.1637301,0.3185922,3.81127,-2.345839,-54.79356
13.869187832,-97.66642,168.4828,83.07325,-0.05006637,-0.204601,0.3060086,13.46305,0.8853879,-52.76494
13.87904644,-96.4862100000001,162.1748,82.8280300000001,-0.1144924,-0.2121014,0.2747572,13.46305,0.8853879,-52.76494
13.888906002,-93.81523,157.5331,83.1345499999999,-0.1410539,-0.2166357,0.2961823,13.46305,0.8853879,-52.76494
13.898765087,-92.7592600000003,152.8319,82.4602099999998,-0.1860593,-0.2070518,0.2331711,13.46305,0.8853879,-52.76494
13.908624172,-90.3988599999999,148.4283,81.6632799999997,-0.2044624,-0.2071634,0.24685,13.46305,0.8853879,-52.76494
13.91848278,-88.5975000000002,145.7504,80.4372199999998,-0.2425284,-0.2216341,0.2410408,23.13128,3.404375,-49.00041
13.928342342,-84.99477,143.132,79.4563700000002,-0.2601858,-0.2379148,0.2234247,23.13128,3.404375,-49.00041
13.938201427,-78.7831800000002,141.7038,77.9851,-0.2888227,-0.2786291,0.2043213,23.13128,3.404375,-49.00041
13.948060513,-70.3975299999998,141.3467,76.94295,-0.3235537,-0.3087181,0.1782064,23.13128,3.404375,-49.00041
13.957919121,-60.5832200000001,141.4062,76.0234000000002,-0.3372512,-0.3195805,0.1687259,23.13128,3.404375,-49.00041
13.967778683,-50.45832,140.5136,75.4716700000001,-0.4071711,-0.2944495,0.1579546,29.87626,5.593479,-44.8969
13.977637768,-42.75595,139.3234,74.2456100000002,-0.4565846,-0.3095354,0.1446347,29.87626,5.593479,-44.8969
13.987496376,-35.5505,136.6455,72.28392,-0.4738759,-0.2863006,0.1527445,29.87626,5.593479,-44.8969
13.997355938,-30.51912,135.9314,72.1000100000002,-0.4677873,-0.2619101,0.1543011,29.87626,5.593479,-44.8969
14.009679794,-27.97236,134.2056,69.8931000000001,-0.503984,-0.2526005,0.127102,29.87626,5.593479,-44.8969
14.019538879,-24.68022,132.5989,68.9122499999999,-0.5520424,-0.2642879,0.1085204,36.27048,4.855082,-39.8011
14.029397488,-21.76077,130.8731,66.9505599999997,-0.5811164,-0.2665569,0.0911852,36.27048,4.855082,-39.8011
14.03925705,-18.77921,128.9689,65.54059,-0.5986445,-0.2492483,0.07672592,36.27048,4.855082,-39.8011
14.049116135,-18.28228,126.41,63.4562899999999,-0.6176086,-0.224132,0.07145777,36.27048,4.855082,-39.8011
14.05897522,-18.71709,124.7437,62.7819600000001,-0.6485536,-0.222135,0.02830852,36.27048,4.855082,-39.8011
14.068833828,-18.59286,121.0542,60.7589599999998,-0.680122,-0.2005163,0.02846169,41.48875,3.772897,-33.92723
14.07869339,-19.77306,118.8523,57.9390200000003,-0.7087491,-0.213534,-0.001429725,41.48875,3.772897,-33.92723
14.088552475,-17.90959,116.2934,55.05778,-0.7472362,-0.2354481,-0.04467328,41.48875,3.772897,-33.92723
14.098411083,-15.30072,114.1511,52.36045,-0.7831868,-0.2617088,-0.08511446,41.48875,3.772897,-33.92723
14.108270168,-10.82837,111.2352,50.76657,-0.8099913,-0.2640064,-0.1154206,41.48875,3.772897,-33.92723
14.11812973,-4.678895,108.7358,48.25315,-0.8059677,-0.2601697,-0.1398847,44.90272,1.227402,-28.86113
14.127988815,2.40232,107.0696,45.98494,-0.812593,-0.2262612,-0.1653809,44.90272,1.227402,-28.86113
14.137847424,8.05486800000002,105.2248,42.55197,-0.8302048,-0.1953061,-0.1739734,44.90272,1.227402,-28.86113
14.147706986,11.09855,103.499,39.119,-0.8067108,-0.1846238,-0.2355557,44.90272,1.227402,-28.86113
14.157566071,13.58318,101.1782,36.29906,-0.8353997,-0.1649479,-0.2412103,44.90272,1.227402,-28.86113
14.167424679,14.018,96.7150000000002,34.03085,-0.8837814,-0.1368281,-0.2843698,47.93894,-0.5774822,-23.80064
14.177283764,10.72585,89.9905000000002,31.70134,-0.8877091,-0.1213787,-0.3076642,47.93894,-0.5774822,-23.80064
14.189608097,5.94292600000003,82.0758100000002,29.00401,-0.8788772,-0.12924,-0.3485884,47.93894,-0.5774822,-23.80064
14.199467182,6.129274,75.5893300000003,26.49058,-0.9065991,-0.1394757,-0.4172844,47.93894,-0.5774822,-23.80064
14.20932579,7.99275200000001,68.6862999999999,22.7511,-0.9093609,-0.1508166,-0.4504055,47.93894,-0.5774822,-23.80064
14.219184876,8.80025999999999,61.8427699999998,19.25683,-0.9485959,-0.1492388,-0.4560626,50.97119,-2.762096,-19.56856
14.229044437,9.483534,55.59433,15.14953,-0.981884,-0.1311226,-0.4774784,50.97119,-2.762096,-19.56856
14.238903523,7.185245,48.33424,11.28744,-0.9866781,-0.1410378,-0.5148713,50.97119,-2.762096,-19.56856
14.248762131,5.694463,41.01464,7.793169,-0.9892099,-0.1640306,-0.5413852,50.97119,-2.762096,-19.56856
14.258621693,5.88081099999999,33.93308,4.850626,-0.9974972,-0.1763017,-0.5499963,50.97119,-2.762096,-19.56856
14.268480778,5.011188,26.0779,2.337202,-1.022071,-0.1527631,-0.5734074,50.99516,-3.831792,-17.06071
14.278339386,2.153856,16.67549,-0.1149176,-1.046488,-0.1194149,-0.5766115,50.99516,-3.831792,-17.06071
14.288198471,-1.945794,5.84486400000001,-1.708796,-1.054807,-0.1103484,-0.6046892,50.99516,-3.831792,-17.06071
14.298058033,-4.865242,-5.10478,-3.180068,-1.0637,-0.1479097,-0.6082339,50.99516,-3.831792,-17.06071
14.307917118,-5.05159,-15.51884,-4.896551,-1.056281,-0.187721,-0.6014876,50.99516,-3.831792,-17.06071
14.317775726,-2.629069,-25.04027,-6.85824700000003,-1.033911,-0.1766833,-0.5657733,51.00039,-4.193703,-16.60884
14.327634811,-2.070026,-33.37152,-9.24906400000001,-1.009042,-0.1387565,-0.5025533,51.00039,-4.193703,-16.60884
14.337494373,-3.250229,-39.61996,-11.33337,-0.9776768,-0.1300278,-0.4550067,51.00039,-4.193703,-16.60884
14.347352982,-4.057736,-44.02362,-13.60158,-0.9535549,-0.1550249,-0.4301639,51.00039,-4.193703,-16.60884
14.359676838,-2.566953,-48.5463,-15.56327,-0.9450631,-0.1923594,-0.4143073,51.00039,-4.193703,-16.60884
14.369535923,0.1040308,-52.65242,-16.48282,-0.9189315,-0.195489,-0.4022469,50.62068,-4.200969,-17.43909
14.379395485,3.147711,-56.5205,-17.89279,-0.9124467,-0.193444,-0.3913005,50.62068,-4.200969,-17.43909
14.389254093,6.129274,-60.7456299999998,-19.24145,-0.8943467,-0.1864485,-0.3852699,50.62068,-4.200969,-17.43909
14.399113178,8.551796,-65.0897799999997,-20.95794,-0.8835809,-0.1868404,-0.3854266,50.62068,-4.200969,-17.43909
14.40897274,11.40913,-69.4934499999998,-23.04224,-0.8670816,-0.1988016,-0.3699491,50.62068,-4.200969,-17.43909
14.418831825,14.70127,-74.4922,-24.94263,-0.854717,-0.2069546,-0.367319,50.59349,-3.137509,-20.39504
14.428690434,17.74495,-79.9670200000002,-26.53651,-0.8528807,-0.2001365,-0.3701628,50.59349,-3.137509,-20.39504
14.438549519,19.29785,-86.5129999999997,-28.98863,-0.8553437,-0.1684283,-0.3435041,50.59349,-3.137509,-20.39504
14.448409081,17.49649,-93.4755500000003,-31.44075,-0.8505971,-0.1430386,-0.3318567,50.59349,-3.137509,-20.39504
14.458267689,14.45281,-100.7356,-33.77026,-0.8612016,-0.1479712,-0.3245592,50.59349,-3.137509,-20.39504
14.468126774,11.78182,-109.543,-36.5289,-0.8687117,-0.1459972,-0.2995172,49.82561,-2.796367,-22.9555
14.477985859,9.23507000000002,-117.9932,-40.32968,-0.8328367,-0.1479401,-0.2535625,49.82561,-2.796367,-22.9555
14.487845421,6.129274,-124.6582,-43.39483,-0.8001801,-0.1562015,-0.1980313,49.82561,-2.796367,-22.9555
14.497704029,2.40232,-129.776,-46.03086,-0.7658795,-0.197952,-0.123159,49.82561,-2.796367,-22.9555
14.507563114,-0.579244300000001,-133.7036,-49.52513,-0.7372117,-0.2223811,-0.08735462,49.82561,-2.796367,-22.9555
14.517422676,-2.256374,-135.1913,-51.30292,-0.6763883,-0.2338675,-0.04998249,47.53886,-1.368263,-28.01609
14.529746533,-3.871388,-136.679,-53.63243,-0.6315751,-0.2289945,-0.0242241,47.53886,-1.368263,-28.01609
14.539605141,-4.244083,-139.3569,-56.14585,-0.635397,-0.2081445,-0.03501526,47.53886,-1.368263,-28.01609
14.549464226,-3.001765,-143.7011,-59.6401300000002,-0.5995924,-0.1801077,-0.03960174,47.53886,-1.368263,-28.01609
14.559323788,-0.4550124,-148.7594,-63.1957100000003,-0.5592719,-0.1627406,-0.04530103,47.53886,-1.368263,-28.01609
14.569182873,2.340204,-155.1268,-66.87389,-0.5208451,-0.1593963,-0.02281891,44.12172,0.05497074,-34.35115
14.579041481,6.68831799999999,-159.1734,-70.7359800000001,-0.4558912,-0.1738507,-0.008053071,44.12172,0.05497074,-34.35115
14.588900566,13.21049,-161.6728,-73.372,-0.4178582,-0.1895244,0.004690174,44.12172,0.05497074,-34.35115
14.598760128,19.85689,-164.5887,-75.8854200000003,-0.3809235,-0.1977823,0.05105562,44.12172,0.05497074,-34.35115
14.608618736,25.26097,-167.0286,-77.8471200000001,-0.3414672,-0.199297,0.07300286,44.12172,0.05497074,-34.35115
14.618477821,31.2241,-168.8139,-80.1153300000001,-0.3010854,-0.1925183,0.0983613,39.57657,3.338129,-40.25117
14.628337383,33.33605,-172.5034,-83.1804799999998,-0.2665227,-0.1822242,0.1664811,39.57657,3.338129,-40.25117
14.638196468,33.95721,-173.9316,-86.0617199999998,-0.218794,-0.1944187,0.1757611,39.57657,3.338129,-40.25117
14.648055077,35.07529,-175.5384,-89.0655700000002,-0.1708282,-0.2177748,0.1926107,39.57657,3.338129,-40.25117
14.657914162,36.62819,-176.8476,-92.0694200000001,-0.1462136,-0.2491135,0.2121218,39.57657,3.338129,-40.25117
14.667773724,40.85207,-178.5733,-95.1958699999998,-0.1243837,-0.2716472,0.2504357,33.23384,5.54305,-45.74647
14.677632332,45.20019,-180.7157,-97.8931999999998,-0.07577942,-0.2734745,0.2971683,33.23384,5.54305,-45.74647
14.687491417,48.43021,-181.9653,-97.95451,-0.009090947,-0.266493,0.3144863,33.23384,5.54305,-45.74647
14.697350502,51.78447,-182.4414,-98.3836300000001,0.04875711,-0.2537407,0.334375,33.23384,5.54305,-45.74647
14.709674835,55.44931,-183.9291,-98.87405,0.1127749,-0.2574508,0.3617041,33.23384,5.54305,-45.74647
14.71953392,59.8595400000002,-185.4169,-99.6709899999998,0.1174649,-0.2431713,0.3953017,24.97265,6.678303,-50.32428
14.729392528,63.83496,-189.2849,-101.5101,0.1291997,-0.2185225,0.4523672,24.97265,6.678303,-50.32428
14.739251614,65.5742000000002,-192.915,-103.2266,0.1664153,-0.2180474,0.4911352,24.97265,6.678303,-50.32428
14.749111175,64.3318899999997,-194.1052,-105.3109,0.2300452,-0.1896451,0.5182615,24.97265,6.678303,-50.32428
14.758969784,62.2199500000002,-196.069,-108.1308,0.3094058,-0.1853585,0.5655658,24.97265,6.678303,-50.32428
14.768828869,60.97763,-195.0573,-109.786,0.3923643,-0.2342088,0.5788263,15.29359,6.742587,-53.66711
14.778688431,65.6363199999997,-192.9745,-109.2343,0.4285508,-0.2975794,0.5935893,15.29359,6.742587,-53.66711
14.788547516,76.0096799999998,-191.3678,-107.5791,0.4425306,-0.3236066,0.6271936,15.29359,6.742587,-53.66711
14.798406124,87.7495899999999,-189.5825,-105.9239,0.4505293,-0.3040944,0.6210147,15.29359,6.742587,-53.66711
14.808265209,99.4894899999998,-189.88,-104.3913,0.4478026,-0.2441442,0.6531866,15.29359,6.742587,-53.66711
14.818124771,103.6513,-192.796,-102.4909,0.5058116,-0.2008057,0.783547,4.83449,4.26948,-54.80289
14.827983379,102.1605,-192.6769,-99.48708,0.5564545,-0.1706396,0.7926638,4.83449,4.26948,-54.80289
14.837842464,100.9182,-190.9512,-97.09626,0.6391666,-0.2014958,0.8036838,4.83449,4.26948,-54.80289
14.847701549,104.024,-188.7494,-94.95066,0.6709228,-0.19892,0.7668337,4.83449,4.26948,-54.80289
14.857561111,108.31,-189.761,-94.5828399999998,0.7027027,-0.1587438,0.7648031,4.83449,4.26948,-54.80289
14.86741972,114.4594,-190.2371,-93.8472100000001,0.7444509,-0.1330753,0.7634662,-4.427628,1.436832,-54.34068
14.877278805,119.8635,-191.0107,-92.9276599999998,0.7771049,-0.1175495,0.8038638,-4.427628,1.436832,-54.34068
14.889602661,124.0874,-191.6653,-90.3529400000003,0.8156267,-0.1111136,0.8718947,-4.427628,1.436832,-54.34068
14.899462223,123.7147,-190.7727,-86.4908399999999,0.8448287,-0.06744399,0.8991614,-4.427628,1.436832,-54.34068
14.909320831,121.3543,-189.2849,-83.6095999999999,0.8722574,-0.03266271,0.8961888,-4.427628,1.436832,-54.34068
14.919179916,120.112,-190.1181,-80.4831499999998,0.9088104,-0.02198864,0.9312187,-14.04022,-3.950715,-52.56985
14.929039478,118.3106,-192.4984,-77.1114899999999,0.9193855,0.003088067,0.975366,-14.04022,-3.950715,-52.56985
14.938898563,114.6458,-195.2358,-74.4754600000002,0.9489302,0.03220856,1.014964,-14.04022,-3.950715,-52.56985
14.948757172,105.639,-196.3665,-71.34901,0.9894934,0.06882084,1.079866,-14.04022,-3.950715,-52.56985
14.958616257,92.4082800000002,-197.3186,-68.28385,1.046537,0.08077268,1.14768,-14.04022,-3.950715,-52.56985
14.968475819,77.8731600000001,-196.0094,-63.9313399999999,1.089599,0.07055198,1.175252,-22.93911,-9.973001,-47.33892
14.978334427,65.6984399999998,-193.6291,-60.3757599999999,1.141849,0.02146022,1.196616,-22.93911,-9.973001,-47.33892
14.988193512,63.27592,-188.8684,-56.57498,1.172518,-0.01346192,1.154673,-22.93911,-9.973001,-47.33892
14.998053074,66.6301800000003,-185.0598,-53.93895,1.198266,0.01845137,1.16943,-22.93911,-9.973001,-47.33892
15.007912159,69.1148099999999,-180.6561,-53.26461,1.223499,0.0464473,1.178891,-22.93911,-9.973001,-47.33892
15.017770767,71.7236800000002,-175.2408,-50.75119,1.241553,0.09137608,1.179013,-29.90368,-15.701,-41.41696
15.027629852,69.98444,-169.3494,-50.75119,1.253846,0.1172432,1.17043,-29.90368,-15.701,-41.41696
15.037489414,68.2451900000001,-163.6961,-49.58644,1.263551,0.1049668,1.117956,-29.90368,-15.701,-41.41696
15.047348022,66.0711400000002,-158.6378,-46.39868,1.265875,0.08005397,1.087043,-29.90368,-15.701,-41.41696
15.059671879,63.4001499999998,-153.1035,-42.6592,1.253043,0.01985711,1.02586,-29.90368,-15.701,-41.41696
15.069530964,64.1455399999998,-148.8784,-40.08447,1.231036,-0.04429373,0.9700451,-36.19547,-18.4846,-35.01659
15.079390526,68.6178899999999,-144.5342,-38.24538,1.230655,-0.0810192,0.9098406,-36.19547,-18.4846,-35.01659
15.089249611,74.7673600000001,-142.2729,-37.20323,1.237685,-0.05139531,0.8774049,-36.19547,-18.4846,-35.01659
15.099108219,79.4260600000002,-138.5238,-37.32584,1.247822,-0.01157884,0.8306348,-36.19547,-18.4846,-35.01659
15.108967304,82.40762,-137.4527,-38.5519,1.226939,0.04659509,0.8213602,-36.19547,-18.4846,-35.01659
15.118826866,80.4820299999999,-136.2625,-42.29138,1.221929,0.109229,0.7960835,-40.98509,-22.01553,-28.1683
15.128685474,76.5066100000001,-134.1201,-44.92741,1.235488,0.1306574,0.7687567,-40.98509,-22.01553,-28.1683
15.13854456,68.0588499999998,-135.2508,-47.13432,1.235,0.1625233,0.8327662,-40.98509,-22.01553,-28.1683
15.148404121,57.7476000000001,-133.6441,-49.89295,1.268972,0.1609316,0.8471237,-40.98509,-22.01553,-28.1683
15.158263207,49.36195,-130.1331,-48.54428,1.319697,0.1171812,0.8690331,-40.98509,-22.01553,-28.1683
15.168121815,45.44865,-125.7889,-45.54044,1.302717,0.07912322,0.8818923,-43.9129,-24.40312,-21.40564
15.1779809,46.62885,-121.8018,-42.29138,1.291215,0.07114056,0.8565912,-43.9129,-24.40312,-21.40564
15.187840462,49.61042,-116.3865,-39.16492,1.296776,0.1124684,0.8343384,-43.9129,-24.40312,-21.40564
15.19769907,52.90256,-111.3282,-35.85456,1.273368,0.1519105,0.7669585,-43.9129,-24.40312,-21.40564
15.207558155,55.44931,-106.746,-34.19938,1.237207,0.1840416,0.7265339,-43.9129,-24.40312,-21.40564
15.21741724,58.9277999999997,-104.1276,-34.32199,1.178925,0.2324119,0.6568514,-45.65362,-27.97553,-15.02123
15.227276802,61.6608999999999,-101.9853,-36.16108,1.161058,0.223883,0.630678,-45.65362,-27.97553,-15.02123
15.239600658,66.5059400000001,-99.5454599999997,-37.20323,1.107687,0.230585,0.5974721,-45.65362,-27.97553,-15.02123
15.249459267,70.1086699999998,-97.7006799999998,-37.93887,1.084999,0.2557206,0.606154,-45.65362,-27.97553,-15.02123
15.259318352,70.8540599999998,-96.8675499999998,-37.57105,1.06364,0.2754592,0.5999162,-45.65362,-27.97553,-15.02123
15.269177914,67.7482599999998,-96.6295199999999,-36.5902,1.07503,0.2874509,0.6564006,-46.35072,-29.35752,-9.113011
15.279036522,60.8534000000002,-94.4276899999997,-34.01548,1.075868,0.2860902,0.6808164,-46.35072,-29.35752,-9.113011
15.288895607,53.15102,-90.2025499999999,-30.4599,1.080671,0.2375559,0.7033399,-46.35072,-29.35752,-9.113011
15.298755169,47.49847,-85.6203700000002,-27.27214,1.049528,0.1959615,0.7149335,-46.35072,-29.35752,-9.113011
15.308614254,43.52306,-81.8118000000002,-25.00393,1.039765,0.1696516,0.7292266,-46.35072,-29.35752,-9.113011
15.318472862,38.49167,-78.12225,-22.184,1.051876,0.1625379,0.7500787,-46.67006,-31.48013,-3.199185
15.328331947,31.2241,-73.4210400000001,-18.87363,1.072746,0.1478124,0.7966185,-46.67006,-31.48013,-3.199185
15.338191509,24.76405,-66.6370199999999,-15.13415,1.096339,0.09705898,0.8317939,-46.67006,-31.48013,-3.199185
15.348050118,22.77634,-58.9008600000002,-11.33337,1.109818,0.05833004,0.8533182,-46.67006,-31.48013,-3.199185
15.357909203,23.95654,-50.21255,-9.37167100000003,1.133412,0.06345256,0.8659635,-46.67006,-31.48013,-3.199185
15.367768765,25.69579,-41.16719,-6.79694399999997,1.138936,0.09478761,0.904006,-46.25995,-32.53009,1.035106
15.37762785,24.45347,-32.06233,-3.180068,1.152321,0.1100899,0.9303003,-46.25995,-32.53009,1.035106
15.387486458,23.64596,-20.16054,1.846778,1.193931,0.05033179,0.9871861,-46.25995,-32.53009,1.035106
15.397345543,23.64596,-8.199244,4.850626,1.15714,0.06475982,1.028564,-46.25995,-32.53009,1.035106
15.409669399,17.06167,4.41665,9.264441,1.140054,0.0766888,1.005907,-45.87103,-32.505,3.14563
15.419528961,8.42756399999998,13.46201,12.4522,1.147044,0.1277834,0.9894663,-45.87103,-32.505,3.14563
15.429388046,-1.014056,22.56688,14.90432,1.155722,0.1384307,0.9534926,-45.87103,-32.505,3.14563
15.439246655,-9.46182000000001,31.07665,16.80471,1.1507,0.1207743,0.9284967,-45.87103,-32.505,3.14563
15.449106217,-12.87819,39.52692,18.52119,1.144958,0.1176942,0.8993214,-45.87103,-32.505,3.14563
15.458965302,-14.8659,47.44161,19.68595,1.157296,0.1271099,0.9155178,-45.87103,-32.505,3.14563
15.46882391,-17.599,57.02255,21.40244,1.157566,0.1286513,0.9366118,-46.23954,-32.86259,3.599429
15.478682995,-19.33825,65.8893799999999,22.44459,1.16282,0.1107337,0.9474072,-46.23954,-32.86259,3.599429
15.488542557,-20.33211,74.5776799999997,22.56719,1.172129,0.1391373,0.9733911,-46.23954,-32.86259,3.599429
15.498401642,-25.61196,81.4807199999998,22.87371,1.187895,0.2021538,1.001013,-46.23954,-32.86259,3.599429
15.50826025,-36.04743,87.8481799999999,24.09977,1.22251,0.2546681,1.03834,-46.23954,-32.86259,3.599429
15.518119812,-48.53273,94.7512100000002,25.38713,1.266982,0.2667674,1.045475,-47.01539,-32.16489,0.2030191
15.527978897,-58.7197400000003,102.4279,26.98101,1.297741,0.2359118,1.049569,-47.01539,-32.16489,0.2030191
15.537837505,-65.1797899999997,111.3542,28.57489,1.323692,0.2001548,1.055606,-47.01539,-32.16489,0.2030191
15.547696591,-67.7265500000002,120.1615,30.16876,1.348611,0.1881616,1.04269,-47.01539,-32.16489,0.2030191
15.557556152,-67.9129000000002,129.0879,31.57873,1.369454,0.1931754,1.032852,-47.01539,-32.16489,0.2030191
15.567415237,-67.8507800000001,137.4786,32.62088,1.397201,0.209983,1.03739,-47.06099,-31.13707,-5.313479
15.579739094,-68.6582900000001,147.6546,33.78564,1.427368,0.2106937,1.025944,-47.06099,-31.13707,-5.313479
15.589597702,-69.8384899999997,155.6288,34.21476,1.450413,0.2016362,1.021706,-47.06099,-31.13707,-5.313479
15.599457264,-69.4036800000001,162.9485,34.33737,1.471446,0.1988925,1.018987,-47.06099,-31.13707,-5.313479
15.609316349,-69.0930900000001,169.3159,33.78564,1.499059,0.2176148,1.015397,-46.00011,-30.1507,-12.88422
15.619174957,-70.5838800000003,175.5048,33.47913,1.530047,0.2339121,1.005988,-46.00011,-30.1507,-12.88422
15.629034042,-73.6275600000002,179.7895,33.72434,1.542526,0.2539738,1.00598,-46.00011,-30.1507,-12.88422
15.638893604,-77.7893200000003,183.479,33.23391,1.565608,0.2687146,0.9894822,-46.00011,-30.1507,-12.88422
15.648752689,-81.2678099999998,187.1091,33.05,1.583868,0.28685,0.9812285,-46.00011,-30.1507,-12.88422
15.658611298,-85.3053499999997,190.7391,32.19176,1.586529,0.2775213,0.9528391,-46.00011,-30.1507,-12.88422
15.668470859,-87.4794099999998,194.1906,31.88525,1.577377,0.2968735,0.9445073,-44.95046,-28.81401,-21.739
15.678329945,-90.8957799999999,197.8207,31.27222,1.567071,0.3040967,0.9485487,-44.95046,-28.81401,-21.739
15.68818903,-94.62274,201.9863,30.65919,1.545103,0.279015,0.9299614,-44.95046,-28.81401,-21.739
15.698047638,-95.6165899999997,207.1636,29.67834,1.532548,0.2301265,0.899059,-44.95046,-28.81401,-21.739
15.7079072,-92.5729099999998,212.3409,30.04616,1.498007,0.1703098,0.8607105,-44.95046,-28.81401,-21.739
15.717766285,-85.80228,216.923,32.8661,1.415912,0.1398255,0.8410177,-42.48067,-25.28587,-30.68783
15.727624893,-81.0193599999998,219.3034,35.93124,1.326415,0.1434337,0.8466365,-42.48067,-25.28587,-30.68783
15.737484455,-76.1743099999999,219.4224,38.38337,1.282228,0.1600858,0.8498028,-42.48067,-25.28587,-30.68783
15.74734354,-76.3606599999998,218.7678,39.91594,1.257879,0.1652712,0.8626528,-42.48067,-25.28587,-30.68783
15.759667396,-80.2739600000002,218.7083,42.18415,1.221986,0.1732028,0.8565225,-36.20684,-22.53702,-39.58473
15.769526482,-85.5538200000003,218.7083,43.83933,1.172789,0.1459729,0.8483683,-36.20684,-22.53702,-39.58473
15.77938509,-89.0944200000002,218.3513,47.08839,1.113303,0.09925377,0.8579267,-36.20684,-22.53702,-39.58473
15.789244652,-88.4732699999998,218.2918,49.84703,1.054751,0.0997531,0.8697869,-36.20684,-22.53702,-39.58473
15.799103737,-86.6718999999998,219.1249,50.88918,1.030855,0.1119029,0.9219836,-36.20684,-22.53702,-39.58473
15.808962345,-85.6159300000001,219.5414,51.257,0.9885423,0.1178081,0.9096981,-29.16806,-19.08087,-45.54778
15.818821907,-85.4295800000002,219.0654,52.36045,0.951577,0.1243747,0.9313651,-29.16806,-19.08087,-45.54778
15.828680992,-90.5852099999998,218.2918,53.15739,0.9105173,0.1181612,0.9285435,-29.16806,-19.08087,-45.54778
15.838540077,-96.4862100000001,217.6967,57.14208,0.8722751,0.08167012,0.8904446,-29.16806,-19.08087,-45.54778
15.848398685,-99.5298999999998,215.6139,61.9850200000003,0.8126521,0.05528206,0.8719038,-29.16806,-19.08087,-45.54778
15.858258247,-101.3313,213.174,64.1919299999998,0.7687353,0.05674129,0.8457068,-20.32773,-14.84883,-51.59235
15.868117332,-101.2691,211.5672,67.5022899999998,0.7320408,0.06395609,0.7801611,-20.32773,-14.84883,-51.59235
15.877976894,-101.0828,209.3059,69.2800799999998,0.6919545,0.07128499,0.7530007,-20.32773,-14.84883,-51.59235
15.887835503,-100.8964,206.628,69.0961600000003,0.6631704,0.06275178,0.7514222,-20.32773,-14.84883,-51.59235
15.897694588,-103.0705,205.8544,69.7091900000002,0.6401455,0.05974453,0.7823938,-20.32773,-14.84883,-51.59235
15.907553673,-105.9278,206.271,70.2609199999998,0.5758145,0.02381895,0.6972308,-20.32773,-14.84883,-51.59235
15.917412281,-108.3504,204.3072,71.9774000000002,0.5500925,0.02155968,0.6745766,-11.08607,-10.56764,-53.79803
15.929736137,-109.5306,203.7716,73.8778000000002,0.5005613,-0.02871216,0.6216673,-11.08607,-10.56764,-53.79803
15.939595699,-107.3565,203.0575,75.2877699999999,0.4347883,-0.06890232,0.5705119,-11.08607,-10.56764,-53.79803
15.949454784,-104.2507,200.4986,77.0655500000002,0.3552487,-0.08775158,0.5331506,-11.08607,-10.56764,-53.79803
15.959314346,-101.704,195.3213,77.1881600000002,0.293155,-0.06645733,0.5188809,-0.6534023,-5.97552,-54.73267
15.969172955,-101.3313,191.0962,76.82034,0.2959697,-0.0936712,0.5219655,-0.6534023,-5.97552,-54.73267
15.97903204,-101.5176,187.0496,77.6785800000002,0.2553643,-0.101355,0.5152914,-0.6534023,-5.97552,-54.73267
15.988891125,-102.5115,183.479,78.35291,0.1929114,-0.09822754,0.458704,-0.6534023,-5.97552,-54.73267
15.998749733,-106.4248,180.2655,78.7820399999998,0.1496861,-0.1087768,0.4726486,-0.6534023,-5.97552,-54.73267
16.008609295,-110.835,177.1116,80.1920100000001,0.0801771,-0.1352807,0.4465804,10.10556,-1.296233,-53.55711
16.01846838,-113.3817,172.5889,81.78588,0.03452214,-0.1576995,0.4154147,10.10556,-1.296233,-53.55711
16.028327942,-114.8725,168.0067,82.8893400000002,-0.002914832,-0.1532203,0.4006517,10.10556,-1.296233,-53.55711
16.03818655,-116.1148,164.0791,83.3184599999997,-0.03082229,-0.1767737,0.4142683,10.10556,-1.296233,-53.55711
16.048045635,-115.8043,160.9251,85.1575500000002,-0.07773552,-0.2080692,0.3547729,10.10556,-1.296233,-53.55711
16.05790472,-112.8848,157.3546,86.7514299999998,-0.1158563,-0.2119496,0.3183851,18.32747,1.956883,-51.13701
16.067764282,-106.7353,155.1528,88.1613899999998,-0.1344638,-0.2355544,0.2964079,18.32747,1.956883,-51.13701
16.07762289,-99.1571999999999,152.6534,88.1613899999998,-0.173774,-0.2414566,0.2427688,18.32747,1.956883,-51.13701
16.087481976,-87.04459,152.1178,87.7935799999998,-0.1915448,-0.2471639,0.190262,18.32747,1.956883,-51.13701
16.097341537,-72.3231300000002,151.7013,86.0771,-0.1940331,-0.2584268,0.177264,18.32747,1.956883,-51.13701
16.109665394,-54.06105,153.189,84.1153899999998,-0.2756997,-0.273301,0.1668017,26.50998,4.510954,-46.08447
16.119524002,-41.63786,152.6534,81.6632799999997,-0.3441637,-0.2812246,0.1619602,26.50998,4.510954,-46.08447
16.129383087,-32.07201,151.9393,80.00809,-0.3845061,-0.270416,0.1549592,26.50998,4.510954,-46.08447
16.139242172,-27.7239,150.5111,79.5789699999999,-0.4386325,-0.2412007,0.157894,26.50998,4.510954,-46.08447
16.149101734,-28.46929,146.762,78.5368300000001,-0.4649483,-0.2176181,0.1503217,26.50998,4.510954,-46.08447
16.158960342,-31.6372,143.489,77.9851,-0.5216152,-0.2084688,0.1286841,34.01489,5.599456,-41.07732
16.168819428,-34.99146,137.5976,76.6364300000001,-0.5582519,-0.2011023,0.1033917,34.01489,5.599456,-41.07732
16.178678989,-38.71841,132.4799,74.6134299999999,-0.5678332,-0.193943,0.08873351,34.01489,5.599456,-41.07732
16.188538075,-43.06653,127.3621,73.0808599999998,-0.6056544,-0.193344,0.07825602,34.01489,5.599456,-41.07732
16.198396683,-46.73137,122.1253,70.8126400000002,-0.6407349,-0.191798,0.05432988,34.01489,5.599456,-41.07732
16.208255768,-49.40235,116.6505,68.36053,-0.6314997,-0.2127263,0.03149926,39.97665,4.12891,-36.03574
16.21811533,-48.59484,112.9609,66.3988300000002,-0.6369718,-0.2264703,0.01277248,39.97665,4.12891,-36.03574
16.227973938,-44.93001,111.1162,63.7015000000001,-0.6350456,-0.2640552,-0.02255373,39.97665,4.12891,-36.03574
16.237833023,-40.14708,108.8548,60.7589599999998,-0.663202,-0.2974442,-0.03585179,39.97665,4.12891,-36.03574
16.247692585,-33.43856,108.7358,58.18423,-0.6684971,-0.3277373,-0.05615836,39.97665,4.12891,-36.03574
16.25755167,-25.98465,109.926,56.52905,-0.6860119,-0.3363009,-0.09240015,43.76033,2.315393,-30.97911
16.267410278,-17.41266,110.6401,55.11908,-0.718382,-0.3235638,-0.1229793,43.76033,2.315393,-30.97911
16.277269363,-8.21950099999998,110.3426,52.29914,-0.7552332,-0.2942883,-0.1447294,43.76033,2.315393,-30.97911
16.28959322,1.532697,107.8432,48.68227,-0.8001775,-0.2662697,-0.2229202,43.76033,2.315393,-30.97911
16.299452782,8.36544800000002,104.5702,46.53666,-0.80563,-0.2327852,-0.2345399,43.76033,2.315393,-30.97911
16.30931139,11.96817,100.8211,44.63627,-0.8308415,-0.2083168,-0.2679972,46.42483,0.146677,-25.91291
16.319170475,15.13608,96.0008999999997,42.24545,-0.8445083,-0.1948942,-0.2897324,46.42483,0.146677,-25.91291
16.329030037,17.68283,91.5377300000001,38.56728,-0.8244966,-0.1792413,-0.3152831,46.42483,0.146677,-25.91291
16.338889122,17.5586,87.3126,35.13431,-0.8400776,-0.1638711,-0.3321824,46.42483,0.146677,-25.91291
16.34874773,15.26031,81.7187599999999,31.88525,-0.8817173,-0.1443739,-0.3549052,46.42483,0.146677,-25.91291
16.358606815,10.60162,75.2917899999999,29.06531,-0.9153998,-0.132582,-0.3749312,48.7056,-1.293009,-21.68451
16.368466377,5.632347,68.5672800000002,26.00016,-0.9304139,-0.1259733,-0.3938294,48.7056,-1.293009,-21.68451
16.378325462,1.656929,61.9617900000002,22.56719,-0.9520571,-0.1432858,-0.417627,48.7056,-1.293009,-21.68451
16.388184071,-0.5171283,55.17777,19.13422,-0.9805338,-0.1645604,-0.4437567,48.7056,-1.293009,-21.68451
16.398043633,-1.014056,48.15572,16.80471,-1.012398,-0.1713434,-0.4903214,48.7056,-1.293009,-21.68451
16.407902718,-0.4550124,40.36005,14.96562,-1.028199,-0.1715238,-0.5011193,50.9832,-3.854957,-18.72507
16.417761803,-0.579244300000001,31.96929,13.55565,-1.032483,-0.1584819,-0.5167617,50.9832,-3.854957,-18.72507
16.427620411,0.3524944,24.0546,12.32959,-1.003675,-0.147501,-0.5113292,50.9832,-3.854957,-18.72507
16.437479973,2.215972,17.09205,11.04223,-0.9783484,-0.1438896,-0.5164517,50.9832,-3.854957,-18.72507
16.447339058,4.700608,10.84361,9.81616800000001,-0.9755426,-0.13853,-0.5212384,50.9832,-3.854957,-18.72507
16.459662914,6.93678100000001,2.750399,7.97707799999999,-0.99626,-0.1343669,-0.5300128,50.62666,-4.189387,-16.60691
16.469521523,7.30947700000003,-4.5692,6.01538200000003,-1.032806,-0.1356276,-0.5203978,50.62666,-4.189387,-16.60691
16.479381085,5.694463,-12.18634,2.950232,-1.038152,-0.1302947,-0.5130886,50.62666,-4.189387,-16.60691
16.48924017,3.271943,-20.39858,0.007688423,-1.023034,-0.1324797,-0.4826538,50.62666,-4.189387,-16.60691
16.499099255,-0.1444329,-27.2421,-2.383129,-1.014304,-0.1459583,-0.4642031,50.62666,-4.189387,-16.60691
16.508957863,-1.262519,-33.07398,-4.528733,-1.011299,-0.1726298,-0.4467407,50.99842,-4.941581,-17.43348
16.518817425,0.1040308,-38.60831,-6.24521700000002,-1.008631,-0.1847505,-0.4411306,50.99842,-4.941581,-17.43348
16.52867651,2.588667,-43.42854,-8.39082200000002,-0.9823107,-0.1620853,-0.4283761,50.99842,-4.941581,-17.43348
16.538536072,3.893102,-48.42728,-10.41382,-0.9516577,-0.1379365,-0.4195044,50.99842,-4.941581,-17.43348
16.54839468,4.265797,-53.48554,-12.74334,-0.935448,-0.1260572,-0.4043008,50.99842,-4.941581,-17.43348
16.558253765,3.893102,-58.1272400000001,-14.39852,-0.92938,-0.1279017,-0.3914645,50.62148,-4.943501,-17.87965
16.56811285,3.76887,-63.3640299999999,-15.93109,-0.9197495,-0.1326059,-0.3710358,50.62148,-4.943501,-17.87965
16.577971458,5.011188,-67.7081799999998,-17.77018,-0.907956,-0.1513925,-0.3478817,50.62148,-4.943501,-17.87965
16.58783102,7.620056,-72.0523300000002,-19.36406,-0.9025332,-0.1829325,-0.3367244,50.62148,-4.943501,-17.87965
16.597690105,11.16066,-76.1584500000003,-21.38706,-0.8761883,-0.1913717,-0.3136903,50.62148,-4.943501,-17.87965
16.607549667,13.39684,-80.26456,-22.61312,-0.8625944,-0.1926094,-0.2865801,50.5983,-4.616337,-20.82805
16.617408276,13.02414,-85.3228200000001,-23.22615,-0.8487074,-0.1855988,-0.2665925,50.5983,-4.616337,-20.82805
16.627267361,12.52721,-89.7860000000001,-23.96178,-0.8152547,-0.1857388,-0.2531737,50.5983,-4.616337,-20.82805
16.639591217,11.53336,-95.0822900000001,-25.00393,-0.8331565,-0.1951189,-0.2467681,50.5983,-4.616337,-20.82805
16.649450302,11.22278,-100.9142,-26.59781,-0.8477098,-0.1893553,-0.2326153,50.5983,-4.616337,-20.82805
16.659309864,11.47124,-106.8651,-28.55951,-0.7929499,-0.1872785,-0.1974382,49.44273,-3.925894,-25.05471
16.669168472,11.71971,-110.9712,-29.78557,-0.7598929,-0.1859316,-0.1758548,49.44273,-3.925894,-25.05471
16.679027557,10.9122,-116.208,-32.05378,-0.7423667,-0.1783411,-0.1396214,49.44273,-3.925894,-25.05471
16.688887119,10.47739,-120.5521,-33.77026,-0.6996625,-0.1798758,-0.130659,49.44273,-3.925894,-25.05471
16.698745727,9.98046100000001,-125.2533,-35.79326,-0.6957746,-0.148602,-0.1050529,49.44273,-3.925894,-25.05471
16.708604813,7.12312899999999,-130.6686,-38.5519,-0.6740903,-0.1386011,-0.084672,46.785,-2.488129,-29.72928
16.718463898,4.638493,-135.8459,-41.06532,-0.6271135,-0.1605043,-0.06731682,46.785,-2.488129,-29.72928
16.72832346,3.582522,-140.7852,-42.7818,-0.6135056,-0.1871257,-0.06150584,46.785,-2.488129,-29.72928
16.738182068,4.265797,-146.379,-44.92741,-0.6065078,-0.1865343,-0.0500998,46.785,-2.488129,-29.72928
16.748041153,6.31562199999998,-152.6869,-47.68604,-0.5521001,-0.1756347,0.002887078,46.785,-2.488129,-29.72928
16.757900715,7.99275200000001,-157.3881,-50.38337,-0.5190749,-0.1694146,0.02642886,43.37309,-1.426805,-35.61248
16.7677598,10.72585,-161.9108,-52.83549,-0.4685315,-0.1653708,0.07701696,43.37309,-1.426805,-35.61248
16.777618408,12.15452,-164.0531,-54.61328,-0.4015326,-0.1982002,0.1179546,43.37309,-1.426805,-35.61248
16.787477493,16.50263,-164.4102,-55.71674,-0.3558758,-0.2391151,0.1294177,43.37309,-1.426805,-35.61248
16.797337055,23.95654,-164.2317,-57.6784299999998,-0.3328495,-0.281107,0.1665919,43.37309,-1.426805,-35.61248
16.809660912,34.88894,-163.8746,-59.8853399999999,-0.3228297,-0.282906,0.1822475,39.58744,-0.3611665,-41.49374
16.81951952,41.65958,-165.0648,-61.2953100000003,-0.2964024,-0.2883924,0.2139309,39.58744,-0.3611665,-41.49374
16.829378605,46.56674,-168.5163,-62.8891899999998,-0.3170201,-0.2770952,0.2905128,39.58744,-0.3611665,-41.49374
16.839238167,47.56059,-171.8488,-65.0961,-0.2928592,-0.263023,0.3525831,39.58744,-0.3611665,-41.49374
16.849097252,46.4425,-173.8721,-66.75128,-0.2328891,-0.2482535,0.3863554,39.58744,-0.3611665,-41.49374
16.85895586,42.46709,-174.7052,-69.3260000000001,-0.1818584,-0.2627585,0.4204873,32.87822,1.118013,-46.53147
16.868814945,39.98245,-174.5862,-70.3068500000003,-0.1566836,-0.2863962,0.4160954,32.87822,1.118013,-46.53147
16.878674507,41.16265,-176.0144,-71.1650899999999,-0.1266566,-0.2798669,0.3994297,32.87822,1.118013,-46.53147
16.888533592,44.88961,-178.1568,-72.32985,-0.05037362,-0.2724997,0.3672567,32.87822,1.118013,-46.53147
16.8983922,53.64795,-181.5488,-72.32985,-0.007119286,-0.2555952,0.3610325,32.87822,1.118013,-46.53147
16.908251762,66.0711400000002,-186.0119,-72.5750699999999,0.03050335,-0.2695157,0.4528643,25.36328,1.870249,-51.55747
16.918110847,79.9229800000001,-188.0352,-71.9007299999999,0.05503834,-0.2968361,0.5059544,25.36328,1.870249,-51.55747
16.927969933,92.71886,-188.9874,-70.1229399999999,0.08021081,-0.2734694,0.5786312,25.36328,1.870249,-51.55747
16.937828541,96.9427400000001,-188.9279,-68.0999499999999,0.1155618,-0.2334391,0.6589707,25.36328,1.870249,-51.55747
16.947688103,95.3898499999998,-189.2254,-65.0961,0.1573195,-0.2386088,0.7388374,25.36328,1.870249,-51.55747
16.957547188,91.3523099999999,-188.9279,-60.3757599999999,0.1714783,-0.2028505,0.7681686,16.43967,1.569335,-54.06821
16.96740675,84.5816800000001,-188.6303,-57.9849500000002,0.2359268,-0.150562,0.8045896,16.43967,1.569335,-54.06821
16.979729652,74.6431299999997,-187.6782,-56.75888,0.3414476,-0.1234381,0.7812714,16.43967,1.569335,-54.06821
16.989589214,71.9721500000002,-185.4169,-55.28761,0.3894373,-0.1538929,0.721868,16.43967,1.569335,-54.06821
16.999448299,75.8233299999999,-186.1905,-55.0424,0.3972443,-0.1792171,0.6980623,16.43967,1.569335,-54.06821
17.009307384,82.9045499999997,-188.9279,-55.28761,0.396396,-0.1633476,0.6498092,7.109783,-2.389311,-55.19471
17.019165993,84.9543700000003,-193.4506,-55.59413,0.4197429,-0.1482607,0.7248381,7.109783,-2.389311,-55.19471
17.029025555,81.60011,-196.664,-56.94279,0.4173612,-0.1304175,0.8170289,7.109783,-2.389311,-55.19471
17.03888464,74.2083200000001,-196.8426,-56.82019,0.4375636,-0.1767978,0.8585191,7.109783,-2.389311,-55.19471
17.048744202,70.6056000000001,-197.1401,-56.57498,0.4792101,-0.2133809,0.8667216,7.109783,-2.389311,-55.19471
17.05860281,70.1086699999998,-196.9021,-55.77804,0.5444553,-0.1990821,0.8922682,-2.147106,-5.58387,-54.28062
17.068461895,69.4253900000002,-196.307,-54.24546,0.6001847,-0.1562585,0.890877,-2.147106,-5.58387,-54.28062
17.07832098,66.3817100000003,-196.9616,-52.9581,0.6403738,-0.1223292,0.8901114,-2.147106,-5.58387,-54.28062
17.088180542,62.7789899999997,-197.2591,-51.24162,0.6779532,-0.08944464,0.8764358,-2.147106,-5.58387,-54.28062
17.09803915,56.00835,-198.8659,-51.85464,0.6887751,-0.06101514,0.9057526,-2.147106,-5.58387,-54.28062
17.107898235,48.49233,-201.3057,-53.20331,0.7051247,-0.02517278,0.9523044,-11.45863,-9.072918,-52.5309
17.117757797,36.00703,-201.1867,-53.14201,0.7378124,-0.07598373,1.080314,-11.45863,-9.072918,-52.5309
17.127616882,28.36677,-196.188,-52.28377,0.7336349,-0.1640572,1.091131,-11.45863,-9.072918,-52.5309
17.137475491,27.3108,-190.8917,-52.8968,0.7507146,-0.1671999,1.121051,-11.45863,-9.072918,-52.5309
17.147334576,25.38521,-185.9524,-53.08071,0.7968336,-0.131737,1.125964,-11.45863,-9.072918,-52.5309
17.159658432,22.34153,-180.4181,-52.34507,0.838672,-0.1159424,1.086686,-20.69192,-11.47773,-47.78353
17.169517994,19.85689,-177.2046,-50.9964,0.8589346,-0.1165997,0.993427,-20.69192,-11.47773,-47.78353
17.179376602,17.86918,-177.9187,-48.8508,0.8619137,-0.1018317,0.9019821,-20.69192,-11.47773,-47.78353
17.189235687,15.38455,-181.0727,-48.36037,0.868332,-0.1442343,0.8689472,-20.69192,-11.47773,-47.78353
17.199095249,16.75109,-183.6911,-48.23777,0.8953489,-0.1571463,0.8655779,-20.69192,-11.47773,-47.78353
17.208954334,20.35382,-183.334,-48.42168,0.9513945,-0.1546202,0.887802,-29.25051,-13.16663,-43.94343
17.218812943,23.21115,-181.4297,-48.48298,1.007814,-0.1632167,0.9276573,-29.25051,-13.16663,-43.94343
17.228672028,30.97564,-177.6212,-48.60559,1.083672,-0.1517946,0.939611,-29.25051,-13.16663,-43.94343
17.23853159,39.36129,-171.1347,-48.9734,1.115975,-0.1057456,0.9452896,-29.25051,-13.16663,-43.94343
17.248390675,46.19404,-165.0053,-50.26077,1.110427,-0.09718803,0.9047089,-29.25051,-13.16663,-43.94343
17.258249283,53.64795,-162.8035,-50.13816,1.076772,-0.06808233,0.8301999,-35.11552,-14.85706,-38.00473
17.268108845,56.75375,-163.5771,-49.83165,1.034171,-0.01698974,0.8005695,-35.11552,-14.85706,-38.00473
17.27796793,50.41792,-168.3973,-49.52513,1.031388,0.03233866,0.855175,-35.11552,-14.85706,-38.00473
17.287827015,38.49167,-171.0157,-47.74734,1.099825,0.04855449,0.8653581,-35.11552,-14.85706,-38.00473
17.297685623,28.80158,-169.3494,-44.6822,1.216175,-0.01887069,0.9072171,-35.11552,-14.85706,-38.00473
17.307545185,31.2241,-165.3028,-41.00402,1.272051,-0.07728627,0.8992189,-40.65984,-17.64929,-31.60822
17.31740427,43.46094,-159.59,-37.63235,1.318496,-0.08859978,0.8869607,-40.65984,-17.64929,-31.60822
17.327262878,60.23224,-153.044,-37.08062,1.338633,-0.05986439,0.8461843,-40.65984,-17.64929,-31.60822
17.339586735,80.7304900000002,-146.7955,-36.83541,1.320168,0.02246434,0.7843671,-40.65984,-17.64929,-31.60822
17.349446297,87.3147700000001,-144.7722,-37.32584,1.277739,0.1276643,0.7791509,-40.65984,-17.64929,-31.60822
17.359305382,78.8048899999998,-148.2833,-37.75496,1.223795,0.2559062,0.8466523,-45.0818,-18.96407,-23.95231
17.369164467,52.84044,-149.5925,-37.75496,1.255542,0.2929257,0.9112042,-45.0818,-18.96407,-23.95231
17.379023075,21.34767,-148.5808,-34.93502,1.286937,0.192082,0.9362617,-45.0818,-18.96407,-23.95231
17.388882637,0.600958099999998,-143.225,-33.46375,1.278952,0.02686454,0.8870611,-45.0818,-18.96407,-23.95231
17.398741722,-3.871388,-137.2741,-33.21854,1.259987,-0.1165405,0.8410765,-45.0818,-18.96407,-23.95231
17.408601284,4.762724,-130.7876,-35.18023,1.241883,-0.2072417,0.8329018,-47.19308,-22.09196,-16.8022
17.418459892,19.4842,-124.0036,-36.46759,1.262145,-0.1856589,0.8308784,-47.19308,-22.09196,-16.8022
17.428318977,31.47257,-117.8147,-36.89672,1.28939,-0.116754,0.8444892,-47.19308,-22.09196,-16.8022
17.438178063,40.04457,-111.3877,-36.16108,1.304068,-0.0615889,0.8572047,-47.19308,-22.09196,-16.8022
17.448037624,45.32442,-105.7344,-34.81241,1.306167,-0.0191905,0.8690335,-47.19308,-22.09196,-16.8022
17.457896233,45.75923,-100.3786,-33.27984,1.302401,0.02608686,0.8838452,-49.76037,-23.08334,-10.82409
17.467755318,39.29918,-95.79639,-29.84687,1.277355,0.07967816,0.9598888,-49.76037,-23.08334,-10.82409
17.47761488,26.81387,-89.2504099999999,-26.47521,1.257964,0.04809073,1.016923,-49.76037,-23.08334,-10.82409
17.487473488,17.86918,-79.8479999999999,-22.49051,1.226713,-0.008045902,1.04373,-49.76037,-23.08334,-10.82409
17.497332573,12.65145,-70.1480500000001,-20.46751,1.201963,-0.04810974,1.059079,-49.76037,-23.08334,-10.82409
17.509656429,11.03643,-57.7701899999998,-17.52497,1.164313,-0.08820254,1.097134,-50.09093,-24.85561,-6.194308
17.519515514,11.22278,-47.47514,-14.70503,1.154642,-0.08763367,1.141842,-50.09093,-24.85561,-6.194308
17.529375076,10.72585,-36.16845,-10.78164,1.157069,-0.08601747,1.177761,-50.09093,-24.85561,-6.194308
17.539233685,10.60162,-23.49304,-6.79694399999997,1.181871,-0.07984447,1.208129,-50.09093,-24.85561,-6.194308
17.54909277,9.918345,-10.5796,-2.567038,1.176921,-0.06281642,1.218885,-50.09093,-24.85561,-6.194308
17.558952331,6.50197000000002,2.095801,0.0689914200000002,1.160515,-0.02299963,1.23479,-50.06575,-25.55092,-3.242131
17.568811417,0.663074000000001,13.99759,2.214596,1.172644,0.006238285,1.217133,-50.06575,-25.55092,-3.242131
17.578670025,-5.98332900000001,25.83987,4.789322,1.176007,-0.003513282,1.204064,-50.06575,-25.55092,-3.242131
17.58852911,-11.38741,37.86067,7.54795700000002,1.160201,-0.03347713,1.166659,-50.06575,-25.55092,-3.242131
17.598388672,-14.18263,49.16737,10.73571,1.178096,-0.04606917,1.140421,-50.06575,-25.55092,-3.242131
17.608247757,-15.05225,60.3550499999998,13.67826,1.185192,-0.05437298,1.115332,-49.69277,-25.92873,-3.624375
17.618106365,-15.17648,70.65009,15.57865,1.195226,-0.04312099,1.107616,-49.69277,-25.92873,-3.624375
17.627965927,-16.10822,79.5764299999999,17.29513,1.228048,-0.02147083,1.093914,-49.69277,-25.92873,-3.624375
