Time (s),Gyroscope X (deg/s),Gyroscope Y (deg/s),Gyroscope Z (deg/s),Accelerometer X (g),Accelerometer Y (g),Accelerometer Z (g),Magnetometer X (uT),Magnetometer Y (uT),Magnetometer Z (uT)
102.77,-1.202171,-1.475,0.1490391,0.9701288,0.01310293,-0.2039392,-39.9468,-16.29469,-8.548798
102.78,-0.766589199999999,-1.416094,-0.0951975900000001,0.9740825,0.007291258,-0.2078019,-39.9468,-16.29469,-8.548798
102.79,-0.3310075,-1.592813,-0.1562568,0.9823243,0.009304563,-0.2063287,-39.9468,-16.29469,-8.548798
102.8,0.353478,-1.769533,-0.3394342,0.981815,0.009846025,-0.1995732,-39.9468,-16.29469,-8.548798
102.81,1.100189,-1.357187,-0.3394342,0.9886101,0.01087136,-0.1990709,-39.9468,-16.29469,-8.548798
102.82,1.411319,-1.533907,-0.1562568,0.9894979,0.018661,-0.1947089,-39.56812,-16.96169,-8.53462
102.83,1.597997,-1.062655,0.0879799099999998,0.9865869,0.01721279,-0.1918242,-39.56812,-16.96169,-8.53462
102.84,1.722449,-0.4735897,-0.0951975900000001,0.9908239,0.02895727,-0.181172,-39.56812,-16.96169,-8.53462
102.85,2.033579,0.2332885,-0.03413842,0.9922831,0.02708996,-0.1748991,-39.56812,-16.96169,-8.53462
102.86,2.158031,0.881260199999998,-0.1562568,0.9835364,0.02654213,-0.1744403,-39.56812,-16.96169,-8.53462
102.87,2.655838,0.586727600000001,-0.2783751,0.9859483,0.02662244,-0.1676782,-39.5805,-16.29707,-8.545317
102.88,2.718064,0.4689145,-0.705789299999999,0.9863881,0.03240691,-0.1705599,-39.5805,-16.29707,-8.545317
102.89,3.029194,0.5278211,-0.8279076,0.9815158,0.03287479,-0.1681588,-39.5805,-16.29707,-8.545317
102.9,3.340324,0.410008,-1.072144,0.9795518,0.0338625,-0.1643013,-39.5805,-16.29707,-8.545317
102.91,3.900357,0.586727600000001,-0.888966700000001,0.9752052,0.03092049,-0.1648014,-39.5805,-16.29707,-8.545317
102.92,4.398165,0.8223537,-0.583670900000002,0.9718246,0.02894512,-0.166262,-40.30748,-16.59442,-8.547416
102.93,4.771521,0.881260199999998,-0.0951975900000001,0.9712592,0.03811379,-0.1686565,-40.30748,-16.59442,-8.547416
102.94,4.709295,0.999073199999999,0.3932757,0.9775929,0.03717776,-0.1705724,-40.30748,-16.59442,-8.547416
102.95,4.087035,0.999073199999999,0.6375124,0.9775836,0.03955351,-0.1753928,-40.30748,-16.59442,-8.547416
102.96,3.09142,0.7634471,0.4543349,0.9746685,0.04046352,-0.1792587,-40.30748,-16.59442,-8.547416
102.97,2.095805,0.2332885,0.5153941,0.9794905,0.04344438,-0.1748969,-40.30748,-16.59442,-8.547416
102.98,1.224641,-0.1790571,0.2711574,0.9785419,0.04242076,-0.1802096,-40.30748,-16.59442,-8.547416
102.99,0.4779299,-0.2968701,0.3322166,0.9824156,0.04297009,-0.1763381,-40.30748,-16.59442,-8.547416
103,-0.0821036699999998,-0.0612440899999998,-0.1562568,0.9760985,0.04431992,-0.182142,-40.30748,-16.59442,-8.547416
103.01,-0.2687815,-0.1201506,0.2100982,0.9780228,0.04580875,-0.1797211,-40.30748,-16.59442,-8.547416
103.02,-0.3310075,-0.0612440899999998,0.3322166,0.9746722,0.0418583,-0.1855288,-39.57848,-16.59299,-8.161352
103.03,-0.2687815,-0.002337579,0.4543349,0.9767181,0.03075222,-0.1845823,-39.57848,-16.59299,-8.161352
103.04,-0.01987772,-0.0612440899999998,0.881749099999998,0.9791837,0.02784142,-0.1874775,-39.57848,-16.59299,-8.161352
103.05,0.1045742,0.2332885,0.881749099999998,0.9811253,0.0269282,-0.1831316,-39.57848,-16.59299,-8.161352
103.06,0.04234824,0.174382,1.125986,0.983555,0.02648078,-0.181196,-39.57848,-16.59299,-8.161352
103.07,-0.2065556,0.292195,1.125986,0.9796854,0.02357324,-0.178317,-39.95041,-16.28851,-8.169694
103.08,-0.2687815,-0.002337579,0.698571599999999,0.9777703,0.02111658,-0.18074,-39.95041,-16.28851,-8.169694
103.09,-0.0821036699999998,0.2332885,0.2711574,0.9792312,0.0211192,-0.1817013,-39.95041,-16.28851,-8.169694
103.1,0.4779299,0.3511015,0.2100982,0.9792644,0.01866458,-0.1855669,-39.95041,-16.28851,-8.169694
103.11,1.162415,0.410008,-0.1562568,0.9792913,0.01482394,-0.1821972,-39.95041,-16.28851,-8.169694
103.12,1.535771,0.5278211,-0.1562568,0.980754,0.01341425,-0.1788186,-39.9426,-16.3019,-8.991083
103.13,2.033579,0.704540600000002,-0.03413842,0.9753885,0.01437101,-0.1754526,-39.9426,-16.3019,-8.991083
103.14,2.406934,0.645634099999999,0.02692074,0.9753711,0.01677305,-0.1773776,-39.9426,-16.3019,-8.991083
103.15,2.469161,0.645634099999999,0.3322166,0.9753752,0.01441483,-0.170627,-39.9426,-16.3019,-8.991083
103.16,2.406934,0.4689145,0.4543349,0.9704366,0.02307419,-0.1720688,-39.9426,-16.3019,-8.991083
103.17,2.033579,0.1154754,0.576453200000001,0.9791015,0.03139532,-0.1691332,-39.57066,-16.60638,-8.982741
103.18,1.722449,-0.0612440899999998,0.576453200000001,0.9820285,0.03279095,-0.1778086,-39.57066,-16.60638,-8.982741
103.19,1.286867,-0.4146832,0.3932757,0.9776957,0.0283972,-0.1783118,-39.57066,-16.60638,-8.982741
103.2,1.100189,-0.6503092,0.0879799099999998,0.9767476,0.02690282,-0.1821778,-39.57066,-16.60638,-8.982741
103.21,0.913511500000001,-0.709215699999997,-0.2173159,0.9718661,0.02974645,-0.184597,-39.57066,-16.60638,-8.982741
103.22,0.851285599999998,-0.768122299999998,-0.3394342,0.9675594,0.02104566,-0.1798013,-39.93803,-16.95313,-8.158998
103.23,0.726833699999999,-0.768122299999998,-0.3394342,0.9670733,0.02104187,-0.1798026,-39.93803,-16.95313,-8.158998
103.24,0.353478,-0.709215699999997,-0.2783751,0.9641881,0.01669455,-0.1764416,-39.93803,-16.95313,-8.158998
103.25,0.04234824,-0.709215699999997,-0.03413842,0.9695208,0.01772164,-0.1744954,-39.93803,-16.95313,-8.158998
103.26,-0.704363199999999,-0.827028800000001,0.2711574,0.9699505,0.0230704,-0.1720701,-39.93803,-16.95313,-8.158998
103.27,-1.139945,-1.298281,0.0879799099999998,0.9694762,0.02209001,-0.1730385,-39.94839,-16.58443,-7.785729
103.28,-1.202171,-1.946253,0.2100982,0.9675098,0.02730587,-0.1831659,-39.94839,-16.58443,-7.785729
103.29,-0.8288152,-2.417505,-0.2173159,0.9655846,0.0244135,-0.1802817,-39.94839,-16.58443,-7.785729
103.3,-0.4554594,-2.888757,-0.2173159,0.953827,0.03447149,-0.1817381,-39.94839,-16.58443,-7.785729
103.31,-0.4554594,-3.418916,-0.4615526,0.9547532,0.03885183,-0.1797961,-39.94839,-16.58443,-7.785729
103.32,-1.077719,-3.654541,-0.1562568,0.9599959,0.04908643,-0.1763827,-40.30073,-16.95694,-8.541582
103.33,-2.384464,-3.654541,0.2711574,0.969254,0.04486464,-0.1696122,-40.30073,-16.95694,-8.541582
103.34,-4.562372,-3.360009,0.4543349,0.9819247,0.04016797,-0.1647642,-40.30073,-16.95694,-8.541582
103.35,-6.98918399999998,-2.594224,0.5153941,0.9761954,0.02571018,-0.1532289,-40.30073,-16.95694,-8.541582
103.36,-10.03826,-2.064066,1.431281,0.9776596,0.0205431,-0.1373121,-39.93128,-17.31565,-8.153164
103.37,-12.96288,-1.592813,2.347169,0.9897825,0.02120513,-0.128111,-39.93128,-17.31565,-8.153164
103.38,-15.57637,-0.2379636,3.568352,1.019346,0.02923178,-0.1222269,-39.93128,-17.31565,-8.153164
103.39,-17.50537,0.999073199999999,4.301062,1.045039,0.03388888,-0.111052,-39.93128,-17.31565,-8.153164
103.4,-18.81212,2.825175,4.545299,1.047397,0.0374267,-0.09656182,-39.93128,-17.31565,-8.153164
103.41,-19.06102,4.180025,4.117885,1.030893,0.03440736,-0.09516323,-40.30748,-16.59442,-8.547416
103.42,-17.44315,4.356745,3.629411,0.9934955,0.0349472,-0.1102175,-40.30748,-16.59442,-8.547416
103.43,-14.02072,2.942988,2.896702,0.9639156,0.03494552,-0.1382817,-40.30748,-16.59442,-8.547416
103.44,-10.84719,1.470325,2.28611,0.9450569,0.03118668,-0.1629484,-40.30748,-16.59442,-8.547416
103.45,-6.429151,-0.591402700000002,2.225051,0.9335373,0.02310762,-0.1900182,-40.30748,-16.59442,-8.547416
103.46,-2.75782,-2.594224,2.652465,0.9302497,0.01848046,-0.2170593,-40.31986,-15.9298,-8.558111
103.47,-0.642137300000001,-4.1847,3.201997,0.9182103,0.008632831,-0.2253149,-40.31986,-15.9298,-8.558111
103.48,-1.139945,-5.716269,4.056826,0.9026026,0.01712547,-0.235953,-40.31986,-15.9298,-8.558111
103.49,-4.43792,-8.24924900000001,5.15589,0.9199349,0.03516688,-0.2358695,-40.31986,-15.9298,-8.558111
103.5,-9.47822299999997,-10.25207,6.68236999999997,0.9644667,0.05208734,-0.2226894,-40.31986,-15.9298,-8.558111
103.51,-15.51414,-10.5466,7.84249399999999,1.008012,0.06857765,-0.2027572,-40.67379,-16.59204,-8.550896
103.52,-21.36338,-9.839725,8.208849,1.01902,0.08189709,-0.1843633,-40.67379,-16.59204,-8.550896
103.53,-25.84365,-8.95612800000002,7.59825700000001,1.002324,0.0935792,-0.1626665,-40.67379,-16.59204,-8.550896
103.54,-29.26608,-8.897222,5.705423,0.9648098,0.09731609,-0.1453835,-40.67379,-16.59204,-8.550896
103.55,-31.25731,-8.897222,4.178944,0.9349183,0.1161632,-0.1227403,-40.67379,-16.59204,-8.550896
103.56,-34.1197,-2.299692,-15.48211,0.6118458,0.09004217,-0.1110834,-40.31986,-15.9298,-8.558111
103.57,360.9529,-277.8643,-267.2901,8.650206,-8.036166,6.693221,-40.31986,-15.9298,-8.558111
103.58,359.3972,-42.88628,11.32287,5.669964,-6.467082,-2.014342,-40.31986,-15.9298,-8.558111
103.59,16.96781,29.92217,97.2331200000001,1.332114,-0.967057,2.391,-40.31986,-15.9298,-8.558111
103.6,-186.4488,-102.323,65.6044699999998,0.7866551,0.1251173,0.9346436,-40.31986,-15.9298,-8.558111
103.61,-301.1313,-49.66053,55.89606,1.067367,-0.7919632,0.4272023,-39.97638,-15.89302,-6.153646
103.62,-267.5915,-32.34201,46.92036,0.8223431,0.1767258,-0.2314739,-39.97638,-15.89302,-6.153646
103.63,-181.2841,-57.73072,20.05433,0.4993644,0.7474342,-0.5244697,-39.97638,-15.89302,-6.153646
103.64,-99.0213700000001,-17.96882,-7.78865199999998,1.39884,0.9309231,-0.1154493,-39.97638,-15.89302,-6.153646
103.65,-61.3746700000001,43.82411,-14.4441,1.309848,0.8751411,-0.6383991,-39.97638,-15.89302,-6.153646
103.66,-17.87873,41.35004,-5.468404,0.9715845,0.334438,-0.4179789,-40.33594,-16.25317,-6.151292
103.67,-31.56844,60.7302799999999,9.67427000000001,0.8889553,-0.1166513,-0.3004548,-40.33594,-16.25317,-6.151292
103.68,-14.7052,41.29113,9.735329,1.055826,-0.02046642,-0.1371986,-40.33594,-16.25317,-6.151292
103.69,18.08787,25.15075,-4.491457,0.9174758,-0.132046,-0.3679711,-40.33594,-16.25317,-6.151292
103.7,63.7617200000001,8.24457499999997,-15.35999,0.9855613,-0.2010265,-0.1358378,-40.33594,-16.25317,-6.151292
103.71,90.20776,9.71723699999999,-19.32883,0.9956477,-0.2947417,-0.1258798,-40.70013,-15.55254,-7.809221
103.72,65.0062400000001,4.003305,-15.48211,0.9556766,-0.2145616,-0.002277982,-40.70013,-15.55254,-7.809221
103.73,12.92312,4.533464,-7.72759299999999,0.9319358,-0.1315963,0.04126855,-40.70013,-15.55254,-7.809221
103.74,-21.86119,4.710184,-2.415446,0.8719824,-0.0469103,-0.01419714,-40.70013,-15.55254,-7.809221
103.75,-30.38614,1.116886,1.919755,0.8635226,0.03969535,-0.06228766,-40.70013,-15.55254,-7.809221
103.76,-22.54567,-4.1847,4.911654,0.8956066,0.1095519,-0.1243035,-39.94839,-16.58443,-7.785729
103.77,-14.51852,-6.30533500000002,6.92660599999998,0.9497219,0.1631173,-0.1872627,-39.94839,-16.58443,-7.785729
103.78,-12.71397,-2.888757,9.00261899999998,1.010453,0.1871475,-0.2575065,-39.94839,-16.58443,-7.785729
103.79,-18.56321,4.710184,11.75028,1.036989,0.169524,-0.302353,-39.94839,-16.58443,-7.785729
103.8,-29.45275,11.95568,13.2157,1.027059,0.1450778,-0.3212506,-39.94839,-16.58443,-7.785729
103.81,-38.84887,14.54757,12.42193,0.9708489,0.1290428,-0.3334938,-40.31469,-16.58205,-7.78921
103.82,-41.71127,10.89537,9.91850600000002,0.9248544,0.1055597,-0.3220817,-40.31469,-16.58205,-7.78921
103.83,-40.28007,6.65409899999999,7.29296200000002,0.9114498,0.08132344,-0.3149301,-40.31469,-16.58205,-7.78921
103.84,-36.91987,0.881260199999998,2.652465,0.9162426,0.02651563,-0.279327,-40.31469,-16.58205,-7.78921
103.85,-34.1197,-2.240785,-1.133204,0.9351365,-0.03054036,-0.2369366,-40.31469,-16.58205,-7.78921
103.86,-31.50621,-3.360009,-3.331333,0.9308082,-0.09330309,-0.2168157,-40.32241,-15.57449,-9.006232
103.87,-26.15478,-2.888757,-3.880866,0.8974897,-0.1191554,-0.210684,-40.32241,-15.57449,-9.006232
103.88,-16.82089,-3.065476,-3.331333,0.8791098,-0.1280451,-0.2146109,-40.32241,-15.57449,-9.006232
103.89,-5.184632,-3.477822,-1.560618,0.8971524,-0.1346576,-0.2121659,-40.32241,-15.57449,-9.006232
103.9,4.460391,-3.949074,1.003867,0.9421663,-0.11303,-0.2139335,-40.32241,-15.57449,-9.006232
103.91,9.50069300000002,-3.595635,2.896702,0.9894851,-0.07314811,-0.2325451,-40.31986,-15.9298,-8.558111
103.92,10.30963,-4.1847,3.507293,1.009464,-0.02042615,-0.2526473,-40.31986,-15.9298,-8.558111
103.93,7.260559,-6.48205400000003,2.774583,1.005063,0.03750801,-0.2641153,-40.31986,-15.9298,-8.558111
103.94,2.78029,-9.95753900000002,0.0879799099999998,1.001708,0.08677,-0.2722214,-40.31986,-15.9298,-8.558111
103.95,-0.5176854,-13.37412,-3.209215,0.9960895,0.1106022,-0.2543303,-40.31986,-15.9298,-8.558111
103.96,-1.077719,-14.84678,-5.712641,0.9779849,0.1169498,-0.2326486,-40.33337,-15.20476,-8.56978
103.97,0.602381800000001,-13.55084,-6.38429200000001,0.9692339,0.1051605,-0.1911974,-40.33337,-15.20476,-8.56978
103.98,2.78029,-11.01786,-5.895818,0.9709603,0.07005212,-0.1685886,-40.33337,-15.20476,-8.56978
103.99,4.087035,-6.30533500000002,-4.30828,0.978968,0.03230425,-0.1223244,-40.33337,-15.20476,-8.56978
104,4.398165,-0.4146832,-1.804854,0.9803019,-0.01155783,-0.1040784,-40.71108,-15.18281,-7.372768
104.01,3.340324,3.59096,0.9428082,0.9587206,-0.04364937,-0.1022729,-40.71108,-15.18281,-7.372768
104.02,1.784675,3.296427,2.28611,0.9209202,-0.0490167,-0.127957,-40.71108,-15.18281,-7.372768
104.03,-2.011108,0.2332885,3.629411,0.8858654,-0.03691405,-0.1507012,-40.71108,-15.18281,-7.372768
104.04,-4.997954,-2.299692,4.545299,0.858481,-0.009858918,-0.1854571,-40.71108,-15.18281,-7.372768
104.05,-8.10925100000002,-4.36142,5.94966000000001,0.8590196,0.04035304,-0.1988592,-40.70688,-15.19002,-7.815055
104.06,-11.40723,-5.127204,7.72037600000002,0.8847408,0.1018617,-0.2155498,-40.70688,-15.19002,-7.815055
104.07,-14.95411,-5.127204,8.26990900000001,0.9600618,0.1604181,-0.2268108,-40.70688,-15.19002,-7.815055
104.08,-16.69643,-2.653131,6.49919199999998,1.049939,0.2173017,-0.2216313,-40.70688,-15.19002,-7.815055
104.09,-16.19863,2.412829,3.629411,1.134776,0.2351437,-0.1948339,-40.70688,-15.19002,-7.815055
104.1,-14.26962,8.53910600000001,1.187045,1.194126,0.2232614,-0.1686488,-40.33382,-15.55491,-7.80574
104.11,-10.84719,14.19413,0.2711574,1.216971,0.1725987,-0.1715941,-40.33382,-15.55491,-7.80574
104.12,-7.42476599999998,21.02729,0.3932757,1.205534,0.08760223,-0.1423708,-40.33382,-15.55491,-7.80574
104.13,-5.993569,26.32887,1.614459,1.143611,-0.00505191,-0.1137768,-40.33382,-15.55491,-7.80574
104.14,-9.47822299999997,29.62764,4.240003,1.057238,-0.09038292,-0.0572422,-40.33382,-15.55491,-7.80574
104.15,-16.19863,30.92358,7.47613899999998,0.9579219,-0.1302526,-0.04600289,-41.06958,-15.19382,-8.197638
104.16,-17.94095,30.03999,10.89545,0.863393,-0.1524907,-0.06897428,-41.06958,-15.19382,-8.197638
104.17,-12.7762,26.85903,14.559,0.8118065,-0.1334687,-0.1149086,-41.06958,-15.19382,-8.197638
104.18,-2.571142,22.26433,17.18455,0.7867591,-0.0906094,-0.1698916,-41.06958,-15.19382,-8.197638
104.19,10.43408,15.7257,17.79514,0.7908874,-0.04755317,-0.2281768,-41.06958,-15.19382,-8.197638
104.2,21.07472,7.24316400000003,17.8562,0.8348125,-0.003975494,-0.2631959,-40.69861,-14.85325,-9.400484
104.21,23.99934,1.293606,16.69607,0.8929468,0.01354826,-0.2485318,-40.69861,-14.85325,-9.400484
104.22,21.32362,-5.127204,15.41383,0.9593703,0.02167294,-0.2102217,-40.69861,-14.85325,-9.400484
104.23,12.30086,-8.42596899999999,13.45994,1.014293,0.06312671,-0.1689743,-40.69861,-14.85325,-9.400484
104.24,2.220257,-12.43161,4.48424,0.5620457,0.7290511,-0.6305083,-40.69861,-14.85325,-9.400484
104.25,-2.322238,-38.23267,22.80199,1.614547,-0.3407903,0.9319168,-40.70536,-14.49073,-9.406319
104.26,-26.59036,-1.239374,13.03252,0.5076643,0.5394298,-1.26609,-40.70536,-14.49073,-9.406319
104.27,-21.05225,25.73981,15.04748,1.53175,0.3195394,0.4968987,-40.70536,-14.49073,-9.406319
104.28,-46.31599,-34.81609,11.68922,0.7326303,0.3175416,-0.2622857,-40.70536,-14.49073,-9.406319
104.29,-39.59558,1.882671,2.469287,1.101101,0.156134,-0.233212,-40.70536,-14.49073,-9.406319
104.3,-19.86996,-25.9212,-6.56746899999997,1.015743,0.2354116,-0.2231282,-40.71317,-14.47734,-8.584929
104.31,26.92396,-12.78505,-12.73444,1.112524,-0.2134631,-0.1220258,-40.71317,-14.47734,-8.584929
104.32,-15.63859,7.47879000000002,7.59825700000001,1.088027,-0.09705211,0.08758751,-40.71317,-14.47734,-8.584929
104.33,-19.99441,-4.00798,4.240003,0.9363843,-0.2086484,-0.08048793,-40.71317,-14.47734,-8.584929
104.34,-22.29677,-3.595635,7.10978400000003,0.8855835,-0.2164044,-0.1448146,-40.71317,-14.47734,-8.584929
104.35,-20.74112,-36.7011,3.568352,0.7214395,-0.07363559,-0.1632679,-40.71992,-14.11482,-8.590763
104.36,-12.02949,-44.71238,2.957761,0.8911027,0.008243095,-0.08544648,-40.71992,-14.11482,-8.590763
104.37,-4.935728,-47.65771,0.3932757,0.9145249,0.06695388,-0.1417181,-40.71992,-14.11482,-8.590763
104.38,-0.891041099999997,-45.12473,0.5153941,0.9599625,0.09441849,-0.1405767,-40.71992,-14.11482,-8.590763
104.39,0.04234824,-37.6436,1.919755,1.007231,0.1246158,-0.1066115,-40.71992,-14.11482,-8.590763
104.4,-2.75782,-30.33919,4.178944,1.064666,0.1508136,-0.04222806,-41.48106,-13.35927,-7.029797
104.41,-8.29592900000002,-23.68276,5.705423,0.9982583,0.1958313,-0.09055743,-41.48106,-13.35927,-7.029797
104.42,-12.27839,-20.79634,8.45308599999998,1.03185,0.1706014,-0.02007291,-41.48106,-13.35927,-7.029797
104.43,-17.44315,-14.90569,8.63626400000003,1.00393,0.1846859,0.009320844,-41.48106,-13.35927,-7.029797
104.44,-21.1767,-13.2563,8.39202699999999,0.9612314,0.1836227,-0.0178143,-41.48106,-13.35927,-7.029797
104.45,-24.41245,-15.08241,7.354021,0.9429297,0.1679101,-0.0270637,-41.48887,-13.34587,-6.208407
104.46,-29.51498,-18.97023,5.76648200000002,0.9379949,0.1303966,-0.05031942,-41.48887,-13.34587,-6.208407
104.47,-35.73758,-23.38822,5.094831,0.9517434,0.06700556,-0.06151886,-41.48887,-13.34587,-6.208407
104.48,-41.46236,-26.51027,4.423181,0.9483204,0.01760283,-0.06308155,-41.48887,-13.34587,-6.208407
104.49,-45.50705,-30.04466,4.423181,0.9331116,-0.02258705,-0.0525911,-41.48887,-13.34587,-6.208407
104.5,-45.81818,-33.99139,5.033772,0.9071605,-0.05566742,-0.0493513,-41.86298,-13.33011,-5.390498
104.51,-41.96017,-37.34907,7.10978400000003,0.8770851,-0.06126955,-0.0542664,-41.86298,-13.33011,-5.390498
104.52,-34.61751,-40.88346,9.49109200000002,0.8673044,-0.04614499,-0.08562478,-41.86298,-13.33011,-5.390498
104.53,-26.71481,-43.53425,12.60511,0.8817436,-0.01976204,-0.1236522,-41.86298,-13.33011,-5.390498
104.54,-21.42561,-44.53566,15.10853,0.908696,0.02026477,-0.1621005,-41.86298,-13.33011,-5.390498
104.55,-18.43876,-44.8891,15.78018,0.9173061,0.04987127,-0.2131648,-41.878,-13.30435,-3.810903
104.56,-17.8165,-45.06582,15.41383,0.9152515,0.06850966,-0.2372575,-41.878,-13.30435,-3.810903
104.57,-17.87873,-46.42067,13.70417,0.907859,0.08144832,-0.2449695,-41.878,-13.30435,-3.810903
104.58,-18.12763,-47.77552,12.97146,0.9248219,0.08550064,-0.239609,-41.878,-13.30435,-3.810903
104.59,-18.56321,-47.65771,12.78829,0.948877,0.1062119,-0.2177878,-41.878,-13.30435,-3.810903
104.6,-19.62105,-45.41926,13.2157,0.9771457,0.1420288,-0.1882024,-42.20811,-12.9673,-1.796782
104.61,-19.93218,-41.59034,13.33782,1.023983,0.1678233,-0.1590732,-42.20811,-12.9673,-1.796782
104.62,-19.18547,-35.8175,12.72723,1.072876,0.1838845,-0.1376805,-42.20811,-12.9673,-1.796782
104.63,-16.82089,-28.27746,10.83439,1.084428,0.193262,-0.127497,-42.20811,-12.9673,-1.796782
104.64,-11.96726,-21.20868,7.231902,1.082212,0.1690867,-0.1232117,-42.20811,-12.9673,-1.796782
104.65,-4.189016,-16.49616,4.056826,1.061235,0.1291074,-0.1378282,-42.9667,-12.56706,0.2123041
104.66,4.522617,-15.08241,2.408228,1.059181,0.08563693,-0.1268284,-42.9667,-12.56706,0.2123041
104.67,12.79867,-14.31662,1.675518,1.070202,0.05087858,-0.1268747,-42.9667,-12.56706,0.2123041
104.68,20.95027,-14.19881,2.469287,1.099086,0.03729872,-0.1548172,-42.9667,-12.56706,0.2123041
104.69,26.73728,-13.13849,2.469287,1.180403,0.02950426,-0.1768215,-42.97811,-12.54748,1.412796
104.7,27.9818,-8.66159499999999,3.507293,1.285684,0.004536168,-0.1920452,-42.97811,-12.54748,1.412796
104.71,25.49276,-1.239374,6.010719,1.465492,-0.03864518,-0.19843,-42.97811,-12.54748,1.412796
104.72,21.88366,8.06785499999999,8.39202699999999,1.632253,-0.1009438,-0.1672507,-42.97811,-12.54748,1.412796
104.73,12.92312,19.96697,7.47613899999998,1.697182,-0.1543502,-0.08226947,-42.97811,-12.54748,1.412796
104.74,3.215872,31.45374,7.53719800000002,1.602046,-0.2052671,0.04090821,-43.34802,-12.53893,1.788419
104.75,-3.504531,40.58425,9.79638799999998,1.475861,-0.2128181,0.1698896,-43.34802,-12.53893,1.788419
104.76,-10.16271,51.71758,12.54405,1.413503,-0.1266313,0.2813829,-43.34802,-12.53893,1.788419
104.77,-16.82089,69.1539099999999,16.45184,1.386518,-0.006497424,0.3172801,-43.34802,-12.53893,1.788419
104.78,-20.67889,91.1260399999998,21.15339,1.354583,0.08649304,0.2995434,-43.34802,-12.53893,1.788419
104.79,-19.99441,110.4474,23.65682,1.303882,0.1594731,0.2793024,-44.07912,-11.83489,0.1901951
104.8,-17.94095,136.4251,26.28236,1.185851,0.2259806,0.1903521,-44.07912,-11.83489,0.1901951
104.81,-18.74989,151.5052,27.62566,1.052736,0.1609704,0.02049436,-44.07912,-11.83489,0.1901951
104.82,-22.8568,155.6287,28.41943,0.9953123,0.04804558,-0.1082545,-44.07912,-11.83489,0.1901951
104.83,-23.29239,152.919,25.24436,0.9676524,-0.06267082,-0.2856593,-44.07912,-11.83489,0.1901951
104.84,-19.68328,142.4336,19.56585,1.092784,-0.1701594,-0.3454037,-44.39917,-11.91185,-4.67844
104.85,-17.75427,139.9595,16.45184,1.231807,-0.2684201,-0.3602154,-44.39917,-11.91185,-4.67844
104.86,-19.86996,142.1391,17.18455,1.312859,-0.3540578,-0.3741844,-44.39917,-11.91185,-4.67844
104.87,-26.40368,145.3789,20.5428,1.312168,-0.4396124,-0.3623064,-44.39917,-11.91185,-4.67844
104.88,-39.47113,147.9708,21.64186,1.28356,-0.4970208,-0.3711894,-44.39917,-11.91185,-4.67844
104.89,-52.04078,148.1475,19.50479,1.240149,-0.4865547,-0.3539071,-44.72865,-10.91979,-10.70189
104.9,-53.34752,152.3299,12.66617,1.208835,-0.4179245,-0.3369511,-44.72865,-10.91979,-10.70189
104.91,-40.90233,154.0382,1.5534,1.16751,-0.3155884,-0.330082,-44.72865,-10.91979,-10.70189
104.92,-21.05225,154.4505,-10.78055,1.152539,-0.1756725,-0.3110005,-44.72865,-10.91979,-10.70189
104.93,2.904742,151.5641,-18.59612,1.104012,-0.08025566,-0.3138158,-44.72865,-10.91979,-10.70189
104.94,20.14133,143.4939,-21.40485,1.071803,-0.01845176,-0.3017023,-44.313,-10.01248,-17.91789
104.95,27.11064,135.1292,-19.81731,1.033269,-0.06166591,-0.2845228,-44.313,-10.01248,-17.91789
104.96,25.55499,130.24,-19.38989,0.9759145,-0.1652387,-0.2897189,-44.313,-10.01248,-17.91789
104.97,14.97658,121.8752,-12.49021,0.9438436,-0.06945626,-0.2664333,-44.313,-10.01248,-17.91789
104.98,5.76713600000002,113.864,3.263057,1.033784,-0.07347953,-0.2536637,-44.313,-10.01248,-17.91789
104.99,-14.20739,114.7476,9.06367800000002,0.9632652,-0.1294602,-0.229356,-42.12072,-10.41395,-23.13698
105,-36.98209,113.7461,16.75713,0.9779208,-0.137089,-0.2293346,-42.12072,-10.41395,-23.13698
105.01,-47.37383,109.7994,25.00012,0.9458423,-0.2245153,-0.2899238,-42.12072,-10.41395,-23.13698
105.02,-48.7428,106.7952,32.2051,0.9526334,-0.2640091,-0.3281126,-42.12072,-10.41395,-23.13698
105.03,-40.09339,106.5006,36.47924,0.8782665,-0.3159322,-0.3332415,-42.12072,-10.41395,-23.13698
105.04,-29.45275,103.143,38.73843,0.7656267,-0.3261733,-0.3518909,-39.49997,-10.87861,-28.35104
105.05,-17.31869,94.89606,39.04373,0.708593,-0.315774,-0.3303009,-39.49997,-10.87861,-28.35104
105.06,-10.28716,88.1807199999998,38.4942,0.6817923,-0.263981,-0.3061312,-39.49997,-10.87861,-28.35104
105.07,-6.180247,77.6364499999999,37.70043,0.6245857,-0.2309691,-0.2989696,-39.49997,-10.87861,-28.35104
105.08,-7.36253999999998,65.1482700000002,34.64747,0.6042564,-0.145192,-0.2684371,-39.49997,-10.87861,-28.35104
105.09,-11.46945,49.89148,31.1671,0.583653,-0.08028404,-0.2442232,-37.37403,-8.124843,-32.79931
105.1,-15.32746,34.81141,28.72473,0.5772171,-0.02487857,-0.212755,-37.37403,-8.124843,-32.79931
105.11,-15.70082,21.32182,25.73283,0.603337,0.01816239,-0.1320094,-37.37403,-8.124843,-32.79931
105.12,-12.71397,14.31194,20.84809,0.6397368,0.053074,-0.04932467,-37.37403,-8.124843,-32.79931
105.13,-5.682439,6.53628500000003,13.88735,0.654084,0.08933919,0.09458984,-37.37403,-8.124843,-32.79931
105.14,4.647069,2.353923,5.339068,0.6682088,0.1115997,0.1887712,-36.65904,-6.403167,-34.40014
105.15,24.74605,-3.595635,-1.37744,0.6747611,0.0771139,0.2224923,-36.65904,-6.403167,-34.40014
105.16,55.11232,-8.83831500000002,-8.33818400000001,0.6737645,0.02211596,0.242156,-36.65904,-6.403167,-34.40014
105.17,86.1630600000003,-12.84396,-13.77245,0.6570009,-0.06111363,0.2573754,-36.65904,-6.403167,-34.40014
105.18,106.8221,-16.20163,-15.97058,0.6418505,-0.1118138,0.2828025,-36.65904,-6.403167,-34.40014
105.19,128.4767,-20.38399,-18.35189,0.6207158,-0.145178,0.3039083,-36.30204,-5.687712,-34.85062
105.2,140.4863,-24.74307,-19.75625,0.6134453,-0.1635949,0.3603082,-36.30204,-5.687712,-34.85062
105.21,143.0376,-27.45277,-21.09955,0.6323712,-0.1769415,0.4196818,-36.30204,-5.687712,-34.85062
105.22,136.0683,-30.33919,-21.7712,0.6765886,-0.1444457,0.4961084,-36.30204,-5.687712,-34.85062
105.23,122.5652,-34.81609,-23.29768,0.7171804,-0.1348907,0.5541396,-36.30204,-5.687712,-34.85062
105.24,107.9421,-42.88628,-22.93133,0.7728835,-0.1352051,0.6314903,-37.01762,-7.408358,-33.1866
105.25,94.1279900000002,-47.71661,-20.97743,0.905535,-0.1541538,0.7225109,-37.01762,-7.408358,-33.1866
105.26,84.4207400000001,-45.18363,-17.55812,1.04984,-0.2261625,0.8226159,-37.01762,-7.408358,-33.1866
105.27,78.2603699999997,-35.75859,-11.39114,1.194129,-0.2882719,0.8937892,-37.01762,-7.408358,-33.1866
105.28,72.6600300000003,-26.39246,-3.758748,1.30438,-0.2875659,0.9302662,-37.01762,-7.408358,-33.1866
105.29,62.7661100000001,-20.5018,4.850595,1.386755,-0.3134567,0.9395914,-37.67606,-12.38551,-31.09097
105.3,48.76527,-13.2563,14.13159,1.391727,-0.3641659,0.8936531,-37.67606,-12.38551,-31.09097
105.31,31.96426,-0.944841800000002,22.49669,1.308218,-0.3496731,0.8027497,-37.67606,-12.38551,-31.09097
105.32,21.13695,7.95004100000003,28.48049,1.178963,-0.4154936,0.6468941,-37.67606,-12.38551,-31.09097
105.33,16.03442,13.95851,29.64062,1.079395,-0.4430093,0.5269061,-39.41541,-14.8255,-29.48833
105.34,15.16325,20.14369,25.85495,1.016781,-0.4515111,0.3375671,-39.41541,-14.8255,-29.48833
105.35,21.5103,27.27138,18.95526,0.9630959,-0.3883809,0.1947299,-39.41541,-14.8255,-29.48833
105.36,28.79074,28.09607,15.10853,0.9473026,-0.3253424,0.06260636,-39.41541,-14.8255,-29.48833
105.37,37.8135,26.62341,11.38393,0.8885442,-0.4075341,-0.03809204,-39.41541,-14.8255,-29.48833
105.38,50.00979,19.55463,9.00261899999998,0.870902,-0.4360088,-0.06763423,-40.13766,-15.18945,-29.86856
105.39,52.37437,7.47879000000002,6.010719,0.9130167,-0.4667187,-0.07482986,-40.13766,-15.18945,-29.86856
105.4,52.99663,-9.132848,6.80448800000001,1.060495,-0.4779167,-0.1019789,-40.13766,-15.18945,-29.86856
105.41,63.7617200000001,-23.27041,12.60511,1.326382,-0.4380809,-0.04667948,-40.13766,-15.18945,-29.86856
105.42,80.3760500000001,-15.55366,19.07738,1.683804,-0.2898213,0.3048915,-40.13766,-15.18945,-29.86856
105.43,79.2559800000003,18.3765,18.83314,1.785357,0.04193512,0.6185583,-40.52108,-14.45585,-29.50461
105.44,47.20962,42.46926,6.49919199999998,1.582293,0.2381712,0.6059101,-40.52108,-14.45585,-29.50461
105.45,19.64352,39.70065,-5.651582,1.153701,0.1661898,0.2417733,-40.52108,-14.45585,-29.50461
105.46,33.14655,16.43258,-13.1008,0.7438734,0.0200252,-0.1538402,-40.52108,-14.45585,-29.50461
105.47,82.5539600000001,-13.60974,-16.27588,0.410136,-0.05189737,-0.539447,-40.52108,-14.45585,-29.50461
105.48,140.7975,-44.94801,-22.25968,0.2084732,-0.06797428,-0.6977952,-40.50397,-15.18707,-29.87204
105.49,182.5511,-57.9663500000003,-25.12946,0.2865806,-0.1071835,-0.499833,-40.50397,-15.18707,-29.87204
105.5,189.8937,-55.96352,-22.32073,0.4959058,-0.05857552,-0.2299264,-40.50397,-15.18707,-29.87204
105.51,163.7588,-53.19492,-20.18366,0.8097366,0.04688092,0.02879081,-40.50397,-15.18707,-29.87204
105.52,128.3523,-54.90321,-18.65718,1.09264,0.1974499,0.05976215,-40.50397,-15.18707,-29.87204
105.53,112.4224,-60.3226100000002,-16.58117,1.308934,0.3874049,-0.0444673,-40.86407,-16.89155,-27.06723
105.54,114.2892,-64.3282499999999,-14.93257,1.442041,0.5544122,-0.04666027,-40.86407,-16.89155,-27.06723
105.55,118.645,-65.6831000000001,-12.97868,1.377421,0.592456,-0.01200162,-40.86407,-16.89155,-27.06723
105.56,118.645,-65.2118499999998,-10.78055,1.277274,0.5286636,0.03006725,-40.86407,-16.89155,-27.06723
105.57,113.0447,-60.73495,-8.70453900000002,1.106184,0.4133708,0.05736598,-40.86407,-16.89155,-27.06723
105.58,103.7108,-57.3183699999999,-10.47526,0.94326,0.3144115,0.06445383,-42.22364,-21.46268,-22.58284
105.59,95.5591799999997,-58.4376000000001,-14.07775,0.833602,0.2507835,0.02639542,-42.22364,-21.46268,-22.58284
105.6,92.4478800000003,-64.2693399999999,-16.70329,0.7931635,0.1743964,-0.03708699,-42.22364,-21.46268,-22.58284
105.61,96.1192199999998,-72.6340700000001,-17.25282,0.8189386,0.08458385,-0.09029397,-42.22364,-21.46268,-22.58284
105.62,102.4663,-80.5275399999997,-15.7874,0.8720345,0.032376,-0.1293557,-42.22364,-21.46268,-22.58284
105.63,112.4846,-88.7155500000003,-15.11575,0.9382991,-0.0810413,-0.1521084,-43.34856,-22.46378,-17.71062
105.64,126.5477,-98.3173100000002,-15.29893,1.042435,-0.2443971,-0.1642548,-43.34856,-22.46378,-17.71062
105.65,145.2155,-96.2555799999998,-4.125103,1.043097,-0.3804397,-0.1177383,-43.34856,-22.46378,-17.71062
105.66,149.6335,-95.3130800000002,-5.224167,0.9386474,0.07055973,-0.08518989,-43.34856,-22.46378,-17.71062
105.67,146.2111,-92.8979100000003,-14.07775,0.9361263,0.168319,-0.02949311,-43.34856,-22.46378,-17.71062
105.68,146.0244,-85.6524100000002,-19.87837,0.9226922,0.2034721,-0.03717297,-44.0921,-24.83838,-11.67525
105.69,148.5135,-85.6524100000002,-22.50391,0.9249473,0.2825895,-0.06643254,-44.0921,-24.83838,-11.67525
105.7,149.0113,-86.8305400000002,-24.45781,0.9653424,0.3101457,0.002252808,-44.0921,-24.83838,-11.67525
105.71,145.5889,-85.3578800000002,-21.40485,0.9799169,0.3409715,0.08004703,-44.0921,-24.83838,-11.67525
105.72,136.9395,-83.0016200000002,-12.67339,0.998902,0.3278985,0.116259,-44.0921,-24.83838,-11.67525
105.73,126.8588,-81.3522300000002,-6.14005499999998,1.004169,0.3286739,0.1437796,-44.49426,-26.47073,-4.447578
105.74,116.3427,-80.7042600000001,1.187045,1.002909,0.3582245,0.1481828,-44.49426,-26.47073,-4.447578
105.75,108.8755,-79.8795700000002,4.056826,1.000923,0.3620982,0.1501162,-44.49426,-26.47073,-4.447578
105.76,100.6617,-77.1109600000002,4.362122,0.9962925,0.3929206,0.1376242,-44.49426,-26.47073,-4.447578
105.77,94.5635699999998,-74.2834499999999,3.385175,0.9878032,0.3619782,0.1481519,-44.49426,-26.47073,-4.447578
105.78,91.7633999999997,-71.4559400000002,2.041873,0.9625489,0.3033505,0.1619547,-45.20683,-27.44884,2.008293
105.79,89.8966199999997,-67.2735699999999,1.5534,0.9511043,0.2748575,0.1782705,-45.20683,-27.44884,2.008293
105.8,83.1762200000001,-60.85277,4.362122,0.9605862,0.1932539,0.1901833,-45.20683,-27.44884,2.008293
105.81,69.5487399999999,-53.66617,9.24685499999998,0.9700891,0.1741554,0.1573534,-45.20683,-27.44884,2.008293
105.82,53.80557,-48.77693,14.62006,0.9753703,0.1507658,0.08203915,-45.20683,-27.44884,2.008293
105.83,37.8135,-47.00974,19.07738,0.9524162,0.1319822,0.005214295,-45.62509,-26.65549,6.036909
105.84,24.55937,-47.71661,21.21445,0.901185,0.1216933,-0.07118267,-45.62509,-26.65549,6.036909
105.85,15.90997,-52.90039,21.33657,0.8723926,0.1014738,-0.14127,-45.62509,-26.65549,6.036909
105.86,9.56291900000002,-62.26652,20.78704,0.8759447,0.09819372,-0.1856623,-45.62509,-26.65549,6.036909
105.87,5.89158800000002,-72.3984500000001,18.8942,0.8700482,0.1128954,-0.2136338,-45.62509,-26.65549,6.036909
105.88,4.709295,-81.64677,17.18455,0.8703032,0.1366416,-0.2102042,-45.00548,-25.86886,10.07538
105.89,4.958199,-87.30179,16.69607,0.8723792,0.1697201,-0.1932386,-45.00548,-25.86886,10.07538
105.9,3.962583,-89.1868000000001,17.8562,0.8953138,0.2021692,-0.1569185,-45.00548,-25.86886,10.07538
105.91,0.2290261,-87.24288,18.52785,0.9519523,0.2188671,-0.1253708,-45.00548,-25.86886,10.07538
105.92,-4.686824,-82.1180199999998,17.06243,1.027318,0.2071977,-0.08949295,-45.42516,-24.78061,13.65685
105.93,-7.54921799999998,-75.2259500000001,13.58206,1.115387,0.1422173,-0.07299884,-45.42516,-24.78061,13.65685
105.94,-6.429151,-68.5106099999999,10.04062,1.175271,0.07792777,-0.06284909,-45.42516,-24.78061,13.65685
105.95,-2.571142,-59.9691700000001,3.324116,1.192048,-0.06479939,-0.02016581,-45.42516,-24.78061,13.65685
105.96,5.020424,-53.60727,-3.148156,1.138237,-0.1978883,0.02525143,-45.42516,-24.78061,13.65685
105.97,15.47438,-49.01256,-6.017937,1.068706,-0.2693879,0.09826582,-45.42516,-24.78061,13.65685
105.98,27.23509,-41.88487,-3.697688,1.064752,-0.2131928,0.1080274,-45.103,-24.0054,16.87104
105.99,39.61805,-31.39951,2.225051,1.065673,-0.09255839,0.06872012,-45.103,-24.0054,16.87104
106,52.06324,-22.74025,8.69732300000001,1.066123,-0.007818181,-0.0324318,-45.103,-24.0054,16.87104
106.01,60.33929,-20.08946,10.77333,1.155388,0.02160809,-0.06591675,-45.103,-24.0054,16.87104
106.02,60.9615599999997,-19.5593,9.85744699999997,1.205749,0.03624214,-0.0430756,-45.13573,-23.24739,18.88125
106.03,54.55228,-18.26336,8.26990900000001,1.284651,0.06281477,-0.009036569,-45.13573,-23.24739,18.88125
106.04,43.97387,-11.84255,7.65931700000003,1.385526,0.1297662,0.02948888,-45.13573,-23.24739,18.88125
106.05,32.27539,0.4689145,7.84249399999999,1.421567,0.2291737,0.02062711,-45.13573,-23.24739,18.88125
106.06,21.63475,13.8996,7.90355299999998,1.444931,0.2641601,0.06950001,-45.13573,-23.24739,18.88125
106.07,13.1098,29.50983,11.50604,1.500353,0.2425278,0.1443915,-44.80778,-22.18965,20.89009
106.08,8.00726999999998,47.59413,16.5129,1.53948,0.1988984,0.2090602,-44.80778,-22.18965,20.89009
106.09,7.385011,65.9140500000001,24.08423,1.472389,0.0882627,0.2337418,-44.80778,-22.18965,20.89009
106.1,8.25617399999998,81.9366200000002,32.87675,1.395759,-0.03243394,0.2245988,-44.80778,-22.18965,20.89009
106.11,9.00288599999999,97.3701300000002,46.43189,1.341712,-0.1574408,0.147948,-44.80778,-22.18965,20.89009
106.12,5.82936200000002,115.4544,65.1770600000003,1.336957,-0.3188219,0.1268392,-45.55914,-20.39806,19.27435
106.13,-1.575527,143.3761,88.5627100000002,1.377405,-0.4618096,0.2270063,-45.55914,-20.39806,19.27435
106.14,-7.92257399999999,166.2318,105.6593,1.42688,-0.4643499,0.277796,-45.55914,-20.39806,19.27435
106.15,-19.43438,184.0216,121.3515,1.390601,-0.5137307,0.2003885,-45.55914,-20.39806,19.27435
106.16,-23.79019,177.6597,120.6188,1.291849,-0.3705528,-0.09487826,-45.55914,-20.39806,19.27435
106.17,-7.67366999999998,176.5994,101.5073,1.242952,-0.02776468,-0.4610046,-48.75944,-19.09251,12.7765
106.18,30.15971,162.6974,82.57891,1.186003,0.3060142,-0.6935049,-48.75944,-19.09251,12.7765
106.19,68.9264799999999,145.2022,71.1608500000002,1.142595,0.5292513,-0.6941021,-48.75944,-19.09251,12.7765
106.2,98.7949400000002,129.3564,61.2082100000001,1.130908,0.6550468,-0.5809454,-48.75944,-19.09251,12.7765
106.21,94.1902199999998,121.8163,49.54591,1.210769,0.7877894,-0.3676499,-48.75944,-19.09251,12.7765
106.22,46.71181,122.5232,37.88361,1.2485,0.8660104,-0.2066958,-52.32934,-13.11239,3.735729
106.23,-27.52375,135.7183,28.35837,1.298813,0.884284,0.003382031,-52.32934,-13.11239,3.735729
106.24,-102.1327,143.3761,18.77208,1.221029,0.8436373,-0.03599241,-52.32934,-13.11239,3.735729
106.25,-163.7986,145.2022,11.32287,1.149106,0.7530315,-0.0928309,-52.32934,-13.11239,3.735729
106.26,-202.6276,142.3747,10.71228,1.127932,0.5496969,-0.1898324,-52.32934,-13.11239,3.735729
106.27,-216.2551,136.7197,15.96336,1.127237,0.2785796,-0.2545961,-54.14782,-10.02292,-3.978451
106.28,-214.2016,130.181,21.76398,1.144127,0.08650447,-0.2636513,-54.14782,-10.02292,-3.978451
106.29,-205.9256,129.7687,26.95401,1.154628,-0.04843984,-0.2643968,-54.14782,-10.02292,-3.978451
106.3,-192.7336,131.1825,30.5565,1.093265,-0.144147,-0.2526971,-54.14782,-10.02292,-3.978451
106.31,-172.3858,128.8262,31.35028,1.009517,-0.1839392,-0.246243,-54.14782,-10.02292,-3.978451
106.32,-146.6242,122.8177,29.70168,0.9023909,-0.1635342,-0.252266,-54.45277,-9.131464,-12.46509
106.33,-126.5875,116.8093,26.2213,0.8354234,-0.1314084,-0.2277597,-54.45277,-9.131464,-12.46509
106.34,-102.8172,107.2664,20.90915,0.7638419,-0.06992053,-0.2167135,-54.45277,-9.131464,-12.46509
106.35,-86.8250800000001,98.0180999999998,11.07863,0.7377397,0.007170646,-0.1784937,-54.45277,-9.131464,-12.46509
106.36,-80.97585,90.1835299999999,1.003867,0.7164018,0.1015016,-0.164352,-54.45277,-9.131464,-12.46509
106.37,-81.59811,80.4050500000002,-6.445351,0.6987513,0.2213833,-0.1641398,-53.7077,-6.057585,-20.09173
106.38,-91.2431299999998,73.2184600000001,-13.83351,0.7055913,0.3173948,-0.1489568,-53.7077,-6.057585,-20.09173
106.39,-104.1239,67.3867199999998,-17.68024,0.7039429,0.3909027,-0.1531459,-53.7077,-6.057585,-20.09173
106.4,-117.5647,60.3179299999998,-19.51201,0.7149606,0.4046579,-0.1400591,-53.7077,-6.057585,-20.09173
106.41,-127.7698,53.83822,-19.69519,0.7312672,0.3687349,-0.1130715,-53.7077,-6.057585,-20.09173
106.42,-137.477,48.94897,-19.93943,0.7830099,0.337004,-0.08115809,-51.87666,-3.670538,-24.91616
106.43,-145.2552,44.35427,-21.83226,0.8229792,0.2701612,-0.06865244,-51.87666,-3.670538,-24.91616
106.44,-150.1711,39.52393,-23.90827,0.8459737,0.2039957,-0.07356086,-51.87666,-3.670538,-24.91616
106.45,-150.1711,35.10595,-27.14441,0.8839771,0.09104823,-0.07370567,-51.87666,-3.670538,-24.91616
106.46,-145.9397,34.63469,-31.54067,0.8720632,0.02243289,-0.1052496,-51.87666,-3.670538,-24.91616
106.47,-137.2281,31.51265,-33.86092,0.858614,-0.05297494,-0.08421423,-51.57138,-2.268798,-27.77987
106.48,-125.7785,29.2742,-36.12011,0.8445696,-0.1638695,-0.08014591,-51.57138,-2.268798,-27.77987
106.49,-112.8978,25.32747,-38.01294,0.8141035,-0.2318953,-0.08423112,-51.57138,-2.268798,-27.77987
106.5,-101.1371,21.61635,-39.96683,0.7773413,-0.3042687,-0.08206877,-51.57138,-2.268798,-27.77987
106.51,-88.8163100000003,18.84775,-42.28708,0.7357462,-0.3432751,-0.02531914,-51.57138,-2.268798,-27.77987
106.52,-78.79794,16.43258,-45.88957,0.6890501,-0.3972042,-0.008666306,-50.4771,-1.215148,-29.42971
106.53,-64.2992899999997,11.77896,-49.00359,0.6745539,-0.374894,0.06227895,-50.4771,-1.215148,-29.42971
106.54,-51.60519,7.53769600000003,-50.95748,0.6605144,-0.3407582,0.1028502,-50.4771,-1.215148,-29.42971
106.55,-40.28007,2.177203,-51.20172,0.6924472,-0.2891628,0.1614319,-50.4771,-1.215148,-29.42971
106.56,-31.50621,-2.064066,-49.79736,0.7608079,-0.242343,0.2490502,-50.4771,-1.215148,-29.42971
106.57,-26.52814,-2.82985,-48.393,0.8474565,-0.177888,0.3444744,-50.47807,-0.5701032,-30.6409
106.58,-32.12847,1.234699,-45.64533,0.9366313,-0.1278,0.4543506,-50.47807,-0.5701032,-30.6409
106.59,-53.47197,13.31053,-42.1039,1.014794,-0.05329747,0.5975468,-50.47807,-0.5701032,-30.6409
106.6,-85.70502,26.62341,-38.74565,1.050815,0.0231957,0.6764596,-50.47807,-0.5701032,-30.6409
106.61,-116.3202,33.57438,-36.60858,1.089303,0.06046074,0.696906,-50.45533,-1.603427,-31.00347
106.62,-133.4945,35.5772,-38.92883,1.173189,0.07166055,0.7391282,-50.45533,-1.603427,-31.00347
106.63,-137.7259,39.11159,-42.53131,1.27846,0.07881668,0.797321,-50.45533,-1.603427,-31.00347
106.64,-139.6549,46.4749,-44.0578,1.340495,0.1396752,0.8376633,-50.45533,-1.603427,-31.00347
106.65,-143.9485,54.89853,-43.50826,1.261825,0.1514645,0.7646208,-50.45533,-1.603427,-31.00347
106.66,-148.1176,56.4301,-41.49331,1.135307,0.1417983,0.6614909,-50.7946,-1.647416,-33.85023
106.67,-153.5313,54.83963,-38.86777,1.043521,0.1063577,0.5680461,-50.7946,-1.647416,-33.85023
106.68,-155.4603,47.71194,-38.37929,1.005589,0.06933066,0.5200963,-50.7946,-1.647416,-33.85023
106.69,-148.2421,38.99377,-39.4173,1.077654,0.01817288,0.4738475,-50.7946,-1.647416,-33.85023
106.7,-128.1431,30.86468,-37.46341,1.272465,0.006280689,0.3831227,-50.7946,-1.647416,-33.85023
106.71,-107.0485,16.55039,-31.60173,1.541699,-0.0009693287,0.2602689,-50.08215,0.4295678,-35.89918
106.72,-81.2247499999998,-9.25066099999999,-17.61918,1.992419,0.03363817,0.1148109,-50.08215,0.4295678,-35.89918
106.73,-74.3176699999998,-7.42455799999999,-7.54441600000003,2.095528,0.2608418,0.2120751,-50.08215,0.4295678,-35.89918
106.74,-104.3728,28.44951,-1.072144,1.707093,0.1774062,-0.2219524,-50.08215,0.4295678,-35.89918
106.75,-105.3684,41.64457,8.94155999999999,1.006429,-0.2745683,-1.321565,-50.08215,0.4295678,-35.89918
106.76,-46.12931,35.10595,9.91850600000002,0.3689606,-0.8541591,-1.608676,-49.38848,2.88968,-36.69029
106.77,-11.53168,10.48302,7.231902,0.1436538,-1.462381,-1.033919,-49.38848,2.88968,-36.69029
106.78,-44.94702,-10.42879,3.385175,0.1384366,-1.42695,-0.1141179,-49.38848,2.88968,-36.69029
106.79,-90.5586400000001,-12.54943,-10.29208,0.4346462,-1.016798,0.03277497,-49.38848,2.88968,-36.69029
106.8,-67.1616800000003,-18.61679,-32.15126,0.7951822,-0.3498104,-0.0497899,-49.38848,2.88968,-36.69029
106.81,18.77236,-38.58611,-51.99549,0.9526168,0.2316839,-0.4192138,-48.68497,5.040478,-37.91883
106.82,118.085,-73.9300200000001,-54.43785,1.024721,0.6539923,-0.4996707,-48.68497,5.040478,-37.91883
106.83,157.1629,-88.5388299999999,-43.56932,1.248507,0.8312787,-0.08806339,-48.68497,5.040478,-37.91883
106.84,118.645,-76.9342399999999,-27.63288,1.328541,0.8139177,0.2223846,-48.68497,5.040478,-37.91883
106.85,47.76965,-66.9790399999998,-9.13195300000002,1.248747,0.7378278,0.3315538,-48.68497,5.040478,-37.91883
106.86,-19.62105,-61.4418300000001,1.858696,1.108135,0.6523387,0.3107403,-49.07552,5.376894,-35.96847
106.87,-67.8461699999999,-58.3786900000001,3.201997,1.006293,0.5603038,0.1756487,-49.07552,5.376894,-35.96847
106.88,-94.6033199999999,-57.6129100000002,-2.354387,0.9586308,0.4398217,0.05897249,-49.07552,5.376894,-35.96847
106.89,-104.3106,-59.4979199999997,-8.46030300000001,0.9347901,0.2965367,0.02192926,-49.07552,5.376894,-35.96847
106.9,-105.9907,-62.8555899999999,-11.33008,0.9427146,0.1822196,0.00336708,-49.07552,5.376894,-35.96847
106.91,-105.6795,-63.7391899999997,-11.7575,0.9652323,0.1136746,0.003277795,-51.89993,1.574974,-33.09023
106.92,-105.1195,-65.2707500000001,-11.87962,0.9479488,-0.002475597,-0.03562039,-51.89993,1.574974,-33.09023
106.93,-100.5148,-70.9846899999998,-10.35314,0.9253252,-0.1215053,-0.0673003,-51.89993,1.574974,-33.09023
106.94,-93.7321600000001,-79.8795700000002,-8.093948,0.8868889,-0.1730117,-0.05737663,-51.89993,1.574974,-33.09023
106.95,-86.1405899999999,-89.0100799999997,-6.93382399999998,0.8742557,-0.1871984,-0.01014992,-51.89993,1.574974,-33.09023
106.96,-80.7891599999999,-93.2513499999997,-5.83475900000001,0.8707287,-0.1793114,0.008677338,-53.44299,3.765116,-29.09442
106.97,-77.4289600000001,-94.8418299999998,-6.07899599999999,0.8926724,-0.1421184,0.03535408,-53.44299,3.765116,-29.09442
106.98,-73.0109200000001,-93.13354,-7.78865199999998,0.9472613,-0.1077368,0.04425466,-53.44299,3.765116,-29.09442
106.99,-67.0994599999998,-89.0689800000001,-8.46030300000001,0.9931751,-0.07976694,0.04732849,-53.44299,3.765116,-29.09442
107,-59.3834399999999,-84.4153700000003,-7.30017899999999,1.014067,-0.07956874,0.05124319,-53.44299,3.765116,-29.09442
107.01,-52.22745,-80.0562899999999,-4.674635,1.044592,-0.06633851,0.04314703,-55.65805,5.609458,-24.34095
107.02,-46.93825,-76.05064,-2.049091,1.055998,-0.03068318,0.01623036,-55.65805,5.609458,-24.34095
107.03,-42.83133,-71.5148500000002,-0.8279076,1.050882,0.002009762,-0.003014502,-55.65805,5.609458,-24.34095
107.04,-40.96455,-66.7434199999998,0.5153941,1.02098,0.04199768,-0.05029544,-55.65805,5.609458,-24.34095
107.05,-40.71565,-62.20761,-0.8279076,0.9575829,0.07078219,-0.07693725,-55.65805,5.609458,-24.34095
107.06,-44.07585,-60.1458899999999,-1.37744,0.8907754,0.1066017,-0.1252874,-58.27099,6.060724,-19.94828
107.07,-50.60958,-60.3815200000002,-0.4615526,0.8658745,0.1222459,-0.1397945,-58.27099,6.060724,-19.94828
107.08,-59.6945699999999,-61.0294800000001,0.4543349,0.8591152,0.1211022,-0.1533257,-58.27099,6.060724,-19.94828
107.09,-70.3974299999999,-59.20338,1.858696,0.8634241,0.1373003,-0.185128,-58.27099,6.060724,-19.94828
107.1,-77.9890000000001,-57.4950900000002,2.041873,0.8688473,0.1356843,-0.2077973,-58.27099,6.060724,-19.94828
107.11,-85.9539199999998,-56.72931,1.5534,0.8904901,0.1139086,-0.2261252,-58.99451,6.856061,-15.92257
107.12,-91.4297999999999,-57.25947,0.576453200000001,0.9351437,0.07535677,-0.2463599,-58.99451,6.856061,-15.92257
107.13,-93.6699400000002,-58.3786900000001,-0.644730100000001,0.9772941,0.04124631,-0.2550104,-58.99451,6.856061,-15.92257
107.14,-91.5542500000001,-59.7335399999998,-2.903919,0.9955703,0.00994543,-0.253583,-58.99451,6.856061,-15.92257
107.15,-88.0073800000002,-62.1487100000003,-5.163108,0.9869385,-0.006457639,-0.2406116,-58.99451,6.856061,-15.92257
107.16,-82.2203599999997,-66.9201400000001,-7.05594299999999,0.9349374,-0.01393831,-0.2204948,-60.51784,8.018032,-11.97341
107.17,-74.8154800000002,-73.8711100000001,-7.91077000000001,0.8917048,-0.02610218,-0.1907144,-60.51784,8.018032,-11.97341
107.18,-66.0416099999999,-82.1180199999998,-6.75064700000002,0.8831024,-0.04963689,-0.1637645,-60.51784,8.018032,-11.97341
107.19,-58.2633700000001,-87.8908500000001,-3.148156,0.9311873,-0.05991806,-0.1115473,-60.51784,8.018032,-11.97341
107.2,-52.84971,-85.0044400000001,1.858696,0.9651412,-0.0706661,-0.04537362,-60.51784,8.018032,-11.97341
107.21,-48.4939,-73.0464200000002,6.86554699999999,1.001726,-0.09190352,-0.01733709,-60.18998,8.081596,-7.926167
107.22,-43.76472,-56.72931,10.89545,1.054019,-0.1186844,-0.02691077,-60.18998,8.081596,-7.926167
107.23,-38.72442,-42.1794,14.62006,1.110827,-0.1637146,-0.02493087,-60.18998,8.081596,-7.926167
107.24,-34.80419,-32.75436,15.47489,1.12914,-0.2059221,0.001083254,-60.18998,8.081596,-7.926167
107.25,-34.05748,-28.68981,13.33782,1.106901,-0.177222,0.03631366,-61.34805,8.892067,-3.146307
107.26,-35.61312,-25.8623,12.11664,1.150105,-0.08108558,0.08729939,-61.34805,8.892067,-3.146307
107.27,-47.43605,-14.61115,13.2157,1.22317,0.04949939,0.1225121,-61.34805,8.892067,-3.146307
107.28,-61.1257600000001,0.704540600000002,15.59701,1.220361,0.145194,0.1111294,-61.34805,8.892067,-3.146307
107.29,-65.0459999999999,8.656919,16.5129,1.191415,0.1814891,0.08266238,-61.34805,8.892067,-3.146307
107.3,-61.5613400000002,12.30912,16.87925,1.179139,0.19259,0.08989281,-61.34805,8.892067,-3.146307
107.31,-56.70772,9.65833,17.12349,1.219955,0.1760793,0.1551067,-62.03665,9.218098,-1.957057
107.32,-54.77872,9.59942399999999,19.74903,1.288249,0.1261088,0.2425167,-62.03665,9.218098,-1.957057
107.33,-53.47197,16.07914,25.48859,1.379355,0.09612821,0.2735704,-62.03665,9.218098,-1.957057
107.34,-55.7121,29.50983,33.30417,1.490269,0.08500062,0.2854137,-62.03665,9.218098,-1.957057
107.35,-61.8724700000002,49.47913,45.2107,1.588268,0.05994493,0.2667932,-61.73769,9.928795,-2.724031
107.36,-72.2019800000003,73.0417399999998,59.3764300000002,1.669316,0.02563657,0.2563123,-61.73769,9.928795,-2.724031
107.37,-83.0915200000001,97.66467,75.8624000000002,1.670881,-0.1054804,0.3115276,-61.73769,9.928795,-2.724031
107.38,-96.40788,122.2876,92.10414,1.597977,-0.238741,0.4075629,-61.73769,9.928795,-2.724031
107.39,-115.6357,146.0858,106.453,1.563195,-0.1783659,0.4775725,-61.73769,9.928795,-2.724031
107.4,-131.4411,163.581,113.2917,1.497814,0.05186025,0.306594,-61.74757,12.05137,-5.981411
107.41,-112.2755,165.466,112.9864,1.326979,0.2645472,0.0001921621,-61.74757,12.05137,-5.981411
107.42,-81.59811,151.4463,108.5291,1.220175,0.4580133,-0.1864138,-61.74757,12.05137,-5.981411
107.43,-60.1301500000001,143.2583,102.4231,1.169292,0.5508207,-0.2080602,-61.74757,12.05137,-5.981411
107.44,-57.7033399999997,142.3747,93.9359199999999,1.169405,0.6319837,-0.1702466,-61.74757,12.05137,-5.981411
107.45,-71.0819200000001,150.0325,82.8231499999999,1.127168,0.7247304,-0.1527844,-59.21607,17.93973,-14.45773
107.46,-100.1414,155.7465,70.79449,1.067798,0.8683934,-0.2689229,-59.21607,17.93973,-14.45773
107.47,-143.5129,154.6273,56.99512,1.071207,0.9110759,-0.4208252,-59.21607,17.93973,-14.45773
107.48,-194.2893,154.3916,46.37083,1.137853,0.8102003,-0.4483755,-59.21607,17.93973,-14.45773
107.49,-226.4601,155.393,40.44809,1.196472,0.717123,-0.4098205,-59.21607,17.93973,-14.45773
107.5,-253.4039,154.5094,32.5104,1.236246,0.6038276,-0.3433698,-55.37403,24.22621,-20.21022
107.51,-261.9289,151.7997,27.5646,1.195145,0.4677848,-0.3143328,-55.37403,24.22621,-20.21022
107.52,-257.3864,147.9119,24.45059,1.133785,0.378167,-0.3248172,-55.37403,24.22621,-20.21022
107.53,-242.2033,142.5514,19.81009,1.139543,0.3341769,-0.3244144,-55.37403,24.22621,-20.21022
107.54,-224.5311,137.8389,14.68112,1.163278,0.3397998,-0.3117948,-55.37403,24.22621,-20.21022
107.55,-212.9571,133.7154,9.79638799999998,1.216625,0.3980434,-0.2854744,-51.84569,29.12536,-22.21443
107.56,-205.5522,129.9454,6.31601500000002,1.226409,0.4421986,-0.2810113,-51.84569,29.12536,-22.21443
107.57,-203.6232,125.4096,3.201997,1.218234,0.4814357,-0.2698494,-51.84569,29.12536,-22.21443
107.58,-207.4812,123.5835,-2.171209,1.177968,0.525139,-0.272272,-51.84569,29.12536,-22.21443
107.59,-215.3217,123.1712,-9.07089399999997,1.117314,0.5681199,-0.2834347,-51.84569,29.12536,-22.21443
107.6,-224.9667,122.4054,-15.72634,1.024344,0.584689,-0.2976327,-47.61732,34.4266,-21.50061
107.61,-231.6871,118.4587,-23.23662,0.8917584,0.6303512,-0.3248992,-47.61732,34.4266,-21.50061
107.62,-238.2831,110.035,-33.61668,0.9150412,0.6419546,-0.3460464,-47.61732,34.4266,-21.50061
107.63,-241.4566,101.4936,-35.38739,1.051869,0.4484345,-0.2973721,-47.61732,34.4266,-21.50061
107.64,-244.5056,96.7221600000001,-29.28148,0.8938717,0.4990322,-0.2923628,-47.61732,34.4266,-21.50061
107.65,-252.1594,87.4149300000002,-33.00609,0.9143698,0.5342957,-0.2637637,-44.8232,37.63705,-19.88211
107.66,-265.4758,80.6995800000003,-38.56247,0.9082226,0.5135126,-0.2556209,-44.8232,37.63705,-19.88211
107.67,-278.7299,72.6293899999997,-45.27898,0.9142441,0.498399,-0.2730097,-44.8232,37.63705,-19.88211
107.68,-286.8193,67.5634400000001,-49.49206,0.9567838,0.4758669,-0.2859772,-44.8232,37.63705,-19.88211
107.69,-294.162,64.08795,-54.19362,1.053859,0.4370417,-0.2747117,-44.8232,37.63705,-19.88211
107.7,-296.0909,64.3824800000001,-57.6129300000002,1.129808,0.3685791,-0.2582563,-44.17107,39.17408,-14.27512
107.71,-295.6554,66.5031199999999,-60.48271,1.22304,0.3234766,-0.2421887,-44.17107,39.17408,-14.27512
107.72,-294.5975,69.9785999999998,-61.6428300000002,1.298781,0.2871207,-0.2604084,-44.17107,39.17408,-14.27512
107.73,-291.9218,73.1006499999998,-59.0783499999999,1.33334,0.2396736,-0.2922695,-44.17107,39.17408,-14.27512
107.74,-286.9437,76.2226900000002,-55.90327,1.325469,0.1565098,-0.3305899,-44.17107,39.17408,-14.27512
107.75,-279.041,78.8734800000002,-53.21667,1.303998,0.06992251,-0.361232,-45.34161,39.65499,-7.467546
107.76,-268.027,80.99412,-51.20172,1.271924,-0.02877599,-0.3842067,-45.34161,39.65499,-7.467546
107.77,-252.7195,81.1708399999998,-48.02664,1.204487,-0.1403464,-0.4087479,-45.34161,39.65499,-7.467546
107.78,-235.234,79.9927099999998,-44.91262,1.113038,-0.2388048,-0.4077478,-45.34161,39.65499,-7.467546
107.79,-215.8817,76.0459699999999,-42.47026,1.024621,-0.3470019,-0.4159292,-45.34161,39.65499,-7.467546
107.8,-196.2805,71.6279800000001,-40.21107,0.9364421,-0.4318667,-0.4129612,-46.76549,37.9432,-1.828357
107.81,-176.306,63.6756100000002,-37.64658,0.8252935,-0.5090005,-0.391699,-46.76549,37.9432,-1.828357
107.82,-157.4515,57.13698,-35.38739,0.755265,-0.5762452,-0.3292929,-46.76549,37.9432,-1.828357
107.83,-140.3394,46.53381,-31.72384,0.7282094,-0.6337537,-0.1909948,-46.76549,37.9432,-1.828357
107.84,-126.5252,42.23363,-28.97618,0.6884804,-0.6366441,-0.04923407,-46.76549,37.9432,-1.828357
107.85,-112.96,40.70206,-25.43475,0.6732872,-0.6047315,0.06708962,-48.2152,35.52802,1.419964
107.86,-97.27905,39.70065,-20.48896,0.6510096,-0.5815317,0.1360865,-48.2152,35.52802,1.419964
107.87,-84.6471700000001,36.22517,-15.11575,0.6371025,-0.5623709,0.1795212,-48.2152,35.52802,1.419964
107.88,-71.9530799999999,30.57014,-6.68958799999998,0.6444397,-0.5303738,0.2326893,-48.2152,35.52802,1.419964
107.89,-67.4728100000003,25.97544,-0.583670900000002,0.6367289,-0.5088819,0.3142664,-48.2152,35.52802,1.419964
107.9,-75.4999600000001,26.74122,1.736577,0.6576915,-0.448957,0.4466676,-48.91879,33.78676,1.820305
107.91,-92.9854499999999,34.98813,0.3932757,0.6987549,-0.3479679,0.5541165,-48.91879,33.78676,1.820305
107.92,-113.0844,45.94474,-4.979931,0.7100907,-0.1815738,0.6418448,-48.91879,33.78676,1.820305
107.93,-128.3298,54.66291,-14.38304,0.726685,-0.05678457,0.7266019,-48.91879,33.78676,1.820305
107.94,-132.5612,62.4385700000002,-25.92323,0.8157478,0.05530955,0.8433669,-48.90319,32.35625,3.044134
107.95,-123.7251,75.22128,-38.25718,0.9739059,0.1442682,1.017684,-48.90319,32.35625,3.044134
107.96,-104.0617,89.0643200000002,-49.85842,1.094097,0.2239882,1.060147,-48.90319,32.35625,3.044134
107.97,-85.3316599999997,87.2971199999999,-54.31573,1.159094,0.2488783,1.027554,-48.90319,32.35625,3.044134
107.98,-78.48681,88.4163399999998,-53.39985,1.34095,0.2894505,1.235607,-48.90319,32.35625,3.044134
107.99,-89.1896699999999,91.3027600000001,-49.7363,1.510012,0.2782461,1.136131,-49.24203,31.2587,2.29995
108,-92.4876499999998,60.5535600000001,-37.09705,1.884931,0.2354546,0.1550191,-49.24203,31.2587,2.29995
108.01,-70.2729799999997,-2.82985,4.850595,2.395114,-0.08346125,-0.8128262,-49.24203,31.2587,2.29995
108.02,-5.620214,3.001894,54.61382,2.576637,-0.09183427,-1.037244,-49.24203,31.2587,2.29995
108.03,53.74334,51.71758,67.2530699999998,1.588019,-0.00192792,-1.426604,-49.24203,31.2587,2.29995
108.04,53.93002,77.5775500000002,32.87675,0.3296924,-0.2749013,-1.311247,-50.96785,29.49739,1.047651
108.05,-33.43521,65.26608,6.74342900000002,-0.05179827,-0.8229676,-0.5336101,-50.96785,29.49739,1.047651
108.06,-104.2484,50.42164,-9.80360399999999,-0.1455796,-0.9354405,-0.1562581,-50.96785,29.49739,1.047651
108.07,-138.7215,12.01459,-30.31948,-0.1615881,-0.7039355,-0.0694254,-50.96785,29.49739,1.047651
108.08,-103.1905,-19.50039,-42.47026,0.2185779,-0.2281463,-0.2797436,-50.96785,29.49739,1.047651
108.09,-14.82965,-52.60585,-49.61418,0.6749566,0.1310119,-0.768064,-49.87057,30.54589,-0.9181089
108.1,80.1271499999997,-80.1151999999999,-38.01294,1.282357,0.2660866,-0.5900769,-49.87057,30.54589,-0.9181089
108.11,121.134,-72.6929800000001,-26.77805,1.655077,0.2852731,-0.2363311,-49.87057,30.54589,-0.9181089
108.12,105.3287,-74.1067399999998,-10.1089,1.731,0.2942098,-0.1169265,-49.87057,30.54589,-0.9181089
108.13,66.4374399999999,-74.1067399999998,1.248104,1.644932,0.3399894,0.09478883,-49.87057,30.54589,-0.9181089
108.14,25.55499,-62.1487100000003,6.68236999999997,1.403367,0.3574339,0.1974688,-50.60575,29.50223,1.493419
108.15,-7.05140999999998,-56.19915,5.82754100000001,1.108623,0.381003,0.1678064,-50.60575,29.50223,1.493419
108.16,-28.39491,-59.26229,-0.2783751,0.8975215,0.3566105,0.1141291,-50.60575,29.50223,1.493419
108.17,-41.58681,-61.1473000000001,-9.92572299999999,0.8233093,0.3418957,0.1028075,-50.60575,29.50223,1.493419
108.18,-51.48074,-64.5049700000002,-20.61108,0.8093665,0.2810472,0.07561795,-50.60575,29.50223,1.493419
108.19,-61.3124399999999,-64.7405900000003,-27.20547,0.8708874,0.1969505,0.08814209,-49.88561,29.16793,3.528095
108.2,-69.7751699999999,-64.8584100000003,-27.38865,0.9233975,0.1497576,0.06887412,-49.88561,29.16793,3.528095
108.21,-78.3623500000001,-65.8598199999999,-23.84721,0.9598774,0.1019337,0.04715069,-49.88561,29.16793,3.528095
108.22,-84.0249199999998,-68.7462400000002,-18.29083,0.950327,0.03965453,0.01852179,-49.88561,29.16793,3.528095
108.23,-85.9539199999998,-73.1053199999999,-12.30703,0.9545743,-0.04892777,0.01255172,-49.88561,29.16793,3.528095
108.24,-83.4648799999997,-77.4054900000003,-8.15500699999999,0.9479699,-0.1169079,-0.006913409,-49.60577,28.15669,8.350468
108.25,-78.9223900000001,-81.0577000000001,-6.26217300000001,0.9502884,-0.1579904,-0.003135359,-49.60577,28.15669,8.350468
108.26,-72.6375700000001,-82.8838000000002,-5.895818,0.9387924,-0.1774029,0.0006536503,-49.60577,28.15669,8.350468
108.27,-64.4237399999999,-85.8291200000003,-7.54441600000003,0.8905849,-0.1676558,-0.003792664,-49.60577,28.15669,8.350468
108.28,-56.76995,-89.4224200000001,-9.92572299999999,0.8215677,-0.1234736,0.01783902,-49.60577,28.15669,8.350468
108.29,-46.06709,-94.54729,-16.33694,0.8176281,-0.06638949,0.01891668,-49.63394,26.85976,14.05938
108.3,-39.96894,-98.3173100000002,-19.26778,0.8562498,0.02222436,-0.008298498,-49.63394,26.85976,14.05938
108.31,-38.16439,-103.6189,-20.61108,0.9707351,0.08647061,0.04038976,-49.63394,26.85976,14.05938
108.32,-47.3116,-100.9681,-17.1307,1.051581,0.1093098,0.08793715,-49.63394,26.85976,14.05938
108.33,-62.9303200000001,-95.0774499999998,-13.4061,1.098924,0.08606683,0.09910791,-49.63394,26.85976,14.05938
108.34,-78.4245799999997,-86.8305400000002,-9.315131,1.054804,0.03308259,0.05786357,-48.55368,25.48085,18.89512
108.35,-90.5586400000001,-81.5878599999999,-7.36123799999998,0.9834598,-0.01635236,0.004492919,-48.55368,25.48085,18.89512
108.36,-101.0748,-77.8767499999998,-6.872765,0.9272114,-0.06482016,-0.06186553,-48.55368,25.48085,18.89512
108.37,-109.662,-75.6383000000002,-7.36123799999998,0.8886001,-0.08620366,-0.09192911,-48.55368,25.48085,18.89512
108.38,-117.6269,-75.4615799999998,-7.971829,0.8723915,-0.0595145,-0.1232792,-48.55368,25.48085,18.89512
108.39,-123.5384,-77.1109600000002,-9.62042699999997,0.8537466,-0.04173634,-0.1213589,-47.46944,23.45175,24.62614
108.4,-125.9652,-79.9384800000002,-13.16186,0.8458079,-0.02719637,-0.1121797,-47.46944,23.45175,24.62614
108.41,-123.6628,-83.5317800000001,-16.58117,0.8538703,-0.006301656,-0.1097012,-47.46944,23.45175,24.62614
108.42,-119.5559,-88.1264799999999,-18.04659,0.9013409,0.006347684,-0.08976708,-47.46944,23.45175,24.62614
108.43,-116.9424,-89.6580499999999,-17.25282,1.022306,-0.01028128,0.0002632164,-47.46944,23.45175,24.62614
108.44,-114.9512,-84.2975599999999,-14.62728,1.131623,-0.01440009,0.0391402,-46.43576,20.70316,30.68417
108.45,-114.0178,-79.3494099999998,-12.24597,1.185664,-0.02738392,0.05517577,-46.43576,20.70316,30.68417
108.46,-111.9644,-71.0435900000001,-7.91077000000001,1.193665,-0.05995331,0.08552697,-46.43576,20.70316,30.68417
108.47,-105.1817,-62.6788700000001,-4.552517,1.163217,-0.08656663,0.1119314,-46.43576,20.70316,30.68417
108.48,-91.6164799999997,-54.31414,-2.476505,1.124017,-0.1127775,0.1368665,-46.43576,20.70316,30.68417
108.49,-73.6954,-44.06441,-0.0951975900000001,1.074169,-0.1401579,0.1487428,-44.23489,17.93468,35.99501
108.5,-52.41413,-32.98999,3.385175,1.08101,-0.1425682,0.1439298,-44.23489,17.93468,35.99501
108.51,-31.75511,-25.68558,4.423181,1.106905,-0.143738,0.09959955,-44.23489,17.93468,35.99501
108.52,-15.20301,-22.21009,2.896702,1.104029,-0.1312297,0.04074807,-44.23489,17.93468,35.99501
108.53,-2.508916,-24.80198,1.736577,1.043758,-0.101236,-0.06839892,-44.23489,17.93468,35.99501
108.54,4.522617,-32.16529,3.446234,0.9941558,-0.02585316,-0.1446075,-42.4183,14.04226,38.9183
108.55,3.215872,-38.05595,8.08673100000003,0.9784672,0.05439155,-0.194178,-42.4183,14.04226,38.9183
108.56,-5.122406,-36.87782,14.37582,1.022137,0.1311709,-0.249876,-42.4183,14.04226,38.9183
108.57,-16.50976,-29.16106,19.07738,1.096889,0.2148539,-0.3180252,-42.4183,14.04226,38.9183
108.58,-27.33707,-18.6757,20.5428,1.161228,0.2581289,-0.3505796,-42.41621,13.33679,40.13047
108.59,-37.41768,-9.89863199999998,18.77208,1.182761,0.2418735,-0.3471811,-42.41621,13.33679,40.13047
108.6,-47.74718,-7.54237200000001,16.2076,1.25771,0.1523896,-0.24681,-42.41621,13.33679,40.13047
108.61,-55.2143,-8.24924900000001,15.16959,1.367412,0.0771228,-0.1028894,-42.41621,13.33679,40.13047
108.62,-56.76995,-7.01221299999999,16.14654,1.429371,0.05877823,0.06178012,-42.41621,13.33679,40.13047
108.63,-52.91194,-3.124383,19.01632,1.482165,0.09753926,0.1811892,-40.96135,13.69599,40.51765
108.64,-49.11615,4.415651,21.21445,1.505942,0.1831495,0.2620202,-40.96135,13.69599,40.51765
108.65,-45.81818,18.78884,23.59576,1.482836,0.306631,0.2902139,-40.96135,13.69599,40.51765
108.66,-46.12931,34.10453,27.01507,1.450523,0.4299439,0.3077674,-40.96135,13.69599,40.51765
108.67,-55.33875,50.36273,31.10604,1.432345,0.503798,0.3025712,-40.96135,13.69599,40.51765
108.68,-72.6997900000001,66.91547,36.96772,1.38392,0.5372438,0.2967277,-40.94582,12.67503,40.91329
108.69,-94.3544200000001,87.94509,45.69918,1.325878,0.5123781,0.2728796,-40.94582,12.67503,40.91329
108.7,-116.0091,114.1585,56.01818,1.268502,0.4309182,0.198244,-40.94582,12.67503,40.91329
108.71,-137.6637,135.3059,66.3982299999997,1.213902,0.2707553,0.08773776,-40.94582,12.67503,40.91329
108.72,-158.0738,151.8586,73.90852,1.204067,0.09485196,0.01736466,-40.94582,12.67503,40.91329
108.73,-166.9099,161.5193,72.8094500000003,1.174184,-0.006987067,-0.08667934,-41.99024,11.53587,37.31887
108.74,-163.6741,163.5221,63.1621,1.188233,0.02939408,-0.1956209,-41.99024,11.53587,37.31887
108.75,-150.0466,164.229,51.68298,1.193958,0.04460261,-0.3905232,-41.99024,11.53587,37.31887
108.76,-129.2632,155.9232,47.1646,1.139169,-0.03453943,-0.5317389,-41.99024,11.53587,37.31887
108.77,-104.8706,144.3775,47.40884,1.141116,-0.1277939,-0.5705383,-41.99024,11.53587,37.31887
108.78,-79.4824199999999,137.8978,47.77519,1.187646,-0.1618833,-0.5806251,-45.85788,9.341799,30.87045
108.79,-56.58327,136.8964,47.95837,1.219707,-0.1196225,-0.5375047,-45.85788,9.341799,30.87045
108.8,-42.14685,138.4869,43.98952,1.226134,0.01151998,-0.490399,-45.85788,9.341799,30.87045
108.81,-44.20031,142.5514,35.56336,1.242842,0.1792805,-0.4166478,-45.85788,9.341799,30.87045
108.82,-61.8102500000003,144.3775,25.79389,1.25217,0.3072118,-0.3526523,-45.85788,9.341799,30.87045
108.83,-81.2869700000003,145.7324,19.07738,1.266557,0.3550709,-0.2642058,-49.36799,7.803794,24.03572
108.84,-112.5244,143.6706,26.16024,0.8244535,0.9677519,-0.1506299,-49.36799,7.803794,24.03572
108.85,-135.4858,146.4393,11.20075,1.433511,0.4434737,-0.1053092,-49.36799,7.803794,24.03572
108.86,-150.7934,153.4491,-5.346286,1.298465,0.2523214,-0.2020956,-49.36799,7.803794,24.03572
108.87,-163.6741,150.4449,0.759630700000001,1.141491,0.4756733,-0.09296426,-49.36799,7.803794,24.03572
108.88,-170.519,150.3271,-0.3394342,1.197142,0.275684,-0.2071322,-51.79523,7.339017,16.75163
108.89,-170.3323,146.2036,2.28611,1.067994,0.2134612,-0.2336567,-51.79523,7.339017,16.75163
108.9,-166.1009,140.6664,5.339068,0.9674556,0.2053601,-0.2402065,-51.79523,7.339017,16.75163
108.91,-162.8652,134.8347,4.117885,0.9423841,0.133936,-0.2500757,-51.79523,7.339017,16.75163
108.92,-159.1316,129.4153,5.82754100000001,0.8507281,0.1118653,-0.2571152,-51.79523,7.339017,16.75163
108.93,-154.7136,122.5821,5.15589,0.7790141,0.09600888,-0.289665,-53.82461,4.770553,10.32644
108.94,-149.4866,112.3324,3.934707,0.7581217,0.09159128,-0.2786298,-53.82461,4.770553,10.32644
108.95,-148.2421,102.495,1.064927,0.7388077,0.07600246,-0.2734051,-53.82461,4.770553,10.32644
108.96,-145.4419,92.5397899999998,-1.926973,0.7160193,0.07328625,-0.2864985,-53.82461,4.770553,10.32644
108.97,-141.2728,82.4078799999997,-7.05594299999999,0.7111567,0.07231553,-0.2826527,-53.82461,4.770553,10.32644
108.98,-133.6812,71.4512599999998,-12.91762,0.7231185,0.04235572,-0.2879943,-54.46578,2.863789,4.283009
108.99,-123.165,64.5003000000001,-17.98553,0.6822327,0.03752211,-0.2524016,-54.46578,2.863789,4.283009
109,-111.4043,54.66291,-20.36684,0.7240082,-0.0543745,-0.2824094,-54.46578,2.863789,4.283009
109.01,-97.6524,46.12146,-22.0765,0.7457944,-0.09960346,-0.2723169,-54.46578,2.863789,4.283009
109.02,-84.4604900000003,39.81847,-23.17556,0.7377527,-0.1327601,-0.2395956,-54.46578,2.863789,4.283009
109.03,-75.5621899999998,36.16626,-24.94628,0.7364787,-0.1549526,-0.2309607,-54.77557,1.423955,1.079518
109.04,-61.7480200000001,31.21811,-26.53382,0.6811874,-0.2225917,-0.2244931,-54.77557,1.423955,1.079518
109.05,-48.9917,25.622,-31.84596,0.6720183,-0.2336711,-0.2110292,-54.77557,1.423955,1.079518
109.06,-33.99525,19.14228,-34.7768,0.6282763,-0.2914532,-0.1948595,-54.77557,1.423955,1.079518
109.07,-15.45191,11.83787,-38.25718,0.5695336,-0.3547373,-0.1854961,-54.77557,1.423955,1.079518
109.08,4.211487,3.119708,-40.02789,0.5261579,-0.3980507,-0.175085,-53.99987,0.292491,-1.297003
109.09,21.19917,-5.009391,-40.82166,0.5088284,-0.4231361,-0.1515388,-53.99987,0.292491,-1.297003
109.1,36.1334,-12.78505,-41.49331,0.5091909,-0.4203798,-0.1148582,-53.99987,0.292491,-1.297003
109.11,46.77404,-18.6757,-42.1039,0.5397452,-0.3840663,-0.03266802,-53.99987,0.292491,-1.297003
109.12,53.30776,-20.26618,-41.12696,0.6340215,-0.3656859,0.09838538,-53.99987,0.292491,-1.297003
109.13,55.42345,-15.31803,-38.56247,0.7570766,-0.3567862,0.2265973,-54.69203,-1.468337,-2.097155
109.14,58.5347400000003,-5.775176,-33.98303,0.9104977,-0.3219387,0.361699,-54.69203,-1.468337,-2.097155
109.15,63.6372699999999,2.471736,-30.4416,1.056672,-0.2373844,0.4877205,-54.69203,-1.468337,-2.097155
109.16,68.6775699999999,11.83787,-29.76995,1.216546,-0.1317122,0.6891003,-54.69203,-1.468337,-2.097155
109.17,65.44183,27.50701,-33.06715,1.346331,-0.05645254,0.9776784,-53.92986,-3.278478,-1.618735
109.18,52.56105,42.88161,-38.86777,1.293,0.04014588,0.9492782,-53.92986,-3.278478,-1.618735
109.19,37.87572,39.46503,-47.23287,1.174078,0.05036769,0.844763,-53.92986,-3.278478,-1.618735
109.2,23.1904,32.33734,-50.89642,1.078542,0.01979719,0.8642353,-53.92986,-3.278478,-1.618735
109.21,16.47,26.50559,-51.20172,0.9765782,-0.05897244,0.9106102,-53.92986,-3.278478,-1.618735
109.22,17.27894,19.84916,-49.79736,0.9029992,-0.09105179,0.9050435,-53.92986,-3.278478,-1.618735
109.23,17.77674,4.297838,-47.66029,0.8319386,-0.1154289,0.8396637,-53.1526,-5.056018,-2.847253
109.24,13.17202,-14.02209,-44.97368,0.8285785,-0.09730583,0.7600734,-53.1526,-5.056018,-2.847253
109.25,7.571689,-21.3854,-38.44035,0.9033447,-0.1130256,0.6704783,-53.1526,-5.056018,-2.847253
109.26,3.464776,-19.20586,-25.67899,0.9685298,-0.1388655,0.3810617,-53.1526,-5.056018,-2.847253
109.27,5.207102,-20.61962,-11.26902,1.042151,-0.1043101,0.180103,-53.08829,-7.915339,-4.002043
109.28,8.38062599999998,-15.73038,2.530346,1.101871,-0.1729505,0.08456475,-53.08829,-7.915339,-4.002043
109.29,10.80744,-4.832672,15.41383,1.227672,-0.2672407,0.09192473,-53.08829,-7.915339,-4.002043
109.3,10.68299,4.062212,27.5646,1.461848,-0.300367,0.08039373,-53.08829,-7.915339,-4.002043
109.31,7.509463,5.534875,37.57831,1.764406,-0.3014844,0.01795775,-53.08829,-7.915339,-4.002043
109.32,13.85651,7.00753799999998,42.09669,2.132771,-0.0986203,0.08545309,-52.34324,-8.994257,-3.15619
109.33,19.89243,21.26291,38.98267,2.250279,0.1426347,0.3849725,-52.34324,-8.994257,-3.15619
109.34,-11.90504,41.64457,21.09233,1.7147,0.2383902,0.3572569,-52.34324,-8.994257,-3.15619
109.35,-37.97771,36.57861,-6.20111400000002,1.111724,-0.0204877,-0.1341592,-52.34324,-8.994257,-3.15619
109.36,-10.41161,15.25445,-30.7469,0.5713959,-0.3365597,-0.5825899,-52.34324,-8.994257,-3.15619
109.37,53.8678,-19.73602,-50.83536,0.1182825,-0.5566178,-0.7121071,-51.98938,-7.922464,-3.991602
109.38,115.9693,-55.31556,-65.6116799999998,-0.1224823,-0.6060611,-0.674713,-51.98938,-7.922464,-3.991602
109.39,153.6782,-75.4026699999999,-75.3811499999998,-0.03836118,-0.5101532,-0.4711367,-51.98938,-7.922464,-3.991602
109.4,158.7808,-81.64677,-73.97678,0.2478539,-0.2936691,-0.2725707,-51.98938,-7.922464,-3.991602
109.41,147.8912,-84.9455300000001,-69.5194699999999,0.515583,-0.03272869,-0.2249946,-51.98938,-7.922464,-3.991602
109.42,134.0771,-89.0100799999997,-59.2004700000002,0.8919754,0.2870168,-0.2962013,-51.33344,-7.90003,-2.342443
109.43,132.397,-100.9681,-41.12696,1.314321,0.5296189,-0.3751762,-51.33344,-7.90003,-2.342443
109.44,131.7747,-108.9205,-27.32759,1.592747,0.713051,-0.2389501,-51.33344,-7.90003,-2.342443
109.45,118.2094,-100.3201,-20.36684,1.630461,0.7292203,-0.03663009,-51.33344,-7.90003,-2.342443
109.46,94.5013400000001,-78.0534700000001,-16.33694,1.412481,0.6105508,0.08512001,-51.33344,-7.90003,-2.342443
109.47,71.9755499999997,-56.55259,-13.46715,1.158771,0.4422982,0.1067838,-49.48224,-11.74751,3.361525
109.48,57.16577,-44.0055,-14.87152,0.9581349,0.2910521,0.03741923,-49.48224,-11.74751,3.361525
109.49,47.76965,-40.76564,-15.17681,0.8121426,0.2752368,-0.03344341,-49.48224,-11.74751,3.361525
109.5,43.16493,-51.78116,-20.36684,0.7564237,0.227099,-0.1171715,-49.48224,-11.74751,3.361525
109.51,41.04925,-63.7391899999997,-29.83101,0.7627961,0.1737781,-0.1322288,-49.48224,-11.74751,3.361525
109.52,43.35161,-81.4111400000002,-38.80671,0.7867312,0.06109492,-0.144473,-49.14402,-12.05265,7.035498
109.53,54.30338,-100.4968,-42.04284,0.865566,-0.1056615,-0.1364249,-49.14402,-12.05265,7.035498
109.54,72.5355800000001,-111.2767,-42.89767,0.9390628,-0.1707908,-0.123829,-49.14402,-12.05265,7.035498
109.55,97.8615399999999,-106.9177,-42.22602,0.9949945,-0.176549,-0.1130811,-49.14402,-12.05265,7.035498
109.56,120.2007,-92.0143099999998,-37.52446,1.062482,-0.2162866,-0.1236085,-49.14402,-12.05265,7.035498
109.57,136.0061,-73.6354799999998,-31.60173,1.042667,-0.118406,-0.146129,-48.1341,-12.71333,11.41671
109.58,148.2023,-63.8570000000001,-27.14441,0.9824459,-0.02627039,-0.1272669,-48.1341,-12.71333,11.41671
109.59,152.8693,-63.3268400000002,-22.87027,0.9306279,0.09662162,-0.08611964,-48.1341,-12.71333,11.41671
109.6,151.9981,-64.6816899999999,-20.24472,0.9698064,0.2011514,-0.01341156,-48.1341,-12.71333,11.41671
109.61,148.8868,-63.8570000000001,-21.16061,1.002745,0.3156864,-0.005842146,-48.1341,-12.71333,11.41671
109.62,143.3487,-61.3829200000001,-23.23662,1.033757,0.4428119,-0.04891827,-46.32609,-13.6792,15.9367
109.63,136.9395,-57.08275,-25.98428,1.054683,0.50266,-0.08444425,-46.32609,-13.6792,15.9367
109.64,129.7835,-49.01256,-26.96123,1.069704,0.5038725,-0.07040899,-46.32609,-13.6792,15.9367
109.65,120.6362,-38.23267,-25.0684,1.036061,0.5011322,-0.02369441,-46.32609,-13.6792,15.9367
109.66,109.6223,-29.92685,-23.96933,0.9739296,0.4349619,-0.009520436,-46.32609,-13.6792,15.9367
109.67,102.7152,-27.45277,-23.84721,0.9398738,0.3265242,0.0157337,-44.61935,-12.2361,19.91173
109.68,98.9816099999997,-26.8048,-23.05344,0.9254906,0.2015398,0.01398027,-44.61935,-12.2361,19.91173
109.69,94.7502399999999,-25.74448,-21.52697,0.9160037,0.1324858,-0.01466303,-44.61935,-12.2361,19.91173
109.7,87.2209100000002,-25.21432,-18.96248,0.9484069,0.10401,-0.03394264,-44.61935,-12.2361,19.91173
109.71,80.6871800000001,-22.32791,-16.88647,0.9496868,0.09315434,-0.1111705,-44.61935,-12.2361,19.91173
109.72,77.07808,-20.56071,-15.17681,0.9705861,0.09614211,-0.119796,-43.92622,-11.12032,21.92307
109.73,76.5802700000001,-19.73602,-13.65033,0.9520903,0.1063943,-0.147327,-43.92622,-11.12032,21.92307
109.74,77.0158499999997,-20.91415,-15.29893,0.9694308,0.1253466,-0.1535146,-43.92622,-11.12032,21.92307
109.75,79.6915700000001,-23.32932,-15.23787,0.9811303,0.1220458,-0.1539741,-43.92622,-11.12032,21.92307
109.76,81.5583399999999,-24.74307,-14.07775,0.9933744,0.1058936,-0.1312975,-43.92622,-11.12032,21.92307
109.77,80.7494000000001,-26.03902,-13.65033,0.9978302,0.08737055,-0.09658229,-43.58544,-10.37705,23.17856
109.78,78.01147,-27.80621,-13.03974,0.9856493,0.08314831,-0.07153024,-43.58544,-10.37705,23.17856
109.79,76.4558199999999,-29.86794,-11.87962,0.9765704,0.0661436,-0.07110766,-43.58544,-10.37705,23.17856
109.8,76.3935899999997,-30.63372,-11.14691,0.9799443,0.06814088,-0.06723428,-43.58544,-10.37705,23.17856
109.81,78.01147,-30.51591,-10.71949,0.9682999,0.06844609,-0.07691463,-43.58544,-10.37705,23.17856
109.82,77.8870199999998,-31.63514,-11.20796,0.9851421,0.08649687,-0.07538474,-42.22892,-8.608208,24.7433
109.83,77.3269799999997,-32.10639,-9.55936799999998,1.015369,0.1241594,-0.05737151,-42.22892,-8.608208,24.7433
109.84,82.1805999999999,-28.74872,-8.765598,1.049994,0.162248,-0.04947955,-42.22892,-8.608208,24.7433
109.85,89.0254599999999,-21.56212,-10.53631,1.061995,0.174097,-0.03398156,-42.22892,-8.608208,24.7433
109.86,90.26998,-17.32085,-12.97868,1.052528,0.1403531,-0.01139873,-42.22892,-8.608208,24.7433
109.87,90.4566599999998,-15.966,-14.01669,1.030134,0.08709317,0.00483568,-40.4145,-7.888859,25.12813
109.88,95.8080899999998,-13.07958,-14.81046,0.9955347,0.04704263,-0.005955727,-40.4145,-7.888859,25.12813
109.89,102.404,-9.309567,-17.25282,0.9820412,-0.01977743,0.001586604,-40.4145,-7.888859,25.12813
109.9,107.5066,-5.009391,-18.35189,0.9800656,-0.07804327,0.03523467,-40.4145,-7.888859,25.12813
109.91,109.9956,-0.1790571,-18.47401,0.9878453,-0.09018312,0.07721038,-40.10321,-5.749742,26.74036
109.92,111.7379,3.296427,-17.86341,1.001076,-0.06302782,0.1250752,-40.10321,-5.749742,26.74036
109.93,113.6669,7.59660199999998,-18.04659,1.055598,0.01679537,0.1818457,-40.10321,-5.749742,26.74036
109.94,113.418,15.01882,-17.49706,1.142514,0.1274665,0.1972667,-40.10321,-5.749742,26.74036
109.95,116.0315,25.44528,-18.10765,1.273535,0.1676986,0.1455759,-40.10321,-5.749742,26.74036
109.96,125.9255,38.2869,-20.00049,1.412191,0.1377132,0.02909219,-39.46646,-4.290618,27.54479
109.97,136.7528,56.96026,-23.23662,1.51552,-0.01869193,-0.06941753,-39.46646,-4.290618,27.54479
109.98,139.0551,81.4064599999998,-20.97743,1.515134,-0.3381938,-0.08023891,-39.46646,-4.290618,27.54479
109.99,133.5793,101.9648,-11.81856,1.462423,-0.629406,-0.07521032,-39.46646,-4.290618,27.54479
110,124.8676,127.0001,13.09358,1.376653,-0.8974125,-0.1508028,-39.46646,-4.290618,27.54479
110.01,125.6143,144.0241,40.32597,1.272315,-1.059328,-0.1987097,-40.14677,-2.224106,24.28201
110.02,135.3216,157.337,67.192,1.290487,-1.121906,-0.2306456,-40.14677,-2.224106,24.28201
110.03,163.5099,163.0509,83.25056,1.362394,-1.076669,-0.3731973,-40.14677,-2.224106,24.28201
110.04,208.1259,164.229,79.1595999999998,1.454758,-0.760745,-0.5681949,-40.14677,-2.224106,24.28201
110.05,258.6534,160.1645,61.14715,1.409255,-0.348094,-0.8115947,-40.14677,-2.224106,24.28201
110.06,301.4649,144.2597,47.34777,1.306427,0.05132848,-1.023805,-41.25441,1.248896,18.14855
110.07,317.1458,123.5835,40.50915,1.33507,0.3572447,-0.9878477,-41.25441,1.248896,18.14855
110.08,295.4912,112.6858,32.44934,1.449412,0.5552823,-0.8081014,-41.25441,1.248896,18.14855
110.09,235.1942,117.0449,20.90915,1.510141,0.6446364,-0.5602052,-41.25441,1.248896,18.14855
110.1,148.3268,126.4699,17.61196,1.464468,0.5804303,-0.3442791,-41.25441,1.248896,18.14855
110.11,63.3261399999999,135.247,25.12224,1.320339,0.4256809,-0.2619852,-43.07404,7.895548,9.935293
110.12,-6.366925,141.1966,30.00697,1.182762,0.2076344,-0.2275826,-43.07404,7.895548,9.935293
110.13,-53.16084,144.5542,36.78454,1.066746,-0.01971991,-0.2240277,-43.07404,7.895548,9.935293
110.14,-77.1178399999998,144.083,43.56211,0.9945889,-0.1995289,-0.2448674,-43.07404,7.895548,9.935293
110.15,-78.6734800000001,140.313,50.1565,0.9784873,-0.340281,-0.2760946,-43.07404,7.895548,9.935293
110.16,-62.2458299999999,135.0703,55.04123,0.9551833,-0.3867191,-0.3071377,-43.09372,11.73116,4.248728
110.17,-35.61312,130.2989,57.4225399999997,0.9563035,-0.4003313,-0.3148848,-43.09372,11.73116,4.248728
110.18,-11.46945,125.7631,59.2543099999999,0.9489209,-0.3925842,-0.3081315,-43.09372,11.73116,4.248728
110.19,22.13256,120.167,58.5826599999999,0.9249265,-0.3762469,-0.3004375,-43.09372,11.73116,4.248728
110.2,54.61451,111.2132,59.6817300000003,0.9309571,-0.351796,-0.2776896,-43.09372,11.73116,4.248728
110.21,83.4873500000001,103.0841,59.2543099999999,0.9013826,-0.315973,-0.2511487,-42.77544,13.40306,-0.5785398
110.22,106.5732,95.0727799999997,56.26241,0.8883455,-0.2781774,-0.2346944,-42.77544,13.40306,-0.5785398
110.23,120.8851,89.53557,51.62192,0.9003922,-0.2179726,-0.2234353,-42.77544,13.40306,-0.5785398
110.24,129.659,81.7598999999999,48.38578,0.8640029,-0.1774819,-0.2099307,-42.77544,13.40306,-0.5785398
110.25,132.1481,70.0375099999998,42.21881,0.8239765,-0.1057605,-0.2180831,-42.77544,13.40306,-0.5785398
110.26,124.3076,59.4343400000002,39.41008,0.7753752,-0.01009831,-0.1938753,-42.05261,16.51506,-5.867371
110.27,107.3821,51.0107,36.90666,0.751117,0.08750526,-0.1898677,-42.05261,16.51506,-5.867371
110.28,84.5451899999997,42.58707,34.52535,0.6715173,0.1321731,-0.2121742,-42.05261,16.51506,-5.867371
110.29,62.0193999999999,33.57438,34.70853,0.5981348,0.1366954,-0.2374462,-42.05261,16.51506,-5.867371
110.3,45.15616,18.61212,36.17395,0.5235881,0.147002,-0.2110762,-42.05261,16.51506,-5.867371
110.31,34.26662,5.475968,37.21195,0.4910347,0.1284053,-0.1528117,-40.21843,18.54577,-10.30687
110.32,28.16848,-5.83408200000001,36.41819,0.4686378,0.1250668,-0.1282666,-40.21843,18.54577,-10.30687
110.33,28.04403,-17.55648,32.57146,0.4933151,0.1162569,-0.05390941,-40.21843,18.54577,-10.30687
110.34,34.51553,-24.74307,25.85495,0.5208491,0.1076668,0.04217035,-40.21843,18.54577,-10.30687
110.35,48.51637,-29.80903,17.67302,0.5462238,0.07518388,0.1203389,-40.21843,18.54577,-10.30687
110.36,71.6644199999997,-34.0503,9.36897399999999,0.5952699,0.01784853,0.1594286,-39.55931,19.61558,-11.13938
110.37,100.7239,-38.23267,2.163991,0.6237383,-0.02363757,0.2028422,-39.55931,19.61558,-11.13938
110.38,122.9386,-41.2369,-2.598624,0.6459615,-0.0687006,0.2307905,-39.55931,19.61558,-11.13938
110.39,147.1445,-43.29863,-9.07089399999997,0.6874965,-0.05341433,0.2796679,-39.55931,19.61558,-11.13938
110.4,161.2698,-44.18222,-17.1307,0.7349389,-0.001077787,0.3532501,-39.55931,19.61558,-11.13938
110.41,168.0524,-41.76706,-25.31263,0.7912246,0.03460476,0.4504644,-39.1987,20.32486,-11.96896
110.42,167.6169,-37.40797,-33.1282,0.8692657,0.07976196,0.5598187,-39.1987,20.32486,-11.96896
110.43,160.9587,-34.63937,-39.66154,0.9124652,0.1128699,0.651203,-39.1987,20.32486,-11.96896
110.44,155.4206,-37.34907,-44.11885,0.9337687,0.04745982,0.7307379,-39.1987,20.32486,-11.96896
110.45,152.1226,-41.70815,-47.84346,1.005254,-0.03950402,0.8450994,-39.1987,20.32486,-11.96896
110.46,150.9403,-40.11767,-46.98864,1.065882,-0.07422978,1.018899,-39.83544,18.86573,-12.77339
110.47,148.0157,-29.39669,-41.85966,1.108813,0.01061308,1.211729,-39.83544,18.86573,-12.77339
110.48,134.6993,-14.43443,-32.70079,1.134127,0.07440404,1.339807,-39.83544,18.86573,-12.77339
110.49,107.7555,-3.065476,-18.22977,1.142565,0.1106739,1.329773,-39.83544,18.86573,-12.77339
110.5,67.8686399999998,3.532053,-2.903919,1.154005,0.1160004,1.214002,-41.21984,15.28572,-14.24636
110.51,21.32362,8.59801299999999,9.67427000000001,1.14501,0.04673312,1.001991,-41.21984,15.28572,-14.24636
110.52,-23.91464,15.90242,20.78704,1.13085,-0.07684188,0.7295313,-41.21984,15.28572,-14.24636
110.53,-54.28091,24.79731,30.00697,1.060072,-0.2303138,0.4640996,-41.21984,15.28572,-14.24636
110.54,-60.2546000000003,29.21529,35.38018,0.9869297,-0.3453659,0.2214241,-41.21984,15.28572,-14.24636
110.55,-44.82256,26.62341,37.39513,0.951413,-0.4507235,0.05462663,-41.18615,13.88266,-15.04538
110.56,-19.86996,21.1451,37.08984,0.9360906,-0.5444018,-0.06914677,-41.18615,13.88266,-15.04538
110.57,-0.579911399999998,17.25727,35.25806,0.8984116,-0.6085237,-0.1166716,-41.18615,13.88266,-15.04538
110.58,26.42615,10.71865,31.1671,0.8676786,-0.6899388,-0.1560123,-41.18615,13.88266,-15.04538
110.59,56.10793,-1.475,29.5185,0.9504709,-0.7975998,-0.1984946,-41.18615,13.88266,-15.04538
110.6,84.0473900000002,-21.79775,28.84685,1.235096,-0.7739747,-0.185646,-39.73901,15.24943,-15.87521
110.61,103.1507,-38.46829,25.61071,1.634824,-0.5555558,-0.0842579,-39.73901,15.24943,-15.87521
110.62,103.773,-34.63937,18.95526,1.903779,-0.1509394,0.2753568,-39.73901,15.24943,-15.87521
110.63,70.4821200000003,-6.36424099999997,7.96461200000002,1.930384,0.2187136,0.6694974,-39.73901,15.24943,-15.87521
110.64,18.27455,31.9839,-6.20111400000002,1.656911,0.3831929,0.7371851,-39.73901,15.24943,-15.87521
110.65,-6.92695900000001,46.82834,-15.05469,1.130059,0.3402087,0.2932367,-39.7645,17.3988,-17.48981
110.66,9.81182300000002,26.32887,-20.48896,0.6052066,0.1782788,-0.3005525,-39.7645,17.3988,-17.48981
110.67,68.1175400000001,-12.84396,-27.63288,0.2167952,0.0547028,-0.7848513,-39.7645,17.3988,-17.48981
110.68,141.7309,-52.78257,-35.02104,0.08913988,0.0008205767,-0.8533357,-39.7645,17.3988,-17.48981
110.69,181.2443,-69.7476499999998,-34.7768,0.2340478,-0.04021836,-0.5413237,-39.7645,17.3988,-17.48981
110.7,175.5195,-66.8612300000001,-29.46466,0.5321117,0.06815843,-0.214119,-39.44108,17.01472,-18.68157
110.71,146.2111,-57.73072,-26.65594,0.8254552,0.2154284,-0.07600195,-39.44108,17.01472,-18.68157
110.72,126.5477,-54.49086,-24.94628,1.069984,0.3274184,-0.1036009,-39.44108,17.01472,-18.68157
110.73,121.8185,-56.55259,-19.75625,1.329315,0.3612207,-0.1207137,-39.44108,17.01472,-18.68157
110.74,117.8983,-55.84571,-9.43724899999998,1.465525,0.3851298,-0.05613205,-39.44108,17.01472,-18.68157
110.75,104.4575,-48.36459,-2.84286,1.475326,0.3525868,0.02875186,-40.04624,13.45429,-18.63058
110.76,93.0079199999997,-42.00268,-1.560618,1.380851,0.2661903,0.02832247,-40.04624,13.45429,-18.63058
110.77,81.4961199999999,-36.22984,-4.002984,1.165164,0.1491994,0.01352078,-40.04624,13.45429,-18.63058
110.78,75.1490699999997,-35.75859,-10.59737,0.9960801,0.0299673,0.03164778,-40.04624,13.45429,-18.63058
110.79,76.8914000000001,-41.41362,-19.26778,0.8607379,0.01250575,-0.01651115,-40.04624,13.45429,-18.63058
110.8,86.1008399999997,-51.36882,-26.96123,0.7853196,0.03185205,-0.05961091,-40.73947,11.34433,-18.60351
110.81,101.3462,-61.5596399999999,-33.67774,0.779247,0.06964576,-0.1024922,-40.73947,11.34433,-18.60351
110.82,121.0718,-71.6915699999999,-40.33319,0.8170795,0.08757049,-0.1327566,-40.73947,11.34433,-18.60351
110.83,143.6599,-79.5850400000001,-44.54627,0.8577207,0.1279158,-0.201087,-40.73947,11.34433,-18.60351
110.84,164.5678,-86.3592800000001,-44.91262,0.9504596,0.1006549,-0.2448184,-40.73947,11.34433,-18.60351
110.85,187.8403,-86.2414699999998,-39.78365,0.9797143,0.1207575,-0.3474826,-42.17559,9.198282,-17.38193
110.86,211.2372,-90.42384,-33.86092,1.006207,0.08029857,-0.2958685,-42.17559,9.198282,-17.38193
110.87,227.9138,-85.9469399999997,-29.15936,1.005817,0.1219152,-0.2957801,-42.17559,9.198282,-17.38193
110.88,234.2608,-76.10955,-28.18242,0.9831725,0.08636536,-0.24766,-42.17559,9.198282,-17.38193
110.89,225.6737,-65.8009099999999,-25.61793,0.9507385,0.1069695,-0.189311,-42.17559,9.198282,-17.38193
110.9,202.4634,-56.14024,-21.22167,0.9417064,0.1718133,-0.1288763,-43.53934,6.03809,-15.32186
110.91,173.8394,-50.01397,-17.55812,0.9491689,0.2425229,-0.07610719,-43.53934,6.03809,-15.32186
110.92,153.056,-49.366,-14.7494,0.9950342,0.321034,-0.04976248,-43.53934,6.03809,-15.32186
110.93,143.5976,-48.83584,-14.19986,1.060096,0.4178645,0.00562405,-43.53934,6.03809,-15.32186
110.94,141.1708,-42.41503,-15.11575,1.114527,0.5083075,0.05952179,-43.53934,6.03809,-15.32186
110.95,139.6152,-34.9339,-16.33694,1.119686,0.5743582,0.08090923,-44.57764,2.197903,-14.06957
110.96,133.3304,-24.27182,-17.37494,1.102058,0.6376882,0.0887207,-44.57764,2.197903,-14.06957
110.97,123.7475,-15.25912,-17.55812,1.073003,0.574988,0.08368549,-44.57764,2.197903,-14.06957
110.98,112.0491,-10.95895,-17.86341,1.026867,0.4690303,0.07272264,-44.57764,2.197903,-14.06957
110.99,103.8975,-11.4302,-17.68024,0.9580476,0.3511007,0.04189105,-44.57764,2.197903,-14.06957
111,101.0973,-14.25771,-16.0927,0.9123297,0.2491232,0.042519,-44.89714,-0.6875246,-13.26817
111.01,103.6486,-17.08523,-10.29208,0.8710581,0.1959188,0.02782172,-44.89714,-0.6875246,-13.26817
111.02,103.3997,-21.3854,-4.552517,0.9000893,0.1555903,0.03842596,-44.89714,-0.6875246,-13.26817
111.03,104.3953,-20.26618,-1.621677,0.909314,0.1100086,0.02049746,-44.89714,-0.6875246,-13.26817
111.04,104.8931,-19.85383,-0.2173159,0.9250702,0.09211563,0.008435905,-44.89714,-0.6875246,-13.26817
111.05,103.773,-16.26053,-1.682736,0.9521044,0.06179392,0.003614954,-45.23441,-2.431151,-12.86435
111.06,98.42158,-11.90145,-0.583670900000002,0.987541,0.0725505,-0.01460738,-45.23441,-2.431151,-12.86435
111.07,91.3900499999998,-7.01221299999999,0.2711574,1.040976,0.07355696,-0.002886238,-45.23441,-2.431151,-12.86435
111.08,82.4295099999999,-3.124383,1.492341,1.055811,0.1002417,-0.008098649,-45.23441,-2.431151,-12.86435
111.09,72.5978099999997,-1.062655,0.1490391,1.034868,0.1086531,-0.02309359,-45.23441,-2.431151,-12.86435
111.1,65.7529500000003,-0.827028800000001,-3.270274,0.9694943,0.1370612,-0.03622994,-45.59502,-3.140424,-12.03477
111.11,61.7082699999999,-3.418916,-6.50640999999998,0.9082649,0.1332352,-0.03205314,-45.59502,-3.140424,-12.03477
111.12,60.4637499999999,-8.013624,-8.765598,0.8715855,0.1608818,-0.04704731,-45.59502,-3.140424,-12.03477
111.13,58.8458700000003,-14.72897,-10.35314,0.8734227,0.1701614,-0.03930185,-45.59502,-3.140424,-12.03477
111.14,55.85903,-21.32649,-10.59737,0.8802001,0.1646792,-0.009378125,-45.56493,-4.537299,-12.4547
111.15,53.55667,-25.68558,-9.98678199999998,0.8717281,0.1798395,0.01524261,-45.56493,-4.537299,-12.4547
111.16,53.05886,-30.63372,-8.33818400000001,0.8671325,0.1978855,0.03457151,-45.56493,-4.537299,-12.4547
111.17,57.6635799999999,-33.52015,-7.42229700000003,0.9116484,0.225176,0.01737322,-45.56493,-4.537299,-12.4547
111.18,68.7398000000001,-33.57905,-7.91077000000001,0.9978017,0.2348555,-0.05621374,-45.56493,-4.537299,-12.4547
111.19,78.5714999999997,-31.39951,-10.29208,1.102352,0.186573,-0.08017535,-45.86134,-5.603306,-11.2396
111.2,83.7984800000001,-26.15683,-11.33008,1.161785,0.1123147,-0.04833348,-45.86134,-5.603306,-11.2396
111.21,85.9141599999999,-19.73602,-11.87962,1.153975,0.04884674,0.003625203,-45.86134,-5.603306,-11.2396
111.22,89.1499100000001,-13.84537,-12.36809,1.108704,-0.0105888,0.0521181,-45.86134,-5.603306,-11.2396
111.23,94.31467,-9.54519299999999,-13.4061,1.065827,-0.06050673,0.08085314,-45.86134,-5.603306,-11.2396
111.24,100.8484,-7.83690400000002,-14.81046,1.047841,-0.07002744,0.1135996,-46.59247,-6.302992,-9.971218
111.25,106.4487,-4.714859,-16.0927,1.070817,-0.04427868,0.1581087,-46.59247,-6.302992,-9.971218
111.26,108.6266,-0.2968701,-16.33694,1.146817,0.0293198,0.2038225,-46.59247,-6.302992,-9.971218
111.27,109.1867,6.65409899999999,-15.23787,1.264744,0.1560407,0.2015038,-46.59247,-6.302992,-9.971218
111.28,111.1779,16.25586,-16.21482,1.386612,0.2444295,0.131556,-46.59247,-6.302992,-9.971218
111.29,116.4671,29.62764,-21.09955,1.460654,0.2538783,0.04297828,-46.19713,-8.051369,-9.560436
111.3,120.014,45.12005,-24.03039,1.47137,0.1144712,-0.02292042,-46.19713,-8.051369,-9.560436
111.31,117.4627,60.4946500000001,-20.7332,1.446637,-0.08696933,-0.06829431,-46.19713,-8.051369,-9.560436
111.32,111.9868,77.1062900000001,-13.1008,1.418142,-0.3622199,-0.08488365,-46.19713,-8.051369,-9.560436
111.33,103.4619,95.4851200000001,1.370222,1.370712,-0.6442618,-0.08705995,-46.19713,-8.051369,-9.560436
111.34,97.17706,106.9719,17.18455,1.340412,-0.8393894,-0.07211602,-46.14632,-10.18565,-10.7269
111.35,99.04384,122.5821,43.25681,1.242869,-1.030961,-0.1938992,-46.14632,-10.18565,-10.7269
111.36,130.7791,129.5331,64.8717600000002,1.101481,-1.090378,-0.3801728,-46.14632,-10.18565,-10.7269
111.37,173.2172,133.3031,81.7240800000001,1.072409,-1.097952,-0.3899151,-46.14632,-10.18565,-10.7269
111.38,202.9612,138.1923,90.6997799999999,1.230204,-1.13944,-0.3509934,-46.14632,-10.18565,-10.7269
111.39,213.7263,144.9666,88.1963600000002,1.361145,-0.9116904,-0.4833496,-45.71411,-11.35389,-15.50788
111.4,221.9401,150.6805,74.7633400000002,1.32025,-0.5077488,-0.7836971,-45.71411,-11.35389,-15.50788
111.41,252.8042,137.4266,63.1621,1.218993,-0.1773565,-0.9781978,-45.71411,-11.35389,-15.50788
111.42,286.904,114.9243,58.5215999999998,1.203315,0.1435026,-0.964037,-45.71411,-11.35389,-15.50788
111.43,290.6375,104.3211,48.63002,1.297372,0.3777307,-0.7784746,-45.71411,-11.35389,-15.50788
111.44,266.4317,104.9102,37.39513,1.364238,0.5528232,-0.5800808,-44.28139,-10.71007,-19.92908
111.45,213.7263,107.7377,29.15214,1.350211,0.5922758,-0.3807395,-44.28139,-10.71007,-19.92908
111.46,142.4153,111.2132,27.01507,1.278067,0.5679879,-0.2227017,-44.28139,-10.71007,-19.92908
111.47,67.7441900000002,118.5765,28.11414,1.220361,0.4273846,-0.1488403,-44.28139,-10.71007,-19.92908
111.48,0.04234824,125.174,31.28922,1.146086,0.2467265,-0.1016479,-44.28139,-10.71007,-19.92908
111.49,-48.86725,129.9454,37.27301,1.066454,0.09044535,-0.1364502,-43.86885,-12.1955,-21.92414
111.5,-72.0152999999999,129.8865,43.25681,0.9947609,-0.02342786,-0.1976811,-43.86885,-12.1955,-21.92414
111.51,-74.5043399999999,126.0576,46.554,0.9658087,-0.08693621,-0.2384264,-43.86885,-12.1955,-21.92414
111.52,-61.6235699999999,121.1095,48.5079,0.9513407,-0.1448455,-0.261268,-43.86885,-12.1955,-21.92414
111.53,-45.75595,114.8654,51.07238,0.949621,-0.1676441,-0.2656644,-43.86885,-12.1955,-21.92414
111.54,-20.55444,108.0911,52.96522,0.9098288,-0.1860022,-0.2281677,-41.68115,-11.94574,-27.97532
111.55,4.211487,100.4333,54.1864,0.8906167,-0.2164653,-0.2089808,-41.68115,-11.94574,-27.97532
111.56,26.61283,92.3041699999998,54.98017,0.8611589,-0.2478225,-0.172933,-41.68115,-11.94574,-27.97532
111.57,46.33846,83.9983500000001,53.63687,0.8379707,-0.2691172,-0.1532541,-41.68115,-11.94574,-27.97532
111.58,62.5172000000001,75.3391,49.54591,0.8300098,-0.2549735,-0.1344248,-41.68115,-11.94574,-27.97532
111.59,72.9089399999997,68.3881199999997,45.27176,0.7791307,-0.2186564,-0.1417162,-39.51081,-8.110989,-32.81961
111.6,78.8204000000001,58.4918300000003,39.8375,0.7231333,-0.1519826,-0.159089,-39.51081,-8.110989,-32.81961
111.61,77.07808,46.76944,35.92971,0.6744342,-0.08433671,-0.1822315,-39.51081,-8.110989,-32.81961
111.62,73.0956200000001,32.27843,33.5484,0.6254804,-0.04278212,-0.2006053,-39.51081,-8.110989,-32.81961
111.63,69.6731900000001,17.72852,31.96087,0.5829249,-0.006597659,-0.2295902,-39.51081,-8.110989,-32.81961
111.64,68.17976,4.003305,30.43439,0.5651213,0.01677843,-0.1982202,-36.99525,-7.797667,-34.82354
111.65,65.1929199999999,-6.776587,27.80884,0.5223196,0.0598716,-0.1591515,-36.99525,-7.797667,-34.82354
111.66,62.0193999999999,-15.08241,22.98517,0.5397267,0.0565619,-0.1123065,-36.99525,-7.797667,-34.82354
111.67,60.5882000000001,-20.26618,15.9023,0.5130707,0.1198023,-0.0002879176,-36.99525,-7.797667,-34.82354
111.68,62.6416500000002,-23.56494,6.68236999999997,0.5639256,0.08028176,0.02726356,-36.99525,-7.797667,-34.82354
111.69,76.6424900000001,-26.68699,-3.087097,0.5989413,0.05845949,0.09872417,-36.9885,-8.160188,-34.81771
111.7,98.04823,-28.45418,-12.85656,0.6469969,0.04968264,0.1567351,-36.9885,-8.160188,-34.81771
111.71,124.1831,-28.572,-21.28273,0.7060759,0.04151011,0.2717165,-36.9885,-8.160188,-34.81771
111.72,142.6642,-26.86371,-25.92323,0.7335926,0.03297702,0.3740695,-36.9885,-8.160188,-34.81771
111.73,162.3899,-25.74448,-31.96808,0.7893356,0.05571085,0.5378462,-36.9885,-8.160188,-34.81771
111.74,173.4661,-21.44431,-37.21917,0.8357243,0.1017426,0.66401,-37.71648,-9.216211,-33.16439
111.75,172.9683,-16.55507,-43.56932,0.9444699,0.1295232,0.8052545,-37.71648,-9.216211,-33.16439
111.76,162.0787,-8.83831500000002,-44.97368,1.006072,0.06224072,0.9104643,-37.71648,-9.216211,-33.16439
111.77,145.7755,-5.127204,-42.16496,1.0253,-0.07490588,0.9261432,-37.71648,-9.216211,-33.16439
111.78,128.7879,-8.77940799999998,-33.92197,1.023162,-0.1633184,0.9442844,-37.71648,-9.216211,-33.16439
111.79,108.8755,-16.26053,-24.7631,1.017049,-0.1022136,1.016782,-38.38841,-13.46832,-31.08043
111.8,82.5539600000001,-18.91133,-17.06965,0.9757464,0.032608,1.083557,-38.38841,-13.46832,-31.08043
111.81,50.7565,-15.78928,-11.4522,0.9250636,0.1092798,1.04354,-38.38841,-13.46832,-31.08043
111.82,21.63475,-14.84678,-5.04099,0.8531829,0.1022146,0.8604534,-38.38841,-13.46832,-31.08043
111.83,-2.384464,-18.55789,0.0879799099999998,0.8734791,0.009312278,0.6851408,-38.67851,-18.74377,-28.59736
111.84,-18.43876,-16.8496,6.25495599999998,0.9582524,-0.1338276,0.5711702,-38.67851,-18.74377,-28.59736
111.85,-31.19508,-6.776587,13.521,1.017942,-0.2522798,0.4793853,-38.67851,-18.74377,-28.59736
111.86,-42.0224,5.94721999999999,20.29856,1.013687,-0.3323651,0.3508441,-38.67851,-18.74377,-28.59736
111.87,-50.36068,14.07632,25.67177,1.019197,-0.3616692,0.2103736,-38.67851,-18.74377,-28.59736
111.88,-51.04516,16.07914,31.1671,1.124432,-0.5001086,0.06365256,-39.32779,-20.12289,-28.20227
111.89,-37.72881,15.90242,40.02068,1.325951,-0.716435,-0.002884509,-39.32779,-20.12289,-28.20227
111.9,-9.41599700000003,18.02306,53.33157,1.502161,-0.9427003,-0.02318353,-39.32779,-20.12289,-28.20227
111.91,23.31485,21.43963,54.06429,1.500101,-0.8595948,-0.08911937,-39.32779,-20.12289,-28.20227
111.92,48.76527,14.48866,39.22691,1.343191,-0.6493154,-0.1402222,-39.32779,-20.12289,-28.20227
111.93,72.8467100000001,-3.301102,10.40698,1.164761,-0.368959,-0.02378537,-40.08477,-18.0292,-29.82286
111.94,72.4733600000001,-8.13143699999999,-12.67339,1.078525,-0.1742971,0.275591,-40.08477,-18.0292,-29.82286
111.95,55.11232,-0.768122299999998,-30.38054,0.9328569,-0.004464673,0.3436198,-40.08477,-18.0292,-29.82286
111.96,51.0054,-5.36283,-40.7606,0.70634,0.0141763,0.08635969,-40.08477,-18.0292,-29.82286
111.97,68.8020200000001,-20.56071,-44.66839,0.5080414,-0.01460912,-0.195057,-40.08477,-18.0292,-29.82286
111.98,107.0088,-44.8891,-48.14876,0.4103561,0.001240511,-0.4437875,-40.84485,-16.92452,-29.08912
111.99,150.318,-73.1053199999999,-45.15686,0.5353599,0.1069522,-0.474121,-40.84485,-16.92452,-29.08912
112,172.7194,-85.5935099999999,-33.98303,0.7769273,0.2225502,-0.315456,-40.84485,-16.92452,-29.08912
112.01,167.3057,-83.5906799999998,-22.80921,1.036279,0.3110848,-0.167902,-40.84485,-16.92452,-29.08912
112.02,148.7001,-74.99033,-16.0927,1.25181,0.388056,-0.1367801,-40.84485,-16.92452,-29.08912
112.03,125.9877,-65.6241900000001,-12.00173,1.395072,0.3966662,-0.110817,-40.83242,-19.40241,-25.38361
112.04,101.284,-55.02102,-11.57432,1.379515,0.3447622,-0.1109687,-40.83242,-19.40241,-25.38361
112.05,83.7362499999999,-47.12755,-12.24597,1.241069,0.2304154,-0.1139843,-40.83242,-19.40241,-25.38361
112.06,73.8423299999997,-41.17799,-12.97868,1.108162,0.0817112,-0.06832207,-40.83242,-19.40241,-25.38361
112.07,71.1666099999999,-39.05736,-14.50516,0.9878094,-0.002164466,-0.03551691,-40.83242,-19.40241,-25.38361
112.08,74.8379400000003,-42.35612,-18.96248,0.8942415,-0.0318615,-0.02810129,-42.18637,-24.27563,-20.89436
112.09,85.2918999999999,-51.84007,-23.1145,0.8390871,-0.01325986,-0.01083179,-42.18637,-24.27563,-20.89436
112.1,99.97723,-64.0926200000001,-26.90017,0.8514259,0.06259608,0.01831604,-42.18637,-24.27563,-20.89436
112.11,110.5556,-72.6929800000001,-29.0983,0.8726668,0.1258246,0.03491341,-42.18637,-24.27563,-20.89436
112.12,124.1831,-81.88239,-30.50266,0.9045727,0.1454185,0.03359017,-42.18637,-24.27563,-20.89436
112.13,139.304,-89.9525799999999,-32.0902,0.9208714,0.1856967,-0.02129177,-43.66663,-25.64409,-16.46207
112.14,149.6335,-91.9554100000001,-32.21232,0.9390617,0.21444,-0.01587503,-43.66663,-25.64409,-16.46207
112.15,158.034,-91.7786899999997,-35.44845,0.9650594,0.1719297,-0.136054,-43.66663,-25.64409,-16.46207
112.16,166.6835,-85.6524100000002,-35.38739,0.9875374,0.1171158,-0.1694098,-43.66663,-25.64409,-16.46207
112.17,170.3548,-76.4040800000001,-33.61668,1.018621,0.1132269,-0.144728,-43.66663,-25.64409,-16.46207
112.18,168.2391,-70.45453,-28.54877,1.004546,0.2128677,-0.1382769,-44.04748,-28.01488,-10.04412
112.19,162.9499,-68.5106099999999,-25.12946,0.9852439,0.24856,-0.1348721,-44.04748,-28.01488,-10.04412
112.2,156.6029,-70.6312499999997,-22.0765,0.957454,0.2631523,-0.1561446,-44.04748,-28.01488,-10.04412
112.21,149.8202,-75.6383000000002,-18.16871,0.930064,0.273343,-0.1296531,-44.04748,-28.01488,-10.04412
112.22,139.6152,-78.4069100000002,-15.72634,0.9188035,0.2749265,-0.1055513,-44.04748,-28.01488,-10.04412
112.23,128.1656,-77.4644000000003,-15.11575,0.927712,0.2533677,-0.08916803,-43.70725,-30.01966,-3.119571
112.24,115.7204,-73.51767,-13.71139,0.9819919,0.2048897,-0.03846463,-43.70725,-30.01966,-3.119571
112.25,103.0885,-67.2146700000002,-12.73444,1.037073,0.2308144,-0.002075683,-43.70725,-30.01966,-3.119571
112.26,95.1858299999998,-57.02384,-13.16186,1.089903,0.232207,0.05259158,-43.70725,-30.01966,-3.119571
112.27,91.8256299999999,-47.42208,-13.77245,1.111763,0.2239872,0.08785635,-43.70725,-30.01966,-3.119571
112.28,94.4391200000002,-40.47111,-13.95563,1.082643,0.2123515,0.110436,-43.37883,-31.36084,3.7311
112.29,101.7196,-37.05453,-13.34504,1.037298,0.2246418,0.1171012,-43.37883,-31.36084,3.7311
112.3,108.5022,-35.99422,-12.06279,1.006073,0.2365012,0.1175287,-43.37883,-31.36084,3.7311
112.31,115.0359,-34.69827,-11.33008,0.9617124,0.2021335,0.1014163,-43.37883,-31.36084,3.7311
112.32,118.8939,-33.75577,-9.55936799999998,0.9345908,0.2011217,0.06660066,-43.37883,-31.36084,3.7311
112.33,116.716,-34.9339,-7.91077000000001,0.9053921,0.1712551,0.0003519594,-43.41727,-31.2949,7.774864
112.34,108.7511,-39.11626,-4.30828,0.8695832,0.1709061,-0.0605423,-43.41727,-31.2949,7.774864
112.35,96.7414799999998,-44.12332,-2.11015,0.8545663,0.1771821,-0.1025493,-43.41727,-31.2949,7.774864
112.36,80.4382799999998,-47.65771,1.919755,0.8833781,0.1675918,-0.1174546,-43.41727,-31.2949,7.774864
112.37,63.6372699999999,-49.01256,4.056826,0.9486133,0.1551178,-0.1081447,-43.41727,-31.2949,7.774864
112.38,46.96072,-48.12896,5.400127,1.026038,0.1355808,-0.08772001,-43.09663,-31.21898,12.58031
112.39,33.64436,-44.94801,5.522245,1.008469,0.1384879,-0.07231752,-43.09663,-31.21898,12.58031
112.4,23.68821,-43.76988,3.385175,0.9557889,0.1569639,-0.07096601,-43.09663,-31.21898,12.58031
112.41,16.40777,-46.6563,1.064927,0.9589842,0.1773718,-0.06464076,-43.09663,-31.21898,12.58031
112.42,13.04757,-51.60444,-0.9500259,0.9884421,0.1890312,-0.03172641,-43.09663,-31.21898,12.58031
112.43,13.42093,-56.49368,-2.476505,1.016035,0.1854049,0.02479517,-43.51698,-29.72015,15.39677
112.44,17.52784,-58.4965100000001,-3.209215,1.02881,0.1550414,0.08073851,-43.51698,-29.72015,15.39677
112.45,24.24824,-58.7910400000002,-3.209215,1.06804,0.1110702,0.1077679,-43.51698,-29.72015,15.39677
112.46,32.02649,-56.6704,-3.087097,1.099503,0.06841117,0.1260942,-43.51698,-29.72015,15.39677
112.47,41.11148,-53.43055,-2.232268,1.110784,0.01309622,0.1004293,-42.81394,-29.32323,17.79888
112.48,50.69427,-46.53848,-3.087097,1.112136,-0.07182594,0.07371001,-42.81394,-29.32323,17.79888
112.49,56.10793,-36.99563,-4.979931,1.068447,-0.1232188,0.04742921,-42.81394,-29.32323,17.79888
112.5,54.92564,-32.93108,-4.857812,1.072604,-0.1508022,0.04400279,-42.81394,-29.32323,17.79888
112.51,51.31653,-28.21856,-1.682736,1.123847,-0.1316432,0.08471023,-42.81394,-29.32323,17.79888
112.52,51.31653,-20.97306,0.3322166,1.148627,-0.08337631,0.1027322,-42.18398,-28.9053,21.46409
112.53,56.48129,-10.84114,0.6375124,1.184128,-0.02854909,0.08798262,-42.18398,-28.9053,21.46409
112.54,60.4637499999999,0.292195,-1.926973,1.272711,0.009023512,0.09939048,-42.18398,-28.9053,21.46409
112.55,57.4769000000001,13.72288,-6.07899599999999,1.323805,0.04274374,0.1449543,-42.18398,-28.9053,21.46409
112.56,45.21839,29.15639,-6.50640999999998,1.355569,0.1178756,0.1842842,-42.18398,-28.9053,21.46409
112.57,32.33762,44.70771,-3.514511,1.382019,0.1848838,0.2395071,-42.22803,-27.13354,22.63638
112.58,25.74167,61.1426200000003,0.6375124,1.364523,0.2463722,0.2043681,-42.22803,-27.13354,22.63638
112.59,23.93711,74.3965900000001,4.789536,1.391268,0.2648401,0.1369199,-42.22803,-27.13354,22.63638
112.6,18.71013,86.35461,12.60511,1.427279,0.2080459,0.1402685,-42.22803,-27.13354,22.63638
112.61,14.66545,101.6114,25.91601,1.384455,0.01243845,0.1131974,-42.22803,-27.13354,22.63638
112.62,14.541,120.2848,43.8674,1.317906,-0.2401432,0.06760571,-43.25597,-26.44196,20.15068
112.63,16.59445,136.7197,64.1390500000001,1.290339,-0.4022829,0.03582037,-43.25597,-26.44196,20.15068
112.64,16.28332,153.5669,84.2885700000002,1.350662,-0.5676485,0.0529922,-43.25597,-26.44196,20.15068
112.65,12.54976,161.2248,94.6075699999999,1.390115,-0.6081321,-0.01551501,-43.25597,-26.44196,20.15068
112.66,12.23864,163.9345,93.32533,1.385999,-0.4683918,-0.2376802,-43.25597,-26.44196,20.15068
112.67,32.39984,164.4057,76.6561699999999,1.304069,-0.1786647,-0.6097963,-46.46154,-25.47832,14.92233
112.68,78.7581800000001,147.6174,62.7957500000001,1.189137,0.06561059,-0.8431212,-46.46154,-25.47832,14.92233
112.69,113.1691,128.8262,56.873,1.179308,0.1713379,-0.8096234,-46.46154,-25.47832,14.92233
112.7,140.673,110.6241,48.93531,1.232032,0.3096857,-0.6485013,-46.46154,-25.47832,14.92233
112.71,135.5083,106.9719,39.47114,1.329346,0.4380325,-0.401392,-46.46154,-25.47832,14.92233
112.72,94.5013400000001,112.1557,34.83065,1.349118,0.5420166,-0.1593605,-50.45057,-20.56239,7.158682
112.73,37.44014,120.2848,33.12099,1.298906,0.5798155,-0.05759088,-50.45057,-20.56239,7.158682
112.74,-28.39491,124.4082,34.83065,1.208393,0.5723944,0.001995784,-50.45057,-20.56239,7.158682
112.75,-81.9714599999999,122.1109,40.1428,1.134027,0.4724331,-0.01723031,-50.45057,-20.56239,7.158682
112.76,-118.4359,120.9916,44.53905,1.145399,0.30105,-0.03445863,-50.45057,-20.56239,7.158682
112.77,-138.5971,122.641,49.48485,1.118747,0.1531723,-0.09516388,-52.61317,-16.35144,1.382798
112.78,-137.5392,122.4643,51.56086,1.054025,0.0694902,-0.1418354,-52.61317,-16.35144,1.382798
112.79,-131.0055,121.2273,48.87426,1.025069,0.05637405,-0.1757167,-52.61317,-16.35144,1.382798
112.8,-117.6892,120.8738,44.90541,0.9734511,0.07174823,-0.1970489,-52.61317,-16.35144,1.382798
112.81,-103.5016,118.3409,39.10479,0.9241074,0.0466553,-0.2001254,-52.61317,-16.35144,1.382798
112.82,-89.8741499999999,114.3352,31.65557,0.8822083,0.05554965,-0.197319,-52.92232,-15.45277,-6.661557
112.83,-78.4245799999997,109.3282,24.45059,0.8491735,0.04912782,-0.1834241,-52.92232,-15.45277,-6.661557
112.84,-70.7085599999999,101.1401,19.62691,0.8156695,0.03608077,-0.1526555,-52.92232,-15.45277,-6.661557
112.85,-63.9259300000001,93.8357399999998,14.49794,0.7511943,0.01764064,-0.1562392,-52.92232,-15.45277,-6.661557
112.86,-59.1345299999999,85.4710199999998,10.59016,0.7267144,0.03350333,-0.1470998,-52.92232,-15.45277,-6.661557
112.87,-57.01885,76.2226900000002,6.62131099999999,0.697176,0.07483533,-0.1533603,-53.27979,-12.36558,-13.91953
112.88,-56.33437,69.1539099999999,5.15589,0.6964769,0.09663834,-0.1499374,-53.27979,-12.36558,-13.91953
112.89,-55.7121,60.5535600000001,1.675518,0.6627406,0.1162477,-0.1466044,-53.27979,-12.36558,-13.91953
112.9,-54.21869,51.8354,-1.316381,0.6368201,0.128289,-0.1307213,-53.27979,-12.36558,-13.91953
112.91,-50.54735,41.40894,-4.857812,0.6300165,0.1254157,-0.1215765,-53.27979,-12.36558,-13.91953
112.92,-44.88479,33.04422,-9.07089399999997,0.6700457,0.09421789,-0.07425059,-52.52792,-10.99958,-18.80106
112.93,-37.60435,28.97967,-12.67339,0.6823246,0.06388119,-0.01493064,-52.52792,-10.99958,-18.80106
112.94,-33.18631,25.85762,-15.35999,0.7099442,0.05688503,0.04351396,-52.52792,-10.99958,-18.80106
112.95,-34.1197,24.67949,-19.32883,0.7348429,0.0351515,0.08020516,-52.52792,-10.99958,-18.80106
112.96,-38.47552,20.90948,-20.61108,0.730297,0.007342046,0.05938406,-52.52792,-10.99958,-18.80106
112.97,-41.02678,12.30912,-21.16061,0.711913,-0.05003924,0.04473682,-51.85064,-10.31187,-20.82823
112.98,-43.08024,2.530643,-21.58802,0.7036755,-0.09963327,0.0262721,-51.85064,-10.31187,-20.82823
112.99,-45.6315,-7.895811,-21.7712,0.7011392,-0.1403048,0.02617812,-51.85064,-10.31187,-20.82823
113,-49.30283,-17.02632,-21.95438,0.6908087,-0.1805137,0.03040798,-51.85064,-10.31187,-20.82823
113.01,-54.34314,-23.85948,-21.03849,0.682869,-0.2229173,0.05731907,-51.85064,-10.31187,-20.82823
113.02,-60.3790499999999,-29.5145,-19.14566,0.6953873,-0.2205456,0.09451272,-51.11644,-10.02688,-21.58434
113.03,-66.0416099999999,-33.16671,-16.52011,0.7633605,-0.2286566,0.1554717,-51.11644,-10.02688,-21.58434
113.04,-72.1397599999997,-34.34483,-11.08585,0.9131178,-0.2156857,0.2827962,-51.11644,-10.02688,-21.58434
113.05,-77.7400999999998,-29.16106,-3.270274,1.056642,-0.2147744,0.4197296,-51.11644,-10.02688,-21.58434
113.06,-80.6647100000003,-20.38399,3.812589,1.158654,-0.2022911,0.587464,-51.77563,-10.68715,-21.58002
113.07,-81.4114199999999,-10.13426,8.330968,1.213348,-0.2057726,0.689898,-51.77563,-10.68715,-21.58002
113.08,-86.5761799999998,4.180025,10.04062,1.206337,-0.172591,0.832303,-51.77563,-10.68715,-21.58002
113.09,-93.9810599999999,19.43681,10.65122,1.13323,-0.1809723,0.931019,-51.77563,-10.68715,-21.58002
113.1,-97.03014,25.03293,4.667417,0.9785938,-0.2033002,0.8432309,-51.77563,-10.68715,-21.58002
113.11,-91.36758,21.85198,-4.247221,0.9399772,-0.2525359,0.7305916,-51.77563,-10.68715,-21.58002
113.12,-84.9583099999998,18.49431,-14.81046,0.9716946,-0.2442449,0.6573437,-52.52992,-9.299946,-22.05163
113.13,-83.0293000000001,18.4354,-24.94628,1.061806,-0.1923563,0.5920611,-52.52992,-9.299946,-22.05163
113.14,-81.2247499999998,22.9712,-32.51761,1.145341,-0.1157497,0.5364655,-52.52992,-9.299946,-22.05163
113.15,-79.2957499999998,30.98249,-35.14316,1.172252,-0.07042612,0.4951332,-52.52992,-9.299946,-22.05163
113.16,-82.2825899999999,39.2294,-31.60173,1.160465,-0.04854633,0.4633016,-52.91391,-7.161599,-24.4911
113.17,-85.3316599999997,43.52958,-23.90827,1.233793,-0.1142558,0.3591189,-52.91391,-7.161599,-24.4911
113.18,-71.1441400000001,41.64457,-11.14691,1.430944,-0.250244,0.1904429,-52.91391,-7.161599,-24.4911
113.19,-28.76827,34.39907,2.408228,1.701018,-0.3655163,-0.05086532,-52.91391,-7.161599,-24.4911
113.2,31.15532,39.2294,9.85744699999997,1.850425,-0.3272046,-0.06342644,-52.91391,-7.161599,-24.4911
113.21,51.93879,56.78354,10.2238,1.531778,-0.1657323,-0.1811605,-51.86244,-6.899197,-26.50798
113.22,33.70659,47.65303,9.55215100000001,1.138295,-0.1665862,-0.4702588,-51.86244,-6.899197,-26.50798
113.23,5.89158800000002,31.27702,9.06367800000002,0.7240316,-0.3550617,-0.512749,-51.86244,-6.899197,-26.50798
113.24,-12.83842,9.95286299999998,6.74342900000002,0.314431,-0.5009061,-0.4480097,-51.86244,-6.899197,-26.50798
113.25,-29.0794,-19.67711,2.835642,0.1488672,-0.4899907,-0.3832692,-51.86244,-6.899197,-26.50798
113.26,-24.22577,-43.29863,-8.765598,0.1971773,-0.3625334,-0.3515049,-51.46911,-6.947936,-29.34777
113.27,-10.28716,-53.60727,-20.18366,0.3344334,-0.2060062,-0.2325899,-51.46911,-6.947936,-29.34777
113.28,8.50507799999999,-58.3197899999998,-32.51761,0.6136749,-0.007041696,-0.09198543,-51.46911,-6.947936,-29.34777
113.29,39.30692,-64.4460600000002,-41.12696,0.8744993,0.2661664,-0.2325947,-51.46911,-6.947936,-29.34777
113.3,76.4558199999999,-83.9441199999999,-41.61543,1.100396,0.4137142,-0.3253094,-51.46911,-6.947936,-29.34777
113.31,92.3856599999997,-92.0143099999998,-33.49456,1.344413,0.4643495,-0.1281739,-51.13973,-6.185087,-26.8918
113.32,76.3935899999997,-81.5878599999999,-23.1145,1.478503,0.5180995,0.0797835,-51.13973,-6.185087,-26.8918
113.33,37.68905,-67.5681100000002,-14.56622,1.427928,0.5414209,0.1863465,-51.13973,-6.185087,-26.8918
113.34,-6.86473199999998,-57.5540000000002,-7.30017899999999,1.293058,0.4991527,0.2303023,-51.13973,-6.185087,-26.8918
113.35,-42.0224,-50.13178,-1.194263,1.12401,0.3905905,0.1977847,-51.13973,-6.185087,-26.8918
113.36,-65.23267,-48.18787,2.652465,0.9935063,0.2766982,0.1315766,-52.52166,-8.963182,-23.63706
113.37,-77.6778599999999,-48.4824,3.75153,0.9042625,0.1698902,0.06404256,-52.52166,-8.963182,-23.63706
113.38,-78.3623500000001,-51.89898,2.957761,0.8189077,0.1116173,0.008686582,-52.52166,-8.963182,-23.63706
113.39,-76.8689299999997,-58.7321300000002,-0.5226117,0.7926487,0.1161332,-0.004400251,-52.52166,-8.963182,-23.63706
113.4,-74.5665700000001,-67.0379499999999,-5.468404,0.8198943,0.1082944,0.01495512,-52.52166,-8.963182,-23.63706
113.41,-75.8110900000001,-75.3437700000001,-10.65843,0.8691708,0.08698036,0.02372226,-53.65691,-8.191865,-21.25819
113.42,-74.9399299999997,-82.5892700000002,-16.21482,0.9564736,0.0576262,0.02050647,-53.65691,-8.191865,-21.25819
113.43,-72.0775300000001,-86.4181900000001,-19.57307,0.9987746,0.01223236,-0.005057109,-53.65691,-8.191865,-21.25819
113.44,-66.1038400000001,-87.8319499999998,-19.81731,1.011983,-0.04770062,-0.008047181,-53.65691,-8.191865,-21.25819
113.45,-59.1345299999999,-87.8319499999998,-17.19176,1.015951,-0.1091005,-0.004791103,-53.65691,-8.191865,-21.25819
113.46,-55.77433,-85.9469399999997,-13.22292,1.038034,-0.1330641,0.001970015,-54.79681,-7.763492,-17.67298
113.47,-51.66742,-82.1180199999998,-8.70453900000002,1.052297,-0.1522624,0.007273566,-54.79681,-7.763492,-17.67298
113.48,-47.37383,-76.5807999999998,-4.491457,1.043427,-0.1481834,0.03766004,-54.79681,-7.763492,-17.67298
113.49,-44.38698,-70.2189000000002,-1.316381,0.9749308,-0.09473088,0.0139534,-54.79681,-7.763492,-17.67298
113.5,-40.46675,-68.8640499999999,-1.499558,0.9055807,-0.05480931,-0.006889232,-54.79681,-7.763492,-17.67298
113.51,-38.59997,-71.2792199999999,-1.37744,0.889615,-0.001989372,-0.03866508,-55.86638,-8.053344,-13.63325
113.52,-40.03117,-74.2834499999999,-1.743795,0.9290674,0.03671747,-0.02014326,-55.86638,-8.053344,-13.63325
113.53,-43.45359,-74.5190800000002,-1.743795,0.9826058,0.07369509,0.00902724,-55.86638,-8.053344,-13.63325
113.54,-47.5605,-72.5162599999998,-2.354387,1.004874,0.07980367,0.02309172,-55.86638,-8.053344,-13.63325
113.55,-52.84971,-69.6887399999998,-2.415446,0.9780822,0.08540633,0.02351721,-55.86638,-8.053344,-13.63325
113.56,-58.3255999999997,-66.7434199999998,-2.84286,0.9105939,0.07617285,0.02380586,-57.01304,-7.26245,-10.05388
113.57,-64.4859599999999,-65.8598199999999,-1.865914,0.8814187,0.08019527,0.01215809,-57.01304,-7.26245,-10.05388
113.58,-73.5709499999999,-65.4474699999998,0.3322166,0.9007405,0.100448,-0.01235853,-57.01304,-7.26245,-10.05388
113.59,-86.0161400000003,-64.3282499999999,3.324116,0.9680672,0.1317881,-0.02948927,-57.01304,-7.26245,-10.05388
113.6,-98.89692,-60.79386,5.461186,1.042398,0.1470501,-0.06449082,-57.01304,-7.26245,-10.05388
113.61,-108.1686,-54.60868,6.13283699999997,1.075086,0.1492551,-0.1160345,-57.77989,-7.198973,-6.459362
113.62,-112.7733,-49.48381,3.690471,1.056786,0.1368202,-0.1373406,-57.77989,-7.198973,-6.459362
113.63,-113.3956,-46.95083,0.2711574,0.9977262,0.106473,-0.1245293,-57.77989,-7.198973,-6.459362
113.64,-109.3509,-48.77693,-2.232268,0.9336246,0.04177865,-0.1060143,-57.77989,-7.198973,-6.459362
113.65,-103.4394,-51.60444,-2.781801,0.8975248,-0.005178301,-0.07677289,-57.77989,-7.198973,-6.459362
113.66,-96.9679099999997,-55.37446,-1.072144,0.8710969,-0.06361827,0.0118223,-58.53532,-7.155071,-4.065337
113.67,-93.1099000000001,-56.78822,3.873648,0.9194129,-0.1009241,0.07218532,-58.53532,-7.155071,-4.065337
113.68,-87.88293,-55.13884,11.13969,0.9905046,-0.1176509,0.08777425,-58.53532,-7.155071,-4.065337
113.69,-77.6778599999999,-47.95224,17.8562,1.086074,-0.1394477,0.05709076,-58.53532,-7.155071,-4.065337
113.7,-60.2546000000003,-37.82032,20.60386,1.127758,-0.2155635,0.006366998,-58.53532,-7.155071,-4.065337
113.71,-37.66658,-29.16106,17.06243,1.138388,-0.2963344,-0.05071999,-58.50806,-6.746582,-1.22732
113.72,-21.1767,-25.15542,11.8724,1.151898,-0.3458078,-0.02135603,-58.50806,-6.746582,-1.22732
113.73,-23.97687,-18.97023,8.94155999999999,1.202043,-0.2880529,0.1135286,-58.50806,-6.746582,-1.22732
113.74,-40.65343,-8.48487599999998,12.29981,1.219,-0.09840288,0.1993912,-58.50806,-6.746582,-1.22732
113.75,-51.66742,1.352512,19.56585,1.222193,0.1244759,0.2259362,-59.27122,-5.695114,-0.05031776
113.76,-46.37821,11.48443,25.36647,1.241313,0.3340575,0.1603269,-59.27122,-5.695114,-0.05031776
113.77,-34.80419,21.67526,27.74778,1.265634,0.4612193,0.07380418,-59.27122,-5.695114,-0.05031776
113.78,-33.55967,28.92076,26.89295,1.313781,0.4671479,0.04595327,-59.27122,-5.695114,-0.05031776
113.79,-48.92948,38.22799,29.33532,1.447834,0.3626441,0.09384666,-59.27122,-5.695114,-0.05031776
113.8,-74.1309899999999,53.48478,35.5023,1.503002,0.2085307,0.1819641,-60.00277,-5.341238,-0.8845034
113.81,-101.946,73.1006499999998,45.76024,1.478349,0.06725263,0.2597697,-60.00277,-5.341238,-0.8845034
113.82,-120.6138,90.94932,58.88796,1.375019,-0.1027421,0.2272895,-60.00277,-5.341238,-0.8845034
113.83,-132.6234,104.6745,74.94652,1.384726,-0.3072257,0.4030053,-60.00277,-5.341238,-0.8845034
113.84,-138.9082,121.6985,86.7920000000001,1.41827,-0.3859634,0.496537,-60.00277,-5.341238,-0.8845034
113.85,-133.6812,140.6664,96.1951099999999,1.377317,-0.3413313,0.3840934,-60.35606,-3.664983,-5.718152
113.86,-102.0704,141.9624,100.164,1.266197,-0.2385371,0.1287595,-60.35606,-3.664983,-5.718152
113.87,-58.4500499999999,132.4195,101.8126,1.172996,-0.1330384,-0.1105983,-60.35606,-3.664983,-5.718152
113.88,-18.62544,119.7546,101.263,1.145252,0.002331579,-0.2078537,-60.35606,-3.664983,-5.718152
113.89,13.66983,116.9271,96.01193,1.150514,0.2210607,-0.213643,-60.35606,-3.664983,-5.718152
113.9,31.90203,124.0548,86.1813999999999,1.132049,0.4774888,-0.2044535,-59.99696,0.4978032,-13.42895
113.91,23.93711,132.4784,70.9776800000001,1.117161,0.7525965,-0.3259853,-59.99696,0.4978032,-13.42895
113.92,-10.47384,135.1292,54.85805,1.137207,0.919928,-0.4085723,-59.99696,0.4978032,-13.42895
113.93,-67.8461699999999,135.3648,38.79949,1.183923,0.9437761,-0.3273323,-59.99696,0.4978032,-13.42895
113.94,-132.6856,136.0128,28.54155,1.197275,0.8802872,-0.1894254,-59.99696,0.4978032,-13.42895
113.95,-186.0755,138.7814,18.71103,1.207173,0.7909428,-0.1244479,-58.56798,6.399467,-21.53661
113.96,-219.7397,141.1966,10.89545,1.220209,0.6905764,-0.1033979,-58.56798,6.399467,-21.53661
113.97,-233.6161,143.8474,3.690471,1.195515,0.5930535,-0.1630247,-58.56798,6.399467,-21.53661
113.98,-233.1183,141.6678,-2.11015,1.193369,0.5248315,-0.2128794,-58.56798,6.399467,-21.53661
113.99,-226.5223,135.7772,-5.712641,1.219347,0.4542458,-0.2274407,-58.56798,6.399467,-21.53661
114,-219.2419,131.7715,-6.14005499999998,1.248396,0.3234153,-0.2705938,-56.07108,9.493807,-27.18773
114.01,-211.5259,126.5878,-4.002984,1.23965,0.2249165,-0.2915777,-56.07108,9.493807,-27.18773
114.02,-206.3611,122.2876,-2.415446,1.212009,0.1651882,-0.2903298,-56.07108,9.493807,-27.18773
114.03,-202.192,120.0491,-4.613576,1.152851,0.1501728,-0.2943751,-56.07108,9.493807,-27.18773
114.04,-200.8853,118.5765,-8.21606599999997,1.096826,0.1651472,-0.3026907,-56.07108,9.493807,-27.18773
114.05,-199.2674,115.2188,-13.83351,0.9907635,0.1754106,-0.3072851,-52.88253,14.40837,-32.10284
114.06,-195.2227,106.7363,-20.00049,0.9026791,0.1792719,-0.2862718,-52.88253,14.40837,-32.10284
114.07,-191.9247,97.0166900000001,-25.12946,0.8525204,0.2286209,-0.2447959,-52.88253,14.40837,-32.10284
114.08,-190.8669,89.2999400000003,-29.03724,0.8349696,0.2799715,-0.2239811,-52.88253,14.40837,-32.10284
114.09,-193.4804,82.17225,-31.11325,0.8358155,0.3382803,-0.1987611,-52.88253,14.40837,-32.10284
114.1,-198.7696,76.5761300000003,-33.00609,0.8456153,0.383791,-0.2049111,-49.72305,19.66521,-34.55865
114.11,-206.2989,70.8032900000002,-35.20422,0.8405614,0.4064312,-0.2121137,-49.72305,19.66521,-34.55865
114.12,-215.695,64.7359200000001,-38.13506,0.8319738,0.3908208,-0.2184425,-49.72305,19.66521,-34.55865
114.13,-225.5889,57.7260499999999,-41.67649,0.8567104,0.3473793,-0.227158,-49.72305,19.66521,-34.55865
114.14,-233.305,51.71758,-45.52322,0.9298529,0.2771223,-0.2459398,-49.72305,19.66521,-34.55865
114.15,-236.354,49.06679,-47.17181,0.9869352,0.2011742,-0.2382351,-46.92785,23.22478,-33.76737
114.16,-236.6652,49.71476,-48.57618,1.042648,0.1192937,-0.2430929,-46.92785,23.22478,-33.76737
114.17,-233.3672,50.42164,-48.63723,1.060373,0.04673427,-0.2547844,-46.92785,23.22478,-33.76737
114.18,-226.709,49.95039,-48.393,1.047108,-0.029749,-0.2988949,-46.92785,23.22478,-33.76737
114.19,-213.7038,47.3585,-47.35499,1.023221,-0.1215644,-0.3170082,-46.92785,23.22478,-33.76737
114.2,-198.2718,42.99942,-45.76745,1.0175,-0.1793967,-0.338862,-46.31141,27.86451,-30.61194
114.21,-179.9151,39.05268,-44.97368,0.9695027,-0.2615244,-0.2822216,-46.31141,27.86451,-30.61194
114.22,-165.1676,33.75109,-44.7905,0.9772311,-0.3526838,-0.3084553,-46.31141,27.86451,-30.61194
114.23,-155.8959,33.04422,-45.46216,0.9536304,-0.3770391,-0.3056732,-46.31141,27.86451,-30.61194
114.24,-144.3219,33.75109,-46.50016,0.9024811,-0.4251166,-0.2803334,-46.31141,27.86451,-30.61194
114.25,-130.8188,31.92499,-48.45406,0.8162329,-0.4665741,-0.2420411,-46.75922,30.46325,-27.05478
114.26,-117.7514,29.21529,-50.28583,0.7830279,-0.4677449,-0.1827757,-46.75922,30.46325,-27.05478
114.27,-106.2396,26.09325,-50.40795,0.7466992,-0.4396476,-0.148548,-46.75922,30.46325,-27.05478
114.28,-93.4832599999998,22.0287,-48.45406,0.7717517,-0.4396469,-0.06355483,-46.75922,30.46325,-27.05478
114.29,-80.1669100000001,16.78602,-44.24097,0.8480244,-0.4614115,0.03213976,-46.75922,30.46325,-27.05478
114.3,-67.41058,13.54616,-39.53942,0.9794098,-0.5128965,0.1650689,-47.54009,32.24698,-25.44716
114.31,-58.4500499999999,15.96133,-32.94503,1.120945,-0.4821073,0.3961584,-47.54009,32.24698,-25.44716
114.32,-59.0100800000003,27.27138,-26.1064,1.208345,-0.372632,0.5988071,-47.54009,32.24698,-25.44716
114.33,-71.7041800000001,39.40612,-20.24472,1.256095,-0.2510312,0.6788123,-47.54009,32.24698,-25.44716
114.34,-94.5410999999999,49.36132,-16.64223,1.258774,-0.1349247,0.7253934,-47.54009,32.24698,-25.44716
114.35,-120.9871,60.9070000000002,-18.22977,1.203474,-0.09802198,0.7330509,-48.27061,31.54627,-24.24196
114.36,-136.6681,71.0978199999997,-22.56497,1.109399,-0.09904534,0.6478776,-48.27061,31.54627,-24.24196
114.37,-137.2903,73.8664299999997,-27.44971,1.025072,-0.09351159,0.5304126,-48.27061,31.54627,-24.24196
114.38,-128.952,70.6265699999999,-30.99114,0.974885,-0.05317966,0.4319299,-48.27061,31.54627,-24.24196
114.39,-117.378,63.0276299999998,-34.04409,0.9372987,-0.01778294,0.3653173,-48.27061,31.54627,-24.24196
114.4,-108.9153,56.19448,-36.4254,0.9199235,0.03064409,0.3306331,-48.27061,31.54627,-24.24196
114.41,-100.577,51.06961,-39.29518,0.9147396,0.06496843,0.3311761,-48.27061,31.54627,-24.24196
114.42,-91.6787000000003,50.42164,-41.43225,0.9150341,0.08201876,0.3432772,-48.27061,31.54627,-24.24196
114.43,-73.1975999999999,49.47913,-45.76745,0.8844498,0.09149498,0.2939987,-48.27061,31.54627,-24.24196
114.44,-49.92509,42.76379,-50.16371,0.8665704,0.03780916,0.2595762,-48.27061,31.54627,-24.24196
114.45,-29.70166,33.45656,-51.26278,0.9605528,0.01314376,0.2872709,-47.20906,33.35793,-23.88159
114.46,-14.64298,20.14369,-48.69829,1.187794,0.002432249,0.2453696,-47.20906,33.35793,-23.88159
114.47,-0.3310075,2.648455,-40.88272,1.521691,-0.05520238,0.114371,-47.20906,33.35793,-23.88159
114.48,13.29648,-9.309567,-29.64783,1.679307,-0.2042962,-0.1311604,-47.20906,33.35793,-23.88159
114.49,18.52345,-10.31098,-5.712641,1.501773,-0.7009038,-0.3609315,-47.5572,32.97821,-25.07973
114.5,22.63037,2.05939,25.48859,1.193873,-1.067719,-0.4686749,-47.5572,32.97821,-25.07973
114.51,15.84774,18.02306,46.06553,0.7519957,-1.082867,-0.4259351,-47.5572,32.97821,-25.07973
114.52,-0.704363199999999,16.07914,41.1808,0.1975724,-0.7896652,-0.2781096,-47.5572,32.97821,-25.07973
114.53,-22.8568,-17.96882,18.83314,0.0134688,-0.6122501,-0.4075261,-47.5572,32.97821,-25.07973
114.54,-19.30992,-47.65771,-8.64347999999997,0.2861779,-0.3383332,-0.2677424,-47.90685,31.89919,-24.6866
114.55,1.597997,-61.97199,-35.93693,0.5895123,0.1307787,-0.08258303,-47.90685,31.89919,-24.6866
114.56,31.0931,-69.9832800000001,-55.59798,0.9646362,0.5531934,-0.03824316,-47.90685,31.89919,-24.6866
114.57,70.7310299999997,-77.4644000000003,-62.6197799999997,1.203664,0.8608773,-0.1474689,-47.90685,31.89919,-24.6866
114.58,88.65211,-92.8390000000003,-58.2845800000002,1.32708,0.9081804,-0.1069974,-47.90685,31.89919,-24.6866
114.59,64.6951100000001,-97.0213600000003,-40.39425,1.455999,0.792345,0.08272777,-46.83286,32.63669,-23.48734
114.6,23.06595,-85.0044400000001,-18.04659,1.399517,0.6302863,0.1377268,-46.83286,32.63669,-23.48734
114.61,-20.42999,-70.74906,-0.2783751,1.194047,0.5152231,0.1133047,-46.83286,32.63669,-23.48734
114.62,-50.79626,-61.7952700000002,7.231902,1.049189,0.3732596,0.05906295,-46.83286,32.63669,-23.48734
114.63,-82.5937199999999,-55.19774,12.05558,0.9506647,0.223651,-0.02402863,-46.83286,32.63669,-23.48734
114.64,-106.6129,-52.60585,12.42193,0.8893782,0.144576,-0.09915175,-49.36438,29.49741,-20.61689
114.65,-121.8583,-52.1346,9.79638799999998,0.9226033,0.07278837,-0.09246471,-49.36438,29.49741,-20.61689
114.66,-129.5121,-50.83866,3.507293,0.9551983,0.02023081,-0.09924932,-49.36438,29.49741,-20.61689
