Time (s),Gyroscope X (deg/s),Gyroscope Y (deg/s),Gyroscope Z (deg/s),Accelerometer X (g),Accelerometer Y (g),Accelerometer Z (g),Magnetometer X (uT),Magnetometer Y (uT),Magnetometer Z (uT)
83.627115726,2.106761,0.4074717,-1.133532,0.9531575,0.1217493,0.1589697,-56.56999,-10.93221,8.16767
83.637003899,2.106761,0.4663143,-1.133532,0.9521969,0.1246729,0.1589538,-56.56999,-10.93221,8.16767
83.646891117,2.231097,0.4074717,-1.194624,0.9550962,0.1232567,0.1623307,-56.56999,-10.93221,8.16767
83.656779289,2.231097,0.2309443,-1.194624,0.9565493,0.124765,0.1656912,-56.56999,-10.93221,8.16767
83.666666984,2.293265,0.05441685,-1.133532,0.9555672,0.1228479,0.1676235,-56.88412,-10.9276,8.160521
83.676554203,1.982425,0.2897868,-1.194624,0.9618924,0.1262225,0.1661709,-56.88412,-10.9276,8.160521
83.686442375,1.920256,0.2897868,-1.133532,0.9551102,0.1306328,0.1671027,-56.88412,-10.9276,8.160521
83.696329594,1.422911,0.1132593,-1.316806,0.9555879,0.1331673,0.1738233,-56.88412,-10.9276,8.160521
83.706217766,0.676893200000001,-0.06326813,-1.255715,0.9594678,0.1262129,0.1652063,-56.88412,-10.9276,8.160521
83.716104984,0.6147251,-0.06326813,-1.194624,0.9594707,0.1247017,0.1618475,-55.82274,-10.9361,8.573947
83.728464603,0.4282206,0.05441685,-1.316806,0.9589729,0.1237863,0.1656989,-55.82274,-10.9361,8.573947
83.738352299,-0.00695656000000002,-0.1809531,-1.255715,0.956064,0.1247659,0.1656907,-55.82274,-10.9361,8.573947
83.748239994,-0.0691247199999997,-0.004425639,-1.500081,0.9512147,0.1257422,0.1651993,-55.82274,-10.9361,8.573947
83.758128166,-0.00695656000000002,-0.06326813,-1.500081,0.9628775,0.1256329,0.1594421,-56.1944,-11.69385,8.186858
83.768015385,-0.193461,-0.1221106,-1.500081,0.9575366,0.126152,0.1608761,-56.1944,-11.69385,8.186858
83.77790308,0.1795479,-0.1809531,-1.561172,0.9594577,0.1232912,0.1652211,-56.1944,-11.69385,8.186858
83.787790298,0.4903888,-0.1809531,-1.744446,0.9584956,0.1207505,0.158019,-56.1944,-11.69385,8.186858
83.797678471,0.4282206,-0.2397956,-1.622263,0.9570324,0.1247784,0.1666536,-56.1944,-11.69385,8.186858
83.807565689,0.4903888,-0.3574805,-1.561172,0.9604414,0.1286816,0.1675995,-56.56153,-10.5625,7.708396
83.817453861,0.0552116,-0.534008,-1.500081,0.9604516,0.1276215,0.1618339,-56.56153,-10.5625,7.708396
83.827341557,-0.4421337,-0.592850400000001,-1.255715,0.9613889,0.1223566,0.1681135,-56.56153,-10.5625,7.708396
83.837228775,-0.939479,-0.592850400000001,-1.500081,0.9594644,0.1282254,0.1695244,-56.56153,-10.5625,7.708396
83.847116947,-1.063815,-0.887062800000003,-1.438989,0.9618748,0.1228498,0.1685925,-56.56153,-10.5625,7.708396
83.857004166,-1.374656,-0.651692900000003,-1.316806,0.9584665,0.1214316,0.1710004,-56.20039,-11.30863,8.570671
83.866892338,-1.623329,-0.710535399999999,-1.377898,0.9594306,0.1164955,0.1666981,-56.20039,-11.30863,8.570671
83.876779556,-2.120674,-0.887062800000003,-1.377898,0.9546092,0.1207798,0.1594572,-56.20039,-11.30863,8.570671
83.886667252,-2.618019,-1.181275,-0.950258099999998,0.9604437,0.1256809,0.1623246,-56.20039,-11.30863,8.570671
83.89655447,-2.804524,-1.357803,-0.889166700000002,0.9541198,0.1193127,0.1589831,-56.20039,-11.30863,8.570671
83.906442642,-2.680188,-1.29896,-1.01135,0.957513,0.1173438,0.1580351,-56.57666,-10.92505,8.556787
83.916330814,-2.493683,-1.240118,-1.072441,0.9507048,0.1109694,0.1542122,-56.57666,-10.92505,8.556787
83.926218033,-2.431515,-1.357803,-1.072441,0.9560282,0.1060822,0.153762,-56.57666,-10.92505,8.556787
83.936105728,-1.996338,-1.475488,-1.133532,0.955559,0.1124494,0.1561339,-56.57666,-10.92505,8.556787
83.94846487,-1.436824,-1.06359,-1.072441,0.9589534,0.1114688,0.1561427,-56.57666,-10.92505,8.556787
83.958353043,-0.877310800000002,-1.004748,-0.950258099999998,0.9570515,0.1152028,0.1450605,-56.20039,-11.30863,8.570671
83.968240261,-0.3799655,-1.240118,-0.766983899999998,0.9575165,0.1143358,0.1522792,-56.20039,-11.30863,8.570671
83.978128433,-0.1312929,-1.122433,-0.705892599999999,0.9618894,0.1142984,0.1503607,-56.20039,-11.30863,8.570671
83.988015652,0.3038843,-1.004748,-0.5226183,0.9643252,0.118218,0.1522674,-56.20039,-11.30863,8.570671
83.997903347,0.3660524,-1.004748,-0.6448011,0.9638105,0.1134286,0.1575811,-56.20039,-11.30863,8.570671
84.007791519,0.3038843,-1.004748,-0.3393442,0.9667556,0.1191871,0.1522652,-56.89926,-11.29015,9.008911
84.017678738,0.1795479,-1.122433,-0.4004356,0.9672239,0.1182985,0.1580413,-56.89926,-11.29015,9.008911
84.02756691,0.0552116,-1.004748,-0.2171614,0.9667289,0.1178629,0.1614094,-56.89926,-11.29015,9.008911
84.037454128,0.0552116,-0.945905299999999,-0.2782528,0.9638411,0.1182117,0.1517859,-56.89926,-11.29015,9.008911
84.047341824,0.1173798,-1.004748,-0.3393442,0.9618841,0.1188104,0.1589945,-56.89926,-11.29015,9.008911
84.057229042,0.5525569,-1.004748,-0.2171614,0.9609213,0.118762,0.1556272,-56.19576,-12.44997,8.197466
84.067117214,0.739061399999999,-0.945905299999999,-0.2171614,0.9628538,0.1158293,0.1551633,-56.19576,-12.44997,8.197466
84.077005386,1.049902,-1.004748,-0.0338872,0.9638195,0.1163574,0.1580472,-56.19576,-12.44997,8.197466
84.086892605,1.11207,-0.945905299999999,-0.0949785899999999,0.9628532,0.1183215,0.1589981,-56.19576,-12.44997,8.197466
84.0967803,1.422911,-0.828220399999998,-0.0338872,0.9594867,0.1236055,0.1536774,-56.19576,-12.44997,8.197466
84.106667519,1.174238,-0.887062800000003,-0.0338872,0.9565699,0.125631,0.1584731,-56.20953,-12.0564,9.035249
84.116555691,1.174238,-0.887062800000003,-0.15607,0.9589917,0.1241654,0.1584832,-56.20953,-12.0564,9.035249
84.126442909,1.11207,-0.887062800000003,-0.0949785899999999,0.9585035,0.1216956,0.1560905,-56.20953,-12.0564,9.035249
84.136331081,0.987734000000002,-0.534008,-0.2171614,0.9594736,0.1251815,0.1613642,-56.20953,-12.0564,9.035249
84.1462183,1.049902,-0.534008,-0.2171614,0.9628899,0.1285402,0.1584655,-56.20953,-12.0564,9.035249
84.156105995,0.5525569,-0.592850400000001,0.02720419,0.9560806,0.1231685,0.1565613,-56.57871,-12.05922,8.5727
84.168466091,0.863397699999997,-0.710535399999999,0.2104784,0.95902,0.1289629,0.1536498,-56.57871,-12.05922,8.5727
84.17835331,0.739061399999999,-0.769377900000001,0.149387,0.962891,0.1295285,0.1594224,-56.57871,-12.05922,8.5727
84.188241482,0.5525569,-0.828220399999998,0.02720419,0.9628763,0.1266356,0.1613607,-56.57871,-12.05922,8.5727
84.1981287,0.1173798,-0.592850400000001,-0.0949785899999999,0.9643329,0.1261314,0.160403,-56.57871,-12.05922,8.5727
84.208016396,-0.00695656000000002,-0.887062800000003,-0.2171614,0.9580209,0.1221763,0.1556067,-56.57803,-11.68116,8.567395
84.217903614,-0.0691247199999997,-0.651692900000003,-0.0949785899999999,0.9594635,0.1172824,0.1541903,-56.57803,-11.68116,8.567395
84.227791786,0.3660524,-0.769377900000001,-0.15607,0.9633579,0.1191938,0.1522613,-56.57803,-11.68116,8.567395
84.237679005,1.049902,-0.769377900000001,-0.0338872,0.9609445,0.1220987,0.1508012,-56.57803,-11.68116,8.567395
84.247567177,1.174238,-0.651692900000003,0.2715698,0.9575538,0.1220622,0.147912,-56.57803,-11.68116,8.567395
84.257454872,1.360743,-0.769377900000001,0.149387,0.9599833,0.12851,0.1560578,-56.20816,-11.30028,9.024641
84.267342091,1.485079,-0.887062800000003,0.149387,0.9551284,0.1285268,0.1565331,-56.20816,-11.30028,9.024641
84.277230263,1.174238,-0.710535399999999,0.149387,0.9604698,0.1265109,0.152702,-56.20816,-11.30028,9.024641
84.287117481,0.8012295,-0.651692900000003,-0.0338872,0.9648297,0.127054,0.1570325,-56.20816,-11.30028,9.024641
84.297005653,0.676893200000001,-0.651692900000003,-0.15607,0.9585068,0.1256559,0.1603988,-56.20816,-11.30028,9.024641
84.306892872,0.5525569,-0.710535399999999,-0.2782528,0.9599743,0.1255811,0.1555917,-55.82343,-11.31416,8.579251
84.316780567,0.5525569,-0.651692900000003,-0.15607,0.9624239,0.126428,0.1474145,-55.82343,-11.31416,8.579251
84.326668739,0.4903888,-0.828220399999998,-0.15607,0.962403,0.1230769,0.1512788,-55.82343,-11.31416,8.579251
84.336555958,0.6147251,-0.592850400000001,-0.2782528,0.9599637,0.1201744,0.1522525,-55.82343,-11.31416,8.579251
84.346443653,0.6147251,-0.769377900000001,-0.2171614,0.9570581,0.1231234,0.1536771,-55.82343,-11.31416,8.579251
84.356331349,0.676893200000001,-0.592850400000001,-0.2171614,0.9599608,0.1206901,0.1541736,-56.57871,-12.05922,8.5727
84.366219044,0.739061399999999,-0.769377900000001,-0.2782528,0.9522083,0.1226101,0.1512696,-56.57871,-12.05922,8.5727
84.376106262,0.6147251,-0.651692900000003,-0.15607,0.9565575,0.1187418,0.1536987,-56.57871,-12.05922,8.5727
84.388466358,0.676893200000001,-0.769377900000001,-0.15607,0.9643303,0.1196788,0.15226,-56.57871,-12.05922,8.5727
84.398353577,0.8012295,-0.592850400000001,-0.0949785899999999,0.9570374,0.1137995,0.148915,-56.57871,-12.05922,8.5727
84.408241749,1.049902,-0.710535399999999,0.02720419,0.9623964,0.1161518,0.1441,-56.96345,-12.04534,9.018089
84.418129444,1.671584,-0.651692900000003,0.3937525,0.9585084,0.1117122,0.1397897,-56.96345,-12.04534,9.018089
84.428016663,1.858088,-0.416323,0.3937525,0.9623948,0.1126784,0.1397892,-56.96345,-12.04534,9.018089
84.437904835,2.604106,-0.710535399999999,0.3937525,0.9604338,0.1138,0.1493998,-56.96345,-12.04534,9.018089
84.447792053,3.287956,-0.592850400000001,0.5159353,0.9618919,0.1073158,0.1393348,-56.96345,-12.04534,9.018089
84.457680225,3.84747,-0.534008,0.4548439,0.9609153,0.1093446,0.1446136,-56.58444,-10.91669,9.010757
84.467567444,4.406983,-0.534008,0.638118099999998,0.9623756,0.1088188,0.1422133,-56.58444,-10.91669,9.010757
84.477455139,4.717824,-0.592850400000001,0.577026700000002,0.9604492,0.1142006,0.1436267,-56.58444,-10.91669,9.010757
84.487343311,5.028665,-0.3574805,0.5159353,0.9623878,0.1176989,0.1498632,-56.58444,-10.91669,9.010757
84.49723053,5.215169,-0.2397956,0.699209599999998,0.9604418,0.1147451,0.1474713,-56.58444,-10.91669,9.010757
84.507118225,5.090833,-0.1221106,0.577026700000002,0.9585387,0.1244591,0.1454964,-56.20107,-11.68669,8.575975
84.517005921,4.779992,-0.004425639,0.577026700000002,0.9594896,0.1230898,0.1517563,-56.20107,-11.68669,8.575975
84.526893616,4.966496,0.2897868,0.577026700000002,0.9585405,0.1229551,0.1426184,-56.20107,-11.68669,8.575975
84.536780834,5.090833,0.05441685,0.3937525,0.9585382,0.1229695,0.1435802,-56.20107,-11.68669,8.575975
84.546669006,5.463841,-0.004425639,0.3326612,0.9624235,0.1229474,0.1426229,-56.20107,-11.68669,8.575975
84.556556702,6.08552300000001,-0.06326813,0.2104784,0.9595078,0.1239702,0.1454999,-56.20953,-12.0564,9.035249
84.566444397,6.45853199999998,0.1132593,0.08829559,0.9667873,0.123963,0.1459892,-56.20953,-12.0564,9.035249
84.576332092,7.20454999999997,0.1132593,0.3937525,0.9609613,0.1299545,0.1550898,-56.20953,-12.0564,9.035249
84.586219311,7.45322299999998,0.05441685,0.2715698,0.9633939,0.1319047,0.1555636,-56.20953,-12.0564,9.035249
84.596107483,7.82623200000001,-0.004425639,0.02720419,0.9648641,0.1352961,0.1545863,-56.20953,-12.0564,9.035249
84.608466625,7.764064,-0.004425639,0.2715698,0.9643757,0.1417856,0.1651332,-56.20816,-11.30028,9.024641
84.618354797,7.14238200000002,-0.1221106,0.08829559,0.9615036,0.150993,0.161717,-56.20816,-11.30028,9.024641
84.628242016,6.33419600000001,-0.298638,-0.0949785899999999,0.9624715,0.1495158,0.1607637,-56.20816,-11.30028,9.024641
84.638129711,5.650346,-0.3574805,-0.0949785899999999,0.9600333,0.1485971,0.164132,-56.20816,-11.30028,9.024641
84.648017883,4.717824,-0.1809531,-0.15607,0.9561389,0.1486767,0.1689364,-56.20039,-11.30863,8.570671
84.657905102,4.469151,-0.2397956,-0.2782528,0.9581099,0.1524677,0.1621866,-56.20039,-11.30863,8.570671
84.667792797,3.287956,-0.3574805,-0.4004356,0.9581149,0.1559195,0.1650546,-56.20039,-11.30863,8.570671
84.677680492,1.858088,-0.1221106,-0.5226183,0.9552122,0.1593483,0.1659959,-56.20039,-11.30863,8.570671
84.687568188,0.739061399999999,-0.3574805,-0.5226183,0.9537652,0.1573027,0.1592717,-56.20039,-11.30863,8.570671
84.697455406,-0.5043018,-0.3574805,-0.5226183,0.9542592,0.1567501,0.1549467,-56.21021,-12.43445,9.040553
84.707343578,-1.25032,-0.769377900000001,-0.889166700000002,0.9498645,0.1434888,0.1468331,-56.21021,-12.43445,9.040553
84.717231274,-1.809833,-1.004748,-1.072441,0.9483818,0.1351993,0.1459115,-56.21021,-12.43445,9.040553
84.727118492,-1.809833,-1.357803,-1.316806,0.9493453,0.1347464,0.1483195,-56.21021,-12.43445,9.040553
84.737006664,-1.312488,-1.122433,-1.622263,0.9493529,0.13022,0.1387239,-56.21021,-12.43445,9.040553
84.746893883,-0.6908063,-1.122433,-1.805538,0.9440118,0.13273,0.1430334,-56.20816,-11.30028,9.024641
84.756782055,0.0552116,-1.181275,-1.805538,0.9483859,0.1326854,0.140634,-56.20816,-11.30028,9.024641
84.766669273,0.4903888,-1.122433,-1.683355,0.9493606,0.135147,0.1425464,-56.20816,-11.30028,9.024641
84.776556969,0.739061399999999,-1.29896,-1.683355,0.9498737,0.138454,0.1357974,-56.20816,-11.30028,9.024641
84.786445141,0.987734000000002,-1.710858,-1.744446,0.9527807,0.1449511,0.1473099,-56.20816,-11.30028,9.024641
84.796332359,0.6147251,-2.063913,-1.683355,0.9581141,0.1429856,0.146845,-56.57666,-10.92505,8.556787
84.806220531,0.1173798,-2.181597,-1.500081,0.9581186,0.1469387,0.1506724,-56.57666,-10.92505,8.556787
84.81610775,-0.752974499999998,-2.358125,-1.500081,0.9649255,0.1533203,0.1549762,-56.57666,-10.92505,8.556787
84.828467369,-1.685497,-2.24044,-1.438989,0.9668491,0.1484542,0.1554839,-56.57666,-10.92505,8.556787
84.838355064,-2.307178,-2.122755,-1.255715,0.964429,0.1484158,0.1525958,-56.57666,-10.92505,8.556787
84.84824276,-2.680188,-2.00507,-1.01135,0.9707609,0.1527428,0.1496956,-55.46339,-12.05909,9.506378
84.858130932,-3.239701,-1.828543,-0.705892599999999,0.9693111,0.1512129,0.1448925,-55.46339,-12.05909,9.506378
84.86801815,-3.799215,-1.710858,-0.889166700000002,0.9746349,0.1508017,0.1506717,-55.46339,-12.05909,9.506378
84.877905846,-4.172224,-1.710858,-0.705892599999999,0.9659011,0.1463213,0.1429896,-55.46339,-12.05909,9.506378
84.887793064,-4.856073,-1.53433,-0.889166700000002,0.9692988,0.1443237,0.1401181,-55.46339,-12.05909,9.506378
84.897681236,-5.166914,-1.475488,-1.133532,0.9659209,0.1516706,0.1424817,-56.21731,-12.04804,9.489218
84.907568455,-5.539923,-1.29896,-1.194624,0.9639534,0.145867,0.1449134,-56.21731,-12.04804,9.489218
84.917456627,-5.78859600000002,-1.240118,-1.255715,0.9639469,0.136951,0.1348591,-56.21731,-12.04804,9.489218
84.927344322,-5.85076400000003,-1.181275,-1.438989,0.9620114,0.1423903,0.1401196,-56.21731,-12.04804,9.489218
84.937231541,-5.97509999999999,-0.828220399999998,-1.377898,0.962007,0.1374417,0.1348544,-56.21731,-12.04804,9.489218
84.947119713,-5.664259,-0.651692900000003,-1.377898,0.9673276,0.1310793,0.1334499,-55.46271,-11.68104,9.501074
84.957006931,-5.85076400000003,-0.4751655,-1.438989,0.9678131,0.1290874,0.130575,-55.46271,-11.68104,9.501074
84.966895103,-5.477755,-0.3574805,-1.133532,0.9629402,0.122251,0.1286803,-55.46271,-11.68104,9.501074
84.976782322,-5.229082,-0.4751655,-0.889166700000002,0.9702128,0.1242779,0.1349303,-55.46271,-11.68104,9.501074
84.986670017,-5.166914,-0.4751655,-1.01135,0.9668049,0.1223584,0.1363789,-55.46271,-11.68104,9.501074
84.996558189,-5.477755,-0.06326813,-0.950258099999998,0.9677572,0.1140136,0.1320938,-56.2068,-10.54416,9.014033
85.006445408,-5.229082,-0.1221106,-1.01135,0.9633573,0.1032735,0.1297385,-56.2068,-10.54416,9.014033
85.01633358,-4.047887,0.05441685,-0.8280753,0.9662792,0.1046998,0.1278109,-56.2068,-10.54416,9.014033
85.026220798,-2.493683,0.1721018,-0.461527,0.9648248,0.1012077,0.1220559,-56.2068,-10.54416,9.014033
85.036108494,-1.063815,0.2309443,0.149387,0.9658089,0.1110742,0.1306637,-56.2068,-10.54416,9.014033
85.048467636,0.3038843,0.2309443,0.760300900000003,0.9643759,0.1203866,0.1344624,-56.59427,-12.04252,9.480639
85.058355808,0.4903888,0.2309443,0.638118099999998,0.9590366,0.124379,0.1402072,-56.59427,-12.04252,9.480639
85.06824398,0.3038843,-0.004425639,0.760300900000003,0.958067,0.1233783,0.1382875,-56.59427,-12.04252,9.480639
85.078131199,-0.2556292,0.05441685,0.882483700000001,0.957083,0.1249561,0.1459731,-56.59427,-12.04252,9.480639
85.088018894,-0.628638100000002,-0.004425639,0.882483700000001,0.960474,0.1230016,0.1459868,-56.59427,-12.04252,9.480639
85.097906113,-0.3799655,-0.004425639,1.187941,0.9541732,0.1229565,0.1421326,-56.21663,-11.66998,9.483914
85.107794285,-0.4421337,-0.06326813,1.61558,0.955135,0.1180348,0.138792,-56.21663,-11.66998,9.483914
85.117681503,0.0552116,-0.1221106,1.921037,0.957551,0.1195915,0.1455198,-56.21663,-11.66998,9.483914
85.127569675,0.6147251,-0.298638,2.287586,0.9599932,0.1219783,0.142625,-56.21663,-11.66998,9.483914
85.137457371,0.987734000000002,-0.4751655,2.348677,0.9541777,0.1239232,0.1416467,-56.21663,-11.66998,9.483914
85.147344589,1.174238,-0.3574805,2.348677,0.9585522,0.1293501,0.1469144,-56.21731,-12.04804,9.489218
85.157232761,1.422911,-0.2397956,2.287586,0.9590417,0.1278308,0.1430753,-56.21731,-12.04804,9.489218
85.16711998,1.174238,-0.06326813,2.348677,0.956627,0.1327338,0.1449714,-56.21731,-12.04804,9.489218
85.177008152,0.676893200000001,-0.004425639,2.348677,0.9610052,0.1311709,0.1387323,-56.21731,-12.04804,9.489218
85.186895371,0.3660524,-0.06326813,1.859946,0.955667,0.1361516,0.145434,-56.21731,-12.04804,9.489218
85.196783066,0.0552116,-0.06326813,1.61558,0.9556835,0.1345541,0.1363046,-55.83325,-12.43998,9.049133
85.206671238,0.0552116,-0.06326813,1.310123,0.9576093,0.1316645,0.138726,-55.83325,-12.43998,9.049133
85.216558456,0.0552116,0.2897868,0.943575099999997,0.9595474,0.1306868,0.1387331,-55.83325,-12.43998,9.049133
85.226446152,0.2417161,0.3486293,0.699209599999998,0.9600401,0.1321323,0.1377646,-55.83325,-12.43998,9.049133
85.236333847,0.3660524,0.3486293,0.2715698,0.957624,0.1325665,0.1339122,-55.83325,-12.43998,9.049133
85.246221542,0.3038843,0.4074717,-0.0338872,0.9600276,0.1302205,0.1401788,-56.20885,-11.67834,9.029945
85.256108761,0.4903888,0.5251567,-0.461527,0.9571267,0.1321453,0.1382421,-56.20885,-11.67834,9.029945
85.268468857,0.3660524,0.642841699999998,-0.8280753,0.9605017,0.1283005,0.1421127,-56.20885,-11.67834,9.029945
85.278356552,0.1795479,0.583999200000002,-0.8280753,0.9566125,0.1268545,0.1425965,-56.20885,-11.67834,9.029945
85.288244248,-0.193461,0.4663143,-0.950258099999998,0.9575878,0.1278193,0.1421119,-56.20885,-11.67834,9.029945
85.298131943,-0.3799655,0.583999200000002,-1.255715,0.9605073,0.1302555,0.1425838,-55.46339,-12.05909,9.506378
85.308019161,-0.6908063,0.4074717,-1.622263,0.9590417,0.1278308,0.1430753,-55.46339,-12.05909,9.506378
85.317907333,-0.628638100000002,0.5251567,-2.538634,0.9614685,0.1258351,0.1402026,-55.46339,-12.05909,9.506378
85.327794552,-0.752974499999998,-0.1221106,-3.699371,0.9619668,0.1342129,0.1468937,-55.46339,-12.05909,9.506378
85.337682724,-1.685497,-0.06326813,-5.654295,0.9654157,0.1473178,0.1444268,-55.46339,-12.05909,9.506378
85.347570419,-3.239701,-0.592850400000001,-6.63175700000002,0.982927,0.1604812,0.1477467,-56.59291,-11.2864,9.47003
85.357457638,-6.223773,-0.004425639,-7.05939699999999,0.9825217,0.1828673,0.1466712,-56.59291,-11.2864,9.47003
85.36734581,-8.7105,-1.004748,-8.58668200000002,0.9864768,0.2072861,0.1518425,-56.59291,-11.2864,9.47003
85.377233028,-12.25408,-0.828220399999998,-8.52559100000001,0.9894048,0.2305696,0.1786597,-56.59291,-11.2864,9.47003
85.387120724,-16.79236,-0.2397956,-10.84706,0.9875103,0.2531671,0.1915282,-56.59291,-11.2864,9.47003
85.397008419,-22.07665,0.583999200000002,-11.70234,0.9855846,0.2580476,0.1919823,-55.46202,-11.30298,9.49577
85.406896114,-27.05011,2.055061,-12.25217,0.9836454,0.2580371,0.1910183,-55.46202,-11.30298,9.49577
85.416784287,-31.46405,3.408438,-13.10745,0.9781933,0.2289027,0.1959685,-55.46202,-11.30298,9.49577
85.426671505,-35.75365,5.87982300000003,-13.10745,0.9427499,0.217099,0.183484,-55.46202,-11.30298,9.49577
85.4365592,-38.36472,7.99815200000003,-16.16202,0.9377513,0.1757253,0.1841683,-55.46202,-11.30298,9.49577
85.446446419,-39.23507,11.82291,-19.03331,0.9343312,0.1639303,0.1765292,-55.83325,-12.43998,9.049133
85.456334591,-39.60808,14.64735,-22.82098,0.9251408,0.1687245,0.1702426,-55.83325,-12.43998,9.049133
85.466222763,-39.98109,17.17758,-26.2421,0.9364598,0.2030527,0.1551734,-55.83325,-12.43998,9.049133
85.476109982,-39.42157,18.53096,-29.23557,0.9327515,0.2557009,0.1582696,-55.83325,-12.43998,9.049133
85.488469601,-39.91892,18.29559,-33.87852,0.9445609,0.3138835,0.1753022,-55.43531,-13.16248,7.77038
85.498357296,-42.28131,17.94253,-38.76583,0.9693782,0.3477719,0.1977624,-55.43531,-13.16248,7.77038
85.508244991,-47.68994,19.47244,-45.05825,0.9916944,0.3572531,0.2160149,-55.43531,-13.16248,7.77038
85.51813221,-54.90144,21.17887,-50.18992,1.015413,0.340693,0.2190111,-55.43531,-13.16248,7.77038
85.528020382,-61.4291000000001,23.41488,-54.83287,1.02544,0.2899729,0.2154314,-55.43531,-13.16248,7.77038
85.537907601,-65.2213600000001,26.00395,-57.09325,1.033587,0.2577677,0.212237,-55.79525,-15.44798,6.561421
85.547795296,-65.4078699999998,28.53418,-59.4147200000003,1.036337,0.1995708,0.1961829,-55.79525,-15.44798,6.561421
85.557683468,-61.8642800000001,31.53515,-61.7361900000001,1.020249,0.1706856,0.1838066,-55.79525,-15.44798,6.561421
85.567570686,-55.27445,34.00653,-63.3856600000001,1.002744,0.154994,0.1742476,-55.79525,-15.44798,6.561421
85.577458858,-45.07888,35.71296,-63.2634799999999,0.9934793,0.1493127,0.1838842,-55.79525,-15.44798,6.561421
85.587346077,-33.76427,36.71328,-62.5914700000003,0.976482,0.1658254,0.2111939,-55.76392,-18.44883,4.462826
85.597233772,-24.56338,38.18435,-63.3856600000001,0.966334,0.2018889,0.2441837,-55.76392,-18.44883,4.462826
85.607121944,-17.72488,41.59721,-64.1798400000001,0.9657983,0.1937484,0.2533617,-55.76392,-18.44883,4.462826
85.617009163,-11.69457,44.36281,-65.3405800000002,0.9527373,0.2362918,0.2959338,-55.76392,-18.44883,4.462826
85.626897335,-7.96448099999997,47.24609,-66.6234999999999,0.9581401,0.2717082,0.320288,-55.76392,-18.44883,4.462826
85.636784553,-7.777977,49.54095,-67.6620599999998,0.9722612,0.2853293,0.3211971,-54.20962,-21.10923,1.550161
85.646672249,-8.15098600000003,52.48307,-67.5398699999999,0.9805995,0.3240766,0.3407285,-54.20962,-21.10923,1.550161
85.656559467,-10.76205,54.95446,-66.6234999999999,0.9728089,0.3083227,0.3282953,-54.20962,-21.10923,1.550161
85.666447639,-13.55962,55.60172,-66.5013200000003,0.9723514,0.3290487,0.346465,-54.20962,-21.10923,1.550161
85.676335335,-16.54369,56.89626,-66.5013200000003,0.9670525,0.3352745,0.3387328,-54.20962,-21.10923,1.550161
85.68622303,-13.55962,59.2499499999997,-65.40167,0.9558492,0.3265891,0.3426113,-53.11135,-24.12454,-0.459271
85.696110725,-16.35718,58.8380599999997,-65.1572999999999,0.9291525,0.3400842,0.3622305,-53.11135,-24.12454,-0.459271
85.708469868,-21.45497,58.4849999999998,-65.40167,0.9350159,0.3512725,0.3621807,-53.11135,-24.12454,-0.459271
85.71835804,-20.14944,60.1325900000002,-65.0962100000001,0.9232414,0.30979,0.3546822,-53.11135,-24.12454,-0.459271
85.728245258,2.47977,66.4287400000001,-63.8743899999999,0.9418806,0.118585,0.401838,-53.11135,-24.12454,-0.459271
85.73813343,6.023355,68.3117,-59.598,0.8154637,0.2648709,0.2999616,-51.93064,-28.61386,-3.743997
85.748021126,21.06805,69.6650799999999,-58.3150799999997,0.8153025,0.3042068,0.4228784,-51.93064,-28.61386,-3.743997
85.757908344,8.44791300000002,64.6046200000001,-62.5914700000003,0.8363357,0.5085856,0.4478393,-51.93064,-28.61386,-3.743997
85.767796516,2.914947,67.0760000000002,-65.2794899999998,0.8796121,0.4900928,0.3893096,-51.93064,-28.61386,-3.743997
85.777683735,-0.193461,67.4290600000001,-65.7682200000003,0.8647782,0.4226733,0.4055038,-51.93064,-28.61386,-3.743997
85.787571907,34.93155,78.19724,-61.6750999999997,0.8712032,0.01759521,0.3801456,-50.06232,-31.34187,-6.648629
85.797459602,30.08244,76.3142800000001,-55.87142,0.6992665,0.4632989,0.4623399,-50.06232,-31.34187,-6.648629
85.807346821,19.0165,68.6059099999998,-60.0867299999999,0.8121349,0.5355739,0.4582556,-50.06232,-31.34187,-6.648629
85.817234993,10.00212,67.4290600000001,-63.0191099999998,0.8157886,0.6085948,0.456929,-50.06232,-31.34187,-6.648629
85.827122211,-3.426206,65.4872599999999,-63.8743899999999,0.7881231,0.6126242,0.4621673,-50.06232,-31.34187,-6.648629
85.837009907,-17.47621,63.0747200000001,-61.7972900000002,0.7579758,0.6085456,0.4785049,-48.13174,-34.38586,-9.54741
85.846897602,-31.96139,58.8380599999997,-61.7361900000001,0.7466009,0.56213,0.4994062,-48.13174,-34.38586,-9.54741
85.856785297,-42.84082,56.89626,-59.8423599999998,0.7367681,0.5241242,0.4967015,-48.13174,-34.38586,-9.54741
85.86667347,-47.25476,58.3084799999998,-58.9259899999998,0.7479849,0.3909777,0.4848831,-48.13174,-34.38586,-9.54741
85.876560688,-48.18728,60.77986,-57.03216,0.6962354,0.4585811,0.5046813,-48.13174,-34.38586,-9.54741
85.886448383,-51.73087,59.4853199999998,-55.13832,0.6879268,0.4465171,0.5109849,-45.51648,-36.6755,-11.9871
85.896336079,-38.24038,61.8390199999998,-52.51139,0.6910263,0.3254794,0.4611033,-45.51648,-36.6755,-11.9871
85.906223774,-39.42157,61.78018,-52.69467,0.6145299,0.4274214,0.5268683,-45.51648,-36.6755,-11.9871
85.916111946,-27.48528,61.0740699999998,-50.06774,0.6556833,0.356335,0.4681211,-45.51648,-36.6755,-11.9871
85.928471088,-37.05918,59.3676400000002,-48.29609,0.6200736,0.4913088,0.5337656,-45.51648,-36.6755,-11.9871
85.938358784,-40.97578,57.4846799999998,-46.40226,0.6365606,0.4525608,0.4849262,-42.87899,-38.98902,-15.72385
85.948246479,-40.5406,56.5432,-44.26406,0.5991446,0.4469279,0.4940496,-42.87899,-38.98902,-15.72385
85.958134174,-41.72179,53.89529,-41.57603,0.5980924,0.4325156,0.5071061,-42.87899,-38.98902,-15.72385
85.968021393,-42.71648,51.60043,-39.49893,0.572311,0.4189895,0.5109925,-42.87899,-38.98902,-15.72385
85.977909565,-41.41095,49.894,-38.09383,0.566461,0.4156787,0.5167737,-42.87899,-38.98902,-15.72385
85.987796783,-39.79458,49.30558,-36.81091,0.5707151,0.3954915,0.5351555,-40.61652,-40.22583,-19.4842
85.997684479,-7.28063200000001,53.30687,-35.4669,0.5201901,0.2282583,0.5152636,-40.61652,-40.22583,-19.4842
86.007572651,-10.45121,48.12873,-35.03926,0.4809802,0.4336098,0.564678,-40.61652,-40.22583,-19.4842
86.017459869,-8.83483600000002,46.77535,-35.89454,0.5232214,0.4210003,0.5412245,-40.61652,-40.22583,-19.4842
86.027348042,-6.09943600000001,46.0104,-34.0007,0.5516431,0.1481887,0.4406802,-40.61652,-40.22583,-19.4842
86.03723526,57.24992,50.24706,-28.62466,0.3655243,0.3096843,0.7618695,-38.69698,-41.36401,-21.56641
86.047122955,43.26208,39.06698,-31.49596,0.3981967,0.4483348,0.4962186,-38.69698,-41.36401,-21.56641
86.057011127,39.84283,35.88949,-31.67923,0.5074346,0.5051679,0.5662701,-38.69698,-41.36401,-21.56641
86.066898346,36.17491,36.1837,-31.67923,0.4814881,0.6005914,0.5936518,-38.69698,-41.36401,-21.56641
86.076786518,24.79814,34.12421,-30.51849,0.4441638,0.6142855,0.5925784,-38.69698,-41.36401,-21.56641
86.086673737,11.80499,30.18177,-28.44139,0.438775,0.6170975,0.617085,-36.48632,-42.924,-22.33823
86.096561432,0.739061399999999,29.06376,-26.73083,0.4507899,0.5829944,0.6177519,-36.48632,-42.924,-22.33823
86.106449604,-7.65364099999998,28.88723,-24.7759,0.4521685,0.5690499,0.6298469,-36.48632,-42.924,-22.33823
86.116336823,-14.11913,29.06376,-23.12643,0.4448107,0.5441725,0.6261169,-36.48632,-42.924,-22.33823
86.126224518,-18.2844,27.82807,-21.84352,0.4393955,0.5222704,0.6262215,-36.48632,-42.924,-22.33823
86.136112213,-21.2063,27.41617,-20.5606,0.4291719,0.5194983,0.6348804,-35.03615,-44.40276,-22.73898
86.148471832,-21.89015,25.76858,-19.52204,0.4233187,0.5072498,0.6291646,-35.03615,-44.40276,-22.73898
86.158359051,-21.57931,25.6509,-18.11694,0.4078164,0.5051027,0.6137683,-35.03615,-44.40276,-22.73898
86.168247223,-20.39811,24.65058,-16.89511,0.401511,0.5050864,0.6118376,-35.03615,-44.40276,-22.73898
86.178135395,-19.34125,23.65025,-16.22311,0.3981031,0.5081442,0.6204749,-35.03615,-44.40276,-22.73898
86.188022614,-17.41404,22.8853,-15.79547,0.3903743,0.5168813,0.6175364,-33.49941,-44.45589,-24.39083
86.197910309,-16.66802,21.3554,-15.49001,0.3908992,0.5265834,0.6150833,-33.49941,-44.45589,-24.39083
86.207797527,-16.29501,20.00202,-15.18455,0.3894407,0.531578,0.6232321,-33.49941,-44.45589,-24.39083
86.2176857,-15.17599,18.00138,-15.30674,0.3865217,0.5286405,0.6218008,-33.49941,-44.45589,-24.39083
86.227573395,-14.61648,16.82453,-15.18455,0.3947316,0.5263981,0.6357682,-33.49941,-44.45589,-24.39083
86.23746109,-13.80829,15.17693,-15.24564,0.3816134,0.5270044,0.6420022,-32.71727,-44.87603,-26.05454
86.247348785,-13.24878,13.94124,-15.5511,0.3733613,0.5305084,0.6472653,-32.71727,-44.87603,-26.05454
86.257236004,-13.87046,13.11745,-15.67328,0.3636249,0.5252359,0.6516091,-32.71727,-44.87603,-26.05454
86.267124176,-14.61648,11.76407,-16.10093,0.3704092,0.5307659,0.6640928,-32.71727,-44.87603,-26.05454
86.277011395,-14.86515,10.76375,-16.58965,0.3699405,0.5231966,0.6463365,-32.71727,-44.87603,-26.05454
86.28689909,-14.74081,9.93995399999998,-17.0173,0.3800422,0.509321,0.6642122,-30.88752,-44.91109,-26.46704
86.296787262,-14.24347,9.58689900000001,-16.65075,0.3843786,0.497074,0.6599507,-30.88752,-44.91109,-26.46704
86.306674481,-13.31094,8.93963099999999,-16.34529,0.3838604,0.4913107,0.6652694,-30.88752,-44.91109,-26.46704
86.316562653,-11.88108,8.292364,-16.10093,0.385302,0.4824421,0.658583,-30.88752,-44.91109,-26.46704
86.326449871,-10.57554,7.23320000000001,-15.24564,0.3823619,0.4811308,0.6682046,-30.88752,-44.91109,-26.46704
86.336337566,-9.332181,6.52709000000002,-14.45146,0.3790068,0.4873384,0.6595129,-29.35856,-44.95587,-27.66493
86.346225739,-8.83483600000002,6.17403499999999,-13.35181,0.3799959,0.4976703,0.6666756,-29.35856,-44.95587,-27.66493
86.356112957,-8.95917199999998,5.58561,-12.98526,0.3765982,0.5006634,0.6709849,-29.35856,-44.95587,-27.66493
86.368473053,-8.89700400000002,4.17339,-11.3358,0.3688392,0.4966537,0.6623397,-29.35856,-44.95587,-27.66493
86.378360272,-8.77266800000001,2.996541,-9.99178399999999,0.3707407,0.4834664,0.660004,-29.04511,-45.33853,-27.65247
86.388247967,-8.77266800000001,1.290109,-8.09795099999998,0.3658701,0.47562,0.6557098,-29.04511,-45.33853,-27.65247
86.398135662,-8.46182600000002,-0.3574805,-6.692849,0.3610218,0.4651449,0.638444,-29.04511,-45.33853,-27.65247
86.408023357,-7.52930399999999,-2.358125,-5.471021,0.3527859,0.4635709,0.629786,-29.04511,-45.33853,-27.65247
86.41791153,-6.65894999999998,-4.299927,-4.493558,0.3421134,0.4575832,0.6187429,-29.04511,-45.33853,-27.65247
86.427798748,-5.29125,-5.94751700000002,-2.966274,0.3193281,0.4574557,0.6071756,-29.03066,-45.35404,-28.49556
86.437686443,-3.923551,-7.88931900000003,-1.92772,0.3008522,0.4497298,0.6091173,-29.03066,-45.35404,-28.49556
86.447573662,-2.991028,-9.889963,-1.01135,0.2969528,0.4443666,0.6081782,-29.03066,-45.35404,-28.49556
86.457461834,-1.125983,-11.47871,-0.766983899999998,0.2974223,0.4454618,0.6163488,-29.03066,-45.35404,-28.49556
86.467350006,1.360743,-12.06714,-0.6448011,0.3037296,0.454423,0.6302574,-29.03066,-45.35404,-28.49556
86.477237225,5.153001,-12.77324,-1.01135,0.3275498,0.4790254,0.6503589,-28.6537,-45.35957,-28.48698
86.48712492,7.95056800000003,-12.77324,-2.110995,0.3567266,0.5089809,0.6709203,-28.6537,-45.35957,-28.48698
86.497012138,9.69127699999997,-12.83209,-3.577188,0.3801507,0.55193,0.6803483,-28.6537,-45.35957,-28.48698
86.506900311,9.44260400000002,-12.77324,-5.532112,0.4049505,0.5844365,0.7081056,-28.6537,-45.35957,-28.48698
86.516787529,7.577559,-12.59672,-7.73140200000002,0.4185603,0.6027001,0.7263038,-28.6537,-45.35957,-28.48698
86.526675701,5.215169,-11.83177,-9.380871,0.4263026,0.5988538,0.7306604,-28.66747,-44.966,-27.6492
86.536563397,3.536629,-10.41955,-10.41942,0.428715,0.606405,0.7474572,-28.66747,-44.966,-27.6492
86.546450615,0.8012295,-9.24269600000001,-11.3358,0.4175163,0.5996817,0.7522876,-28.66747,-44.966,-27.6492
86.556338787,-0.6908063,-7.477421,-12.19107,0.4164095,0.5652111,0.7591934,-28.66747,-44.966,-27.6492
86.566226005,-0.815142700000001,-5.241407,-12.43544,0.4154202,0.5578656,0.756344,-28.66747,-44.966,-27.6492
86.576114178,-1.25032,-3.123077,-12.37435,0.4202571,0.5519911,0.7549363,-28.67414,-44.95884,-27.26008
86.588473797,-0.877310800000002,-0.004425639,-12.86308,0.4226598,0.5416885,0.750182,-28.67414,-44.95884,-27.26008
86.598361015,-0.0691247199999997,2.055061,-13.22963,0.4298976,0.5290064,0.7497733,-28.67414,-44.95884,-27.26008
86.608249187,1.422911,4.055706,-12.7409,0.432358,0.5312781,0.7391844,-28.67414,-44.95884,-27.26008
86.618136406,3.598797,6.17403499999999,-12.80199,0.4240856,0.5279433,0.7430392,-28.67414,-44.95884,-27.26008
86.628024578,6.023355,7.46857000000001,-13.47399,0.4129653,0.5441138,0.7482349,-28.6755,-45.71496,-27.24947
86.637911796,7.63972700000001,9.41037099999998,-14.39036,0.4120249,0.5548716,0.7510651,-28.6755,-45.71496,-27.24947
86.647799492,9.62910799999999,11.29333,-15.00128,0.4115349,0.5578877,0.7573012,-28.6755,-45.71496,-27.24947
86.657687664,11.49415,13.58819,-16.2842,0.4043062,0.5705124,0.7538627,-28.6755,-45.71496,-27.24947
86.667574882,14.60256,16.76568,-18.05585,0.4126128,0.5880621,0.7561882,-28.6755,-45.71496,-27.24947
86.677462578,15.97026,19.70781,-22.33225,0.402589,0.6387679,0.758806,-28.30059,-46.85466,-27.22498
86.687350273,16.21894,22.29688,-27.89156,0.3887438,0.7025282,0.7546207,-28.30059,-46.85466,-27.22498
86.697237968,15.28641,23.94447,-33.2676,0.3801403,0.7529598,0.7716693,-28.30059,-46.85466,-27.22498
86.707126141,10.06429,25.82743,-36.81091,0.3626698,0.7669094,0.7903348,-28.30059,-46.85466,-27.22498
86.717013359,1.982425,28.0046,-39.74329,0.3437007,0.7532619,0.7870158,-28.30059,-46.85466,-27.22498
86.726901054,-5.664259,29.65219,-42.43132,0.3135488,0.7327905,0.7817948,-26.78665,-47.19897,-27.57536
86.73678875,-11.4459,30.3583,-44.6306,0.2960267,0.7037716,0.7602801,-26.78665,-47.19897,-27.57536
86.746676445,-16.79236,31.94704,-46.28007,0.2852952,0.6787499,0.7464476,-26.78665,-47.19897,-27.57536
86.756564617,-21.14413,31.82936,-47.25753,0.2720959,0.6345837,0.7221288,-26.78665,-47.19897,-27.57536
86.766451836,-24.68772,30.7702,-47.07426,0.2695659,0.6009029,0.7165251,-26.78665,-47.19897,-27.57536
86.776339531,-28.2313,30.06408,-46.8299,0.270925,0.5582193,0.6955818,-24.95091,-47.61926,-28.37167
86.786226749,-32.1479,29.41682,-45.18043,0.2679591,0.5451277,0.699011,-24.95091,-47.61926,-28.37167
86.796114922,-36.74834,29.71103,-43.04223,0.2660104,0.5202952,0.6664317,-24.95091,-47.61926,-28.37167
86.808474064,-39.91892,29.1226,-39.74329,0.2737139,0.5012674,0.6650938,-24.95091,-47.61926,-28.37167
86.818362236,-41.72179,28.41649,-37.78837,0.2673818,0.4845007,0.6502628,-24.95091,-47.61926,-28.37167
86.828249931,-42.40564,27.5927,-35.83345,0.2765661,0.474271,0.6512868,-21.59381,-49.21252,-30.02569
86.83813715,-41.72179,27.00427,-34.30616,0.261932,0.4543565,0.6528136,-21.59381,-49.21252,-30.02569
86.848025322,-40.41626,25.18016,-32.53451,0.2492714,0.4506585,0.6643599,-21.59381,-49.21252,-30.02569
86.85791254,-39.67025,24.06215,-31.55705,0.2488043,0.4505444,0.6566652,-21.59381,-49.21252,-30.02569
86.867800713,-37.8052,21.64961,-30.82395,0.2410878,0.4661708,0.6585012,-21.59381,-49.21252,-30.02569
86.877688408,-36.251,19.35475,-30.15195,0.2313794,0.4776415,0.6752644,-20.04904,-48.5167,-32.07727
86.887575626,-34.51029,16.58916,-29.23557,0.2235228,0.4633001,0.6921602,-20.04904,-48.5167,-32.07727
86.897463798,-32.58308,14.58851,-27.09738,0.2122358,0.4392193,0.7086203,-20.04904,-48.5167,-32.07727
86.907351017,-29.84767,12.47018,-24.53154,0.2005058,0.4253222,0.722143,-20.04904,-48.5167,-32.07727
86.917239189,-26.92577,10.58722,-21.66024,0.1965702,0.4152119,0.7294034,-20.04904,-48.5167,-32.07727
86.927126884,-25.12289,9.35152900000001,-19.88859,0.1984425,0.407683,0.7472377,-17.43578,-48.21578,-34.16409
86.937014103,-22.7605,8.70426200000002,-16.22311,0.1900995,0.3913589,0.7617384,-17.43578,-48.21578,-34.16409
86.946902275,-21.08196,8.82194600000002,-11.51907,0.1890278,0.3616427,0.7609255,-17.43578,-48.21578,-34.16409
86.956789494,-20.21161,7.58625400000001,-5.532112,0.1811834,0.3387643,0.7605512,-17.43578,-48.21578,-34.16409
86.966677189,-20.89546,6.46824700000002,0.577026700000002,0.1782257,0.3206452,0.7534256,-17.43578,-48.21578,-34.16409
86.976565361,-21.51714,6.29172000000002,5.89197799999997,0.167545,0.3072454,0.7352062,-17.04968,-47.47354,-34.62008
86.986452579,-20.08727,5.82098000000003,11.14584,0.169476,0.297853,0.7261183,-17.04968,-47.47354,-34.62008
86.996340752,-17.78705,5.35024,15.91096,0.1661112,0.3036239,0.7207952,-17.04968,-47.47354,-34.62008
87.00622797,-15.7355,4.17339,20.00409,0.1651959,0.3122327,0.7101704,-17.04968,-47.47354,-34.62008
87.016115665,-13.80829,2.584644,23.4863,0.1599858,0.3363101,0.6912869,-17.04968,-47.47354,-34.62008
87.028475285,-11.57024,1.172424,27.94597,0.1842183,0.3325104,0.7009521,-16.71386,-47.18576,-35.84956
87.03836298,-9.82952599999999,-1.357803,30.45072,0.1818532,0.3580018,0.7118818,-16.71386,-47.18576,-35.84956
87.048251152,-8.21315399999998,-2.416967,32.83328,0.1842693,0.3545812,0.7114209,-16.71386,-47.18576,-35.84956
87.058138371,-6.09943600000001,-3.123077,35.82676,0.17505,0.3550792,0.7109269,-16.71386,-47.18576,-35.84956
87.068026066,-3.674878,-4.535297,39.0646,0.1706541,0.3428207,0.7047319,-16.71386,-47.18576,-35.84956
87.077913761,0.0552116,-6.30057100000002,42.42463,0.1623921,0.3394212,0.7042587,-17.01884,-46.4334,-36.32129
87.087801456,3.536629,-8.18353200000002,46.39557,0.1541462,0.3433834,0.7075958,-17.01884,-46.4334,-36.32129
87.097689629,5.83685100000003,-10.83144,50.06105,0.1425232,0.3502093,0.7065863,-17.01884,-46.4334,-36.32129
87.107576847,8.82092300000001,-12.24366,53.11562,0.1501748,0.3330018,0.7292852,-17.01884,-46.4334,-36.32129
87.117464542,12.98619,-12.59672,55.55928,0.1487645,0.3227624,0.6956709,-17.01884,-46.4334,-36.32129
87.127351761,15.16208,-15.0681,60.44659,0.153615,0.317797,0.6899304,-18.90023,-44.51547,-36.39071
87.137239933,17.02712,-19.48129,64.9673599999998,0.1569528,0.2858223,0.6689353,-18.90023,-44.51547,-36.39071
87.147128105,20.75721,-24.30637,70.0990400000002,0.1729206,0.2527625,0.642189,-18.90023,-44.51547,-36.39071
87.157015324,25.48199,-27.30734,75.5972699999998,0.1845762,0.2422475,0.6244612,-18.90023,-44.51547,-36.39071
87.166903019,31.07713,-31.36747,80.5456699999999,0.1822063,0.2408973,0.5989765,-18.90023,-44.51547,-36.39071
87.176790237,35.92624,-34.60381,86.1660800000002,0.2108766,0.2366502,0.5793129,-20.74443,-44.46489,-35.13512
87.18667841,39.96717,-38.78162,91.5421100000002,0.2444384,0.2475825,0.5658299,-20.74443,-44.46489,-35.13512
87.196566105,44.69195,-43.66555,94.1079599999998,0.2994588,0.2677799,0.5234694,-20.74443,-44.46489,-35.13512
87.2064538,49.66541,-48.25526,96.3683399999999,0.3490651,0.2844807,0.5070901,-20.74443,-44.46489,-35.13512
87.216341496,54.39019,-55.66941,98.7509000000001,0.3411506,0.3744312,0.4965272,-20.74443,-44.46489,-35.13512
87.226228714,58.4311099999998,-65.2607399999998,98.8120000000002,0.3035294,0.4357031,0.4855945,-24.48621,-44.05732,-33.14862
87.236116886,59.3636400000002,-75.32281,94.04687,0.2817943,0.4574647,0.472475,-24.48621,-44.05732,-33.14862
87.246004582,59.1771299999999,-85.03181,91.96976,0.2719949,0.4510981,0.5013513,-24.48621,-44.05732,-33.14862
87.258364201,63.4045699999999,-92.6813399999999,85.8606199999998,0.3582773,0.4183091,0.5020961,-24.48621,-44.05732,-33.14862
87.268251896,77.51674,-92.3282900000003,80.6678500000001,0.4613873,0.3352447,0.4973429,-29.00376,-42.7945,-29.82886
87.278139114,99.3999300000002,-90.2099500000001,78.5907400000001,0.5217618,0.3687734,0.4679059,-29.00376,-42.7945,-29.82886
87.288027287,121.5318,-90.0922699999999,73.1536100000001,0.5575815,0.4657835,0.4467768,-29.00376,-42.7945,-29.82886
87.297914505,138.4415,-91.6810199999999,66.0670100000001,0.6012321,0.5827718,0.4274793,-29.00376,-42.7945,-29.82886
87.307802677,147.8911,-93.2697600000002,59.0414900000002,0.6384529,0.6910744,0.4452493,-29.00376,-42.7945,-29.82886
87.317690373,150.9995,-95.2704099999999,50.97742,0.6619387,0.7809091,0.4962807,-34.26243,-41.46786,-23.60645
87.327577591,148.1398,-96.8003099999999,47.06758,0.690053,0.8139341,0.5591464,-34.26243,-41.46786,-23.60645
87.337465763,142.2338,-93.3286099999997,45.05156,0.6947963,0.8001915,0.585191,-34.26243,-41.46786,-23.60645
87.347352982,137.509,-90.2099500000001,43.70755,0.6928803,0.8005311,0.5750877,-34.26243,-41.46786,-23.60645
87.357240677,132.7221,-86.6794100000001,42.18026,0.6823635,0.84432,0.5710071,-34.26243,-41.46786,-23.60645
87.367128849,123.3347,-85.38487,40.04206,0.6680021,0.8918538,0.5563229,-38.47869,-42.0233,-16.03617
87.377016068,107.7926,-86.38519,36.62095,0.6908497,0.9035314,0.5586945,-38.47869,-42.0233,-16.03617
87.38690424,90.3233800000002,-85.7379200000002,33.26092,0.7229035,0.914296,0.5663713,-38.47869,-42.0233,-16.03617
87.396791458,74.0974899999998,-84.5610699999999,30.75617,0.7199341,0.9042125,0.5755563,-38.47869,-42.0233,-16.03617
87.406679154,58.6176200000001,-81.6777999999997,29.90089,0.7140222,0.8813879,0.5790315,-38.47869,-42.0233,-16.03617
87.416567326,45.74881,-77.2646100000002,28.80125,0.7153786,0.8650949,0.5969095,-41.54893,-42.23278,-9.288527
87.426454544,36.73442,-71.0273099999998,26.72414,0.7119008,0.8457028,0.6022936,-41.54893,-42.23278,-9.288527
87.436342716,29.08774,-62.3774599999999,25.92995,0.7215453,0.8396122,0.6196485,-41.54893,-42.23278,-9.288527
87.446229935,22.80876,-54.90446,23.36411,0.7414469,0.8385702,0.6177527,-41.54893,-42.23278,-9.288527
87.45611763,16.34327,-42.95944,19.02663,0.7302326,0.8732488,0.6882601,-41.54893,-42.23278,-9.288527
87.468477726,8.63441800000001,-31.19094,13.10076,0.8561707,0.7711321,0.6499647,-42.32579,-40.9942,-4.196797
87.478364945,8.63441800000001,-17.06875,12.00112,0.8590513,0.7469422,0.6284488,-42.32579,-40.9942,-4.196797
87.488253117,8.758755,-5.30025,11.57348,0.8531563,0.7279916,0.6304616,-42.32579,-40.9942,-4.196797
87.498140335,8.63441800000001,6.17403499999999,11.08475,0.8699952,0.6960568,0.6465124,-42.32579,-40.9942,-4.196797
87.508028031,7.26671799999998,17.47179,10.04619,0.8761728,0.6690127,0.6625265,-42.32579,-40.9942,-4.196797
87.517916203,4.344815,27.71038,8.94654800000002,0.8909987,0.6315621,0.7002445,-43.46986,-40.269,-3.389175
87.527803421,3.225788,39.53772,9.67964500000003,0.9049807,0.6122217,0.7114193,-43.46986,-40.269,-3.389175
87.537691593,2.106761,50.36474,9.67964500000003,0.9097969,0.6124495,0.727294,-43.46986,-40.269,-3.389175
87.547578812,-1.063815,62.5451400000002,10.29056,0.8893121,0.5937074,0.7413122,-43.46986,-40.269,-3.389175
87.557466507,-4.6074,74.4313200000003,12.73421,0.8766213,0.5906977,0.7663209,-43.46986,-40.269,-3.389175
87.567354679,-8.64833199999999,86.96477,14.81132,0.8621053,0.6023843,0.7643216,-43.82459,-40.28733,-4.694812
87.577241897,-11.6324,100.4397,15.72769,0.8433118,0.6309215,0.7487665,-43.82459,-40.28733,-4.694812
87.587129593,-14.86515,113.4439,15.23896,0.8367141,0.6824362,0.740804,-43.82459,-40.28733,-4.694812
87.597017288,-21.3928,122.6233,13.03967,0.8228754,0.7376956,0.7217531,-43.82459,-40.28733,-4.694812
87.606904983,-29.66117,129.8609,9.19091300000002,0.8346179,0.7679352,0.7264228,-43.82459,-40.28733,-4.694812
87.616793156,-35.75365,137.5105,5.52543,0.8569859,0.7930129,0.7455584,-44.13597,-40.35222,-8.529708
87.626680374,-44.33286,145.16,1.921037,0.8508052,0.8295321,0.744405,-44.13597,-40.35222,-8.529708
87.636568069,-57.07733,151.9857,-1.805538,0.8188305,0.8361825,0.7289455,-44.13597,-40.35222,-8.529708
87.646455765,-73.4275600000002,157.5169,-2.721908,0.7776217,0.8085902,0.6694039,-44.13597,-40.35222,-8.529708
87.65634346,-90.6481399999999,160.7532,-0.6448011,0.7246996,0.779934,0.6348622,-44.13597,-40.35222,-8.529708
87.666231632,-105.382,161.1651,1.61558,0.6843604,0.7295899,0.584574,-43.26398,-39.73245,-15.3327
87.676118851,-114.3964,159.8706,4.364694,0.6740746,0.6794381,0.5511513,-43.26398,-39.73245,-15.3327
87.686006546,-118.5616,160.5767,5.219973,0.6826854,0.6364256,0.54176,-43.26398,-39.73245,-15.3327
87.698366165,-115.7641,162.5774,6.563983,0.684946,0.5852196,0.5372121,-43.26398,-39.73245,-15.3327
87.70825386,-110.8528,162.1655,7.84690300000002,0.6557637,0.5637579,0.5310355,-43.26398,-39.73245,-15.3327
87.718142033,-106.0037,160.4002,9.55746199999998,0.6255702,0.5490241,0.5512742,-40.91004,-38.41593,-24.1887
87.728029251,-103.6413,158.8114,11.51239,0.5871956,0.5592415,0.5781106,-40.91004,-38.41593,-24.1887
87.737916946,-106.1902,155.3397,13.95604,0.5483711,0.5622687,0.5799748,-40.91004,-38.41593,-24.1887
87.747804165,-113.6504,152.1034,16.46079,0.5086008,0.5517043,0.5520896,-40.91004,-38.41593,-24.1887
87.757692337,-120.4889,145.3365,18.96553,0.4469993,0.525191,0.4968476,-40.91004,-38.41593,-24.1887
87.767580509,-127.0787,137.8635,21.53137,0.3867768,0.489209,0.45993,-37.80691,-36.03214,-32.65345
87.777467728,-132.5495,129.6844,22.56993,0.3177814,0.4475016,0.4297643,-37.80691,-36.03214,-32.65345
87.787355423,-131.8035,118.9751,21.47028,0.2768675,0.3952344,0.4136306,-37.80691,-36.03214,-32.65345
87.797242641,-123.8459,108.1481,18.41571,0.2320376,0.3606004,0.4363579,-37.80691,-36.03214,-32.65345
87.807130814,-113.153,99.9101099999999,13.03967,0.2216332,0.3181648,0.4630112,-37.80691,-36.03214,-32.65345
87.817018509,-101.6519,94.4965999999998,8.45781600000002,0.2092342,0.2641254,0.495011,-33.96227,-32.5097,-40.27387
87.826906204,-89.9021199999997,88.3769800000001,3.326139,0.1934939,0.2276516,0.5288419,-33.96227,-32.5097,-40.27387
87.836793899,-81.0742400000001,83.6107399999998,0.02720419,0.1734966,0.1954589,0.5227298,-33.96227,-32.5097,-40.27387
87.846681118,-72.0598599999999,74.0194199999999,-5.226655,0.1432969,0.1608588,0.5170993,-33.96227,-32.5097,-40.27387
87.85656929,-61.4912699999998,67.1936900000001,-6.26520899999998,0.129186,0.1501594,0.5161754,-33.96227,-32.5097,-40.27387
87.866456985,-50.1145,57.42584,-9.80851,0.09325478,0.1607655,0.5367606,-30.1657,-27.86241,-44.99094
87.876344204,-41.16228,46.89304,-13.59618,0.08157873,0.169419,0.5602687,-30.1657,-27.86241,-44.99094
87.886232376,-32.83175,38.89046,-17.62821,0.06887428,0.1655001,0.5896103,-30.1657,-27.86241,-44.99094
87.896119595,-25.37157,31.06441,-22.27116,0.07415672,0.1588809,0.6035964,-30.1657,-27.86241,-44.99094
87.908479691,-17.53838,22.06151,-26.60864,0.06674707,0.153241,0.6488231,-30.1657,-27.86241,-44.99094
87.918367386,-13.06227,15.29462,-28.25811,0.08985858,0.1309845,0.6941684,-27.17398,-26.11659,-47.02466
87.928255081,-9.76735799999998,9.70458300000001,-28.80793,0.1100991,0.1169327,0.7341788,-27.17398,-26.11659,-47.02466
87.938142776,-6.34810900000002,6.23287700000002,-28.62466,0.114393,0.1159019,0.7635252,-27.17398,-26.11659,-47.02466
87.948029995,-3.053197,2.525801,-27.83047,0.1221265,0.1185802,0.7808336,-27.17398,-26.11659,-47.02466
87.957918167,1.79592,-0.2397956,-27.95266,0.1337701,0.127051,0.7952316,-27.17398,-26.11659,-47.02466
87.967805862,6.023355,-3.534975,-28.25811,0.1289476,0.1457731,0.8090783,-25.7111,-24.26299,-47.86137
87.977693081,8.07490399999999,-7.536264,-28.62466,0.1454605,0.1660793,0.8340023,-25.7111,-24.26299,-47.86137
87.987581253,9.44260400000002,-9.889963,-29.90758,0.1556104,0.1747903,0.8642679,-25.7111,-24.26299,-47.86137
87.997468472,10.49946,-11.47871,-30.02976,0.1599187,0.16919,0.8811333,-25.7111,-24.26299,-47.86137
88.007356644,11.18331,-12.12598,-29.60212,0.1690255,0.1460141,0.8956884,-25.7111,-24.26299,-47.86137
88.017244339,11.36982,-12.24366,-26.97519,0.1655647,0.1275097,0.8952971,-25.33551,-25.02464,-47.84219
88.027131557,10.68597,-12.24366,-23.73735,0.1723057,0.1149003,0.8996967,-25.33551,-25.02464,-47.84219
88.03701973,10.56163,-11.5964,-19.58313,0.1771245,0.1041635,0.8987946,-25.33551,-25.02464,-47.84219
88.046906948,10.12645,-11.24334,-14.818,0.1650078,0.1025828,0.8891704,-25.33551,-25.02464,-47.84219
88.05679512,9.19393199999998,-11.89061,-9.93069299999999,0.1596864,0.09999325,0.8781163,-25.33551,-25.02464,-47.84219
88.066682816,8.51008100000002,-11.83177,-4.432467,0.1480664,0.1003306,0.8665593,-25.34479,-26.46671,-47.43274
88.076570034,7.08021400000001,-13.71473,0.08829559,0.1413014,0.0976648,0.8502137,-25.34479,-26.46671,-47.43274
88.086458206,6.831541,-15.48,4.731242,0.1417789,0.09472778,0.8492672,-25.34479,-26.46671,-47.43274
88.096345902,7.577559,-17.06875,8.94654800000002,0.150036,0.09368005,0.8454345,-25.34479,-26.46671,-47.43274
88.10623312,10.25079,-18.2456,12.55094,0.1751909,0.07226923,0.8498996,-25.34479,-26.46671,-47.43274
88.116121292,14.29172,-18.48096,16.3997,0.1984695,0.05891022,0.8389324,-25.73022,-26.83088,-46.98204
88.126008511,18.58133,-18.89286,20.79828,0.2052854,0.05478547,0.8245334,-25.73022,-26.83088,-46.98204
88.138368607,22.74659,-21.01119,25.99104,0.2073035,0.06076675,0.8014213,-25.73022,-26.83088,-46.98204
88.148255825,25.91717,-23.42373,30.20635,0.2073948,0.0716357,0.7792441,-25.73022,-26.83088,-46.98204
88.158143997,28.71474,-27.07197,33.99402,0.202614,0.08462026,0.7676309,-26.05239,-27.57524,-46.58947
88.168031693,31.69881,-31.54399,36.2544,0.1949453,0.08650939,0.7301008,-26.05239,-27.57524,-46.58947
88.177918911,35.24239,-37.66362,38.75915,0.1911391,0.0855339,0.6969179,-26.05239,-27.57524,-46.58947
88.187807083,38.28863,-42.72407,41.75262,0.1761445,0.07976133,0.6671129,-26.05239,-27.57524,-46.58947
88.197694778,41.21053,-47.72568,44.92938,0.170343,0.07266073,0.6474244,-26.05239,-27.57524,-46.58947
88.207581997,44.87846,-55.7871,50.91633,0.1141716,0.1366288,0.6840682,-27.59024,-27.52092,-44.87276
88.217470169,47.92469,-62.9070399999998,53.90981,0.1032215,0.1686435,0.641573,-27.59024,-27.52092,-44.87276
88.227357388,49.66541,-68.8501299999998,55.00946,0.1866704,0.1293912,0.600507,-27.59024,-27.52092,-44.87276
88.23724556,53.39549,-74.7932199999998,57.3920200000002,0.2313932,0.1338488,0.5788938,-27.59024,-27.52092,-44.87276
88.247133255,56.56607,-79.9125200000001,59.7745900000002,0.2703754,0.1641621,0.5595481,-27.59024,-27.52092,-44.87276
88.257021427,61.5395199999999,-86.38519,60.1411300000002,0.3140843,0.1813347,0.5739387,-29.82542,-27.82855,-42.84222
88.266908646,66.8238099999999,-91.6221699999998,62.3404199999998,0.3419387,0.1925331,0.5123558,-29.82542,-27.82855,-42.84222
88.276795864,72.6054500000002,-100.1543,62.7069799999998,0.3847438,0.2142606,0.5055618,-29.82542,-27.82855,-42.84222
88.286684036,74.9678499999999,-106.9801,58.91931,0.4352694,0.2392469,0.5223253,-29.82542,-27.82855,-42.84222
88.296571732,77.51674,-109.9222,55.68146,0.4761167,0.2536165,0.5117189,-29.82542,-27.82855,-42.84222
88.30645895,83.23621,-112.5701,54.704,0.5053408,0.2847667,0.5144802,-33.99697,-27.67442,-37.8118
88.316347122,89.6395299999999,-114.5119,54.27636,0.5157589,0.3589638,0.5275828,-33.99697,-27.67442,-37.8118
88.326234341,95.6698500000002,-119.0428,50.67197,0.5324072,0.3998132,0.5259526,-33.99697,-27.67442,-37.8118
88.336122036,98.5295799999997,-121.8672,48.41159,0.5538427,0.4231588,0.5268208,-33.99697,-27.67442,-37.8118
88.346010208,97.5348899999999,-124.8682,48.53377,0.5578431,0.4358456,0.4964632,-33.99697,-27.67442,-37.8118
88.358369351,93.2452899999998,-133.4003,51.46616,0.556111,0.4713514,0.4606937,-39.25904,-28.23807,-31.56287
88.368257523,90.4477200000003,-142.874,51.8938,0.5634322,0.4860101,0.4649562,-39.25904,-28.23807,-31.56287
88.378144741,85.9716099999999,-149.6997,51.64943,0.6077454,0.520345,0.4547338,-39.25904,-28.23807,-31.56287
88.388032436,82.8632000000003,-152.936,46.70103,0.6486261,0.5419685,0.4407243,-39.25904,-28.23807,-31.56287
88.397920609,83.9200599999999,-154.5836,41.81372,0.683642,0.5459439,0.4181407,-39.25904,-28.23807,-31.56287
88.407807827,86.0337800000002,-156.4077,39.12569,0.7239525,0.5501893,0.4143178,-43.8377,-28.74049,-24.84513
88.417695999,89.9503699999999,-159.9971,36.68204,0.7575341,0.579906,0.4194959,-43.8377,-28.74049,-24.84513
88.427583218,94.6129799999997,-163.2923,35.15475,0.8075383,0.587205,0.4257678,-43.8377,-28.74049,-24.84513
88.437470913,99.1512599999998,-165.3518,33.50529,0.8652967,0.6134743,0.4641744,-43.8377,-28.74049,-24.84513
88.447359085,101.9488,-163.5865,28.92343,0.9131881,0.5875229,0.4936962,-43.8377,-28.74049,-24.84513
88.457246304,104.8707,-159.291,29.28998,0.9418663,0.6036291,0.4998994,-47.69019,-28.59283,-16.4329
88.467134476,105.6789,-153.6422,33.62747,0.9302956,0.6613801,0.5500911,-47.69019,-28.59283,-16.4329
88.477022171,101.265,-148.6405,29.35107,0.9158338,0.7010887,0.5657444,-47.69019,-28.59283,-16.4329
88.48690939,88.3339999999999,-149.6997,29.22889,0.9426842,0.7582821,0.5837609,-47.69019,-28.59283,-16.4329
88.496797562,70.1187299999998,-149.229,25.07467,0.9795266,0.7415811,0.579078,-47.69019,-28.59283,-16.4329
88.50668478,47.24084,-149.1701,23.36411,1.000369,0.7362481,0.583457,-50.80952,-27.61324,-6.717945
88.516572952,23.80345,-149.6409,20.79828,0.9973699,0.7069436,0.5773497,-50.80952,-27.61324,-6.717945
88.526460648,3.909638,-147.6402,18.72117,0.9974917,0.6350923,0.6248431,-50.80952,-27.61324,-6.717945
88.536347866,-10.88638,-141.2264,17.62152,0.9901714,0.6458073,0.6565214,-50.80952,-27.61324,-6.717945
88.546236038,-16.35718,-129.6933,15.48333,1.092389,0.5931009,0.6626751,-50.80952,-27.61324,-6.717945
88.556123257,-16.04634,-108.2746,13.40622,1.133923,0.5609971,0.7032819,-52.36987,-26.71064,0.04810262
88.568483353,-17.04103,-80.4421,8.09126800000003,1.17513,0.5632229,0.7273636,-52.36987,-26.71064,0.04810262
88.578371048,-14.42997,-51.66813,5.95307000000001,1.158746,0.5983301,0.7281293,-52.36987,-26.71064,0.04810262
88.588258266,-7.52930399999999,-25.65975,2.04322,1.12619,0.5662754,0.6969945,-52.36987,-26.71064,0.04810262
88.598146439,-1.996338,-4.064557,0.08829559,1.084757,0.6012269,0.6188615,-52.36987,-26.71064,0.04810262
88.608033657,1.049902,13.76472,-1.316806,1.036824,0.598583,0.565919,-52.45409,-25.86264,5.031161
88.617921352,4.406983,28.29881,-2.721908,1.03345,0.5904749,0.5443147,-52.45409,-25.86264,5.031161
88.627809524,10.68597,43.59785,-2.35536,1.029068,0.5880848,0.5467265,-52.45409,-25.86264,5.031161
88.637696743,17.02712,59.0734299999998,-4.615741,1.029348,0.5435939,0.5676312,-52.45409,-25.86264,5.031161
88.647584915,21.62757,73.4309899999999,-6.63175700000002,1.010194,0.4763752,0.5641018,-52.45409,-25.86264,5.031161
88.657472134,21.87624,82.7280999999999,-6.20411800000003,1.006691,0.4357495,0.5498754,-52.81062,-26.25784,3.795682
88.667359829,16.40544,92.5548000000001,-3.821553,1.014373,0.4123751,0.5509641,-52.81062,-26.25784,3.795682
88.677248001,8.38574500000001,98.38021,0.4548439,0.981904,0.399676,0.5115559,-52.81062,-26.25784,3.795682
88.68713522,1.049902,102.3227,4.120328,0.9765967,0.4188932,0.5258803,-52.81062,-26.25784,3.795682
88.697023392,-5.166914,108.5011,6.19743500000001,0.9310287,0.4569385,0.5564152,-52.81062,-26.25784,3.795682
88.706911087,-10.0782,119.1516,5.342156,0.9009394,0.4738922,0.5788986,-52.7535,-26.69795,0.4286395
88.716798305,-11.57024,128.9783,3.142865,0.8801389,0.4889138,0.5711043,-52.7535,-26.69795,0.4286395
88.726686478,-11.75674,137.1574,0.2104784,0.8778972,0.5365171,0.5626855,-52.7535,-26.69795,0.4286395
88.736573696,-15.549,143.0417,-6.32629999999998,0.9152504,0.5619535,0.607806,-52.7535,-26.69795,0.4286395
88.746461868,-21.33064,155.4574,-12.0078,0.9523544,0.6048089,0.5802192,-52.7535,-26.69795,0.4286395
88.756349564,-26.80143,158.988,-19.8275,0.969985,0.6580243,0.5915124,-52.66544,-26.03491,-4.640488
88.766236782,-31.96139,168.0497,-26.97519,0.9987433,0.6985065,0.5995163,-52.66544,-26.03491,-4.640488
88.776124954,-41.16228,171.1684,-34.36725,0.9877062,0.7275872,0.5887765,-52.66544,-26.03491,-4.640488
88.786012649,-51.4822,171.2272,-44.14187,0.961013,0.7052311,0.5556755,-52.66544,-26.03491,-4.640488
88.798372269,-59.4397199999998,169.05,-54.09977,0.9168153,0.6870856,0.5412893,-51.39767,-27.33484,-12.70544
88.808259964,-61.9264499999999,169.6385,-60.5754599999998,0.8778778,0.6475327,0.528941,-51.39767,-27.33484,-12.70544
88.818147182,-62.3616299999999,169.6973,-65.8293100000001,0.8598236,0.6198049,0.5285797,-51.39767,-27.33484,-12.70544
88.828035355,-60.2479100000002,169.9327,-72.1828199999998,0.8436833,0.5817972,0.524906,-51.39767,-27.33484,-12.70544
88.837922573,-54.83928,169.815,-76.39812,0.8044196,0.5830409,0.5051373,-51.39767,-27.33484,-12.70544
88.847810268,-50.05233,168.8735,-80.0636100000002,0.7859711,0.5905685,0.5175822,-48.30115,-28.60561,-21.11892
88.857698441,-46.13573,166.4021,-83.9123600000001,0.7548509,0.6213406,0.5847203,-48.30115,-28.60561,-21.11892
88.867585659,-47.19259,163.9896,-90.0825999999998,0.7102832,0.6437708,0.5807089,-48.30115,-28.60561,-21.11892
88.877473831,-54.83928,159.1057,-95.5197299999998,0.7170098,0.6561344,0.6268225,-48.30115,-28.60561,-21.11892
88.887361526,-66.0917099999999,160.1648,-97.2302900000002,0.7508553,0.6170828,0.6251347,-48.30115,-28.60561,-21.11892
88.897248745,-77.2819800000001,159.2822,-92.7095300000001,0.7154581,0.6179253,0.6116243,-43.00648,-30.3497,-29.47616
88.907136917,-92.6996800000002,156.8108,-86.0505599999999,0.683008,0.6344666,0.6062137,-43.00648,-30.3497,-29.47616
88.917024136,-109.2986,151.2208,-81.9574399999999,0.6520224,0.6350273,0.5744349,-43.00648,-30.3497,-29.47616
88.926912308,-125.5245,145.7484,-78.7196000000001,0.5942757,0.6047041,0.5254685,-43.00648,-30.3497,-29.47616
88.936800003,-139.6988,138.9815,-75.1762900000001,0.4923656,0.5828902,0.4860273,-43.00648,-30.3497,-29.47616
88.946687222,-151.5108,131.0378,-72.1828199999998,0.4253182,0.5471087,0.4616049,-37.35598,-32.07663,-36.59262
88.956575394,-161.7685,123.0352,-70.6555300000001,0.3432795,0.5299184,0.4409189,-37.35598,-32.07663,-36.59262
88.966462612,-169.9125,112.2082,-71.5108100000002,0.2587782,0.4890717,0.4011128,-37.35598,-32.07663,-36.59262
88.976350307,-175.5077,105.0882,-69.5558900000001,0.2061187,0.3966318,0.3673747,-37.35598,-32.07663,-36.59262
88.98623848,-176.0672,94.2023899999999,-69.0671499999999,0.1582328,0.3002096,0.3610746,-37.35598,-32.07663,-36.59262
88.996125698,-172.1506,82.6692699999998,-69.4337000000002,0.1039264,0.1776271,0.363075,-30.19396,-31.17806,-43.64704
89.008485794,-157.0437,71.8422500000002,-66.6234999999999,0.07086208,0.01939765,0.3614324,-30.19396,-31.17806,-43.64704
89.018373013,-136.8391,64.0161999999998,-63.9354799999998,0.02252307,-0.05234539,0.3771295,-30.19396,-31.17806,-43.64704
89.028261185,-112.7178,53.48339,-62.4692900000001,-0.02189409,-0.1109054,0.3956499,-30.19396,-31.17806,-43.64704
89.03814888,-88.7831000000001,43.89207,-62.4692900000001,-0.04985191,-0.1642474,0.4396514,-30.19396,-31.17806,-43.64704
89.048036098,-66.8998999999997,36.47791,-61.3085599999997,-0.07329525,-0.1946345,0.4561297,-26.39005,-26.15986,-48.75853
89.057924271,-47.81427,27.53386,-55.81033,-0.09816829,-0.2321524,0.4514818,-26.39005,-26.15986,-48.75853
89.067811966,-30.65586,12.3525,-50.98411,-0.1355932,-0.1874674,0.5363364,-26.39005,-26.15986,-48.75853
89.077699184,-18.90608,-0.1809531,-46.7688,-0.1079284,-0.1715873,0.5598528,-26.39005,-26.15986,-48.75853
89.087587357,-10.2647,-10.00765,-42.24804,-0.05708168,-0.1744279,0.6046506,-26.39005,-26.15986,-48.75853
89.097474575,-0.4421337,-18.77518,-34.06179,0.0005906193,-0.1635394,0.6566007,-22.70407,-23.2912,-50.85727
89.107362747,7.82623200000001,-24.24753,-28.99121,0.04420266,-0.1437646,0.7147417,-22.70407,-23.2912,-50.85727
89.117250443,14.16738,-27.54271,-23.49298,0.08985432,-0.1131678,0.7478226,-22.70407,-23.2912,-50.85727
89.127137661,17.33796,-29.89641,-18.23912,0.1175738,-0.08021591,0.7731764,-22.70407,-23.2912,-50.85727
89.137025833,20.44637,-32.01474,-14.45146,0.1341254,-0.04273714,0.8066704,-22.70407,-23.2912,-50.85727
89.146913052,23.86562,-33.42696,-11.39689,0.1467778,-0.01261244,0.8363496,-21.58764,-23.29226,-49.98845
89.156801224,28.27956,-35.13339,-10.05288,0.1623009,-0.0001458423,0.8579457,-21.58764,-23.29226,-49.98845
89.166688919,33.12867,-35.01571,-9.07541400000002,0.1758389,0.003144525,0.8843951,-21.58764,-23.29226,-49.98845
89.176576138,37.16961,-34.83918,-7.303762,0.17344,0.01790156,0.8939362,-21.58764,-23.29226,-49.98845
89.18646431,39.59416,-34.25075,-4.676833,0.172958,0.03629351,0.9188507,-21.58764,-23.29226,-49.98845
89.196352005,40.52668,-33.95654,-1.744446,0.1647351,0.05255167,0.9303013,-22.7367,-24.70821,-49.08591
89.206239224,40.27801,-32.95621,1.737763,0.1706511,0.07485341,0.9244242,-22.7367,-24.70821,-49.08591
89.216127396,39.7185,-32.07358,4.547967,0.1707143,0.09336457,0.9248117,-22.7367,-24.70821,-49.08591
89.226014614,39.7185,-31.1321,7.90799399999997,0.1756458,0.09933291,0.901222,-22.7367,-24.70821,-49.08591
89.23837471,40.77536,-30.13178,12.24548,0.1780931,0.1021851,0.8968821,-22.7367,-24.70821,-49.08591
89.248262405,41.2727,-30.19062,16.21642,0.181047,0.09743721,0.8728634,-24.58184,-25.793,-47.87927
89.258150101,43.26208,-29.48451,20.06518,0.194659,0.1022511,0.8709308,-24.58184,-25.793,-47.87927
89.268037796,44.62978,-28.42534,23.97503,0.2034226,0.1005716,0.8574834,-24.58184,-25.793,-47.87927
89.277925015,44.81629,-28.66072,28.31252,0.2097862,0.1106699,0.8497449,-24.58184,-25.793,-47.87927
89.287813187,45.25146,-28.71956,32.89437,0.2210445,0.1234862,0.8290133,-24.58184,-25.793,-47.87927
89.297700882,45.43797,-29.13145,36.62095,0.2288905,0.1324208,0.8087784,-25.36976,-27.95508,-46.11447
89.307588101,45.99748,-29.83756,40.71407,0.2226431,0.1360196,0.7880735,-25.36976,-27.95508,-46.11447
89.317476273,47.73819,-32.77969,44.80719,0.2241215,0.1343833,0.7765414,-25.36976,-27.95508,-46.11447
89.327364445,49.85191,-35.36876,49.57232,0.2125091,0.1262124,0.7496379,-25.36976,-27.95508,-46.11447
89.337251663,51.65479,-40.31153,54.82618,0.2076972,0.117498,0.7198594,-25.36976,-27.95508,-46.11447
89.347139359,51.90346,-46.54883,61.7295099999997,0.2164426,0.09652558,0.6863108,-27.97592,-28.64241,-44.47631
89.357026577,50.10058,-51.13854,68.3884799999999,0.247098,0.08403769,0.6368739,-27.97592,-28.64241,-44.47631
89.366914749,48.67072,-51.25623,72.7870599999998,0.2079378,0.1244385,0.6303733,-27.97592,-28.64241,-44.47631
89.376802445,47.36518,-54.61025,79.0794800000003,0.2589398,0.142513,0.6409201,-27.97592,-28.64241,-44.47631
89.38669014,46.61916,-57.14048,83.3558700000002,0.2891585,0.187941,0.6541908,-27.97592,-28.64241,-44.47631
89.396577835,44.50545,-59.72955,87.2657200000002,0.33888,0.2501939,0.6553755,-29.85637,-28.9317,-41.14013
89.406465054,40.77536,-63.4954600000001,87.7544500000001,0.3774176,0.3026437,0.6508259,-29.85637,-28.9317,-41.14013
89.416353226,33.93686,-70.0858199999999,87.8766299999997,0.3782535,0.3596473,0.5875382,-29.85637,-28.9317,-41.14013
89.426240921,25.41982,-81.6777999999997,84.0889700000002,0.3765501,0.405422,0.5546023,-29.85637,-28.9317,-41.14013
89.43612814,16.65411,-95.5646199999998,79.9347500000002,0.3379698,0.4616466,0.531671,-29.85637,-28.9317,-41.14013
89.446016312,6.70720499999998,-110.5695,68.6939399999998,0.329405,0.456596,0.4532967,-33.97542,-28.07634,-39.10355
89.458376408,0.4903888,-128.3987,54.82618,0.3696471,0.4149944,0.4121935,-33.97542,-28.07634,-39.10355
89.468263626,5.52601,-135.2833,51.8938,0.3744137,0.3811985,0.3998657,-33.97542,-28.07634,-39.10355
89.478151322,19.32734,-144.5804,46.82321,0.3761229,0.3652447,0.4730483,-33.97542,-28.07634,-39.10355
89.488039017,36.79659,-150.347,37.10968,0.4699195,0.3245763,0.5666591,-33.97542,-28.07634,-39.10355
89.497926712,57.9337700000003,-146.1692,26.35759,0.5585428,0.3162132,0.6379784,-38.45058,-26.41372,-34.55546
89.507814884,83.9200599999999,-135.3421,16.76624,0.6632261,0.3010782,0.6819378,-38.45058,-26.41372,-34.55546
89.517702103,113.7608,-123.1029,16.88843,0.6971177,0.3000536,0.715646,-38.45058,-26.41372,-34.55546
89.527589798,134.9601,-116.0418,21.28701,0.7048822,0.3478208,0.7846661,-38.45058,-26.41372,-34.55546
89.537477017,138.0685,-109.6868,26.11323,0.7576895,0.3732214,0.862026,-38.45058,-26.41372,-34.55546
89.547365189,128.4325,-100.8604,32.03909,0.8261814,0.4324619,0.9248052,-43.39634,-25.15349,-28.26017
89.557252884,115.1285,-91.7987000000001,37.17077,0.8691601,0.5232588,0.9450749,-43.39634,-25.15349,-28.26017
89.567140579,98.9025900000001,-82.8546399999997,38.3315,0.8913481,0.6449401,0.976226,-43.39634,-25.15349,-28.26017
89.577028274,81.9306800000001,-71.3215200000002,36.62095,0.8965256,0.7498757,0.9925338,-43.39634,-25.15349,-28.26017
89.586916447,59.79881,-61.0240799999999,30.5729,0.8622845,0.8301627,1.016135,-43.39634,-25.15349,-28.26017
89.596803665,32.6935,-52.66845,21.59246,0.8491521,0.8303612,1.027661,-46.8306,-26.82338,-22.40872
89.60669136,3.598797,-46.3723,14.13932,0.8465823,0.7775241,1.011093,-46.8306,-26.82338,-22.40872
89.616579056,-20.70895,-38.25204,9.61855299999999,0.8530905,0.6797976,0.989953,-46.8306,-26.82338,-22.40872
89.626466751,-39.73241,-29.54335,7.60253699999999,0.85568,0.573844,0.9717355,-46.8306,-26.82338,-22.40872
89.636354923,-52.78773,-19.89318,7.235989,0.8665843,0.4824033,0.9481639,-46.8306,-26.82338,-22.40872
89.646242142,-57.8855200000001,-7.94816200000002,5.83088700000002,0.8901927,0.4202623,0.9316725,-49.09443,-26.34268,-18.63776
89.656129837,-56.26915,4.349918,4.914516,0.8814073,0.3757999,0.8881235,-49.09443,-26.34268,-18.63776
89.666018009,-50.301,16.53031,4.425785,0.8848163,0.3583042,0.8583986,-49.09443,-26.34268,-18.63776
89.678377151,-39.73241,29.82871,3.937053,0.8553478,0.3579794,0.8001752,-49.09443,-26.34268,-18.63776
89.688265324,-31.71272,39.06698,4.181419,0.8278242,0.3770373,0.7683069,-49.45557,-25.59654,-19.50003
89.698152542,-27.23661,46.0104,3.509414,0.7935081,0.4005703,0.7416983,-49.45557,-25.59654,-19.50003
89.708040237,-27.11227,51.18853,1.921037,0.7582159,0.4276217,0.7222846,-49.45557,-25.59654,-19.50003
89.71792841,-29.72334,53.7776,0.4548439,0.7224326,0.4392838,0.6832304,-49.45557,-25.59654,-19.50003
89.727815628,-33.08042,53.83645,-0.3393442,0.6889551,0.4258284,0.6582524,-49.45557,-25.59654,-19.50003
89.7377038,-35.75365,52.01233,-1.377898,0.6651791,0.4079139,0.6294607,-49.03333,-24.57744,-22.03574
89.747591019,-36.49967,50.42358,-1.316806,0.651518,0.3725569,0.6079823,-49.03333,-24.57744,-22.03574
89.757478714,-34.94547,49.36442,-0.8280753,0.6310263,0.3394273,0.6042791,-49.03333,-24.57744,-22.03574
89.767366886,-31.46405,48.12873,0.149387,0.6197805,0.3101103,0.5962389,-49.03333,-24.57744,-22.03574
89.777254105,-26.42842,47.06956,1.371215,0.6167634,0.2799253,0.5963879,-49.03333,-24.57744,-22.03574
89.7871418,-19.46559,46.42229,2.593043,0.6080167,0.2720435,0.589204,-48.23427,-24.25817,-24.61799
89.797029972,-12.31625,45.53966,3.753779,0.607552,0.2823639,0.5954033,-48.23427,-24.25817,-24.61799
89.806917191,-5.85076400000003,45.48082,4.547967,0.6099545,0.2964467,0.6256328,-48.23427,-24.25817,-24.61799
89.816805363,-0.939479,46.89304,4.547967,0.6176743,0.3012022,0.6515873,-48.23427,-24.25817,-24.61799
89.826692581,2.728442,48.18757,3.631597,0.616623,0.3081817,0.6948338,-48.23427,-24.25817,-24.61799
89.836580276,4.779992,50.3059,3.875962,0.6180279,0.3075069,0.7150375,-47.1215,-23.56425,-27.13355
89.846468449,4.655655,51.07085,3.875962,0.6034178,0.3048586,0.7313855,-47.1215,-23.56425,-27.13355
89.856355667,2.790611,50.24706,3.998145,0.5981222,0.3130537,0.7250862,-47.1215,-23.56425,-27.13355
89.866243839,1.236407,54.48372,4.853425,0.6333913,0.3125225,0.7919769,-47.1215,-23.56425,-27.13355
89.876131535,-1.063815,57.7200499999998,5.036699,0.6013234,0.2993591,0.7867169,-47.1215,-23.56425,-27.13355
89.886018753,-4.545232,57.4846799999998,4.67015,0.5881469,0.2878925,0.7997447,-45.58477,-23.61737,-28.78541
89.898378849,-7.46713599999998,59.5441699999999,4.425785,0.5977967,0.2762944,0.8070281,-45.58477,-23.61737,-28.78541
89.908266067,-9.891694,60.77986,4.425785,0.6031664,0.2820626,0.8026768,-45.58477,-23.61737,-28.78541
89.91815424,-12.68926,62.3097599999999,3.387231,0.6047209,0.3013434,0.7895963,-45.58477,-23.61737,-28.78541
89.928041935,-15.05165,63.6631399999998,1.493398,0.605718,0.3126203,0.7948305,-45.58477,-23.61737,-28.78541
89.937929153,-16.29501,65.3695799999997,-0.15607,0.5974929,0.3114758,0.782323,-44.78749,-23.67497,-31.29751
89.947817326,-15.61117,66.8994800000002,-2.477543,0.5780582,0.3011875,0.77562,-44.78749,-23.67497,-31.29751
89.957705021,-14.1813,68.1940199999998,-4.676833,0.5625231,0.2942715,0.7669806,-44.78749,-23.67497,-31.29751
89.967592716,-12.37842,69.6650799999999,-6.57066600000002,0.5406503,0.2800782,0.7593328,-44.78749,-23.67497,-31.29751
89.977480412,-10.2647,70.0181300000002,-8.40340800000002,0.5134616,0.2702275,0.7482905,-44.78749,-23.67497,-31.29751
89.98736763,-6.90762299999998,70.5477100000001,-10.11397,0.4964722,0.2578286,0.7310207,-43.28762,-22.30301,-34.33303
89.997255802,-1.188152,70.4888700000003,-11.45798,0.4732006,0.2477545,0.7055563,-43.28762,-22.30301,-34.33303
90.007143497,5.650346,69.1354899999997,-12.86308,0.4537708,0.2439045,0.7060346,-43.28762,-22.30301,-34.33303
90.017030716,12.24017,67.7821200000001,-14.51255,0.4309876,0.2497354,0.7021319,-43.28762,-22.30301,-34.33303
90.026918888,18.64349,66.2522099999999,-16.65075,0.4174495,0.2638621,0.7006023,-43.28762,-22.30301,-34.33303
90.03680706,24.54947,63.95736,-19.27768,0.3971636,0.2916368,0.6989961,-40.6781,-23.45012,-36.33466
90.046694279,29.58509,61.0740699999998,-23.12643,0.3783816,0.3385146,0.7049899,-40.6781,-23.45012,-36.33466
90.056581974,34.49637,58.2496299999997,-26.30319,0.3726786,0.38155,0.7163081,-40.6781,-23.45012,-36.33466
90.066469193,37.23177,56.71973,-31.06832,0.3857953,0.4267352,0.7762097,-40.6781,-23.45012,-36.33466
90.076357365,38.91031,57.13163,-36.50545,0.3766621,0.4764529,0.8105744,-40.6781,-23.45012,-36.33466
90.08624506,34.55854,56.9551,-42.12586,0.3587836,0.506336,0.8200215,-37.68924,-23.91085,-38.40229
90.096132755,25.48199,54.54256,-47.44081,0.3496308,0.5273145,0.8213479,-37.68924,-23.91085,-38.40229
90.106020451,14.47822,51.77696,-51.47284,0.3380825,0.5446159,0.804415,-37.68924,-23.91085,-38.40229
90.118379593,0.5525569,47.48146,-55.26051,0.3240963,0.5500484,0.7750355,-37.68924,-23.91085,-38.40229
90.128267765,-9.14567699999998,43.36248,-58.1318,0.3100094,0.5401934,0.7654508,-37.68924,-23.91085,-38.40229
90.13815546,-16.66802,39.71425,-59.2314500000003,0.2653513,0.5422941,0.7697178,-35.40257,-26.18038,-40.00605
90.148043156,-23.38218,36.12486,-61.4307399999999,0.2525921,0.5252852,0.8029728,-35.40257,-26.18038,-40.00605
90.157930851,-29.97201,34.41843,-61.9805600000002,0.234474,0.4825341,0.8074965,-35.40257,-26.18038,-40.00605
90.167819023,-37.37002,33.35926,-62.8358399999998,0.2280872,0.4681036,0.8186233,-35.40257,-26.18038,-40.00605
90.177706242,-45.57622,33.83,-61.4307399999999,0.2245629,0.4430335,0.8350973,-35.40257,-26.18038,-40.00605
90.187593937,-53.53374,34.12421,-59.5369100000002,0.2016168,0.3976416,0.8252013,-32.81564,-28.12395,-40.76398
90.197481632,-61.4291000000001,34.12421,-56.11579,0.195149,0.3538648,0.8278198,-32.81564,-28.12395,-40.76398
90.207369328,-68.4541,33.06505,-49.76228,0.1635142,0.3176413,0.8111346,-32.81564,-28.12395,-40.76398
90.2172575,-75.3547700000002,32.3001,-43.53096,0.1629076,0.2840718,0.8132272,-32.81564,-28.12395,-40.76398
90.227144718,-80.5769000000001,30.29946,-36.56654,0.1279883,0.2690362,0.78008,-32.81564,-28.12395,-40.76398
90.237032414,-85.3016699999999,26.94543,-31.43486,0.1084826,0.2402872,0.7763556,-30.1893,-28.59466,-43.68328
90.246920586,-89.71561,23.2972,-26.42537,0.09626785,0.19006,0.737641,-30.1893,-28.59466,-43.68328
90.256807804,-89.83995,19.4136,-22.6988,0.09947921,0.1250449,0.7216219,-30.1893,-28.59466,-43.68328
90.266695976,-86.4206999999998,15.23578,-19.76641,0.1012572,0.06088424,0.6974211,-30.1893,-28.59466,-43.68328
90.276583672,-77.8415000000002,12.3525,-16.10093,0.1030592,0.008016862,0.6794153,-30.1893,-28.59466,-43.68328
90.28647089,-66.0917099999999,6.46824700000002,-12.80199,0.1121272,-0.02934524,0.6897138,-28.3215,-27.91298,-46.24653
90.296359062,-52.41472,2.584644,-11.03034,0.1275286,-0.07234233,0.6822538,-28.3215,-27.91298,-46.24653
90.306246281,-37.49436,-1.29896,-9.13650500000003,0.1405619,-0.08435491,0.6948333,-28.3215,-27.91298,-46.24653
90.316133976,-21.89015,-4.770667,-7.54812800000003,0.1372204,-0.06280746,0.7024154,-28.3215,-27.91298,-46.24653
90.326022148,-7.96448099999997,-8.59542900000002,-6.44848300000003,0.1412005,-0.02013433,0.7233648,-28.3215,-27.91298,-46.24653
90.338381291,4.033974,-12.7144,-5.165564,0.1490798,0.03287927,0.7524421,-27.17082,-24.98361,-47.10542
90.348269463,10.49946,-15.71537,-4.432467,0.1598602,0.07600435,0.7719541,-27.17082,-24.98361,-47.10542
90.358157158,14.29172,-19.06939,-3.210639,0.1758726,0.09192897,0.7968998,-27.17082,-24.98361,-47.10542
90.368044376,16.15677,-21.54078,-1.316806,0.1850797,0.09897251,0.8132259,-27.17082,-24.98361,-47.10542
90.377932549,16.71628,-23.95332,1.126849,0.1889347,0.1026252,0.8300442,-27.17082,-24.98361,-47.10542
90.387819767,17.6488,-25.65975,3.509414,0.1903679,0.106748,0.8454144,-27.17587,-23.46302,-46.67267
90.397707939,19.14084,-26.60123,5.52543,0.1986394,0.1195433,0.8554585,-27.17587,-23.46302,-46.67267
90.407595635,21.37889,-26.36586,7.419263,0.2015277,0.1216795,0.8684358,-27.17587,-23.46302,-46.67267
90.417482853,23.49261,-26.0128,9.31309600000001,0.2059257,0.1379056,0.87942,-27.17587,-23.46302,-46.67267
90.427371025,25.23332,-25.48322,10.96256,0.2117788,0.1491586,0.8836981,-27.17587,-23.46302,-46.67267
90.43725872,25.73066,-25.24785,12.24548,0.2331642,0.156399,0.882243,-28.33171,-24.93481,-45.38014
90.447146416,26.29018,-24.24753,13.77277,0.2482312,0.1612172,0.880793,-28.33171,-24.93481,-45.38014
90.457034111,27.0362,-23.89447,15.48333,0.26039,0.1625317,0.8726246,-28.33171,-24.93481,-45.38014
90.46692133,28.15522,-24.83595,17.13279,0.2652867,0.173199,0.8701717,-28.33171,-24.93481,-45.38014
90.476809502,28.83907,-23.48258,19.02663,0.2711309,0.1785368,0.8696704,-28.33171,-24.93481,-45.38014
90.486697197,29.46075,-23.60026,20.24846,0.2852238,0.1823829,0.8682242,-29.4149,-25.2817,-44.55606
90.496584892,30.82845,-23.36489,21.71465,0.2827993,0.1783915,0.8615087,-29.4149,-25.2817,-44.55606
90.506472588,31.94748,-22.77647,24.03612,0.2862194,0.1707785,0.8413525,-29.4149,-25.2817,-44.55606
90.51636076,32.32049,-22.71762,27.0296,0.2760358,0.1667592,0.8317427,-29.4149,-25.2817,-44.55606
90.526247978,31.88531,-24.01216,30.63399,0.2775416,0.1773901,0.8264006,-29.4149,-25.2817,-44.55606
90.536135674,30.64195,-25.18901,34.97148,0.2804909,0.1766529,0.8100563,-30.56091,-25.62767,-43.73341
90.546022892,29.02558,-27.36618,38.57587,0.2848745,0.1636097,0.7851194,-30.56091,-25.62767,-43.73341
90.558382988,27.28487,-28.7784,42.66899,0.2795927,0.1677366,0.7672984,-30.56091,-25.62767,-43.73341
90.56827116,26.78752,-31.95589,45.60138,0.2791913,0.1741737,0.7417766,-30.56091,-25.62767,-43.73341
90.578158379,27.28487,-35.36876,47.55631,0.283982,0.1556529,0.7413948,-32.0989,-26.26765,-42.07183
90.588046074,28.40389,-36.89866,49.93887,0.2985412,0.1496657,0.7337468,-32.0989,-26.26765,-42.07183
90.597934246,29.52292,-38.84047,52.99344,0.3213691,0.1520122,0.7308754,-32.0989,-26.26765,-42.07183
90.607821464,30.76628,-41.48838,56.53674,0.3350183,0.1665434,0.727451,-32.0989,-26.26765,-42.07183
90.617709637,31.38797,-43.19481,59.7134900000001,0.3429275,0.2124018,0.7339612,-32.0989,-26.26765,-42.07183
90.627596855,31.45013,-47.60799,60.20222,0.3522814,0.2379256,0.7160488,-34.70244,-25.50575,-40.45401
90.63748455,30.57978,-51.96234,61.3018700000002,0.3794509,0.2429212,0.7280774,-34.70244,-25.50575,-40.45401
90.647372723,28.09305,-55.96363,63.3789800000002,0.3979744,0.2573134,0.7160028,-34.70244,-25.50575,-40.45401
90.657259941,24.79814,-61.84788,66.3113699999999,0.3950783,0.2686627,0.7255605,-34.70244,-25.50575,-40.45401
90.667147636,19.70035,-66.6729600000001,65.0895500000003,0.3912284,0.2809016,0.7293417,-34.70244,-25.50575,-40.45401
90.677035808,12.61318,-70.9684599999997,64.3564499999997,0.4314983,0.260025,0.7064087,-36.93669,-24.67802,-38.37453
90.686923027,6.45853199999998,-72.7337300000003,65.63937,0.442872,0.294008,0.6682572,-36.93669,-24.67802,-38.37453
90.696811199,2.417602,-77.0292400000002,63.1957100000003,0.4730334,0.3159116,0.6715472,-36.93669,-24.67802,-38.37453
90.706698418,-1.436824,-78.6179799999999,60.0800399999998,0.4781672,0.3683751,0.6308906,-36.93669,-24.67802,-38.37453
90.716586113,-6.53461400000002,-84.0903299999998,54.88728,0.4778618,0.4010785,0.6033124,-36.93669,-24.67802,-38.37453
90.726474285,-13.18661,-93.8581799999999,48.22831,0.460505,0.4162998,0.5767652,-39.93669,-22.37449,-35.48944
90.736361504,-20.70895,-107.3331,39.73661,0.4497796,0.3967135,0.5681953,-39.93669,-22.37449,-35.48944
90.746249676,-28.2313,-115.1592,32.95546,0.4603724,0.3643885,0.5573096,-39.93669,-22.37449,-35.48944
90.756137371,-29.4125,-120.2196,25.6245,0.4704957,0.3145467,0.514771,-39.93669,-22.37449,-35.48944
90.766024589,-23.32002,-121.6907,19.63754,0.5048169,0.2770484,0.5193278,-39.93669,-22.37449,-35.48944
90.778384685,-4.98041,-119.5135,12.30657,0.5347869,0.23746,0.5137908,-43.70563,-20.35946,-31.77402
90.788271904,16.52978,-118.8074,7.29708099999998,0.5778389,0.2437738,0.5835415,-43.70563,-20.35946,-31.77402
90.798160076,38.59947,-115.6888,4.242511,0.6257918,0.2502774,0.6340598,-43.70563,-20.35946,-31.77402
90.808047771,57.24992,-112.4524,2.47086,0.6487995,0.2912991,0.6122373,-43.70563,-20.35946,-31.77402
90.81793499,69.4970500000003,-110.2752,0.4548439,0.6944781,0.3356598,0.6539052,-43.70563,-20.35946,-31.77402
90.827823162,75.5895300000001,-106.4505,-0.0338872,0.731446,0.378877,0.683065,-47.4905,-19.14803,-27.20401
90.837710857,76.6463900000002,-103.6849,-0.8280753,0.7669927,0.4368061,0.7188817,-47.4905,-19.14803,-27.20401
90.847598553,73.41364,-98.4479000000002,-1.438989,0.8300603,0.4712156,0.7812993,-47.4905,-19.14803,-27.20401
90.857486248,66.6373099999999,-92.0340700000001,-2.35536,0.8311012,0.5001305,0.7936583,-47.4905,-19.14803,-27.20401
90.86737442,56.13089,-87.0913000000001,-4.004827,0.8392907,0.499013,0.8177193,-47.4905,-19.14803,-27.20401
90.877261639,42.51606,-82.20737,-6.14302599999999,0.8483567,0.4691277,0.8395222,-49.79294,-19.69912,-21.27788
90.887149334,28.71474,-77.0292400000002,-7.48703700000002,0.8560785,0.4469984,0.8261769,-49.79294,-19.69912,-21.27788
90.897036552,16.40544,-72.2041499999998,-8.46449900000003,0.8750205,0.4314557,0.7988645,-49.79294,-19.69912,-21.27788
90.906924725,7.764064,-68.02634,-10.66379,0.8846532,0.4045393,0.7913167,-49.79294,-19.69912,-21.27788
90.916812897,1.733752,-64.2015799999999,-12.92417,0.9063317,0.358752,0.7934964,-49.79294,-19.69912,-21.27788
90.926700115,-1.001647,-57.7288999999997,-15.12346,0.9106542,0.331165,0.7729611,-51.6899,-21.10708,-17.0827
90.936587811,0.0552116,-49.31443,-16.9562,0.9148877,0.2976721,0.78083,-51.6899,-21.10708,-17.0827
90.946475983,3.84747,-39.3112,-17.6893,0.9221442,0.2863645,0.7746434,-51.6899,-21.10708,-17.0827
90.956363201,8.94525899999998,-28.71956,-17.26166,0.9202335,0.2851787,0.7602196,-51.6899,-21.10708,-17.0827
90.966250896,12.86185,-18.36328,-16.22311,0.9231845,0.3013501,0.767355,-51.6899,-21.10708,-17.0827
90.976139069,15.16208,-8.47774399999999,-14.818,0.9063125,0.3344888,0.7666875,-52.112,-21.43188,-14.49187
90.986026287,14.60256,-0.004425639,-13.59618,0.8904572,0.3748004,0.7573282,-52.112,-21.43188,-14.49187
90.998386383,11.24548,9.82226799999998,-11.82453,0.8687685,0.4032355,0.7345566,-52.112,-21.43188,-14.49187
91.008273602,8.38574500000001,17.00105,-10.96925,0.858093,0.4037363,0.734061,-52.112,-21.43188,-14.49187
91.018161297,5.52601,23.76794,-9.86960100000001,0.8280293,0.4036088,0.7215235,-52.112,-21.43188,-14.49187
91.028049469,2.914947,29.5345,-8.708865,0.8086129,0.3971874,0.7128773,-52.1206,-22.49589,-14.08772
91.037936687,0.3038843,34.94801,-7.42594499999998,0.7823966,0.3888173,0.7032714,-52.1206,-22.49589,-14.08772
91.04782486,-2.742356,38.5374,-5.654295,0.7644208,0.3800014,0.6975245,-52.1206,-22.49589,-14.08772
91.057712555,-5.85076400000003,42.36216,-3.516097,0.7571332,0.3696101,0.6855456,-52.1206,-22.49589,-14.08772
91.067599773,-8.02664899999998,46.65767,-0.950258099999998,0.7532656,0.3700184,0.6797681,-52.1206,-22.49589,-14.08772
91.077487946,-10.57554,49.01136,1.004666,0.7357668,0.3557805,0.6697208,-51.33846,-22.91603,-15.75143
91.087375164,-13.55962,50.18821,3.509414,0.7430019,0.3396321,0.6654823,-51.33846,-22.91603,-15.75143
91.097263336,-16.04634,54.48372,5.586521,0.7522597,0.343867,0.6568149,-51.33846,-22.91603,-15.75143
91.107151032,-17.84922,58.1319500000001,5.89197799999997,0.7392104,0.3579712,0.6538433,-51.33846,-22.91603,-15.75143
91.11703825,-18.96824,60.4856500000001,4.67015,0.7314648,0.3618389,0.6509294,-51.33846,-22.91603,-15.75143
91.126926422,-19.90077,64.3104100000002,3.875962,0.736834,0.3651219,0.6432242,-51.30178,-22.95541,-17.89157
91.136814117,-19.03041,67.4290600000001,3.203957,0.7266585,0.3734922,0.6479795,-51.30178,-22.95541,-17.89157
91.146701336,-18.78174,70.5477100000001,1.554489,0.7271382,0.3889532,0.6724289,-51.30178,-22.95541,-17.89157
91.156589508,-18.96824,74.4313200000003,-0.3393442,0.7173868,0.3887516,0.6902129,-51.30178,-22.95541,-17.89157
91.16647768,-18.03572,76.9026999999998,-2.35536,0.7095718,0.375641,0.691713,-51.30178,-22.95541,-17.89157
91.176364899,-17.60055,79.9036700000001,-3.821553,0.7119986,0.3806135,0.6989045,-50.1897,-22.63954,-20.40183
91.186252594,-17.22754,82.0808399999999,-5.471021,0.7119755,0.371304,0.6951041,-50.1897,-22.63954,-20.40183
91.196139813,-18.03572,83.0811599999999,-6.81503199999999,0.7119501,0.3639998,0.695141,-50.1897,-22.63954,-20.40183
91.206027985,-18.03572,84.0226400000001,-7.12048900000003,0.6998026,0.3655997,0.7028139,-50.1897,-22.63954,-20.40183
91.218388081,-19.21692,86.6117100000001,-8.15904199999999,0.6658565,0.3629875,0.6864371,-50.1897,-22.63954,-20.40183
91.228275299,-20.64679,87.9650900000001,-8.64777399999999,0.6594345,0.3457935,0.7081581,-48.97879,-22.74204,-25.04549
91.238162994,-21.08196,89.4950000000003,-8.64777399999999,0.6336783,0.3261364,0.6928388,-48.97879,-22.74204,-25.04549
91.248051167,-21.2063,87.5531899999998,-9.25868800000001,0.6030993,0.3207254,0.6851366,-48.97879,-22.74204,-25.04549
91.257938385,-19.71426,87.6708800000002,-10.29724,0.6117584,0.3117437,0.7044287,-48.97879,-22.74204,-25.04549
91.267826557,-17.28971,88.0239299999999,-12.49653,0.6049755,0.3126735,0.7005689,-48.97879,-22.74204,-25.04549
91.277713776,-14.61648,88.0827700000002,-15.18455,0.5802304,0.3166468,0.7024444,-46.71371,-22.52963,-28.82617
91.287601471,-12.00541,87.49435,-17.20057,0.5646818,0.3182749,0.7115559,-46.71371,-22.52963,-28.82617
91.297489643,-10.38904,87.0824500000002,-17.93367,0.533738,0.3469367,0.7027193,-46.71371,-22.52963,-28.82617
91.307376862,-10.63771,84.6110700000001,-19.58313,0.5138471,0.3533855,0.7079542,-46.71371,-22.52963,-28.82617
91.317264557,-13.62178,82.3162099999999,-20.5606,0.4959378,0.3660456,0.7054653,-46.71371,-22.52963,-28.82617
91.327152729,-17.91139,79.8448299999998,-22.6377,0.4789934,0.3702819,0.6934016,-44.38637,-22.63319,-32.60101
91.337039948,-21.26847,76.9615400000002,-25.38682,0.4741434,0.3573288,0.6732629,-44.38637,-22.63319,-32.60101
91.34692812,-22.13882,73.48984,-28.86903,0.4557697,0.3579149,0.6448647,-44.38637,-22.63319,-32.60101
91.356815815,-19.21692,68.4882300000002,-34.67271,0.4461353,0.3669271,0.6274951,-44.38637,-22.63319,-32.60101
91.366703034,-11.4459,64.19273,-41.20949,0.4277187,0.3722625,0.6235998,-44.38637,-22.63319,-32.60101
91.376591206,-0.6908063,59.4853199999998,-47.86845,0.4102931,0.3864257,0.6239893,-41.7606,-23.41895,-35.51589
91.386478901,9.81561299999999,56.30783,-54.5885,0.4126222,0.4024655,0.6873925,-41.7606,-23.41895,-35.51589
91.396366596,18.70566,55.95478,-60.6365500000001,0.4240549,0.4008225,0.7744605,-41.7606,-23.41895,-35.51589
91.406254292,23.92779,57.9554199999999,-64.9129400000001,0.4185726,0.39278,0.8221061,-41.7606,-23.41895,-35.51589
91.41614151,23.3061,59.7207000000001,-65.2794899999998,0.3860409,0.396898,0.8326285,-41.7606,-23.41895,-35.51589
91.426029682,17.21362,60.0737499999998,-64.2409400000002,0.3599312,0.4211965,0.8257431,-38.75798,-24.27325,-38.4213
91.438389301,2.666274,56.24899,-61.9194699999998,0.3178736,0.4555367,0.8043613,-38.75798,-24.27325,-38.4213
91.448276997,-15.61117,51.95349,-59.2925400000001,0.2980724,0.4858027,0.8065904,-38.75798,-24.27325,-38.4213
91.458164692,-37.12135,48.42294,-56.90998,0.2806714,0.4963271,0.7916089,-38.75798,-24.27325,-38.4213
91.468052864,-59.3153799999998,43.59785,-55.74924,0.2578711,0.4838533,0.7685618,-35.41129,-27.3074,-39.60102
91.477940083,-78.8361900000001,38.1255,-54.22195,0.2703581,0.4349036,0.7534339,-35.41129,-27.3074,-39.60102
91.487827778,-94.7512399999999,34.59496,-52.26703,0.2556473,0.3781517,0.7339862,-35.41129,-27.3074,-39.60102
91.497715473,-106.6254,30.18177,-49.51792,0.2515639,0.3097567,0.7189377,-35.41129,-27.3074,-39.60102
91.507603169,-113.2774,26.47469,-46.0968,0.2537793,0.2314664,0.694328,-35.41129,-27.3074,-39.60102
91.517491341,-114.2099,23.7091,-43.83642,0.2569552,0.153239,0.6740473,-32.78631,-28.53422,-42.5097
91.527378559,-109.0499,21.70845,-41.33167,0.246537,0.08103276,0.6638201,-32.78631,-28.53422,-42.5097
91.537266255,-99.04084,18.53096,-39.43784,0.2230496,0.02454982,0.6611933,-32.78631,-28.53422,-42.5097
91.547154427,-86.3585399999998,15.00041,-37.29964,0.2015883,-0.008585092,0.657008,-32.78631,-28.53422,-42.5097
91.557041645,-71.0029999999998,11.29333,-36.62763,0.176285,-0.02654506,0.6575509,-32.78631,-28.53422,-42.5097
91.56692934,-54.09326,8.11583600000003,-35.16144,0.1704906,-0.02523093,0.6469574,-31.30106,-26.01019,-44.58835
91.576817512,-37.86737,3.349596,-34.91707,0.1457405,-0.01226968,0.663696,-31.30106,-26.01019,-44.58835
91.586704731,-24.00387,-1.946228,-34.67271,0.1317158,0.006842548,0.6698354,-31.30106,-26.01019,-44.58835
91.596592903,-13.55962,-7.771634,-35.10035,0.1234768,0.02817872,0.6952071,-31.30106,-26.01019,-44.58835
91.606480598,-5.726428,-14.24431,-33.14542,0.13271,0.0400342,0.7076616,-31.30106,-26.01019,-44.58835
91.616367817,-0.628638100000002,-19.42245,-31.12941,0.1404494,0.05113442,0.7345459,-29.75786,-23.10305,-46.3466
91.626255989,3.785301,-24.30637,-29.17448,0.1588521,0.05285367,0.7542759,-29.75786,-23.10305,-46.3466
91.636143207,7.14238200000002,-27.42502,-25.81446,0.1796941,0.0584709,0.7744699,-29.75786,-23.10305,-46.3466
91.648503303,11.68066,-30.89673,-22.45443,0.1937034,0.05637512,0.7990234,-29.75786,-23.10305,-46.3466
91.658390999,15.41075,-32.30895,-19.76641,0.2296396,0.07161525,0.8134148,-29.75786,-23.10305,-46.3466
91.668278217,18.02181,-31.66168,-19.0944,0.2587499,0.0800947,0.8307182,-29.38284,-24.17974,-46.32299
91.678166389,23.67911,-32.13242,-17.0173,0.2840528,0.1080093,0.8445527,-29.38284,-24.17974,-46.32299
91.688054562,27.53354,-31.30862,-16.40638,0.302057,0.1340625,0.8631974,-29.38284,-24.17974,-46.32299
91.69794178,30.02027,-30.83788,-16.89511,0.3128107,0.1614327,0.871247,-29.38284,-24.17974,-46.32299
91.707829475,31.45013,-29.89641,-18.48349,0.3293533,0.17757,0.8779172,-29.38284,-24.17974,-46.32299
91.717716694,33.12867,-28.71956,-20.19405,0.3386483,0.1964996,0.8749465,-30.18284,-25.63439,-43.78968
91.727604866,34.99372,-28.13113,-23.00425,0.3426199,0.2183254,0.8695506,-30.18284,-25.63439,-43.78968
91.737492561,36.29925,-27.48387,-26.2421,0.351891,0.235415,0.8738031,-30.18284,-25.63439,-43.78968
91.747380257,37.79129,-27.07197,-28.68575,0.3460687,0.2383986,0.8771479,-30.18284,-25.63439,-43.78968
91.757267952,40.40235,-27.01313,-30.51849,0.3470868,0.2540221,0.8799556,-30.18284,-25.63439,-43.78968
91.767156124,42.82691,-24.95364,-31.25159,0.3392929,0.2507295,0.8866963,-31.33053,-26.29421,-42.89775
91.777043343,42.14305,-23.6591,-29.66321,0.3388038,0.2422941,0.8761581,-31.33053,-26.29421,-42.89775
91.786931038,38.5373,-23.89447,-26.66973,0.3233425,0.2563097,0.8669322,-31.33053,-26.29421,-42.89775
91.79681921,33.81252,-24.71827,-25.32573,0.3210576,0.2837828,0.8475538,-31.33053,-26.29421,-42.89775
91.806706428,30.20677,-24.60058,-24.53154,0.3289301,0.3020053,0.8296766,-31.33053,-26.29421,-42.89775
91.816594601,28.27956,-25.83628,-23.00425,0.3357905,0.3110353,0.8156921,-31.36421,-28.9096,-41.17445
91.826482296,27.2227,-24.24753,-21.84352,0.3344028,0.3230464,0.8045686,-31.36421,-28.9096,-41.17445
91.836369514,25.6685,-23.71795,-21.35478,0.3207958,0.3216844,0.8093693,-31.36421,-28.9096,-41.17445
91.846257687,23.18177,-24.30637,-21.41588,0.3109617,0.2946359,0.8229606,-31.36421,-28.9096,-41.17445
91.856145382,22.12491,-24.24753,-20.01077,0.3113303,0.2610356,0.8231308,-31.36421,-28.9096,-41.17445
91.8660326,22.37358,-23.42373,-18.05585,0.3030498,0.2453114,0.8126205,-31.38974,-30.71302,-39.85176
91.878392696,24.54947,-25.18901,-13.71836,0.3078868,0.2190334,0.7819799,-31.38974,-30.71302,-39.85176
91.888279915,28.09305,-26.30702,-11.03034,0.3234498,0.2138312,0.7618253,-31.38974,-30.71302,-39.85176
91.898168087,33.37735,-27.30734,-9.564145,0.3385794,0.2192492,0.7353644,-31.38974,-30.71302,-39.85176
91.908055782,41.0862,-28.18998,-7.24267099999999,0.350314,0.2301311,0.715605,-31.38974,-30.71302,-39.85176
91.917943001,48.54638,-29.89641,-5.409929,0.3435954,0.2535468,0.7174027,-32.10637,-32.50631,-38.5448
91.927831173,52.58731,-29.07261,-3.943736,0.3562099,0.27346,0.7480955,-32.10637,-32.50631,-38.5448
91.937719345,54.51452,-27.54271,-1.683355,0.3465798,0.3078243,0.7652239,-32.10637,-32.50631,-38.5448
91.947606564,53.83067,-26.89544,1.065758,0.3505712,0.3534119,0.7856777,-32.10637,-32.50631,-38.5448
91.957494259,49.16806,-25.30669,3.326139,0.3666396,0.3938637,0.8225225,-32.10637,-32.50631,-38.5448
91.967382431,41.14837,-23.77679,5.95307000000001,0.382749,0.4206213,0.8228865,-32.89859,-33.96931,-36.46545
91.97726965,30.95279,-23.71795,8.51890799999999,0.377476,0.4326545,0.8127204,-32.89859,-33.96931,-36.46545
91.987157345,18.64349,-23.42373,10.96256,0.3804023,0.4380339,0.8146202,-32.89859,-33.96931,-36.46545
91.997045517,7.88840000000002,-22.77647,14.20041,0.3576902,0.4623257,0.8077387,-32.89859,-33.96931,-36.46545
92.006932735,-2.307178,-22.42341,16.64406,0.3607709,0.4970852,0.7878488,-32.89859,-33.96931,-36.46545
92.016820908,-13.37311,-21.89383,19.39318,0.3488776,0.5403735,0.7501047,-33.30649,-35.06693,-34.77195
92.026708126,-27.23661,-24.71827,20.615,0.3084331,0.5990993,0.6987843,-33.30649,-35.06693,-34.77195
92.036595821,-45.32755,-32.01474,19.51536,0.2674218,0.6230083,0.6312879,-33.30649,-35.06693,-34.77195
92.046483994,-65.5322000000001,-42.4887,18.72117,0.2165205,0.5883733,0.5554196,-33.30649,-35.06693,-34.77195
92.056371212,-81.8202600000002,-55.84594,16.58297,0.1939191,0.4941059,0.5337478,-33.30649,-35.06693,-34.77195
92.066259384,-87.9749099999997,-68.0851799999998,15.30005,0.1837644,0.3476599,0.5089875,-34.81544,-35.04363,-34.74142
92.076147079,-83.2501300000002,-75.2051200000001,17.68262,0.249538,0.1739423,0.559475,-34.81544,-35.04363,-34.74142
92.086034298,-67.0863999999998,-75.9700700000001,19.75972,0.322787,0.05023632,0.6010618,-34.81544,-35.04363,-34.74142
92.098394394,-29.78551,-72.91026,18.11026,0.417888,-0.06860017,0.6455342,-34.81544,-35.04363,-34.74142
92.108282566,8.63441800000001,-67.5555999999999,15.30005,0.5205878,-0.09889143,0.6852396,-34.81544,-35.04363,-34.74142
92.118169785,49.4789,-61.7301900000001,10.96256,0.5673358,-0.0452036,0.6994491,-36.63931,-32.36335,-34.4309
92.12805748,85.8472699999999,-57.7877499999998,6.25852699999999,0.5783518,0.05664787,0.7056798,-36.63931,-32.36335,-34.4309
92.137944698,110.2794,-53.90414,5.95307000000001,0.5704794,0.1965926,0.7492083,-36.63931,-32.36335,-34.4309
92.147832871,122.6508,-52.19771,11.3902,0.5709255,0.3574957,0.7950451,-36.63931,-32.36335,-34.4309
92.157720566,118.9207,-50.31475,13.95604,0.5732499,0.5173008,0.8654165,-36.63931,-32.36335,-34.4309
92.167608261,102.757,-48.54947,14.13932,0.5780185,0.6565899,0.8993444,-39.27218,-31.19118,-31.06735
92.177495956,80.8738300000003,-46.13693,12.73421,0.5840656,0.726334,0.9071745,-39.27218,-31.19118,-31.06735
92.187384129,57.4364199999999,-43.66555,11.14584,0.5812737,0.7549402,0.8983702,-39.27218,-31.19118,-31.06735
92.197271347,35.6154,-41.25301,9.37418700000002,0.5835645,0.7194675,0.9038422,-39.27218,-31.19118,-31.06735
92.207159042,18.02181,-38.13435,9.00763900000003,0.5979403,0.6489515,0.8796879,-39.27218,-31.19118,-31.06735
92.217047215,5.83685100000003,-33.78001,8.33563299999997,0.6122684,0.5727649,0.8671043,-40.47194,-32.93148,-27.24114
92.226934433,0.987734000000002,-28.7784,7.11380600000002,0.6121144,0.5120311,0.8438459,-40.47194,-32.93148,-27.24114
92.236822605,1.298575,-23.30605,5.83088700000002,0.614918,0.4743938,0.8349018,-40.47194,-32.93148,-27.24114
92.246710301,4.717824,-18.2456,4.425785,0.6226262,0.4503598,0.8244517,-40.47194,-32.93148,-27.24114
92.256597519,8.57224899999998,-12.77324,3.998145,0.6357863,0.4604375,0.8162401,-40.47194,-32.93148,-27.24114
92.266485691,10.6238,-7.477421,3.570505,0.6446218,0.4831845,0.8079596,-41.56957,-33.26286,-25.57398
92.276373386,9.69127699999997,-2.94655,3.448322,0.6349392,0.4890182,0.8059953,-41.56957,-33.26286,-25.57398
92.286260605,7.70189599999999,0.7016842,3.265048,0.623889,0.5012623,0.7765847,-41.56957,-33.26286,-25.57398
92.296148777,5.96118699999999,4.467603,3.326139,0.6073869,0.4948207,0.7669801,-41.56957,-33.26286,-25.57398
92.306035996,3.723133,7.88046599999997,3.387231,0.5952501,0.4824193,0.7501968,-41.56957,-33.26286,-25.57398
92.318396092,0.987734000000002,12.05828,3.081774,0.5835689,0.4587596,0.7296234,-42.33863,-33.61435,-24.74275
92.328283787,0.0552116,13.94124,2.531951,0.5757389,0.4303163,0.7153307,-42.33863,-33.61435,-24.74275
92.338171005,0.4903888,16.00073,2.165403,0.5771264,0.4058654,0.7087228,-42.33863,-33.61435,-24.74275
92.348059177,2.355433,18.23674,1.61558,0.579077,0.4048086,0.7034403,-42.33863,-33.61435,-24.74275
92.35794735,4.84216,20.17855,0.760300900000003,0.5679924,0.4232412,0.6970826,-42.33221,-34.37882,-25.18611
92.367834568,6.64503699999998,21.29655,-0.6448011,0.5545024,0.4485101,0.6916494,-42.33221,-34.37882,-25.18611
92.377722263,7.577559,21.70845,-2.049903,0.5390428,0.4620171,0.6809833,-42.33221,-34.37882,-25.18611
92.387610436,6.831541,21.3554,-2.721908,0.5221054,0.4766591,0.6808901,-42.33221,-34.37882,-25.18611
92.397497654,4.717824,20.5316,-4.310285,0.5163087,0.4799786,0.6741338,-42.33221,-34.37882,-25.18611
92.407385349,3.287956,19.76665,-6.38739200000002,0.5133974,0.4675373,0.6559184,-41.94653,-33.25733,-25.58256
92.417273522,4.84216,18.70749,-8.83104799999999,0.5095667,0.4692051,0.6366687,-41.94653,-33.25733,-25.58256
92.42716074,8.13707300000003,18.76633,-11.94671,0.5081488,0.4838955,0.641883,-41.94653,-33.25733,-25.58256
92.437048912,12.36451,18.41327,-16.89511,0.5048341,0.5047762,0.6374454,-41.94653,-33.25733,-25.58256
92.446936131,16.03243,17.70716,-22.57661,0.4942777,0.5378666,0.6343807,-41.94653,-33.25733,-25.58256
92.456823826,18.45699,16.29494,-28.44139,0.490478,0.5672061,0.6419228,-41.24304,-34.41715,-26.394
92.466711998,19.0165,15.23578,-33.75634,0.4730729,0.598657,0.6585764,-41.24304,-34.41715,-26.394
92.476599217,18.14615,14.17661,-38.39928,0.4658424,0.6292073,0.681498,-41.24304,-34.41715,-26.394
92.486487389,13.85654,11.46986,-42.61459,0.450873,0.6531333,0.6837646,-41.24304,-34.41715,-26.394
92.496375084,7.51539099999999,7.17435700000001,-47.25753,0.4485657,0.6678092,0.6553136,-41.24304,-34.41715,-26.394
92.506262303,-0.00695656000000002,1.937376,-51.53393,0.4505804,0.6758029,0.6365195,-40.85955,-35.12414,-26.82967
92.516150475,-6.09943600000001,-3.064235,-56.54343,0.4419336,0.6752521,0.5985197,-40.85955,-35.12414,-26.82967
92.52603817,-9.39434900000001,-8.007004,-61.9805600000002,0.4419914,0.6838446,0.5869342,-40.85955,-35.12414,-26.82967
92.538397789,-12.12975,-13.1263,-70.96099,0.4260154,0.6851069,0.5715202,-40.85955,-35.12414,-26.82967
92.548285484,-13.74612,-16.53916,-78.4141400000002,0.421614,0.6863195,0.5868986,-40.85955,-35.12414,-26.82967
92.558173656,-14.1813,-18.59865,-84.40109,0.4109554,0.6772591,0.5657718,-39.3629,-37.02819,-26.31486
92.568060875,-16.54369,-21.89383,-88.4942200000002,0.3693033,0.7190701,0.5881163,-39.3629,-37.02819,-26.31486
92.57794857,-20.14944,-25.71859,-94.9698999999999,0.3653687,0.71393,0.6020846,-39.3629,-37.02819,-26.31486
92.587836265,-25.12289,-28.83724,-100.3459,0.3661743,0.6657059,0.6013674,-39.3629,-37.02819,-26.31486
92.597723961,-30.40719,-33.01506,-100.8958,0.3426418,0.5915921,0.5920967,-39.3629,-37.02819,-26.31486
92.607612133,-34.82113,-37.7813,-98.6964799999998,0.3293803,0.5328896,0.5726605,-37.55158,-39.25308,-25.85333
92.617499351,-34.94547,-41.07648,-91.9153399999997,0.3199137,0.4568219,0.5648584,-37.55158,-39.25308,-25.85333
92.627387047,-28.0448,-42.72407,-83.5458099999998,0.3487782,0.392209,0.5791644,-37.55158,-39.25308,-25.85333
92.637275219,-17.60055,-43.07713,-79.20833,0.4062968,0.3528124,0.6227118,-37.55158,-39.25308,-25.85333
92.647162437,-8.7105,-41.25301,-76.2759399999998,0.4604931,0.3204104,0.6450596,-37.55158,-39.25308,-25.85333
92.65705061,-2.182842,-40.78227,-71.8162700000001,0.4958338,0.3109682,0.6696745,-34.60339,-41.87977,-25.74988
92.666938305,1.920256,-39.48773,-69.12825,0.5137586,0.3091576,0.6812461,-34.60339,-41.87977,-25.74988
92.676825523,3.225788,-38.36972,-63.2634799999999,0.5414161,0.3225956,0.7042938,-34.60339,-41.87977,-25.74988
92.686713695,0.1173798,-38.31088,-55.13832,0.55353,0.3217056,0.7115259,-34.60339,-41.87977,-25.74988
92.696601391,-8.02664899999998,-36.48677,-45.79134,0.5690823,0.3429445,0.7335586,-34.60339,-41.87977,-25.74988
92.706488609,-19.40342,-32.60316,-36.93309,0.5714986,0.3395239,0.7330978,-32.73714,-44.16025,-24.83206
92.716376781,-30.09635,-28.42534,-27.95266,0.5744363,0.3428404,0.7273133,-32.73714,-44.16025,-24.83206
92.726264954,-37.24569,-23.30605,-18.85004,0.5936623,0.294731,0.7367158,-32.73714,-44.16025,-24.83206
92.736152172,-41.9083,-18.71634,-10.54161,0.585807,0.23858,0.6932268,-32.73714,-44.16025,-24.83206
92.746039867,-41.10011,-14.95042,-1.01135,0.571121,0.1896336,0.6747015,-32.73714,-44.16025,-24.83206
92.758399963,-36.87268,-9.772279,8.39672500000001,0.5057628,0.1817376,0.5938723,-32.04131,-45.2487,-25.19042
92.768287182,-30.46935,-8.59542900000002,14.32259,0.4638371,0.2406245,0.5531297,-32.04131,-45.2487,-25.19042
92.778175354,-24.00387,-10.12533,16.21642,0.4422945,0.3104356,0.5291873,-32.04131,-45.2487,-25.19042
92.788062572,-17.28971,-12.30251,14.81132,0.4508854,0.4068059,0.5267864,-32.04131,-45.2487,-25.19042
92.797950268,-11.07289,-14.24431,11.02365,0.467144,0.4828819,0.5360389,-32.04131,-45.2487,-25.19042
92.80783844,-4.545232,-16.59801,6.563983,0.4788961,0.515549,0.5402155,-31.6552,-44.50647,-25.64642
92.817725658,2.728442,-19.3636,1.982129,0.4763902,0.5105785,0.5657265,-31.6552,-44.50647,-25.64642
92.827613354,10.37513,-21.54078,-1.255715,0.4714571,0.4847152,0.5615233,-31.6552,-44.50647,-25.64642
92.837501526,16.84062,-23.42373,-3.577188,0.461153,0.4715036,0.58851,-31.6552,-44.50647,-25.64642
92.847388744,21.06805,-24.65943,-4.432467,0.4606526,0.4795618,0.6062627,-31.6552,-44.50647,-25.64642
92.857276916,22.68442,-25.65975,-4.737924,0.4698473,0.485689,0.6264409,-32.40856,-44.18036,-25.668
92.867164612,21.68973,-26.30702,-3.393914,0.4790727,0.489631,0.6307598,-32.40856,-44.18036,-25.668
92.87705183,18.27048,-26.24817,-1.744446,0.4896957,0.489461,0.653376,-32.40856,-44.18036,-25.668
92.886940002,14.35389,-24.95364,0.2715698,0.5085683,0.4753525,0.6568352,-32.40856,-44.18036,-25.668
92.896827698,11.05898,-23.30605,2.593043,0.5211454,0.4606688,0.6535572,-32.40856,-44.18036,-25.668
92.906715393,8.51008100000002,-21.89383,5.342156,0.5419537,0.4341526,0.6416919,-32.73771,-44.4753,-24.82764
92.916603088,7.39105499999997,-20.65814,7.90799399999997,0.5511773,0.425168,0.628282,-32.73771,-44.4753,-24.82764
92.926491261,8.19924099999998,-19.65781,10.47383,0.554089,0.4236726,0.6263692,-32.73771,-44.4753,-24.82764
92.936378479,9.50477199999997,-19.24592,12.48985,0.5512447,0.4322062,0.6104524,-32.73771,-44.4753,-24.82764
92.946266174,11.43198,-18.53981,14.07822,0.5638678,0.4371369,0.616213,-32.73771,-44.4753,-24.82764
92.956154346,12.98619,-17.71601,15.78878,0.5668557,0.4545678,0.6098763,-33.52121,-44.81128,-23.15333
92.966041565,13.29703,-16.36264,17.74371,0.5683243,0.4574722,0.6089014,-33.52121,-44.81128,-23.15333
92.978401661,12.73752,-15.30347,20.98155,0.5663329,0.4314162,0.5921986,-33.52121,-44.81128,-23.15333
92.988289356,12.98619,-14.71505,25.01358,0.5623636,0.4085805,0.5951949,-33.52121,-44.81128,-23.15333
92.998176575,14.10522,-14.59736,29.1678,0.5584379,0.390943,0.5875849,-33.52121,-44.81128,-23.15333
93.008064747,15.34858,-14.18546,33.01656,0.5564723,0.3806491,0.5828255,-33.91972,-44.40383,-21.87016
93.017951965,16.77845,-13.47935,36.31549,0.5657217,0.3814537,0.5727326,-33.91972,-44.40383,-21.87016
93.027840137,18.27048,-13.06746,39.30897,0.5594537,0.3901593,0.5678723,-33.91972,-44.40383,-21.87016
93.037727833,19.63818,-12.53788,42.54681,0.5624017,0.395402,0.5606353,-33.91972,-44.40383,-21.87016
93.047615051,20.81938,-12.7144,44.7461,0.5702066,0.4016092,0.553399,-33.91972,-44.40383,-21.87016
93.057503223,20.57071,-13.00862,48.2894,0.576619,0.4203575,0.5379221,-35.05713,-43.68578,-21.45165
93.067390919,18.02181,-13.1263,50.67197,0.570908,0.450008,0.5334374,-35.05713,-43.68578,-21.45165
93.077278614,14.29172,-13.65588,52.01598,0.5752713,0.4475431,0.5320121,-35.05713,-43.68578,-21.45165
93.087166309,10.74814,-14.77389,54.704,0.5796639,0.4558413,0.5338988,-35.05713,-43.68578,-21.45165
93.097054482,8.07490399999999,-15.42116,57.02547,0.5825306,0.4387061,0.5282177,-35.05713,-43.68578,-21.45165
93.1069417,6.89370900000001,-16.59801,59.28585,0.5887447,0.4084454,0.5245303,-37.2836,-42.86641,-19.82613
93.116829395,7.39105499999997,-17.36296,61.8516899999999,0.6022249,0.3867217,0.539083,-37.2836,-42.86641,-19.82613
93.126717567,8.63441800000001,-17.77485,63.6844400000001,0.6099754,0.3758569,0.5300092,-37.2836,-42.86641,-19.82613
93.136604786,12.05367,-18.83402,64.7840899999998,0.6168134,0.3740805,0.5098273,-37.2836,-42.86641,-19.82613
93.146492958,16.90278,-20.30508,65.5171800000001,0.641101,0.3724207,0.499764,-37.2836,-42.86641,-19.82613
93.156380653,20.57071,-21.77614,66.73901,0.6324683,0.3936767,0.4871428,-39.49356,-40.92836,-19.05962
93.166267872,21.50323,-24.77711,68.2662999999997,0.6330189,0.4017237,0.4717133,-39.49356,-40.92836,-19.05962
93.176156044,20.94371,-28.66072,70.3434099999997,0.6229082,0.4116749,0.4519337,-39.49356,-40.92836,-19.05962
93.186043739,19.38951,-33.83885,71.1376000000001,0.6273176,0.4094164,0.4317515,-39.49356,-40.92836,-19.05962
93.198403359,19.07867,-40.31153,71.1376000000001,0.6482396,0.4209971,0.4273885,-41.77494,-39.42211,-17.83437
93.208291054,19.14084,-44.37166,69.91576,0.6594749,0.43993,0.4249009,-41.77494,-39.42211,-17.83437
93.218179226,19.88686,-47.37262,68.2052099999999,0.668289,0.4782398,0.4478016,-41.77494,-39.42211,-17.83437
93.228066444,17.83531,-52.37424,64.6008100000001,0.5988082,0.5484222,0.3771535,-41.77494,-39.42211,-17.83437
93.23795414,10.68597,-58.2584800000002,61.3018700000002,0.5731342,0.5541222,0.3641106,-41.77494,-39.42211,-17.83437
93.247842312,1.733752,-64.61347,59.4080399999999,0.5517666,0.5412953,0.3502044,-44.38284,-36.76157,-15.78911
93.25772953,-4.6074,-70.9096199999999,57.6974800000001,0.6252698,0.4796812,0.3756073,-44.38284,-36.76157,-15.78911
93.267617703,-2.555851,-72.2041499999998,55.4371,0.7230378,0.4125693,0.3948134,-44.38284,-36.76157,-15.78911
93.277504921,11.68066,-71.2626700000001,46.27339,0.8319972,0.3557115,0.417347,-44.38284,-36.76157,-15.78911
93.287392616,35.05589,-67.7321199999999,34.60493,0.9012783,0.3255275,0.4271967,-44.38284,-36.76157,-15.78911
93.297280788,60.8556700000001,-64.0250500000003,23.66957,0.8931369,0.3552044,0.424152,-47.38815,-33.69476,-12.52552
93.307168007,80.5629799999999,-60.25913,17.92698,0.8540183,0.4276882,0.4463445,-47.38815,-33.69476,-12.52552
93.317055702,90.1990400000002,-58.6115400000002,15.36114,0.8061749,0.5016069,0.4656344,-47.38815,-33.69476,-12.52552
93.326943874,90.57205,-57.14048,12.91749,0.7810308,0.5592769,0.5085973,-47.38815,-33.69476,-12.52552
93.336831093,87.15281,-53.90414,9.80182699999999,0.7942029,0.5996337,0.5387063,-47.38815,-33.69476,-12.52552
93.346719265,81.9928499999998,-48.78484,6.50289199999999,0.8010606,0.6370454,0.5664185,-48.90379,-32.08259,-8.299337
93.35660696,72.9162999999999,-43.43018,2.531951,0.8133132,0.6800668,0.5791999,-48.90379,-32.08259,-8.299337
93.366494179,61.1043500000002,-38.89931,-1.01135,0.8250096,0.6926829,0.5777067,-48.90379,-32.08259,-8.299337
93.376382351,48.2977,-34.36843,-3.271731,0.8614308,0.666621,0.5331541,-48.90379,-32.08259,-8.299337
93.386270046,36.29925,-31.66168,-4.737924,0.8217288,0.7078763,0.5511755,-48.90379,-32.08259,-8.299337
93.396157742,25.04681,-28.01345,-6.26520899999998,0.8105987,0.708184,0.5376955,-49.35231,-31.62144,-4.097789
93.406045437,14.9134,-24.42406,-8.83104799999999,0.8018091,0.7040561,0.5535767,-49.35231,-31.62144,-4.097789
93.418405533,0.6147251,-18.36328,-11.70234,0.8114107,0.6718624,0.5513458,-49.35231,-31.62144,-4.097789
93.428292751,-6.09943600000001,-14.00894,-10.90816,0.8035439,0.6341959,0.5390232,-49.35231,-31.62144,-4.097789
93.438180447,-15.48683,-8.83079900000001,-10.72488,0.8441055,0.547859,0.5024747,-49.35231,-31.62144,-4.097789
93.448068619,-18.03572,-4.535297,-9.07541400000002,0.8532971,0.5112098,0.4627539,-49.37523,-31.97563,-2.795429
93.457955837,-16.48152,-1.122433,-8.22013400000002,0.8523436,0.4847275,0.4176801,-49.37523,-31.97563,-2.795429
93.46784401,-13.49745,1.760849,-8.09795099999998,0.8450264,0.4725322,0.4153287,-49.37523,-31.97563,-2.795429
93.477731705,-11.69457,4.585288,-8.28122499999998,0.8436098,0.4792517,0.4085603,-49.37523,-31.97563,-2.795429
93.487618923,-11.07289,7.40972700000001,-8.892139,0.8445524,0.4724613,0.4105193,-49.37523,-31.97563,-2.795429
93.497507095,-10.88638,10.23417,-9.86960100000001,0.8291231,0.4977196,0.4041222,-49.74577,-32.73457,-3.24737
93.507394791,-12.44059,11.99944,-11.58016,0.8170257,0.5144293,0.4126806,-49.74577,-32.73457,-3.24737
93.517282486,-15.42466,13.8824,-13.84054,0.8151152,0.5246878,0.4145503,-49.74577,-32.73457,-3.24737
93.527170181,-18.40873,16.41263,-16.77293,0.8126545,0.5129627,0.4117212,-49.74577,-32.73457,-3.24737
93.537058354,-20.21161,18.1779,-18.4224,0.8019566,0.5056437,0.4093414,-49.74577,-32.73457,-3.24737
93.546945572,-20.64679,20.06086,-20.13296,0.8053487,0.4997001,0.4031233,-49.36282,-33.12532,-3.622603
93.556833267,-19.09258,21.76729,-22.02679,0.7917914,0.5089718,0.4025801,-49.36282,-33.12532,-3.622603
93.566721439,-17.04103,22.94414,-23.55408,0.7743533,0.5222186,0.4068216,-49.36282,-33.12532,-3.622603
93.576608658,-17.22754,24.23868,-25.509,0.7569237,0.5369046,0.4096132,-49.36282,-33.12532,-3.622603
93.58649683,-18.16006,24.70942,-28.01375,0.7486783,0.5433519,0.4163041,-49.36282,-33.12532,-3.622603
93.596384525,-19.09258,25.94511,-30.33522,0.7545846,0.5701944,0.4209844,-48.20509,-34.3071,-5.267124
93.606271744,-19.15475,26.71006,-33.14542,0.7366872,0.5862632,0.4184782,-48.20509,-34.3071,-5.267124
93.616159916,-18.84391,27.29849,-37.72728,0.7372057,0.5984935,0.4222643,-48.20509,-34.3071,-5.267124
93.626047611,-20.0251,27.71038,-42.18695,0.7290393,0.6138979,0.4091924,-48.20509,-34.3071,-5.267124
93.63840723,-23.44435,27.12196,-46.95208,0.753207,0.6055307,0.4390792,-48.20509,-34.3071,-5.267124
93.648294926,-25.68241,28.18112,-49.45683,0.7478281,0.586385,0.4281087,-47.11674,-35.41779,-6.524843
93.658182144,-26.11758,27.71038,-51.53393,0.7501327,0.5488349,0.4249346,-47.11674,-35.41779,-6.524843
93.668070316,-24.06603,27.88691,-52.93903,0.7424002,0.5501313,0.4128962,-47.11674,-35.41779,-6.524843
93.677958012,-21.26847,27.1808,-54.83287,0.7273778,0.5719032,0.4339297,-47.11674,-35.41779,-6.524843
93.687845707,-20.89546,25.94511,-57.3987099999997,0.7196625,0.6049395,0.4602046,-47.11674,-35.41779,-6.524843
93.697733402,-25.06072,25.29784,-59.0481800000003,0.7220826,0.6243859,0.4908881,-45.95123,-36.60793,-8.623334
93.707621574,-31.21537,25.82743,-58.5594400000001,0.7234556,0.6045045,0.4967611,-45.95123,-36.60793,-8.623334
93.717508793,-38.36472,26.12164,-56.90998,0.7296537,0.5793217,0.5069948,-45.95123,-36.60793,-8.623334
93.727396488,-44.58153,26.59238,-54.83287,0.7290282,0.5463685,0.5177408,-45.95123,-36.60793,-8.623334
93.73728466,-49.24414,27.94576,-51.96157,0.7404783,0.5008243,0.5348163,-45.95123,-36.60793,-8.623334
93.747171879,-52.60122,30.06408,-49.76228,0.7389156,0.4527324,0.5100495,-44.47352,-38.87383,-10.69965
93.757060051,-49.99016,32.35894,-46.58553,0.7223162,0.4329728,0.5216727,-44.47352,-38.87383,-10.69965
93.766947746,-49.30631,33.47695,-44.26406,0.7184259,0.4295431,0.5197619,-44.47352,-38.87383,-10.69965
93.776834965,-47.50343,34.71264,-41.94258,0.7222551,0.4378371,0.5538697,-44.47352,-38.87383,-10.69965
93.786723137,-47.93861,38.41972,-40.72076,0.6970893,0.4628004,0.5590051,-44.47352,-38.87383,-10.69965
93.796610832,-50.92268,42.53869,-39.19347,0.676783,0.4867227,0.5603039,-41.47353,-41.17736,-13.58473
93.806498051,-54.52843,45.24545,-37.66619,0.6491016,0.4958301,0.5794633,-41.47353,-41.17736,-13.58473
93.816386223,-60.3722399999999,46.89304,-36.07781,0.6302453,0.512323,0.5726256,-41.47353,-41.17736,-13.58473
93.826274395,-65.7808800000001,48.24641,-34.85598,0.6259184,0.5145578,0.5586627,-41.47353,-41.17736,-13.58473
93.836161613,-70.6921599999997,49.83516,-32.04578,0.622769,0.4195205,0.5206656,-41.47353,-41.17736,-13.58473
93.846049309,-58.5693699999999,54.83677,-30.51849,0.52968,0.467821,0.5467663,-40.29288,-42.00494,-16.5316
93.858409405,-62.3616299999999,50.24706,-31.9236,0.5550438,0.4804224,0.513548,-40.29288,-42.00494,-16.5316
93.868296623,-58.9423800000003,50.01168,-31.37377,0.5763451,0.4648051,0.514132,-40.29288,-42.00494,-16.5316
93.878184795,-47.25476,50.77664,-31.06832,0.5457011,0.440396,0.5060449,-40.29288,-42.00494,-16.5316
93.888072491,-45.14104,47.83451,-31.25159,0.5455979,0.4301003,0.5339902,-38.02905,-42.48565,-20.30257
93.897959709,-17.16537,50.3059,-30.57958,0.5112945,0.3376835,0.5368228,-38.02905,-42.48565,-20.30257
93.907847881,24.86031,52.60075,-30.64068,0.5223938,0.1023482,0.6279569,-38.02905,-42.48565,-20.30257
93.917735577,22.43575,46.48114,-29.54103,0.4581134,0.3474087,0.4636132,-38.02905,-42.48565,-20.30257
93.927622795,49.41673,48.06989,-30.02976,0.5004809,0.3644354,0.6309358,-38.02905,-42.48565,-20.30257
93.937510967,38.97248,44.30397,-28.80793,0.4971963,0.6278133,0.5598677,-36.1009,-42.55981,-22.78893
93.947399139,25.41982,41.06763,-33.02324,0.6069963,0.5060869,0.5432945,-36.1009,-42.55981,-22.78893
93.957286358,26.41451,44.42165,-31.31268,0.5004619,0.644067,0.6376984,-36.1009,-42.55981,-22.78893
93.967174053,9.75344499999998,37.06634,-33.08433,0.5253152,0.6414015,0.5930145,-36.1009,-42.55981,-22.78893
93.977062225,-7.52930399999999,38.47856,-29.47994,0.550905,0.6312563,0.6344541,-36.1009,-42.55981,-22.78893
93.986949444,-23.87953,40.42036,-26.2421,0.5237116,0.6070037,0.6047286,-34.65794,-43.71518,-22.74013
93.996837139,-35.75365,38.71393,-24.89808,0.4998022,0.5610692,0.5909868,-34.65794,-43.71518,-22.74013
94.006725311,-40.7271,36.41907,-23.49298,0.4972269,0.5042861,0.5710722,-34.65794,-43.71518,-22.74013
94.01661253,-40.66494,35.30106,-22.39334,0.4873926,0.4647979,0.5669323,-34.65794,-43.71518,-22.74013
94.026500702,-36.4375,34.06537,-21.72133,0.4721926,0.4210096,0.5676172,-34.65794,-43.71518,-22.74013
94.036388397,-28.72865,31.82936,-21.90461,0.4483522,0.4030035,0.5652764,-32.41691,-44.48706,-25.20961
94.046275616,-19.77643,29.76987,-22.14897,0.4343013,0.4058596,0.5589941,-32.41691,-44.48706,-25.20961
94.056163788,-11.07289,26.65122,-22.57661,0.4299321,0.4143333,0.5714502,-32.41691,-44.48706,-25.20961
94.066051483,-2.866692,25.06247,-22.51552,0.4289444,0.4248919,0.5935181,-32.41691,-44.48706,-25.20961
94.078411102,4.655655,23.88562,-22.02679,0.4173042,0.436803,0.6069105,-32.41691,-44.48706,-25.20961
94.088298798,7.577559,22.00266,-20.86605,0.4114718,0.4493046,0.6280012,-30.51124,-45.29467,-26.45316
94.098186016,6.08552300000001,19.88433,-19.46095,0.422136,0.4623109,0.6524746,-30.51124,-45.29467,-26.45316
94.108074188,3.660965,19.4136,-16.83402,0.416316,0.4622937,0.6505443,-30.51124,-45.29467,-26.45316
94.117961884,1.174238,18.70749,-15.00128,0.4279227,0.4530834,0.6549324,-30.51124,-45.29467,-26.45316
94.127850056,-1.498993,19.35475,-12.0078,0.4185774,0.423026,0.6627684,-30.51124,-45.29467,-26.45316
94.137737274,-3.488374,19.29591,-9.25868800000001,0.4035039,0.4092917,0.6541641,-29.37326,-45.69767,-26.87609
94.147625446,-4.29656,20.23739,-5.532112,0.3928003,0.4000177,0.6513132,-29.37326,-45.69767,-26.87609
94.157513142,-3.674878,20.06086,-2.477543,0.3825957,0.3946382,0.6484433,-29.37326,-45.69767,-26.87609
94.16740036,-2.307178,20.29623,0.149387,0.3830958,0.3975302,0.6465056,-29.37326,-45.69767,-26.87609
94.177288532,-1.498993,20.47276,2.654134,0.387076,0.4168134,0.6339087,-29.37326,-45.69767,-26.87609
94.187176228,-0.2556292,20.29623,5.281065,0.3841642,0.4193043,0.6372592,-28.29008,-45.35077,-27.70017
94.197063923,0.739061399999999,19.88433,7.90799399999997,0.3803324,0.4393918,0.6448481,-28.29008,-45.35077,-27.70017
94.206951618,1.485079,19.82549,9.67964500000003,0.3755511,0.4528777,0.6341943,-28.29008,-45.35077,-27.70017
94.21683979,2.47977,19.0017,10.90147,0.3634846,0.4818329,0.6475,-28.29008,-45.35077,-27.70017
94.226727009,3.225788,18.00138,11.81784,0.3562428,0.4960335,0.6517483,-28.29008,-45.35077,-27.70017
94.236614704,3.412292,17.35411,11.69566,0.3533924,0.5165485,0.6554888,-27.90781,-46.11958,-28.0701
94.246502876,3.350124,16.53031,11.3902,0.346165,0.5251841,0.6458185,-27.90781,-46.11958,-28.0701
94.256390095,2.977115,14.47083,10.90147,0.3452372,0.5368584,0.6447966,-27.90781,-46.11958,-28.0701
94.266278267,1.982425,12.29365,10.22947,0.3447711,0.5377325,0.6380587,-27.90781,-46.11958,-28.0701
94.276165485,2.106761,9.93995399999998,9.61855299999999,0.3452493,0.5323033,0.6332775,-27.90781,-46.11958,-28.0701
94.286053181,3.039283,8.056994,9.49637,0.3452301,0.5254573,0.6313884,-27.89935,-45.74987,-28.52937
94.298413277,4.15831,5.703295,9.06872999999998,0.3436649,0.5037561,0.645443,-27.89935,-45.74987,-28.52937
94.308300495,5.89901899999998,4.702973,9.06872999999998,0.3402268,0.4870987,0.6383094,-27.89935,-45.74987,-28.52937
94.318188667,7.577559,3.231911,9.924009,0.3227429,0.4891889,0.6454928,-27.89935,-45.74987,-28.52937
94.328076363,8.82092300000001,2.349274,10.65711,0.3110633,0.4854243,0.6527124,-27.89935,-45.74987,-28.52937
94.337963581,8.88309100000002,1.113582,11.51239,0.3115315,0.4875221,0.6628016,-27.90645,-45.36346,-28.0807
94.347851753,8.57224899999998,0.760526700000002,12.24548,0.3115183,0.4930799,0.6762394,-27.90645,-45.36346,-28.0807
94.357739449,8.26140899999999,1.113582,12.79531,0.3387103,0.5039044,0.6872767,-27.90645,-45.36346,-28.0807
94.367627144,7.32888700000002,1.819691,12.91749,0.3562152,0.521587,0.6997113,-27.90645,-45.36346,-28.0807
94.377514839,4.84216,2.113904,13.58949,0.3635149,0.5284186,0.7016087,-27.90645,-45.36346,-28.0807
94.387403011,1.422911,1.878534,14.50586,0.3620627,0.5318804,0.704956,-28.28273,-44.97988,-28.09459
94.39729023,-2.618019,1.348952,14.9946,0.356214,0.5215942,0.7001921,-28.28273,-44.97988,-28.09459
94.407177925,-5.726428,-0.004425639,16.09424,0.3523574,0.516459,0.6819387,-28.28273,-44.97988,-28.09459
94.417066097,-8.95917199999998,-1.357803,17.01061,0.3377801,0.4991714,0.6637345,-28.28273,-44.97988,-28.09459
94.426953316,-10.2647,-2.828865,17.43825,0.3294979,0.4849512,0.6561022,-28.28273,-44.97988,-28.09459
94.436841488,-9.08350799999999,-4.182242,18.23244,0.3173351,0.4667424,0.6417527,-29.03665,-44.96883,-28.11175
94.446729183,-6.34810900000002,-4.59414,19.02663,0.3094825,0.453869,0.659122,-29.03665,-44.96883,-28.11175
94.456616402,-3.053197,-5.535619,19.75972,0.3022085,0.4578222,0.6619793,-29.03665,-44.96883,-28.11175
94.466504574,1.422911,-5.653304,18.84335,0.3278659,0.4507332,0.6798384,-29.03665,-44.96883,-28.11175
94.476392269,8.07490399999999,-4.241085,17.62152,0.356958,0.4583323,0.7033982,-29.03665,-44.96883,-28.11175
94.486280441,15.34858,-3.41729,15.84987,0.3633808,0.5038863,0.7219312,-29.71871,-44.27394,-28.59117
94.49616766,19.45168,-2.181597,14.50586,0.3692944,0.5485969,0.7491245,-29.71871,-44.27394,-28.59117
94.506055832,19.14084,-1.652015,13.40622,0.3776647,0.5871429,0.7551912,-29.71871,-44.27394,-28.59117
94.518414974,14.35389,0.5251567,13.28404,0.3947286,0.6189766,0.7694773,-29.71871,-44.27394,-28.59117
94.52830267,8.51008100000002,0.1721018,12.79531,0.381698,0.6364463,0.7636032,-29.71871,-44.27394,-28.59117
94.538190842,2.541938,-0.06326813,11.75675,0.3729585,0.6339929,0.7612011,-29.73247,-43.88036,-27.75339
94.54807806,-2.92886,-0.3574805,10.22947,0.3622681,0.621152,0.747788,-29.73247,-43.88036,-27.75339
94.557966232,-7.031959,-0.534008,8.763273,0.3583447,0.6035001,0.7392162,-29.73247,-43.88036,-27.75339
94.567853928,-9.20784499999998,-0.710535399999999,7.78581099999999,0.3592516,0.5884748,0.7441024,-29.73247,-43.88036,-27.75339
94.577741146,-10.63771,0.1721018,7.11380600000002,0.3509654,0.5727865,0.7359965,-29.73247,-43.88036,-27.75339
94.587629318,-11.32156,0.2897868,6.62507499999998,0.3513571,0.5484957,0.739967,-30.50084,-43.8538,-26.92746
94.597517013,-10.88638,0.2897868,6.44180099999999,0.3542352,0.5332796,0.7323525,-30.50084,-43.8538,-26.92746
94.607404232,-9.02133999999999,0.5251567,6.50289199999999,0.3556717,0.5229502,0.7256735,-30.50084,-43.8538,-26.92746
94.617292404,-6.47244499999998,0.1132593,6.01416100000002,0.3629314,0.5175937,0.7266706,-30.50084,-43.8538,-26.92746
94.627180576,-3.923551,-0.004425639,5.158882,0.3779471,0.5093002,0.7276914,-30.50084,-43.8538,-26.92746
94.637067795,-1.312488,0.1132593,5.219973,0.3862205,0.5126279,0.7233558,-30.86267,-43.48573,-27.78443
94.64695549,0.8012295,0.3486293,4.731242,0.3905725,0.5082439,0.7238638,-30.86267,-43.48573,-27.78443
94.656843662,2.231097,0.1132593,3.998145,0.3920908,0.525764,0.7232961,-30.86267,-43.48573,-27.78443
94.666731357,2.914947,0.1721018,2.47086,0.3964643,0.5252252,0.7204183,-30.86267,-43.48573,-27.78443
94.676618576,2.417602,-0.06326813,1.249032,0.3974368,0.5237193,0.7175414,-30.86267,-43.48573,-27.78443
94.686506748,1.733752,0.1132593,0.821392299999999,0.3973923,0.5095691,0.7156892,-30.856,-43.49289,-28.17355
94.69639492,0.987734000000002,-0.06326813,1.187941,0.3905578,0.4909203,0.7051954,-30.856,-43.49289,-28.17355
94.706282139,0.739061399999999,-0.416323,1.921037,0.3875367,0.4602628,0.7063087,-30.856,-43.49289,-28.17355
94.716169834,1.733752,-0.534008,2.959591,0.3995676,0.4200862,0.6916168,-30.856,-43.49289,-28.17355
94.726058006,4.344815,0.2309443,4.731242,0.3984943,0.3898831,0.6908064,-30.856,-43.49289,-28.17355
94.738417149,9.877781,0.937054199999997,7.29708099999998,0.3960077,0.3723506,0.6904113,-30.47836,-43.12035,-28.17027
94.748305321,14.7269,1.584321,9.80182699999999,0.3998543,0.3695866,0.7014908,-30.47836,-43.12035,-28.17027
94.758192539,20.13553,2.702329,12.06221,0.3945902,0.389526,0.6989795,-30.47836,-43.12035,-28.17027
94.768080234,25.17115,3.996863,14.75023,0.3956625,0.418741,0.698833,-30.47836,-43.12035,-28.17027
94.777968407,27.59571,4.349918,16.27751,0.4006764,0.4654926,0.6995643,-31.23895,-43.10214,-27.79832
94.787856102,26.84969,3.290754,17.0717,0.3940482,0.5082423,0.6916461,-31.23895,-43.10214,-27.79832
94.797743797,23.61695,2.172746,17.92698,0.3849402,0.5324209,0.6790096,-31.23895,-43.10214,-27.79832
94.807631493,18.64349,0.2897868,19.39318,0.3800666,0.5280768,0.6809497,-31.23895,-43.10214,-27.79832
94.817519665,13.98088,-2.063913,22.02011,0.362436,0.4778478,0.6739696,-31.23895,-43.10214,-27.79832
94.827406883,11.30765,-3.946872,26.90742,0.3529799,0.4071869,0.6695067,-32.00065,-43.08274,-27.36151
94.837294579,13.29703,-4.888352,32.10019,0.3411384,0.3407478,0.6539586,-32.00065,-43.08274,-27.36151
94.847182751,20.07336,-5.417934,37.78168,0.3371209,0.2943301,0.6431274,-32.00065,-43.08274,-27.36151
94.857069969,30.02027,-5.064879,42.91336,0.335694,0.2866836,0.6200802,-32.00065,-43.08274,-27.36151
94.866957664,41.70788,-4.888352,48.16722,0.3726922,0.3117953,0.6108579,-32.00065,-43.08274,-27.36151
94.876845837,53.27116,-4.299927,52.32143,0.3918377,0.3621487,0.593793,-32.70551,-42.67904,-26.53945
94.886733055,61.4773599999999,-4.770667,54.94836,0.3951107,0.4857647,0.6215463,-32.70551,-42.67904,-26.53945
94.896621227,64.5857599999998,-5.30025,54.27636,0.4118327,0.5186842,0.5781162,-32.70551,-42.67904,-26.53945
94.906508923,62.4720499999998,-9.12501099999998,54.09309,0.4259201,0.5340106,0.5953678,-32.70551,-42.67904,-26.53945
94.916396141,57.5607599999999,-12.42019,55.98692,0.4158293,0.5617508,0.5928116,-32.70551,-42.67904,-26.53945
94.926284313,53.39549,-14.24431,58.4305800000001,0.4236264,0.5680083,0.5889415,-35.3869,-42.21576,-24.07556
