Time (s),Gyroscope X (deg/s),Gyroscope Y (deg/s),Gyroscope Z (deg/s),Accelerometer X (g),Accelerometer Y (g),Accelerometer Z (g),Magnetometer X (uT),Magnetometer Y (uT),Magnetometer Z (uT)
0,14.43294,11.55694,3.250108,1.015984,-0.05870788,0.2142971,-38.57425,-29.72603,1.634686
0.022243977,2.869658,18.67688,4.288662,1.036224,-0.04538787,0.2936048,-38.94984,-28.96439,1.615498
0.022243977,2.869658,18.67688,4.288662,1.036224,-0.04538787,0.2936048,-38.94984,-28.96439,1.615498
0.032129765,-0.3630867,21.26595,4.777393,1.031377,-0.05736706,0.2734611,-38.94984,-28.96439,1.615498
0.042015553,-1.046937,22.14859,6.426861,1.018782,-0.07391477,0.239866,-38.94984,-28.96439,1.615498
0.051901817,1.066781,21.08943,7.343232,0.9858005,-0.09291448,0.2024126,-38.57288,-28.96991,1.624078
0.061787605,4.299526,19.20647,8.320694,0.9722295,-0.1154043,0.1621135,-38.57288,-28.96991,1.624078
0.071673393,8.153952,18.32383,9.237065,0.9766027,-0.1253964,0.1458177,-38.57288,-28.96991,1.624078
0.081560135,10.64068,18.91225,9.237065,0.9829438,-0.1191361,0.1419459,-38.57288,-28.96991,1.624078
0.09391737,9.89466,20.79521,8.442877,0.9791396,-0.1091758,0.1236162,-38.57288,-28.96991,1.624078
0.103803635,7.53227,21.61901,6.793409,0.9718797,-0.1018285,0.1254945,-39.31347,-28.97318,0.8286843
0.113689423,5.480721,21.79554,5.632673,0.9606377,-0.1227092,0.1279918,-39.31347,-28.97318,0.8286843
0.123575211,5.356384,21.79554,5.205033,0.9659255,-0.1542439,0.1041112,-39.31347,-28.97318,0.8286843
0.133461952,8.278288,18.79457,5.205033,0.9587123,-0.1481869,0.08483551,-39.31347,-28.97318,0.8286843
0.14334774,10.39201,17.08814,4.349754,0.9650539,-0.1260063,0.1034866,-39.31347,-28.97318,0.8286843
0.153234005,8.029615,15.85244,4.227571,0.9752318,-0.09856113,0.1490469,-38.9147,-28.62332,-0.4002433
0.163119793,4.050853,15.26402,3.861022,0.9844621,-0.08917633,0.1591093,-38.9147,-28.62332,-0.4002433
0.173005581,1.315454,14.02833,4.044297,0.99651,-0.1070663,0.1693128,-38.9147,-28.62332,-0.4002433
0.182891846,0.8181084,12.20421,4.533028,0.9876887,-0.12841,0.1737389,-38.9147,-28.62332,-0.4002433
0.192778111,0.5072676,9.497457,6.060313,0.9836875,-0.1694569,0.1638424,-38.9147,-28.62332,-0.4002433
0.202664375,2.12364,6.73186,7.954146,0.9981849,-0.188491,0.1629933,-39.61178,-28.22797,-0.03216028
0.212550163,6.84842,4.790059,9.42034,1.000612,-0.1944686,0.1543697,-39.61178,-28.22797,-0.03216028
0.222435951,13.37608,4.672373,10.45889,0.9847336,-0.1664529,0.1368969,-39.61178,-28.22797,-0.03216028
0.232322216,19.09555,5.025428,10.33671,1.009081,-0.1446026,0.1358523,-39.61178,-28.22797,-0.03216028
0.242208004,23.07431,6.790703,7.404323,1.014571,-0.09082609,0.1504954,-39.61178,-28.22797,-0.03216028
0.252094269,22.32829,8.37945,4.349754,0.9962848,-0.0559596,0.1349089,-38.53649,-27.93574,-0.4013872
0.261980534,18.5982,7.143758,2.02828,0.9775466,-0.01184736,0.1187943,-38.53649,-27.93574,-0.4013872
0.271866798,12.19488,5.260798,0.1955387,0.9765921,0.01691527,0.1532742,-38.53649,-27.93574,-0.4013872
0.281752586,3.553508,2.024462,-3.164488,0.9914975,0.001355669,0.1894388,-38.53649,-27.93574,-0.4013872
0.291638374,-3.720167,4.790059,-1.820477,0.9522501,0.02339631,0.1926493,-38.53649,-27.93574,-0.4013872
0.301524639,-7.512425,4.790059,-2.614666,0.9341155,-0.01477092,0.2106156,-39.30307,-27.53231,0.3543826
0.313882351,-7.574594,5.613853,-3.225579,0.9174873,-0.0786383,0.171003,-39.30307,-27.53231,0.3543826
0.323768139,-3.533663,1.789092,-2.553574,0.8998442,-0.150187,0.1386418,-39.30307,-27.53231,0.3543826
0.333654404,1.999303,-2.50641,-1.270655,0.9064682,-0.2038581,0.1326686,-39.30307,-27.53231,0.3543826
0.343540192,6.972757,-5.742746,0.6842698,0.9262107,-0.2302696,0.160237,-39.30307,-27.53231,0.3543826
0.353426457,8.713465,-6.743068,2.272646,0.9416786,-0.2219338,0.1986862,-39.97304,-27.54485,-0.8935506
0.363312244,6.413243,-6.625383,3.189017,0.9553381,-0.1880593,0.2187292,-39.97304,-27.54485,-0.8935506
0.373198986,4.113021,-5.742746,2.761377,0.9642146,-0.1615893,0.1988878,-39.97304,-27.54485,-0.8935506
0.383084774,4.921207,-4.977794,2.639194,0.9794087,-0.1446355,0.1622694,-39.97304,-27.54485,-0.8935506
0.392970562,8.962138,-4.330527,3.372291,1.010465,-0.1516149,0.1556071,-39.97304,-27.54485,-0.8935506
0.402856827,10.64068,-2.977149,4.960668,1.044501,-0.126181,0.1675403,-39.29041,-27.92469,-0.4185472
0.412742615,7.718775,-0.2115527,6.243587,1.058537,-0.1070504,0.2112234,-39.29041,-27.92469,-0.4185472
0.422629356,1.999303,1.259509,7.037775,1.052118,-0.1128144,0.2482761,-39.29041,-27.92469,-0.4185472
0.432515144,-2.911981,3.730894,7.954146,1.018146,-0.1043182,0.2582939,-39.29041,-27.92469,-0.4185472
0.442400932,-5.336539,5.201956,8.13742,1.003089,-0.1027269,0.2650016,-39.29041,-27.92469,-0.4185472
0.452287197,-5.585212,6.084593,7.343232,0.984255,-0.08985838,0.2437547,-40.35778,-27.53097,-0.4481611
0.462172985,-3.036318,6.673018,5.143942,0.986222,-0.08554443,0.2394068,-40.35778,-27.53097,-0.4481611
0.472058773,-0.2387504,6.143435,3.250108,0.9746687,-0.07269029,0.2181682,-40.35778,-27.53097,-0.4481611
0.481945515,-0.114414,3.966264,0.9286354,0.9300888,-0.06113106,0.2036315,-40.35778,-27.53097,-0.4481611
0.49183178,-0.9847683,1.141824,-0.843015,0.9102671,-0.06357891,0.1675522,-40.35778,-27.53097,-0.4481611
0.501717568,-0.3009185,-1.56493,-1.576112,0.9433377,-0.0690314,0.132991,-39.65891,-27.54945,-0.8864007
0.511603356,0.8802766,-2.918307,-1.026289,0.9820955,-0.08855723,0.1350575,-39.65891,-27.54945,-0.8864007
0.523961544,-0.3630867,-3.094834,0.3788128,1.02178,-0.1102968,0.1520447,-39.65891,-27.54945,-0.8864007
0.533847332,-2.103795,-1.09419,1.050818,1.02799,-0.1241071,0.173763,-39.65891,-27.54945,-0.8864007
0.54373312,-3.720167,2.200989,0.9897268,1.015267,-0.1343779,0.2016938,-39.65891,-27.54945,-0.8864007
0.553619385,-5.274371,4.260476,0.562087,0.9987672,-0.1244121,0.2146096,-39.28768,-26.41245,-0.4397633
0.563505173,-6.828576,5.437326,-0.4764667,0.993988,-0.1079542,0.2073072,-39.28768,-26.41245,-0.4397633
0.573390961,-7.636762,5.496168,-1.698295,0.9949695,-0.1035449,0.2092097,-39.28768,-26.41245,-0.4397633
0.583277702,-7.885434,4.672373,-3.103397,1.003333,-0.07938641,0.197555,-39.28768,-26.41245,-0.4397633
0.593163967,-9.315302,3.672051,-5.180504,1.012621,-0.05842278,0.2003452,-39.28768,-26.41245,-0.4397633
0.603049755,-11.30468,3.024784,-7.807434,1.001024,-0.04778042,0.1940262,-40.02116,-26.80213,-1.683822
0.612935543,-12.79672,2.318674,-9.334719,0.9830399,-0.06500381,0.1796652,-40.02116,-26.80213,-1.683822
0.622821808,-13.85358,1.965619,-8.051799,0.9814113,-0.1186514,0.1741634,-40.02116,-26.80213,-1.683822
0.632707596,-15.28345,3.260154,-5.547052,0.9919856,-0.1553373,0.1647424,-40.02116,-26.80213,-1.683822
0.642594337,-16.83765,5.143113,-3.347762,0.9962617,-0.1751669,0.1744659,-40.02116,-26.80213,-1.683822
0.652480125,-19.94606,6.908388,-1.759386,0.9476822,-0.1797823,0.1850142,-39.64625,-27.94183,-1.65933
0.662365913,-22.05977,7.90871,0.1344473,0.9103333,-0.1798667,0.1743919,-39.64625,-27.94183,-1.65933
0.672252178,-19.69739,7.379128,1.11191,0.9041051,-0.1714128,0.1527007,-39.64625,-27.94183,-1.65933
0.682137966,-14.66176,5.908066,0.6231784,0.9152919,-0.1466991,0.1785582,-39.64625,-27.94183,-1.65933
0.692024708,-9.750479,3.495524,-0.3542839,0.9482795,-0.1362005,0.201146,-39.64625,-27.94183,-1.65933
0.701910496,-6.579903,1.612564,-1.94266,0.9661857,-0.1433676,0.2127447,-39.25552,-28.34093,-2.488533
0.711796284,-6.206894,0.5533996,-2.79794,0.9627934,-0.1458819,0.2069824,-39.25552,-28.34093,-2.488533
0.721682548,-6.393398,-0.2703952,-2.614666,0.9667515,-0.1493506,0.1709354,-39.25552,-28.34093,-2.488533
0.731568336,-4.901362,-0.2115527,-1.698295,0.9916319,-0.1452205,0.1247744,-39.25552,-28.34093,-2.488533
0.743926525,-3.28499,1.377194,-0.2931925,1.005309,-0.1363405,0.1016609,-39.25552,-28.34093,-2.488533
0.753812313,-4.901362,3.554366,0.25663,1.00092,-0.1232613,0.1290023,-39.63111,-27.57929,-2.507721
0.763698101,-8.00977,4.790059,0.562087,1.007695,-0.1131978,0.1515624,-39.63111,-27.57929,-2.507721
0.773584366,-11.8642,5.908066,0.6231784,1.012546,-0.09676421,0.1764928,-39.63111,-27.57929,-2.507721
0.783470631,-17.08632,5.908066,0.7453612,1.015962,-0.07747795,0.1965979,-39.63111,-27.57929,-2.507721
0.793356895,-21.06508,5.319641,0.1955387,1.006776,-0.06923197,0.1931793,-39.63111,-27.57929,-2.507721
0.803242683,-21.43809,4.437004,-1.209563,0.9956671,-0.06557324,0.175835,-39.61667,-27.5948,-3.350807
0.813128471,-20.81641,3.789736,-3.408854,0.9661092,-0.06384023,0.1575177,-39.61667,-27.5948,-3.350807
0.823014736,-19.44871,2.083304,-5.730326,0.9481574,-0.08723781,0.1210655,-39.61667,-27.5948,-3.350807
0.832900524,-17.64584,0.1415022,-7.19652,0.9354414,-0.1209416,0.1125648,-39.61667,-27.5948,-3.350807
0.842787266,-15.78079,-0.9176625,-6.891063,0.9324483,-0.1408288,0.1174711,-39.61667,-27.5948,-3.350807
0.852673054,-14.47526,-0.85882,-6.035783,0.9396235,-0.1541109,0.1420733,-39.62513,-27.96451,-2.891534
0.862559319,-14.47526,0.2591871,-5.48596,0.9614567,-0.1456387,0.1579258,-39.62513,-27.96451,-2.891534
0.872445106,-15.09694,1.730249,-5.180504,0.9769714,-0.1425751,0.16947,-39.62513,-27.96451,-2.891534
0.882330894,-15.03477,2.200989,-4.508498,0.9940385,-0.1366379,0.1454134,-39.62513,-27.96451,-2.891534
0.892217636,-14.53743,1.730249,-3.71431,0.9955553,-0.1285641,0.1319085,-39.62513,-27.96451,-2.891534
0.902103424,-14.35092,0.7887695,-2.675757,0.9810167,-0.1256927,0.1265873,-39.60931,-27.2239,-3.745229
0.911989689,-14.10225,-0.2703952,-1.453929,0.9732701,-0.1267951,0.1169657,-39.60931,-27.2239,-3.745229
0.921875477,-13.48057,0.08265968,-0.1099183,0.9727721,-0.1227332,0.1280058,-39.60931,-27.2239,-3.745229
0.931761265,-13.79141,1.318352,0.867544,0.9751605,-0.1284662,0.1357322,-39.60931,-27.2239,-3.745229
0.941648006,-14.5996,1.965619,0.8064526,0.9824341,-0.1234601,0.1458145,-39.60931,-27.2239,-3.745229
0.951534271,-14.66176,2.200989,0.4399042,0.990665,-0.1243425,0.1530421,-39.23236,-27.22943,-3.736649
0.963891506,-14.04008,2.200989,-0.04882693,0.9814253,-0.1276969,0.1554532,-39.23236,-27.22943,-3.736649
0.973777771,-13.2319,1.494879,0.1344473,0.9590795,-0.1350001,0.1525792,-39.23236,-27.22943,-3.736649
0.983664036,-12.29937,0.02381719,0.5009956,0.9217133,-0.1454255,0.1343144,-39.23236,-27.22943,-3.736649
0.993549824,-10.99384,-2.03567,1.234092,0.8988979,-0.149842,0.1290206,-39.21859,-27.623,-4.57443
1.003435612,-8.569283,-3.506732,1.845006,0.9086676,-0.1383111,0.1198359,-39.21859,-27.623,-4.57443
1.013321877,-5.087867,-2.977149,2.394829,0.9484822,-0.1200635,0.1404686,-39.21859,-27.623,-4.57443
1.023207664,-2.787645,-1.035347,2.272646,0.9970688,-0.08862083,0.1653729,-39.21859,-27.623,-4.57443
1.033094406,-1.855123,0.4357146,1.539549,1.019906,-0.06941608,0.1826149,-39.21859,-27.623,-4.57443
1.042980194,-2.041627,1.318352,0.867544,1.023721,-0.07596054,0.2014083,-39.5811,-27.63299,-5.426098
1.052866459,-2.911981,2.024462,0.6842698,1.00368,-0.1033967,0.22028,-39.5811,-27.63299,-5.426098
1.062752247,-4.031008,2.848256,1.173001,0.9773501,-0.1314512,0.2295294,-39.5811,-27.63299,-5.426098
1.072638035,-4.341849,2.965941,2.272646,0.9534864,-0.1642382,0.2157212,-39.5811,-27.63299,-5.426098
1.082524776,-2.787645,2.671729,4.044297,0.9311528,-0.1820693,0.1927017,-39.5811,-27.63299,-5.426098
1.092410564,0.3829313,1.906777,5.93813,0.9364693,-0.2043305,0.170217,-39.21124,-27.2521,-4.968852
1.102296829,4.050853,1.671407,7.587597,0.9524693,-0.2127122,0.1654683,-39.21124,-27.2521,-4.968852
1.112182617,8.091784,2.142147,8.870517,0.9772498,-0.1984958,0.175043,-39.21124,-27.2521,-4.968852
1.122068405,11.88404,3.554366,9.542522,1.003497,-0.1783814,0.188437,-39.21124,-27.2521,-4.968852
1.131955147,14.93028,5.437326,8.748334,1.022963,-0.1578386,0.1970119,-39.21124,-27.2521,-4.968852
1.141840935,16.11148,6.849545,7.221049,1.032649,-0.1452813,0.2238911,-39.21928,-28.00106,-4.569127
1.1517272,14.93028,7.496813,5.754856,1.026799,-0.1510772,0.2263183,-39.21928,-28.00106,-4.569127
1.161612988,13.81125,6.849545,5.021759,0.9811851,-0.1610137,0.2070798,-39.21928,-28.00106,-4.569127
1.171499729,13.56258,4.966586,4.960668,0.9113768,-0.1579344,0.175725,-39.21928,-28.00106,-4.569127
1.183856964,15.24112,2.730572,5.815947,0.8702464,-0.1442204,0.1429063,-39.21928,-28.00106,-4.569127
1.193742752,17.044,1.553722,6.915592,0.8640491,-0.1409381,0.1010426,-38.46467,-27.63405,-4.557271
1.203629017,19.09555,0.3180296,8.076328,0.9150906,-0.1315731,0.08277828,-38.46467,-27.63405,-4.557271
1.213515282,19.65506,0.4357146,8.626151,0.9946571,-0.1190677,0.1155082,-38.46467,-27.63405,-4.557271
1.223401547,17.66568,1.906777,8.931608,1.056168,-0.1213417,0.1670482,-38.46467,-27.63405,-4.557271
1.233287334,16.11148,3.495524,8.320694,1.063304,-0.1363703,0.205125,-38.46467,-27.63405,-4.557271
1.243173122,17.35484,3.907421,7.526506,1.029783,-0.1410873,0.2108818,-39.60085,-26.85419,-4.204502
1.253059387,20.27674,3.436681,6.121404,0.9948662,-0.1312577,0.2122352,-39.60085,-26.85419,-4.204502
1.262946129,22.20396,3.024784,5.08285,1.002623,-0.1252427,0.2247175,-39.60085,-26.85419,-4.204502
1.272831917,21.3336,3.554366,5.205033,1.005543,-0.1208156,0.2280649,-39.60085,-26.85419,-4.204502
1.282717705,19.09555,4.907743,6.060313,1.022505,-0.1206837,0.2391447,-39.60085,-26.85419,-4.204502
1.29260397,15.98714,7.614497,7.465415,1.055938,-0.1218799,0.2613111,-39.98627,-27.21837,-3.753809
1.302490234,12.81656,9.438614,7.893054,1.058306,-0.1319668,0.2709832,-39.98627,-27.21837,-3.753809
1.312376499,10.64068,10.96852,7.70978,1.022315,-0.1428726,0.285906,-39.98627,-27.21837,-3.753809
1.322262287,10.32984,10.38009,6.732318,0.9553494,-0.151306,0.2666356,-39.98627,-27.21837,-3.753809
1.332148075,11.07586,7.732182,5.571581,0.9030288,-0.1458625,0.2328841,-39.98627,-27.21837,-3.753809
1.34203434,11.94621,5.201956,4.349754,0.8769245,-0.1310534,0.2101763,-39.60863,-26.84584,-3.750533
1.351920605,12.25705,3.260154,3.799931,0.8891184,-0.1239889,0.1957269,-39.60863,-26.84584,-3.750533
1.36180687,11.32453,3.613209,3.983205,0.8847458,-0.1339062,0.1832681,-39.60863,-26.84584,-3.750533
1.371692658,10.019,3.966264,4.349754,0.8706083,-0.1489162,0.1871752,-39.60863,-26.84584,-3.750533
1.381578446,8.029615,4.378161,3.616657,0.8967043,-0.16616,0.2098953,-39.60863,-26.84584,-3.750533
1.393936634,7.221429,3.789736,2.45592,0.938889,-0.1769204,0.2124023,-39.99158,-26.4551,-3.375299
1.403822422,8.340456,2.612886,2.45592,0.9518932,-0.203678,0.2159187,-39.99158,-26.4551,-3.375299
1.413708687,8.837802,1.436037,3.3112,0.9610056,-0.2219125,0.235258,-39.99158,-26.4551,-3.375299
1.423594475,9.272979,0.5533996,4.533028,0.9794106,-0.2261805,0.2453999,-39.99158,-26.4551,-3.375299
1.433481217,10.019,0.4945571,6.060313,1.004133,-0.2334905,0.2483504,-39.99158,-26.4551,-3.375299
1.443367004,11.01369,1.553722,7.221049,1.013308,-0.2342093,0.2666395,-39.9909,-26.07704,-3.380604
1.453252792,11.07586,2.671729,7.893054,1.009941,-0.2179751,0.2771339,-39.9909,-26.07704,-3.380604
1.463139057,9.770324,4.731216,7.343232,0.9979311,-0.173452,0.2893992,-39.9909,-26.07704,-3.380604
1.473024845,7.656606,6.378806,5.266125,0.9785733,-0.1429209,0.3094216,-39.9909,-26.07704,-3.380604
1.482911587,5.232048,7.143758,2.761377,0.9495022,-0.1357245,0.298291,-39.9909,-26.07704,-3.380604
1.492797375,5.107712,6.319963,0.562087,0.9311355,-0.1237373,0.283301,-39.9909,-26.07704,-3.380604
1.50268364,5.16988,4.613531,-0.9041064,0.9258677,-0.1132297,0.2688142,-39.9909,-26.07704,-3.380604
1.512569428,4.175189,3.554366,-2.248117,0.9035085,-0.1294059,0.2587712,-39.9909,-26.07704,-3.380604
1.522456169,2.372312,2.554044,-2.492483,0.9024699,-0.1583352,0.2454505,-39.9909,-26.07704,-3.380604
1.532341957,2.372312,1.436037,-2.248117,0.8947197,-0.1708603,0.220978,-39.9909,-26.07704,-3.380604
1.542227745,3.926517,0.2591871,-1.576112,0.9049362,-0.1804848,0.1974731,-39.99158,-26.4551,-3.375299
1.55211401,4.983376,-0.5646076,-0.9041064,0.926729,-0.1926585,0.2004449,-39.99158,-26.4551,-3.375299
1.561999798,5.480721,-1.270717,-0.4764667,0.9563107,-0.1935471,0.2101015,-39.99158,-26.4551,-3.375299
1.571886539,6.102402,-2.094512,0.07335586,0.980602,-0.1837842,0.214889,-39.99158,-26.4551,-3.375299
1.581772327,6.040234,-2.388725,-0.04882693,0.9810683,-0.175205,0.2350448,-39.99158,-26.4551,-3.375299
1.591658115,5.729393,-2.624094,-0.2321011,0.9723578,-0.1609224,0.2445812,-39.99295,-27.21122,-3.364691
1.60154438,5.107712,-1.976827,-0.9651978,0.9767889,-0.1304743,0.2622264,-39.99295,-27.21122,-3.364691
1.613902092,3.740012,-0.85882,-1.576112,0.9665951,-0.1170117,0.2818646,-39.99295,-27.21122,-3.364691
1.623788357,2.434481,-0.7411351,-1.94266,0.94817,-0.1111247,0.2822948,-39.99295,-27.21122,-3.364691
1.633674145,0.7559403,-0.2703952,-2.614666,0.9471692,-0.1164073,0.2871296,-39.99295,-27.21122,-3.364691
1.643560886,-0.3009185,-0.7411351,-2.859031,0.9418314,-0.1223767,0.2780161,-40.37575,-26.12617,-2.93433
1.653446674,1.066781,-1.506087,-3.469945,0.94626,-0.1197801,0.2568475,-40.37575,-26.12617,-2.93433
1.663332462,3.056162,-2.682937,-3.897585,0.9608372,-0.1199096,0.2501319,-40.37575,-26.12617,-2.93433
1.673218727,4.050853,-3.447889,-3.958676,0.9821336,-0.1389787,0.2478478,-40.37575,-26.12617,-2.93433
1.683104515,3.740012,-3.565574,-3.775402,0.992303,-0.1517888,0.2392675,-40.37575,-26.12617,-2.93433
1.692991257,3.056162,-3.565574,-3.775402,0.9961743,-0.1621734,0.2292251,-39.6224,-26.45227,-2.91275
1.702877045,2.185808,-3.624417,-3.286671,1.002965,-0.1721128,0.2167791,-39.6224,-26.45227,-2.91275
1.712763309,2.12364,-3.742102,-2.614666,1.005388,-0.1820435,0.2043281,-39.6224,-26.45227,-2.91275
1.722649097,3.180499,-3.800944,-2.309208,0.9957553,-0.1735398,0.1855182,-39.6224,-26.45227,-2.91275
1.732535839,5.294216,-3.506732,-2.248117,0.980252,-0.16324,0.1883341,-39.6224,-26.45227,-2.91275
1.742421627,7.221429,-2.918307,-3.103397,0.9560885,-0.1325072,0.1886322,-39.62308,-26.83033,-2.907446
1.752307415,8.029615,-2.565252,-4.264133,0.9347695,-0.1113034,0.2034094,-39.62308,-26.83033,-2.907446
1.76219368,7.843111,-2.918307,-5.424869,0.9396678,-0.09616727,0.2067049,-39.62308,-26.83033,-2.907446
1.772079468,8.091784,-2.977149,-5.9136,0.9445705,-0.08105994,0.2080769,-39.62308,-26.83033,-2.907446
1.781966209,7.159261,-3.035992,-5.608143,0.9484442,-0.07304633,0.2234303,-39.62308,-26.83033,-2.907446
1.791851997,4.983376,-2.977149,-5.058321,0.9542148,-0.07918678,0.2369337,-40.01144,-25.73932,-2.15282
1.801737785,2.185808,-2.918307,-3.836493,0.9604243,-0.1064323,0.239483,-40.01144,-25.73932,-2.15282
1.81162405,0.3207631,-3.035992,-2.614666,0.9826718,-0.1378208,0.2276439,-40.01144,-25.73932,-2.15282
1.821510792,1.066781,-2.03567,-1.392838,0.9928436,-0.1576137,0.2080377,-40.01144,-25.73932,-2.15282
1.833868027,2.558817,-0.4469227,-0.7819237,0.983583,-0.1613328,0.2186263,-40.39687,-26.10349,-1.702127
1.843753815,1.999303,0.2003446,-1.270655,0.9704477,-0.1606186,0.2320735,-40.39687,-26.10349,-1.702127
1.853640556,1.501958,0.08265968,-1.94266,0.9684711,-0.1683556,0.2354768,-40.39687,-26.10349,-1.702127
1.863526344,1.999303,-0.5646076,-1.820477,0.9674834,-0.1742186,0.2340626,-40.39687,-26.10349,-1.702127
1.873412132,2.683153,-0.7411351,-1.576112,0.9723937,-0.1606512,0.2301522,-40.39687,-26.10349,-1.702127
1.883298397,3.677844,-0.6234501,-1.51502,0.9725019,-0.1274957,0.2328703,-40.40411,-26.41138,-1.30859
1.893185139,4.050853,0.08265968,-1.637203,0.9808372,-0.1026633,0.2337162,-40.40411,-26.41138,-1.30859
1.903070927,3.864348,0.847612,-2.125934,0.9658228,-0.09338159,0.2336522,-40.40411,-26.41138,-1.30859
1.912956715,3.740012,0.4357146,-2.003752,0.9585526,-0.09940475,0.2206895,-40.40411,-26.41138,-1.30859
1.922842979,3.367003,-0.09386778,-1.331746,0.9493697,-0.0991369,0.2048073,-40.40411,-26.41138,-1.30859
1.932728767,2.185808,-0.5646076,-0.6597409,0.937196,-0.1157842,0.1971828,-40.73212,-26.07622,-0.4770732
1.942615509,0.8181084,-1.270717,0.1344473,0.9435114,-0.1108553,0.2019743,-40.73212,-26.07622,-0.4770732
1.952501297,0.1342586,-1.859142,0.3177214,0.9478322,-0.1205165,0.2077991,-40.73212,-26.07622,-0.4770732
1.962387085,0.3207631,-2.153355,0.3788128,0.966737,-0.1233821,0.2140871,-40.73212,-26.07622,-0.4770732
1.97227335,1.43979,-2.447567,-0.4764667,0.9871172,-0.1253774,0.2136394,-40.73212,-26.07622,-0.4770732
1.982159615,2.683153,-2.74178,-1.270655,1.012297,-0.1355021,0.2238185,-40.04827,-26.39424,-0.06780624
1.992045879,3.304835,-2.094512,-2.3703,1.034599,-0.135388,0.2344235,-40.04827,-26.39424,-0.06780624
2.001931667,3.242667,-1.682615,-3.103397,1.037509,-0.1254247,0.249766,-40.04827,-26.39424,-0.06780624
2.011817455,3.367003,-1.035347,-3.225579,1.022971,-0.1354944,0.2257543,-40.04827,-26.39424,-0.06780624
2.021704197,4.672534,-0.6234501,-2.736848,0.9957978,-0.1509173,0.2003125,-40.04827,-26.39424,-0.06780624
2.031590462,6.351075,-0.3292377,-1.392838,0.9580051,-0.14977,0.174294,-40.04827,-26.39424,-0.06780624
2.043947697,6.972757,0.6710845,-0.3542839,0.931844,-0.1395786,0.1684417,-40.04102,-26.08635,-0.4613433
2.053833961,6.724084,1.847934,-0.2321011,0.9134092,-0.1351236,0.1708028,-40.04102,-26.08635,-0.4613433
2.063720226,5.915898,2.436359,-0.4764667,0.9023296,-0.1092574,0.1730641,-40.04102,-26.08635,-0.4613433
2.073606014,6.16457,1.612564,-0.7819237,0.9154848,-0.09218267,0.1768402,-40.04102,-26.08635,-0.4613433
2.083491802,7.097093,0.1415022,-1.637203,0.9412181,-0.07039073,0.2046527,-40.02783,-26.79497,-1.294706
2.093378544,6.475411,-1.035347,-2.431391,0.9552653,-0.06327048,0.2267551,-40.02783,-26.79497,-1.294706
2.103264809,3.864348,-1.859142,-3.469945,0.9634786,-0.06553452,0.2392798,-40.02783,-26.79497,-1.294706
2.113150597,1.564126,-1.153032,-3.836493,0.984313,-0.07181258,0.2455872,-40.02783,-26.79497,-1.294706
2.123036385,-0.4252549,-0.7999775,-3.531036,0.9813455,-0.08837741,0.2447057,-40.02783,-26.79497,-1.294706
2.132923126,-2.228132,-0.5057651,-2.736848,0.9807978,-0.1133618,0.234732,-39.666,-27.16304,-0.4377351
2.142808914,-3.782336,-0.03502529,-1.331746,0.9890128,-0.1345469,0.2194589,-39.666,-27.16304,-0.4377351
2.152695179,-3.471495,0.9064545,-0.04882693,0.9879933,-0.1556347,0.209465,-39.666,-27.16304,-0.4377351
2.162580967,-2.538972,1.671407,0.9897268,0.9874407,-0.1706356,0.2157921,-39.666,-27.16304,-0.4377351
2.172466755,-0.6739275,2.730572,1.295184,0.9874418,-0.1686519,0.2181867,-39.666,-27.16304,-0.4377351
2.182353497,2.310144,3.672051,0.9286354,0.9767707,-0.1651934,0.2200808,-39.28836,-26.79051,-0.4344592
2.192239285,5.418552,3.613209,0.562087,0.9709496,-0.1622171,0.2229446,-39.28836,-26.79051,-0.4344592
2.202125549,6.786252,3.436681,0.01226447,0.9496697,-0.1407636,0.2218502,-39.28836,-26.79051,-0.4344592
2.212011337,6.53758,2.318674,0.1955387,0.9181718,-0.1345579,0.2092791,-39.28836,-26.79051,-0.4344592
2.221898079,6.413243,0.3180296,0.6231784,0.9090618,-0.1173332,0.1875403,-39.28836,-26.79051,-0.4344592
2.231783867,6.040234,-1.32956,1.11191,0.9120231,-0.1002311,0.1917855,-39.65822,-27.17139,-0.8917046
2.241670132,4.548198,-1.917985,1.295184,0.9178365,-0.09270829,0.2071435,-39.65822,-27.17139,-0.8917046
2.25155592,2.372312,-2.388725,1.295184,0.9256001,-0.08972285,0.2124274,-39.65822,-27.17139,-0.8917046
2.263913632,0.5072676,-2.859464,0.867544,0.9352642,-0.09892211,0.2172941,-39.65822,-27.17139,-0.8917046
2.273799896,0.3207631,-3.683259,0.25663,0.9502621,-0.1076018,0.2250497,-39.65822,-27.17139,-0.8917046
2.283685684,1.253286,-4.507054,-0.6597409,0.9836757,-0.1236006,0.2343061,-38.90499,-27.56051,-0.8692408
2.293572426,2.869658,-4.860109,-0.5375581,1.014639,-0.1484028,0.2407186,-38.90499,-27.56051,-0.8692408
2.303458214,4.361694,-5.036636,-0.5375581,1.043191,-0.1643488,0.2528547,-38.90499,-27.56051,-0.8692408
2.313344479,4.734703,-5.036636,0.4399042,1.057729,-0.1731858,0.2500303,-38.90499,-27.56051,-0.8692408
2.323230267,5.045544,-5.213164,1.11191,1.030594,-0.1689437,0.2369932,-38.90499,-27.56051,-0.8692408
2.333117008,4.672534,-4.801267,1.661732,1.002078,-0.1432803,0.2233653,-39.28836,-26.79051,-0.4344592
2.343002796,4.175189,-3.271362,1.661732,0.9585348,-0.1132262,0.2082554,-39.28836,-26.79051,-0.4344592
2.352888584,3.491339,-3.035992,1.295184,0.9484759,-0.08469199,0.1936721,-39.28836,-26.79051,-0.4344592
2.362774849,3.491339,-3.506732,0.4399042,0.930144,-0.05998666,0.1824652,-39.28836,-26.79051,-0.4344592
2.372661114,3.926517,-4.565897,-0.6597409,0.9262574,-0.05597553,0.1896544,-39.28836,-26.79051,-0.4344592
2.382547379,3.926517,-6.095801,-1.453929,0.9320649,-0.0548837,0.198312,-39.67199,-26.77782,-0.05392218
2.392433167,3.242667,-7.390336,-2.125934,0.9354202,-0.06606862,0.1998151,-39.67199,-26.77782,-0.05392218
2.402318955,2.372312,-8.567186,-2.309208,0.9484454,-0.07703539,0.2171985,-39.67199,-26.77782,-0.05392218
2.412205696,1.191117,-9.86172,-1.698295,0.9682999,-0.09868016,0.2053074,-39.67199,-26.77782,-0.05392218
2.422091961,0.8802766,-11.39163,-0.7819237,0.9934585,-0.116632,0.2131215,-39.67199,-26.77782,-0.05392218
2.431977749,1.066781,-11.98005,-0.1710097,1.026424,-0.1328672,0.2065081,-39.29572,-27.16141,-0.04003811
2.441863537,1.626294,-11.27394,0.4399042,1.028836,-0.1387441,0.2046169,-39.29572,-27.16141,-0.04003811
2.451750279,2.247976,-10.56783,1.173001,1.018656,-0.1388102,0.1988346,-39.29572,-27.16141,-0.04003811
2.461636067,2.993994,-10.68552,0.8064526,0.9997457,-0.1378996,0.1920756,-39.29572,-27.16141,-0.04003811
2.473994255,4.113021,-10.27362,0.3788128,0.9712009,-0.1210085,0.178011,-39.29572,-27.16141,-0.04003811
2.483880043,4.796871,-10.27362,-0.1099183,0.9542886,-0.1075202,0.1659006,-39.30307,-27.53231,0.3543826
2.493765831,5.480721,-10.92089,-0.843015,0.9494848,-0.1048406,0.1490494,-39.30307,-27.53231,0.3543826
2.503652096,6.040234,-12.27426,-1.51502,0.9378346,-0.1028195,0.1523924,-39.30307,-27.53231,0.3543826
2.513538838,6.724084,-13.74532,-1.209563,0.9305983,-0.09910367,0.1393805,-39.30307,-27.53231,0.3543826
2.523424626,6.599748,-15.33407,-1.453929,0.9242499,-0.1078059,0.1427837,-39.30307,-27.53231,0.3543826
2.533310413,6.16457,-17.27587,-0.9041064,0.9188883,-0.1136243,0.1437689,-38.94056,-27.52232,1.206049
2.543196678,6.413243,-18.86462,-0.7208322,0.9358011,-0.1246275,0.1592332,-38.94056,-27.52232,1.206049
2.553082943,5.605057,-19.8061,-0.6597409,0.9430234,-0.1357194,0.1674731,-38.94056,-27.52232,1.206049
2.562969208,5.16988,-20.68874,-0.7208322,0.9604346,-0.1453131,0.1795644,-38.94056,-27.52232,1.206049
2.572854996,5.294216,-20.04147,-0.843015,0.9744871,-0.1407139,0.1959084,-38.94056,-27.52232,1.206049
2.582740784,5.605057,-19.86494,-1.026289,0.9997032,-0.145096,0.1993257,-38.57026,-27.52069,1.603746
2.592627525,6.102402,-18.39388,-0.7819237,1.02835,-0.1526797,0.184488,-38.57026,-27.52069,1.603746
2.602513313,7.283597,-17.68777,-0.4764667,1.049231,-0.1562662,0.1753924,-38.57026,-27.52069,1.603746
2.612399578,8.651297,-17.57009,0.07335586,1.057948,-0.158145,0.1811829,-38.57026,-27.52069,1.603746
2.622285366,9.956828,-16.80513,1.295184,1.046892,-0.1453708,0.1546551,-38.57026,-27.52069,1.603746
2.632172108,11.07586,-16.04018,1.295184,1.034342,-0.1283675,0.1502266,-39.72158,-27.10338,2.804905
2.642057896,12.00838,-14.56912,1.295184,0.9936547,-0.1104066,0.1409521,-39.72158,-27.10338,2.804905
2.65194416,11.88404,-14.09838,0.1344473,0.9534937,-0.08872358,0.1201172,-39.72158,-27.10338,2.804905
2.661829948,10.76501,-14.15722,-1.026289,0.9317118,-0.07811142,0.1104204,-39.72158,-27.10338,2.804905
2.67171669,8.837802,-16.27555,-2.248117,0.9186485,-0.07138333,0.1026768,-39.72158,-27.10338,2.804905
2.681602478,6.910588,-19.09999,-2.920122,0.9157046,-0.08013543,0.1031986,-39.35197,-27.4798,3.207906
2.691488266,5.915898,-21.336,-2.859031,0.931245,-0.07474498,0.1075174,-39.35197,-27.4798,3.207906
2.703846455,6.413243,-22.5717,-2.187026,0.9670221,-0.1022914,0.1264532,-39.35197,-27.4798,3.207906
2.713732243,7.656606,-22.45401,-1.94266,1.000886,-0.1225515,0.1439072,-39.35197,-27.4798,3.207906
2.723618507,8.091784,-20.74758,-1.148472,1.034747,-0.1358216,0.172868,-39.35197,-27.4798,3.207906
2.733504295,7.843111,-18.62925,-0.843015,1.055972,-0.1559344,0.1984826,-39.36642,-27.46429,4.050993
2.743391037,7.159261,-15.21639,0.01226447,1.040817,-0.1726386,0.2192294,-39.36642,-27.46429,4.050993
2.753276825,5.85373,-12.03889,0.562087,1.039305,-0.1687956,0.2480635,-39.36642,-27.46429,4.050993
2.763162613,4.113021,-8.272973,1.050818,1.028676,-0.1476919,0.2575632,-39.36642,-27.46429,4.050993
2.773049355,2.558817,-4.977794,0.562087,1.016146,-0.1278316,0.248792,-39.36642,-27.46429,4.050993
2.782935142,0.8181084,-2.212197,0.1344473,1.003181,-0.1053004,0.2231746,-39.00212,-27.07744,4.832502
2.792821407,-0.487423,-0.7411351,0.3788128,0.9858608,-0.09030924,0.181239,-39.00212,-27.07744,4.832502
2.802707195,-0.2387504,-1.741457,0.07335586,0.9782265,-0.08017796,0.1412627,-39.00212,-27.07744,4.832502
2.812593937,1.43979,-2.859464,0.3788128,0.9617239,-0.1015443,0.110573,-39.00212,-27.07744,4.832502
2.822479725,3.926517,-4.389369,1.417367,0.9617237,-0.115975,0.08996628,-39.00212,-27.07744,4.832502
2.83236599,6.040234,-6.213486,1.967189,0.9720284,-0.09082495,0.07975157,-39.0028,-27.4555,4.837807
2.842251778,6.599748,-6.625383,0.9286354,0.9842344,-0.06393022,0.08876704,-39.0028,-27.4555,4.837807
2.852138519,5.107712,-5.389691,0.9286354,1.000084,-0.0917661,0.1182619,-39.0028,-27.4555,4.837807
2.862024307,2.931826,-2.565252,1.906098,1.006267,-0.1138689,0.1390602,-39.0028,-27.4555,4.837807
2.871910095,1.501958,-0.09386778,2.517012,1.008161,-0.1285027,0.1376936,-39.0028,-27.4555,4.837807
2.88179636,1.43979,1.612564,2.578103,1.022693,-0.1308296,0.1468593,-39.00212,-27.07744,4.832502
2.891682625,0.8181084,3.613209,2.761377,1.018779,-0.1346096,0.1540878,-39.00212,-27.07744,4.832502
2.90156889,-0.5495912,5.084271,3.127926,1.00178,-0.1389873,0.1521669,-39.00212,-27.07744,4.832502
2.913926601,-1.730786,5.201956,3.189017,0.9770325,-0.146444,0.1387107,-39.00212,-27.07744,4.832502
2.923812866,-1.792954,3.377839,3.738839,0.9556704,-0.1513432,0.133902,-39.00853,-26.31297,5.275865
2.933698654,-1.046937,1.612564,4.594119,0.9459977,-0.154032,0.1156295,-39.00853,-26.31297,5.275865
2.943584442,0.8181084,-0.5057651,4.65521,0.944617,-0.142064,0.1016208,-39.00853,-26.31297,5.275865
2.953471184,2.310144,-1.32956,4.594119,0.946634,-0.1216448,0.0995962,-39.00853,-26.31297,5.275865
2.963356972,2.931826,-1.976827,3.066834,0.9534585,-0.1079087,0.1072293,-39.00853,-26.31297,5.275865
2.973243237,2.185808,-1.976827,2.02828,0.9535161,-0.09533436,0.1013948,-39.39353,-27.0564,5.667009
2.983129025,1.626294,-2.624094,0.9286354,0.9709671,-0.1021933,0.1009683,-39.39353,-27.0564,5.667009
2.993015766,1.750631,-3.506732,0.4399042,1.012685,-0.1046099,0.1077609,-39.39353,-27.0564,5.667009
3.002901554,3.491339,-3.800944,-0.1099183,1.05828,-0.117447,0.1021065,-39.39353,-27.0564,5.667009
3.012787819,5.978066,-3.035992,0.1344473,1.068426,-0.1246346,0.1112919,-39.39353,-27.0564,5.667009
3.022674084,7.345766,-1.56493,0.9286354,1.050413,-0.13471,0.1190171,-39.37771,-26.31579,4.813314
3.032560349,8.589128,0.4357146,2.272646,1.021292,-0.1232153,0.1347963,-39.37771,-26.31579,4.813314
3.042446136,8.402624,1.847934,3.127926,1.007762,-0.1051571,0.1356515,-39.37771,-26.31579,4.813314
3.052331924,7.283597,2.730572,3.433383,1.003408,-0.09528723,0.1437723,-39.37771,-26.31579,4.813314
3.062218666,5.356384,3.201311,3.250108,0.9913401,-0.07776913,0.1412654,-39.37771,-26.31579,4.813314
3.072104454,3.864348,1.847934,2.333737,0.9767773,-0.08420011,0.1326248,-39.75535,-26.68832,4.810039
3.081990719,3.056162,-0.6234501,1.906098,0.9738869,-0.08930834,0.116296,-39.75535,-26.68832,4.810039
3.091876507,4.548198,-2.094512,2.089372,0.9676003,-0.08994104,0.1057118,-39.75535,-26.68832,4.810039
3.101763248,6.475411,-3.212519,1.906098,0.9690173,-0.09417541,0.1158342,-39.75535,-26.68832,4.810039
3.111649036,7.53227,-3.389047,2.272646,0.9849723,-0.1007798,0.132237,-39.75535,-26.68832,4.810039
3.121535301,7.656606,-3.800944,3.127926,0.9898027,-0.09715782,0.1471327,-39.75467,-26.31026,4.804734
3.133893013,5.85373,-1.682615,3.922114,0.9863757,-0.1059233,0.1466922,-39.75467,-26.31026,4.804734
3.143778801,7.718775,-3.506732,4.899576,0.9814981,-0.1261662,0.1275521,-39.75467,-26.31026,4.804734
3.153665066,8.091784,-4.330527,6.243587,0.9872401,-0.1425757,0.1382218,-39.75467,-26.31026,4.804734
3.163551331,6.599748,-4.036314,7.770872,0.9979239,-0.1406418,0.1387051,-39.75467,-26.31026,4.804734
3.173437595,4.423862,-3.094834,8.13742,1.00658,-0.1515928,0.1565644,-39.76245,-26.30191,5.258704
3.183323383,2.496649,-1.153032,8.259603,0.9978707,-0.151254,0.1454916,-39.76245,-26.30191,5.258704
3.193209171,2.247976,0.3180296,7.587597,0.9882007,-0.1464948,0.1368,-39.76245,-26.30191,5.258704
3.203095913,3.677844,1.024139,6.487952,0.971258,-0.142767,0.1232961,-39.76245,-26.30191,5.258704
3.212982178,4.610366,0.4945571,5.571581,0.9606726,-0.1274081,0.1068551,-39.76245,-26.30191,5.258704
3.222867966,5.045544,-1.447245,4.044297,0.9524635,-0.1172091,0.1039087,-39.75467,-26.31026,4.804734
3.232754707,5.480721,-3.624417,2.944651,0.9617452,-0.1081479,0.09233136,-39.75467,-26.31026,4.804734
3.242640495,5.16988,-5.566219,2.089372,0.9733743,-0.1105338,0.09716585,-39.75467,-26.31026,4.804734
3.252526283,4.796871,-6.860754,1.783915,0.9801459,-0.114378,0.1015213,-39.75467,-26.31026,4.804734
3.262412548,5.045544,-7.390336,2.150463,0.9898261,-0.1201974,0.1044472,-39.75467,-26.31026,4.804734
3.272298813,5.667225,-7.625706,3.250108,0.994633,-0.1293655,0.110751,-39.76119,-25.6088,5.248981
3.282185078,6.53758,-6.978438,4.65521,1.009613,-0.1429075,0.1190121,-39.76119,-25.6088,5.248981
3.292070866,6.475411,-6.390014,5.877038,1.012027,-0.1418377,0.1257423,-39.76119,-25.6088,5.248981
3.301956654,6.351075,-5.330849,6.487952,1.020255,-0.1426985,0.1344126,-39.76119,-25.6088,5.248981
3.311843395,4.48603,-3.742102,6.854501,1.023686,-0.1269934,0.1429937,-39.76119,-25.6088,5.248981
3.32172966,2.12364,-2.03567,6.915592,1.024253,-0.1051178,0.1404792,-40.52247,-25.96865,5.626241
3.331615448,0.07209045,-0.4469227,7.037775,1.019446,-0.09893607,0.1298623,-40.52247,-25.96865,5.626241
3.34150219,-1.109105,0.3180296,6.487952,1.003013,-0.09486613,0.1067388,-40.52247,-25.96865,5.626241
3.353859425,-0.487423,-1.153032,5.205033,0.9802965,-0.09144329,0.07206935,-40.52247,-25.96865,5.626241
3.363745213,1.43979,-3.212519,3.922114,0.9687188,-0.07992771,0.05901313,-40.52247,-25.96865,5.626241
3.373631954,3.926517,-5.507376,3.555565,0.9639014,-0.08114372,0.04218157,-40.13037,-25.61163,4.78643
3.383517742,5.418552,-7.861076,2.88356,0.9740842,-0.08408554,0.04220801,-40.13037,-25.61163,4.78643
3.393404007,5.232048,-9.096768,3.005743,0.9842408,-0.08686196,0.05329477,-40.13037,-25.61163,4.78643
3.403290272,3.367003,-9.273295,3.677748,1.007866,-0.1132811,0.08086764,-40.13037,-25.61163,4.78643
3.413176537,1.377622,-8.096446,4.777393,1.013585,-0.1285513,0.1025928,-40.13037,-25.61163,4.78643
3.423062325,-0.6117593,-5.742746,6.060313,1.019832,-0.138617,0.1141928,-40.14482,-25.59612,5.629518
3.432948113,-1.792954,-3.859787,7.037775,1.011507,-0.1455957,0.1348982,-40.14482,-25.59612,5.629518
3.442834854,-2.787645,-2.03567,7.770872,1.00561,-0.1630424,0.1397889,-40.14482,-25.59612,5.629518
3.452720642,-2.228132,-1.035347,8.503968,1.001158,-0.1719621,0.1614704,-40.14482,-25.59612,5.629518
3.462606907,-1.357777,1.553722,8.442877,0.9841402,-0.1831858,0.1576604,-40.14482,-25.59612,5.629518
3.472493172,-0.4252549,3.083626,9.114882,0.9700004,-0.1981815,0.1625293,-40.51443,-25.21969,5.226516
3.482379437,0.8802766,3.730894,9.847979,0.974341,-0.1995071,0.1721593,-40.51443,-25.21969,5.226516
3.492265225,1.937135,4.907743,10.45889,0.99085,-0.1970906,0.1731277,-40.51443,-25.21969,5.226516
3.502151489,2.683153,5.849223,10.51998,1.010356,-0.1748157,0.1672663,-40.51443,-25.21969,5.226516
3.512037754,3.180499,6.73186,9.90907,1.022601,-0.1451791,0.1642449,-40.51443,-25.21969,5.226516
3.521924019,1.501958,8.085238,9.298157,1.012046,-0.1096108,0.1640532,-40.51375,-24.84163,5.221212
3.531809807,-1.109105,8.791347,8.931608,1.004885,-0.08497073,0.1499738,-40.51375,-24.84163,5.221212
3.541696549,-4.031008,9.909354,8.748334,1.017136,-0.06831834,0.1253766,-40.51375,-24.84163,5.221212
3.551582336,-5.523044,10.43894,8.748334,1.019217,-0.05726114,0.08348298,-40.51375,-24.84163,5.221212
3.563939571,-4.341849,9.497457,7.526506,1.002353,-0.05104317,0.04111133,-40.51375,-24.84163,5.221212
3.573826313,-2.352468,7.90871,7.159958,0.9810519,-0.04886109,0.02135832,-40.82788,-24.83703,5.214062
3.583712101,-1.917291,6.555333,7.098866,0.9765955,-0.07218275,0.02435664,-40.82788,-24.83703,5.214062
3.593598366,-2.538972,5.672696,8.320694,0.9823098,-0.09588207,0.036025,-40.82788,-24.83703,5.214062
3.60348463,-4.031008,6.143435,9.847979,0.9870221,-0.1218703,0.05732221,-40.82788,-24.83703,5.214062
3.613370895,-5.64738,8.026395,11.68072,0.9757075,-0.1532409,0.07478103,-40.82788,-24.83703,5.214062
3.623256683,-6.144726,9.144402,13.08582,0.9697412,-0.1866705,0.08552344,-40.88225,-24.4664,4.753359
3.633142471,-5.709548,10.85083,14.24656,0.959891,-0.2106319,0.1101603,-40.88225,-24.4664,4.753359
3.643029213,-5.087867,11.96884,14.00219,0.9656009,-0.2362934,0.1208767,-40.88225,-24.4664,4.753359
3.652915001,-2.849813,11.55694,13.57455,0.9723186,-0.2502485,0.1329779,-40.88225,-24.4664,4.753359
3.662801266,-1.419945,10.79199,13.63565,0.9659992,-0.2566454,0.1277129,-40.88225,-24.4664,4.753359
3.672688007,-1.295609,8.732505,12.536,0.9795954,-0.2363048,0.1545572,-41.5653,-23.70731,4.337904
3.682573795,-2.041627,7.026073,11.68072,0.9816,-0.2177974,0.1549468,-41.5653,-23.70731,4.337904
3.692459583,-1.109105,5.025428,10.3978,0.9759488,-0.1910131,0.1216215,-41.5653,-23.70731,4.337904
3.702345848,1.377622,2.259832,8.870517,0.9790543,-0.1628787,0.08204735,-41.5653,-23.70731,4.337904
3.712232113,2.745321,0.612242,6.915592,0.9928107,-0.1385747,0.04827571,-41.5653,-23.70731,4.337904
3.722118378,1.004613,-0.3292377,5.754856,0.9991712,-0.1199969,0.05396011,-41.55807,-23.39942,3.944367
3.732004166,-5.896053,-1.859142,4.899576,1.002565,-0.1140092,0.06403305,-41.55807,-23.39942,3.944367
3.741890907,-12.79672,-2.212197,4.65521,1.004032,-0.1200496,0.05108037,-41.55807,-23.39942,3.944367
3.751776695,-15.53212,-3.271362,4.288662,1.003552,-0.1300393,0.03429807,-41.55807,-23.39942,3.944367
3.761662483,-15.40778,-4.212842,4.960668,1.000569,-0.1554627,0.02720934,-41.55807,-23.39942,3.944367
3.771548748,-13.66707,-4.507054,5.877038,1.012644,-0.1700375,0.03114409,-41.55029,-23.40777,3.490397
3.78390646,-12.61021,-2.624094,5.815947,1.016399,-0.2010875,0.03948092,-41.55029,-23.40777,3.490397
3.793792725,-11.92636,-2.859464,6.121404,1.000338,-0.2176984,0.03377555,-41.55029,-23.40777,3.490397
3.803678989,-11.24251,-5.036636,5.93813,0.9808292,-0.2409544,0.03916102,-41.55029,-23.40777,3.490397
3.813565254,-11.30468,-6.860754,6.121404,0.970592,-0.2570754,0.03442163,-41.55029,-23.40777,3.490397
3.823451042,-10.86951,-8.979083,5.693764,0.9700348,-0.2750339,0.03835912,-41.55029,-23.40777,3.490397
3.83333683,-9.936983,-11.39163,5.021759,0.965193,-0.2746021,0.03402314,-41.55029,-23.40777,3.490397
3.843223572,-7.574594,-12.92153,4.349754,0.9705366,-0.2716551,0.03641893,-41.55029,-23.40777,3.490397
3.85310936,-5.64738,-13.45111,3.127926,0.9734701,-0.2598518,0.04453827,-41.55029,-23.40777,3.490397
3.862995625,-3.409327,-14.39259,2.88356,0.9705547,-0.2677882,0.03447573,-41.55029,-23.40777,3.490397
3.872882366,-1.917291,-15.21639,2.45592,0.9676387,-0.2578062,0.05029236,-42.31062,-22.63225,3.916599
3.882768154,-1.171273,-14.62796,2.639194,0.9773425,-0.2498401,0.06324801,-42.31062,-22.63225,3.916599
3.892653942,-1.668618,-13.86301,3.127926,0.9831216,-0.2515548,0.07961456,-42.31062,-22.63225,3.916599
3.902540684,-3.036318,-12.33311,3.3112,0.9821202,-0.2523542,0.09115957,-42.31062,-22.63225,3.916599
3.912426472,-3.906672,-10.8032,3.250108,0.9821597,-0.2446422,0.08583051,-42.31062,-22.63225,3.916599
3.922312736,-3.595831,-9.685193,3.066834,0.9807138,-0.244704,0.08150089,-41.93298,-22.25972,3.919875
3.932198524,-2.414636,-8.331816,2.822469,0.9783016,-0.2408108,0.08099754,-41.93298,-22.25972,3.919875
3.942085266,-0.5495912,-7.861076,2.517012,0.9754068,-0.234446,0.08288578,-41.93298,-22.25972,3.919875
3.951971054,0.07209045,-7.272651,2.333737,0.9730104,-0.2276671,0.07996327,-41.93298,-22.25972,3.919875
3.961856842,0.07209045,-6.801911,2.02828,0.9831935,-0.222151,0.09197,-41.93298,-22.25972,3.919875
3.971743584,-0.9226002,-5.978116,1.906098,0.9783482,-0.2197067,0.09195214,-41.947,-22.62346,4.703413
3.981629848,-1.668618,-5.683904,1.661732,0.9846898,-0.2179296,0.08137011,-41.947,-22.62346,4.703413
3.991515636,-2.165963,-6.095801,1.417367,0.9798183,-0.2287551,0.07324362,-41.947,-22.62346,4.703413
4.003873348,-0.9847683,-6.801911,1.234092,0.9842077,-0.2313855,0.06075795,-41.947,-22.62346,4.703413
4.013759613,0.6316039,-8.214131,0.9286354,0.9749973,-0.2239767,0.06648109,-41.57004,-22.62898,4.711992
4.023645401,2.310144,-9.979405,0.6842698,0.965295,-0.2234922,0.06502485,-41.57004,-22.62898,4.711992
4.033532143,3.926517,-11.80352,0.3788128,0.9652936,-0.2185076,0.07269439,-41.57004,-22.62898,4.711992
4.043417931,5.915898,-12.50963,0.4399042,0.9720695,-0.2174033,0.08231494,-41.57004,-22.62898,4.711992
4.053304195,6.910588,-12.50963,0.6231784,0.9817941,-0.2155394,0.07798829,-41.57004,-22.62898,4.711992
4.06319046,8.029615,-11.68584,0.6231784,0.9924105,-0.2226346,0.09342569,-41.57782,-22.62063,5.165962
4.073076725,8.775634,-10.15593,0.867544,0.9855671,-0.230777,0.1016347,-41.57782,-22.62063,5.165962
4.082962513,9.770324,-8.684871,1.173001,0.9782589,-0.2390479,0.1011873,-41.57782,-22.62063,5.165962
4.092848301,10.82718,-6.860754,1.478458,0.9791505,-0.2554694,0.1104088,-41.57782,-22.62063,5.165962
4.102735043,11.69754,-5.507376,1.722824,0.9834495,-0.2724565,0.1148278,-41.57782,-22.62063,5.165962
4.112620831,12.31922,-4.095157,2.700286,0.9770945,-0.2880838,0.1110522,-42.34551,-22.21601,5.986585
4.122507095,12.87873,-2.800622,3.066834,0.9751018,-0.2887518,0.131252,-42.34551,-22.21601,5.986585
4.132393837,13.06524,-2.03567,3.616657,0.9707221,-0.2896668,0.1346181,-42.34551,-22.21601,5.986585
4.142279625,13.06524,-1.32956,3.983205,0.9678317,-0.2803443,0.1388959,-42.34551,-22.21601,5.986585
4.152165413,12.50572,-1.56493,4.227571,0.9645462,-0.2631311,0.1171638,-42.34551,-22.21601,5.986585
4.162052155,12.44355,-1.917985,4.533028,0.9675217,-0.2505985,0.1089282,-41.22129,-22.22542,6.401442
4.171937943,11.5732,-2.977149,4.716302,0.9680991,-0.2412273,0.0843545,-41.22129,-22.22542,6.401442
4.181824207,10.39201,-3.683259,4.16648,0.9783412,-0.2321033,0.07710622,-41.22129,-22.22542,6.401442
4.191709995,9.397315,-4.330527,3.861022,0.979871,-0.2196326,0.064541,-41.22129,-22.22542,6.401442
4.201596737,8.651297,-4.977794,3.494474,0.9813902,-0.2031152,0.06205466,-41.22129,-22.22542,6.401442
4.211482525,8.402624,-5.742746,2.944651,0.9780411,-0.1894812,0.06150103,-41.98189,-22.20721,6.773398
4.223840714,8.775634,-6.448856,2.150463,0.9795027,-0.1835472,0.06772467,-41.98189,-22.20721,6.773398
4.233726502,9.335147,-6.743068,1.539549,0.978989,-0.1863528,0.07543301,-41.98189,-22.20721,6.773398
4.243612289,10.14333,-6.390014,1.539549,0.9900621,-0.205709,0.08516183,-41.98189,-22.20721,6.773398
4.253499031,10.76501,-5.625061,1.417367,0.9972979,-0.2089234,0.09913301,-41.98189,-22.20721,6.773398
4.263384819,11.32453,-4.448212,1.906098,0.9967303,-0.2342796,0.0968559,-41.98967,-22.19886,7.227368
4.273271084,12.19488,-4.153999,2.394829,1.013115,-0.2569543,0.1133404,-41.98967,-22.19886,7.227368
4.283156872,12.00838,-1.917985,2.88356,0.9922105,-0.2681488,0.1109686,-41.98967,-22.19886,7.227368
4.293043614,11.3867,-0.3292377,3.372291,0.9616172,-0.2709812,0.1128718,-41.98967,-22.19886,7.227368
4.302929401,10.51634,-0.3292377,3.738839,0.9431639,-0.2748691,0.1109468,-41.98967,-22.19886,7.227368
4.312815189,8.52696,-1.09419,4.533028,0.9427372,-0.2603101,0.1075063,-41.98898,-21.8208,7.222064
4.322701931,6.16457,-2.388725,5.205033,0.950101,-0.2434324,0.09733005,-41.98898,-21.8208,7.222064
4.332588196,4.548198,-3.918629,5.143942,0.9627497,-0.2401566,0.09011406,-41.98898,-21.8208,7.222064
4.342473984,3.491339,-4.448212,4.410845,0.9749135,-0.2373811,0.08193821,-41.98898,-21.8208,7.222064
4.352360725,3.180499,-4.448212,4.16648,0.9638337,-0.2269411,0.06215509,-41.98898,-21.8208,7.222064
4.362246513,4.050853,-4.565897,3.555565,0.9711373,-0.2280947,0.05110804,-41.99429,-21.05752,7.600573
4.372132301,4.859039,-4.153999,3.372291,0.9779218,-0.2325194,0.04921443,-41.99429,-21.05752,7.600573
4.382019043,6.226739,-2.918307,3.433383,0.986168,-0.2280238,0.05785767,-41.99429,-21.05752,7.600573
4.391904831,6.53758,-1.682615,3.494474,0.9920326,-0.2178382,0.05588918,-41.99429,-21.05752,7.600573
4.401791096,6.16457,-0.85882,3.3112,0.9949813,-0.2046389,0.0596732,-41.99429,-21.05752,7.600573
4.411676884,4.48603,0.02381719,2.822469,1.003259,-0.1893944,0.07066676,-41.98898,-21.8208,7.222064
4.421563625,2.247976,0.3768721,2.333737,0.9940634,-0.1860611,0.06438749,-41.98898,-21.8208,7.222064
4.43392086,-0.4252549,-0.03502529,1.356275,0.9892319,-0.183703,0.05859903,-41.98898,-21.8208,7.222064
4.443807602,-1.730786,-0.5646076,0.562087,0.9765965,-0.1945276,0.04950186,-41.98898,-21.8208,7.222064
4.45369339,-2.849813,-1.32956,0.3788128,0.977559,-0.2039325,0.03945114,-41.98898,-21.8208,7.222064
4.463579178,-3.657999,-2.03567,0.25663,0.9711884,-0.223441,0.03665695,-41.2398,-20.75352,7.613313
4.47346592,-3.533663,-2.388725,0.867544,0.9687565,-0.228879,0.03091061,-41.2398,-20.75352,7.613313
4.483351708,-3.844504,-3.094834,0.8064526,0.9688153,-0.2183028,0.02171973,-41.2398,-20.75352,7.613313
4.493237972,-3.720167,-3.800944,0.7453612,0.9746169,-0.2276238,0.01792606,-41.2398,-20.75352,7.613313
4.50312376,-3.720167,-4.212842,0.9897268,0.983314,-0.2353531,0.02326514,-41.2398,-20.75352,7.613313
4.513010502,-3.471495,-3.918629,0.9286354,0.988166,-0.2348542,0.0247109,-41.99497,-21.43558,7.605877
4.52289629,-3.471495,-3.035992,0.4399042,0.9885925,-0.2454313,0.03390234,-41.99497,-21.43558,7.605877
4.532782555,-3.409327,-1.035347,1.173001,0.9841793,-0.2476273,0.04929789,-41.99497,-21.43558,7.605877
4.542668819,-2.476804,0.1415022,1.050818,0.9821426,-0.2619514,0.06812388,-41.99497,-21.43558,7.605877
4.552555084,-1.730786,1.730249,1.539549,0.988947,-0.2630178,0.06284687,-41.99497,-21.43558,7.605877
4.562440872,-0.9847683,2.671729,1.661732,0.9899351,-0.2536743,0.06905276,-42.37068,-20.73694,7.587573
4.572327614,-0.860432,3.201311,1.600641,0.9865373,-0.2476947,0.07767525,-42.37068,-20.73694,7.587573
4.582213402,-1.482114,4.025106,1.234092,0.9850827,-0.245214,0.0805466,-42.37068,-20.73694,7.587573
4.59209919,-2.538972,4.907743,1.050818,0.9865597,-0.235893,0.08531038,-42.37068,-20.73694,7.587573
4.601985931,-3.409327,6.319963,0.562087,0.9953005,-0.238424,0.08004298,-42.37068,-20.73694,7.587573
4.611872196,-4.341849,8.438292,0.4399042,0.9991531,-0.2521741,0.07290302,-41.99372,-20.74247,7.596153
4.621757984,-3.844504,10.73315,0.7453612,1.010315,-0.2691047,0.04943614,-41.99372,-20.74247,7.596153
4.631644726,-1.295609,12.79264,1.050818,1.006354,-0.3019455,0.03468904,-41.99372,-20.74247,7.596153
4.641530514,2.869658,13.8518,1.417367,0.9762021,-0.3164441,0.03809447,-41.99372,-20.74247,7.596153
4.653887749,8.21612,12.96916,1.906098,0.9373689,-0.3088833,0.05003513,-41.99372,-20.74247,7.596153
4.66377449,10.76501,11.4981,2.88356,0.9388883,-0.2789308,0.06671774,-42.37125,-21.05199,7.591993
4.673660278,11.51103,9.379772,3.799931,0.9525179,-0.2533272,0.08728345,-42.37125,-21.05199,7.591993
4.683546543,11.51103,7.496813,4.533028,0.9710416,-0.2254997,0.09437771,-42.37125,-21.05199,7.591993
4.693432808,10.26767,6.202278,4.594119,0.9934546,-0.2051856,0.08804857,-42.37125,-21.05199,7.591993
4.703319073,9.024306,5.731538,4.16648,1.013947,-0.1830061,0.07593676,-42.37125,-21.05199,7.591993
4.713204861,6.84842,6.673018,3.616657,1.019814,-0.1723407,0.07348493,-41.59689,-21.46378,6.382254
4.723091602,3.491339,8.026395,3.005743,1.024223,-0.1686264,0.06192908,-41.59689,-21.46378,6.382254
4.73297739,0.4450994,9.085559,2.517012,1.012092,-0.1745896,0.05232699,-41.59689,-21.46378,6.382254
4.742863178,-2.228132,9.909354,2.02828,0.9979853,-0.192286,0.03941551,-41.59689,-21.46378,6.382254
4.75274992,-3.533663,9.850512,1.234092,0.9794737,-0.2177003,0.03086631,-41.59689,-21.46378,6.382254
4.762635708,-4.341849,9.497457,0.867544,0.9653556,-0.233828,0.0251607,-42.34956,-20.75962,6.35537
4.772521973,-3.96884,8.555977,0.4399042,0.966267,-0.2478867,0.02956107,-42.34956,-20.75962,6.35537
4.782408714,-3.657999,7.849867,0.562087,0.9662528,-0.2482945,0.03485325,-42.34956,-20.75962,6.35537
4.792294502,-2.974149,7.320285,0.5009956,0.9715601,-0.2500946,0.04544864,-42.34956,-20.75962,6.35537
4.80218029,-2.2903,6.849545,0.3788128,0.9734952,-0.2425929,0.05887872,-42.34956,-20.75962,6.35537
4.812066555,-1.419945,6.26112,0.3788128,0.968623,-0.2394818,0.07088049,-42.34289,-20.76678,5.966252
4.82195282,-0.487423,5.378483,0.07335586,0.9671357,-0.2417699,0.08050878,-42.34289,-20.76678,5.966252
4.831839085,0.3829313,5.025428,-0.1710097,0.9768454,-0.238817,0.08387134,-42.34289,-20.76678,5.966252
4.841724873,0.8802766,5.319641,-0.4153753,0.9894387,-0.246139,0.08440358,-42.34289,-20.76678,5.966252
4.851611614,0.5072676,6.73186,-0.5375581,1.000111,-0.2466182,0.08634182,-42.34289,-20.76678,5.966252
4.861497402,-0.6739275,8.555977,-0.3542839,1.004464,-0.2475288,0.09116059,-42.72652,-20.75409,6.346789
4.873855591,-2.849813,10.55662,0.1344473,0.9899313,-0.2407116,0.08918593,-42.72652,-20.75409,6.346789
4.883741379,-5.336539,11.26273,0.1344473,0.9749096,-0.2388491,0.0814647,-42.72652,-20.75409,6.346789
4.893627167,-8.00977,10.32125,-0.2321011,0.9594162,-0.2360766,0.06941005,-42.72652,-20.75409,6.346789
4.903513908,-10.06132,8.61482,-0.3542839,0.9477452,-0.2443748,0.06655318,-43.08903,-20.76408,5.495123
4.913399696,-11.18035,6.555333,-0.1710097,0.9526179,-0.2479872,0.05359211,-43.08903,-20.76408,5.495123
4.923285961,-10.80734,4.260476,0.3788128,0.9492321,-0.2455673,0.05213327,-43.08903,-20.76408,5.495123
4.933172703,-9.874815,2.730572,0.8064526,0.9560003,-0.2533719,0.05218041,-43.08903,-20.76408,5.495123
4.943058491,-8.569283,2.142147,1.539549,0.9622661,-0.2620631,0.0580025,-43.08903,-20.76408,5.495123
4.952944279,-7.201584,2.377517,2.211555,0.9695393,-0.2595421,0.06473093,-42.32844,-20.78229,5.123166
4.96283102,-6.144726,3.554366,2.639194,0.9816238,-0.2662179,0.07583959,-42.32844,-20.78229,5.123166
4.972716808,-6.082557,4.966586,3.066834,0.9903207,-0.2639925,0.09555599,-42.32844,-20.78229,5.123166
4.982603073,-7.325921,6.673018,2.88356,0.9980679,-0.2643869,0.1027806,-42.32844,-20.78229,5.123166
4.992489338,-10.06132,8.261765,2.45592,0.9965594,-0.2640532,0.1248996,-42.32844,-20.78229,5.123166
5.002375603,-13.4184,8.850189,1.661732,0.9916446,-0.27361,0.1364844,-41.95148,-20.78782,5.131746
5.012261391,-15.90513,8.909032,0.6842698,0.9833599,-0.2828385,0.1370025,-41.95148,-20.78782,5.131746
5.022147179,-17.21066,7.379128,-0.2321011,0.9751068,-0.2853,0.13412,-41.95148,-20.78782,5.131746
5.03203392,-16.46464,5.79038,-0.9651978,0.9732004,-0.2795464,0.1278369,-41.95148,-20.78782,5.131746
5.041920185,-13.79141,4.378161,-1.576112,0.9713194,-0.2694748,0.1172035,-41.95148,-20.78782,5.131746
5.051805973,-10.93167,3.613209,-2.125934,0.9699393,-0.2599991,0.09936001,-43.06791,-20.78675,4.262919
5.061692715,-8.134107,3.730894,-2.675757,0.9694685,-0.2541188,0.1017344,-43.06791,-20.78675,4.262919
5.071578503,-5.523044,4.260476,-3.103397,0.9631705,-0.2506977,0.1017099,-43.06791,-20.78675,4.262919
5.083936214,-2.103795,4.907743,-3.286671,0.9573613,-0.2512811,0.09449244,-43.06791,-20.78675,4.262919
5.093822479,0.1964268,5.79038,-3.469945,0.9592859,-0.2551589,0.09595699,-43.06791,-20.78675,4.262919
5.103708267,2.683153,6.73186,-3.286671,0.9524986,-0.2551958,0.09258301,-42.68428,-20.79944,3.882383
5.113595009,4.796871,7.143758,-3.347762,0.9607387,-0.2581266,0.09308811,-42.68428,-20.79944,3.882383
5.123480797,6.102402,7.791025,-3.347762,0.9704169,-0.2639316,0.09697582,-42.68428,-20.79944,3.882383
5.133367062,6.475411,8.085238,-3.225579,0.9699171,-0.2593611,0.1094561,-42.68428,-20.79944,3.882383
5.143253326,6.413243,8.850189,-2.920122,0.9679744,-0.2593501,0.1099348,-42.68428,-20.79944,3.882383
5.153139591,6.413243,9.791669,-3.042305,0.9577518,-0.2541656,0.1296147,-42.69152,-21.10733,4.27592
5.163025379,6.661916,10.96852,-3.225579,0.9611469,-0.2451988,0.14352,-42.69152,-21.10733,4.27592
5.172912121,6.84842,11.73347,-3.286671,0.9698652,-0.2401236,0.1584128,-42.69152,-21.10733,4.27592
5.182797909,6.599748,13.26338,-3.103397,0.9810237,-0.2396156,0.1613084,-42.69152,-21.10733,4.27592
5.192683697,6.972757,15.91129,-1.637203,0.9848604,-0.2482876,0.1680895,-42.69152,-21.10733,4.27592
5.202570438,6.413243,19.08878,0.9897268,0.9911433,-0.2580822,0.1652606,-42.30857,-21.49807,3.900687
5.212456703,5.418552,21.91322,3.189017,0.9979261,-0.2619984,0.1648072,-42.30857,-21.49807,3.900687
5.222342491,4.423862,23.85502,4.65521,0.9935537,-0.2634577,0.1643287,-42.30857,-21.49807,3.900687
5.232229233,4.921207,23.61965,5.021759,0.9814751,-0.2627907,0.1421892,-42.30857,-21.49807,3.900687
5.242115021,6.16457,21.20711,4.349754,0.956295,-0.2661012,0.1128411,-42.30857,-21.49807,3.900687
5.252000809,7.843111,17.50003,3.3112,0.9456694,-0.2629304,0.09549985,-41.9105,-21.52627,2.677063
5.26188755,9.024306,14.32254,2.089372,0.9389216,-0.2502779,0.09398548,-41.9105,-21.52627,2.677063
5.271773338,9.770324,11.20389,0.9897268,0.9307076,-0.2435306,0.088171,-41.9105,-21.52627,2.677063
5.281659603,9.956828,8.61482,0.5009956,0.9351232,-0.2269183,0.09242036,-41.9105,-21.52627,2.677063
5.291545391,9.335147,6.378806,0.01226447,0.9341731,-0.2146061,0.1014946,-41.9105,-21.52627,2.677063
5.30390358,7.034925,5.731538,0.07335586,0.9472899,-0.2032596,0.1129942,-42.66441,-21.51522,2.659904
5.313789368,5.418552,5.672696,0.07335586,0.9506987,-0.2013473,0.1110648,-42.66441,-21.51522,2.659904
5.323676109,3.615676,5.555011,0.1344473,0.9628081,-0.2002176,0.1230959,-42.66441,-21.51522,2.659904
5.333561897,2.496649,5.849223,0.1955387,0.9681531,-0.2032505,0.1163844,-42.66441,-21.51522,2.659904
5.343447685,1.874967,6.673018,0.4399042,0.9739288,-0.2099211,0.1270049,-42.66441,-21.51522,2.659904
5.353334427,1.191117,7.026073,0.6231784,0.9729039,-0.2255015,0.1270825,-42.66385,-21.20017,2.655483
5.363220215,0.6937721,7.2026,0.6842698,0.9660471,-0.2405259,0.130998,-42.66385,-21.20017,2.655483
5.37310648,1.564126,6.908388,1.295184,0.9683915,-0.2599151,0.1373506,-42.66385,-21.20017,2.655483
5.382993221,3.242667,5.849223,1.661732,0.9639592,-0.270948,0.1479816,-42.66385,-21.20017,2.655483
5.392879009,4.921207,3.672051,1.722824,0.965365,-0.2800878,0.1557241,-42.66385,-21.20017,2.655483
5.402764797,6.102402,1.494879,1.967189,0.9512506,-0.2857882,0.1634316,-43.72412,-21.19287,2.177204
5.412651539,6.786252,-0.5057651,2.089372,0.9448895,-0.2874431,0.1821886,-43.72412,-21.19287,2.177204
5.422537327,7.53227,-1.917985,2.02828,0.9468274,-0.2814526,0.1922599,-43.72412,-21.19287,2.177204
5.432423592,7.53227,-2.682937,2.333737,0.950178,-0.2906178,0.198562,-43.72412,-21.19287,2.177204
5.442309857,7.345766,-2.388725,3.189017,0.9491958,-0.2845711,0.2119961,-43.72412,-21.19287,2.177204
5.452196121,7.221429,-1.56493,4.16648,0.9550129,-0.2860291,0.2129719,-42.66385,-21.20017,2.655483
5.462081909,6.972757,-0.3292377,5.08285,0.9516616,-0.2743716,0.2105046,-42.66385,-21.20017,2.655483
5.471968651,6.972757,0.6710845,5.877038,0.9575172,-0.2681103,0.2066323,-42.66385,-21.20017,2.655483
5.481854439,6.910588,0.729927,6.182496,0.9575403,-0.2637782,0.203244,-42.66385,-21.20017,2.655483
5.491740704,6.910588,0.1415022,5.999221,0.9604706,-0.2579262,0.2041796,-42.66385,-21.20017,2.655483
5.501626969,7.159261,-0.4469227,5.571581,0.9672805,-0.2540512,0.2036868,-41.90146,-20.84152,2.21337
5.511513233,7.594438,-0.9176625,4.777393,0.958545,-0.2550366,0.2017582,-41.90146,-20.84152,2.21337
5.523870945,8.837802,-1.211875,3.738839,0.9508078,-0.2487341,0.198832,-41.90146,-20.84152,2.21337
5.533756733,9.956828,-1.506087,2.761377,0.94741,-0.24375,0.2060168,-41.90146,-20.84152,2.21337
5.543642998,9.89466,-2.153355,2.150463,0.9498401,-0.2397946,0.2103278,-41.90146,-20.84152,2.21337
5.553529739,9.086474,-2.50641,1.539549,0.9536799,-0.2405244,0.2271681,-43.03944,-20.43853,2.636295
5.563415527,7.656606,-1.623772,1.173001,0.9609833,-0.2396872,0.2189965,-43.03944,-20.43853,2.636295
5.573301315,6.910588,-0.7411351,0.867544,0.9614847,-0.2397888,0.2122647,-43.03944,-20.43853,2.636295
5.583188057,6.724084,0.1415022,0.3788128,0.9648749,-0.241242,0.2132378,-43.03944,-20.43853,2.636295
5.593073845,7.097093,1.082982,0.3177214,0.9576223,-0.2468789,0.1935402,-43.03944,-20.43853,2.636295
5.60296011,7.656606,1.259509,-0.2931925,0.9556966,-0.2449848,0.1896811,-42.66248,-20.44405,2.644876
5.612846374,7.345766,1.436037,-0.9651978,0.9624954,-0.2420334,0.1925595,-42.66248,-20.44405,2.644876
5.622732639,6.040234,1.377194,-1.392838,0.9532484,-0.2488252,0.1930642,-42.66248,-20.44405,2.644876
5.632618427,4.299526,0.9064545,-1.453929,0.9556792,-0.2493529,0.190665,-42.66248,-20.44405,2.644876
5.642505169,2.745321,1.082982,-1.392838,0.9537395,-0.2518485,0.1863471,-42.66248,-20.44405,2.644876
5.652390957,1.937135,1.494879,-1.026289,0.960075,-0.2495341,0.1791288,-42.6765,-20.80779,3.428413
5.662277222,1.812799,1.906777,-0.6597409,0.9513264,-0.2559119,0.1748228,-42.6765,-20.80779,3.428413
5.672163486,2.434481,1.906777,-0.1710097,0.9542516,-0.2555026,0.1700148,-42.6765,-20.80779,3.428413
5.682049751,3.615676,1.259509,0.07335586,0.9581586,-0.2526749,0.1642339,-42.6765,-20.80779,3.428413
5.691935539,4.672534,0.4945571,0.3177214,0.9625152,-0.2570877,0.1628184,-42.6765,-20.80779,3.428413
5.701822281,5.418552,-0.09386778,0.7453612,0.9581433,-0.256062,0.1656938,-42.29151,-20.06436,3.037268
5.711708069,6.16457,-0.5057651,0.867544,0.9537676,-0.2574998,0.1666579,-42.29151,-20.06436,3.037268
5.721593857,6.910588,-0.5646076,1.050818,0.9595824,-0.2599388,0.1671578,-42.29151,-20.06436,3.037268
5.731480598,7.656606,-0.4469227,1.356275,0.955227,-0.2555333,0.1680924,-42.29151,-20.06436,3.037268
5.743837833,8.278288,-0.6822926,1.478458,0.955227,-0.2535424,0.1709679,-42.29151,-20.06436,3.037268
5.753724575,8.52696,-0.6822926,1.295184,0.9639632,-0.2520629,0.173375,-43.04611,-20.43137,3.025412
5.763610363,7.594438,-0.5057651,1.11191,0.9654316,-0.2451765,0.178151,-43.04611,-20.43137,3.025412
5.773496628,6.53758,-0.5057651,0.7453612,0.9620242,-0.2436155,0.1843912,-43.04611,-20.43137,3.025412
5.783382893,5.729393,0.4357146,0.6842698,0.9649366,-0.2456122,0.1815191,-43.04611,-20.43137,3.025412
5.793269157,5.605057,1.318352,0.6231784,0.9669319,-0.2384916,0.1694624,-43.04611,-20.43137,3.025412
5.803154945,6.226739,1.494879,0.6842698,0.9548218,-0.2331472,0.167017,-43.42307,-20.42584,3.016832
5.813041687,6.413243,1.141824,0.5009956,0.951416,-0.2281128,0.1775679,-43.42307,-20.42584,3.016832
5.822927475,6.226739,0.612242,0.25663,0.9572387,-0.221643,0.1876412,-43.42307,-20.42584,3.016832
5.83281374,5.915898,0.2003446,0.3788128,0.958707,-0.2137612,0.193855,-43.42307,-20.42584,3.016832
5.842700005,6.102402,0.2591871,0.01226447,0.9727784,-0.2167466,0.1914815,-43.42307,-20.42584,3.016832
5.852586269,6.16457,0.965297,0.1955387,0.978137,-0.2188704,0.1804371,-43.73122,-20.80645,2.625869
5.862472057,6.040234,1.906777,0.1955387,0.9761671,-0.2226686,0.1867061,-43.73122,-20.80645,2.625869
5.872358799,5.85373,3.613209,0.7453612,0.965476,-0.2290354,0.1828787,-43.73122,-20.80645,2.625869
5.882244587,6.226739,3.907421,1.234092,0.9606256,-0.2300428,0.1799928,-43.73122,-20.80645,2.625869
5.892130375,6.53758,4.437004,1.478458,0.9557641,-0.2329693,0.1790402,-43.73122,-20.80645,2.625869
5.902017117,6.972757,4.495846,2.089372,0.9538085,-0.2393461,0.1757037,-42.66915,-20.43689,3.033992
5.911903381,6.910588,4.260476,2.394829,0.9537838,-0.2491426,0.1719059,-42.66915,-20.43689,3.033992
5.921789169,7.283597,3.907421,2.639194,0.958112,-0.256362,0.1781992,-42.66915,-20.43689,3.033992
5.931675911,7.967447,3.966264,3.005743,0.9571149,-0.2676389,0.1729649,-42.66915,-20.43689,3.033992
5.941561699,8.837802,3.672051,3.433383,0.9624212,-0.2744092,0.1768526,-42.66915,-20.43689,3.033992
5.953919411,9.708156,3.672051,3.494474,0.9682428,-0.2719141,0.1816558,-43.04474,-19.67525,3.014804
5.963805675,10.019,4.025106,3.555565,0.9648388,-0.2673882,0.1907665,-43.04474,-19.67525,3.014804
5.973691463,10.14333,4.790059,3.861022,0.9667752,-0.2718392,0.186463,-43.04474,-19.67525,3.014804
5.983578205,9.956828,5.319641,4.65521,0.9623598,-0.2750163,0.2013825,-43.04474,-19.67525,3.014804
5.993463993,9.335147,5.849223,5.021759,0.9555535,-0.2714504,0.2109752,-43.04543,-20.05331,3.020108
6.003350735,8.589128,6.96723,5.449399,0.9511672,-0.278295,0.2086002,-43.04543,-20.05331,3.020108
6.013236523,8.153952,8.144079,5.999221,0.950191,-0.2852254,0.2009394,-43.04543,-20.05331,3.020108
6.023122787,8.464792,9.203244,7.037775,0.9433534,-0.2963902,0.2024308,-43.04543,-20.05331,3.020108
6.033008575,9.89466,9.497457,7.526506,0.9341974,-0.2833538,0.1936979,-43.04543,-20.05331,3.020108
6.042895317,12.07055,9.026717,7.70978,0.9429462,-0.2849398,0.1865021,-43.0521,-20.04615,3.409225
6.052781105,14.18426,8.497134,7.526506,0.9386668,-0.2576262,0.1887638,-43.0521,-20.04615,3.409225
6.062667847,15.98714,8.320607,6.243587,0.9503905,-0.2451828,0.1757293,-43.0521,-20.04615,3.409225
6.072553635,17.60351,6.614175,5.449399,0.9523766,-0.2300409,0.1790215,-43.0521,-20.04615,3.409225
6.082439899,18.47387,5.966908,4.410845,0.9621167,-0.2163321,0.1852153,-43.0521,-20.04615,3.409225
6.092326164,18.5982,5.496168,3.250108,0.9567974,-0.2159497,0.1775126,-43.42034,-18.9136,2.995616
6.102212429,17.91435,4.848901,2.150463,0.9514667,-0.2125089,0.1789319,-43.42034,-18.9136,2.995616
6.112098217,16.42232,3.142469,1.539549,0.9344853,-0.2085366,0.1817781,-43.42034,-18.9136,2.995616
6.121984959,15.17895,1.082982,1.173001,0.9354634,-0.2070921,0.18081,-43.42034,-18.9136,2.995616
6.131870747,13.37608,-1.211875,0.3177214,0.9267169,-0.2055205,0.1870441,-43.42034,-18.9136,2.995616
6.141756535,11.32453,-3.389047,-0.7819237,0.9368857,-0.2014077,0.2029053,-43.05141,-19.66809,3.403921
6.151643276,9.086474,-4.860109,-1.94266,0.9387904,-0.2076484,0.209191,-43.05141,-19.66809,3.403921
6.161529064,6.972757,-6.036959,-2.859031,0.9450719,-0.2084765,0.2197826,-43.05141,-19.66809,3.403921
6.173887253,4.48603,-5.860431,-3.958676,0.9508311,-0.2145451,0.2380948,-43.05141,-19.66809,3.403921
6.183773041,2.496649,-5.742746,-4.875047,0.9576054,-0.2149232,0.24628,-43.05141,-19.66809,3.403921
6.193659306,0.5694358,-5.566219,-5.48596,0.9585375,-0.2186624,0.2568803,-43.42769,-19.2845,3.390037
6.20354557,-1.046937,-5.095479,-5.608143,0.9696522,-0.2357924,0.2526512,-43.42769,-19.2845,3.390037
6.213431835,-1.979459,-4.565897,-5.424869,0.9613401,-0.2562926,0.248417,-43.42769,-19.2845,3.390037
6.223317623,-1.792954,-4.095157,-4.630681,0.9506264,-0.2714747,0.2412677,-43.42769,-19.2845,3.390037
6.233204365,-1.046937,-4.036314,-3.592128,0.9433177,-0.2822306,0.2374664,-43.42769,-19.2845,3.390037
6.243090153,-0.3009185,-3.977472,-2.492483,0.9360495,-0.279309,0.2364815,-42.67445,-19.67361,3.412501
6.252976418,0.6937721,-3.271362,-1.698295,0.940923,-0.2739694,0.2359792,-42.67445,-19.67361,3.412501
6.262862682,1.377622,-3.035992,-1.759386,0.9423948,-0.2681001,0.2378749,-42.67445,-19.67361,3.412501
6.272748947,1.315454,-2.859464,-2.125934,0.9492296,-0.2574151,0.2368668,-42.67445,-19.67361,3.412501
6.282634735,0.07209045,-1.623772,-2.614666,0.961903,-0.2453382,0.232011,-42.67445,-19.67361,3.412501
6.292521477,-0.9226002,0.6710845,-2.675757,0.9663058,-0.25054,0.2104008,-43.75695,-19.64244,4.231277
6.302407265,-1.295609,1.553722,-2.79794,0.9624481,-0.2412372,0.213235,-43.75695,-19.64244,4.231277
6.312294006,-2.2903,2.142147,-3.103397,0.9576283,-0.2354705,0.2074293,-43.75695,-19.64244,4.231277
6.322179794,-3.720167,1.906777,-3.958676,0.9532961,-0.2297192,0.2006624,-43.75695,-19.64244,4.231277
6.332066059,-6.33123,0.3768721,-4.752864,0.9634865,-0.2247476,0.2088245,-43.75695,-19.64244,4.231277
6.341952324,-10.4965,-0.7999775,-5.180504,0.968327,-0.2201949,0.2208301,-43.05141,-19.66809,3.403921
6.351838589,-14.47526,-0.3292377,-5.241595,0.9707635,-0.2157812,0.2232151,-43.05141,-19.66809,3.403921
6.361724377,-17.83234,1.553722,-4.813955,0.9857756,-0.2210667,0.2299918,-43.05141,-19.66809,3.403921
6.371611118,-19.38654,3.260154,-4.264133,0.9799506,-0.2265266,0.222318,-43.05141,-19.66809,3.403921
6.381496906,-19.38654,3.672051,-3.469945,0.9726404,-0.2427469,0.2113305,-43.05141,-19.66809,3.403921
6.393855095,-17.58367,2.259832,-2.125934,0.954211,-0.2467858,0.1993069,-43.0521,-20.04615,3.409225
6.403740883,-15.28345,0.3768721,-1.576112,0.9478979,-0.2507337,0.1949914,-43.0521,-20.04615,3.409225
6.413626671,-12.11287,-1.447245,-1.026289,0.9411062,-0.2557192,0.1863523,-43.0521,-20.04615,3.409225
6.423513413,-8.817957,-3.389047,-0.9651978,0.9401752,-0.2529826,0.1738335,-43.0521,-20.04615,3.409225
6.433399201,-6.269062,-5.448534,-1.087381,0.9392035,-0.2589462,0.1656868,-43.0521,-20.04615,3.409225
6.443285465,-4.590521,-7.978761,-1.637203,0.9285327,-0.2604651,0.1603923,-43.05278,-20.42421,3.414529
6.45317173,-3.906672,-10.92089,-2.064843,0.9333915,-0.2610048,0.157515,-43.05278,-20.42421,3.414529
6.463057995,-3.409327,-13.39227,-2.859031,0.9435799,-0.2600007,0.1608879,-43.05278,-20.42421,3.414529
6.472943783,-3.347158,-15.45176,-3.286671,0.9411479,-0.2584703,0.1652057,-43.05278,-20.42421,3.414529
6.482830525,-3.720167,-17.39356,-3.653219,0.9474666,-0.2495811,0.1743055,-43.05278,-20.42421,3.414529
6.492716313,-4.65269,-17.8643,-4.019767,0.9624944,-0.2470035,0.1858517,-42.68291,-20.04332,3.871775
6.502602577,-5.274371,-16.80513,-4.203042,0.9600426,-0.2528133,0.1878019,-42.68291,-20.04332,3.871775
6.512488842,-5.771717,-15.39291,-4.019767,0.9576067,-0.2577284,0.1844575,-42.68291,-20.04332,3.871775
6.522375107,-5.896053,-14.21606,-3.653219,0.951771,-0.2596358,0.1863842,-42.68291,-20.04332,3.871775
6.532261372,-4.963531,-12.745,-2.920122,0.9493386,-0.2645724,0.1815972,-42.68291,-20.04332,3.871775
6.542147637,-3.533663,-11.45047,-2.064843,0.9488005,-0.2726985,0.191737,-42.68291,-20.04332,3.871775
6.552033424,-1.482114,-10.62667,-1.209563,0.9488175,-0.2708155,0.1873992,-42.68291,-20.04332,3.871775
6.561920166,0.6316039,-9.920563,-0.5375581,0.9463322,-0.2779063,0.2013789,-42.68291,-20.04332,3.871775
6.571805954,2.372312,-9.390981,-0.2321011,0.9497601,-0.2661616,0.2056517,-42.68291,-20.04332,3.871775
6.581691742,3.304835,-8.802556,-0.2931925,0.9556028,-0.2623063,0.2037152,-42.68291,-20.04332,3.871775
6.591578483,3.304835,-7.625706,-0.2321011,0.9633658,-0.2588195,0.2099584,-43.06654,-20.03063,4.252312
6.603935718,2.434481,-6.036959,-0.5986494,0.9706101,-0.2605947,0.2224796,-43.06654,-20.03063,4.252312
6.61382246,1.128949,-4.448212,-0.5986494,0.9633074,-0.2669106,0.2225032,-43.06654,-20.03063,4.252312
6.623708248,0.2585949,-3.153677,-0.6597409,0.9642444,-0.275656,0.2239912,-43.06654,-20.03063,4.252312
6.633594513,-0.1765822,-1.859142,-0.6597409,0.9569944,-0.2728494,0.2153122,-43.06654,-20.03063,4.252312
6.643480778,-0.487423,-0.9176625,-0.7819237,0.9575059,-0.2720203,0.2056902,-42.69694,-20.40706,4.655313
6.653367042,0.009922287,0.1415022,-1.087381,0.9521974,-0.270213,0.1955757,-42.69694,-20.40706,4.655313
6.66325283,0.1964268,0.965297,-1.087381,0.9566167,-0.2585996,0.1911937,-42.69694,-20.40706,4.655313
6.673139572,0.4450994,1.730249,-0.9041064,0.9508069,-0.2576861,0.1863733,-42.69694,-20.40706,4.655313
6.68302536,1.066781,2.142147,-0.6597409,0.950376,-0.253053,0.170479,-42.69694,-20.40706,4.655313
6.692912102,2.372312,1.789092,-0.1099183,0.9455299,-0.2595607,0.1580024,-42.69625,-20.029,4.650008
6.70279789,4.050853,1.141824,0.01226447,0.9503978,-0.2601579,0.1512781,-42.69625,-20.029,4.650008
6.712684154,5.605057,0.2591871,-0.3542839,0.9456223,-0.2477035,0.1367821,-42.69625,-20.029,4.650008
6.722570419,6.599748,-1.035347,-1.270655,0.9413309,-0.2342473,0.1242052,-42.69625,-20.029,4.650008
6.732456684,6.84842,-2.27104,-2.492483,0.9433311,-0.2186976,0.1222052,-42.69625,-20.029,4.650008
6.742342472,5.791562,-3.212519,-4.203042,0.9443735,-0.1987491,0.1211438,-42.31399,-20.7978,4.28008
6.752229214,4.050853,-4.153999,-5.669235,0.9507221,-0.1835799,0.1268454,-42.31399,-20.7978,4.28008
6.762115002,1.501958,-5.154321,-7.501976,0.9410553,-0.173865,0.1238998,-42.31399,-20.7978,4.28008
6.772001266,-1.046937,-7.154966,-9.945632,0.9328237,-0.1684994,0.1233824,-42.31399,-20.7978,4.28008
6.781887531,-3.347158,-8.92024,-11.96165,0.933327,-0.1626426,0.1243152,-42.31399,-20.7978,4.28008
6.791773796,-6.020389,-10.21478,-13.91657,0.9314336,-0.1505011,0.1218471,-42.69694,-20.40706,4.655313
6.801659584,-9.253134,-11.74468,-15.50495,0.9368258,-0.1369131,0.11938,-42.69694,-20.40706,4.655313
6.811546326,-11.98853,-12.15658,-17.03223,0.9368439,-0.1350372,0.1145613,-42.69694,-20.40706,4.655313
6.823903561,-15.15911,-11.45047,-18.37625,0.9503894,-0.1372687,0.1299775,-42.69694,-20.40706,4.655313
6.833790302,-19.13787,-10.45015,-19.17043,0.9779725,-0.1442608,0.1545711,-42.69694,-20.40706,4.655313
6.84367609,-25.29252,-9.096768,-18.55952,1.013801,-0.1522287,0.1801409,-41.95747,-20.4026,5.515559
6.853562832,-32.5662,-6.743068,-16.91005,1.040842,-0.1837398,0.1933158,-41.95747,-20.4026,5.515559
6.86344862,-37.53965,-4.153999,-13.67221,1.041667,-0.2400498,0.1729217,-41.95747,-20.4026,5.515559
6.873334408,-39.40469,-3.800944,-9.517993,1.005592,-0.3041788,0.1457922,-41.95747,-20.4026,5.515559
6.883221149,-38.16133,-4.095157,-6.035783,0.9753093,-0.3740836,0.1239887,-41.95747,-20.4026,5.515559
6.893106937,-33.06354,-3.330204,-2.248117,0.9236698,-0.4553904,0.08586714,-42.32302,-21.48256,4.743773
6.902993202,-22.93013,-5.625061,1.11191,0.8698648,-0.4935577,0.001356728,-42.32302,-21.48256,4.743773
6.912879944,-10.683,-13.21574,3.066834,0.8439221,-0.4603617,-0.06184117,-42.32302,-21.48256,4.743773
6.922765732,-0.5495912,-21.21832,2.45592,0.8621385,-0.3595108,-0.02385641,-42.32302,-21.48256,4.743773
6.93265152,8.402624,-26.8672,-0.2931925,0.9099693,-0.2537842,0.01846568,-42.32302,-21.48256,4.743773
6.942538261,16.04931,-32.10418,-5.241595,0.9654632,-0.1807631,0.05663346,-41.947,-22.62346,4.703413
6.952424049,18.4117,-33.39871,-9.39581,1.02866,-0.1471734,0.06423032,-41.947,-22.62346,4.703413
6.962310314,18.97121,-30.28006,-12.75584,1.062725,-0.1443137,0.03203288,-41.947,-22.62346,4.703413
6.972196579,20.27674,-25.98456,-16.29914,1.065269,-0.1370955,-0.005993463,-41.947,-22.62346,4.703413
6.982082844,19.28205,-22.98359,-19.96462,1.065283,-0.1103114,0.02657384,-41.947,-22.62346,4.703413
6.991969585,12.19488,-21.27716,-22.53046,1.071036,-0.06856864,0.1158208,-41.96855,-22.22153,5.995165
7.001855373,0.8802766,-19.92379,-23.20247,1.065473,-0.07908696,0.1932959,-41.96855,-22.22153,5.995165
7.011741161,-10.93167,-18.98231,-22.225,1.042358,-0.1313784,0.2430687,-41.96855,-22.22153,5.995165
7.021627903,-18.57836,-16.15787,-18.92607,1.008119,-0.1868786,0.2721655,-41.96855,-22.22153,5.995165
7.031513691,-20.4434,-13.62764,-14.95513,0.9614518,-0.2271405,0.2439415,-41.96855,-22.22153,5.995165
7.04387188,-14.35092,-13.5688,-11.53401,0.8995103,-0.2466097,0.1386478,-41.23574,-22.20991,7.244528
7.053757668,-2.974149,-18.21735,-10.06781,0.8681353,-0.2506341,0.06072324,-41.23574,-22.20991,7.244528
7.063643456,8.464792,-23.74855,-8.784896,0.8799986,-0.2251387,0.008668422,-41.23574,-22.20991,7.244528
7.073530197,14.61944,-27.51447,-7.501976,0.9136175,-0.1867001,0.01091701,-41.23574,-22.20991,7.244528
7.083416462,16.04931,-27.9852,-6.035783,0.9588627,-0.1501316,0.01992116,-41.61407,-22.9605,7.246556
7.093302727,13.37608,-24.16044,-5.669235,1.006465,-0.1265645,0.03909304,-41.61407,-22.9605,7.246556
7.103188992,9.335147,-17.33472,-6.463423,1.050161,-0.107816,0.06117035,-41.61407,-22.9605,7.246556
7.11307478,2.80749,-10.68552,-8.296165,1.065755,-0.08186596,0.07259905,-41.61407,-22.9605,7.246556
7.122961521,-3.782336,-6.448856,-11.04528,1.057543,-0.06020105,0.08738878,-41.61407,-22.9605,7.246556
7.132847309,-11.42902,-4.212842,-13.24457,1.032836,-0.0390552,0.0978341,-41.25891,-23.32141,8.492643
7.142733097,-17.64584,-4.271684,-14.58858,1.017828,-0.03130624,0.09296867,-41.25891,-23.32141,8.492643
7.152619839,-20.50557,-6.390014,-14.03876,1.004735,-0.03882187,0.07712136,-41.25891,-23.32141,8.492643
7.162506104,-20.2569,-9.155611,-11.77837,0.9994219,-0.04245728,0.0612633,-41.25891,-23.32141,8.492643
7.172391892,-17.335,-10.86204,-9.029262,1.01491,-0.06360646,0.04936476,-41.25891,-23.32141,8.492643
7.182278633,-15.03477,-10.56783,-6.891063,1.023583,-0.07964264,0.0528221,-40.5685,-23.70961,8.513678
7.192164421,-14.66176,-8.861399,-4.447407,1.049261,-0.08387463,0.06633847,-40.5685,-23.70961,8.513678
7.202051163,-15.71862,-6.213486,-2.064843,1.054939,-0.10536,0.09578969,-40.5685,-23.70961,8.513678
7.211936951,-16.83765,-3.330204,-0.1710097,1.059714,-0.1227847,0.1035779,-40.5685,-23.70961,8.513678
7.221822739,-15.9673,-1.447245,1.417367,1.058653,-0.1515701,0.09987479,-40.5685,-23.70961,8.513678
7.23170948,-12.23721,0.3768721,2.517012,1.049854,-0.1765382,0.08989162,-40.58488,-24.76526,9.371793
7.241595268,-6.393398,1.024139,3.005743,1.028456,-0.1936542,0.08225904,-40.58488,-24.76526,9.371793
7.251481533,-1.046937,0.4945571,2.761377,1.021646,-0.1955382,0.08562727,-40.58488,-24.76526,9.371793
7.263839245,4.050853,-0.5057651,1.478458,1.009031,-0.2030116,0.07266582,-40.58488,-24.76526,9.371793
7.27372551,7.345766,-2.094512,0.7453612,0.9906333,-0.1987869,0.05963868,-40.58488,-24.76526,9.371793
7.283611775,9.521651,-3.742102,0.5009956,0.9824985,-0.177611,0.04172834,-40.57779,-25.15167,8.923126
7.293498039,10.88935,-4.742424,-0.04882693,0.9806712,-0.1544423,0.02766248,-40.57779,-25.15167,8.923126
7.303384304,11.01369,-5.095479,-0.2931925,0.9977448,-0.1425754,0.009346927,-40.57779,-25.15167,8.923126
7.313270569,8.029615,-4.389369,-0.04882693,1.004995,-0.1493639,0.012275,-40.57779,-25.15167,8.923126
7.323156357,2.80749,-2.565252,0.5009956,0.9961949,-0.1628805,0.01906619,-40.57779,-25.15167,8.923126
7.333043099,-3.098486,-0.2115527,0.9286354,0.992802,-0.1504628,0.03486998,-39.44623,-24.79019,8.943563
7.342928886,-9.315302,1.847934,0.3177214,0.9914221,-0.1111302,0.05967754,-39.44623,-24.79019,8.943563
7.352815151,-16.65115,3.848579,-0.04882693,1.023001,-0.08002586,0.09225891,-39.44623,-24.79019,8.943563
7.362701416,-23.42747,5.849223,0.4399042,1.05356,-0.07896855,0.1019067,-39.44623,-24.79019,8.943563
7.372587681,-28.96044,8.732505,2.089372,1.061657,-0.1183197,0.1093286,-39.44623,-24.79019,8.943563
7.382473946,-29.64429,11.38042,4.349754,1.057051,-0.1914538,0.10296,-39.81515,-24.03571,8.535257
7.392360211,-24.29783,14.14601,6.304678,1.072764,-0.2925711,0.08425204,-39.81515,-24.03571,8.535257
7.402245998,-13.60491,16.49971,6.549044,1.076856,-0.3814054,0.07123981,-39.81515,-24.03571,8.535257
7.41213274,0.1342586,18.44151,6.182496,1.062609,-0.4315546,0.07003427,-39.81515,-24.03571,8.535257
7.422018528,12.13271,21.3248,6.243587,1.028096,-0.4386254,0.08109195,-39.81515,-24.03571,8.535257
7.431904793,20.40108,25.09072,8.931608,0.9970995,-0.3937053,0.1173797,-40.17902,-24.80181,7.694199
7.441791058,23.57166,30.09233,12.96364,0.9564936,-0.322514,0.1506383,-40.17902,-24.80181,7.694199
7.451677322,22.14179,34.91741,16.93458,0.927605,-0.2527727,0.1536194,-40.17902,-24.80181,7.694199
7.46156311,19.9659,38.03606,19.37823,0.9039762,-0.2138922,0.1452204,-40.17902,-24.80181,7.694199
7.473921299,18.78471,39.56597,21.69971,0.8842888,-0.1659328,0.1257188,-40.17902,-24.80181,7.694199
7.483807564,17.2305,41.44893,21.51643,0.8887644,-0.118348,0.1495295,-40.54795,-24.04733,7.285894
7.493693829,16.60882,41.56661,19.50042,0.8734892,-0.05375477,0.13572,-40.54795,-24.04733,7.285894
7.503579617,16.17365,38.74217,16.44585,0.8698192,-0.003836094,0.1191122,-40.54795,-24.04733,7.285894
7.513466358,17.10617,30.7396,14.49092,0.8850152,0.0374887,0.1165161,-40.54795,-24.04733,7.285894
7.523352146,19.84157,21.38364,11.8029,0.9267311,0.02911373,0.115644,-40.54795,-24.04733,7.285894
7.533237934,24.19334,13.08685,10.15344,0.9761145,-0.01199551,0.108694,-41.21736,-23.74482,6.033541
7.543124676,28.04776,7.555655,9.481431,1.038996,-0.07245125,0.1124375,-41.21736,-23.74482,6.033541
7.553010464,30.84533,6.437648,9.359248,1.085863,-0.1304119,0.1180738,-41.21736,-23.74482,6.033541
7.562897205,30.9075,9.850512,9.542522,1.112065,-0.1413563,0.1061359,-41.21736,-23.74482,6.033541
7.57278347,27.73692,17.14698,9.114882,1.102835,-0.1447754,0.104219,-41.21736,-23.74482,6.033541
7.582669258,21.3336,25.50261,8.503968,1.065918,-0.1445228,0.1161987,-41.59295,-22.98318,6.014353
7.592556,11.63537,31.21033,7.648689,1.029973,-0.1402973,0.1334497,-41.59295,-22.98318,6.014353
7.602441788,0.3207631,33.7994,6.549044,0.9877949,-0.1236073,0.1366838,-41.59295,-22.98318,6.014353
7.612327576,-11.42902,33.03445,4.349754,0.9392604,-0.1175602,0.1438119,-41.59295,-22.98318,6.014353
7.622214317,-22.30845,28.73895,2.394829,0.9003159,-0.1316891,0.1707706,-41.59295,-22.98318,6.014353
7.632100105,-30.39031,22.67817,0.562087,0.8787971,-0.1659541,0.1887134,-41.95478,-22.61511,5.157382
7.641986847,-35.55027,17.08814,-0.843015,0.8965435,-0.2114246,0.2115666,-41.95478,-22.61511,5.157382
7.651873112,-37.91265,12.55727,-1.331746,0.9289442,-0.2465634,0.2108192,-41.95478,-22.61511,5.157382
7.6617589,-38.96952,10.67431,-0.843015,0.9769418,-0.2667167,0.2047236,-41.95478,-22.61511,5.157382
7.671645641,-41.82925,12.08653,0.5009956,1.024116,-0.2534628,0.1854734,-41.95478,-22.61511,5.157382
7.681531429,-44.19164,16.6174,2.639194,1.0538,-0.2520123,0.1561637,-41.92588,-22.64613,3.471209
7.693889141,-44.00513,23.2666,6.549044,1.04423,-0.2399222,0.1166562,-41.92588,-22.64613,3.471209
7.703775406,-39.96421,27.26789,9.481431,1.023473,-0.2172101,0.1020902,-41.92588,-22.64613,3.471209
7.713661194,-34.61774,29.44506,11.98618,1.010443,-0.1883034,0.1120286,-41.92588,-22.64613,3.471209
7.723547935,-29.89296,30.03348,13.14691,0.9968669,-0.1664697,0.1373917,-41.92588,-22.64613,3.471209
7.733433723,-26.22504,29.32737,13.14691,0.9842231,-0.1593255,0.1575399,-42.28172,-22.66328,2.230426
7.743320465,-22.49495,27.20904,12.41382,0.9686572,-0.1680382,0.159009,-42.28172,-22.66328,2.230426
7.753206253,-17.64584,24.14923,10.45889,0.949181,-0.1949833,0.1456572,-42.28172,-22.66328,2.230426
7.763092518,-12.98322,20.61869,8.076328,0.9252791,-0.2270316,0.1486775,-42.28172,-22.66328,2.230426
7.772978783,-9.315302,16.38203,5.693764,0.9023179,-0.2623755,0.1594103,-42.28172,-22.66328,2.230426
7.782865047,-6.766407,11.4981,3.616657,0.8953854,-0.2958319,0.168228,-42.63064,-21.93027,0.6547703
7.792750835,-4.777026,7.849867,1.478458,0.901059,-0.329227,0.1828309,-42.63064,-21.93027,0.6547703
7.802637577,-3.036318,6.084593,0.07335586,0.9130669,-0.3603005,0.1906963,-42.63064,-21.93027,0.6547703
7.812523365,-2.165963,5.496168,-0.6597409,0.9227166,-0.3659258,0.2066061,-42.63064,-21.93027,0.6547703
7.822410107,-3.222822,6.614175,-0.9041064,0.9280316,-0.3598125,0.2253371,-42.63064,-21.93027,0.6547703
7.832295895,-6.082557,7.084915,-0.9651978,0.9339119,-0.3427593,0.2267004,-42.23923,-21.95131,-0.1797364
7.842182159,-8.755789,7.614497,-1.148472,0.9538698,-0.3262424,0.2266396,-42.23923,-21.95131,-0.1797364
7.852068424,-8.755789,7.43797,-0.9651978,0.9622498,-0.3036815,0.2058555,-42.23923,-21.95131,-0.1797364
7.861954689,-5.64738,7.2026,-1.026289,0.9715697,-0.2849101,0.1923055,-42.23923,-21.95131,-0.1797364
7.871840477,-0.7982638,7.379128,-1.148472,0.9847983,-0.2628241,0.1729721,-42.23923,-21.95131,-0.1797364
7.881727219,4.237358,7.791025,-1.331746,0.981419,-0.2514882,0.1815675,-42.60827,-21.25984,-0.5871572
7.891613007,8.340456,8.37945,-1.453929,0.9678584,-0.2441859,0.1795916,-42.60827,-21.25984,-0.5871572
7.903971195,11.3867,8.026395,-1.392838,0.9732164,-0.2448128,0.1709442,-42.60827,-21.25984,-0.5871572
7.913856983,11.51103,7.791025,-1.087381,0.974148,-0.2480507,0.1825038,-42.60827,-21.25984,-0.5871572
7.923743725,9.583819,8.026395,-0.5375581,0.9779975,-0.2523259,0.1902245,-42.60952,-21.95295,-0.5774333
7.933629513,6.475411,7.320285,0.1955387,0.9677644,-0.2595165,0.1965011,-42.60952,-21.95295,-0.5774333
7.943515301,3.242667,6.025751,0.867544,0.9643463,-0.2613712,0.2022777,-42.60952,-21.95295,-0.5774333
7.953402042,0.1964268,5.260798,1.050818,0.9769614,-0.2573856,0.2099666,-42.60952,-21.95295,-0.5774333
7.963288307,-2.2903,5.201956,0.9897268,0.9881571,-0.2451692,0.2142459,-42.60952,-21.95295,-0.5774333
7.973174572,-4.901362,6.437648,0.562087,0.9901124,-0.2318241,0.2276465,-42.21743,-21.59592,-1.417244
7.983060837,-6.144726,8.732505,0.1344473,0.986769,-0.2202169,0.221813,-42.21743,-21.59592,-1.417244
7.992946625,-5.212203,10.38009,0.3788128,0.9790302,-0.2144014,0.2188893,-42.21743,-21.59592,-1.417244
8.002833366,-4.093176,12.08653,0.562087,0.970786,-0.2099522,0.2222239,-42.21743,-21.59592,-1.417244
8.012719154,-2.165963,13.55759,0.7453612,0.957703,-0.205587,0.2193014,-42.21743,-21.59592,-1.417244
8.022605896,0.6937721,13.8518,0.562087,0.9470578,-0.2077654,0.2024681,-42.59382,-21.27535,-1.430244
8.032491684,4.050853,12.49842,0.07335586,0.9329875,-0.2057826,0.202923,-42.59382,-21.27535,-1.430244
8.042377472,6.53758,10.73315,-0.2931925,0.9281543,-0.2068979,0.1928238,-42.59382,-21.27535,-1.430244
8.052264214,8.029615,7.67334,-1.026289,0.9199064,-0.2098896,0.1870584,-42.59382,-21.27535,-1.430244
8.062150478,9.335147,5.672696,-1.453929,0.9145278,-0.2225684,0.1851927,-42.59382,-21.27535,-1.430244
8.072036266,10.26767,4.260476,-1.881569,0.9067466,-0.2249446,0.1880814,-42.20367,-21.9895,-2.255026
8.081923008,9.832492,3.377839,-2.431391,0.9106327,-0.2170101,0.1981451,-42.20367,-21.9895,-2.255026
8.091808796,8.153952,3.613209,-2.675757,0.9077267,-0.2175417,0.194778,-42.20367,-21.9895,-2.255026
8.101695538,6.972757,3.024784,-3.347762,0.9043723,-0.2023821,0.1985449,-42.20367,-21.9895,-2.255026
8.111581326,5.294216,1.553722,-4.386316,0.9077861,-0.1910452,0.20811,-42.20367,-21.9895,-2.255026
8.123939514,3.740012,1.141824,-5.363778,0.9117227,-0.1759647,0.2075573,-42.20965,-21.60428,-1.871213
8.133825302,2.558817,-0.3880802,-5.9136,0.9117179,-0.1669767,0.2224204,-42.20965,-21.60428,-1.871213
8.14371109,1.191117,-0.9176625,-6.585606,0.9117031,-0.1658877,0.2301097,-42.20965,-21.60428,-1.871213
8.153597832,-0.3630867,-1.682615,-6.707788,0.9029251,-0.1760604,0.2325557,-42.20965,-21.60428,-1.871213
8.16348362,-0.6739275,-2.447567,-6.646697,0.9111572,-0.1789409,0.236427,-42.20965,-21.60428,-1.871213
8.173370361,-0.487423,-2.50641,-6.096875,0.9164477,-0.1885968,0.2427338,-41.46556,-22.74116,-1.384172
8.183256149,1.253286,-3.742102,-6.035783,0.9159734,-0.1971257,0.2259441,-41.46556,-22.74116,-1.384172
8.193142414,3.553508,-5.860431,-6.280149,0.9314352,-0.2056697,0.2428371,-41.46556,-22.74116,-1.384172
8.203029156,4.610366,-5.801589,-6.280149,0.9532016,-0.2107097,0.2669333,-41.46556,-22.74116,-1.384172
8.212914944,4.423862,-4.448212,-7.19652,0.9686766,-0.2248115,0.2703887,-41.46556,-22.74116,-1.384172
8.222801685,4.175189,-2.977149,-7.501976,0.9745092,-0.2268643,0.2641537,-41.45641,-21.99339,-1.848749
8.232687473,3.180499,-2.74178,-7.563068,0.9861535,-0.2228767,0.2718415,-41.45641,-21.99339,-1.848749
8.242573261,1.501958,-2.388725,-7.624159,0.9934334,-0.2223898,0.2728091,-41.45641,-21.99339,-1.848749
8.252460003,-0.3009185,-2.27104,-7.318703,0.9837402,-0.2229582,0.2660681,-41.45641,-21.99339,-1.848749
8.262345791,-2.538972,-2.565252,-7.440885,0.9817758,-0.2332594,0.2608278,-41.45641,-21.99339,-1.848749
8.272232056,-4.404017,-2.447567,-7.013246,0.9628185,-0.2434982,0.2574915,-42.2117,-22.73846,-1.855301
8.282118321,-5.460876,-2.918307,-7.074337,0.9579934,-0.2476502,0.239713,-42.2117,-22.73846,-1.855301
8.292004585,-5.64738,-3.977472,-6.524514,0.9628381,-0.2515842,0.2378147,-42.2117,-22.73846,-1.855301
8.301891327,-4.777026,-3.918629,-5.852509,0.9715868,-0.2501838,0.234932,-42.2117,-22.73846,-1.855301
8.311777115,-3.96884,-1.859142,-5.302687,0.9706148,-0.2461928,0.2411627,-42.2117,-22.73846,-1.855301
8.321662903,-3.28499,0.965297,-4.447407,0.9570164,-0.249102,0.2402001,-41.8432,-23.11369,-1.387448
8.331549645,-2.974149,3.083626,-3.836493,0.9555866,-0.2358293,0.2483071,-41.8432,-23.11369,-1.387448
8.34390688,-3.222822,4.554688,-4.447407,0.9312794,-0.2464869,0.2488142,-41.8432,-23.11369,-1.387448
8.353793621,-2.538972,5.143113,-4.752864,0.9259456,-0.2365577,0.260781,-41.8432,-23.11369,-1.387448
8.363679409,-1.544282,5.79038,-4.813955,0.9318264,-0.2170194,0.2654982,-41.8432,-23.11369,-1.387448
8.373566151,0.5072676,5.908066,-5.180504,0.9251183,-0.2016322,0.2514661,-41.45778,-22.74951,-1.838141
8.383451939,2.869658,5.201956,-5.852509,0.9310564,-0.1749911,0.2426816,-41.45778,-22.74951,-1.838141
8.393338204,5.16988,3.318996,-6.707788,0.9331009,-0.1587264,0.2233649,-41.45778,-22.74951,-1.838141
8.403224468,6.475411,2.436359,-7.440885,0.9428056,-0.1582299,0.2252971,-41.45778,-22.74951,-1.838141
8.413110733,5.915898,2.024462,-7.563068,0.9534954,-0.1623048,0.2147496,-41.45778,-22.74951,-1.838141
8.422996998,3.740012,1.377194,-7.929616,0.9559291,-0.1643437,0.2089916,-41.83679,-23.87816,-1.830809
8.432883263,0.5694358,1.200667,-8.051799,0.9568532,-0.1814678,0.2037891,-41.83679,-23.87816,-1.830809
8.442769051,-3.347158,0.965297,-7.746342,0.9465372,-0.2115233,0.211624,-41.83679,-23.87816,-1.830809
8.452655792,-6.33123,0.729927,-6.829971,0.9435709,-0.2290908,0.2088238,-41.83679,-23.87816,-1.830809
8.46254158,-6.828576,0.612242,-5.302687,0.945474,-0.2388048,0.2107988,-41.83679,-23.87816,-1.830809
8.472428322,-5.958221,1.024139,-4.56959,0.9498339,-0.2412482,0.2108161,-41.08218,-23.51115,-1.818953
8.48231411,-3.96884,1.789092,-4.264133,0.9537622,-0.2335798,0.2030871,-41.08218,-23.51115,-1.818953
8.492200375,-1.171273,1.906777,-4.508498,0.9426546,-0.2224658,0.1958044,-41.08218,-23.51115,-1.818953
8.50208664,1.874967,1.377194,-5.241595,0.9358742,-0.2081152,0.2101519,-41.08218,-23.51115,-1.818953
8.511972904,4.299526,-0.2115527,-5.669235,0.9310263,-0.1957018,0.2254731,-41.08218,-23.51115,-1.818953
8.521858692,6.288907,-2.212197,-6.585606,0.9335038,-0.1955289,0.2047954,-41.45846,-23.12757,-1.832837
8.531745434,8.837802,-3.918629,-7.013246,0.9345391,-0.1829996,0.1960767,-41.45846,-23.12757,-1.832837
8.541631222,9.210811,-5.330849,-7.074337,0.9379771,-0.1653468,0.204648,-41.45846,-23.12757,-1.832837
8.551517963,8.402624,-5.625061,-7.135428,0.934613,-0.1650545,0.1911769,-41.45846,-23.12757,-1.832837
8.563875198,6.102402,-6.507699,-7.379794,0.9409028,-0.1574751,0.2103826,-41.45846,-23.12757,-1.832837
8.57376194,2.745321,-7.154966,-7.074337,0.9481538,-0.156307,0.2243316,-41.08997,-23.5028,-1.364984
8.583647728,-0.3630867,-6.978438,-6.585606,0.956382,-0.1596601,0.2291672,-41.08997,-23.5028,-1.364984
8.59353447,-2.041627,-6.978438,-6.035783,0.9558639,-0.1713962,0.2258594,-41.08997,-23.5028,-1.364984
8.603420257,-1.792954,-6.036959,-5.791418,0.959681,-0.1903948,0.2259598,-41.08997,-23.5028,-1.364984
8.613306522,-0.5495912,-5.272007,-5.974692,0.9620855,-0.1867752,0.2403719,-41.08997,-23.5028,-1.364984
8.623192787,1.004613,-4.330527,-6.035783,0.9664266,-0.1856157,0.2533558,-40.79221,-24.56306,-0.4997191
8.633079052,2.434481,-3.447889,-6.096875,0.9708117,-0.1921992,0.2370427,-40.79221,-24.56306,-0.4997191
8.642965317,4.299526,-3.447889,-6.035783,0.9795381,-0.1871744,0.2485693,-40.79221,-24.56306,-0.4997191
8.652851581,4.734703,-2.918307,-6.096875,0.9770964,-0.1890671,0.2519426,-40.79221,-24.56306,-0.4997191
8.662737369,3.988685,-2.27104,-6.035783,0.9756345,-0.1860418,0.2586585,-40.79221,-24.56306,-0.4997191
8.672624111,2.683153,-1.741457,-5.791418,0.9810069,-0.1758121,0.2595748,-40.40747,-24.57694,-0.9451087
8.682509899,2.185808,-0.85882,-5.669235,0.97088,-0.1742181,0.2345473,-40.40747,-24.57694,-0.9451087
8.692396164,1.874967,-1.859142,-5.974692,0.9670106,-0.1742968,0.2287723,-40.40747,-24.57694,-0.9451087
8.702282429,1.688463,-2.094512,-5.791418,0.9655437,-0.1767142,0.2297447,-40.40747,-24.57694,-0.9451087
8.712168693,1.066781,-2.388725,-5.424869,0.9713688,-0.1772271,0.228792,-40.40747,-24.57694,-0.9451087
8.722054958,0.8802766,-1.388402,-5.363778,0.9679272,-0.1724639,0.2537719,-40.78444,-24.57141,-0.9536886
8.731941223,1.688463,0.02381719,-5.058321,0.9722885,-0.1818827,0.2432442,-40.78444,-24.57141,-0.9536886
8.741827011,2.247976,0.7887695,-4.875047,0.9625669,-0.1822714,0.2485253,-40.78444,-24.57141,-0.9536886
8.751713753,2.12364,1.436037,-4.875047,0.9722735,-0.1778073,0.2552467,-40.78444,-24.57141,-0.9536886
8.761599541,2.12364,2.789414,-4.508498,0.9766656,-0.1709987,0.2552173,-40.78444,-24.57141,-0.9536886
8.771486282,2.12364,3.201311,-4.447407,0.9727838,-0.1739846,0.2504187,-40.77982,-25.71275,-1.326894
8.783843517,2.185808,2.789414,-4.203042,0.9800179,-0.1766906,0.2658301,-40.77982,-25.71275,-1.326894
8.793730259,2.310144,3.495524,-4.080859,0.9746851,-0.1762218,0.263898,-40.77982,-25.71275,-1.326894
8.803616047,2.434481,4.672373,-3.836493,0.9925967,-0.1784476,0.2802809,-40.77982,-25.71275,-1.326894
8.813502789,2.12364,6.673018,-3.897585,1.002803,-0.1750662,0.2797945,-40.77982,-25.71275,-1.326894
8.823388576,2.434481,8.026395,-3.71431,0.9911528,-0.1829998,0.2687601,-40.42329,-25.31754,-0.09141421
8.833274841,3.242667,8.967875,-3.775402,0.9833884,-0.181502,0.2701865,-40.42329,-25.31754,-0.09141421
8.843161106,3.367003,9.085559,-4.14195,0.971742,-0.1750264,0.2783162,-40.42329,-25.31754,-0.09141421
8.853047371,2.869658,9.144402,-4.264133,0.9620773,-0.161344,0.2801597,-40.42329,-25.31754,-0.09141421
8.862933636,2.869658,9.379772,-4.447407,0.9572936,-0.1458528,0.2733431,-40.42329,-25.31754,-0.09141421
8.8728199,3.242667,9.438614,-4.630681,0.949065,-0.1479713,0.2608405,-40.04034,-25.70829,-0.4666471
8.882705688,3.242667,9.497457,-4.752864,0.9501063,-0.1300065,0.2573845,-40.04034,-25.70829,-0.4666471
8.89259243,1.937135,9.32093,-4.99723,0.9535317,-0.1237188,0.254952,-40.04034,-25.70829,-0.4666471
8.902478218,0.6316039,9.556299,-5.363778,0.9491596,-0.1311511,0.2458471,-40.04034,-25.70829,-0.4666471
8.91236496,0.5072676,8.909032,-5.119412,0.9380023,-0.1336572,0.2395951,-40.04034,-25.70829,-0.4666471
8.922250748,0.1342586,8.673662,-5.180504,0.9307111,-0.1256144,0.2554165,-40.03256,-25.71664,-0.9206166
8.932137012,0.3829313,8.37945,-5.424869,0.9259135,-0.1204857,0.2395148,-40.03256,-25.71664,-0.9206166
8.942023277,-0.6739275,8.261765,-5.363778,0.9249468,-0.1210067,0.2371117,-40.03256,-25.71664,-0.9206166
8.951909542,-2.787645,7.555655,-5.424869,0.9317494,-0.1195736,0.2361504,-40.03256,-25.71664,-0.9206166
8.961795807,-4.901362,6.790703,-5.48596,0.9331867,-0.1199556,0.2433678,-40.03256,-25.71664,-0.9206166
8.971682072,-5.64738,6.319963,-4.875047,0.9423601,-0.1256374,0.2554299,-40.02521,-25.34574,-1.315038
8.98156786,-5.150035,6.378806,-4.630681,0.9612842,-0.1266343,0.2564183,-40.02521,-25.34574,-1.315038
8.993926048,-3.595831,7.849867,-4.936138,0.9791955,-0.1323406,0.2680096,-40.02521,-25.34574,-1.315038
9.003811836,-1.917291,8.673662,-5.241595,0.9831007,-0.1349771,0.2550426,-40.02521,-25.34574,-1.315038
9.013698578,-0.860432,9.203244,-5.424869,0.9888684,-0.13662,0.2762179,-40.01213,-26.11737,-2.147516
9.023584366,-0.3630867,9.438614,-5.547052,0.9787021,-0.1312938,0.272813,-40.01213,-26.11737,-2.147516
9.033471107,-1.171273,9.673985,-5.852509,0.976261,-0.1336877,0.2752269,-40.01213,-26.11737,-2.147516
9.043356895,-2.60114,9.909354,-5.424869,0.9675798,-0.1290455,0.2588423,-40.01213,-26.11737,-2.147516
9.053242683,-4.031008,9.732826,-4.99723,0.9520733,-0.1237016,0.2559121,-40.01213,-26.11737,-2.147516
9.063129425,-6.206894,8.202922,-4.691772,0.943845,-0.1163667,0.2568275,-39.62849,-26.13006,-2.528053
9.07301569,-8.880125,7.2026,-4.325224,0.9457886,-0.1104121,0.2644944,-39.62849,-26.13006,-2.528053
9.082901955,-9.936983,6.319963,-3.775402,0.9506832,-0.1076942,0.2515014,-39.62849,-26.13006,-2.528053
9.092788219,-9.066629,5.849223,-3.347762,0.9526096,-0.1150669,0.2472125,-39.62849,-26.13006,-2.528053
9.102674007,-7.325921,6.437648,-3.225579,0.9530146,-0.1294893,0.2597898,-39.62849,-26.13006,-2.528053
9.112560749,-5.896053,7.320285,-3.225579,0.9519813,-0.1475044,0.2598796,-39.61473,-26.52363,-3.365835
9.122446537,-5.585212,7.849867,-3.225579,0.9518964,-0.1599062,0.2772554,-39.61473,-26.52363,-3.365835
9.132333279,-5.64738,8.497134,-3.225579,0.9499351,-0.1652515,0.2777611,-39.61473,-26.52363,-3.365835
9.142219067,-5.958221,9.085559,-3.042305,0.9504099,-0.1602104,0.2892783,-39.61473,-26.52363,-3.365835
9.152104855,-6.144726,9.615142,-3.042305,0.9538397,-0.1469833,0.2949864,-39.61473,-26.52363,-3.365835
9.161991596,-5.958221,9.438614,-2.981214,0.9606962,-0.1404168,0.2790906,-39.61473,-26.52363,-3.365835
9.171877861,-5.087867,8.909032,-3.164488,0.9529122,-0.1482501,0.2752739,-39.61473,-26.52363,-3.365835
9.181764126,-4.839194,8.555977,-3.103397,0.9373679,-0.1551086,0.2704817,-39.61473,-26.52363,-3.365835
9.191650391,-3.720167,7.67334,-3.225579,0.9247411,-0.1664848,0.2570591,-39.61473,-26.52363,-3.365835
9.201536179,-3.098486,6.437648,-3.408854,0.9213189,-0.1648303,0.2695507,-39.61473,-26.52363,-3.365835
9.213894367,-2.476804,5.908066,-3.531036,0.9125957,-0.1619129,0.2680833,-39.99169,-26.51811,-3.374416
9.223780632,-1.792954,6.202278,-3.225579,0.914554,-0.1530654,0.2738119,-39.99169,-26.51811,-3.374416
9.233666897,-1.730786,5.849223,-3.164488,0.9146168,-0.1400257,0.2665323,-39.99169,-26.51811,-3.374416
9.243552685,-1.544282,5.79038,-3.225579,0.9297458,-0.1186801,0.2630751,-39.99169,-26.51811,-3.374416
9.253439426,-1.419945,5.908066,-3.286671,0.9481797,-0.112679,0.2760507,-39.99169,-26.51811,-3.374416
9.263325214,-1.171273,6.26112,-3.531036,0.9525347,-0.1205651,0.2703244,-39.22332,-26.54467,-4.200342
9.273211956,-0.2387504,5.966908,-3.71431,0.9462022,-0.1273771,0.2698707,-39.22332,-26.54467,-4.200342
9.283097744,-0.2387504,5.79038,-3.897585,0.9383826,-0.1414544,0.2718566,-39.22332,-26.54467,-4.200342
9.292983532,-0.3009185,5.143113,-3.775402,0.9301009,-0.154185,0.2661405,-39.22332,-26.54467,-4.200342
9.302870274,-0.1765822,4.437004,-3.347762,0.9310745,-0.1527117,0.267096,-39.22332,-26.54467,-4.200342
9.312756538,-0.2387504,4.083949,-2.981214,0.9441884,-0.1438359,0.2762036,-39.21723,-26.86688,-4.585039
9.322642803,-1.109105,3.730894,-3.042305,0.945199,-0.125677,0.2857314,-39.21723,-26.86688,-4.585039
9.332529068,-2.787645,3.554366,-2.79794,0.9525004,-0.117363,0.2890641,-39.21723,-26.86688,-4.585039
9.342414856,-3.720167,3.907421,-2.79794,0.9569155,-0.1012448,0.2928351,-39.21723,-26.86688,-4.585039
9.352301598,-3.96884,4.025106,-2.920122,0.959787,-0.1089554,0.2986483,-39.21723,-26.86688,-4.585039
9.362187386,-3.782336,4.201633,-2.614666,0.9495915,-0.1153878,0.2904936,-39.22332,-26.54467,-4.200342
9.372074127,-3.720167,3.554366,-2.553574,0.93937,-0.1266322,0.2862105,-39.22332,-26.54467,-4.200342
9.381959915,-3.28499,3.318996,-2.736848,0.9451582,-0.1333818,0.2915413,-39.22332,-26.54467,-4.200342
9.39184618,-3.160654,3.318996,-2.981214,0.9383251,-0.141589,0.2954224,-39.22332,-26.54467,-4.200342
9.401732445,-3.409327,3.495524,-3.103397,0.9310328,-0.1479696,0.2911181,-39.22332,-26.54467,-4.200342
9.41161871,-3.160654,2.789414,-2.981214,0.9247313,-0.1465179,0.2896608,-39.57973,-26.87687,-5.436706
9.421504974,-3.160654,2.377517,-2.675757,0.9306117,-0.1314556,0.2881486,-39.57973,-26.87687,-5.436706
9.433862209,-4.155344,1.436037,-2.125934,0.9402949,-0.1328134,0.2963421,-39.57973,-26.87687,-5.436706
9.443748951,-6.144726,0.4357146,-1.148472,0.9417455,-0.1243224,0.3107285,-39.57973,-26.87687,-5.436706
9.453635216,-7.947602,0.612242,-0.4153753,0.9621112,-0.1197573,0.3256372,-39.57973,-26.87687,-5.436706
9.463521481,-8.817957,2.377517,0.3788128,0.9756879,-0.1301466,0.3165676,-38.8483,-27.62137,-4.176734
9.473407745,-8.444947,3.495524,1.173001,0.9742242,-0.1400481,0.3055548,-38.8483,-27.62137,-4.176734
9.48329401,-7.636762,4.672373,1.661732,0.9630302,-0.1547639,0.2969598,-38.8483,-27.62137,-4.176734
9.493180275,-6.517735,5.378483,1.295184,0.9527943,-0.1614388,0.3051576,-38.8483,-27.62137,-4.176734
9.503066063,-5.64738,6.26112,0.9897268,0.9411018,-0.1755732,0.3028111,-38.8483,-27.62137,-4.176734
9.512952805,-4.404017,5.966908,0.8064526,0.9299214,-0.1844024,0.297072,-38.83191,-26.56571,-5.034849
9.522838593,-3.657999,5.319641,1.11191,0.9212589,-0.1753993,0.2792225,-38.83191,-26.56571,-5.034849
9.532725334,-2.787645,4.848901,1.478458,0.9164334,-0.1686012,0.277259,-38.83191,-26.56571,-5.034849
9.542611122,-2.414636,4.083949,2.02828,0.9310374,-0.1509848,0.2848813,-38.83191,-26.56571,-5.034849
9.552497387,-3.28499,3.377839,2.761377,0.9369183,-0.1334375,0.286723,-38.83191,-26.56571,-5.034849
9.562383652,-4.714858,3.260154,3.433383,0.9495363,-0.1329539,0.2881777,-38.81983,-27.27314,-5.803358
9.572269916,-5.150035,2.377517,4.838485,0.9587477,-0.1353925,0.2891623,-38.81983,-27.27314,-5.803358
9.582156181,-6.766407,2.142147,6.243587,0.9693114,-0.1496192,0.3161778,-38.81983,-27.27314,-5.803358
9.592042446,-8.569283,2.965941,7.404323,0.9673081,-0.1576849,0.330163,-38.81983,-27.27314,-5.803358
9.601928234,-9.128798,4.142791,8.076328,0.9735668,-0.1747909,0.3268901,-38.81983,-27.27314,-5.803358
9.611814976,-7.947602,5.672696,8.503968,0.9881096,-0.1871444,0.3168697,-38.82582,-26.88792,-5.419545
9.621700764,-5.398708,6.849545,9.42034,0.9876066,-0.1999694,0.3058728,-38.82582,-26.88792,-5.419545
9.631587505,-4.404017,8.026395,9.847979,0.9666891,-0.2135699,0.3054368,-38.82582,-26.88792,-5.419545
9.641473293,-4.466185,8.61482,10.03125,0.9472424,-0.2202984,0.3088152,-38.82582,-26.88792,-5.419545
9.653831482,-4.404017,8.438292,10.88653,0.9429075,-0.2150269,0.3025316,-38.82582,-26.88792,-5.419545
9.66371727,-3.595831,7.791025,11.68072,0.9371146,-0.2092439,0.2976866,-38.81857,-26.58003,-5.813083
9.673604011,-2.2903,7.614497,12.78037,0.9308082,-0.2082576,0.2976744,-38.81857,-26.58003,-5.813083
9.683489799,-1.482114,7.67334,13.81892,0.9371366,-0.2019181,0.2990923,-38.81857,-26.58003,-5.813083
9.693376064,-0.9226002,7.320285,14.06328,0.9488106,-0.2011039,0.289964,-38.81857,-26.58003,-5.813083
9.703262329,-0.6739275,7.320285,14.73529,0.9434478,-0.2059197,0.2928677,-38.81857,-26.58003,-5.813083
9.713148594,0.1964268,7.732182,15.4073,0.9346989,-0.2023427,0.3029391,-38.80875,-25.45421,-6.282965
9.723034859,1.501958,8.085238,16.44585,0.9506755,-0.2070929,0.3130806,-38.80875,-25.45421,-6.282965
9.732921123,2.683153,9.379772,17.60658,0.9429322,-0.2052304,0.3063295,-38.80875,-25.45421,-6.282965
9.742807388,3.740012,9.438614,18.09532,0.9341504,-0.220853,0.3025511,-38.80875,-25.45421,-6.282965
9.752693653,3.926517,9.085559,18.9506,0.9244255,-0.2271929,0.3006484,-38.80875,-25.45421,-6.282965
9.762579441,3.615676,8.909032,20.17242,0.9059711,-0.2310736,0.2992042,-38.80208,-25.46137,-6.672081
9.772466183,4.050853,8.909032,21.63862,0.885067,-0.2502318,0.2853306,-38.80208,-25.46137,-6.672081
9.782351971,6.16457,7.43797,22.4939,0.8773202,-0.2493433,0.2785844,-38.80208,-25.46137,-6.672081
9.792238712,9.708156,6.73186,23.41027,0.9045299,-0.235146,0.2872002,-38.80208,-25.46137,-6.672081
9.8021245,12.13271,6.908388,24.08227,0.9243751,-0.2363298,0.3083892,-38.80208,-25.46137,-6.672081
9.812010765,12.87873,7.143758,24.99864,0.9326789,-0.2212507,0.3083225,-39.54864,-25.07941,-7.083663
9.82189703,12.38139,6.73186,25.60956,0.9457653,-0.2226512,0.3141155,-39.54864,-25.07941,-7.083663
9.831783295,10.95152,6.614175,27.01466,0.9355617,-0.222065,0.3193911,-39.54864,-25.07941,-7.083663
9.841670036,9.956828,6.849545,28.66413,0.9369804,-0.2317852,0.3208846,-39.54864,-25.07941,-7.083663
9.851555824,9.148643,6.96723,31.29106,0.9408504,-0.2312125,0.327138,-39.54864,-25.07941,-7.083663
9.863913536,6.288907,6.49649,34.71217,0.9412954,-0.2150342,0.3669732,-39.91589,-24.01107,-7.561239
9.873799801,2.185808,6.437648,35.44527,0.9413289,-0.1943451,0.3827391,-39.91589,-24.01107,-7.561239
9.883686066,0.2585949,6.025751,35.44527,0.9481007,-0.2091396,0.3712795,-39.91589,-24.01107,-7.561239
9.89357233,1.066781,6.202278,35.934,0.9393567,-0.2309722,0.3430055,-39.91589,-24.01107,-7.561239
9.903458118,4.175189,6.96723,35.68964,0.9184823,-0.2542994,0.3108779,-39.91589,-24.01107,-7.561239
9.91334486,6.599748,7.320285,35.87291,0.8966465,-0.2662378,0.2911957,-40.9819,-22.86124,-7.601461
9.923230648,5.294216,5.555011,35.38418,0.8859029,-0.2886954,0.2860068,-40.9819,-22.86124,-7.601461
9.93311739,2.12364,5.378483,36.54492,0.8573078,-0.2704923,0.2945389,-40.9819,-22.86124,-7.601461
9.943003178,-0.05224587,4.025106,36.85037,0.8242381,-0.2745003,0.3152012,-40.9819,-22.86124,-7.601461
9.952889919,-0.4252549,0.4945571,37.46129,0.8377547,-0.2780416,0.3407232,-40.9819,-22.86124,-7.601461
9.962775707,0.3829313,-1.388402,38.37766,0.8921112,-0.2616914,0.3666722,-41.34957,-21.41364,-8.019491
9.972661972,0.7559403,-0.1527103,39.29403,0.9134903,-0.2713308,0.343661,-41.34957,-21.41364,-8.019491
9.982548714,2.061472,-0.2115527,39.66058,0.8944679,-0.2935995,0.3500038,-41.34957,-21.41364,-8.019491
9.992434502,4.672534,-1.270717,40.45477,0.9021605,-0.3080794,0.3597042,-41.34957,-21.41364,-8.019491
10.002321243,7.034925,-0.9176625,40.14931,0.9278075,-0.3285389,0.3627223,-41.34957,-21.41364,-8.019491
10.012207031,9.583819,-0.03502529,40.02713,0.9529776,-0.3455671,0.3671652,-40.97056,-20.28499,-8.026823
10.022092819,10.95152,2.259832,40.51586,0.9646705,-0.3453693,0.3493834,-40.97056,-20.28499,-8.026823
10.031979561,11.32453,2.965941,38.86639,0.919593,-0.3446802,0.3243208,-40.97056,-20.28499,-8.026823
10.041865349,10.82718,3.260154,38.13329,0.8559957,-0.3633821,0.3027015,-40.97056,-20.28499,-8.026823
10.05175209,10.14333,1.200667,39.17185,0.8418936,-0.3756287,0.2960145,-40.97056,-20.28499,-8.026823
10.061637878,8.340456,0.6710845,40.82132,0.8240793,-0.3456542,0.2790105,-42.11259,-18.42562,-7.235112
10.07152462,6.413243,-1.211875,41.00459,0.8077294,-0.3003067,0.2806865,-42.11259,-18.42562,-7.235112
10.083881855,1.253286,-4.977794,41.55441,0.8054116,-0.2447592,0.3150295,-42.11259,-18.42562,-7.235112
10.093768597,-4.279681,-8.449501,40.8824,0.8024417,-0.221498,0.3721381,-42.11259,-18.42562,-7.235112
10.103654385,-5.585212,-14.33375,39.66058,0.8469343,-0.2280275,0.4299323,-42.47305,-17.30143,-8.102691
10.113541126,-3.657999,-17.33472,39.53839,0.9259837,-0.2551313,0.4190979,-42.47305,-17.30143,-8.102691
10.123426914,0.6316039,-16.92282,38.62202,0.9463022,-0.3050077,0.3756092,-42.47305,-17.30143,-8.102691
10.133313179,5.915898,-14.74565,37.76675,0.9306394,-0.3623741,0.347507,-42.47305,-17.30143,-8.102691
10.143199921,9.335147,-12.03889,37.4002,0.9154543,-0.4296458,0.3083941,-42.47305,-17.30143,-8.102691
10.153085709,9.583819,-10.03825,37.76675,0.8940722,-0.4473566,0.2935508,-42.49223,-16.20758,-6.885515
10.16297245,7.967447,-9.390981,36.72819,0.8474495,-0.4505797,0.299766,-42.49223,-16.20758,-6.885515
10.172858238,6.351075,-9.802878,36.97256,0.8091678,-0.443437,0.283816,-42.49223,-16.20758,-6.885515
10.18274498,6.288907,-10.27362,37.09474,0.7816352,-0.427308,0.2514815,-42.49223,-16.20758,-6.885515
10.192630768,6.786252,-10.45015,36.97256,0.7633223,-0.3917748,0.2479147,-42.49223,-16.20758,-6.885515
10.202516556,6.413243,-10.8032,35.44527,0.7809637,-0.3371346,0.2567961,-43.57007,-13.59301,-6.102983
10.212403297,5.045544,-13.39227,34.89545,0.8000687,-0.2850327,0.2589591,-43.57007,-13.59301,-6.102983
10.222289562,1.688463,-14.92217,32.63507,0.8277242,-0.2651133,0.2920735,-43.57007,-13.59301,-6.102983
10.232175827,-1.171273,-17.57009,30.86342,0.8708819,-0.2554864,0.3228528,-43.57007,-13.59301,-6.102983
10.242062092,-3.720167,-18.51157,29.94705,0.901406,-0.2756051,0.3167372,-43.57007,-13.59301,-6.102983
10.25194788,-5.896053,-18.15851,29.39722,0.8964684,-0.3024352,0.3130198,-43.57606,-13.20779,-5.71917
10.261834621,-6.579903,-18.45272,28.66413,0.8440016,-0.3547893,0.256957,-43.57606,-13.20779,-5.71917
10.271720409,-6.393398,-17.51124,28.05321,0.8603122,-0.3954091,0.2783413,-43.57606,-13.20779,-5.71917
10.281607151,-4.839194,-16.98166,27.80885,0.8330917,-0.4254619,0.2515307,-43.57606,-13.20779,-5.71917
10.291492939,-2.103795,-18.80578,27.07575,0.8097439,-0.4340586,0.2597232,-43.57606,-13.20779,-5.71917
10.303851128,0.5694358,-21.336,26.15938,0.8145066,-0.4529009,0.2704041,-44.33323,-11.29928,-5.373733
10.313736916,1.377622,-22.80707,25.60956,0.7975216,-0.4429342,0.2833193,-44.33323,-11.29928,-5.373733
10.323623657,1.626294,-24.1016,23.53245,0.8063024,-0.4302909,0.2832654,-44.33323,-11.29928,-5.373733
10.333509445,4.237358,-25.92572,22.79935,0.8267881,-0.3911525,0.2979995,-44.33323,-11.29928,-5.373733
10.343396187,3.740012,-26.21993,19.56151,0.8340959,-0.3669541,0.3214506,-44.33323,-11.29928,-5.373733
10.353281975,2.496649,-26.8672,17.54549,0.8278783,-0.3356763,0.3280184,-44.34643,-10.59066,-4.54037
10.36316824,0.07209045,-28.16173,15.89603,0.8176814,-0.3371242,0.3275332,-44.34643,-10.59066,-4.54037
10.373054504,-1.917291,-30.69196,14.97966,0.8244108,-0.3561286,0.3276369,-44.34643,-10.59066,-4.54037
10.382940769,-2.228132,-33.57524,14.91856,0.841403,-0.3741021,0.3003345,-44.34643,-10.59066,-4.54037
10.392827034,-1.233441,-35.63473,15.10184,0.8384731,-0.3948862,0.2778329,-44.34643,-10.59066,-4.54037
10.402713299,0.009922287,-35.69357,14.42983,0.8369028,-0.4364608,0.2655373,-45.11806,-8.666639,-3.351846
10.412599564,0.3207631,-36.63505,14.79638,0.8300315,-0.4613464,0.2613269,-45.11806,-8.666639,-3.351846
10.422485828,0.6316039,-36.34084,14.24656,0.8178754,-0.4572039,0.2762007,-45.11806,-8.666639,-3.351846
10.432371616,1.688463,-35.98778,12.96364,0.7980139,-0.4459648,0.2761213,-45.11806,-8.666639,-3.351846
10.442258358,3.864348,-37.51768,10.94762,0.8198541,-0.4445039,0.2790243,-45.11806,-8.666639,-3.351846
10.452144146,4.548198,-37.8119,9.298157,0.856311,-0.434465,0.2713203,-44.39304,-8.646666,-1.648514
10.462030888,2.247976,-35.98778,6.793409,0.8646629,-0.4286472,0.2381169,-44.39304,-8.646666,-1.648514
10.471916676,0.07209045,-34.75209,3.799931,0.868071,-0.435687,0.2237287,-44.39304,-8.646666,-1.648514
10.481803417,-0.7360957,-34.10482,0.867544,0.8796799,-0.4429207,0.2300304,-44.39304,-8.646666,-1.648514
10.491689205,-2.352468,-31.51575,-0.7819237,0.9005014,-0.4545911,0.2339604,-44.39304,-8.646666,-1.648514
10.50157547,-4.777026,-27.63215,-2.309208,0.8908531,-0.4405152,0.2295501,-44.80556,-8.602953,0.4181962
10.511461735,-6.952912,-24.69003,-4.508498,0.880717,-0.4328909,0.216996,-44.80556,-8.602953,0.4181962
10.523819924,-7.69893,-24.1016,-8.479439,0.8560095,-0.4187061,0.2178581,-44.80556,-8.602953,0.4181962
10.533705711,-7.450257,-24.27813,-10.25109,0.8439435,-0.404683,0.2095979,-44.80556,-8.602953,0.4181962
10.543591976,-7.077248,-25.33729,-12.87802,0.8367381,-0.389717,0.1998957,-44.80556,-8.602953,0.4181962
10.553478241,-6.082557,-28.63247,-16.6046,0.8493961,-0.3934671,0.1787685,-44.81833,-8.273584,1.19201
10.563364506,-7.201584,-29.10321,-16.6046,0.8726466,-0.4011748,0.1874904,-44.81833,-8.273584,1.19201
10.57325077,-8.817957,-30.80964,-18.74279,0.8950351,-0.3956344,0.1701747,-44.81833,-8.273584,1.19201
10.583137035,-11.42902,-30.22122,-21.18645,0.9153339,-0.412044,0.1827847,-44.81833,-8.273584,1.19201
10.593023777,-13.97791,-27.33794,-22.40828,0.9260109,-0.4090714,0.187591,-44.81833,-8.273584,1.19201
10.602909565,-15.40778,-23.92507,-24.42429,0.938094,-0.4261889,0.1843248,-45.22308,-8.238225,2.80475
10.612795353,-16.3403,-20.62989,-25.64612,0.9312825,-0.4315463,0.1833823,-45.22308,-8.238225,2.80475
10.622682094,-16.77548,-17.57009,-27.11231,0.9316636,-0.4468131,0.2046204,-45.22308,-8.238225,2.80475
10.632567882,-16.77548,-14.27491,-28.08978,0.9262733,-0.463896,0.2013341,-45.22308,-8.238225,2.80475
10.642454624,-15.15911,-11.68584,-28.70069,0.9170912,-0.4566671,0.1950352,-45.22308,-8.238225,2.80475
10.652340412,-12.61021,-10.15593,-29.67815,0.9209618,-0.4575911,0.1988916,-44.86319,-9.677465,3.676749
10.662227154,-10.37216,-7.684549,-30.7778,0.9214807,-0.436903,0.2146581,-44.86319,-9.677465,3.676749
10.672113419,-7.512425,-6.036959,-31.63308,0.9253817,-0.4320484,0.2141571,-44.86319,-9.677465,3.676749
10.681999206,-6.704239,-4.507054,-32.54945,0.93276,-0.4092914,0.2063557,-44.86319,-9.677465,3.676749
10.691885948,-7.636762,-2.447567,-34.26001,0.9323229,-0.3886948,0.2158696,-44.86319,-9.677465,3.676749
10.701771736,-9.004461,-1.859142,-35.7262,0.9159062,-0.3742767,0.2008695,-44.12633,-11.12223,4.557327
10.711658478,-9.190966,-1.976827,-37.19239,0.9188281,-0.369864,0.2032551,-44.12633,-11.12223,4.557327
10.721544266,-7.574594,-2.388725,-37.1313,0.9260804,-0.3756714,0.2066592,-44.12633,-11.12223,4.557327
10.733902454,-4.528353,-1.917985,-36.76476,0.9372758,-0.3729084,0.1975204,-44.12633,-11.12223,4.557327
10.743788242,-2.476804,-0.1527103,-37.07021,0.9474775,-0.3804485,0.1831425,-44.12633,-11.12223,4.557327
10.753674984,-1.109105,1.847934,-37.07021,0.9464825,-0.3887535,0.1812596,-43.75142,-12.26194,4.58182
10.763560772,-0.7982638,5.260798,-37.25349,0.94835,-0.4027205,0.1919126,-43.75142,-12.26194,4.58182
10.773447514,-1.419945,7.143758,-37.1313,0.9715739,-0.4197162,0.1982769,-43.75142,-12.26194,4.58182
10.783333301,-4.714858,9.497457,-35.90948,0.9973033,-0.3983969,0.2270536,-43.75142,-12.26194,4.58182
10.793219089,-9.066629,12.55727,-36.58148,0.9571143,-0.3586229,0.2436392,-43.75142,-12.26194,4.58182
10.803105831,-12.42371,13.26338,-38.10876,0.9130441,-0.3407487,0.2281093,-43.74625,-13.71952,4.148182
10.812992096,-13.60491,11.4981,-38.84186,0.9246864,-0.343715,0.2266948,-43.74625,-13.71952,4.148182
10.822878361,-13.4184,9.144402,-37.37567,0.9810389,-0.3247274,0.2338767,-43.74625,-13.71952,4.148182
10.832764626,-14.72393,11.20389,-36.88694,0.9845555,-0.3075708,0.209267,-43.74625,-13.71952,4.148182
10.84265089,-14.72393,13.32222,-37.25349,0.9734964,-0.3022375,0.1736393,-43.74625,-13.71952,4.148182
10.852537155,-12.85889,15.26402,-37.74222,0.9618658,-0.3092979,0.1558677,-43.743,-15.61697,3.785585
10.862422943,-11.92636,16.85277,-37.92549,0.9525813,-0.3178433,0.1693661,-43.743,-15.61697,3.785585
10.872309685,-11.42902,18.1473,-37.68113,0.9467944,-0.3170737,0.154928,-43.743,-15.61697,3.785585
10.882195473,-11.55336,18.02962,-37.8644,0.9584371,-0.3319856,0.1362607,-43.743,-15.61697,3.785585
10.892082214,-12.85889,18.32383,-36.27602,0.9690932,-0.3333597,0.1434936,-43.743,-15.61697,3.785585
10.901968002,-14.7861,18.20614,-35.23747,0.9758503,-0.3336299,0.1588921,-44.48441,-16.6926,2.940366
10.911854744,-17.83234,18.9711,-34.50437,0.9714721,-0.3290805,0.1694444,-44.48441,-16.6926,2.940366
10.921740532,-21.37593,18.02962,-34.07673,0.9578343,-0.3282575,0.1901043,-44.48441,-16.6926,2.940366
10.931627274,-24.29783,16.73508,-33.34364,0.9481411,-0.3124042,0.2068454,-44.48441,-16.6926,2.940366
10.941513062,-25.41686,15.49939,-32.8549,0.951103,-0.2997854,0.2043804,-44.48441,-16.6926,2.940366
10.95387125,-24.5465,14.08717,-32.1829,0.9773871,-0.2933363,0.1832172,-43.40395,-17.85795,2.137502
10.963757038,-20.56774,14.20485,-30.89998,0.9783645,-0.3068167,0.1611641,-43.40395,-17.85795,2.137502
10.97364378,-17.335,13.79296,-29.73924,0.9763356,-0.3142228,0.186688,-43.40395,-17.85795,2.137502
10.983529568,-14.47526,13.02801,-29.00615,0.9631659,-0.3267281,0.1953928,-43.40395,-17.85795,2.137502
10.993416309,-11.92636,12.79264,-27.78432,0.9529272,-0.3328872,0.2055116,-43.00362,-19.7194,0.6152502
11.003302097,-8.507115,12.55727,-27.05122,0.9567875,-0.3491727,0.1916516,-43.00362,-19.7194,0.6152502
11.013188362,-4.528353,12.79264,-26.68468,0.9586489,-0.3755435,0.1869778,-43.00362,-19.7194,0.6152502
11.023075104,0.1342586,12.96916,-25.46285,0.9668627,-0.3917442,0.1793742,-43.00362,-19.7194,0.6152502
11.032960892,5.480721,12.73379,-24.85193,0.9692558,-0.4024834,0.1779885,-43.00362,-19.7194,0.6152502
11.042847633,10.019,13.26338,-23.6912,0.9740936,-0.3994059,0.1890396,-42.23662,-20.50208,-0.2000682
11.052733421,12.63006,13.67527,-23.26356,0.9828619,-0.3886744,0.1913999,-42.23662,-20.50208,-0.2000682
11.062620163,13.74909,15.73476,-22.10282,0.9964535,-0.3732823,0.212979,-42.23662,-20.50208,-0.2000682
11.072505951,16.11148,17.55888,-21.61409,0.9998269,-0.3631833,0.2374588,-42.23662,-20.50208,-0.2000682
11.082391739,19.15772,19.55952,-21.30863,1.00378,-0.342732,0.2378409,-42.23662,-20.50208,-0.2000682
11.092278481,22.76347,21.97206,-21.00318,1.025694,-0.3163577,0.2459082,-41.86159,-21.57878,-0.1764603
11.102164269,27.05307,24.20808,-19.96462,1.028331,-0.2798724,0.2111005,-41.86159,-21.57878,-0.1764603
11.11205101,28.91812,25.50261,-19.72026,1.016822,-0.2334599,0.2195095,-41.86159,-21.57878,-0.1764603
11.121937275,26.86657,26.79715,-20.02571,0.9863696,-0.2018487,0.2125822,-41.86159,-21.57878,-0.1764603
11.13182354,21.89312,26.7383,-20.63663,0.9359703,-0.1868262,0.2009069,-41.86159,-21.57878,-0.1764603
11.141709805,15.42763,23.79618,-21.00318,0.9102329,-0.1876917,0.2047293,-41.47932,-22.34758,-0.5463891
11.151595593,8.52696,20.73637,-20.02571,0.9238039,-0.1846099,0.2172332,-41.47932,-22.34758,-0.5463891
11.161482334,1.750631,18.1473,-17.94861,0.9452625,-0.1529502,0.220464,-41.47932,-22.34758,-0.5463891
11.173840046,-6.33123,17.26466,-16.36023,0.972487,-0.1264067,0.2405595,-41.47932,-22.34758,-0.5463891
11.183726311,-11.55336,20.61869,-14.71076,0.9884827,-0.1243108,0.2525901,-41.47932,-22.34758,-0.5463891
11.193612576,-15.28345,24.09039,-13.30566,0.9917719,-0.1505048,0.2599401,-41.15279,-23.50188,-1.366414
11.20349884,-17.08632,26.62062,-12.14492,0.9931034,-0.1860476,0.2606021,-41.15279,-23.50188,-1.366414
11.213384628,-17.5215,28.97432,-11.16746,0.9740023,-0.2326995,0.2646635,-41.15279,-23.50188,-1.366414
11.22327137,-17.08632,29.38622,-10.37327,0.9583336,-0.2636537,0.2768252,-41.15279,-23.50188,-1.366414
11.233157158,-15.15911,29.44506,-9.334719,0.9650301,-0.2904132,0.2793726,-41.15279,-23.50188,-1.366414
11.2430439,-11.73986,28.32705,-8.54053,0.964008,-0.3055138,0.2789668,-40.37843,-23.91366,-2.576153
11.252929688,-7.69893,27.5621,-7.868525,0.9775651,-0.3078172,0.2895741,-40.37843,-23.91366,-2.576153
11.262816429,-4.777026,28.09168,-6.952154,0.9761633,-0.3001958,0.2779919,-40.37843,-23.91366,-2.576153
11.272702217,-2.103795,28.44474,-5.669235,0.9664834,-0.2948777,0.2741067,-40.37843,-23.91366,-2.576153
11.282588959,1.066781,28.50358,-4.14195,0.9660332,-0.2861405,0.2721383,-40.37843,-23.91366,-2.576153
11.292474747,4.113021,27.09136,-4.203042,0.9961218,-0.2841802,0.2769718,-40.35011,-24.25974,-4.257906
11.302361012,3.740012,28.32705,-2.125934,0.9924374,-0.2306875,0.2714072,-40.35011,-24.25974,-4.257906
11.312247276,0.6316039,29.85696,-0.2321011,0.9673846,-0.1795658,0.267273,-40.35011,-24.25974,-4.257906
11.322133541,-2.165963,30.97497,2.089372,0.9489295,-0.1799587,0.2711014,-40.35011,-24.25974,-4.257906
11.332020283,-4.404017,30.44538,3.250108,0.9362867,-0.1912342,0.2644111,-40.35011,-24.25974,-4.257906
11.341906071,-5.709548,29.85696,5.327216,0.9294758,-0.2000793,0.2581961,-40.32842,-23.96736,-5.49453
11.351792812,-6.704239,29.26853,6.976684,0.939612,-0.2057127,0.2736255,-40.32842,-23.96736,-5.49453
11.3616786,-8.071939,29.9158,8.748334,0.9318171,-0.2099936,0.2794093,-40.32842,-23.96736,-5.49453
11.371564388,-9.936983,29.68043,10.15344,0.9210238,-0.2256678,0.3044842,-40.32842,-23.96736,-5.49453
11.38145113,-11.36685,29.38622,11.19199,0.921434,-0.2436066,0.3098654,-40.32842,-23.96736,-5.49453
11.393809319,-10.06132,29.15085,13.51346,0.9213228,-0.2692782,0.3191325,-39.93034,-23.99556,-6.718153
11.403695107,-6.890744,28.97432,14.97966,0.9194302,-0.2675927,0.3013278,-39.93034,-23.99556,-6.718153
11.413581848,-3.098486,28.97432,16.38476,0.9252366,-0.2744574,0.2989644,-39.93034,-23.99556,-6.718153
11.423467636,-0.6739275,28.62126,17.36222,0.9184321,-0.2838398,0.2893857,-39.93034,-23.99556,-6.718153
11.433353424,0.5694358,28.38589,18.52296,0.9077521,-0.2853011,0.2879382,-39.93034,-23.99556,-6.718153
11.443240166,0.6316039,28.50358,20.11133,0.8936975,-0.2754553,0.2931626,-40.29217,-23.62749,-7.575124
11.453125954,-0.4252549,28.38589,22.55499,0.8946931,-0.2696426,0.2912107,-40.29217,-23.62749,-7.575124
11.463012695,-0.860432,22.97239,20.96661,0.9396373,-0.3043245,0.3226969,-40.29217,-23.62749,-7.575124
11.47289896,-2.476804,24.56113,25.05973,0.9015039,-0.2568156,0.3031766,-40.29217,-23.62749,-7.575124
11.482785225,-3.28499,23.50197,27.07575,0.9025248,-0.2387214,0.3083765,-40.29217,-23.62749,-7.575124
11.49267149,-4.341849,23.14891,28.23649,0.8995305,-0.2401887,0.3401213,-40.26233,-22.52315,-9.212357
11.502557755,-4.963531,23.14891,29.94705,0.892208,-0.2488675,0.344966,-40.26233,-22.52315,-9.212357
11.512444019,-4.155344,21.61901,30.9856,0.8872923,-0.2663808,0.3455298,-40.26233,-22.52315,-9.212357
11.522329807,-2.352468,20.9129,32.63507,0.9022706,-0.2814052,0.3523557,-40.26233,-22.52315,-9.212357
11.532216549,-1.109105,21.61901,34.46781,0.9362407,-0.2849169,0.3500074,-40.26233,-22.52315,-9.212357
11.542102337,-1.979459,21.44248,35.38418,0.9153323,-0.2955885,0.3500376,-40.62291,-21.46196,-10.07905
11.551989078,-2.165963,20.85406,36.60601,0.8817191,-0.3330676,0.3468224,-40.62291,-21.46196,-10.07905
11.561874866,-4.528353,20.73637,38.43875,0.8617818,-0.3372742,0.3559584,-40.62291,-21.46196,-10.07905
11.571761608,-2.663309,19.79489,39.96603,0.8597451,-0.3670244,0.35274,-40.62291,-21.46196,-10.07905
11.581647396,0.9424447,19.55952,40.45477,0.8645508,-0.3607591,0.3815691,-40.62291,-21.46196,-10.07905
11.591534138,4.548198,17.85309,41.98205,0.8553967,-0.3512177,0.3670828,-41.30486,-20.70407,-10.55936
11.603891373,7.221429,18.5592,41.85987,0.8757667,-0.3725563,0.3431678,-41.30486,-20.70407,-10.55936
11.613778114,9.086474,17.55888,41.85987,0.8549529,-0.3674031,0.3267668,-41.30486,-20.70407,-10.55936
11.623663902,9.956828,15.44055,42.3486,0.8477257,-0.335879,0.3496834,-41.30486,-20.70407,-10.55936
11.633550644,7.221429,14.55791,42.10423,0.8200884,-0.3190883,0.3615901,-41.30486,-20.70407,-10.55936
11.643436432,4.610366,12.26305,41.85987,0.8200197,-0.3221374,0.3856516,-40.96687,-19.21911,-11.80563
11.653323173,2.372312,12.3219,42.95951,0.8082603,-0.356251,0.3824441,-40.96687,-19.21911,-11.80563
11.663208961,2.993994,12.14537,44.54789,0.8291365,-0.3568223,0.3795852,-40.96687,-19.21911,-11.80563
11.673095226,4.113021,11.79231,46.5639,0.8185338,-0.3343873,0.3804216,-40.96687,-19.21911,-11.80563
11.682981968,4.48603,11.4981,45.46426,0.7604765,-0.3016201,0.3494111,-40.96687,-19.21911,-11.80563
11.692867756,4.548198,7.084915,43.7537,0.7895108,-0.3006225,0.3874318,-41.27771,-17.38721,-11.83841
11.702754497,4.610366,3.083626,43.20388,0.8025336,-0.3190373,0.3952344,-41.27771,-17.38721,-11.83841
11.712640285,5.294216,0.612242,42.65406,0.8297257,-0.3276208,0.3784765,-41.27771,-17.38721,-11.83841
11.722527027,6.288907,-3.389047,41.55441,0.8034208,-0.3423983,0.3963153,-41.27771,-17.38721,-11.83841
11.732412815,7.034925,-5.919274,41.43223,0.7956835,-0.349531,0.3742202,-41.27771,-17.38721,-11.83841
11.742299557,8.775634,-9.62635,42.89842,0.8033833,-0.361569,0.3843891,-41.26967,-16.63826,-12.23814
11.752185345,8.278288,-10.68552,42.22642,0.8135576,-0.369932,0.3801147,-41.26967,-16.63826,-12.23814
11.762072086,8.153952,-12.86269,42.10423,0.8228141,-0.3577262,0.38343,-41.26967,-16.63826,-12.23814
11.771957874,5.791562,-14.15722,43.20388,0.8335267,-0.3425368,0.3910601,-41.26967,-16.63826,-12.23814
11.781844139,3.11833,-15.45176,42.77624,0.8281478,-0.3492429,0.3978208,-41.26967,-16.63826,-12.23814
11.791730404,3.491339,-15.0987,41.37114,0.7990232,-0.3725609,0.3652029,-42.03474,-14.7844,-11.43785
11.801616669,6.16457,-16.45208,39.84385,0.7849106,-0.3837472,0.3642815,-42.03474,-14.7844,-11.43785
11.811502933,9.024306,-17.33472,39.04966,0.7814565,-0.3943311,0.3725067,-42.03474,-14.7844,-11.43785
11.823861122,11.26236,-18.21735,37.82784,0.764455,-0.4031704,0.3653183,-42.03474,-14.7844,-11.43785
11.83374691,11.13802,-20.39453,37.70565,0.7964733,-0.4036272,0.371609,-42.03474,-14.7844,-11.43785
11.843633175,9.148643,-21.15948,36.78928,0.7689605,-0.3483102,0.3871685,-42.42284,-12.93608,-10.62898
11.85351944,7.345766,-22.68938,34.34563,0.7335403,-0.3423465,0.3904646,-42.42284,-12.93608,-10.62898
11.863405704,5.915898,-25.27845,32.08525,0.7219139,-0.3374899,0.3880222,-42.42284,-12.93608,-10.62898
11.873291969,7.53227,-28.51479,30.80233,0.7418193,-0.3504992,0.367431,-42.42284,-12.93608,-10.62898
11.883178234,10.32984,-31.51575,30.13032,0.7927751,-0.3644789,0.3512082,-42.42284,-12.93608,-10.62898
11.893064976,12.07055,-31.75112,30.43578,0.8068665,-0.3690834,0.3382626,-42.79665,-11.79757,-10.71832
11.902950764,11.07586,-32.39839,30.19141,0.8087249,-0.3849839,0.3498872,-42.79665,-11.79757,-10.71832
