Time (s),Gyroscope X (deg/s),Gyroscope Y (deg/s),Gyroscope Z (deg/s),Accelerometer X (g),Accelerometer Y (g),Accelerometer Z (g),Magnetometer X (uT),Magnetometer Y (uT),Magnetometer Z (uT)
51.427162647,-0.1649757,-0.2073856,0.02078991,0.3360851,-0.1459445,0.9415848,-2.611795,-23.79508,-23.50075
51.434760571,-0.2269876,-0.2071347,-0.04026966,0.3341396,-0.1450182,0.9386864,-2.611795,-23.79508,-23.50075
51.444890499,-0.2889089,-0.148042,0.02078256,0.338502,-0.1444738,0.9415942,-2.611795,-23.79508,-23.50075
51.455020905,-0.2262615,0.146436,0.2039339,0.3428775,-0.1425654,0.9348539,-2.611795,-23.79508,-23.50075
51.465150833,-0.03937761,0.2641021,0.1427145,0.3399751,-0.1468557,0.944488,-2.611795,-23.79508,-23.50075
51.475281239,-0.03936724,0.2637519,0.1424202,0.3351316,-0.1483586,0.9430248,-2.245947,-24.14761,-22.73323
51.485411644,0.02286905,0.3223642,0.2032813,0.3356747,-0.1541705,0.9420485,-2.245947,-24.14761,-22.73323
51.495541573,0.0850467199999999,-0.2077738,0.3251635,0.3399915,-0.1473791,0.9401441,-2.245947,-24.14761,-22.73323
51.505671501,0.2716568,-0.2663824,0.1417309,0.341916,-0.1449531,0.9391892,-2.245947,-24.14761,-22.73323
51.515802384,0.1470396,0.02835526,0.08057044,0.3448102,-0.1415736,0.9358261,-2.245947,-24.14761,-22.73323
51.525932312,-0.1641576,0.2050577,-0.102574,0.339925,-0.1401247,0.9396769,-2.6154,-23.7889,-23.12165
51.536062718,-0.3505315,0.5580913,-0.163581,0.3374997,-0.1401612,0.9377404,-2.6154,-23.7889,-23.12165
51.546192646,-0.598956000000002,0.0863416299999999,-0.04129557,0.3365459,-0.1435124,0.9425563,-2.6154,-23.7889,-23.12165
51.556323052,-0.4115844,-0.03156133,-0.1022262,0.3375416,-0.145458,0.9406244,-2.6154,-23.7889,-23.12165
51.566453457,-0.2244678,-0.3259617,-0.04111534,0.3409704,-0.1473934,0.9377338,-2.6154,-23.7889,-23.12165
51.576583386,0.02458116,-0.2077578,0.0809203699999998,0.3346846,-0.1513053,0.9386743,-2.605043,-24.1576,-23.49492
51.586713314,0.5222797,-0.2663663,0.2028604,0.3317704,-0.152274,0.9410774,-2.605043,-24.1576,-23.49492
51.596844196,0.5216237,-0.1482373,0.2637222,0.3356113,-0.1473957,0.9420629,-2.605043,-24.1576,-23.49492
51.606974125,0.583155399999998,0.146389,0.202351,0.3404652,-0.1468651,0.9430417,-2.605043,-24.1576,-23.49492
51.617104053,0.3336754,0.2051856,0.2020201,0.3385505,-0.1497925,0.9420654,-2.6154,-23.7889,-23.12165
51.624701977,0.0845550000000003,-0.03055973,0.0797881600000001,0.3400027,-0.1478849,0.9377303,-2.6154,-23.7889,-23.12165
51.634831905,0.0843510600000001,0.02838516,0.07976466,0.335574,-0.1425828,0.9391779,-2.6154,-23.7889,-23.12165
51.644962788,0.02207778,-0.207073,0.0797411900000002,0.3394247,-0.138206,0.9382321,-2.6154,-23.7889,-23.12165
51.655092716,0.3951907,-0.3835695,0.01860109,0.3467014,-0.136693,0.9387367,-2.6154,-23.7889,-23.12165
51.665222645,0.5190095,-0.1476282,-0.04253896,0.3374965,-0.1396817,0.9372589,-2.6154,-23.7889,-23.12165
51.67535305,0.5183185,0.08820181,0.0794601899999998,0.3414501,-0.1464305,0.936772,-2.978558,-24.14286,-22.74019
51.685482979,0.2688418,0.3825866,0.07937956,0.3390334,-0.1469641,0.9333868,-2.978558,-24.14286,-22.74019
51.695613384,0.2062391,0.146739,-0.1038977,0.3380855,-0.1508036,0.937719,-2.978558,-24.14286,-22.74019
51.70574379,0.2059801,0.0876481700000001,0.01821694,0.340919,-0.140658,0.9334052,-2.978558,-24.14286,-22.74019
51.715873718,0.703255300000001,0.1463336,-0.1650985,0.335594,-0.1449936,0.9401379,-2.622152,-23.42638,-23.12749
51.7260046,0.577900599999998,0.2051303,0.07905789,0.3394724,-0.1439911,0.9406325,-2.622152,-23.42638,-23.12749
51.736134529,0.3904773,0.2049652,0.07895859,0.3395004,-0.1464282,0.9386972,-2.622152,-23.42638,-23.12749
51.746264458,-0.04549707,-0.0896398300000001,-0.04322056,0.3394287,-0.1382192,0.9367844,-2.622152,-23.42638,-23.12749
51.756394863,-0.04536176,0.2049128,-0.1041871,0.3384797,-0.1411171,0.9382235,-2.622152,-23.42638,-23.12749
51.766524792,-0.3562586,0.2636174,-0.2262129,0.3345932,-0.1397483,0.9324258,-2.249094,-23.79128,-23.11817
51.776655197,-0.1070442,0.4400983,0.1401194,0.3384627,-0.140123,0.9411208,-2.249094,-23.79128,-23.11817
51.786785603,-0.04462515,0.2041045,0.0178826,0.3360941,-0.1445673,0.9333844,-2.249094,-23.79128,-23.11817
51.796915531,0.0797069099999998,0.0270731,0.01772591,0.3394783,-0.1444794,0.9401489,-2.249094,-23.79128,-23.11817
51.80704546,-0.04484509,0.3802747,0.2617486,0.3380381,-0.1464264,0.9401411,-2.249094,-23.79128,-23.11817
51.817176342,-0.106917,0.3798525,0.3224406,0.3346082,-0.1435495,0.9401384,-2.612253,-24.14524,-22.73671
51.824773312,-0.2312291,0.1439796,0.2612503,0.3365584,-0.1440226,0.9396598,-2.612253,-24.14524,-22.73671
51.834904194,-0.2932037,0.1438173,0.0779364000000001,0.3375701,-0.1483659,0.9401357,-2.612253,-24.14524,-22.73671
51.845034122,-0.1063725,-0.2683944,-0.1663982,0.3375618,-0.1469317,0.9382086,-2.612253,-24.14524,-22.73671
51.855164051,0.01817389,-0.09135631,-0.04410915,0.3438982,-0.1478764,0.9353276,-2.612253,-24.14524,-22.73671
51.865294933,0.0803770399999998,0.02660847,0.01700541,0.3375165,-0.1420925,0.9382189,-2.242342,-24.1538,-23.11234
51.875424862,-0.2306973,0.2032206,-0.0439409,0.3409909,-0.150275,0.9401404,-2.242342,-24.1538,-23.11234
51.885555267,-0.2925749,0.2619458,-0.04384737,0.3341918,-0.1512872,0.9410858,-2.242342,-24.1538,-23.11234
51.895685196,-0.167736,0.0261388,-0.1658339,0.3322445,-0.1498856,0.9372234,-2.242342,-24.1538,-23.11234
51.905815124,0.2678804,-0.2684081,-0.0435265,0.3297545,-0.143143,0.9357838,-2.242342,-24.1538,-23.11234
51.915946007,0.4541436,-0.0916474300000002,0.0785506099999998,0.328313,-0.1450856,0.9362585,-2.6154,-23.7889,-23.12165
51.926075935,0.578025100000001,-0.0916063199999999,0.1394152,0.3346162,-0.1435758,0.9372431,-2.6154,-23.7889,-23.12165
51.936205864,0.5151708,-0.09162074,0.0783151799999998,0.3380184,-0.1454235,0.9440036,-2.6154,-23.7889,-23.12165
51.946336746,0.327885,-0.03259916,-0.04378647,0.3399335,-0.1406218,0.9382282,-2.6154,-23.7889,-23.12165
51.956466675,0.5140728,-0.0912797499999998,-0.2879681,0.3399226,-0.1415239,0.9454646,-2.6154,-23.7889,-23.12165
51.966596603,0.2646992,-0.0322956,-0.1046207,0.3389669,-0.1420548,0.9411179,-3.653265,-23.78217,-23.13151
51.976727009,-0.04658714,-0.1500866,-0.2265117,0.3419048,-0.1444473,0.941603,-3.653265,-23.78217,-23.13151
51.986856937,-0.357502,0.0857279899999998,-0.1041664,0.340447,-0.1425844,0.9348475,-3.653265,-23.78217,-23.13151
51.996986866,-0.605878700000002,-0.0319892,-0.1038822,0.3443484,-0.1454093,0.9401595,-3.653265,-23.78217,-23.13151
52.007117748,-0.6051958,0.1446225,-0.2257741,0.3418584,-0.1386666,0.93872,-3.653265,-23.78217,-23.13151
52.014715195,-0.5423605,0.3800753,-0.1645214,0.3404007,-0.1391487,0.9401628,-2.594687,-24.52631,-23.86819
52.0248456,-0.2306668,0.1440828,-0.1643723,0.3316995,-0.1435985,0.9372355,-2.594687,-24.52631,-23.86819
52.034975529,0.3915306,0.1437354,-0.04220092,0.3307193,-0.1435798,0.9401283,-2.594687,-24.52631,-23.86819
52.045105457,0.3910584,0.08448181,0.2630329,0.3317078,-0.1450328,0.9391627,-2.594687,-24.52631,-23.86819
52.05523634,0.639275600000002,-0.1512874,0.2626258,0.3316924,-0.1454509,0.9463999,-2.594687,-24.52631,-23.86819
52.065366268,0.3275383,-0.3867049,0.2623535,0.3297426,-0.1431035,0.9401268,-2.261475,-23.12665,-23.12887
52.075496674,0.07834037,-0.3272756,0.139944,0.3404404,-0.1425624,0.9372603,-2.261475,-23.12665,-23.12887
52.085627079,-0.481518,-0.3857341,0.2007698,0.3477714,-0.1492014,0.9459508,-2.261475,-23.12665,-23.12887
52.095757008,-0.4809132,-0.3264171,-0.1045672,0.3370992,-0.1488886,0.936273,-2.261475,-23.12665,-23.12887
52.105887413,-0.1693748,-0.1493245,-0.04354933,0.3399902,-0.1473747,0.9406266,-2.261475,-23.12665,-23.12887
52.116017342,0.0796831300000001,-0.1490629,0.0785853300000003,0.3428812,-0.1435157,0.936782,-2.249094,-23.79128,-23.11817
52.12614727,0.01735707,0.1455088,0.2006817,0.342845,-0.1396444,0.9367902,-2.249094,-23.79128,-23.11817
52.136278152,0.2661414,0.1452521,0.2004679,0.3370536,-0.1449866,0.9396591,-2.249094,-23.79128,-23.11817
52.146408081,0.3280525,0.0861076099999997,0.0781937399999999,0.3355644,-0.1411442,0.9377334,-2.249094,-23.79128,-23.11817
52.156538487,0.2654341,0.262682,0.1390972,0.3312164,-0.145019,0.9410916,-2.249094,-23.79128,-23.11817
52.166668892,0.01625557,-0.03195852,0.1388841,0.3365829,-0.1469173,0.9406188,-2.605043,-24.1576,-23.49492
52.176798821,-0.4191315,-0.2086379,0.0776696699999998,0.3375291,-0.1449478,0.9435208,-2.605043,-24.1576,-23.49492
52.186929226,-0.4184878,-0.5028344,0.01649377,0.338554,-0.1493349,0.9391711,-2.605043,-24.1576,-23.49492
52.197059155,-0.1690975,-0.620015899999999,0.01647304,0.3365901,-0.1497551,0.9478509,-2.605043,-24.1576,-23.49492
52.207189083,0.4530617,-0.4425361,0.138609,0.3337129,-0.1517836,0.9401184,-2.605043,-24.1576,-23.49492
52.214787006,0.639253999999998,-0.2654181,0.3826384,0.3370962,-0.149817,0.9406139,-2.242342,-24.1538,-23.11234
52.224917412,0.638509800000001,-0.0884761400000002,0.1381321,0.3351531,-0.1498366,0.9401263,-2.242342,-24.1538,-23.11234
52.235047817,-0.04654317,0.08828051,0.01578267,0.3390196,-0.1464495,0.9367657,-2.242342,-24.1538,-23.11234
52.245177746,-0.1087497,0.2059087,0.0157053,0.3424002,-0.1444741,0.9382263,-2.242342,-24.1538,-23.11234
52.255307674,-0.04628946,0.02905999,-0.1064711,0.341424,-0.1444686,0.9396715,-2.242342,-24.1538,-23.11234
52.265438557,0.0781424000000002,-0.2066581,0.01562755,0.3350371,-0.1386671,0.9444929,-2.6154,-23.7889,-23.12165
52.275568485,0.3267331,-0.2065465,0.01560792,0.3403868,-0.1362891,0.9353434,-2.6154,-23.7889,-23.12165
52.285698414,0.3883923,-0.3242296,0.0156267,0.3350879,-0.1425866,0.9391767,-2.6154,-23.7889,-23.12165
52.295828819,0.2012071,0.1471522,-0.1065688,0.3384555,-0.1396303,0.9420869,-2.6154,-23.7889,-23.12165
52.305959225,0.01431559,0.1470599,-0.1675517,0.3380511,-0.1474074,0.9386914,-2.6154,-23.7889,-23.12165
52.31608963,-0.2966758,0.0880242300000001,-0.1063779,0.3395044,-0.1464413,0.9372495,-2.231985,-24.5225,-23.48561
52.326219559,-0.4205792,0.1467277,-0.167246,0.3351563,-0.1503161,0.9406078,-2.231985,-24.5225,-23.48561
52.336349487,-0.42009,0.1465989,-0.1670743,0.3365329,-0.1425315,0.944006,-2.231985,-24.5225,-23.48561
52.34648037,-0.2329236,0.02880523,-0.2279811,0.3370288,-0.140684,0.9338776,-2.231985,-24.5225,-23.48561
52.356610298,-0.04607046,0.02880607,-0.0448049,0.3404292,-0.1420566,0.9396741,-2.245489,-23.79746,-23.49727
52.366740227,-0.04603213,-0.03019213,-0.1057886,0.3380442,-0.1459775,0.9362817,-2.245489,-23.79746,-23.49727
52.376870632,0.2028904,0.2053608,-0.1056941,0.3380096,-0.1411735,0.9324315,-2.245489,-23.79746,-23.49727
52.387001038,-0.1082988,0.2052324,-0.04457888,0.3340888,-0.1410987,0.9440027,-2.245489,-23.79746,-23.49727
52.397131443,0.1406238,0.2050671,0.01653628,0.3355854,-0.1444966,0.9415866,-2.245489,-23.79746,-23.49727
52.40472889,-0.0460888,0.1460044,-0.105636,0.3327051,-0.1483907,0.9415708,-2.245489,-23.79746,-23.49727
52.414858818,0.0784405300000001,0.02808197,0.0775016000000002,0.3307723,-0.1493824,0.9405985,-2.611795,-23.79508,-23.50075
52.424989224,-0.1082772,0.0870087,-0.04480994,0.330307,-0.1513306,0.939628,-2.611795,-23.79508,-23.50075
52.435119152,-0.04607163,-0.1485416,0.1993871,0.3409778,-0.149294,0.9415902,-2.611795,-23.79508,-23.50075
52.445250034,0.01609491,-0.2660201,0.07709506,0.3351398,-0.1474477,0.9367536,-2.611795,-23.79508,-23.50075
52.455379963,-0.2326728,-0.1479284,0.0770749299999998,0.3370347,-0.1435174,0.9415925,-2.605043,-24.1576,-23.49492
52.465509892,-0.2946846,-0.0889101300000002,-0.1060268,0.3380154,-0.1440068,0.9401462,-2.605043,-24.1576,-23.49492
52.475640774,-0.04560612,-0.02994744,-0.2889369,0.3306999,-0.1416398,0.940615,-2.605043,-24.1576,-23.49492
52.485770702,0.0788444600000001,-0.02979882,-0.3496331,0.3350402,-0.1391467,0.9449745,-2.605043,-24.1576,-23.49492
52.495900631,0.01651949,0.0879590999999997,-0.2881923,0.3360524,-0.1416156,0.9386986,-2.605043,-24.1576,-23.49492
52.506031036,0.2652657,-0.2065359,-0.1048254,0.3331996,-0.1465389,0.9319251,-2.255846,-23.42875,-23.124
52.516160965,0.2650498,-0.3240525,-0.04367298,0.3423782,-0.1425253,0.9396781,-2.255846,-23.42875,-23.124
52.526291847,0.0780390400000003,-0.02924244,0.2005418,0.3379909,-0.1411121,0.9391873,-2.255846,-23.42875,-23.124
52.536421776,-0.04651088,0.3830104,0.07828669,0.3443795,-0.1483259,0.9387057,-2.255846,-23.42875,-23.124
52.546551705,-0.2330717,0.4414173,-0.04373823,0.3433852,-0.1463847,0.9401549,-2.255846,-23.42875,-23.124
52.556682587,-0.730410699999997,0.3229573,0.0174142,0.3404611,-0.1445068,0.936291,-2.619005,-23.78272,-22.74255
52.566812515,-0.5430108,0.1458877,-0.1045918,0.342852,-0.1410742,0.9391999,-2.619005,-23.78272,-22.74255
52.576942444,-0.4179746,0.322424,-0.04343961,0.3380567,-0.1488328,0.9415836,-2.619005,-23.78272,-22.74255
52.587072849,-0.106398,0.1454844,-0.1045017,0.3404846,-0.1488051,0.942555,-2.619005,-23.78272,-22.74255
52.597202778,0.1425417,0.4396308,0.0176328,0.3370589,-0.1450042,0.9377289,-2.619005,-23.78272,-22.74255
52.604801178,0.0801814599999999,0.3215701,0.261872,0.3336447,-0.143117,0.9353114,-2.252241,-23.43494,-23.50311
52.614931106,0.01785481,0.3212772,0.2005798,0.3311476,-0.1382267,0.9430363,-2.252241,-23.43494,-23.50311
52.625061035,-0.4798189,0.2031901,0.200232,0.3256953,-0.1261969,0.9401527,-2.252241,-23.43494,-23.50311
52.63519144,-0.9145634,-0.3857602,0.2610589,0.3305015,-0.1198812,0.9387311,-2.252241,-23.43494,-23.50311
52.645321369,-1.846257,-0.6796972,0.3218861,0.3454905,-0.1110575,0.9383062,-2.252241,-23.43494,-23.50311
52.655452251,-2.652465,-0.03111241,0.5045058,0.3668424,-0.1065485,0.9369233,-2.608648,-24.15142,-23.11582
52.66558218,-3.457699,1.087762,0.6259521,0.3829191,-0.1116981,0.9422617,-2.608648,-24.15142,-23.11582
52.675712109,-4.013116,2.440542,0.2590027,0.3873523,-0.1174841,0.940813,-2.608648,-24.15142,-23.11582
52.685842991,-4.87875,4.144878,-0.2906058,0.3844596,-0.1199308,0.9403177,-2.608648,-24.15142,-23.11582
52.695972919,-5.561703,4.850454,-1.145343,0.3675453,-0.1316469,0.9436268,-2.608648,-24.15142,-23.11582
52.706102848,-5.188347,4.90936,-1.878053,0.3307534,-0.1479132,0.9425318,-2.624176,-23.13046,-23.51145
52.716233253,-3.508246,4.379202,-2.122289,0.291571,-0.1713651,0.9515488,-2.624176,-23.13046,-23.51145
52.726363182,-1.392564,3.495604,-2.06123,0.2659803,-0.1894886,0.9495137,-2.624176,-23.13046,-23.51145
52.736494064,0.1008589,1.964034,-1.816994,0.2598024,-0.2054808,0.9523587,-2.624176,-23.13046,-23.51145
52.746623993,1.594282,0.5502782,-1.267461,0.2657544,-0.2166134,0.947042,-2.624176,-23.13046,-23.51145
52.756753921,2.589897,-1.275824,-0.901106100000001,0.2856375,-0.2111436,0.9461399,-2.6154,-23.7889,-23.12165
52.766884804,2.901027,-2.68958,-0.9621653,0.3040509,-0.2037714,0.9428254,-2.6154,-23.7889,-23.12165
52.777014732,2.340993,-3.101926,-0.473692,0.3131849,-0.1921073,0.9404613,-2.6154,-23.7889,-23.12165
52.787144661,1.967638,-3.160832,0.01478134,0.3252355,-0.1780753,0.9299065,-2.6154,-23.7889,-23.12165
52.794742584,2.154315,-2.984113,0.5032547,0.3231565,-0.1635774,0.9294497,-2.6154,-23.7889,-23.12165
52.804872513,3.087705,-2.748487,1.54126,0.338175,-0.1595403,0.9348053,-2.9781,-23.79271,-23.50423
52.815002918,3.896642,-2.68958,2.27397,0.3521891,-0.1483704,0.9271445,-2.9781,-23.79271,-23.50423
52.825133324,4.08332,-2.630674,3.00668,0.3706243,-0.1438841,0.9257541,-2.9781,-23.79271,-23.50423
52.835263252,4.021094,-2.571767,3.128799,0.3871061,-0.1384452,0.9243607,-2.9781,-23.79271,-23.50423
52.845393658,3.958868,-1.864889,3.250917,0.3963288,-0.1359842,0.9210119,-2.9781,-23.79271,-23.50423
52.855523586,2.963253,-0.804571599999999,2.945621,0.404499,-0.1248247,0.9171966,-2.611795,-23.79508,-23.50075
52.865654469,1.905411,0.844810799999999,2.457148,0.4014943,-0.1161151,0.9196203,-2.611795,-23.79508,-23.50075
52.875784397,0.909796199999998,2.435287,2.396089,0.3810675,-0.1176473,0.9282503,-2.611795,-23.79508,-23.50075
52.885914326,0.4742145,3.790137,2.518207,0.3601062,-0.1138647,0.9364076,-2.611795,-23.79508,-23.50075
52.896044731,0.1008589,4.732641,2.212911,0.3332964,-0.1096086,0.9484114,-2.611795,-23.79508,-23.50075
52.90617466,-0.583626599999998,5.262799,1.968674,0.3221941,-0.121209,0.9594564,-2.238737,-24.15998,-23.49144
52.916305065,-1.45479,4.968267,1.663379,0.3086184,-0.1265901,0.9647178,-2.238737,-24.15998,-23.49144
52.926435471,-2.139276,4.143576,0.869609699999998,0.2955177,-0.1305245,0.9690185,-2.238737,-24.15998,-23.49144
52.936565399,-2.077049,3.024352,0.0758405,0.2945379,-0.1295686,0.9685355,-2.238737,-24.15998,-23.49144
52.946696281,-1.890372,1.728409,-0.778987800000001,0.2993757,-0.1266403,0.9671066,-2.238737,-24.15998,-23.49144
52.95682621,-1.76592,0.844810799999999,-1.206402,0.3081804,-0.1305047,0.9603654,-2.608648,-24.15142,-23.11582
52.966956139,-1.268112,0.0790261,-1.38958,0.3087147,-0.1320665,0.9478171,-2.608648,-24.15142,-23.11582
52.977086544,-1.641468,-0.274413,-1.450639,0.3243201,-0.136331,0.9444703,-2.608648,-24.15142,-23.11582
52.98468399,-2.077049,-0.09769344,-1.206402,0.3336474,-0.1454708,0.9425446,-2.608648,-24.15142,-23.11582
52.994814873,-2.263727,0.2557456,-1.084284,0.3421347,-0.1681853,0.9386572,-2.608648,-24.15142,-23.11582
53.004944801,-2.637083,1.610596,-0.778987800000001,0.3445992,-0.1701546,0.9328687,-1.868227,-24.16957,-23.93025
53.01507473,-2.077049,2.199661,-0.9621653,0.3389417,-0.1871941,0.9265444,-1.868227,-24.16957,-23.93025
53.025205135,-0.832530500000003,2.494193,-0.6568695,0.3141954,-0.1931639,0.9298456,-1.868227,-24.16957,-23.93025
53.035335064,0.598666400000001,2.258567,-0.473692,0.3015032,-0.1893343,0.9360942,-1.868227,-24.16957,-23.93025
53.045465946,1.594282,1.433876,-0.2294553,0.2878499,-0.1883631,0.9481249,-1.868227,-24.16957,-23.93025
53.055595875,1.905411,0.1379326,-0.2905145,0.2849301,-0.1879064,0.9476357,-2.252241,-23.43494,-23.50311
53.065725803,1.967638,-1.33473,-0.473692,0.2862974,-0.180091,0.9544117,-2.252241,-23.43494,-23.50311
53.075856686,1.843186,-2.984113,-0.473692,0.2989318,-0.1785713,0.9510697,-2.252241,-23.43494,-23.50311
53.085986614,1.718734,-4.280056,-0.3515736,0.3222733,-0.1765412,0.9414834,-2.252241,-23.43494,-23.50311
53.096116543,1.843186,-4.633495,0.01478134,0.3434025,-0.1464417,0.9338817,-2.252241,-23.43494,-23.50311
53.106246948,1.843186,-4.633495,0.1368997,0.3637571,-0.1362296,0.9218925,-2.231985,-24.5225,-23.48561
53.116376877,1.905411,-3.808804,0.5032547,0.3757983,-0.122167,0.9147156,-2.231985,-24.5225,-23.48561
53.126507759,1.594282,-2.041609,0.869609699999998,0.3888398,-0.115224,0.9220023,-2.231985,-24.5225,-23.48561
53.136637688,1.096474,-0.274413,1.358083,0.3825074,-0.1142924,0.9234356,-2.231985,-24.5225,-23.48561
53.146767616,0.723118299999999,1.433876,1.419142,0.3766939,-0.1153408,0.919558,-2.245489,-23.79746,-23.49727
53.156898499,0.2875367,2.494193,1.358083,0.3669646,-0.1172691,0.9286972,-2.245489,-23.79746,-23.49727
53.167028427,0.1630848,3.024352,1.358083,0.3504536,-0.1226116,0.9407068,-2.245489,-23.79746,-23.49727
53.177158356,0.4742145,2.965445,1.052787,0.3369242,-0.1337734,0.9488513,-2.245489,-23.79746,-23.49727
53.184756279,0.785344400000002,2.670913,0.9306688,0.3199398,-0.1363476,0.9463892,-2.245489,-23.79746,-23.49727
53.194886208,1.034248,2.140754,0.808550499999999,0.3068124,-0.1387864,0.9555185,-2.6154,-23.7889,-23.12165
53.205016613,1.220926,0.962623800000001,0.869609699999998,0.294639,-0.1345918,0.948258,-2.608648,-24.15142,-23.11582
53.215147018,0.785344400000002,0.1379326,0.686432199999999,0.3013973,-0.1292244,0.9473218,-2.608648,-24.15142,-23.11582
53.225277424,-0.5214007,-0.1566,0.625373,0.3305518,-0.125675,0.9401664,-2.608648,-24.15142,-23.11582
53.235407353,-1.579242,-0.03878693,0.1979588,0.3518821,-0.119688,0.941682,-2.608648,-24.15142,-23.11582
53.245537281,-2.388179,0.844810799999999,-0.4126328,0.3727596,-0.1161593,0.9393306,-2.605501,-24.50776,-22.73088
53.255668163,-2.512631,1.964034,-0.840047,0.3751326,-0.1098538,0.9388677,-2.605501,-24.50776,-22.73088
53.265798092,-2.512631,3.55451,-1.084284,0.3605138,-0.1089122,0.948483,-2.605501,-24.50776,-22.73088
53.275928021,-2.139276,4.614828,-1.023224,0.3348339,-0.1197068,0.9541842,-2.605501,-24.50776,-22.73088
53.286058426,-1.703694,4.90936,-0.778987800000001,0.3083122,-0.1426639,0.9535838,-2.605501,-24.50776,-22.73088
53.296188831,-1.019208,4.025763,-0.3515736,0.2886943,-0.1738644,0.9452629,-2.974953,-24.14905,-23.1193
53.306319237,-0.2724968,2.5531,-0.473692,0.2883651,-0.191738,0.949084,-2.974953,-24.14905,-23.1193
53.316449165,0.1008589,1.316063,-0.595810300000002,0.2953074,-0.2047987,0.9437658,-2.974953,-24.14905,-23.1193
53.326579094,0.723118299999999,-0.1566,-0.778987800000001,0.3177082,-0.2071007,0.9375455,-2.974953,-24.14905,-23.1193
53.336709976,0.785344400000002,-0.510039,-1.206402,0.3399931,-0.1996412,0.9405143,-2.974953,-24.14905,-23.1193
53.346839905,0.1008589,-0.274413,-1.633816,0.3408239,-0.1860358,0.9458537,-2.245489,-23.79746,-23.49727
53.356969833,-0.02359304,0.1968391,-1.939112,0.3314974,-0.1764296,0.9458503,-2.245489,-23.79746,-23.49727
53.367100239,0.03863291,1.02153,-1.694875,0.3143844,-0.1673242,0.9506512,-2.245489,-23.79746,-23.49727
53.374697685,0.5364405,1.374969,-1.511698,0.3002498,-0.1635586,0.9511054,-2.245489,-23.79746,-23.49727
53.384828568,1.034248,1.02153,-0.901106100000001,0.3070438,-0.1615917,0.9487144,-2.245489,-23.79746,-23.49727
53.394958496,1.718734,0.4913717,-0.6568695,0.3124367,-0.1645148,0.9419664,-1.886395,-23.78747,-22.73559
53.405088902,2.216541,-0.1566,-0.5347512,0.3108298,-0.1480906,0.9400673,-1.886395,-23.78747,-22.73559
53.41521883,2.465445,-0.510039,-0.5347512,0.3330782,-0.1353519,0.9382219,-1.886395,-23.78747,-22.73559
53.425348759,2.465445,-1.040198,-0.5347512,0.3421464,-0.115967,0.9334614,-1.886395,-23.78747,-22.73559
53.435479641,1.905411,-1.040198,-0.2294553,0.3532192,-0.1052074,0.9364085,-1.886395,-23.78747,-22.73559
53.44560957,1.345378,-0.510039,-0.2294553,0.3594923,-0.1017224,0.9417402,-1.885937,-23.43731,-23.49963
53.455739498,0.972022199999999,0.1968391,0.3200772,0.3464079,-0.1071173,0.9450727,-1.885937,-23.43731,-23.49963
53.465870381,0.4119886,1.080437,0.3811364,0.3338518,-0.1168679,0.9479146,-1.885937,-23.43731,-23.49963
53.476000309,0.2875367,1.492782,0.4421955,0.3218217,-0.1314364,0.9526778,-1.885937,-23.43731,-23.49963
53.486130715,-0.1480449,1.433876,0.3811364,0.3146084,-0.1397242,0.9521588,-1.885937,-23.43731,-23.49963
53.496260643,-0.583626599999998,0.4324652,0.4421955,0.3239264,-0.1464882,0.9454126,-1.879185,-23.79983,-23.49379
53.506390572,-0.708078500000002,-0.3333195,0.1979588,0.3258612,-0.1450345,0.9439731,-1.879185,-23.79983,-23.49379
53.516521454,-0.708078500000002,-0.510039,-0.1683962,0.335483,-0.1347789,0.9459502,-1.879185,-23.79983,-23.49379
53.526651383,-1.019208,-0.392226,-0.5347512,0.338339,-0.1247078,0.9334328,-1.879185,-23.79983,-23.49379
53.536782265,-1.890372,-0.274413,-0.778987800000001,0.3465261,-0.1178247,0.9382943,-1.879185,-23.79983,-23.49379
53.546912193,-2.574857,0.1379326,-0.5347512,0.3537477,-0.1109711,0.9407403,-1.872433,-24.16235,-23.48796
53.557042122,-3.010439,0.785904300000002,-0.4126328,0.3397138,-0.1187931,0.9440652,-1.872433,-24.16235,-23.48796
53.567172527,-3.072665,1.669502,-0.107337,0.3286223,-0.1294914,0.947874,-1.872433,-24.16235,-23.48796
53.574769974,-2.885987,2.022941,0.1979588,0.3190188,-0.1416827,0.9458929,-1.872433,-24.16235,-23.48796
53.584900379,-2.388179,2.317473,0.747491399999998,0.2982717,-0.1573661,0.9419452,-1.872433,-24.16235,-23.48796
53.595030785,-1.641468,1.728409,1.052787,0.2931198,-0.178687,0.9433337,-2.238737,-24.15998,-23.49144
53.605160713,-0.832530500000003,0.5502782,1.297024,0.2976383,-0.1941337,0.9437947,-2.238737,-24.15998,-23.49144
53.615291119,-0.0858189900000001,-0.745665100000002,0.747491399999998,0.304439,-0.1945338,0.9471892,-2.238737,-24.15998,-23.49144
53.625421047,0.03863291,-1.629263,0.3200772,0.3252864,-0.186685,0.9409868,-2.238737,-24.15998,-23.49144
53.635551929,0.2875367,-2.218328,-0.3515736,0.3368072,-0.171575,0.9429792,-2.238737,-24.15998,-23.49144
53.645681858,-0.0858189900000001,-1.747076,-0.717928600000002,0.3366825,-0.1575634,0.9405962,-2.252241,-23.43494,-23.50311
53.655811787,-0.583626599999998,-1.216917,-1.023224,0.341424,-0.1444686,0.9396715,-2.252241,-23.43494,-23.50311
53.665942192,-0.3969488,-0.392226,-0.901106100000001,0.335099,-0.1430925,0.9367628,-2.252241,-23.43494,-23.50311
53.676072597,-0.4591747,0.3735587,-0.5347512,0.3200684,-0.1480273,0.9391263,-2.252241,-23.43494,-23.50311
53.686203003,-0.832530500000003,0.3146522,-0.04627782,0.3123038,-0.1514141,0.9458546,-2.252241,-23.43494,-23.50311
53.696332931,-0.894756400000001,0.2557456,0.0758405,0.314781,-0.1562386,0.9453681,-2.605043,-24.1576,-23.49492
53.70646286,-0.832530500000003,-0.686758599999998,0.5032547,0.3254856,-0.1571274,0.9449112,-2.605043,-24.1576,-23.49492
53.716593742,-0.3347228,-1.275824,0.686432199999999,0.3308232,-0.155647,0.9434805,-2.605043,-24.1576,-23.49492
53.726723671,0.2875367,-1.688169,0.625373,0.3361962,-0.1561593,0.9357725,-2.605043,-24.1576,-23.49492
53.736853599,0.598666400000001,-1.864889,0.747491399999998,0.3342001,-0.1527214,0.943013,-2.605043,-24.1576,-23.49492
53.746984005,0.723118299999999,-1.629263,0.747491399999998,0.3381233,-0.1537421,0.9338524,-1.872433,-24.16235,-23.48796
53.75711441,0.4119886,-1.393637,0.5643138,0.3264525,-0.1547572,0.9386457,-1.872433,-24.16235,-23.48796
53.764712334,0.2875367,-0.981291200000001,0.5032547,0.3293715,-0.1533352,0.9328656,-1.872433,-24.16235,-23.48796
53.774842262,-0.1480449,-0.5689455,0.3200772,0.3288356,-0.148016,0.9328757,-1.872433,-24.16235,-23.48796
53.784972191,-0.708078500000002,-0.686758599999998,0.1368997,0.3296766,-0.13632,0.9411063,-1.872433,-24.16235,-23.48796
53.795102596,-0.956982400000001,-0.804571599999999,0.3200772,0.3374553,-0.1372008,0.9440198,-2.605043,-24.1576,-23.49492
53.805232525,-0.832530500000003,-1.099104,0.5032547,0.3403195,-0.1318462,0.9450038,-2.605043,-24.1576,-23.49492
53.815363407,-0.583626599999998,-1.099104,0.991727900000002,0.3515548,-0.1380367,0.9464671,-2.605043,-24.1576,-23.49492
53.825493336,-0.3969488,-0.922384600000001,1.174906,0.3408993,-0.1420002,0.945466,-2.605043,-24.1576,-23.49492
53.835623264,-0.0858189900000001,-0.510039,1.297024,0.3287502,-0.1439825,0.9507385,-2.605043,-24.1576,-23.49492
53.845754147,-0.0858189900000001,0.1379326,1.419142,0.3219567,-0.1440751,0.9463778,-2.245489,-23.79746,-23.49727
53.855884075,-0.0858189900000001,0.3146522,1.113846,0.3126888,-0.1416969,0.9497368,-2.245489,-23.79746,-23.49727
53.866014481,-0.1480449,0.0790261,0.991727900000002,0.3126965,-0.1403153,0.942019,-2.245489,-23.79746,-23.49727
53.876144409,-0.1480449,-0.3333195,0.991727900000002,0.3233942,-0.1421193,0.9473508,-2.245489,-23.79746,-23.49727
53.886274338,-0.3347228,-0.804571599999999,0.686432199999999,0.3287981,-0.1464854,0.9415648,-2.242342,-24.1538,-23.11234
53.89640522,-0.583626599999998,-0.5689455,0.3811364,0.3438604,-0.1449379,0.9391942,-2.242342,-24.1538,-23.11234
53.906535149,-0.4591747,-0.274413,0.1368997,0.3418603,-0.1391417,0.939684,-2.242342,-24.1538,-23.11234
53.916665554,0.1008589,-0.392226,-0.04627782,0.3355775,-0.1421252,0.9362836,-2.242342,-24.1538,-23.11234
53.926795959,0.723118299999999,-0.274413,0.0758405,0.3340898,-0.1396951,0.9386978,-2.242342,-24.1538,-23.11234
53.936925888,1.034248,-0.2155065,-0.107337,0.3286908,-0.1348758,0.9411069,-2.255846,-23.42875,-23.124
53.947056293,0.972022199999999,-0.03878693,-0.1683962,0.333611,-0.1425367,0.9459286,-2.255846,-23.42875,-23.124
53.957186222,0.5364405,-0.1566,-0.2905145,0.3375791,-0.1493337,0.9401336,-2.255846,-23.42875,-23.124
53.964784145,-0.0858189900000001,-0.2155065,-0.2294553,0.3361533,-0.1522661,0.9381935,-2.255846,-23.42875,-23.124
53.974914551,-0.770304599999999,-0.392226,-0.2294553,0.3478438,-0.154599,0.9377361,-2.255846,-23.42875,-23.124
53.985044479,-1.268112,-0.392226,-0.2294553,0.3512985,-0.1594335,0.9353218,-2.252241,-23.43494,-23.50311
53.995174885,-1.392564,-0.1566,-0.3515736,0.3473739,-0.1537182,0.9285683,-2.252241,-23.43494,-23.50311
54.005304813,-1.081434,1.080437,0.1979588,0.3512899,-0.1565913,0.9285722,-2.252241,-23.43494,-23.50311
54.015435696,-0.956982400000001,1.905128,0.3200772,0.34731,-0.1488177,0.9353344,-2.252241,-23.43494,-23.50311
54.025565624,-0.770304599999999,3.083258,0.5032547,0.3444837,-0.1594559,0.9386821,-2.252241,-23.43494,-23.50311
54.035695553,-0.708078500000002,3.495604,0.1979588,0.3293918,-0.159499,0.9468464,-2.611795,-23.79508,-23.50075
54.045825958,-0.3969488,3.495604,-0.04627782,0.3239603,-0.1517587,0.9511919,-2.611795,-23.79508,-23.50075
54.055955887,-0.583626599999998,3.201071,-0.5347512,0.3122543,-0.1474989,0.9506884,-2.611795,-23.79508,-23.50075
54.066086769,-0.3347228,2.37638,-0.9621653,0.3025794,-0.1552342,0.9598152,-2.611795,-23.79508,-23.50075
54.076216698,-0.2102709,1.316063,-1.38958,0.2942378,-0.1451935,0.9535421,-2.611795,-23.79508,-23.50075
54.086346626,-0.1480449,0.4324652,-1.633816,0.2957214,-0.1476104,0.9525757,-2.245489,-23.79746,-23.49727
54.096477509,0.1008589,-0.2155065,-1.572757,0.3053866,-0.1417188,0.9535784,-2.245489,-23.79746,-23.49727
54.106607437,0.2253108,-0.03878693,-1.32852,0.3218872,-0.1354041,0.9420533,-2.245489,-23.79746,-23.49727
54.116737843,0.03863291,0.0790261,-1.267461,0.3330939,-0.1386867,0.9440054,-2.245489,-23.79746,-23.49727
54.126867771,0.4742145,0.3146522,-1.084284,0.334556,-0.1396256,0.9459373,-2.245489,-23.79746,-23.49727
54.1369977,0.723118299999999,0.5502782,-0.6568695,0.3356877,-0.1551515,0.9405988,-2.611795,-23.79508,-23.50075
54.147128582,1.096474,0.4324652,-0.2294553,0.3342855,-0.1590999,0.9333485,-2.611795,-23.79508,-23.50075
54.154726028,0.785344400000002,0.668091199999998,-0.2294553,0.3323343,-0.1600303,0.939132,-2.611795,-23.79508,-23.50075
54.164856434,0.1630848,0.6091847,0.0758405,0.3313551,-0.1586081,0.9367198,-2.611795,-23.79508,-23.50075
54.174986362,-1.14366,0.4324652,-0.04627782,0.3347304,-0.1566152,0.9401106,-2.611795,-23.79508,-23.50075
54.185116291,-2.077049,0.4913717,-0.04627782,0.3298553,-0.1547306,0.9386545,-2.252241,-23.43494,-23.50311
54.195247173,-2.574857,0.4324652,-0.04627782,0.3268667,-0.1474815,0.94011,-2.252241,-23.43494,-23.50311
54.205377102,-2.388179,0.3735587,-0.04627782,0.3288817,-0.1547338,0.9391345,-2.252241,-23.43494,-23.50311
54.215507507,-1.641468,0.4913717,-0.107337,0.3313088,-0.1551725,0.9420351,-2.252241,-23.43494,-23.50311
54.225637913,-0.4591747,0.1968391,0.1368997,0.3337015,-0.1498699,0.9377097,-2.252241,-23.43494,-23.50311
54.235767841,0.2253108,0.0790261,0.01478134,0.3389839,-0.143049,0.9382206,-2.242342,-24.1538,-23.11234
54.245898247,0.1630848,0.4913717,0.0758405,0.3345933,-0.1444384,0.9488223,-2.242342,-24.1538,-23.11234
54.256028175,-0.5214007,0.6091847,0.0758405,0.3297876,-0.1488798,0.9434924,-2.242342,-24.1538,-23.11234
54.266159058,-1.14366,0.785904300000002,0.01478134,0.3225067,-0.1513169,0.9478113,-2.242342,-24.1538,-23.11234
54.276288986,-1.579242,0.4913717,-0.04627782,0.3230581,-0.158563,0.9487622,-2.242342,-24.1538,-23.11234
54.286418915,-1.45479,0.1379326,0.0758405,0.3177607,-0.1639278,0.948737,-2.601896,-24.51394,-23.10998
54.29654932,-1.14366,-0.510039,-0.2294553,0.3202937,-0.1712815,0.9361815,-2.601896,-24.51394,-23.10998
54.306679726,-0.708078500000002,-0.4511325,-0.2905145,0.319366,-0.1765946,0.9380979,-2.601896,-24.51394,-23.10998
54.316810131,-0.1480449,-0.274413,-0.2905145,0.3232062,-0.1721827,0.9410126,-2.601896,-24.51394,-23.10998
54.32694006,0.4742145,-0.03878693,-0.3515736,0.3208238,-0.1761124,0.936655,-2.601896,-24.51394,-23.10998
54.337069988,0.723118299999999,0.1379326,-0.107337,0.3192278,-0.1634763,0.9439163,-2.245489,-23.79746,-23.49727
54.347200871,1.1587,-0.274413,0.1368997,0.3168329,-0.1645508,0.9342569,-2.245489,-23.79746,-23.49727
54.35479784,1.220926,-0.686758599999998,0.1368997,0.3138303,-0.1577243,0.9424671,-2.245489,-23.79746,-23.49727
54.364928722,1.096474,-1.33473,0.1979588,0.3230216,-0.1532838,0.943948,-2.245489,-23.79746,-23.49727
54.375058651,0.723118299999999,-1.629263,0.4421955,0.3240186,-0.1552338,0.9415337,-2.245489,-23.79746,-23.49727
54.38518858,0.847570199999998,-2.041609,0.5643138,0.3268332,-0.145964,0.9473514,-2.245489,-23.79746,-23.49727
54.395319462,0.4742145,-2.041609,0.869609699999998,0.3350298,-0.1381744,0.9454591,-2.245489,-23.79746,-23.49727
54.405449391,-0.1480449,-1.33473,1.113846,0.3364697,-0.1348195,0.9406445,-2.245489,-23.79746,-23.49727
54.415579796,-0.956982400000001,-0.5689455,1.235965,0.3466737,-0.1333187,0.9372963,-2.245489,-23.79746,-23.49727
54.425709725,-1.205886,-0.3333195,1.419142,0.3515337,-0.1323392,0.9344156,-2.245489,-23.79746,-23.49727
54.435839653,-1.205886,0.02011959,1.419142,0.3501505,-0.1424471,0.9416286,-2.252241,-23.43494,-23.50311
54.445970535,-0.645852599999998,0.3146522,1.235965,0.3467797,-0.1449239,0.9382367,-2.252241,-23.43494,-23.50311
54.456100464,-0.2724968,0.4913717,1.235965,0.341391,-0.1410768,0.9401612,-2.252241,-23.43494,-23.50311
54.466231346,-0.2102709,0.4324652,0.808550499999999,0.3409307,-0.1439797,0.9406363,-2.252241,-23.43494,-23.50311
54.476361275,-0.3347228,0.668091199999998,0.747491399999998,0.3297716,-0.1464822,0.9410847,-2.252241,-23.43494,-23.50311
54.486491203,-0.832530500000003,0.844810799999999,0.3811364,0.3268526,-0.1479041,0.9468647,-2.245489,-23.79746,-23.49727
54.496621609,-1.205886,0.726997700000001,0.3811364,0.3191516,-0.1547834,0.9420046,-2.245489,-23.79746,-23.49727
54.506751537,-1.268112,0.962623800000001,0.259018,0.311855,-0.1538856,0.9405401,-2.245489,-23.79746,-23.49727
54.51688242,-1.392564,0.844810799999999,0.0758405,0.3137909,-0.1533734,0.9419938,-2.245489,-23.79746,-23.49727
54.527012348,-0.583626599999998,0.1968391,-0.2294553,0.3190776,-0.1479736,0.9458795,-2.611795,-23.79508,-23.50075
54.537142277,0.1008589,-0.627852100000001,-0.2294553,0.3248992,-0.1469514,0.9468617,-2.611795,-23.79508,-23.50075
54.5447402,0.1630848,-0.804571599999999,-0.2905145,0.3355937,-0.1459308,0.9435137,-2.611795,-23.79508,-23.50075
54.554870129,0.598666400000001,-0.804571599999999,0.0758405,0.3414262,-0.1463517,0.9454581,-2.611795,-23.79508,-23.50075
54.565001011,0.1630848,-0.3333195,0.1979588,0.3424352,-0.1483411,0.9387007,-2.611795,-23.79508,-23.50075
54.57513094,-0.583626599999998,0.5502782,0.1368997,0.3473364,-0.1521876,0.9372574,-2.611795,-23.79508,-23.50075
54.585260868,-1.081434,1.610596,0.1979588,0.3400397,-0.1512898,0.9357929,-1.89517,-23.12903,-23.12539
54.595391273,-1.268112,2.081847,0.1368997,0.3327607,-0.154202,0.9410759,-1.89517,-23.12903,-23.12539
54.605521679,-0.832530500000003,2.494193,0.1368997,0.3153352,-0.1625564,0.941978,-1.89517,-23.12903,-23.12539
54.615652084,-0.5214007,2.435287,0.3200772,0.3028089,-0.1752193,0.9438487,-1.89517,-23.12903,-23.12539
54.625782013,0.3497626,1.610596,0.4421955,0.2916664,-0.1805902,0.9481514,-2.241283,-23.80467,-23.93956
54.635911941,1.1587,0.5502782,0.3811364,0.2931273,-0.1805875,0.94719,-2.241283,-23.80467,-23.93956
54.646042824,1.46983,-0.510039,0.259018,0.2968806,-0.1674477,0.9520535,-2.241283,-23.80467,-23.93956
54.656172752,1.283152,-1.216917,0.5032547,0.306966,-0.1538316,0.9506611,-2.241283,-23.80467,-23.93956
54.666303158,1.034248,-1.629263,0.5032547,0.3151627,-0.146042,0.9487688,-2.241283,-23.80467,-23.93956
54.676433086,0.847570199999998,-1.747076,0.4421955,0.3273129,-0.1450012,0.9463896,-1.879185,-23.79983,-23.49379
54.686563492,1.407604,-1.629263,0.869609699999998,0.3365062,-0.1400987,0.9454588,-1.879185,-23.79983,-23.49379
54.696693897,1.656508,-0.922384600000001,0.686432199999999,0.3389514,-0.1401279,0.9401569,-1.879185,-23.79983,-23.49379
54.706823826,1.780959,-0.627852100000001,0.625373,0.3457752,-0.1410733,0.9367947,-1.879185,-23.79983,-23.49379
54.716954708,1.718734,-0.510039,0.686432199999999,0.3409651,-0.1473759,0.939664,-1.879185,-23.79983,-23.49379
54.727084637,1.532056,-0.2155065,0.625373,0.3371412,-0.1532482,0.9357812,-1.874979,-23.80704,-23.93608
54.73468256,1.46983,-0.3333195,0.625373,0.3362487,-0.1638362,0.9429944,-1.874979,-23.80704,-23.93608
54.744812488,1.46983,-0.09769344,0.1979588,0.3285112,-0.1677814,0.9415183,-1.874979,-23.80704,-23.93608
54.754942417,1.407604,-0.5689455,-0.107337,0.3192563,-0.1663842,0.9434276,-1.874979,-23.80704,-23.93608
54.765073299,1.283152,-0.863478099999997,-0.473692,0.3289747,-0.165358,0.9415247,-1.874979,-23.80704,-23.93608
54.775203228,1.096474,-1.51145,-0.595810300000002,0.3333538,-0.1643998,0.9367125,-2.245489,-23.79746,-23.49727
54.785333633,0.598666400000001,-1.805982,-0.840047,0.3439728,-0.1551571,0.9328994,-2.245489,-23.79746,-23.49727
54.795463562,0.1008589,-1.452543,-0.6568695,0.3536315,-0.1483064,0.932939,-2.245489,-23.79746,-23.49727
54.805593491,-0.1480449,-0.627852100000001,-0.5347512,0.3594687,-0.148274,0.9315065,-2.245489,-23.79746,-23.49727
54.815724373,-0.3347228,0.4913717,-0.4126328,0.3589706,-0.1458933,0.92765,-2.245489,-23.79746,-23.49727
54.825854301,0.2253108,0.962623800000001,-0.107337,0.3545911,-0.1454435,0.9276397,-2.9781,-23.79271,-23.50423
54.835984707,0.598666400000001,1.433876,0.1979588,0.3501156,-0.1362351,0.9329559,-2.9781,-23.79271,-23.50423
54.846115112,0.660892400000002,1.669502,0.3200772,0.3404073,-0.1391706,0.93775,-2.9781,-23.79271,-23.50423
54.856245041,0.4119886,2.317473,0.1979588,0.3350746,-0.1425428,0.9440022,-2.9781,-23.79271,-23.50423
54.866375446,0.1008589,2.37638,-0.1683962,0.324457,-0.15179,0.9473327,-2.9781,-23.79271,-23.50423
54.876505375,0.2875367,2.140754,-0.6568695,0.3132941,-0.1533421,0.945853,-2.618547,-23.43256,-23.50659
54.886636257,0.3497626,1.728409,-1.084284,0.3030529,-0.15003,0.9463162,-2.618547,-23.43256,-23.50659
54.896766186,0.3497626,1.139343,-1.633816,0.3108445,-0.152829,0.9511558,-2.618547,-23.43256,-23.50659
54.906896591,0.598666400000001,0.4324652,-1.878053,0.3109087,-0.1591374,0.9492122,-2.618547,-23.43256,-23.50659
54.91702652,0.972022199999999,-0.1566,-2.183349,0.3152756,-0.1567319,0.9439206,-2.618547,-23.43256,-23.50659
54.927156448,0.909796199999998,-0.274413,-2.122289,0.3210972,-0.1580548,0.9531012,-2.245489,-23.79746,-23.49727
54.934754848,1.096474,-0.03878693,-2.427585,0.3191341,-0.1556636,0.9516537,-2.245489,-23.79746,-23.49727
54.944884777,1.283152,-0.1566,-1.939112,0.3191215,-0.1528083,0.9463517,-2.245489,-23.79746,-23.49727
54.955015182,1.1587,0.02011959,-1.572757,0.319573,-0.1480004,0.9425028,-2.245489,-23.79746,-23.49727
54.965145111,1.283152,0.3735587,-0.901106100000001,0.3214692,-0.1417294,0.9386608,-2.245489,-23.79746,-23.49727
54.97527504,0.909796199999998,0.5502782,-0.2905145,0.3184573,-0.1325271,0.9420506,-2.600838,-24.16482,-23.93721
54.985405922,0.785344400000002,0.726997700000001,0.3200772,0.3218408,-0.1296234,0.9391704,-2.600838,-24.16482,-23.93721
54.995535851,0.598666400000001,0.5502782,0.747491399999998,0.3214381,-0.1388128,0.9401146,-2.600838,-24.16482,-23.93721
55.005666256,-0.02359304,0.3146522,1.052787,0.3160851,-0.1407113,0.9487826,-2.600838,-24.16482,-23.93721
55.015796661,0.03863291,0.0790261,1.113846,0.3189855,-0.1392281,0.9497584,-2.600838,-24.16482,-23.93721
55.02592659,0.03863291,-0.03878693,1.113846,0.3174973,-0.1363272,0.9507259,-2.238737,-24.15998,-23.49144
55.036056995,-0.3347228,-0.5689455,0.686432199999999,0.3213287,-0.1300103,0.9502668,-2.238737,-24.15998,-23.49144
55.046186924,-0.832530500000003,-0.922384600000001,0.5032547,0.3281054,-0.1279865,0.954149,-2.238737,-24.15998,-23.49144
55.056317806,-0.770304599999999,-1.747076,-0.04627782,0.3349353,-0.1261379,0.938729,-2.238737,-24.15998,-23.49144
55.066447735,-0.645852599999998,-1.805982,-0.107337,0.3387999,-0.1246208,0.9426027,-2.238737,-24.15998,-23.49144
55.076577663,-0.708078500000002,-1.099104,0.1368997,0.3353892,-0.1246211,0.9454892,-2.234531,-24.16719,-23.93373
55.086708069,-0.4591747,-0.392226,0.5643138,0.3373293,-0.1231848,0.9421194,-2.234531,-24.16719,-23.93373
55.096838474,-0.583626599999998,0.4913717,0.625373,0.3364628,-0.1333897,0.9382349,-2.234531,-24.16719,-23.93373
55.10696888,-0.4591747,1.080437,0.808550499999999,0.3326068,-0.1377489,0.9411108,-2.234531,-24.16719,-23.93373
55.117098808,-0.3347228,1.433876,1.113846,0.3282968,-0.1459702,0.945425,-2.234531,-24.16719,-23.93373
55.124696732,-0.2724968,1.492782,1.113846,0.3249604,-0.1518431,0.9410608,-2.248035,-23.44215,-23.9454
55.13482666,-0.2102709,1.19825,0.991727900000002,0.3182372,-0.1624854,0.9472937,-2.248035,-23.44215,-23.9454
55.144956589,-0.4591747,0.726997700000001,0.5643138,0.3139776,-0.1741554,0.9448449,-2.248035,-23.44215,-23.9454
55.155087471,-0.4591747,0.02011959,0.3811364,0.3072225,-0.1823474,0.9544609,-2.248035,-23.44215,-23.9454
55.1652174,-0.583626599999998,-0.686758599999998,-0.1683962,0.3101543,-0.1828437,0.9506069,-2.248035,-23.44215,-23.9454
55.175348282,-0.4591747,-1.688169,-0.840047,0.3198479,-0.1775148,0.9429227,-1.881731,-23.44452,-23.94191
55.18547821,-0.2724968,-1.923795,-1.023224,0.3285149,-0.1663866,0.9352481,-1.881731,-23.44452,-23.94191
55.195608139,-0.583626599999998,-1.688169,-1.145343,0.3473898,-0.1561159,0.930976,-1.881731,-23.44452,-23.94191
55.205738545,-0.645852599999998,-1.158011,-1.145343,0.3488069,-0.1512785,0.9295424,-1.881731,-23.44452,-23.94191
55.215868473,-0.645852599999998,-0.3333195,-0.6568695,0.3492861,-0.15219,0.9353322,-1.881731,-23.44452,-23.94191
55.225999355,-0.3347228,0.668091199999998,-0.4126328,0.3381241,-0.1556208,0.9401215,-1.874979,-23.80704,-23.93608
55.236129284,0.4119886,1.374969,0.1979588,0.3304207,-0.1638993,0.941049,-1.874979,-23.80704,-23.93608
55.246259213,0.847570199999998,1.080437,0.4421955,0.3144248,-0.1702715,0.9458196,-1.874979,-23.80704,-23.93608
55.256390095,1.532056,0.5502782,0.625373,0.2984041,-0.1723412,0.9448087,-1.874979,-23.80704,-23.93608
55.266520023,1.594282,0.02011959,0.686432199999999,0.2998174,-0.1665535,0.941447,-1.874979,-23.80704,-23.93608
55.276650429,0.972022199999999,-1.040198,0.869609699999998,0.3046185,-0.1592831,0.9385796,-2.622152,-23.42638,-23.12749
55.286780357,-0.0858189900000001,-1.452543,0.747491399999998,0.3263912,-0.1475203,0.9362483,-2.622152,-23.42638,-23.12749
55.296910286,-0.770304599999999,-2.159422,1.052787,0.3510358,-0.1313665,0.9353815,-2.622152,-23.42638,-23.12749
55.307041168,-1.019208,-1.33473,0.747491399999998,0.3674664,-0.1206001,0.934482,-2.622152,-23.42638,-23.12749
55.317171097,-0.4591747,-0.1566,0.9306688,0.3702761,-0.1103757,0.9388541,-2.249094,-23.79128,-23.11817
55.32476902,-0.1480449,0.668091199999998,0.9306688,0.362505,-0.1128034,0.9446194,-2.249094,-23.79128,-23.11817
55.334898949,0.4742145,1.787315,0.869609699999998,0.3459644,-0.1119514,0.9460263,-2.249094,-23.79128,-23.11817
55.345029831,0.4742145,1.905128,0.9306688,0.3328918,-0.1183228,0.9483916,-2.249094,-23.79128,-23.11817
55.35515976,-0.2102709,1.964034,0.686432199999999,0.3173959,-0.127551,0.9579827,-2.249094,-23.79128,-23.11817
55.365289688,-1.019208,1.433876,0.1979588,0.3049406,-0.1456071,0.9521213,-2.249094,-23.79128,-23.11817
55.375420094,-1.952598,0.844810799999999,0.259018,0.2968404,-0.1659083,0.9617077,-2.249094,-23.79128,-23.11817
55.385550022,-2.388179,-0.1566,-0.107337,0.3042755,-0.1789872,0.9539779,-2.249094,-23.79128,-23.11817
55.395680904,-2.077049,-1.099104,-0.595810300000002,0.3067436,-0.1804988,0.9452952,-2.249094,-23.79128,-23.11817
55.405810833,-1.205886,-2.100515,-0.901106100000001,0.3120273,-0.1713372,0.9371251,-2.249094,-23.79128,-23.11817
55.415941715,-0.4591747,-2.277235,-0.840047,0.3231601,-0.1654649,0.9347538,-2.245489,-23.79746,-23.49727
55.426071644,0.1630848,-1.864889,-0.595810300000002,0.3356962,-0.1533034,0.9309518,-2.245489,-23.79746,-23.49727
55.436201573,0.2875367,-0.922384600000001,-0.4126328,0.3362752,-0.1639238,0.9333432,-2.245489,-23.79746,-23.49727
55.446331978,0.4742145,-0.03878693,0.0758405,0.3377357,-0.1657955,0.9391336,-2.245489,-23.79746,-23.49727
55.456461907,0.660892400000002,0.6091847,0.1979588,0.3396887,-0.1662774,0.93769,-2.245489,-23.79746,-23.49727
55.466592789,0.5364405,0.785904300000002,0.259018,0.3338208,-0.1615189,0.9338246,-1.88279,-23.79365,-23.11469
55.476722717,0.4742145,0.668091199999998,0.1368997,0.3289011,-0.1566738,0.9386479,-1.88279,-23.79365,-23.11469
55.486852646,-0.02359304,0.02011959,0.0758405,0.3244874,-0.155173,0.9478081,-1.88279,-23.79365,-23.11469
55.496983528,-0.3969488,-0.274413,0.1368997,0.3225307,-0.1537408,0.9473236,-1.88279,-23.79365,-23.11469
55.507113457,-0.5214007,-0.4511325,-0.107337,0.3259014,-0.1489189,0.9425172,-1.88279,-23.79365,-23.11469
55.51471138,-0.3347228,-0.686758599999998,-0.04627782,0.3326758,-0.1459492,0.9439887,-2.60759,-23.8023,-23.94304
55.524841309,-0.3969488,-0.745665100000002,-0.04627782,0.3331573,-0.1431164,0.9357927,-2.60759,-23.8023,-23.94304
55.534971714,0.1630848,-0.392226,0.1368997,0.3364708,-0.133416,0.9353395,-2.60759,-23.8023,-23.94304
55.545101643,0.3497626,0.1379326,0.3811364,0.3350074,-0.1324726,0.9338901,-2.60759,-23.8023,-23.94304
55.555232048,0.1630848,0.785904300000002,0.625373,0.3330663,-0.1353124,0.9425649,-2.60759,-23.8023,-23.94304
55.565362454,0.03863291,1.139343,0.4421955,0.3393909,-0.1352806,0.9406511,-2.245489,-23.79746,-23.49727
55.575492382,-0.3347228,1.19825,0.5643138,0.3399184,-0.1424479,0.950288,-2.245489,-23.79746,-23.49727
55.585623264,-0.956982400000001,1.19825,0.01478134,0.3291532,-0.133856,0.9464183,-2.245489,-23.79746,-23.49727
55.595753193,-1.019208,1.19825,-0.473692,0.3311405,-0.1400791,0.9522007,-2.245489,-23.79746,-23.49727
55.605883121,-1.019208,1.257156,-0.840047,0.3219532,-0.1421876,0.9410738,-2.245489,-23.79746,-23.49727
55.616013527,-0.832530500000003,1.02153,-1.206402,0.3210327,-0.1503385,0.9502224,-2.245489,-23.79746,-23.49727
55.626143455,-0.645852599999998,0.726997700000001,-1.084284,0.3167813,-0.1610976,0.9415024,-2.245489,-23.79746,-23.49727
55.636274338,-0.5214007,0.6091847,-1.023224,0.3182788,-0.1663743,0.9453553,-2.245489,-23.79746,-23.49727
55.646404266,-0.1480449,0.3735587,-0.840047,0.3221777,-0.1659082,0.9400583,-2.245489,-23.79746,-23.49727
55.656534195,-0.02359304,0.1968391,-0.840047,0.3197289,-0.1649287,0.9434319,-2.245489,-23.79746,-23.49727
55.666665077,0.1630848,0.3735587,-0.6568695,0.3221258,-0.1610471,0.9424813,-2.249094,-23.79128,-23.11817
55.676795006,0.598666400000001,0.2557456,-0.473692,0.3206933,-0.1639576,0.9429539,-2.249094,-23.79128,-23.11817
55.686925411,0.4742145,-0.03878693,-0.1683962,0.3264701,-0.1585671,0.9453932,-2.249094,-23.79128,-23.11817
55.69705534,0.2875367,0.0790261,-0.04627782,0.3240321,-0.1566855,0.9415306,-2.249094,-23.79128,-23.11817
55.707186222,-0.2724968,0.0790261,-0.2294553,0.3289158,-0.1590671,0.9415381,-2.249094,-23.79128,-23.11817
55.714783668,-0.708078500000002,0.1379326,-0.107337,0.33034,-0.1547224,0.9391383,-2.6154,-23.7889,-23.12165
55.724913597,-0.832530500000003,0.3146522,-0.1683962,0.3288335,-0.1508231,0.9434857,-2.6154,-23.7889,-23.12165
55.735044002,-0.708078500000002,0.3735587,-0.2294553,0.3278427,-0.1484242,0.9420407,-2.6154,-23.7889,-23.12165
55.745173931,-0.3347228,0.5502782,-0.107337,0.3234866,-0.1499276,0.940096,-2.6154,-23.7889,-23.12165
55.755304813,0.03863291,0.3735587,-0.2294553,0.3273422,-0.1474427,0.9439717,-2.6154,-23.7889,-23.12165
55.765434742,0.3497626,0.668091199999998,-0.04627782,0.3272567,-0.1387191,0.9454379,-2.238737,-24.15998,-23.49144
55.775564671,0.1008589,0.5502782,-0.04627782,0.326782,-0.1406366,0.9478453,-2.238737,-24.15998,-23.49144
55.785695076,0.2253108,0.3735587,-0.107337,0.3233918,-0.1411734,0.9449401,-2.238737,-24.15998,-23.49144
55.795825481,-0.02359304,0.3735587,-0.1683962,0.3277569,-0.1406378,0.9468827,-2.238737,-24.15998,-23.49144
55.805955887,-0.2102709,0.3146522,-0.3515736,0.3302636,-0.1469667,0.9406024,-2.238737,-24.15998,-23.49144
55.816085815,-0.4591747,0.0790261,-0.2905145,0.3235039,-0.1523297,0.9420211,-2.249094,-23.79128,-23.11817
55.826216698,-0.2102709,0.1379326,-0.2294553,0.3240215,-0.1566504,0.945391,-2.249094,-23.79128,-23.11817
55.836346626,-0.2102709,-0.1566,-0.1683962,0.3318631,-0.1638353,0.9468434,-2.249094,-23.79128,-23.11817
55.846476555,-0.02359304,-0.4511325,0.01478134,0.3275127,-0.1644191,0.9395927,-2.249094,-23.79128,-23.11817
55.85660696,0.03863291,-0.5689455,0.0758405,0.3270497,-0.1673132,0.9410329,-2.249094,-23.79128,-23.11817
55.866736889,-0.3347228,-0.2155065,0.0758405,0.3309214,-0.1639436,0.9357421,-2.242342,-24.1538,-23.11234
55.876867771,-1.268112,0.0790261,0.01478134,0.3333264,-0.1624335,0.9400945,-2.242342,-24.1538,-23.11234
55.8869977,-1.517016,0.3735587,-0.04627782,0.3293356,-0.1508718,0.9376963,-2.242342,-24.1538,-23.11234
55.897128105,-1.205886,0.5502782,0.0758405,0.3302666,-0.1483834,0.9444597,-2.242342,-24.1538,-23.11234
55.904725552,-0.832530500000003,0.5502782,0.3200772,0.3292536,-0.1440357,0.9444665,-2.242342,-24.1538,-23.11234
55.91485548,-0.2102709,0.785904300000002,0.1979588,0.3262986,-0.1406492,0.9468789,-1.868227,-24.16957,-23.93025
55.924986362,-0.2102709,0.726997700000001,0.259018,0.3214495,-0.1407266,0.9425233,-1.868227,-24.16957,-23.93025
55.935116291,0.1008589,0.1379326,0.4421955,0.310804,-0.1475366,0.9477893,-1.868227,-24.16957,-23.93025
55.945246696,0.2253108,-0.09769344,0.3811364,0.3210849,-0.1542624,0.9444234,-1.868227,-24.16957,-23.93025
55.955376625,0.1008589,-0.627852100000001,0.5643138,0.3211253,-0.1572097,0.9395917,-1.868227,-24.16957,-23.93025
55.965507507,0.03863291,-0.922384600000001,0.808550499999999,0.3162683,-0.1572608,0.9381315,-2.251116,-23.49536,-23.50214
55.975637436,0.2253108,-0.922384600000001,0.808550499999999,0.3231404,-0.1668071,0.9468145,-2.251116,-23.49536,-23.50214
55.985767364,0.03863291,-0.686758599999998,0.686432199999999,0.3329216,-0.1720849,0.9434506,-2.251116,-23.49536,-23.50214
55.995898247,-0.02359304,-0.510039,0.3200772,0.3328965,-0.1687194,0.941045,-2.251116,-23.49536,-23.50214
56.006028175,-0.1480449,-0.2155065,0.259018,0.3348149,-0.1667423,0.9439495,-2.251116,-23.49536,-23.50214
56.016158581,0.1630848,-0.1566,0.0758405,0.3245363,-0.1586174,0.9415277,-2.60759,-23.8023,-23.94304
56.026288509,0.2875367,-0.3333195,0.01478134,0.3229729,-0.1489023,0.9468526,-2.60759,-23.8023,-23.94304
56.036418438,0.4119886,-0.274413,0.1368997,0.322464,-0.1441414,0.9386582,-2.60759,-23.8023,-23.94304
56.04654932,0.2875367,-0.2155065,0.5032547,0.3200248,-0.1446005,0.9434764,-2.60759,-23.8023,-23.94304
56.056679249,0.03863291,-0.09769344,0.686432199999999,0.3243853,-0.143581,0.94542,-2.6154,-23.7889,-23.12165
56.066810131,-0.0858189900000001,-0.392226,0.9306688,0.3316673,-0.1420855,0.9439944,-2.6154,-23.7889,-23.12165
56.07694006,0.2253108,-0.5689455,0.869609699999998,0.3317043,-0.1454904,0.942057,-2.6154,-23.7889,-23.12165
56.087070465,0.847570199999998,-0.392226,1.113846,0.3292536,-0.1440357,0.9444665,-2.6154,-23.7889,-23.12165
56.097200394,0.972022199999999,-0.1566,0.808550499999999,0.3341173,-0.1440065,0.943514,-2.6154,-23.7889,-23.12165
56.10479784,0.723118299999999,-0.09769344,0.991727900000002,0.3258673,-0.1445856,0.9401136,-2.6154,-23.7889,-23.12165
56.114928246,0.4742145,-0.03878693,0.625373,0.3234312,-0.1455242,0.9454134,-1.874979,-23.80704,-23.93608
56.125058651,0.1008589,-0.274413,0.625373,0.3190433,-0.1469225,0.9550501,-1.874979,-23.80704,-23.93608
56.135189056,-0.1480449,-0.4511325,0.259018,0.3234659,-0.1503283,0.9492635,-1.874979,-23.80704,-23.93608
56.145318985,-0.1480449,-0.5689455,0.0758405,0.3201531,-0.1595624,0.9477875,-1.874979,-23.80704,-23.93608
56.155449867,0.1630848,-0.686758599999998,0.01478134,0.3207274,-0.1659459,0.9371592,-2.238737,-24.15998,-23.49144
56.165579796,0.4742145,-0.804571599999999,0.01478134,0.3265609,-0.1673083,0.9419968,-2.238737,-24.15998,-23.49144
56.175709724,0.5364405,-0.745665100000002,-0.04627782,0.3333139,-0.1595782,0.9347926,-2.238737,-24.15998,-23.49144
56.18584013,0.2253108,-0.922384600000001,-0.04627782,0.3405783,-0.1566179,0.9348177,-2.238737,-24.15998,-23.49144
56.195970058,0.03863291,-0.981291200000001,-0.1683962,0.3400147,-0.1479243,0.9333872,-2.238737,-24.15998,-23.49144
56.206100941,-0.02359304,-0.627852100000001,0.01478134,0.3463485,-0.1512054,0.9396697,-2.605043,-24.1576,-23.49492
56.216230869,0.1008589,-0.09769344,0.1979588,0.3405839,-0.1580433,0.9377099,-2.605043,-24.1576,-23.49492
56.226360798,0.785344400000002,0.4324652,0.0758405,0.3333989,-0.1701761,0.940078,-2.605043,-24.1576,-23.49492
56.23649168,1.034248,0.1379326,-0.04627782,0.3179018,-0.1737726,0.9303794,-2.605043,-24.1576,-23.49492
56.246621609,1.46983,-0.2155065,0.0758405,0.3179447,-0.1800109,0.9361567,-2.605043,-24.1576,-23.49492
56.256752014,1.780959,-1.040198,-0.04627782,0.3150638,-0.1834342,0.9346943,-2.984852,-23.43019,-23.51007
56.266881943,1.967638,-1.275824,-0.2294553,0.320826,-0.1779955,0.9424416,-2.984852,-23.43019,-23.51007
56.277012825,1.780959,-1.51145,-0.4126328,0.3231907,-0.1702558,0.9400516,-2.984852,-23.43019,-23.51007
56.287142754,1.656508,-1.570356,-0.473692,0.3274429,-0.1566852,0.9386441,-2.984852,-23.43019,-23.51007
56.294740677,1.532056,-1.452543,-0.5347512,0.3409835,-0.1483744,0.9362841,-2.984852,-23.43019,-23.51007
56.304870606,1.1587,-1.099104,-0.473692,0.3456986,-0.1342547,0.9416347,-1.879185,-23.79983,-23.49379
56.315000534,1.220926,-0.3333195,-0.4126328,0.3544383,-0.132277,0.9387662,-1.879185,-23.79983,-23.49379
56.325131416,1.1587,0.4913717,-0.1683962,0.3456354,-0.1265428,0.9382733,-1.879185,-23.79983,-23.49379
56.335261345,1.407604,1.551689,-0.04627782,0.3383148,-0.1255661,0.9454947,-1.879185,-23.79983,-23.49379
56.34539175,1.283152,1.728409,0.0758405,0.3305992,-0.1323972,0.9459427,-1.879185,-23.79983,-23.49379
56.355521679,1.283152,1.551689,0.0758405,0.3217998,-0.1285504,0.9507537,-2.971348,-24.15523,-23.4984
56.365652084,1.220926,0.903717299999997,0.1368997,0.3135214,-0.1285667,0.9560404,-2.971348,-24.15523,-23.4984
56.37578249,0.847570199999998,0.1968391,-0.04627782,0.3126304,-0.1358768,0.9511968,-2.971348,-24.15523,-23.4984
56.385912418,0.2875367,-0.3333195,-0.107337,0.3180352,-0.1421216,0.9516799,-2.971348,-24.15523,-23.4984
56.396043301,-0.4591747,-0.5689455,-0.107337,0.3258735,-0.1464819,0.9444525,-2.971348,-24.15523,-23.4984
56.406173229,-0.832530500000003,-0.686758599999998,-0.107337,0.3287867,-0.1469167,0.9473544,-2.242342,-24.1538,-23.11234
56.416303635,-0.708078500000002,-0.745665100000002,-0.2294553,0.3282484,-0.1406515,0.9449537,-2.242342,-24.1538,-23.11234
56.426433563,-0.2724968,-0.3333195,-0.04627782,0.3287134,-0.1372954,0.9411017,-2.242342,-24.1538,-23.11234
56.436563492,-0.1480449,-0.1566,-0.04627782,0.3306791,-0.1396954,0.9415843,-2.242342,-24.1538,-23.11234
56.446694374,0.1630848,0.0790261,0.1368997,0.326769,-0.1373106,0.9410967,-2.242342,-24.1538,-23.11234
56.456824303,0.03863291,0.3146522,0.3200772,0.3243678,-0.1421161,0.9468707,-2.622152,-23.42638,-23.12749
56.466955185,-0.3969488,0.1379326,0.4421955,0.3288026,-0.1469693,0.9415638,-2.622152,-23.42638,-23.12749
56.477085114,-0.3969488,-0.1566,0.259018,0.3268654,-0.1474771,0.9405925,-2.622152,-23.42638,-23.12749
56.487215042,-0.5214007,-0.392226,0.3200772,0.3302511,-0.1464565,0.9434988,-2.622152,-23.42638,-23.12749
56.494812966,-0.3969488,-0.3333195,0.3200772,0.32782,-0.1460046,0.9420458,-2.622152,-23.42638,-23.12749
56.504942894,-0.4591747,-0.5689455,0.3200772,0.3303064,-0.1508599,0.9381815,-2.600838,-24.16482,-23.93721
56.5150733,0.03863291,-0.5689455,0.259018,0.3336871,-0.1488845,0.939642,-2.600838,-24.16482,-23.93721
56.525203705,-0.0858189900000001,-0.510039,0.1979588,0.3351635,-0.1484637,0.9314435,-2.600838,-24.16482,-23.93721
56.53533411,-0.645852599999998,-0.03878693,-0.1683962,0.3385455,-0.1488378,0.9406197,-2.600838,-24.16482,-23.93721
56.545464039,-0.770304599999999,0.3146522,-0.1683962,0.3390252,-0.147875,0.9396579,-2.600838,-24.16482,-23.93721
56.555594921,-1.019208,0.726997700000001,-0.04627782,0.334149,-0.1473939,0.9435068,-2.245489,-23.79746,-23.49727
56.56572485,-0.894756400000001,1.080437,0.01478134,0.3254366,-0.1513379,0.9429933,-2.245489,-23.79746,-23.49727
56.575854778,-0.5214007,0.903717299999997,0.1368997,0.3206496,-0.1581857,0.9391059,-2.245489,-23.79746,-23.49727
56.585985184,-0.0858189900000001,0.4324652,0.0758405,0.3250866,-0.164922,0.9395853,-2.245489,-23.79746,-23.49727
56.596115112,0.3497626,-0.09769344,-0.04627782,0.3236616,-0.1697331,0.9439143,-2.245489,-23.79746,-23.49727
56.606245994,0.4119886,-0.4511325,-0.107337,0.322696,-0.1697626,0.9414991,-2.245489,-23.79746,-23.49727
56.616375923,0.4119886,-0.804571599999999,-0.2294553,0.3206622,-0.1633861,0.9526061,-2.245489,-23.79746,-23.49727
56.626506805,-0.0858189900000001,-0.745665100000002,-0.107337,0.3206531,-0.1600732,0.9444098,-2.245489,-23.79746,-23.49727
56.636636734,-0.5214007,-1.158011,-0.107337,0.3322703,-0.1527847,0.9376998,-2.245489,-23.79746,-23.49727
56.646766663,-0.708078500000002,-0.804571599999999,-0.04627782,0.3405091,-0.1493548,0.9353157,-2.245489,-23.79746,-23.49727
56.656897068,-0.3347228,-0.274413,0.0758405,0.3458527,-0.1497706,0.9382238,-2.611795,-23.79508,-23.50075
56.667026997,0.1008589,0.5502782,0.1368997,0.3467672,-0.1444137,0.941133,-2.611795,-23.79508,-23.50075
56.677157879,1.096474,1.080437,0.1368997,0.3327061,-0.1469871,0.9362657,-2.611795,-23.79508,-23.50075
56.684755325,1.407604,1.19825,0.1368997,0.3272961,-0.1430699,0.9459112,-2.611795,-23.79508,-23.50075
56.694885731,1.220926,0.726997700000001,0.0758405,0.3243902,-0.1454728,0.9502414,-2.611795,-23.79508,-23.50075
56.705015659,0.723118299999999,0.4324652,-0.2905145,0.3132505,-0.1499153,0.9502032,-2.980646,-23.4374,-23.95236
56.715146542,-0.1480449,0.02011959,-0.4126328,0.3083828,-0.1499313,0.9526033,-2.980646,-23.4374,-23.95236
56.72527647,-0.3969488,-0.686758599999998,-0.6568695,0.3044367,-0.142738,0.9487482,-2.980646,-23.4374,-23.95236
56.735406399,-0.770304599999999,-1.158011,-0.473692,0.3218536,-0.1315415,0.9410964,-2.980646,-23.4374,-23.95236
56.745536804,-1.14366,-1.33473,-0.2294553,0.3456522,-0.126129,0.9305534,-2.980646,-23.4374,-23.95236
56.755666733,-0.956982400000001,-1.275824,0.1979588,0.3635605,-0.1172913,0.9291709,-2.60759,-23.8023,-23.94304
56.765797615,-0.894756400000001,-0.4511325,0.4421955,0.3738069,-0.1239031,0.9383516,-2.60759,-23.8023,-23.94304
56.775927544,-0.4591747,0.4913717,0.625373,0.3714392,-0.1302261,0.9368842,-2.60759,-23.8023,-23.94304
56.786057472,-0.2102709,1.374969,0.686432199999999,0.3632409,-0.1366034,0.9344367,-2.60759,-23.8023,-23.94304
56.796188354,-0.708078500000002,2.258567,0.686432199999999,0.3448015,-0.1420137,0.9406505,-2.617422,-23.49298,-23.50562
56.806318283,-1.45479,2.788726,0.3811364,0.3268409,-0.1469275,0.9478319,-2.617422,-23.49298,-23.50562
56.816448688,-2.201501,2.847632,-0.107337,0.3162697,-0.1619553,0.9540455,-2.617422,-23.49298,-23.50562
56.826578617,-2.450405,2.435287,-0.2905145,0.29645,-0.1742,0.9549332,-2.617422,-23.49298,-23.50562
56.836709499,-1.890372,1.728409,-0.2905145,0.2969302,-0.1737079,0.955418,-2.617422,-23.49298,-23.50562
56.846839428,-1.081434,0.726997700000001,-0.901106100000001,0.3027527,-0.1712822,0.9510952,-1.519632,-23.43969,-23.49615
56.856969357,-0.5214007,-0.09769344,-0.840047,0.309967,-0.1592458,0.9381109,-1.519632,-23.43969,-23.49615
56.867099762,-0.0858189900000001,-1.040198,-0.840047,0.3263904,-0.1479867,0.9381775,-1.519632,-23.43969,-23.49615
56.874697208,0.03863291,-1.33473,-0.840047,0.3361118,-0.1483773,0.9401319,-1.519632,-23.43969,-23.49615
56.884828091,0.2875367,-1.099104,-0.778987800000001,0.3399956,-0.1497373,0.9468946,-1.519632,-23.43969,-23.49615
56.894958019,0.1008589,-0.09769344,-0.6568695,0.3399939,-0.1459799,0.9343566,-2.611795,-23.79508,-23.50075
56.905088425,-0.3347228,0.962623800000001,-0.5347512,0.3449405,-0.1570106,0.9411012,-2.611795,-23.79508,-23.50075
56.915218353,-1.268112,1.610596,-0.6568695,0.3429236,-0.1492832,0.9411126,-2.611795,-23.79508,-23.50075
56.925349236,-1.76592,1.905128,-0.595810300000002,0.3285192,-0.1678077,0.938623,-2.611795,-23.79508,-23.50075
56.935479164,-2.014823,1.964034,-0.5347512,0.3144147,-0.1660171,0.9347301,-2.611795,-23.79508,-23.50075
56.945609093,-1.392564,1.551689,-0.5347512,0.3120233,-0.1713241,0.9385728,-2.611795,-23.79508,-23.50075
56.955739975,-0.2102709,1.19825,-0.473692,0.3120593,-0.1761325,0.9419404,-2.611795,-23.79508,-23.50075
56.965869904,0.4742145,0.726997700000001,-0.778987800000001,0.3115452,-0.1736992,0.9438745,-2.611795,-23.79508,-23.50075
56.976000309,1.096474,0.1379326,-0.901106100000001,0.3152846,-0.1576997,0.9439186,-2.611795,-23.79508,-23.50075
56.986130238,1.096474,-0.09769344,-0.840047,0.3229886,-0.149892,0.9444377,-2.611795,-23.79508,-23.50075
56.99626112,1.034248,-0.4511325,-0.840047,0.3282321,-0.139191,0.945922,-2.24691,-23.50257,-23.94442
57.006391048,0.660892400000002,-0.4511325,-0.778987800000001,0.3325919,-0.1362928,0.9415965,-2.24691,-23.50257,-23.94442
57.016520977,0.1008589,-0.5689455,-0.6568695,0.3389925,-0.1458911,0.9449702,-2.24691,-23.50257,-23.94442
57.026651382,-0.3969488,-0.392226,-0.3515736,0.3347206,-0.1561137,0.9420419,-2.24691,-23.50257,-23.94442
57.036781788,-0.2102709,-0.5689455,0.01478134,0.3298739,-0.157137,0.940097,-2.24691,-23.50257,-23.94442
57.046912193,0.2875367,-0.510039,0.4421955,0.3333312,-0.1619803,0.9367177,-2.241283,-23.80467,-23.93956
57.057042122,0.4742145,-0.274413,0.4421955,0.3285498,-0.1702535,0.9357225,-2.241283,-23.80467,-23.93956
57.067173004,0.598666400000001,-0.09769344,0.3200772,0.3338692,-0.1668375,0.9342959,-2.241283,-23.80467,-23.93956
57.074769974,0.5364405,-0.09769344,0.5643138,0.3304804,-0.1697237,0.9391064,-2.241283,-23.80467,-23.93956
57.084900856,0.598666400000001,0.02011959,0.3811364,0.3294757,-0.1668103,0.9410403,-2.241283,-23.80467,-23.93956
57.095030785,0.2253108,0.1379326,0.3200772,0.3269669,-0.1585984,0.941534,-2.619005,-23.78272,-22.74255
57.105160713,0.4119886,0.1379326,0.259018,0.3225096,-0.1503885,0.9434704,-2.619005,-23.78272,-22.74255
57.115291595,0.4119886,-0.03878693,0.5643138,0.3175487,-0.1407175,0.9468562,-2.619005,-23.78272,-22.74255
57.125421524,0.5364405,-0.4511325,0.808550499999999,0.3174622,-0.1333974,0.9536273,-2.619005,-23.78272,-22.74255
57.13555193,0.4119886,-0.627852100000001,0.625373,0.3266894,-0.1314203,0.9502776,-2.619005,-23.78272,-22.74255
57.145681858,0.4119886,-0.3333195,0.686432199999999,0.3378746,-0.1308798,0.9469298,-2.242342,-24.1538,-23.11234
57.155811787,-0.02359304,-0.1566,0.3811364,0.3427452,-0.1299354,0.9401886,-2.242342,-24.1538,-23.11234
57.165942669,-0.5214007,0.2557456,0.259018,0.3456634,-0.1313249,0.9445361,-2.242342,-24.1538,-23.11234
57.176072598,-0.770304599999999,0.4913717,0.0758405,0.3389517,-0.1415359,0.9449794,-2.242342,-24.1538,-23.11234
57.186203003,-0.2724968,0.3146522,-0.04627782,0.3350448,-0.1396306,0.9449735,-2.242342,-24.1538,-23.11234
57.196333408,-0.3969488,0.3146522,-0.04627782,0.3273385,-0.1464924,0.9420435,-2.973894,-23.79992,-23.94652
57.206463814,-0.4591747,0.785904300000002,0.1979588,0.3294182,-0.1605238,0.9405711,-2.973894,-23.79992,-23.94652
57.216593742,-1.019208,0.962623800000001,0.1368997,0.3246205,-0.1673366,0.9405441,-2.973894,-23.79992,-23.94652
57.226723671,-1.081434,0.785904300000002,0.1368997,0.3222163,-0.1683803,0.9342625,-2.973894,-23.79992,-23.94652
57.236854553,-0.832530500000003,0.785904300000002,0.259018,0.3236581,-0.1678456,0.9386103,-2.973894,-23.79992,-23.94652
57.246984482,-0.645852599999998,0.785904300000002,0.259018,0.3260079,-0.1586498,0.9367059,-1.865681,-24.52487,-23.48212
57.257114887,-0.4591747,0.785904300000002,0.1979588,0.3317642,-0.1503777,0.9367386,-1.865681,-24.52487,-23.48212
57.264712334,-0.3347228,0.4913717,0.0758405,0.3273816,-0.1517935,0.944445,-1.865681,-24.52487,-23.48212
57.274843216,-0.4591747,0.4913717,0.259018,0.3263721,-0.1493333,0.9497557,-1.865681,-24.52487,-23.48212
57.284973145,-0.5214007,0.668091199999998,0.01478134,0.3186171,-0.1518136,0.9497304,-1.865681,-24.52487,-23.48212
57.29510355,-0.2102709,0.3735587,0.259018,0.3152442,-0.1547524,0.9487503,-1.879185,-23.79983,-23.49379
57.305233479,-0.0858189900000001,0.4324652,0.5032547,0.3138261,-0.1586483,0.9472906,-1.879185,-23.79983,-23.49379
57.315364361,-0.02359304,0.2557456,0.747491399999998,0.3206057,-0.1533509,0.9386336,-1.879185,-23.79983,-23.49379
57.325494289,-0.0858189900000001,0.2557456,0.625373,0.3278395,-0.1479447,0.9415592,-1.879185,-23.79983,-23.49379
57.335624218,-0.3969488,0.3146522,0.5032547,0.3390628,-0.1517506,0.9391672,-1.879185,-23.79983,-23.49379
57.345754623,-0.2724968,0.785904300000002,0.259018,0.3311945,-0.1444782,0.9473658,-2.6154,-23.7889,-23.12165
57.355885029,-0.2724968,1.139343,0.3200772,0.323849,-0.140136,0.9521818,-2.6154,-23.7889,-23.12165
57.366015434,0.03863291,1.374969,0.259018,0.320463,-0.1420939,0.9526514,-2.6154,-23.7889,-23.12165
57.376145363,0.2875367,0.785904300000002,0.4421955,0.3117584,-0.1470013,0.9526184,-2.6154,-23.7889,-23.12165
57.386275292,0.2875367,0.4324652,0.625373,0.3108373,-0.1523363,0.952122,-2.6154,-23.7889,-23.12165
57.396406174,0.2875367,-0.1566,0.5032547,0.3055429,-0.1567727,0.9477558,-2.618547,-23.43256,-23.50659
57.406536102,0.4119886,-0.686758599999998,0.5643138,0.3167656,-0.1601079,0.9439172,-2.618547,-23.43256,-23.50659
57.416666508,0.4119886,-0.863478099999997,0.808550499999999,0.3210652,-0.1532595,0.948286,-2.618547,-23.43256,-23.50659
57.426796436,0.4119886,-0.745665100000002,0.5643138,0.3332309,-0.1541456,0.9468678,-2.618547,-23.43256,-23.50659
57.436927319,0.2875367,-0.686758599999998,0.4421955,0.3380533,-0.1492905,0.9444779,-2.618547,-23.43256,-23.50659
57.447057247,-0.0858189900000001,-0.274413,0.3811364,0.3350174,-0.1376642,0.9483555,-2.251116,-23.49536,-23.50214
57.45718813,-0.2724968,0.02011959,0.3200772,0.3272466,-0.1368097,0.9425467,-2.251116,-23.49536,-23.50214
57.464785099,-0.3347228,0.3146522,0.4421955,0.3321795,-0.1440436,0.9410962,-2.251116,-23.49536,-23.50214
57.474915981,-0.1480449,0.3146522,0.3811364,0.3361304,-0.1507837,0.9415745,-2.251116,-23.49536,-23.50214
57.48504591,0.1630848,0.6091847,0.3811364,0.3362511,-0.1624371,0.9372067,-2.251116,-23.49536,-23.50214
57.495175839,0.3497626,0.5502782,0.4421955,0.339723,-0.1696736,0.9367176,-2.252241,-23.43494,-23.50311
57.505306244,0.4119886,0.785904300000002,0.259018,0.3354336,-0.1784313,0.9352401,-2.252241,-23.43494,-23.50311
57.515436649,0.660892400000002,0.844810799999999,0.01478134,0.3398186,-0.1779615,0.9299443,-2.252241,-23.43494,-23.50311
57.525567055,0.972022199999999,0.6091847,0.1368997,0.3339934,-0.1803784,0.9352322,-2.252241,-23.43494,-23.50311
57.535696983,0.909796199999998,0.3146522,0.1368997,0.3256702,-0.1760263,0.9419757,-1.88279,-23.79365,-23.11469
57.545827866,0.785344400000002,0.0790261,-0.1683962,0.3173772,-0.1736493,0.9443722,-1.88279,-23.79365,-23.11469
57.555957794,0.660892400000002,0.02011959,0.0758405,0.3139949,-0.1765575,0.94677,-1.88279,-23.79365,-23.11469
57.566087723,0.660892400000002,-0.392226,0.0758405,0.3164358,-0.1751656,0.9380934,-1.88279,-23.79365,-23.11469
57.576218128,0.847570199999998,-0.922384600000001,0.1979588,0.3237377,-0.1760809,0.9376277,-1.88279,-23.79365,-23.11469
57.586348057,1.220926,-1.33473,0.3200772,0.325167,-0.1726909,0.9366736,-2.238737,-24.15998,-23.49144
57.596478939,1.718734,-1.393637,0.5643138,0.3294605,-0.1662914,0.9449018,-2.238737,-24.15998,-23.49144
57.606608868,2.403219,-1.216917,0.5032547,0.3371907,-0.1571634,0.9309474,-2.238737,-24.15998,-23.49144
57.61673975,2.403219,-0.745665100000002,0.3811364,0.343399,-0.1468993,0.936776,-2.238737,-24.15998,-23.49144
57.626869678,2.154315,-0.09769344,0.686432199999999,0.3447775,-0.1395897,0.9411383,-2.238737,-24.15998,-23.49144
57.636999607,1.46983,0.6091847,0.9306688,0.3442357,-0.1337822,0.9416319,-2.241283,-23.80467,-23.93956
57.647130012,1.594282,1.139343,0.747491399999998,0.327249,-0.1377556,0.9449574,-2.241283,-23.80467,-23.93956
57.654727459,1.594282,1.551689,0.991727900000002,0.3292086,-0.1382594,0.941101,-2.241283,-23.80467,-23.93956
57.664857864,1.220926,2.022941,0.686432199999999,0.3248547,-0.1416459,0.9449429,-2.241283,-23.80467,-23.93956
57.67498827,1.096474,1.433876,0.0758405,0.3146385,-0.1416993,0.9478117,-2.241283,-23.80467,-23.93956
57.685118675,1.096474,0.726997700000001,-0.3515736,0.3184568,-0.1344015,0.9488023,-2.611795,-23.79508,-23.50075
57.695248604,0.785344400000002,-0.1566,-0.717928600000002,0.3199151,-0.1367352,0.9570044,-2.611795,-23.79508,-23.50075
57.705379486,0.847570199999998,-0.09769344,-1.145343,0.3310686,-0.1328073,0.9536637,-2.611795,-23.79508,-23.50075
57.715509415,0.972022199999999,-0.1566,-1.084284,0.3281038,-0.1265742,0.9498091,-2.611795,-23.79508,-23.50075
57.72563982,1.096474,-0.1566,-1.267461,0.3291018,-0.1271206,0.9420897,-2.611795,-23.79508,-23.50075
57.735769749,0.847570199999998,0.2557456,-1.145343,0.3275689,-0.1198514,0.9445141,-2.252241,-23.43494,-23.50311
57.745899677,0.2253108,0.962623800000001,-0.9621653,0.334385,-0.1198333,0.9406714,-2.252241,-23.43494,-23.50311
57.756030559,-0.583626599999998,1.316063,-0.901106100000001,0.3368099,-0.1183889,0.9377854,-2.252241,-23.43494,-23.50311
57.766160488,-1.14366,1.610596,-0.9621653,0.3368919,-0.1275701,0.9392136,-2.252241,-23.43494,-23.50311
57.776290894,-1.330338,1.551689,-0.840047,0.3315813,-0.1328911,0.944014,-2.252241,-23.43494,-23.50311
57.786421299,-1.330338,2.022941,-0.717928600000002,0.3170426,-0.1383104,0.945895,-2.252699,-23.78509,-22.73907
57.796551704,-0.894756400000001,1.610596,-0.717928600000002,0.3117352,-0.144111,0.9511768,-2.252699,-23.78509,-22.73907
57.806681633,-0.5214007,1.551689,-0.595810300000002,0.3021722,-0.1615946,0.9525623,-2.252699,-23.78509,-22.73907
57.816811562,-0.1480449,1.257156,-0.2905145,0.2984428,-0.1771584,0.9472111,-2.252699,-23.78509,-22.73907
57.826942444,0.2253108,0.668091199999998,-0.107337,0.2965586,-0.1858139,0.9549085,-2.252699,-23.78509,-22.73907
57.837072372,0.660892400000002,-0.274413,-0.1683962,0.2994792,-0.1858043,0.9534683,-2.618547,-23.43256,-23.50659
57.847202778,0.785344400000002,-1.33473,-0.2905145,0.305208,-0.1732208,0.9486847,-2.618547,-23.43256,-23.50659
57.854800224,0.4742145,-1.747076,-0.2905145,0.3109467,-0.1611388,0.9419698,-2.618547,-23.43256,-23.50659
57.864931107,-0.1480449,-2.100515,-0.2905145,0.3229936,-0.1485016,0.9376851,-2.618547,-23.43256,-23.50659
57.875061035,-0.832530500000003,-2.277235,0.01478134,0.341412,-0.1420841,0.9358162,-2.618547,-23.43256,-23.50659
57.885191441,-1.081434,-1.452543,0.3811364,0.3501459,-0.1396181,0.9334312,-2.6154,-23.7889,-23.12165
57.895321369,-0.894756400000001,-0.274413,0.747491399999998,0.3501448,-0.1386766,0.930538,-2.6154,-23.7889,-23.12165
57.905451298,0.03863291,0.668091199999998,0.869609699999998,0.3365547,-0.1430723,0.9377317,-2.6154,-23.7889,-23.12165
57.91558218,0.660892400000002,1.374969,1.297024,0.325931,-0.1504233,0.9367234,-2.6154,-23.7889,-23.12165
57.925712109,1.1587,1.669502,1.052787,0.3181744,-0.1538363,0.9405565,-2.6154,-23.7889,-23.12165
57.935842514,1.283152,1.433876,1.297024,0.3094612,-0.1582467,0.9419721,-2.241283,-23.80467,-23.93956
57.945972919,1.034248,0.4913717,0.9306688,0.308533,-0.1654341,0.9506402,-2.241283,-23.80467,-23.93956
57.956103325,0.723118299999999,-0.510039,0.3811364,0.3094424,-0.1614676,0.9603021,-2.241283,-23.80467,-23.93956
57.966233253,0.5364405,-1.747076,-0.107337,0.3045667,-0.1591122,0.9573992,-2.241283,-23.80467,-23.93956
57.976364136,0.5364405,-2.571767,-0.6568695,0.3123419,-0.1557605,0.9468104,-2.241283,-23.80467,-23.93956
57.986494064,0.3494061,-2.923387,-0.900597600000001,0.3321209,-0.1368156,0.9377338,-2.608648,-24.15142,-23.11582
57.996623993,0.03813064,-2.919623,-0.960583000000001,0.3436966,-0.1256383,0.9329621,-2.608648,-24.15142,-23.11582
58.006754398,-0.3972449,-1.91497,-0.34913,0.3509932,-0.1265361,0.9344267,-2.608648,-24.15142,-23.11582
58.016884327,-0.2100876,-0.793840699999997,-0.04337652,0.3505514,-0.1327826,0.9397201,-2.608648,-24.15142,-23.11582
58.027015209,0.1634733,0.620172699999998,0.3840154,0.3443745,-0.1473712,0.9372601,-2.608648,-24.15142,-23.11582
58.037145138,0.4741827,1.502566,0.3836481,0.3322538,-0.1522614,0.9420438,-2.249094,-23.79128,-23.11817
58.044743061,0.909063599999999,1.913348,0.3832291,0.3146932,-0.1489142,0.9526218,-2.249094,-23.79128,-23.11817
58.05487299,0.658998299999997,1.969777,0.4437302,0.2990789,-0.1450898,0.9607931,-2.249094,-23.79128,-23.11817
58.065003872,0.1605584,1.025243,0.1990705,0.2942248,-0.1442125,0.9549919,-2.249094,-23.79128,-23.11817
58.075133801,-0.648209199999998,-0.3302843,0.1377421,0.3034818,-0.1451477,0.9506708,-2.249094,-23.79128,-23.11817
58.085264206,-1.082684,-1.44852,-0.1065717,0.319113,-0.1523113,0.9478004,-2.238737,-24.15998,-23.49144
58.095394135,-1.081246,-1.976433,-0.1063803,0.3302245,-0.1440237,0.9449516,-2.238737,-24.15998,-23.49144
58.10552454,-0.644422999999999,-2.386056,-0.04518753,0.3423888,-0.1425604,0.9358177,-2.238737,-24.15998,-23.49144
58.115654945,-0.3326597,-2.029731,0.07698755,0.3554912,-0.1391012,0.9324811,-2.238737,-24.15998,-23.49144
58.125784874,-0.4566938,-1.379302,0.3820908,0.3588729,-0.1357223,0.9286367,-2.238737,-24.15998,-23.49144
58.135915756,-0.767132600000003,-0.55323,0.4425933,0.3583673,-0.1337861,0.929122,-2.238737,-24.15998,-23.49144
58.146045685,-0.952710200000001,0.1540284,1.113285,0.348189,-0.1391231,0.9363226,-2.238737,-24.15998,-23.49144
58.15617609,-1.324537,1.154709,1.356066,0.3443734,-0.1487748,0.9425651,-2.238737,-24.15998,-23.49144
58.166306019,-1.198421,1.683103,1.537406,0.3362176,-0.1609196,0.9444481,-2.238737,-24.15998,-23.49144
58.176435947,-1.072621,1.857505,1.596381,0.3149378,-0.1717633,0.9409921,-2.238737,-24.15998,-23.49144
58.18656683,-0.5115329,1.501899,1.350235,0.3149112,-0.1693306,0.9424449,-2.254721,-23.48917,-23.12303
58.196696758,-0.01339547,0.911299,1.104475,0.3047573,-0.1752172,0.9424061,-2.254721,-23.48917,-23.12303
58.206827641,0.359723,0.1447768,0.6149788,0.2964734,-0.1761532,0.9529988,-2.254721,-23.48917,-23.12303
58.216957569,0.2347997,-0.3265646,-0.05725271,0.2924841,-0.1660038,0.9549406,-2.254721,-23.48917,-23.12303
58.227087975,0.2966916,-0.738407499999998,-0.4844799,0.3031123,-0.1567917,0.9477495,-2.6154,-23.7889,-23.12165
58.237217903,0.2341321,-1.208455,-0.911112899999997,0.3128027,-0.1509833,0.9395836,-2.6154,-23.7889,-23.12165
58.244815826,0.1717442,-1.56057,-1.154453,0.3307111,-0.1421456,0.9382012,-2.6154,-23.7889,-23.12165
58.254945755,0.04709609,-1.676386,-1.39722,0.3461735,-0.1337451,0.9440497,-2.6154,-23.7889,-23.12165
58.265076637,-0.0774931299999998,-1.085437,-1.395484,0.3505019,-0.1288674,0.9445539,-2.6154,-23.7889,-23.12165
58.275206566,-0.3881933,-0.0833107300000003,-1.332711,0.3617659,-0.1370286,0.9421527,-2.6154,-23.7889,-23.12165
58.285336495,-0.2011061,0.976630199999999,-1.636199,0.3515707,-0.1380893,0.9406765,-1.868227,-24.16957,-23.93025
58.295467377,-0.2009316,1.446526,-1.451138,0.3380383,-0.1454893,0.9367653,-1.868227,-24.16957,-23.93025
58.305597305,-0.2629052,1.856888,-1.022151,0.3269122,-0.1513835,0.9367239,-1.868227,-24.16957,-23.93025
58.315727711,-0.4491746,1.501209,-0.715667099999999,0.312905,-0.1616382,0.938596,-1.868227,-24.16957,-23.93025
58.325857639,-0.945988199999999,1.087089,-0.3484515,0.3109704,-0.1621548,0.9366596,-2.241283,-23.80467,-23.93956
58.335988522,-0.944799900000002,0.732488100000001,-0.1039115,0.3159126,-0.1694194,0.9318313,-2.241283,-23.80467,-23.93956
58.34611845,-0.2594991,0.2017425,-0.1038576,0.3279598,-0.1605352,0.9405673,-2.241283,-23.80467,-23.93956
58.356248856,0.1763303,0.02486205,0.2013577,0.3375908,-0.1503103,0.9391665,-2.241283,-23.80467,-23.93956
58.366379261,0.3627281,0.2602164,0.3231657,0.3331741,-0.1473927,0.9444693,-2.241283,-23.80467,-23.93956
58.37650919,0.486568,0.613125100000001,0.2616814,0.3331501,-0.1449688,0.9449571,-2.6154,-23.7889,-23.12165
58.386639595,0.2992399,1.02446,0.01732701,0.3350195,-0.1372022,0.9459437,-2.6154,-23.7889,-23.12165
58.396769524,-0.0742961900000002,1.376335,0.0784603200000002,0.3276868,-0.131496,0.9411116,-2.6154,-23.7889,-23.12165
58.406900406,-0.696130199999998,1.904487,-0.2877439,0.3204414,-0.1382708,0.9473515,-2.6154,-23.7889,-23.12165
58.417030335,-1.690402,2.078778,-0.4704449,0.3160995,-0.1440417,0.9550487,-2.6154,-23.7889,-23.12165
58.42716074,-2.061459,1.899558,-1.019118,0.3107311,-0.1416683,0.9545574,-1.884811,-23.49773,-23.49866
58.434758186,-2.308342,1.42672,-1.323492,0.3108072,-0.1480161,0.9482708,-1.884811,-23.49773,-23.49866
58.444889069,-2.305384,0.895028100000002,-1.321906,0.321494,-0.1460321,0.9444422,-1.884811,-23.49773,-23.49866
58.455018997,-1.431716,0.893959499999997,-1.442345,0.3292602,-0.1440576,0.9420537,-1.884811,-23.49773,-23.49866
58.465149403,-0.745823000000002,1.128463,-1.440591,0.3253256,-0.1411231,0.9488056,-1.884811,-23.49773,-23.49866
58.475279331,-0.2473912,1.657185,-1.194679,0.3219635,-0.1431599,0.9405892,-2.238737,-24.15998,-23.49144
58.48540926,-0.1848936,1.655141,-1.010001,0.3161304,-0.1455505,0.9487723,-2.238737,-24.15998,-23.49144
58.495540142,-0.3713392,1.476416,-0.886556699999999,0.3055823,-0.1611236,0.9482291,-2.238737,-24.15998,-23.49144
58.505670071,-0.806415400000001,0.944699399999999,-0.580051399999998,0.3109632,-0.1640072,0.9458241,-2.238737,-24.15998,-23.49144
58.515800476,-1.05415,0.1193211,-0.7624045,0.3125415,-0.1784607,0.9515877,-2.238737,-24.15998,-23.49144
58.525930882,-1.301612,-0.5284674,-0.700483600000003,0.3144765,-0.1760698,0.9467723,-2.243305,-23.50875,-24.32352
58.536061287,-1.362223,-0.8222991,-0.577523799999998,0.3198409,-0.176085,0.9405129,-2.243305,-23.50875,-24.32352
58.546191216,-1.173815,-0.821358699999997,-0.637876699999999,0.3197874,-0.1698116,0.9385961,-2.243305,-23.50875,-24.32352
58.556322098,-0.4881284,-0.879141099999999,-0.2099681,0.3235732,-0.1595928,0.9415232,-2.243305,-23.50875,-24.32352
58.566452026,-0.176581,-0.4660243,-0.1486453,0.3298411,-0.1528081,0.9372109,-2.243305,-23.50875,-24.32352
58.576581955,0.2589489,0.3589377,0.1566647,0.3345906,-0.1420846,0.9415892,-2.245489,-23.79746,-23.49727
58.586712361,0.1964954,0.6529639,0.4616678,0.3316732,-0.1425738,0.9435108,-2.245489,-23.79746,-23.49727
58.596842289,-0.1769508,0.8876218,0.583072099999998,0.3234033,-0.1430871,0.9473487,-2.245489,-23.79746,-23.49727
58.606973171,-0.3012586,0.768749499999997,0.704381299999998,0.3166002,-0.1440862,0.9497418,-2.245489,-23.79746,-23.49727
58.6171031,-0.674060000000001,0.4145298,0.642437399999999,0.3191149,-0.1527864,0.9487645,-2.245489,-23.79746,-23.49727
58.624701023,-0.984457100000002,0.2374382,0.641793699999998,0.3181911,-0.1557676,0.9410349,-2.252241,-23.43494,-23.50311
58.634830952,-1.169859,0.00160639,0.3357877,0.3274471,-0.1581063,0.9420189,-2.252241,-23.43494,-23.50311
58.644961834,-0.857377399999998,-0.5280362,0.2743834,0.3245513,-0.1600735,0.9410421,-2.252241,-23.43494,-23.50311
58.655091762,-0.4209143,-0.4096155,0.0908037899999999,0.3225605,-0.154308,0.938154,-2.252241,-23.43494,-23.50311
58.665222168,-0.04712757,0.003096629,0.1517681,0.3235532,-0.157182,0.9405631,-2.252241,-23.43494,-23.50311
58.675352096,0.2018354,0.2388298,0.0905374399999997,0.3284388,-0.1600388,0.9415348,-2.241283,-23.80467,-23.93956
58.685482979,-0.2959912,0.591802400000001,0.2125037,0.3225366,-0.1542291,0.94684,-2.241283,-23.80467,-23.93956
58.695612907,-0.4200323,0.591096100000003,0.3343743,0.3211589,-0.1610723,0.9405486,-2.241283,-23.80467,-23.93956
58.705742836,-0.481672,0.1782855,0.578190999999998,0.3172291,-0.1576845,0.9439236,-2.241283,-23.80467,-23.93956
58.715873718,-0.667705800000003,0.0602855500000001,0.882626299999999,0.3152758,-0.1557947,0.9405448,-2.241283,-23.80467,-23.93956
58.726003647,-0.3559132,-0.1752867,1.186852,0.3202189,-0.164938,0.9419855,-2.238737,-24.15998,-23.49144
58.736134052,-0.04443416,-0.292824,1.246535,0.3182088,-0.1595775,0.9477825,-2.238737,-24.15998,-23.49144
58.746263981,-0.04437834,-0.2335497,1.244835,0.316231,-0.154793,0.9434447,-2.238737,-24.15998,-23.49144
58.756394863,-0.0443617,-0.1155544,1.548529,0.3153118,-0.1606032,0.9439124,-2.238737,-24.15998,-23.49144
58.766524792,0.01784179,-0.4098493,1.424523,0.3152935,-0.1596047,0.9472923,-2.238737,-24.15998,-23.49144
58.77665472,0.2045168,-0.880364499999999,1.300654,0.320154,-0.159096,0.9458584,-2.241283,-23.80467,-23.93956
58.786785126,0.01758207,-0.9969793,1.05488,0.3220536,-0.1547124,0.9473203,-2.241283,-23.80467,-23.93956
58.796915531,0.3906225,-1.172317,1.114652,0.3288472,-0.1546199,0.951681,-2.241283,-23.80467,-23.93956
58.807045937,0.763350700000001,-1.347601,1.052346,0.3288735,-0.1556447,0.9454057,-2.241283,-23.80467,-23.93956
58.817175865,0.824754700000001,-1.463611,0.806998999999999,0.3236017,-0.1625006,0.9410344,-2.241283,-23.80467,-23.93956
58.824773788,0.886203500000002,-1.580119,0.806257799999998,0.3288895,-0.1580423,0.9478133,-2.241283,-23.80467,-23.93956
58.834903717,1.196064,-1.578245,0.805206800000001,0.3246106,-0.1644901,0.9342771,-2.241283,-23.80467,-23.93956
58.845034599,1.256788,-1.399598,0.926294499999999,0.3241112,-0.16445,0.9391013,-2.241283,-23.80467,-23.93956
58.855164528,1.441848,-1.221158,0.8641102,0.3255445,-0.1634182,0.9448978,-2.241283,-23.80467,-23.93956
58.865294933,1.564391,-0.689631999999998,0.985143100000003,0.3275012,-0.1648504,0.9453824,-2.241283,-23.80467,-23.93956
58.875425339,1.749026,-0.6297483,0.861806699999999,0.3241059,-0.1644325,0.9410315,-2.245489,-23.79746,-23.49727
58.885555744,1.746809,-0.5110703,1.04371,0.3236014,-0.1634378,0.9444101,-2.245489,-23.79746,-23.49727
58.895685673,1.495887,-0.687147899999998,0.737199099999998,0.3244985,-0.1533337,0.937196,-2.245489,-23.79746,-23.49727
58.905815601,1.307487,-1.039576,0.736273199999999,0.3249828,-0.1551999,0.9444314,-2.245489,-23.79746,-23.49727
58.915946484,1.803359,-1.27373,0.3691276,0.3327474,-0.1541582,0.9459015,-2.245489,-23.79746,-23.49727
58.926076412,1.987655,-1.272204,0.2466031,0.337031,-0.1449122,0.9478625,-2.624176,-23.13046,-23.51145
58.936206818,2.171797,-0.9761474,-0.0588298300000002,0.342901,-0.1468636,0.9411178,-2.624176,-23.13046,-23.51145
58.946336746,1.733683,-0.5038171,0.002284065,0.348261,-0.14874,0.9430578,-2.624176,-23.13046,-23.51145
58.956467628,1.296119,-0.2675213,-0.1808387,0.338049,-0.1455243,0.9329048,-2.624176,-23.13046,-23.51145
58.966597557,0.7969373,-0.03165174,-0.2416708,0.3351366,-0.1469682,0.936272,-2.600838,-24.16482,-23.93721
58.976728439,0.858201299999999,-0.0904074799999998,0.002658471,0.3326688,-0.1421743,0.9333807,-2.600838,-24.16482,-23.93721
58.986858368,0.857181999999998,0.1452211,0.1857751,0.3452905,-0.1410815,0.9363109,-2.600838,-24.16482,-23.93721
58.996988773,0.9183509,0.4394048,0.1245785,0.3447983,-0.1415341,0.940169,-2.600838,-24.16482,-23.93721
59.007118702,0.606223900000003,0.968807999999999,0.002361208,0.3375733,-0.1488454,0.9406172,-2.600838,-24.16482,-23.93721
59.014716625,0.4812986,1.144485,-0.1808185,0.3336006,-0.1415645,0.9464132,-2.600838,-24.16482,-23.93721
59.024846554,0.3565549,1.08403,-0.4857722,0.3293004,-0.1479421,0.9405978,-2.249094,-23.79128,-23.11817
59.034976959,0.3560484,1.023744,-0.4851428,0.3253107,-0.139667,0.9492912,-2.249094,-23.79128,-23.11817
59.045107365,0.2933753,0.787016700000003,-0.606575100000002,0.3243662,-0.1430489,0.9507292,-2.249094,-23.79128,-23.11817
59.055237293,0.47945,0.5506611,-0.5446966,0.3278219,-0.1464798,0.9430099,-2.249094,-23.79128,-23.11817
59.065368176,0.789704,0.726670500000003,-0.727113199999998,0.3302013,-0.1411334,0.9435101,-2.251116,-23.49536,-23.50214
59.075498104,0.602347000000001,1.138103,-0.4820016,0.3292206,-0.1406439,0.9449563,-2.251116,-23.49536,-23.50214
59.08562851,0.04181096,1.372281,-0.4203945,0.3310832,-0.1328555,0.9483557,-2.251116,-23.49536,-23.50214
59.095758438,-0.2070672,1.193709,-0.1146282,0.3277649,-0.1406641,0.9439874,-2.251116,-23.49536,-23.50214
59.10588932,-0.4555154,1.368744,-0.1755434,0.3102638,-0.1407963,0.9444245,-2.251116,-23.49536,-23.50214
59.116019249,-0.641562499999999,1.661409,-0.05320461,0.3088273,-0.1436936,0.9463447,-2.245489,-23.79746,-23.49727
59.126149654,-0.2675964,1.247273,-0.05304188,0.294307,-0.1501115,0.9448459,-2.245489,-23.79746,-23.49727
59.13628006,-0.01839556,0.597919600000001,0.0691622599999998,0.3006563,-0.1553195,0.9520893,-2.245489,-23.79746,-23.49727
59.146409988,0.2925619,0.361598,-0.1750846,0.308971,-0.1615196,0.9549927,-2.245489,-23.79746,-23.49727
59.156540394,0.603050500000002,-0.1687927,-0.0528806,0.3139095,-0.1678338,0.9482362,-2.245489,-23.79746,-23.49727
59.166670322,0.788951400000001,-0.4041142,-0.4800749,0.3251301,-0.171631,0.9468093,-2.6154,-23.7889,-23.12165
59.176801205,0.663547599999999,-0.9334137,-0.723536000000001,0.3216259,-0.1605363,0.945859,-2.6154,-23.7889,-23.12165
59.186931133,0.5383209,-0.755614300000001,-1.088637,0.3200897,-0.1504425,0.9396036,-2.6154,-23.7889,-23.12165
59.197061539,0.164504,-0.813534699999999,-1.087193,0.3223605,-0.1334822,0.9401284,-2.6154,-23.7889,-23.12165
59.207191467,0.1021105,-0.636089399999999,-0.7806082,0.3330809,-0.1353606,0.9372568,-2.6154,-23.7889,-23.12165
59.214789867,0.03978838,-0.2822915,-0.6577927,0.3364796,-0.1353209,0.9387133,-2.254721,-23.48917,-23.12303
59.224919796,0.4751636,0.01231805,-0.412845,0.3340347,-0.1343545,0.9406393,-2.254721,-23.48917,-23.12303
59.235050201,0.785598900000001,0.1888556,0.1979968,0.3311567,-0.1391945,0.9430342,-2.254721,-23.48917,-23.12303
59.24518013,0.784651300000001,0.3653379,0.4418505,0.3248658,-0.1421517,0.942529,-2.254721,-23.48917,-23.12303
59.255310059,0.5348987,0.1293824,0.5023163,0.3195954,-0.1513572,0.9458736,-2.254721,-23.48917,-23.12303
59.265440941,0.2232144,-0.04751812,0.867733499999999,0.32007,-0.1494396,0.9434661,-2.238737,-24.15998,-23.49144
59.27557087,0.0984430000000001,-0.2828995,1.049706,0.3161738,-0.1499144,0.947798,-2.238737,-24.15998,-23.49144
59.285701275,0.2227908,-1.047811,0.987481799999998,0.3170792,-0.1435897,0.9507092,-2.238737,-24.15998,-23.49144
59.29583168,-0.2128362,-0.928866600000002,1.047186,0.3155716,-0.1387488,0.9521634,-2.238737,-24.15998,-23.49144
59.305962086,-0.647896400000001,-0.986698999999998,0.801787099999998,0.328669,-0.1343349,0.9473811,-2.238737,-24.15998,-23.49144
59.316092014,-0.895869200000001,-0.926627099999997,0.800703299999999,0.3310409,-0.129433,0.9522233,-2.245489,-23.79746,-23.49727
59.326222897,-1.143491,-0.866630699999999,0.4944977,0.33835,-0.1284959,0.9425932,-2.245489,-23.79746,-23.49727
59.336352825,-1.142075,-0.3945861,0.3717966,0.3320038,-0.1270497,0.9474054,-2.245489,-23.79746,-23.49727
59.346483231,-0.767499400000002,-0.04087347,0.1882863,0.3272147,-0.1343594,0.9459297,-2.245489,-23.79746,-23.49727
59.356613159,-0.828605100000002,-0.2764112,0.1270674,0.322398,-0.1397029,0.947836,-2.245489,-23.79746,-23.49727
59.366744042,-1.014184,-0.1584545,-0.05598205,0.3263225,-0.140728,0.938193,-2.249094,-23.79128,-23.11817
59.37687397,-1.261559,-0.0993673999999998,-0.238955,0.3263817,-0.1484269,0.943002,-2.249094,-23.79128,-23.11817
59.387003899,-1.322142,-0.5114031,-0.2386549,0.325943,-0.1528078,0.9405787,-2.249094,-23.79128,-23.11817
59.397134781,-1.444972,-0.3340783,-0.3603584,0.3250581,-0.1620141,0.9400741,-2.249094,-23.79128,-23.11817
59.404731751,-1.008166,-0.687036000000002,-0.2989597,0.3270635,-0.1678278,0.937654,-2.249094,-23.79128,-23.11817
59.414862633,-0.882428399999998,-0.627266600000002,-0.1155793,0.3257437,-0.1823654,0.9366543,-2.245489,-23.79746,-23.49727
59.424992561,-0.3837079,-0.744236199999999,0.00668425900000002,0.3233739,-0.1891504,0.9375987,-2.245489,-23.79746,-23.49727
59.435122967,0.23876,-0.743264399999998,0.372935,0.3151048,-0.1915424,0.9477057,-2.245489,-23.79746,-23.49727
59.445252895,0.735954899999999,-0.5068343,0.4335257,0.3048521,-0.1839715,0.937562,-2.245489,-23.79746,-23.49727
59.455383778,0.4240181,-0.741712699999997,0.1278771,0.3154439,-0.1718252,0.933755,-2.245489,-23.79746,-23.49727
59.465513706,-0.5094151,-0.740633099999999,0.1886414,0.3313599,-0.1581548,0.9333429,-2.251116,-23.49536,-23.50214
59.475644589,-0.5707667,-1.210585,0.2493678,0.3473683,-0.1546378,0.9338743,-2.251116,-23.49536,-23.50214
59.485774517,-0.5698544,-1.091141,0.06591542,0.356456,-0.1418832,0.9450238,-2.251116,-23.49536,-23.50214
59.495904923,-0.2581847,-0.2064127,-0.117364,0.3603022,-0.1370225,0.9440791,-2.251116,-23.49536,-23.50214
59.506034851,-0.00913253400000001,0.4415222,-0.05627249,0.3514703,-0.1279095,0.9426283,-2.251116,-23.49536,-23.50214
59.51616478,0.1151745,1.147383,-0.1171459,0.342698,-0.1246211,0.9392349,-2.605043,-24.1576,-23.49492
59.526295662,0.3016295,1.204738,-0.2391746,0.3316308,-0.1368062,0.9391802,-2.605043,-24.1576,-23.49492
59.536425591,0.05254231,1.085319,-0.0557926,0.3200817,-0.1504162,0.9424989,-2.605043,-24.1576,-23.49492
59.546555996,-0.1962711,0.730720000000002,-0.2999017,0.3123875,-0.1596625,0.9434243,-2.605043,-24.1576,-23.49492
59.556685925,-0.1338182,0.4354917,-0.4215282,0.3061725,-0.1699047,0.9400084,-2.605043,-24.1576,-23.49492
59.566816807,-0.3201717,-0.0950104,-0.4211138,0.3110101,-0.1679136,0.9419554,-2.241283,-23.80467,-23.93956
59.576946736,-0.4441042,-0.3892386,-0.4205273,0.3192845,-0.1678841,0.9381164,-2.241283,-23.80467,-23.93956
59.587077618,-0.754539300000003,-0.741911200000003,-0.725122399999998,0.3278967,-0.1528233,0.9372059,-2.241283,-23.80467,-23.93956
59.594674587,-1.064821,-0.6823242,-0.724458299999998,0.3360455,-0.1425309,0.9444872,-2.241283,-23.80467,-23.93956
59.604805469,-0.939090600000002,0.02500392,-0.5405052,0.3408663,-0.1386084,0.9459558,-2.241283,-23.80467,-23.93956
59.614935398,-0.5025639,0.5549461,-0.5398647,0.3383572,-0.1313336,0.9498253,-2.60759,-23.8023,-23.94304
59.625065803,-0.0665073800000002,1.554938,-0.1119833,0.3344697,-0.1290233,0.9411344,-2.60759,-23.8023,-23.94304
59.635195732,0.1199804,2.023923,-0.05076434,0.3374036,-0.1314026,0.943067,-2.60759,-23.8023,-23.94304
59.645326137,0.0576623699999999,2.139083,0.0714369400000001,0.3257789,-0.1367904,0.9459208,-2.60759,-23.8023,-23.94304
59.655456543,-0.1910598,2.313023,-0.2337952,0.3297008,-0.1401518,0.9454411,-2.60759,-23.8023,-23.94304
59.665586471,-0.6261279,2.074473,-0.5386631,0.324449,-0.1494186,0.9420298,-1.861475,-24.53209,-23.92441
59.675717354,-0.625204599999998,1.600763,-0.904149700000001,0.3235628,-0.1586206,0.9420077,-1.861475,-24.53209,-23.92441
59.685847282,-1.05963,1.245388,-1.269062,0.3250323,-0.1614601,0.947796,-1.861475,-24.53209,-23.92441
59.695977688,-1.182692,1.184935,-1.999718,0.3191613,-0.1585671,0.9516475,-1.861475,-24.53209,-23.92441
59.706107616,-1.181246,1.065856,-2.119344,0.308972,-0.160116,0.9496877,-2.611795,-23.79508,-23.50075
59.716238499,-1.179801,0.770151200000003,-2.299648,0.308432,-0.1524386,0.9429471,-2.611795,-23.79508,-23.50075
59.726368427,-1.116093,0.651518799999998,-2.357896,0.3118841,-0.1596093,0.9496962,-2.611795,-23.79508,-23.50075
59.736498833,-0.990376200000002,0.4151669,-1.80567,0.316788,-0.1634646,0.9472879,-2.611795,-23.79508,-23.50075
59.746629238,-0.616030600000001,0.4146084,-1.681265,0.3216937,-0.16545,0.9376453,-2.611795,-23.79508,-23.50075
59.756759643,-0.2419988,0.4728832,-1.434974,0.3337934,-0.1618976,0.9454049,-2.605043,-24.1576,-23.49492
59.766889572,-0.05497792,1.002263,-1.250109,0.3372272,-0.1624426,0.9357616,-2.605043,-24.1576,-23.49492
59.777019501,0.4426641,1.177705,-0.7602379,0.3289701,-0.162529,0.9333274,-2.605043,-24.1576,-23.49492
59.787150383,0.5042559,1.117486,-0.3320414,0.3201915,-0.1606266,0.9371693,-2.605043,-24.1576,-23.49492
59.794748306,0.4415549,0.880936299999999,-0.1486086,0.3143404,-0.1601444,0.9419807,-2.605043,-24.1576,-23.49492
59.804878235,0.192116,0.5265203,0.0957954899999998,0.3099894,-0.1626025,0.9414816,-2.254721,-23.48917,-23.12303
59.815008163,0.1918943,0.1726603,-0.08754068,0.3119712,-0.1674002,0.9443716,-2.254721,-23.48917,-23.12303
59.825139046,-0.1813116,-0.2396801,0.1565183,0.3207011,-0.1649211,0.9434345,-2.254721,-23.48917,-23.12303
59.835268974,0.005457222,-0.592596100000002,0.217285,0.3211946,-0.1644728,0.9390938,-2.254721,-23.48917,-23.12303
59.84539938,-0.1811688,-0.709664800000003,0.0949320899999998,0.3337146,-0.155541,0.9526566,-2.254721,-23.48917,-23.12303
59.855529308,-0.3674628,-0.5320539,0.2779903,0.3312638,-0.1517412,0.9468678,-2.245489,-23.79746,-23.49727
59.865660191,-0.3669035,-0.707975600000002,0.09459791,0.3312411,-0.1469766,0.9386747,-2.245489,-23.79746,-23.49727
59.875790119,-0.2420494,-0.589402900000001,0.3387349,0.3302162,-0.1425895,0.9430245,-2.245489,-23.79746,-23.49727
59.885920525,-0.2418626,-0.2355195,0.2772695,0.3292666,-0.1450167,0.9430168,-2.245489,-23.79746,-23.49727
59.896050453,-0.3038825,0.0001618527,0.643180399999998,0.3302386,-0.1459462,0.9463951,-2.245489,-23.79746,-23.49727
59.906181335,-0.3657658,0.3533972,0.703585,0.3253565,-0.1426319,0.9425293,-1.51288,-23.80221,-23.49031
59.916311264,-0.4897583,0.2940653,0.8860322,0.3234914,-0.1518195,0.9449175,-1.51288,-23.80221,-23.49031
59.926441193,-0.4268782,0.0581254100000002,0.640855299999999,0.3205394,-0.1498496,0.9511872,-1.51288,-23.80221,-23.49031
59.936572075,0.00896608799999998,-0.5307352,0.884095200000002,0.3201137,-0.1552115,0.9473142,-1.51288,-23.80221,-23.49031
59.946702003,0.1954959,-0.706769599999999,0.760981499999998,0.3166828,-0.1513931,0.9444183,-1.51288,-23.80221,-23.49031
59.956832409,0.195133,-1.059155,1.004051,0.3127388,-0.1460828,0.9463497,-2.241283,-23.80467,-23.93956
59.966962337,0.1948684,-0.998899100000001,1.308009,0.319527,-0.1436277,0.9444423,-2.241283,-23.80467,-23.93956
59.97709322,-0.3027735,-0.938737900000001,1.367426,0.3297645,-0.1483346,0.9502492,-2.241283,-23.80467,-23.93956
59.984690666,-0.737972300000003,-0.996648899999999,1.366137,0.3317086,-0.1469115,0.9454318,-2.241283,-23.80467,-23.93956
59.994821072,-0.799232100000002,-0.5242745,1.242322,0.334166,-0.1483881,0.9406094,-2.241283,-23.80467,-23.93956
60.004951,-0.984808399999998,-0.1703249,0.9964675,0.3361334,-0.1522004,0.9454318,-2.244431,-23.44833,-24.3245
60.015081882,-0.859236799999999,-0.1112785,0.9341184,0.3298523,-0.155659,0.9429954,-2.244431,-23.44833,-24.3245
60.025211811,-0.5472428,-0.1699897,0.749806,0.3235199,-0.1547274,0.9444287,-2.244431,-23.44833,-24.3245
60.035342216,-0.2356406,-0.3463478,0.5658017,0.319638,-0.1561875,0.9468283,-2.244431,-23.44833,-24.3245
60.045472145,-0.1731382,-0.1692857,0.4430494,0.3201196,-0.1556998,0.9468306,-2.244431,-23.44833,-24.3245
60.055603027,-0.1106166,-0.3455891,0.4425505,0.3226074,-0.1605594,0.9424837,-2.234531,-24.16719,-23.93373
60.065732956,-0.2346951,-0.286156,0.137044,0.3216418,-0.1605889,0.9400683,-2.234531,-24.16719,-23.93373
60.075863361,-0.2966067,0.06753144,0.1368335,0.3216575,-0.1615787,0.9376535,-2.234531,-24.16719,-23.93373
60.085993767,-0.1717041,0.3620161,0.1976057,0.3231915,-0.1697894,0.9381224,-2.234531,-24.16719,-23.93373
60.096123695,0.0773567400000001,0.3615614,0.4414791,0.318808,-0.1693265,0.9395597,-2.234531,-24.16719,-23.93373
60.106254101,0.07725954,0.3021453,0.5019262,0.3168105,-0.1635391,0.9390845,-2.624176,-23.13046,-23.51145
60.116384029,0.574715999999998,-0.05145125,0.745551600000003,0.3182617,-0.1630351,0.9400544,-2.624176,-23.13046,-23.51145
60.126514912,1.071645,-0.4634177,0.6834601,0.319719,-0.1644272,0.9453632,-2.624176,-23.13046,-23.51145
60.13664484,1.505744,-0.639444100000002,0.865587400000002,0.326078,-0.1677916,0.942477,-2.624176,-23.13046,-23.51145
60.146775246,2.063672,-0.815286500000003,1.169566,0.3236235,-0.1653866,0.9429584,-2.624176,-23.13046,-23.51145
60.156905174,1.87448,-0.9908894,1.107057,0.3304394,-0.1663057,0.9424915,-2.605043,-24.1576,-23.49492
60.167036057,1.4367,-0.695260200000001,0.922680499999998,0.3343647,-0.1692095,0.9391176,-2.605043,-24.1576,-23.49492
60.177165985,1.061735,-0.4589275,0.738497600000001,0.3303933,-0.1595878,0.9362327,-2.605043,-24.1576,-23.49492
60.184763908,0.8118897,-0.1051115,0.3714852,0.3318319,-0.1585736,0.9400989,-2.605043,-24.1576,-23.49492
60.194893837,0.7487807,-0.222737,0.554081,0.3254497,-0.1523189,0.9415436,-2.605043,-24.1576,-23.49492
60.205024719,0.623427499999997,-0.04590416,0.4313242,0.3195413,-0.144613,0.94251,-2.241283,-23.80467,-23.93956
60.215154648,0.871411300000002,0.0718924999999998,0.3696083,0.3199886,-0.1430742,0.9516829,-2.241283,-23.80467,-23.93956
60.225285053,0.745786799999997,0.3073727,0.5522064,0.3287252,-0.1406171,0.9483329,-2.241283,-23.80467,-23.93956
60.235414982,0.496083,0.3658932,0.429452,0.3335862,-0.1405791,0.9483455,-2.241283,-23.80467,-23.93956
60.245545864,0.619989999999997,-0.4587211,0.2459269,0.3321342,-0.1392045,0.9411064,-2.241283,-23.80467,-23.93956
60.255675793,0.681378599999998,-0.6936414,0.0625171699999998,0.3389328,-0.1400666,0.9469127,-2.251116,-23.49536,-23.50214
60.265805721,0.991515699999998,-0.3984596,0.3065795,0.3306085,-0.1324279,0.9425648,-2.251116,-23.49536,-23.50214
60.275936604,0.9280639,0.1318849,0.1230936,0.3384326,-0.1381479,0.9454679,-2.251116,-23.49536,-23.50214
60.286066532,1.051213,0.3672528,0.000782311000000002,0.3292778,-0.1455225,0.940603,-2.251116,-23.49536,-23.50214
60.296196938,0.925382400000001,0.425735,-0.1212795,0.3346934,-0.1532102,0.9420481,-2.251116,-23.49536,-23.50214
60.306326866,1.048574,0.2485548,-0.3042662,0.3367422,-0.1633879,0.9386536,-2.624176,-23.13046,-23.51145
60.316457748,0.922883500000001,0.7780312,-0.425849,0.3406652,-0.1676909,0.9410672,-2.624176,-23.13046,-23.51145
60.326587677,0.859576499999998,1.130363,-0.608376500000001,0.3339015,-0.1706957,0.9357353,-2.624176,-23.13046,-23.51145
60.336718083,0.858594500000003,1.128981,-0.607439800000003,0.3250719,-0.1625287,0.9366952,-2.624176,-23.13046,-23.51145
60.346848011,0.919624800000003,0.950935699999998,-0.7896242,0.3202192,-0.1640008,0.9386097,-2.624176,-23.13046,-23.51145
60.356978893,0.5452313,0.596542700000001,-0.910865800000002,0.3186845,-0.1586016,0.9482684,-2.245489,-23.79746,-23.49727
60.367108822,0.04679745,0.0658382599999999,-0.4825185,0.3250656,-0.1639147,0.9439304,-2.245489,-23.79746,-23.49727
60.374706745,0.1088425,-0.3464953,-0.604009599999998,0.3289398,-0.1614911,0.9410503,-2.245489,-23.79746,-23.49727
60.384836674,0.668270199999999,-0.640259699999998,-0.664271800000002,0.3284926,-0.1653749,0.9400757,-2.245489,-23.79746,-23.49727
60.394967556,1.040669,-0.2859794,-0.4192775,0.3313099,-0.156114,0.9449284,-2.245489,-23.79746,-23.49727
60.405097485,1.350472,-0.1089192,-0.2355733,0.334215,-0.1541775,0.9425273,-2.24691,-23.50257,-23.94442
60.41522789,1.286589,0.009049129,-0.3573766,0.3322107,-0.1469603,0.9396423,-2.24691,-23.50257,-23.94442
60.425358296,0.973902199999999,0.1265363,-0.05174695,0.3331573,-0.1454615,0.9439909,-2.24691,-23.50257,-23.94442
60.435488224,0.848246500000001,0.5973334,-0.1738387,0.3331214,-0.140653,0.9406233,-2.24691,-23.50257,-23.94442
60.44561863,0.5362077,0.832172200000002,0.1314262,0.3272125,-0.1348215,0.9483415,-1.884811,-23.49773,-23.49866
60.455748558,0.1002066,1.007772,0.3754403,0.3233884,-0.141631,0.9478344,-1.884811,-23.49773,-23.49866
60.46587944,0.1000612,0.947655699999998,0.3140054,0.3219157,-0.140657,0.9497629,-1.884811,-23.49773,-23.49866
60.476009369,0.1622396,0.887392300000001,0.4966543,0.3160926,-0.1402668,0.9444406,-1.884811,-23.49773,-23.49866
60.486139774,0.4729506,0.709558199999998,0.5570129,0.3073056,-0.1369302,0.9463553,-1.884811,-23.49773,-23.49866
60.496269703,0.783232300000001,0.708944400000001,0.37304,0.3111777,-0.1349686,0.945887,-2.251116,-23.49536,-23.50214
60.506400585,0.719924699999999,0.4137619,0.555653,0.3179818,-0.1349111,0.9463872,-2.251116,-23.49536,-23.50214
60.516530514,0.718864100000002,0.3544282,0.2497552,0.3160351,-0.1363254,0.9521698,-2.251116,-23.49536,-23.50214
60.526660919,0.1582404,0.2952615,0.2494606,0.316992,-0.1334538,0.9478354,-2.251116,-23.49536,-23.50214
60.536791325,-0.5261311,0.5302578,-0.11692,0.3252103,-0.1294873,0.951243,-2.251116,-23.49536,-23.50214
60.54692173,-1.147358,0.1173386,-0.4829364,0.3189109,-0.1319474,0.9521866,-1.876038,-24.15617,-23.10886
60.557051659,-0.896993999999999,-0.2948584,-0.4212899,0.3243183,-0.138201,0.9517046,-1.876038,-24.15617,-23.10886
60.567182541,-0.7714545,-0.588779999999999,-0.4817814,0.322926,-0.1426508,0.9425229,-1.876038,-24.15617,-23.10886
60.574779511,-0.3974501,-0.4705049,-0.603484200000002,0.3234784,-0.1508385,0.9463671,-1.876038,-24.15617,-23.10886
60.584910393,-0.2725576,-0.5288758,-0.2366013,0.3162712,-0.1586775,0.9419888,-1.876038,-24.15617,-23.10886
60.595040321,-0.0855765200000001,-0.4695456,-0.05316502,0.311933,-0.1607087,0.9352176,-2.254721,-23.48917,-23.12303
60.605170727,-0.0854690399999998,-0.8812459,0.2521017,0.3148518,-0.1625689,0.9410117,-2.254721,-23.48917,-23.12303
60.615301132,0.03909022,-0.7034565,0.3737883,0.3158371,-0.1635423,0.9395645,-2.254721,-23.48917,-23.12303
60.625431538,-0.147539,-0.5259458,0.617421199999999,0.3216591,-0.162991,0.9419934,-2.254721,-23.48917,-23.12303
60.635561466,-0.5206117,-0.1131987,0.4946041,0.3157596,-0.1571901,0.9463336,-2.254721,-23.48917,-23.12303
60.645691395,-0.955480799999998,0.004627008,0.677026100000001,0.3185652,-0.1469526,0.9521535,-1.884811,-23.49773,-23.49866
60.655822277,-0.767661499999997,-0.5842218,0.5542108,0.322943,-0.14599,0.9478239,-1.884811,-23.49773,-23.49866
60.665952206,-0.7666386,-1.113443,0.614631400000001,0.3263681,-0.1469751,0.9430051,-1.884811,-23.49773,-23.49866
60.676082611,-0.7656562,-0.935288100000001,0.675014399999999,0.3370635,-0.1454881,0.9377279,-1.884811,-23.49773,-23.49866
60.68621254,-0.4536819,-0.816318800000001,0.4911233,0.3380373,-0.1468928,0.9420702,-1.884811,-23.49773,-23.49866
60.696343422,-0.01786266,-0.4620025,0.4294281,0.3341897,-0.1517491,0.9434975,-2.245489,-23.79746,-23.49727
60.70647335,0.3552223,-0.2259256,0.1848055,0.3312627,-0.1507997,0.9439746,-2.245489,-23.79746,-23.49727
60.716604233,0.4169435,-0.04907031,0.0626851899999998,0.3215044,-0.1470043,0.9439576,-2.245489,-23.79746,-23.49727
60.726734161,-0.01884916,0.4219474,-0.4254258,0.3098723,-0.1528366,0.9511532,-2.245489,-23.79746,-23.49727
60.736864567,-0.2055033,-0.04959413,-1.0351,0.3079087,-0.1499746,0.9482591,-2.245489,-23.79746,-23.49727
60.746994495,-0.329658,-1.050498,-1.399982,0.3089073,-0.1533369,0.9501846,-2.608648,-24.15142,-23.11582
60.757125378,-0.5158241,-1.696892,-1.703347,0.3278368,-0.150281,0.9507226,-2.608648,-24.15142,-23.11582
60.764722347,-0.639848600000001,-1.93079,-1.823803,0.3332055,-0.1493722,0.9396397,-2.608648,-24.15142,-23.11582
60.774853229,-0.887812,-2.045955,-1.516369,0.336617,-0.1489056,0.9348241,-2.608648,-24.15142,-23.11582
60.784983158,-0.637832099999999,-2.043422,-1.148225,0.3531491,-0.1469154,0.9266676,-2.608648,-24.15142,-23.11582
60.79511404,-0.5747269,-1.157647,-0.719579400000001,0.3570126,-0.1444567,0.927648,-2.617422,-23.49298,-23.50562
60.805243969,-0.698398200000002,-0.214114,-0.2913765,0.362832,-0.1438966,0.9310421,-2.617422,-23.49298,-23.50562
60.815374374,-0.8218948,0.669327200000001,0.5024902,0.3603946,-0.1424857,0.928626,-2.617422,-23.49298,-23.50562
60.825504303,-0.5099085,1.492789,0.9292923,0.3453592,-0.1502189,0.9425645,-2.617422,-23.49298,-23.50562
60.835635185,-0.5091508,2.138516,1.050148,0.334219,-0.1565357,0.9492779,-2.617422,-23.49298,-23.50562
60.845765114,-0.3840985,2.489176,1.231948,0.3187639,-0.167774,0.9506615,-2.249094,-23.79128,-23.11817
60.855895042,-0.2593009,1.956039,1.169342,0.3115242,-0.172692,0.9482196,-2.249094,-23.79128,-23.11817
60.866025448,-0.1346211,1.30587,0.801633300000002,0.3056827,-0.1713033,0.9462773,-2.249094,-23.79128,-23.11817
60.876155853,-0.3210517,0.4210573,0.4343673,0.3008249,-0.1718207,0.9467462,-2.249094,-23.79128,-23.11817
60.886286259,-0.4450808,-0.580512300000001,-0.1154039,0.3055999,-0.1625884,0.9467784,-2.249094,-23.79128,-23.11817
60.896416187,-0.3202262,-1.404252,-0.4813838,0.3156776,-0.1480089,0.9449055,-2.241283,-23.80467,-23.93956
60.90654707,-0.319824,-1.402396,-0.7248625,0.3326156,-0.1396539,0.9444845,-2.241283,-23.80467,-23.93956
60.916676998,-0.195029,-1.165045,-0.785049499999999,0.3423289,-0.1376731,0.9411361,-2.241283,-23.80467,-23.93956
60.926807404,-0.07031257,-0.4570556,-0.661964199999997,0.3399087,-0.1386642,0.9406451,-2.241283,-23.80467,-23.93956
60.936937332,0.1162972,0.4855602,-0.661132800000002,0.3379539,-0.1377072,0.9411247,-2.241283,-23.80467,-23.93956
60.947068214,0.1161902,1.309271,-0.599224100000003,0.3457548,-0.1405368,0.9425864,-2.611795,-23.79508,-23.50075
60.954665661,0.1782285,1.77916,-0.598582700000002,0.3419,-0.1425554,0.9367815,-2.611795,-23.79508,-23.50075
60.964796066,-0.1951557,2.365732,-0.7809317,0.334667,-0.1498404,0.940125,-2.611795,-23.79508,-23.50075
60.974925995,-0.5058253,2.716199,-1.085055,0.327914,-0.1552253,0.939131,-2.611795,-23.79508,-23.50075
60.985056877,-0.5050531,2.595141,-1.14477,0.3211305,-0.1605095,0.9492356,-2.611795,-23.79508,-23.50075
60.995186806,-0.4420951,2.179851,-1.082312,0.309514,-0.1649864,0.9458182,-2.617422,-23.49298,-23.50562
61.005317211,-0.1305663,1.411735,-1.386248,0.311012,-0.1683887,0.9429194,-2.617422,-23.49298,-23.50562
61.01544714,0.3671707,0.5267156,-1.445624,0.317223,-0.1581334,0.947783,-2.617422,-23.49298,-23.50562
61.025578022,0.2424726,0.467129,-1.688102,0.3234552,-0.1479482,0.9449257,-2.617422,-23.49298,-23.50562
61.035707951,-0.3176114,0.2309717,-1.563998,0.3296995,-0.1401474,0.9459237,-2.617422,-23.49298,-23.50562
61.045838356,-0.3793603,0.701637699999999,-0.9516332,0.3238345,-0.1368056,0.9459158,-2.60759,-23.8023,-23.94304
61.055968761,-0.5031011,1.171787,-0.889263599999997,0.3277502,-0.1382708,0.9410971,-2.60759,-23.8023,-23.94304
61.06609869,-0.5646366,1.229314,-0.583119399999999,0.3287382,-0.141598,0.9468831,-2.60759,-23.8023,-23.94304
61.076229095,-0.4396514,1.345509,-0.2161854,0.3301374,-0.1338878,0.9420779,-2.60759,-23.8023,-23.94304
61.086359024,-0.687944299999999,1.755924,-0.2770497,0.3263404,-0.1436009,0.9415647,-2.60759,-23.8023,-23.94304
61.096489906,-0.873738500000001,1.518203,-0.3377993,0.3214959,-0.1465072,0.9454063,-2.241283,-23.80467,-23.93956
61.106619835,-1.121467,1.22193,-0.3983766,0.321982,-0.1488485,0.9536058,-2.241283,-23.80467,-23.93956
61.11675024,-1.368884,0.984787799999999,-0.947216900000001,0.3138157,-0.1576761,0.9477752,-2.241283,-23.80467,-23.93956
61.126880169,-1.367067,0.5714458,-1.068222,0.3075933,-0.1683627,0.9487013,-2.241283,-23.80467,-23.93956
61.137011051,-1.303124,-0.2535377,-1.005936,0.313976,-0.1727431,0.940505,-1.874979,-23.80704,-23.93608
61.14714098,-0.928306900000003,-0.783137300000001,-1.065713,0.3232051,-0.1712412,0.9381193,-1.874979,-23.80704,-23.93608
61.154738903,-0.8030195,-0.782362400000001,-1.003688,0.3213884,-0.1834024,0.9327804,-1.874979,-23.80704,-23.93608
61.164868832,-0.3667614,-0.3691637,-0.941214700000002,0.3319243,-0.168727,0.9410425,-1.874979,-23.80704,-23.93608
61.174999714,-0.3663203,0.573452799999998,-0.756912500000001,0.3289944,-0.1663609,0.9376622,-1.874979,-23.80704,-23.93608
61.185129643,-0.4902534,0.984911600000001,-0.3897986,0.3280048,-0.1639664,0.9357346,-1.874979,-23.80704,-23.93608
61.195260048,-0.3031552,1.042544,-0.1452257,0.3157899,-0.158228,0.9386107,-2.611795,-23.79508,-23.50075
61.205389977,-0.1162529,0.746738900000001,0.1600991,0.3148504,-0.1625646,0.9414943,-2.611795,-23.79508,-23.50075
61.215520859,-0.05388099,0.5102304,0.5261188,0.310939,-0.1601753,0.9414893,-2.611795,-23.79508,-23.50075
61.225650787,0.00825630099999998,-0.07914261,0.4644371,0.3109528,-0.163035,0.9463086,-2.611795,-23.79508,-23.50075
61.23578167,-0.1784319,-0.608850200000001,0.4027754,0.3191983,-0.161972,0.9497101,-1.868227,-24.16957,-23.93025
61.245911598,-0.4270139,-1.020135,0.4632519,0.3225922,-0.1600405,0.9463451,-1.868227,-24.16957,-23.93025
61.256042004,-0.2397997,-1.431051,0.4015534,0.3234714,-0.1494087,0.9439575,-1.868227,-24.16957,-23.93025
61.266171932,-0.3017635,-1.193794,0.584149800000002,0.3234302,-0.1445827,0.9425201,-1.868227,-24.16957,-23.93025
61.276302815,-0.1771085,-0.662432299999998,0.766459300000002,0.3258668,-0.1441149,0.9386671,-1.868227,-24.16957,-23.93025
61.286432743,0.0719591399999999,-0.4261777,0.887557399999999,0.3229518,-0.1455499,0.9429994,-1.874979,-23.80704,-23.93608
61.296563149,-0.1769178,-0.0724622699999999,0.825479299999998,0.3180498,-0.1421698,0.9463718,-1.874979,-23.80704,-23.93608
61.306693077,0.1341801,-0.0724267699999998,1.190625,0.3215106,-0.1489005,0.9482965,-1.874979,-23.80704,-23.93608
61.316823959,0.3207089,-0.2488334,1.372479,0.3215345,-0.1513245,0.9478087,-1.874979,-23.80704,-23.93608
61.326953888,0.320267,-0.5429238,1.248752,0.3171998,-0.1552431,0.9463415,-1.874979,-23.80704,-23.93608
61.337083817,0.3198256,-0.718942899999998,1.308243,0.3254238,-0.1494198,0.9410672,-1.872433,-24.16235,-23.48796
61.34468174,0.3817502,-0.9538546,1.306991,0.3307678,-0.1488985,0.9405996,-1.872433,-24.16235,-23.48796
61.354812622,0.2568189,-1.011545,1.305465,0.3327287,-0.1494067,0.9362606,-1.872433,-24.16235,-23.48796
61.364942551,0.2565745,-0.892571999999998,1.059684,0.3317517,-0.1498675,0.9396349,-1.872433,-24.16235,-23.48796
61.375072479,-0.1169862,-0.3614033,0.814039700000001,0.3229358,-0.1454974,0.94879,-1.872433,-24.16235,-23.48796
61.385202885,-0.7388448,0.05124821,0.995907099999999,0.3254289,-0.1503745,0.9425128,-2.245947,-24.14761,-22.73323
61.395332813,-0.9245164,0.2278294,0.933635400000002,0.3264158,-0.1527602,0.9454055,-2.245947,-24.14761,-22.73323
61.405463696,-0.923452899999997,-0.00787934700000002,0.932520199999999,0.324033,-0.1585642,0.9477996,-2.245947,-24.14761,-22.73323
61.415593624,-0.4869263,-0.0667944700000002,0.809345700000002,0.3265421,-0.1681841,0.9521284,-2.245947,-24.14761,-22.73323
61.425724506,-0.4241669,0.110009,0.5642076,0.3221407,-0.1625033,0.9419957,-2.245947,-24.14761,-22.73323
61.435854435,-0.05041525,-0.1256812,0.685598000000001,0.3167967,-0.1630245,0.9424633,-1.879185,-23.79983,-23.49379
61.44598484,0.1984932,-0.1254309,0.5017703,0.3065073,-0.1558017,0.9472778,-1.879185,-23.79983,-23.49379
61.456114769,0.3848436,-0.5373784,0.3180585,0.3070011,-0.1567613,0.9477596,-1.879185,-23.79983,-23.49379
61.466245651,0.4465666,-0.831143399999998,0.317659,0.3035985,-0.159133,0.9559491,-1.879185,-23.79983,-23.49379
61.47637558,0.5082512,-1.06567,0.3783767,0.3105065,-0.1687976,0.9516032,-1.879185,-23.79983,-23.49379
61.486505985,0.632103799999998,-1.299847,0.3167847,0.3164427,-0.1765954,0.9405031,-2.234531,-24.16719,-23.93373
61.496635914,1.00449,-1.710337,0.682511700000001,0.3247513,-0.1808993,0.9390677,-2.234531,-24.16719,-23.93373
61.506766796,1.625214,-2.061425,0.5596319,0.3296597,-0.1852385,0.9366582,-2.234531,-24.16719,-23.93373
61.516896725,1.934146,-2.058873,0.6811241,0.3300449,-0.1745842,0.9371647,-2.234531,-24.16719,-23.93373
61.527027607,1.993767,-1.879659,0.619305299999998,0.3362327,-0.1614386,0.9405867,-2.234531,-24.16719,-23.93373
61.537157536,1.866772,-1.524137,0.4964857,0.3400789,-0.1565778,0.939642,-2.245489,-23.79746,-23.49727
61.544755459,1.740678,-1.346092,0.4959987,0.337145,-0.1541985,0.9377093,-2.245489,-23.79746,-23.49727
61.554885388,1.551892,-0.8146871,0.5563582,0.3361403,-0.1512851,0.9396431,-2.245489,-23.79746,-23.49727
61.565015793,1.36348,-0.2837087,0.799723399999999,0.33566,-0.1517772,0.9391584,-2.245489,-23.79746,-23.49727
61.575145722,1.423934,-0.2834819,0.9208181,0.3292839,-0.1450736,0.9367436,-2.245489,-23.79746,-23.49727
61.585276604,1.670874,-0.2831073,0.980682300000001,0.3394239,-0.1363273,0.9319631,-2.611795,-23.79508,-23.50075
61.595406532,1.544401,-0.4594528,1.040433,0.3462488,-0.1382142,0.9314941,-2.611795,-23.79508,-23.50075
61.605537414,1.666738,-0.812018700000001,1.039069,0.3452441,-0.1376459,0.9416263,-2.611795,-23.79508,-23.50075
61.615667343,1.104825,-0.693167199999998,0.915645200000001,0.342836,-0.1386765,0.9367923,-2.611795,-23.79508,-23.50075
61.625797748,0.668012499999999,0.3087441,1.097538,0.3419514,-0.1492908,0.9411101,-2.611795,-23.79508,-23.50075
61.635927677,0.2319241,0.956013400000002,0.6078207,0.3337601,-0.159443,0.9492705,-2.979521,-23.49782,-23.95138
61.646058559,0.4182715,1.190198,0.4849773,0.3226401,-0.1648884,0.9453697,-2.979521,-23.49782,-23.95138
61.656188488,1.164223,0.658840600000003,0.05726083,0.3070773,-0.1654543,0.9496713,-2.979521,-23.49782,-23.95138
61.666318417,1.411547,0.5992361,-0.4310735,0.3035846,-0.1586184,0.959328,-2.979521,-23.49782,-23.95138
61.676448822,1.409853,0.3040988,-0.491572,0.2996859,-0.1558022,0.9530508,-2.979521,-23.49782,-23.95138
61.686579227,1.283845,-0.04955569,-0.673997799999998,0.303505,-0.148038,0.9521123,-2.242342,-24.1538,-23.11234
61.696709633,0.5359116,-0.8149081,-0.856156200000001,0.3175175,-0.1378008,0.9483101,-2.242342,-24.1538,-23.11234
61.706839561,0.4729733,-1.343914,-0.610805699999998,0.3286548,-0.1324124,0.9459376,-2.242342,-24.1538,-23.11234
61.716970444,0.0991994999999997,-1.106803,-0.7320802,0.3441654,-0.1255776,0.9392366,-2.242342,-24.1538,-23.11234
61.727100372,-0.02527928,-0.2810547,-0.548175,0.3485185,-0.1226575,0.9373239,-2.242342,-24.1538,-23.11234
61.734698296,0.2858157,0.661436799999998,-0.1813994,0.3528545,-0.1187432,0.9383087,-2.249094,-23.79128,-23.11817
61.744828224,0.5966841,1.838292,-0.0590148900000002,0.343199,-0.1237283,0.9305522,-2.249094,-23.79128,-23.11817
61.75495863,0.782593000000001,2.660156,0.1852575,0.3363869,-0.1261047,0.9411456,-2.249094,-23.79128,-23.11817
61.765089035,0.532843,3.068809,0.002019912,0.3213889,-0.1363056,0.9497709,-2.249094,-23.79128,-23.11817
61.77521944,0.1589939,2.770533,-0.1200434,0.3098137,-0.1456086,0.9477908,-2.249094,-23.79128,-23.11817
61.785349369,-0.2765138,1.589478,-0.4249583,0.3065298,-0.1591584,0.9506485,-2.23559,-24.51632,-23.1065
61.795480251,-0.4004816,0.763289799999999,-0.4854837,0.3007053,-0.1611089,0.9540071,-2.23559,-24.51632,-23.1065
61.80561018,-0.2755658,-0.5329276,-0.668051399999997,0.3124104,-0.16349,0.9482417,-2.23559,-24.51632,-23.1065
61.815740585,-0.2752197,-1.179989,-0.361974,0.3157902,-0.159636,0.9434332,-2.23559,-24.51632,-23.1065
61.825870514,-0.1505589,-1.060842,-0.3003835,0.3240004,-0.1532981,0.9415378,-2.23559,-24.51632,-23.1065
61.836001396,-0.336989,-0.824050200000001,-0.1169055,0.3283346,-0.1489087,0.9415584,-1.872433,-24.16235,-23.48796
61.846131325,-0.3988113,-0.0576930900000003,0.1883838,0.3297828,-0.1446429,0.9304727,-1.872433,-24.16235,-23.48796
61.85626173,-0.398369,0.943290599999999,0.2490913,0.3278056,-0.1450193,0.9439781,-1.872433,-24.16235,-23.48796
61.866392136,-0.0247083,1.41308,0.7980424,0.3205261,-0.1474607,0.9478145,-1.872433,-24.16235,-23.48796
61.876522541,0.4728763,1.470101,0.675017499999999,0.311862,-0.1576606,0.951148,-2.611795,-23.79508,-23.50075
61.88665247,0.658842899999997,1.114889,0.5521281,0.3109106,-0.1596126,0.9501763,-2.611795,-23.79508,-23.50075
61.896783352,0.5336807,0.4657764,0.2463497,0.3094512,-0.1610275,0.9554775,-2.611795,-23.79508,-23.50075
61.90691328,0.2220761,-0.653551299999999,-0.3643212,0.3065777,-0.1640063,0.9496731,-2.611795,-23.79508,-23.50075
61.917043686,-0.02704804,-1.71253,-0.4859628,0.3240577,-0.1605218,0.9453828,-2.611795,-23.79508,-23.50075
61.927173614,-0.4624003,-1.945857,-0.912632299999997,0.3293449,-0.1532476,0.9425167,-2.249094,-23.79128,-23.11817
61.934771538,-0.772977199999999,-1.531696,-0.911695700000002,0.3380708,-0.1484103,0.9348289,-2.249094,-23.79128,-23.11817
61.944901943,-0.772123499999998,-0.823208699999997,-0.971494700000003,0.3399574,-0.1407007,0.9295422,-2.249094,-23.79128,-23.11817
61.955032349,-0.3979934,0.00210942,-0.787135400000002,0.3360111,-0.1367896,0.9372613,-2.249094,-23.79128,-23.11817
61.965162277,-0.0863441499999999,0.7086519,-0.54191,0.3306978,-0.1421018,0.9430267,-2.249094,-23.79128,-23.11817
61.975293159,0.4735633,1.119756,-0.2970502,0.3234661,-0.1493911,0.9458877,-2.249094,-23.79128,-23.11817
61.985423088,1.032709,0.941629900000003,-0.1746739,0.3128427,-0.15815,0.9497019,-2.249094,-23.79128,-23.11817
61.995553493,1.031255,0.2928456,-0.1745887,0.3099152,-0.1567298,0.9487323,-2.249094,-23.79128,-23.11817
62.005683422,0.843184499999998,-0.8850419,0.00865465399999998,0.3021422,-0.1563373,0.9453353,-2.249094,-23.79128,-23.11817
62.015814304,0.2200614,-1.943582,-0.05239619,0.3152511,-0.1538372,0.9429617,-2.249094,-23.79128,-23.11817
62.025944233,-0.5887615,-2.706537,-0.0523112,0.3366884,-0.1580517,0.9401126,-1.891565,-23.13521,-23.50449
62.036074638,-1.209969,-2.585398,0.0698920000000002,0.3473249,-0.1502738,0.9348488,-1.891565,-23.13521,-23.50449
62.046205044,-1.146223,-1.757755,0.3749658,0.3478094,-0.1488577,0.9305101,-1.891565,-23.13521,-23.50449
62.056335449,-0.584964799999999,-0.813450299999998,0.4966515,0.3477292,-0.1401516,0.930046,-1.891565,-23.13521,-23.50449
62.066465378,0.03775591,0.0707620699999998,0.984251599999999,0.342393,-0.1416364,0.9309942,-1.891565,-23.13521,-23.50449
62.07659626,0.3487014,1.130583,1.166155,0.3360769,-0.1445103,0.9396576,-2.234531,-24.16719,-23.93373
62.086726189,0.3482634,1.600397,1.469909,0.3283575,-0.1527362,0.9463757,-2.234531,-24.16719,-23.93373
62.096856594,0.2233936,1.774958,1.345944,0.3093907,-0.1533243,0.951151,-2.234531,-24.16719,-23.93373
62.106986523,-0.02571256,1.890542,1.344273,0.3041541,-0.1678002,0.9602748,-2.234531,-24.16719,-23.93373
62.117116451,-0.2122604,1.063735,0.793397200000003,0.2935099,-0.1722696,0.9568599,-2.234531,-24.16719,-23.93373
62.124714851,-0.2742082,0.1204323,0.3044065,0.2925568,-0.1751544,0.9597465,-2.24691,-23.50257,-23.94442
62.134845257,0.09925744,-1.292772,-0.2453357,0.2944365,-0.1660149,0.9520503,-2.24691,-23.50257,-23.94442
62.144975185,0.410282,-2.821978,-0.672230699999997,0.3016215,-0.151537,0.9414839,-2.24691,-23.50257,-23.94442
62.155106068,0.4097862,-3.819455,-0.854468,0.3180263,-0.1378715,0.9401078,-2.24691,-23.50257,-23.94442
62.165235996,0.4093888,-3.873453,-1.036495,0.3422455,-0.1261424,0.9319922,-2.24691,-23.50257,-23.94442
62.175366402,-0.2130136,-3.338541,-0.791033700000002,0.3606988,-0.1235918,0.9305977,-2.6154,-23.7889,-23.12165
62.18549633,-0.2748938,-2.097884,-0.3016052,0.3767118,-0.1205587,0.931128,-2.6154,-23.7889,-23.12165
62.195626259,-0.1499794,-0.0934082699999998,-0.05700883,0.3704542,-0.1283156,0.9349557,-2.6154,-23.7889,-23.12165
62.205757141,-0.149576,1.378706,0.4923267,0.3666271,-0.1337084,0.9305912,-2.6154,-23.7889,-23.12165
62.21588707,-0.0872208,2.436736,0.736002599999999,0.3478174,-0.148884,0.9276148,-2.6154,-23.7889,-23.12165
62.226017475,-0.3358392,2.610265,0.3688574,0.3322773,-0.1542146,0.9401094,-2.238136,-24.16101,-23.55462
62.236147881,-0.957344700000002,2.489192,0.2462566,0.3100419,-0.1702794,0.9487035,-2.238136,-24.16101,-23.55462
62.246278286,-1.515824,1.779465,0.06284647,0.3032991,-0.1775737,0.9506006,-2.238136,-24.16101,-23.55462
62.256408215,-1.265134,0.599470100000002,-0.3034532,0.3009242,-0.183404,0.9500994,-2.238136,-24.16101,-23.55462
62.266539097,-1.014699,-0.284529,-0.3641695,0.3047225,-0.1736954,0.95013,-2.238136,-24.16101,-23.55462
62.276669025,-0.578214299999997,-0.872848200000002,-0.4857154,0.3217005,-0.167817,0.9434308,-2.245489,-23.79746,-23.49727
62.286799431,-0.2044255,-0.989453899999999,-0.4851053,0.324897,-0.1450684,0.9410752,-2.245489,-23.79746,-23.49727
62.29692936,0.04465687,-0.3991275,-0.2403553,0.3320911,-0.1339033,0.938705,-2.245489,-23.79746,-23.49727
62.307060242,0.3556523,0.1313289,0.004010707,0.3379534,-0.1372364,0.939678,-2.245489,-23.79746,-23.49727
62.31719017,0.1687623,0.896782099999998,0.3091289,0.3359682,-0.1328964,0.9396822,-2.245489,-23.79746,-23.49727
62.324788094,-0.1424287,1.249117,0.247836,0.3384145,-0.1362122,0.9454721,-2.974953,-24.14905,-23.1193
62.334918022,-0.702029299999998,1.718541,0.003498986,0.3413836,-0.1415213,0.9445031,-2.974953,-24.14905,-23.1193
62.345048904,-1.136573,1.775252,-0.789890999999998,0.3283064,-0.1474088,0.9468696,-2.974953,-24.14905,-23.1193
62.355178833,-1.0729,1.419843,-1.277123,0.3186648,-0.1552536,0.9439325,-2.974953,-24.14905,-23.1193
62.365309239,-0.884854799999999,0.711532500000003,-1.519544,0.3177775,-0.163514,0.9410172,-2.974953,-24.14905,-23.1193
62.375439167,-0.2617379,0.3574217,-1.517617,0.3110037,-0.1669545,0.9409923,-2.611795,-23.79508,-23.50075
62.385570049,0.1740161,0.2391227,-1.515691,0.3129289,-0.1640621,0.9381082,-2.611795,-23.79508,-23.50075
62.395699978,0.5470164,0.003214847,-1.147433,0.3187694,-0.1645093,0.9371572,-2.611795,-23.79508,-23.50075
62.405830383,0.5464075,0.1210423,-1.267899,0.3269314,-0.1542607,0.939613,-2.611795,-23.79508,-23.50075
62.415960789,0.4213084,0.1208533,-1.022319,0.324934,-0.1484733,0.9391378,-2.611795,-23.79508,-23.50075
62.426091194,0.1719536,0.4737706,-0.899089,0.3327503,-0.1532298,0.9415605,-2.242342,-24.1538,-23.11234
62.436221123,-0.01476431,0.531971,-0.4097357,0.330747,-0.1469541,0.9415689,-2.242342,-24.1538,-23.11234
