Time (s),Gyroscope X (deg/s),Gyroscope Y (deg/s),Gyroscope Z (deg/s),Accelerometer X (g),Accelerometer Y (g),Accelerometer Z (g),Magnetometer X (uT),Magnetometer Y (uT),Magnetometer Z (uT)
191.49,-6.59474900000003,-2.225992,0.3444034,0.9896645,0.0375399,-0.141105,-26.9804,-31.32141,12.85982
191.5,-7.40368699999998,-1.93146,0.649699199999998,0.986792,0.03361953,-0.1440161,-26.9804,-31.32141,12.85982
191.51,-7.15478299999997,-1.578021,0.588639999999999,0.9892154,0.03413118,-0.1430437,-26.9804,-31.32141,12.85982
191.52,-6.345846,-1.283488,0.5275809,0.9872781,0.03362332,-0.1440148,-26.23849,-32.04399,13.32073
191.53,-5.163552,-0.576609699999997,0.5275809,0.9888014,0.02779269,-0.1478838,-26.23849,-32.04399,13.32073
191.54,-3.732356,-0.4587968,0.3444034,0.9840063,0.02331626,-0.1570742,-26.23849,-32.04399,13.32073
191.55,-2.363385,-0.2231707,0.3444034,0.9791409,0.02704448,-0.16866,-26.23849,-32.04399,13.32073
191.56,-1.367769,-0.04645117,0.03910754,0.9864395,0.02567155,-0.1662313,-26.23849,-32.04399,13.32073
191.57,-1.118866,-0.576609699999997,-0.02195162,0.9776976,0.02557697,-0.1691494,-26.97364,-31.68393,12.86565
191.58,-1.803351,-0.3998902,-0.3883066,0.9792086,0.01884861,-0.1652996,-26.97364,-31.68393,12.86565
191.59,-2.425611,-0.812235800000003,-0.3883066,0.9768164,0.01542033,-0.1677258,-26.97364,-31.68393,12.86565
191.6,-3.172322,-0.635516299999998,-0.2661883,0.9748457,0.01642994,-0.1614556,-26.97364,-31.68393,12.86565
191.61,-3.483452,-0.694422800000001,-0.2051291,0.9763592,0.01110074,-0.1633934,-26.97364,-31.68393,12.86565
191.62,-3.172322,-0.753329299999999,-0.0830107899999998,0.9749142,0.01104554,-0.1682227,-26.98145,-31.67053,13.68704
191.63,-2.425611,-0.988955399999998,0.1001667,0.9734111,0.01540253,-0.1667696,-26.98145,-31.67053,13.68704
191.64,-1.492221,-1.165675,0.222285,0.9666317,0.01338747,-0.1696867,-26.98145,-31.67053,13.68704
191.65,-0.745509999999999,-1.695834,0.2833442,0.9650281,0.03026926,-0.17448,-26.98145,-31.67053,13.68704
191.66,-0.1854764,-1.93146,0.2833442,0.9737149,0.03570443,-0.1696204,-26.98145,-31.67053,13.68704
191.67,-0.2477024,-2.049273,0.1612259,0.971788,0.03656945,-0.1792745,-26.60374,-31.69248,12.49003
191.68,-0.869961900000003,-2.225992,-0.0830107899999998,0.9668477,0.04570396,-0.1816804,-26.60374,-31.69248,12.49003
191.69,-1.367769,-2.402712,-0.5104249,0.9751359,0.04287374,-0.1807,-26.60374,-31.69248,12.49003
191.7,-2.114481,-2.402712,-0.754661599999998,0.9781186,0.03845803,-0.1898702,-26.60374,-31.69248,12.49003
191.71,-2.114481,-2.343805,-1.121017,0.9727947,0.03552595,-0.1884426,-26.60374,-31.69248,12.49003
191.72,-1.927803,-2.167086,-1.365253,0.9713486,0.03172212,-0.1797686,-26.9747,-32.03305,13.69287
191.73,-1.429995,-2.520525,-1.548431,0.9753408,0.02250115,-0.1860513,-26.9747,-32.03305,13.69287
191.74,-0.6210581,-2.225992,-1.853727,0.9782877,0.0191409,-0.1855683,-26.9747,-32.03305,13.69287
191.75,0.3123312,-1.872553,-1.60949,0.9778669,0.01423224,-0.1928182,-26.9747,-32.03305,13.69287
191.76,1.494624,-1.695834,-1.670549,0.9744689,0.01231384,-0.1880056,-26.9747,-32.03305,13.69287
191.77,2.988047,-1.401301,-1.426313,0.9764791,0.006953385,-0.1938026,-26.97785,-31.67672,13.30794
191.78,4.294793,-1.106768,-1.548431,0.9754678,0.009888715,-0.1894559,-26.97785,-31.67672,13.30794
191.79,5.78821500000002,-0.812235800000003,-1.121017,0.9745213,0.009327106,-0.1971803,-26.97785,-31.67672,13.30794
191.8,6.72160499999997,-0.4587968,-1.121017,0.976466,0.01027944,-0.2005511,-26.97785,-31.67672,13.30794
191.81,7.65499400000001,-0.1053577,-0.8157207,0.9759517,0.01412067,-0.2034395,-26.97785,-31.67672,13.30794
191.82,8.58838299999999,0.0713618500000003,-0.8157207,0.9773293,0.02330889,-0.2053464,-26.23849,-32.04399,13.32073
191.83,9.02396499999999,0.1891749,-0.754661599999998,0.9753891,0.02421772,-0.2101749,-26.23849,-32.04399,13.32073
191.84,9.64622399999997,0.1891749,-0.937839100000003,0.9699375,0.03436885,-0.2067893,-26.23849,-32.04399,13.32073
191.85,9.83290199999997,0.1891749,-1.182076,0.9713985,0.03437147,-0.2077506,-26.23849,-32.04399,13.32073
191.86,10.26848,0.3658944,-1.426313,0.9743059,0.03442491,-0.2043652,-26.61409,-31.32378,12.8633
191.87,10.45516,0.3658944,-1.792668,0.9708712,0.03684859,-0.200991,-26.61409,-31.32378,12.8633
191.88,10.95297,0.4248009,-1.731608,0.9621855,0.0281268,-0.194759,-26.61409,-31.32378,12.8633
191.89,11.13965,0.0713618500000003,-1.914786,0.9650707,0.03012904,-0.1899218,-26.61409,-31.32378,12.8633
191.9,11.38855,-0.04645117,-1.731608,0.9630911,0.03538872,-0.1952236,-26.61409,-31.32378,12.8633
191.91,11.45078,-0.694422800000001,-2.036904,0.9636025,0.03296418,-0.1961926,-26.61409,-31.32378,12.8633
191.92,11.57523,-0.812235800000003,-2.097963,0.9669914,0.03585041,-0.2010031,-26.62865,-30.94787,13.67885
191.93,11.45078,-1.165675,-2.159023,0.9669568,0.03830941,-0.196655,-26.62865,-30.94787,13.67885
191.94,11.32633,-1.460208,-2.036904,0.972321,0.03501195,-0.1913402,-26.62865,-30.94787,13.67885
191.95,11.01519,-1.695834,-2.220082,0.9703708,0.03548507,-0.1908617,-26.62865,-30.94787,13.67885
191.96,10.64184,-1.872553,-2.220082,0.9703487,0.03743387,-0.1894099,-26.25245,-31.6691,14.0731
191.97,10.20626,-1.636927,-2.3422,0.9762032,0.03506422,-0.1889173,-26.25245,-31.6691,14.0731
191.98,9.89512799999997,-1.695834,-2.220082,0.9742423,0.03557238,-0.1845784,-26.25245,-31.6691,14.0731
191.99,9.89512799999997,-1.519114,-2.036904,0.971849,0.03308565,-0.1898979,-26.25245,-31.6691,14.0731
192,9.957355,-1.342394,-1.792668,0.9757131,0.03507356,-0.1874709,-26.25245,-31.6691,14.0731
192.01,9.770677,-1.460208,-1.792668,0.9757017,0.03464223,-0.1816813,-27.36232,-31.29225,14.49911
192.02,9.64622399999997,-1.224581,-1.670549,0.978606,0.03611236,-0.1821532,-27.36232,-31.29225,14.49911
192.03,9.08619099999999,-1.165675,-1.670549,0.9771283,0.03804101,-0.1816703,-27.36232,-31.29225,14.49911
192.04,8.65060899999999,-1.047862,-1.426313,0.9810038,0.04046026,-0.185033,-27.36232,-31.29225,14.49911
192.05,8.15280200000001,-0.812235800000003,-1.548431,0.9795498,0.04137289,-0.1898602,-27.36232,-31.29225,14.49911
192.06,7.65499400000001,-0.576609699999997,-1.670549,0.9795492,0.04184366,-0.1913069,-26.99856,-30.93931,14.05448
192.07,7.46831600000001,-0.2231707,-1.304194,0.9770774,0.0443056,-0.1845523,-26.99856,-30.93931,14.05448
192.08,7.28163800000001,0.01245534,-1.365253,0.9752017,0.03984319,-0.1947002,-26.99856,-30.93931,14.05448
192.09,7.09496000000001,0.2480814,-1.365253,0.9717667,0.04367479,-0.1961485,-26.99856,-30.93931,14.05448
192.1,7.40609000000001,0.4248009,-1.243135,0.9771038,0.04328082,-0.1908275,-26.99856,-30.93931,14.05448
192.11,7.28163800000001,0.4248009,-1.121017,0.9727128,0.04798941,-0.2014448,-27.01312,-30.56339,14.87003
192.12,7.40609000000001,0.542614,-1.121017,0.9703358,0.04169708,-0.1995343,-27.01312,-30.56339,14.87003
192.13,7.40609000000001,0.601520500000003,-0.998898300000002,0.9679095,0.04260212,-0.2043641,-27.01312,-30.56339,14.87003
192.14,7.40609000000001,0.601520500000003,-1.182076,0.9698179,0.04742577,-0.2077266,-27.01312,-30.56339,14.87003
192.15,7.21941200000001,0.4837075,-1.121017,0.9718041,0.04214418,-0.2048376,-27.01312,-30.56339,14.87003
192.16,7.21941200000001,0.1891749,-1.121017,0.9664291,0.04453954,-0.2029161,-26.63332,-31.29081,14.88518
192.17,7.09496000000001,0.2480814,-1.121017,0.9610561,0.04739691,-0.2034063,-26.63332,-31.29081,14.88518
192.18,6.72160499999997,-0.04645117,-1.182076,0.9649388,0.04932348,-0.2077351,-26.63332,-31.29081,14.88518
192.19,6.47270099999997,0.01245534,-1.121017,0.9649813,0.04449311,-0.2067803,-26.63332,-31.29081,14.88518
192.2,6.22379700000003,-0.2820772,-1.182076,0.9708341,0.0425986,-0.2072518,-26.63332,-31.29081,14.88518
192.21,6.09934500000003,-0.2820772,-1.243135,0.9683961,0.04213515,-0.2029162,-26.63332,-31.29081,14.88518
192.22,5.85044100000002,-0.2820772,-0.998898300000002,0.9703084,0.04600849,-0.2043506,-26.63332,-31.29081,14.88518
192.23,5.41486,-0.2231707,-0.876779899999998,0.9717999,0.04122017,-0.2000141,-26.63332,-31.29081,14.88518
192.24,5.041504,-0.1053577,-0.998898300000002,0.9732586,0.03982363,-0.1951879,-26.63332,-31.29081,14.88518
192.25,4.605922,-0.2820772,-0.8157207,0.9746855,0.04181448,-0.1903544,-26.63332,-31.29081,14.88518
192.26,4.108115,-0.1053577,-0.5714841,0.9746953,0.04131304,-0.1922856,-26.63332,-31.29081,14.88518
192.27,3.423629,-0.1642642,-0.5714841,0.9770862,0.0447457,-0.1893768,-26.63332,-31.29081,14.88518
192.28,3.112499,0.01245534,-0.3272474,0.9722257,0.04423699,-0.1879428,-26.63332,-31.29081,14.88518
192.29,2.739143,-0.04645117,-0.3272474,0.9711999,0.05050276,-0.1898621,-26.63332,-31.29081,14.88518
192.3,2.428014,-0.04645117,-0.2661883,0.9716839,0.05004454,-0.1874491,-26.63332,-31.29081,14.88518
192.31,1.86798,-0.04645117,-0.14407,0.9741472,0.04807966,-0.1927551,-27.00277,-30.9321,14.49676
192.32,1.619076,0.01245534,-0.0830107899999998,0.9770319,0.05055267,-0.1893645,-27.00277,-30.9321,14.49676
192.33,0.996816700000002,0.01245534,0.03910754,0.9770798,0.04335969,-0.1821416,-27.00277,-30.9321,14.49676
192.34,0.6856869,0.01245534,0.03910754,0.97801,0.04772688,-0.1816472,-27.00277,-30.9321,14.49676
192.35,0.0634274100000002,0.3658944,0.03910754,0.9761063,0.04335648,-0.1816615,-27.00277,-30.9321,14.49676
192.36,-0.745509999999999,0.1891749,-0.14407,0.9780105,0.04491103,-0.1720023,-26.63752,-31.2836,15.32747
192.37,-1.305544,0.542614,0.03910754,0.9761116,0.04333895,-0.1835917,-26.63752,-31.2836,15.32747
192.38,-1.741125,0.542614,0.1612259,0.9761114,0.04240179,-0.1802159,-26.63752,-31.2836,15.32747
192.39,-1.927803,0.4248009,0.1612259,0.976105,0.04336086,-0.181179,-26.63752,-31.2836,15.32747
192.4,-1.803351,0.660427000000001,0.2833442,0.9780946,0.04088198,-0.1893825,-26.63752,-31.2836,15.32747
192.41,-1.803351,0.837146600000002,0.4054625,0.9712638,0.04325719,-0.1884299,-26.26701,-31.29319,14.88866
192.42,-1.678899,0.837146600000002,0.2833442,0.9693255,0.04134579,-0.1840961,-26.26701,-31.29319,14.88866
192.43,-1.741125,0.778240099999999,0.3444034,0.9727275,0.04325105,-0.1903563,-26.26701,-31.29319,14.88866
192.44,-1.927803,0.719333499999998,0.5275809,0.9693413,0.04035605,-0.1865109,-26.26701,-31.29319,14.88866
192.45,-2.052255,0.542614,0.5275809,0.9722459,0.04041825,-0.1821603,-26.26701,-31.29319,14.88866
192.46,-2.425611,0.2480814,0.3444034,0.9669256,0.04122604,-0.1952012,-26.65102,-30.55856,15.3158
192.47,-2.425611,0.2480814,0.5275809,0.9683145,0.04756336,-0.1913236,-26.65102,-30.55856,15.3158
192.48,-2.425611,0.1302684,0.4054625,0.9664179,0.04270028,-0.192304,-26.65102,-30.55856,15.3158
192.49,-2.425611,-0.1642642,0.2833442,0.96742,0.03979562,-0.1932728,-26.65102,-30.55856,15.3158
192.5,-2.363385,-0.1642642,0.3444034,0.9698142,0.04368591,-0.1932582,-26.65102,-30.55856,15.3158
192.51,-2.363385,-0.3409837,0.2833442,0.9683448,0.04418034,-0.1908482,-26.27797,-30.92345,15.32511
192.52,-2.363385,-0.1642642,0.3444034,0.972764,0.04031689,-0.1937404,-26.27797,-30.92345,15.32511
192.53,-2.301159,-0.1053577,0.3444034,0.9698992,0.03543308,-0.196171,-26.27797,-30.92345,15.32511
192.54,-2.238933,-0.1053577,0.2833442,0.9689013,0.03597951,-0.1884517,-26.27797,-30.92345,15.32511
192.55,-2.301159,0.01245534,0.4665217,0.9694318,0.03067777,-0.1865315,-26.62971,-31.297,14.50608
192.56,-2.238933,0.1891749,0.3444034,0.9718834,0.02968949,-0.1908702,-26.62971,-31.297,14.50608
192.57,-2.425611,0.1302684,0.4054625,0.9728077,0.03454498,-0.1898923,-26.62971,-31.297,14.50608
192.58,-2.550063,0.0713618500000003,0.588639999999999,0.9733289,0.031619,-0.1927925,-26.62971,-31.297,14.50608
192.59,-2.363385,0.01245534,0.771817600000001,0.9708305,0.03885873,-0.1927834,-26.62971,-31.297,14.50608
192.6,-2.363385,0.0713618500000003,0.710758400000002,0.9659225,0.04507224,-0.1971257,-27.01312,-30.56339,14.87003
192.61,-2.550063,-0.1053577,0.771817600000001,0.9746565,0.04519312,-0.1913123,-27.01312,-30.56339,14.87003
192.62,-2.73674,-0.04645117,0.832876700000002,0.9721817,0.05141683,-0.1966133,-27.01312,-30.56339,14.87003
192.63,-2.923418,0.01245534,0.710758400000002,0.9746498,0.04756011,-0.1970978,-27.01312,-30.56339,14.87003
192.64,-3.172322,0.0713618500000003,0.4054625,0.9698579,0.04025907,-0.1976084,-27.01312,-30.56339,14.87003
192.65,-3.483452,0.3069879,0.1612259,0.9684508,0.03492025,-0.1981061,-27.01312,-30.56339,14.87003
192.66,-3.296774,0.4248009,-0.14407,0.9704841,0.02666946,-0.2024615,-27.01312,-30.56339,14.87003
192.67,-3.296774,0.542614,-0.14407,0.9681023,0.01992389,-0.1971741,-27.01312,-30.56339,14.87003
192.68,-3.110096,0.2480814,-0.14407,0.9642695,0.01501934,-0.2010549,-27.01312,-30.56339,14.87003
192.69,-2.798966,0.1891749,0.03910754,0.9681378,0.01558619,-0.1952532,-27.01312,-30.56339,14.87003
192.7,-2.73674,-0.2231707,0.3444034,0.9685914,0.02085608,-0.2015138,-26.26701,-31.29319,14.88866
192.71,-2.114481,-0.3409837,0.710758400000002,0.9705071,0.02284196,-0.1976442,-26.26701,-31.29319,14.88866
192.72,-1.741125,-0.5177032,1.077113,0.97036,0.0378652,-0.1951995,-26.26701,-31.29319,14.88866
192.73,-1.429995,-0.3409837,1.443468,0.9736948,0.04515047,-0.1951753,-26.26701,-31.29319,14.88866
192.74,-1.367769,-0.2820772,1.565587,0.9760317,0.05298218,-0.1874316,-26.26701,-31.29319,14.88866
192.75,-1.616673,-0.3409837,1.443468,0.9744962,0.06026018,-0.1840421,-26.63646,-30.93447,14.50024
192.76,-2.425611,-0.694422800000001,0.771817600000001,0.9783863,0.05794107,-0.1763163,-26.63646,-30.93447,14.50024
192.77,-3.359,-0.8711423,0.2833442,0.9764199,0.05752961,-0.1666712,-26.63646,-30.93447,14.50024
192.78,-4.354615,-0.930048799999998,-0.02195162,0.978425,0.05077875,-0.1657155,-26.63646,-30.93447,14.50024
192.79,-4.976874,-0.5177032,-0.3272474,0.9765424,0.04540109,-0.1700748,-26.63646,-30.93447,14.50024
192.8,-5.288004,-0.04645117,-0.4493658,0.9766313,0.03713512,-0.1744353,-26.27376,-30.93067,14.88283
192.81,-4.727971,0.1891749,-0.4493658,0.9825463,0.02940735,-0.1778145,-26.27376,-30.93067,14.88283
192.82,-3.856808,0.1891749,-0.2661883,0.982216,0.01482041,-0.185085,-26.27376,-30.93067,14.88283
192.83,-2.550063,0.0713618500000003,-0.14407,0.9812526,0.01290784,-0.1817137,-26.27376,-30.93067,14.88283
192.84,-1.865577,-0.04645117,0.222285,0.9783128,0.01577541,-0.1831628,-26.27376,-30.93067,14.88283
192.85,-0.932187899999997,0.0713618500000003,0.4054625,0.9797298,0.02061279,-0.1845964,-26.25665,-31.66189,14.51539
192.86,-0.4966062,0.1891749,0.710758400000002,0.9805915,0.03036438,-0.1773349,-26.25665,-31.66189,14.51539
192.87,-0.4966062,0.660427000000001,0.893935900000001,0.976208,0.03317238,-0.1840959,-26.25665,-31.66189,14.51539
192.88,-0.5588321,0.837146600000002,1.199232,0.9785892,0.03804363,-0.1826316,-26.25665,-31.66189,14.51539
192.89,-0.3721543,1.072773,0.954994999999997,0.9717411,0.04282089,-0.1836041,-26.25665,-31.66189,14.51539
192.9,-0.4343802,0.837146600000002,0.710758400000002,0.9697664,0.04618873,-0.1840845,-26.62551,-31.30421,14.06379
192.91,-0.4343802,0.4837075,0.5275809,0.964929,0.04513476,-0.1894073,-26.62551,-31.30421,14.06379
192.92,-0.6210581,-0.1053577,0.4054625,0.9600071,0.04858061,-0.1787965,-26.62551,-31.30421,14.06379
192.93,-0.994413899999998,-0.2820772,0.4054625,0.9682756,0.04909835,-0.1821519,-26.62551,-31.30421,14.06379
192.94,-1.616673,-0.5177032,0.2833442,0.9736863,0.04330245,-0.1855283,-26.62551,-31.30421,14.06379
192.95,-1.927803,-0.3998902,0.222285,0.9775582,0.04432692,-0.1826208,-26.63332,-31.29081,14.88518
192.96,-2.425611,-0.4587968,-0.02195162,0.9737327,0.03986686,-0.1908436,-26.63332,-31.29081,14.88518
192.97,-2.363385,-0.3409837,0.1001667,0.9718583,0.03305498,-0.1932758,-26.63332,-31.29081,14.88518
192.98,-2.238933,-0.3998902,0.222285,0.9714015,0.0306097,-0.195695,-26.63332,-31.29081,14.88518
192.99,-2.052255,-0.753329299999999,0.3444034,0.9660006,0.03590416,-0.1942499,-26.63332,-31.29081,14.88518
193,-1.927803,-0.812235800000003,0.588639999999999,0.9665088,0.03395916,-0.1957004,-26.63332,-31.29081,14.88518
193.01,-1.927803,-1.047862,0.5275809,0.9611595,0.03345542,-0.1933025,-26.63332,-31.29081,14.88518
193.02,-2.176707,-1.283488,0.4054625,0.9674059,0.03937305,-0.186518,-26.63332,-31.29081,14.88518
193.03,-2.176707,-1.519114,0.4054625,0.9644757,0.04080203,-0.1865225,-26.63332,-31.29081,14.88518
193.04,-2.301159,-1.636927,0.3444034,0.9683525,0.0432169,-0.1903677,-26.63332,-31.29081,14.88518
193.05,-2.363385,-2.049273,0.1612259,0.9659761,0.03879888,-0.1952088,-26.62296,-31.65952,14.51191
193.06,-2.363385,-2.343805,0.222285,0.9697999,0.04467126,-0.1913259,-26.62296,-31.65952,14.51191
193.07,-2.425611,-2.638338,-0.0830107899999998,0.97671,0.03312359,-0.1898853,-26.62296,-31.65952,14.51191
193.08,-2.674515,-2.697244,0.03910754,0.9810438,0.03798373,-0.1913113,-26.62296,-31.65952,14.51191
193.09,-2.923418,-2.579431,-0.02195162,0.9786361,0.03648235,-0.1946986,-26.62296,-31.65952,14.51191
193.1,-2.674515,-2.343805,0.1612259,0.9747084,0.03798699,-0.1855371,-26.2634,-31.29937,14.50956
193.11,-2.363385,-2.049273,0.1001667,0.9772254,0.03068591,-0.192302,-26.2634,-31.29937,14.50956
193.12,-1.865577,-1.872553,0.1001667,0.9752606,0.0335523,-0.1947136,-26.2634,-31.29937,14.50956
193.13,-1.554447,-1.93146,-0.02195162,0.9699166,0.03068595,-0.1860477,-26.2634,-31.29937,14.50956
193.14,-1.243318,-1.93146,-0.14407,0.9748256,0.02587599,-0.1870105,-26.2634,-31.29937,14.50956
193.15,-1.367769,-1.578021,-0.14407,0.971934,0.02483282,-0.1928107,-26.99601,-31.29462,14.5026
193.16,-1.118866,-1.519114,-0.2661883,0.9734014,0.02387637,-0.192809,-26.99601,-31.29462,14.5026
193.17,-0.994413899999998,-1.636927,-0.2661883,0.9729174,0.02433459,-0.195222,-26.99601,-31.29462,14.5026
193.18,-0.5588321,-1.578021,-0.02195162,0.9695253,0.02427297,-0.1990913,-26.99601,-31.29462,14.5026
193.19,0.1256534,-1.578021,-0.0830107899999998,0.9719294,0.02766181,-0.201008,-26.25665,-31.66189,14.51539
193.2,0.810138799999998,-1.283488,-0.02195162,0.9738618,0.02771643,-0.19666,-26.25665,-31.66189,14.51539
193.21,1.121269,-1.401301,-0.0830107899999998,0.9786792,0.03352628,-0.2004954,-26.25665,-31.66189,14.51539
193.22,1.432398,-1.401301,0.03910754,0.9796297,0.03407475,-0.1942187,-26.25665,-31.66189,14.51539
193.23,1.494624,-1.165675,-0.0830107899999998,0.9737378,0.03891217,-0.189398,-26.25665,-31.66189,14.51539
193.24,1.370172,-0.988955399999998,-0.2661883,0.9737463,0.03841512,-0.1908467,-26.2634,-31.29937,14.50956
193.25,1.059043,-0.988955399999998,-0.4493658,0.9742447,0.03462647,-0.1821676,-26.2634,-31.29937,14.50956
193.26,0.996816700000002,-1.047862,-0.3272474,0.9732898,0.03456192,-0.1884434,-26.2634,-31.29937,14.50956
193.27,0.996816700000002,-1.047862,-0.4493658,0.9762152,0.03502478,-0.1932603,-26.2634,-31.29937,14.50956
193.28,0.934590599999999,-0.812235800000003,-0.3883066,0.9728079,0.03548213,-0.1932681,-26.2634,-31.29937,14.50956
193.29,1.059043,-1.165675,-0.5104249,0.9732469,0.04080022,-0.1942207,-26.99181,-31.30183,14.06031
193.3,1.183495,-1.224581,-0.5714841,0.9717922,0.03983853,-0.1922963,-26.99181,-31.30183,14.06031
193.31,0.872364799999998,-1.401301,-0.5104249,0.9732354,0.04036888,-0.1884311,-26.99181,-31.30183,14.06031
193.32,0.872364799999998,-1.578021,-0.4493658,0.9761787,0.03795893,-0.1898763,-26.99181,-31.30183,14.06031
193.33,0.747912799999997,-1.401301,-0.4493658,0.979091,0.03940277,-0.1932435,-26.99181,-31.30183,14.06031
193.34,0.872364799999998,-1.342394,-0.4493658,0.9722624,0.04223999,-0.1947027,-26.63901,-30.57916,14.05212
193.35,0.499009,-1.224581,-0.5714841,0.9693599,0.04029471,-0.1932667,-26.63901,-30.57916,14.05212
193.36,0.2501053,-1.460208,-0.4493658,0.9742377,0.03840138,-0.1927756,-26.63901,-30.57916,14.05212
193.37,0.1256534,-1.401301,-0.4493658,0.9698645,0.04023716,-0.2000212,-26.63901,-30.57916,14.05212
193.38,-0.0610244899999998,-1.283488,-0.2051291,0.9737316,0.04080839,-0.1937369,-26.63901,-30.57916,14.05212
193.39,-0.2477024,-1.342394,-0.2661883,0.9708411,0.03882368,-0.1966439,-25.8971,-31.30174,14.51304
193.4,-0.1854764,-1.342394,-0.4493658,0.9708139,0.04172717,-0.1966377,-25.8971,-31.30174,14.51304
193.41,-0.1854764,-1.283488,-0.4493658,0.9713314,0.03975148,-0.2014661,-25.8971,-31.30174,14.51304
193.42,-0.1232504,-1.342394,-0.5104249,0.9679263,0.04067085,-0.2038856,-25.8971,-31.30174,14.51304
193.43,0.001201458,-1.165675,-0.5104249,0.9698542,0.04120937,-0.1995366,-25.8971,-31.30174,14.51304
193.44,-0.0610244899999998,-0.930048799999998,-0.5104249,0.9738094,0.03539332,-0.2038818,-26.2499,-32.02441,14.52122
193.45,0.0634274100000002,-1.165675,-0.5104249,0.9723148,0.03925325,-0.2038774,-26.2499,-32.02441,14.52122
193.46,0.1878793,-0.812235800000003,-0.5714841,0.9708893,0.03491294,-0.2009951,-26.2499,-32.02441,14.52122
193.47,0.0634274100000002,-1.047862,-0.3883066,0.9738163,0.03396349,-0.2014721,-26.2499,-32.02441,14.52122
193.48,0.2501053,-0.930048799999998,-0.5714841,0.9694397,0.03534165,-0.2058234,-26.2499,-32.02441,14.52122
193.49,0.3123312,-1.047862,-0.632543299999997,0.9675294,0.03333823,-0.2116232,-26.28472,-30.56093,15.31928
193.5,0.3123312,-1.165675,-0.5714841,0.9635743,0.03915428,-0.207278,-26.28472,-30.56093,15.31928
193.51,0.3123312,-1.165675,-0.5104249,0.9708885,0.03679163,-0.2072642,-26.28472,-30.56093,15.31928
193.52,0.3123312,-1.165675,-0.5104249,0.9728036,0.03924828,-0.2048412,-26.28472,-30.56093,15.31928
193.53,0.2501053,-1.283488,-0.5714841,0.970843,0.04069361,-0.2038781,-26.28472,-30.56093,15.31928
193.54,0.001201458,-1.224581,-0.693602399999999,0.9718094,0.04212665,-0.2067678,-26.26701,-31.29319,14.88866
193.55,-0.1854764,-1.224581,-0.754661599999998,0.9674881,0.03581915,-0.2048623,-26.26701,-31.29319,14.88866
193.56,-0.1232504,-1.047862,-0.632543299999997,0.9703352,0.04216785,-0.2009809,-26.26701,-31.29319,14.88866
193.57,-0.3721543,-1.106768,-0.632543299999997,0.9713205,0.04119447,-0.2024281,-26.26701,-31.29319,14.88866
193.58,-0.683284100000001,-1.224581,-0.3272474,0.9693625,0.04263103,-0.2024301,-26.26701,-31.29319,14.88866
193.59,-0.745509999999999,-1.165675,-0.3883066,0.9688982,0.03974128,-0.2005073,-26.64007,-30.92829,14.87934
193.6,-0.994413899999998,-0.930048799999998,-0.3883066,0.968882,0.04354687,-0.2077374,-26.64007,-30.92829,14.87934
193.61,-1.05664,-1.224581,-0.5714841,0.9717277,0.04989995,-0.2033734,-26.64007,-30.92829,14.87934
193.62,-1.181092,-1.283488,-0.632543299999997,0.9654492,0.0454954,-0.2033991,-26.64007,-30.92829,14.87934
193.63,-1.492221,-1.224581,-0.3883066,0.9654803,0.04257877,-0.204853,-26.64007,-30.92829,14.87934
193.64,-1.429995,-1.224581,-0.4493658,0.9654816,0.04257439,-0.2053355,-25.9007,-31.29556,14.89214
193.65,-1.616673,-1.106768,-0.3272474,0.963936,0.05176175,-0.2048372,-25.9007,-31.29556,14.89214
193.66,-1.678899,-1.165675,-0.5104249,0.9707625,0.05080761,-0.2091646,-25.9007,-31.29556,14.89214
193.67,-1.741125,-1.342394,-0.0830107899999998,0.9727426,0.04742224,-0.2106144,-25.9007,-31.29556,14.89214
193.68,-1.741125,-1.106768,-0.2051291,0.9698014,0.0502942,-0.2115809,-25.9007,-31.29556,14.89214
193.69,-1.616673,-1.047862,-0.2661883,0.9707542,0.05224182,-0.2110917,-26.25771,-32.01102,15.34262
193.7,-1.803351,-0.988955399999998,-0.2051291,0.9687765,0.05468127,-0.2072312,-26.25771,-32.01102,15.34262
193.71,-1.865577,-0.930048799999998,-0.14407,0.9673738,0.04885854,-0.2077298,-26.25771,-32.01102,15.34262
193.72,-1.927803,-0.753329299999999,-0.2051291,0.9692559,0.05470697,-0.2048171,-26.25771,-32.01102,15.34262
193.73,-1.990029,-0.812235800000003,-0.0830107899999998,0.9741396,0.05467043,-0.2130079,-26.25771,-32.01102,15.34262
193.74,-2.052255,-0.694422800000001,-0.02195162,0.9731603,0.05281044,-0.2038461,-25.89035,-31.66426,14.51887
193.75,-1.865577,-0.1642642,-0.2051291,0.9746764,0.04747247,-0.2067489,-25.89035,-31.66426,14.51887
193.76,-1.554447,0.1891749,-0.2051291,0.9717671,0.04789419,-0.2110984,-25.89035,-31.66426,14.51887
193.77,-1.118866,0.1891749,0.222285,0.9713239,0.04399717,-0.2135207,-25.89035,-31.66426,14.51887
193.78,-0.807735999999999,0.4837075,0.03910754,0.9737533,0.04495768,-0.2164077,-26.62656,-31.65333,14.89101
193.79,-0.745509999999999,0.1302684,0.1001667,0.9673837,0.0483571,-0.2096611,-26.62656,-31.65333,14.89101
193.8,-0.807735999999999,0.0713618500000003,0.1612259,0.9669399,0.04493085,-0.21353,-26.62656,-31.65333,14.89101
193.81,-0.683284100000001,-0.1053577,0.1001667,0.96547,0.04589606,-0.2125666,-26.62656,-31.65333,14.89101
193.82,-0.3721543,0.01245534,0.1612259,0.9683945,0.04589253,-0.2154544,-26.62656,-31.65333,14.89101
193.83,-0.2477024,-0.1053577,0.03910754,0.966449,0.04447382,-0.2101544,-26.62656,-31.65333,14.89101
193.84,-0.1854764,-0.1642642,0.03910754,0.9630627,0.04392391,-0.2145073,-26.2634,-31.29937,14.50956
193.85,0.1256534,-0.1642642,0.1001667,0.9625623,0.04725055,-0.2207745,-26.2634,-31.29937,14.50956
193.86,-0.1232504,-0.2231707,-0.0830107899999998,0.9659603,0.04682387,-0.2173888,-26.2634,-31.29937,14.50956
193.87,-0.4343802,-0.3409837,0.1612259,0.9659193,0.05024194,-0.2140038,-26.2634,-31.29937,14.50956
193.88,-0.3721543,-0.5177032,0.03910754,0.9683905,0.04590568,-0.2140067,-26.26595,-30.94406,14.06144
193.89,-0.2477024,-0.3409837,0.1001667,0.9650114,0.04251801,-0.2111274,-26.26595,-30.94406,14.06144
193.9,-0.3099283,-0.635516299999998,0.03910754,0.9688995,0.04208198,-0.2091881,-26.26595,-30.94406,14.06144
193.91,-0.4966062,-0.2231707,-0.02195162,0.9722738,0.0450164,-0.2086906,-26.26595,-30.94406,14.06144
193.92,-0.4966062,-0.3409837,0.1001667,0.974712,0.04407193,-0.2082038,-26.26595,-30.94406,14.06144
193.93,-0.4966062,-0.2820772,0.1612259,0.9718193,0.04162521,-0.208699,-26.2499,-32.02441,14.52122
193.94,-0.3721543,-0.2231707,0.03910754,0.9708288,0.04261613,-0.2053216,-26.2499,-32.02441,14.52122
193.95,-0.1854764,0.1891749,0.1001667,0.9693894,0.04113547,-0.2072587,-26.2499,-32.02441,14.52122
193.96,-0.1854764,0.2480814,0.1612259,0.9728014,0.04113136,-0.2106278,-26.2499,-32.02441,14.52122
193.97,0.3745572,0.4837075,-0.02195162,0.9781395,0.04214092,-0.2106118,-26.2499,-32.02441,14.52122
193.98,0.561235,0.3658944,0.1612259,0.9698813,0.04065097,-0.207741,-26.27376,-30.93067,14.88283
193.99,0.623460899999999,0.4248009,0.1612259,0.9737301,0.04550294,-0.2096509,-26.27376,-30.93067,14.88283
194,0.872364799999998,0.601520500000003,0.222285,0.9688612,0.04549129,-0.2067682,-26.27376,-30.93067,14.88283
194.01,1.121269,0.660427000000001,0.222285,0.9658927,0.05032957,-0.2043527,-26.27376,-30.93067,14.88283
194.02,0.934590599999999,0.601520500000003,0.2833442,0.9717243,0.05178741,-0.2086774,-26.27376,-30.93067,14.88283
194.03,1.121269,0.8960531,0.3444034,0.9693023,0.04892629,-0.2019342,-26.26701,-31.29319,14.88866
194.04,0.747912799999997,0.660427000000001,0.4054625,0.9664432,0.04261703,-0.2014726,-26.26701,-31.29319,14.88866
194.05,0.747912799999997,0.837146600000002,0.03910754,0.9664019,0.04744302,-0.2029099,-26.26701,-31.29319,14.88866
194.06,0.747912799999997,0.719333499999998,0.2833442,0.9712886,0.04364471,-0.1990451,-26.26701,-31.29319,14.88866
194.07,0.747912799999997,0.660427000000001,0.1612259,0.9639384,0.05081584,-0.2024265,-26.26701,-31.29319,14.88866
194.08,0.872364799999998,0.4248009,0.222285,0.9688759,0.04309801,-0.203878,-26.63332,-31.29081,14.88518
194.09,0.6856869,0.3658944,0.1612259,0.9678339,0.05082428,-0.2048292,-26.63332,-31.29081,14.88518
194.1,0.810138799999998,0.3069879,0.222285,0.9678746,0.04646906,-0.2048384,-26.63332,-31.29081,14.88518
194.11,0.4367831,0.3069879,0.1612259,0.9684012,0.04118046,-0.2014706,-26.63332,-31.29081,14.88518
194.12,0.499009,0.0713618500000003,0.1001667,0.9678898,0.04595008,-0.2086999,-26.63332,-31.29081,14.88518
194.13,0.623460899999999,0.2480814,0.03910754,0.9722772,0.04312895,-0.2033866,-25.89395,-31.65808,14.89797
194.14,0.499009,0.1891749,0.3444034,0.970787,0.04556781,-0.2000073,-25.89395,-31.65808,14.89797
194.15,0.4367831,0.0713618500000003,0.222285,0.9703248,0.04314006,-0.2004963,-25.89395,-31.65808,14.89797
194.16,0.499009,0.3069879,0.1612259,0.9693851,0.04021146,-0.2024352,-25.89395,-31.65808,14.89797
194.17,0.6856869,0.3658944,0.588639999999999,0.9732476,0.04361169,-0.2043481,-25.89395,-31.65808,14.89797
194.18,0.561235,0.1302684,0.1612259,0.9713005,0.04360528,-0.2033881,-25.9007,-31.29556,14.89214
194.19,0.561235,0.2480814,0.4665217,0.9702938,0.04605669,-0.1990425,-25.9007,-31.29556,14.89214
194.2,0.623460899999999,0.2480814,0.2833442,0.9659339,0.04550358,-0.2029153,-25.9007,-31.29556,14.89214
194.21,0.623460899999999,0.0713618500000003,0.4054625,0.9654037,0.04939738,-0.200013,-25.9007,-31.29556,14.89214
194.22,0.499009,0.2480814,0.1612259,0.9683533,0.04837345,-0.2086935,-25.9007,-31.29556,14.89214
194.23,0.3745572,0.3069879,0.2833442,0.9707902,0.04743336,-0.2077241,-25.9007,-31.29556,14.89214
194.24,0.3123312,0.3069879,0.2833442,0.9712917,0.04551025,-0.2067619,-25.9007,-31.29556,14.89214
194.25,0.3745572,0.3658944,0.222285,0.9674093,0.04452084,-0.2058089,-25.9007,-31.29556,14.89214
194.26,0.1256534,0.1302684,0.222285,0.967917,0.0430466,-0.2087061,-25.9007,-31.29556,14.89214
194.27,0.1256534,0.3069879,0.4054625,0.9655038,0.04062558,-0.2067873,-25.9007,-31.29556,14.89214
194.28,0.2501053,0.3069879,0.222285,0.9689374,0.03679836,-0.2048565,-26.2634,-31.29937,14.50956
194.29,0.3123312,0.2480814,0.4665217,0.9723489,0.03726502,-0.2096721,-26.2634,-31.29937,14.50956
194.3,0.1878793,0.2480814,0.3444034,0.9669328,0.04307845,-0.2043656,-26.2634,-31.29937,14.50956
194.31,0.2501053,0.1302684,0.222285,0.9732449,0.04362045,-0.203383,-26.2634,-31.29937,14.50956
194.32,0.0634274100000002,0.3069879,0.2833442,0.9698882,0.04156622,-0.2135296,-26.2634,-31.29937,14.50956
194.33,0.3123312,0.3658944,0.3444034,0.9703459,0.0421328,-0.2048414,-26.61621,-32.02204,14.51774
194.34,0.1256534,0.3069879,0.222285,0.9723169,0.03971526,-0.2062891,-26.61621,-32.02204,14.51774
194.35,0.0634274100000002,0.4837075,0.3444034,0.9703541,0.04304367,-0.2111125,-26.61621,-32.02204,14.51774
194.36,0.2501053,0.3069879,0.2833442,0.9689251,0.03824572,-0.2053359,-26.61621,-32.02204,14.51774
194.37,0.3745572,0.3069879,0.1001667,0.9689152,0.04109224,-0.211603,-26.61621,-32.02204,14.51774
194.38,0.3123312,-0.04645117,0.2833442,0.9678929,0.04547055,-0.2082184,-26.62296,-31.65952,14.51191
194.39,0.1878793,0.3658944,0.2833442,0.9669514,0.04067202,-0.2029231,-26.62296,-31.65952,14.51191
194.4,0.1256534,-0.04645117,0.03910754,0.9683908,0.04449775,-0.2091843,-26.62296,-31.65952,14.51191
194.41,-0.0610244899999998,0.01245534,0.222285,0.9708352,0.04165706,-0.2043586,-26.62296,-31.65952,14.51191
194.42,0.001201458,0.2480814,-0.02195162,0.9713178,0.04120323,-0.201463,-26.62296,-31.65952,14.51191
194.43,-0.1232504,0.1302684,0.1612259,0.9741767,0.04657535,-0.1985488,-25.89035,-31.66426,14.51887
194.44,-0.0610244899999998,0.3658944,-0.0830107899999998,0.9698877,0.03969191,-0.206778,-25.89035,-31.66426,14.51887
194.45,-0.1232504,0.601520500000003,0.03910754,0.9718415,0.03733133,-0.2019525,-25.89035,-31.66426,14.51887
194.46,0.0634274100000002,0.837146600000002,0.1612259,0.968439,0.03824193,-0.2053372,-25.89035,-31.66426,14.51887
194.47,0.1256534,0.719333499999998,0.2833442,0.9630414,0.04399401,-0.2067864,-26.2592,-31.30658,14.06727
194.48,0.1256534,0.660427000000001,0.222285,0.9678581,0.04933748,-0.2086927,-26.2592,-31.30658,14.06727
194.49,0.001201458,0.4248009,0.4054625,0.9654561,0.04641065,-0.2091877,-26.2592,-31.30658,14.06727
194.5,-0.1854764,0.1302684,0.3444034,0.9639541,0.0498261,-0.2048413,-26.2592,-31.30658,14.06727
194.51,-0.4343802,-0.1053577,0.1001667,0.9659555,0.04402554,-0.2058137,-26.2592,-31.30658,14.06727
194.52,-0.6210581,-0.04645117,0.03910754,0.9717842,0.04455499,-0.2057975,-26.2499,-32.02441,14.52122
194.53,-0.683284100000001,0.1891749,0.1612259,0.9703262,0.04313568,-0.2009789,-26.2499,-32.02441,14.52122
194.54,-0.869961900000003,-0.1642642,0.1001667,0.9683881,0.04216143,-0.2000208,-26.2499,-32.02441,14.52122
194.55,-0.4966062,-0.1053577,0.1612259,0.9683567,0.04648599,-0.2033895,-26.2499,-32.02441,14.52122
194.56,-0.6210581,-0.1053577,0.03910754,0.9664581,0.0411609,-0.2019582,-26.2499,-32.02441,14.52122
194.57,-0.5588321,0.1302684,0.1612259,0.9722525,0.04508651,-0.2009697,-25.8872,-32.0206,14.90381
194.58,-0.4343802,0.01245534,-0.0830107899999998,0.9684017,0.04070969,-0.2000239,-25.8872,-32.0206,14.90381
194.59,-0.4343802,0.0713618500000003,0.1001667,0.972789,0.03929648,-0.1995331,-25.8872,-32.0206,14.90381
194.6,-0.3721543,0.0713618500000003,0.1612259,0.9679324,0.04111971,-0.207745,-25.8872,-32.0206,14.90381
194.61,-0.4343802,0.2480814,-0.02195162,0.9708325,0.04166582,-0.2033935,-25.8872,-32.0206,14.90381
194.62,-0.4343802,0.01245534,0.1612259,0.9688756,0.04450593,-0.2087004,-26.25665,-31.66189,14.51539
194.63,-0.3721543,-0.1053577,-0.0830107899999998,0.9693561,0.04359009,-0.2033931,-26.25665,-31.66189,14.51539
194.64,-0.3721543,-0.2231707,0.03910754,0.9674511,0.03922407,-0.2029249,-26.25665,-31.66189,14.51539
194.65,0.001201458,0.1891749,0.1612259,0.9693925,0.04065594,-0.2067772,-26.25665,-31.66189,14.51539
194.66,0.2501053,0.4248009,0.03910754,0.9727983,0.03926581,-0.202911,-26.25665,-31.66189,14.51539
194.67,0.4367831,0.660427000000001,0.222285,0.9718162,0.03975967,-0.2009823,-25.90746,-30.93304,14.8863
194.68,0.4367831,0.4248009,0.03910754,0.9713191,0.04119885,-0.2019456,-25.90746,-30.93304,14.8863
194.69,0.561235,0.4248009,-0.02195162,0.9713349,0.04020911,-0.2043604,-25.90746,-30.93304,14.8863
194.7,0.561235,0.4248009,0.1612259,0.9703293,0.04500123,-0.2086956,-25.90746,-30.93304,14.8863
194.71,0.4367831,0.1891749,-0.02195162,0.9732828,0.04068191,-0.2072497,-25.90746,-30.93304,14.8863
194.72,0.4367831,0.0713618500000003,-0.0830107899999998,0.968419,0.04065273,-0.2062972,-26.26595,-30.94406,14.06144
194.73,0.4367831,0.1891749,0.03910754,0.9649532,0.04599304,-0.2014691,-26.26595,-30.94406,14.06144
194.74,0.2501053,0.3658944,0.03910754,0.9674042,0.04313044,-0.1990562,-26.26595,-30.94406,14.06144
194.75,0.1256534,0.3069879,0.03910754,0.9688884,0.04024272,-0.1985761,-26.26595,-30.94406,14.06144
194.76,0.1878793,0.2480814,0.03910754,0.9674061,0.04265529,-0.1980921,-26.26595,-30.94406,14.06144
194.77,0.001201458,0.0713618500000003,-0.0830107899999998,0.9668924,0.04602575,-0.1995339,-26.26701,-31.29319,14.88866
194.78,-0.0610244899999998,0.1302684,-0.14407,0.9678118,0.050428,-0.1951791,-26.26701,-31.29319,14.88866
194.79,-0.4343802,-0.2820772,0.03910754,0.9683493,0.04604151,-0.1990475,-26.26701,-31.29319,14.88866
194.8,-0.4966062,-0.1053577,-0.0830107899999998,0.9697775,0.04802799,-0.1946966,-26.26701,-31.29319,14.88866
194.81,-0.745509999999999,-0.2231707,-0.14407,0.9619508,0.05375672,-0.1966347,-26.26701,-31.29319,14.88866
194.82,-1.492221,-0.5177032,0.03910754,0.9516809,0.05903953,-0.1923069,-26.2499,-32.02441,14.52122
194.83,-2.674515,-1.047862,0.1001667,0.9549742,0.06786856,-0.1821459,-26.2499,-32.02441,14.52122
194.84,-4.541293,-1.695834,0.3444034,0.9435472,0.08876048,-0.163311,-26.2499,-32.02441,14.52122
194.85,-7.27923499999997,-2.697244,0.771817600000001,0.9486848,0.1087216,-0.154569,-26.2499,-32.02441,14.52122
194.86,-11.2617,-3.875375,1.199232,0.9673241,0.1432187,-0.1554119,-26.2499,-32.02441,14.52122
194.87,-15.92864,-4.994598,1.687705,0.9755014,0.1506032,-0.1486192,-26.612,-32.02925,14.07546
194.88,-20.28446,-4.817879,2.298297,0.9843628,0.139986,-0.1529621,-26.612,-32.02925,14.07546
194.89,-23.39576,-3.521936,3.092066,1.010706,0.131441,-0.1572555,-26.612,-32.02925,14.07546
194.9,-25.82257,-1.578021,3.275243,1.007971,0.113936,-0.1640559,-26.612,-32.02925,14.07546
194.91,-27.37822,-0.1053577,3.51948,1.011136,0.09015932,-0.1737498,-26.612,-32.02925,14.07546
194.92,-28.18716,0.8960531,3.397362,1.006941,0.0726473,-0.1800714,-26.25665,-31.66189,14.51539
194.93,-27.8138,1.249492,3.397362,0.9930574,0.04838538,-0.1753339,-26.25665,-31.66189,14.51539
194.94,-25.76034,1.602931,3.824776,0.9893238,0.03189757,-0.1758615,-26.25665,-31.66189,14.51539
194.95,-23.08463,2.309809,4.007953,0.9763297,0.02057747,-0.1855703,-26.25665,-31.66189,14.51539
194.96,-19.97333,3.370126,4.374309,0.9729057,0.02531118,-0.1942548,-26.25665,-31.66189,14.51539
194.97,-16.92426,4.135911,4.557486,0.9661866,0.02262816,-0.2174403,-25.88614,-31.67148,14.07659
194.98,-14.37299,4.48935,4.557486,0.96472,0.02639608,-0.2275695,-25.88614,-31.67148,14.07659
194.99,-11.38615,4.312631,4.618545,0.963789,0.02625266,-0.2425312,-25.88614,-31.67148,14.07659
195,-8.89711000000002,4.194818,4.374309,0.9657794,0.02658525,-0.2608622,-25.88614,-31.67148,14.07659
195.01,-5.91026399999999,4.135911,4.130072,0.9652721,0.0299338,-0.2647167,-25.88614,-31.67148,14.07659
195.02,-3.545678,4.312631,4.007953,0.9632928,0.03378555,-0.2651961,-26.23428,-32.0512,12.87845
195.03,-1.554447,4.548257,4.313249,0.9593562,0.03625802,-0.2560325,-26.23428,-32.0512,12.87845
195.04,-0.4343802,4.371538,4.374309,0.9510288,0.03968607,-0.2444655,-26.23428,-32.0512,12.87845
195.05,-0.1232504,4.253725,4.435368,0.9480281,0.04369236,-0.2270928,-26.23428,-32.0512,12.87845
195.06,-0.4966062,3.605752,4.862782,0.9391578,0.05386951,-0.2179254,-26.23428,-32.0512,12.87845
195.07,-2.363385,2.368716,5.168077,0.9404804,0.06605323,-0.2096924,-26.97364,-31.68393,12.86565
195.08,-4.790197,0.542614,5.229137,0.9351285,0.06555825,-0.2063295,-26.97364,-31.68393,12.86565
195.09,-7.83926800000001,-1.106768,4.9849,0.944787,0.07147178,-0.202914,-26.97364,-31.68393,12.86565
195.1,-10.82611,-2.697244,5.168077,0.9501436,0.07242,-0.2096538,-26.97364,-31.68393,12.86565
195.11,-13.62628,-3.521936,5.107018,0.9613727,0.06812576,-0.2125294,-26.59698,-32.055,12.49586
195.12,-16.67535,-3.934281,4.679604,0.9691907,0.064302,-0.2139651,-26.59698,-32.055,12.49586
195.13,-20.22223,-3.580842,4.130072,0.974699,0.04739799,-0.2149523,-26.59698,-32.055,12.49586
195.14,-23.08463,-2.991777,3.885835,0.9860431,0.03053074,-0.2168895,-26.59698,-32.055,12.49586
195.15,-25.57367,-2.108179,3.702657,0.9900311,0.02038575,-0.2183487,-26.59698,-32.055,12.49586
195.16,-27.37822,-1.283488,4.25219,0.9988449,0.0108634,-0.2086955,-26.22647,-32.06459,12.05706
195.17,-27.75157,-0.576609699999997,4.801723,1.001834,0.002672772,-0.2072577,-26.22647,-32.06459,12.05706
195.18,-27.06709,-0.1642642,5.229137,0.9975173,-0.002710721,-0.2101757,-26.22647,-32.06459,12.05706
195.19,-25.13808,1.013866,5.90078799999999,0.9960122,-0.001160818,-0.1981126,-26.22647,-32.06459,12.05706
195.2,-21.71566,2.486529,6.572438,0.9945321,-0.0006313251,-0.1918421,-26.22647,-32.06459,12.05706
195.21,-17.54652,4.607163,6.99985300000002,0.9964059,0.006651326,-0.1908565,-26.59172,-31.71309,11.22635
195.22,-12.69289,6.78670500000001,7.30514899999999,0.9906035,0.005097091,-0.197148,-26.59172,-31.71309,11.22635
195.23,-7.83926800000001,8.84843299999998,7.30514899999999,0.9841928,0.01191458,-0.1870163,-26.59172,-31.71309,11.22635
195.24,-3.359,10.26219,7.36620799999997,0.9851233,0.01721893,-0.1898978,-26.59172,-31.71309,11.22635
195.25,0.3123312,11.44032,7.36620799999997,0.9812555,0.01618131,-0.1942529,-26.59172,-31.71309,11.22635
195.26,3.361403,11.97048,7.30514899999999,0.9802555,0.01954798,-0.1956959,-26.95802,-31.71072,11.22287
195.27,5.228182,12.38282,7.42726700000002,0.986123,0.01854243,-0.2048514,-26.95802,-31.71072,11.22287
195.28,6.59715299999997,12.79517,7.30514899999999,0.9856709,0.01326816,-0.1990733,-26.95802,-31.71072,11.22287
195.29,7.34386400000001,13.0308,7.61044399999998,0.9803621,0.007472035,-0.1933089,-26.95802,-31.71072,11.22287
195.3,7.71722000000001,13.44314,8.15997699999998,0.9775174,0.0001774137,-0.1947795,-26.95802,-31.71072,11.22287
195.31,7.77944600000001,13.61986,8.83162800000001,0.9838117,0.001247147,-0.1889704,-26.95863,-31.70969,11.28606
195.32,7.15718600000001,13.9733,9.62539700000002,0.9891384,0.001825379,-0.1831648,-26.95863,-31.70969,11.28606
195.33,5.477086,14.9158,10.41917,0.989051,0.01102413,-0.1826628,-26.95863,-31.70969,11.28606
195.34,4.108115,15.7994,11.02976,0.9850504,0.02308724,-0.1831297,-26.95863,-31.70969,11.28606
195.35,3.299177,16.50628,10.84658,0.9845339,0.02646646,-0.1836063,-26.95863,-31.70969,11.28606
195.36,2.863595,16.85972,10.9687,0.9791142,0.03182227,-0.1754054,-27.31397,-32.07705,10.84612
195.37,2.614691,17.27206,10.72446,0.9800745,0.03186929,-0.1710599,-27.31397,-32.07705,10.84612
195.38,3.361403,17.15425,10.35811,0.9771971,0.02655853,-0.1672184,-27.31397,-32.07705,10.84612
195.39,4.48147,16.32956,9.93069299999999,0.9795271,0.03582006,-0.1618844,-27.31397,-32.07705,10.84612
195.4,6.09934500000003,15.85831,9.50327899999999,0.9756054,0.03777356,-0.1565823,-27.31397,-32.07705,10.84612
195.41,7.90389699999999,15.7994,8.95374700000002,0.9847826,0.04179146,-0.1483466,-27.99123,-31.36104,10.00669
195.42,9.02396499999999,15.91722,9.13692399999998,0.9916059,0.04131684,-0.1531556,-27.99123,-31.36104,10.00669
195.43,10.08181,15.97612,8.95374700000002,1.003323,0.03514332,-0.1502433,-27.99123,-31.36104,10.00669
195.44,11.2641,16.32956,8.34315499999997,1.012223,0.02064599,-0.1555596,-27.99123,-31.36104,10.00669
195.45,12.88197,16.09394,7.91574,1.010488,-0.0006920724,-0.1589878,-27.99123,-31.36104,10.00669
195.46,14.74875,15.7994,7.24408900000003,0.9994199,-0.01240642,-0.1604891,-27.69018,-31.35581,10.45187
195.47,17.30002,14.73908,6.267143,0.9787158,-0.0319831,-0.1668578,-27.69018,-31.35581,10.45187
195.48,19.29125,13.50205,5.107018,0.9729193,-0.03637071,-0.1654345,-27.69018,-31.35581,10.45187
195.49,19.97573,12.2061,4.740664,0.9763471,-0.03970965,-0.1630201,-27.69018,-31.35581,10.45187
195.5,18.91789,11.20469,4.130072,0.9923573,-0.03995004,-0.1499505,-27.69018,-31.35581,10.45187
195.51,17.17556,12.50064,3.885835,1.017632,-0.03880682,-0.1522956,-29.1104,-30.26636,9.978741
195.52,16.17995,13.56095,3.885835,1.020574,-0.03980447,-0.1580807,-29.1104,-30.26636,9.978741
195.53,16.17995,13.73767,4.496427,1.036121,-0.04153107,-0.1483934,-29.1104,-30.26636,9.978741
195.54,17.23779,14.15002,4.740664,1.053685,-0.05520889,-0.12425,-29.1104,-30.26636,9.978741
195.55,16.49108,16.683,5.77866899999999,1.076552,-0.0668217,-0.09043761,-29.1104,-30.26636,9.978741
195.56,15.43324,19.86395,6.694557,1.07458,-0.06861917,-0.07355735,-28.74049,-30.27491,9.603119
195.57,13.87759,23.98741,7.30514899999999,1.059544,-0.07353649,-0.06926376,-28.74049,-30.27491,9.603119
195.58,10.64184,27.87524,7.06091200000001,1.044462,-0.0834614,-0.03023754,-28.74049,-30.27491,9.603119
195.59,8.02835000000001,32.29322,7.121971,1.025532,-0.08932871,-0.020648,-28.74049,-30.27491,9.603119
195.6,7.71722000000001,35.76871,6.87773400000002,1.012401,-0.09457017,-0.0004260829,-28.74049,-30.27491,9.603119
195.61,7.96612400000001,39.95107,7.85468100000002,1.013819,-0.09864674,0.02900429,-29.46635,-30.63268,9.601992
195.62,7.59276800000001,46.72532,9.44222,1.016068,-0.09146299,0.07197238,-29.46635,-30.63268,9.601992
195.63,5.601537,59.0956900000001,11.33505,1.038455,-0.09043894,0.0590035,-29.46635,-30.63268,9.601992
195.64,2.863595,70.7002699999999,12.92259,1.014517,-0.1105986,-0.008658413,-29.46635,-30.63268,9.601992
195.65,0.3123312,77.5334300000002,16.52508,0.9390082,-0.1357061,-0.04413319,-29.46635,-30.63268,9.601992
195.66,1.681302,76.0018600000001,21.10452,0.9119543,-0.1392865,-0.09536084,-29.46423,-29.93443,7.947544
195.67,6.47270099999997,69.2276099999999,23.36371,0.9266946,-0.09822026,-0.1155016,-29.46423,-29.93443,7.947544
195.68,11.07742,59.2724099999999,22.93629,0.929002,-0.08560199,-0.1135383,-29.46423,-29.93443,7.947544
195.69,15.99327,50.31862,21.59299,0.9048088,-0.05969792,-0.06480759,-29.46423,-29.93443,7.947544
195.7,21.15802,43.01421,19.08957,0.8878149,-0.01936411,-0.03195139,-30.56981,-28.57061,5.892857
195.71,25.07826,36.12215,16.09767,0.8760293,0.04069855,-0.01592855,-30.56981,-28.57061,5.892857
195.72,23.83374,27.63961,13.53318,0.8722208,0.08046688,-0.00330661,-30.56981,-28.57061,5.892857
195.73,18.85567,18.92145,11.39611,0.8909986,0.09574763,0.01125113,-30.56981,-28.57061,5.892857
195.74,11.2641,11.14579,9.68645699999998,0.9100088,0.08962664,0.01369975,-30.56981,-28.57061,5.892857
195.75,5.477086,6.07982600000001,8.34315499999997,0.9159375,0.07810205,0.01851575,-30.56981,-28.57061,5.892857
195.76,-1.181092,0.01245534,6.45032000000002,0.9200205,0.05779487,0.01703498,-31.24707,-27.85461,5.053417
195.77,-7.40368699999998,-5.99600900000002,4.740664,0.9226338,0.03704497,0.02134005,-31.24707,-27.85461,5.053417
195.78,-11.01279,-11.53322,3.092066,0.9340915,0.004326865,0.03239788,-31.24707,-27.85461,5.053417
195.79,-12.44399,-15.47996,1.931942,0.9498138,-0.02330325,0.06712255,-31.24707,-27.85461,5.053417
195.8,-12.56844,-17.60059,1.199232,0.9703198,-0.04126096,0.09705486,-31.63108,-27.11998,5.480555
195.81,-12.63067,-17.77731,0.4054625,0.980992,-0.04720109,0.1265051,-31.63108,-27.11998,5.480555
195.82,-13.75073,-16.7759,-0.2661883,0.9829591,-0.05664072,0.1510999,-31.63108,-27.11998,5.480555
195.83,-16.73758,-14.65527,-0.754661599999998,0.9888298,-0.0660982,0.1703966,-31.63108,-27.11998,5.480555
195.84,-20.09778,-11.65103,-1.182076,0.9797226,-0.08723027,0.1959028,-31.63108,-27.11998,5.480555
195.85,-22.83572,-8.29336299999997,-0.754661599999998,0.9652858,-0.1018966,0.1919736,-31.61337,-27.85224,5.049936
195.86,-22.89795,-6.34944800000001,-0.998898300000002,0.937801,-0.1211389,0.1749722,-31.61337,-27.85224,5.049936
195.87,-20.34669,-6.05491499999997,-0.5104249,0.9117757,-0.1403741,0.1574919,-31.61337,-27.85224,5.049936
195.88,-15.36861,-6.34944800000001,-0.3883066,0.907211,-0.1643693,0.1304059,-31.61337,-27.85224,5.049936
195.89,-10.76389,-6.40835499999999,0.4054625,0.9112653,-0.1723883,0.09662066,-31.61337,-27.85224,5.049936
195.9,-5.536908,-7.704298,1.260291,0.9229449,-0.1606156,0.05083395,-31.24707,-27.85461,5.053417
195.91,1.059043,-8.94133499999999,1.748764,0.9375169,-0.1473334,0.008918334,-31.24707,-27.85461,5.053417
195.92,7.77944600000001,-9.94274500000002,1.993001,0.944738,-0.1296915,-0.02625118,-31.24707,-27.85461,5.053417
195.93,12.6953,-9.82493200000003,2.237237,0.9557548,-0.1046773,-0.05222663,-31.24707,-27.85461,5.053417
195.94,14.49985,-8.52898900000002,1.809823,0.9598778,-0.07332896,-0.06759017,-31.24707,-27.85461,5.053417
195.95,12.81975,-8.17554999999998,0.954994999999997,0.9654659,-0.03964607,-0.09356097,-31.24707,-27.85461,5.053417
195.96,7.34386400000001,-9.35368100000002,-1.731608,0.9810945,0.01108418,-0.1160914,-31.24707,-27.85461,5.053417
195.97,-1.990029,-12.41682,-5.761513,1.011364,0.05610814,-0.140044,-31.24707,-27.85461,5.053417
195.98,-12.31954,-16.83481,-10.15777,1.035336,0.09538534,-0.1519614,-31.24707,-27.85461,5.053417
195.99,-20.22223,-20.25138,-13.33285,1.055584,0.1087638,-0.1349913,-31.24707,-27.85461,5.053417
196,-24.95141,-21.66514,-15.28674,1.0646,0.1208178,-0.09440799,-31.61082,-28.20754,5.498056
196.01,-28.0627,-20.31029,-16.01945,1.070907,0.1091812,-0.04905715,-31.61082,-28.20754,5.498056
196.02,-31.60958,-17.7184,-15.16462,1.080796,0.08150554,-0.01434762,-31.61082,-28.20754,5.498056
196.03,-36.64989,-16.24574,-13.76026,1.086369,0.05360295,-0.000881871,-31.61082,-28.20754,5.498056
196.04,-42.87248,-16.54027,-11.74531,1.075568,0.01052182,0.007200989,-31.61082,-28.20754,5.498056
196.05,-47.78833,-17.60059,-9.79141700000002,1.060233,-0.01189908,0.0027703,-31.62118,-27.83884,5.871326
196.06,-50.65073,-17.83622,-7.59328799999999,1.040015,-0.0328755,0.001707961,-31.62118,-27.83884,5.871326
196.07,-52.64196,-17.42387,-5.82257199999998,1.018349,-0.05577706,0.003050496,-31.62118,-27.83884,5.871326
196.08,-53.76202,-16.24574,-4.418211,0.9971378,-0.07247595,-0.005725985,-31.62118,-27.83884,5.871326
196.09,-54.01093,-15.00871,-3.441265,0.9806946,-0.07569685,-0.02652492,-31.62118,-27.83884,5.871326
196.1,-53.32644,-13.77167,-3.929738,0.9759372,-0.07842165,-0.05597853,-31.59987,-28.57728,5.061605
196.11,-52.08192,-13.30042,-4.906685,0.9695802,-0.06521495,-0.08829729,-31.59987,-28.57728,5.061605
196.12,-50.46405,-13.47714,-6.49422300000002,0.9752896,-0.04271904,-0.120565,-31.59987,-28.57728,5.061605
196.13,-48.34837,-14.30183,-7.77646500000001,0.9674272,-0.02655452,-0.1456431,-31.59987,-28.57728,5.061605
196.14,-46.85494,-15.12652,-8.57023400000002,0.9718214,-0.02377025,-0.1625149,-31.59987,-28.57728,5.061605
196.15,-43.68142,-16.12793,-8.631293,0.9816594,-0.03345589,-0.1716788,-30.91434,-28.95652,4.315615
196.16,-39.57451,-15.47996,-6.98269699999997,0.9895772,-0.05402384,-0.1519181,-30.91434,-28.95652,4.315615
196.17,-36.08986,-13.94839,-4.906685,0.9920012,-0.05867312,-0.1331024,-30.91434,-28.95652,4.315615
196.18,-34.40975,-12.35791,-2.952792,0.9856327,-0.05856032,-0.1152643,-30.91434,-28.95652,4.315615
196.19,-33.91195,-11.12088,-1.548431,0.9931276,-0.03833928,-0.07997546,-30.91434,-28.95652,4.315615
196.2,-34.59643,-11.00306,-0.754661599999998,0.976209,-0.00341177,-0.05629911,-30.53454,-29.68393,4.330765
196.21,-36.64989,-11.47431,-0.937839100000003,0.9792254,0.03212455,-0.03594789,-30.53454,-29.68393,4.330765
196.22,-39.57451,-11.94557,-1.60949,0.9778469,0.06769244,-0.008369695,-30.53454,-29.68393,4.330765
196.23,-42.31245,-12.82916,-2.3422,0.9925609,0.1027483,0.00235969,-30.53454,-29.68393,4.330765
196.24,-45.29929,-13.1237,-3.258087,0.9991306,0.1293729,-0.002391617,-30.53454,-29.68393,4.330765
196.25,-48.22392,-13.00588,-4.418211,1.002432,0.1428657,-0.01152252,-30.53033,-29.69114,3.888477
196.26,-50.83741,-12.41682,-4.784566,1.014019,0.1540036,-0.02063712,-30.53033,-29.69114,3.888477
196.27,-53.57535,-11.70994,-4.357152,1.031075,0.1535298,-0.03410552,-30.53033,-29.69114,3.888477
196.28,-56.56219,-10.414,-3.563383,1.050657,0.1419712,-0.04469594,-30.53033,-29.69114,3.888477
196.29,-58.4289699999999,-9.05914799999998,-2.464318,1.035916,0.1131011,-0.06699327,-30.53033,-29.69114,3.888477
196.3,-58.67788,-6.82069999999999,-1.792668,1.02155,0.09585749,-0.08829954,-30.52673,-29.69733,3.509375
196.31,-58.3667399999997,-4.641159,-1.243135,1.012134,0.06616206,-0.09948628,-30.52673,-29.69733,3.509375
196.32,-58.3045199999998,-2.697244,-0.3272474,1.012027,0.0269218,-0.1039139,-30.52673,-29.69733,3.509375
196.33,-58.3667399999997,-0.812235800000003,0.832876700000002,1.027689,0.01543805,-0.1029331,-30.52673,-29.69733,3.509375
196.34,-60.1090700000001,2.015277,2.115119,1.040902,0.00399228,-0.09568536,-30.52673,-29.69733,3.509375
196.35,-60.9180099999999,4.66607,3.580539,1.046919,-0.01298243,-0.1048748,-29.77287,-30.03096,1.878417
196.36,-60.4202000000001,6.84561100000003,5.71761,1.035953,-0.03722597,-0.1006122,-29.77287,-30.03096,1.878417
196.37,-57.9311600000001,9.61421700000002,8.46527300000001,1.030331,-0.06235616,-0.09199486,-29.77287,-30.03096,1.878417
196.38,-55.19322,11.61704,11.21294,1.017341,-0.07228147,-0.1079738,-29.77287,-30.03096,1.878417
196.39,-53.51312,12.32392,13.22789,1.005663,-0.06389432,-0.133561,-29.77287,-30.03096,1.878417
196.4,-52.39305,11.67595,14.75437,0.9895685,-0.05680902,-0.1388953,-30.1132,-30.42408,-0.1411114
196.41,-51.33521,10.96907,16.15873,0.9816197,-0.03238729,-0.160578,-30.1132,-30.42408,-0.1411114
196.42,-49.59288,10.26219,17.50203,0.9686286,0.008070826,-0.1706581,-30.1132,-30.42408,-0.1411114
196.43,-47.41498,10.61563,17.92944,0.97382,0.03066811,-0.1913457,-30.1132,-30.42408,-0.1411114
196.44,-45.61042,10.26219,17.31885,0.9809355,0.05381706,-0.2062366,-30.82764,-30.80143,-1.34273
196.45,-45.92155,8.90733899999999,15.91449,0.9926429,0.05283514,-0.2177897,-30.82764,-30.80143,-1.34273
196.46,-47.66388,6.60998499999998,13.6553,0.9969654,0.06054618,-0.2250002,-30.82764,-30.80143,-1.34273
196.47,-50.27737,3.900285,10.9687,0.9761136,0.05318128,-0.2187967,-30.82764,-30.80143,-1.34273
196.48,-53.13977,1.426212,9.44222,0.9435603,0.04724717,-0.2048995,-30.82764,-30.80143,-1.34273
196.49,-56.68665,-1.519114,8.09891799999999,0.9256919,0.03358786,-0.2015971,-31.14316,-29.43657,-3.010774
196.5,-58.8645500000001,-4.641159,7.06091200000001,0.9229432,0.01753459,-0.2083943,-31.14316,-29.43657,-3.010774
196.51,-57.7444800000003,-7.704298,6.51137900000001,0.9357039,0.01066565,-0.2296083,-31.14316,-29.43657,-3.010774
196.52,-54.50874,-9.17696099999998,6.145024,0.9488896,0.009629377,-0.248396,-31.14316,-29.43657,-3.010774
196.53,-49.59288,-10.00165,6.38926099999998,0.9683036,0.02113657,-0.2767915,-31.14316,-29.43657,-3.010774
196.54,-46.04601,-10.64962,6.45032000000002,1.00525,0.0246984,-0.2892349,-31.51156,-28.72873,-4.226416
196.55,-45.73487,-11.2976,6.20608299999999,1.040806,0.01677076,-0.2867475,-31.51156,-28.72873,-4.226416
196.56,-46.66827,-11.82775,5.473373,1.062405,-0.01048765,-0.2693786,-31.51156,-28.72873,-4.226416
196.57,-48.72172,-11.88666,5.473373,1.07355,-0.05878682,-0.2684886,-31.51156,-28.72873,-4.226416
196.58,-49.71734,-12.59354,5.656551,1.08318,-0.101286,-0.2671075,-31.51156,-28.72873,-4.226416
196.59,-47.4772,-13.47714,5.656551,1.06785,-0.1265359,-0.2633409,-31.5105,-28.37961,-5.053639
196.6,-44.55258,-14.83199,5.229137,1.056752,-0.1362752,-0.2604952,-31.5105,-28.37961,-5.053639
196.61,-41.62796,-15.42105,4.069013,1.059017,-0.1192973,-0.2580401,-31.5105,-28.37961,-5.053639
196.62,-39.69896,-16.06902,3.580539,1.102071,-0.09669518,-0.2573979,-31.5105,-28.37961,-5.053639
196.63,-39.26338,-15.8923,3.763716,1.161532,-0.05902845,-0.2639193,-31.5105,-28.37961,-5.053639
196.64,-39.57451,-16.12793,4.557486,1.226702,-0.05346863,-0.2936573,-31.50269,-28.393,-5.875029
196.65,-40.69457,-17.77731,7.48832600000001,1.239124,-0.07630176,-0.3139414,-31.50269,-28.393,-5.875029
196.66,-40.7568,-19.95685,11.21294,1.182875,-0.1374321,-0.3359326,-31.50269,-28.393,-5.875029
196.67,-41.13016,-22.25421,15.12072,1.120976,-0.220314,-0.3502643,-31.50269,-28.393,-5.875029
196.68,-37.6455,-22.84327,20.00545,1.106772,-0.2606059,-0.3518352,-31.50269,-28.393,-5.875029
196.69,-27.25377,-22.60765,26.05031,1.084873,-0.3002886,-0.3862379,-31.51725,-28.01709,-5.059473
196.7,-15.24416,-23.90359,32.70576,1.067304,-0.2973858,-0.371318,-31.51725,-28.01709,-5.059473
196.71,-7.90149499999998,-25.08172,38.56744,1.049385,-0.311345,-0.3477493,-31.51725,-28.01709,-5.059473
196.72,-1.367769,-24.61047,47.72632,0.9944533,-0.3333415,-0.2716956,-31.51725,-28.01709,-5.059473
196.73,3.921437,-25.67078,60.7929799999999,0.9636426,-0.330622,-0.2124157,-31.51725,-28.01709,-5.059473
196.74,9.02396499999999,-29.67643,74.8365899999998,0.9751418,-0.3243515,-0.1713559,-31.53075,-27.29204,-5.071142
196.75,16.17995,-35.33145,87.1094699999997,1.071426,-0.3452908,-0.1084212,-31.53075,-27.29204,-5.071142
196.76,28.56291,-35.27254,95.7188200000001,1.138471,-0.4161292,-0.02636732,-31.53075,-27.29204,-5.071142
196.77,41.87926,-32.85738,102.0079,1.173587,-0.3972814,0.04711118,-31.53075,-27.29204,-5.071142
196.78,51.02648,-29.14627,106.4652,1.218227,-0.3415914,0.06616544,-31.53075,-27.29204,-5.071142
196.79,60.2359199999998,-24.905,109.5182,1.202788,-0.3025033,0.06717476,-33.41623,-24.78955,-4.307022
196.8,79.4637499999998,-21.37061,109.9456,1.143075,-0.2919694,-0.0005134398,-33.41623,-24.78955,-4.307022
196.81,109.6433,-22.66655,112.6322,1.117658,-0.2900319,-0.1381012,-33.41623,-24.78955,-4.307022
196.82,137.8939,-28.96955,116.0515,1.167571,-0.30621,-0.2036339,-33.41623,-24.78955,-4.307022
196.83,151.957,-34.09441,120.3867,1.255044,-0.3459717,-0.2338944,-33.41623,-24.78955,-4.307022
196.84,152.0814,-32.68066,128.5687,1.333886,-0.4002666,-0.2584178,-34.89252,-21.90773,-2.344183
196.85,140.5696,-28.5572,136.8116,1.336033,-0.4724066,-0.2638754,-34.89252,-21.90773,-2.344183
196.86,117.2971,-21.3117,144.9325,1.301098,-0.5378104,-0.2419088,-34.89252,-21.90773,-2.344183
196.87,88.7354099999999,-12.00447,151.4659,1.277513,-0.5315327,-0.1700564,-34.89252,-21.90773,-2.344183
196.88,60.04924,-4.817879,155.1905,1.256677,-0.510614,-0.08706674,-34.89252,-21.90773,-2.344183
196.89,41.0081,2.191996,160.93,1.202205,-0.5222016,-0.0375296,-36.83413,-17.20333,0.02771091
196.9,34.41215,9.08405900000002,160.0752,1.143345,-0.5173639,-0.0405663,-36.83413,-17.20333,0.02771091
196.91,34.2877,10.79235,163.6777,1.109534,-0.4768743,-0.0825482,-36.83413,-17.20333,0.02771091
196.92,34.66105,9.43749800000001,164.2883,1.079052,-0.4328304,-0.1090723,-36.83413,-17.20333,0.02771091
196.93,38.76797,8.08264800000002,164.8989,1.054642,-0.3715067,-0.1032129,-36.83413,-17.20333,0.02771091
196.94,39.0791,9.90874999999999,160.5637,1.062083,-0.354859,-0.03511849,-37.67613,-11.5129,0.3084507
196.95,31.1764,16.91863,156.3506,1.006203,-0.3581813,-0.03333955,-37.67613,-11.5129,0.3084507
196.96,27.25617,25.10663,153.4808,0.9835145,-0.3752967,-0.03343486,-37.67613,-11.5129,0.3084507
196.97,24.64268,30.87947,147.0085,0.9895673,-0.3923896,-0.05565324,-37.67613,-11.5129,0.3084507
196.98,24.14487,37.77153,144.6272,0.9583666,-0.4239573,-0.09440547,-37.67613,-11.5129,0.3084507
196.99,23.77151,42.60187,145.7263,0.946701,-0.423582,-0.09636495,-38.83223,-4.752513,-0.6317062
197,23.27371,42.95531,147.3138,0.8884996,-0.4333806,-0.1129428,-38.83223,-4.752513,-0.6317062
197.01,23.70929,37.477,143.6503,0.8245384,-0.4090316,-0.09471854,-38.83223,-4.752513,-0.6317062
197.02,21.28248,29.52462,143.406,0.7476871,-0.3642552,-0.05428638,-38.83223,-4.752513,-0.6317062
197.03,21.15802,24.63538,136.8727,0.7677774,-0.3857312,-0.03835662,-37.89082,1.60614,-3.125902
197.04,27.62952,26.10804,128.9961,0.7755694,-0.3843107,-0.048467,-37.89082,1.60614,-3.125902
197.05,34.41215,33.0001,121.4858,0.7051759,-0.3216509,-0.1223438,-37.89082,1.60614,-3.125902
197.06,36.03003,35.82762,112.6933,0.6168025,-0.2722822,-0.1523836,-37.89082,1.60614,-3.125902
197.07,31.48753,31.93979,103.3512,0.5226035,-0.2365851,-0.1375908,-37.89082,1.60614,-3.125902
197.08,26.63391,26.40257,96.6346999999997,0.4635588,-0.2665142,-0.1320169,-37.62564,7.626202,-4.420152
197.09,17.9845,18.33238,88.9412500000002,0.4365263,-0.2875175,-0.1302015,-37.62564,7.626202,-4.420152
197.1,12.01081,14.50346,82.95745,0.4103414,-0.2968466,-0.1225683,-37.62564,7.626202,-4.420152
197.11,8.40170600000002,10.3211,74.8976400000003,0.3834496,-0.3342591,-0.1159624,-37.62564,7.626202,-4.420152
197.12,8.33947899999999,3.252314,66.8378400000002,0.3290221,-0.3408348,-0.1006754,-37.62564,7.626202,-4.420152
197.13,7.46831600000001,-6.585074,57.4347299999998,0.3033878,-0.3681939,-0.05399307,-35.47859,11.14995,-6.099419
197.14,4.045888,-12.77026,47.72632,0.2932273,-0.404074,0.05351198,-35.47859,11.14995,-6.099419
197.15,2.49024,-12.41682,38.38427,0.320316,-0.472563,0.1620081,-35.47859,11.14995,-6.099419
197.16,2.116884,-6.40835499999999,27.94315,0.3716471,-0.5727456,0.2236914,-35.47859,11.14995,-6.099419
197.17,5.539311,1.249492,20.18863,0.4013888,-0.6400731,0.2448555,-35.47859,11.14995,-6.099419
197.18,12.01081,10.38,13.47213,0.398708,-0.6586949,0.2216462,-34.13406,14.34311,-6.137613
197.19,20.90912,16.21175,8.09891799999999,0.3783337,-0.6505513,0.1767341,-34.13406,14.34311,-6.137613
197.2,28.50069,16.03503,3.946894,0.3590017,-0.653887,0.1457939,-34.13406,14.34311,-6.137613
197.21,32.91873,11.38141,-0.02195162,0.3602698,-0.6312062,0.1376426,-34.13406,14.34311,-6.137613
197.22,33.1054,5.96201300000002,-4.357152,0.3687382,-0.6016015,0.1396583,-34.13406,14.34311,-6.137613
197.23,29.55853,2.604342,-10.27989,0.3622379,-0.579012,0.1281089,-34.133,14.69224,-6.964837
197.24,24.89158,1.661838,-16.44687,0.3706096,-0.593373,0.1382332,-34.133,14.69224,-6.964837
197.25,22.90035,4.077005,-23.65185,0.3837882,-0.5962617,0.12861,-34.133,14.69224,-6.964837
197.26,21.78028,6.19763900000001,-30.3073,0.378528,-0.599404,0.106875,-34.133,14.69224,-6.964837
197.27,18.48231,6.138733,-36.59639,0.3840011,-0.6110332,0.100591,-34.133,14.69224,-6.964837
197.28,15.93105,7.02233100000001,-42.64125,0.396183,-0.6133798,0.09820458,-33.75214,14.31395,-7.776912
197.29,15.30879,8.5539,-46.79327,0.40559,-0.6307549,0.09529619,-33.75214,14.31395,-7.776912
197.3,17.61115,10.61563,-52.16648,0.4144452,-0.6474484,0.1145851,-33.75214,14.31395,-7.776912
197.31,21.65583,11.2636,-56.86803,0.4079547,-0.6333327,0.1290752,-33.75214,14.31395,-7.776912
197.32,24.39377,8.5539,-62.6686499999997,0.4071173,-0.5984115,0.1383165,-33.75214,14.31395,-7.776912
197.33,24.64268,6.31545299999997,-70.6063500000001,0.4158123,-0.5920654,0.1369049,-33.73503,13.58273,-8.144346
197.34,29.43408,5.196229,-76.16273,0.4333278,-0.5952636,0.1427338,-33.73503,13.58273,-8.144346
197.35,34.16325,4.724977,-83.5508899999997,0.453422,-0.5994,0.09645206,-33.73503,13.58273,-8.144346
197.36,34.78551,1.720744,-89.71786,0.4814046,-0.5637779,0.05172377,-33.73503,13.58273,-8.144346
197.37,29.93188,-5.053505,-95.3353100000003,0.5138037,-0.5446728,0.04943566,-33.73503,13.58273,-8.144346
197.38,22.40254,-11.23869,-101.4412,0.5632566,-0.5801694,0.0417661,-35.15411,11.115,-8.118401
197.39,13.62868,-13.59495,-104.9827,0.5995405,-0.5713384,0.07710472,-35.15411,11.115,-8.118401
197.4,8.02835000000001,-10.4729,-109.8674,0.6169047,-0.5557473,0.07380518,-35.15411,11.115,-8.118401
197.41,8.40170600000002,-8.11664400000002,-112.3098,0.6274702,-0.5322587,0.04010452,-35.15411,11.115,-8.118401
197.42,8.40170600000002,-7.52757800000002,-115.668,0.6382507,-0.5230798,-0.02402694,-35.15411,11.115,-8.118401
197.43,10.14403,-11.41541,-117.8661,0.6563215,-0.5241569,-0.05148793,-35.75612,7.19823,-7.682474
197.44,8.71283499999999,-19.07325,-117.683,0.6857183,-0.5043235,-0.02434675,-35.75612,7.19823,-7.682474
197.45,1.681302,-26.43657,-118.5378,0.7202145,-0.468155,0.03855132,-35.75612,7.19823,-7.682474
197.46,-9.02156200000002,-32.44503,-120.1864,0.7449816,-0.4235973,0.0744196,-35.75612,7.19823,-7.682474
197.47,-20.72004,-35.27254,-123.9721,0.8242751,-0.4763665,0.05762145,-35.75612,7.19823,-7.682474
197.48,-23.76911,-33.15191,-123.6668,0.8723257,-0.5144035,0.0378791,-36.77732,2.62682,-6.797625
197.49,-24.76473,-27.02563,-125.4375,0.9232184,-0.5291924,-0.03536886,-36.77732,2.62682,-6.797625
197.5,-26.94264,-21.37061,-126.2312,0.929224,-0.4505261,-0.01105681,-36.77732,2.62682,-6.797625
197.51,-38.57889,-22.37202,-127.8188,0.8784341,-0.3404731,0.05419288,-36.77732,2.62682,-6.797625
197.52,-54.01093,-30.44221,-133.5583,0.8237675,-0.2804025,0.107744,-36.77732,2.62682,-6.797625
197.53,-58.8645500000001,-38.80694,-139.5421,0.8026415,-0.3133267,0.1240254,-37.8187,-1.266576,-5.102082
197.54,-46.66827,-37.68771,-141.9234,0.855975,-0.3728833,0.02173451,-37.8187,-1.266576,-5.102082
197.55,-23.58244,-30.3833,-138.5652,0.9675453,-0.459539,-0.1301669,-37.8187,-1.266576,-5.102082
197.56,0.3123312,-22.96108,-128.4904,1.049356,-0.4504696,-0.2138999,-37.8187,-1.266576,-5.102082
197.57,8.89951299999999,-20.3692,-123.7889,1.075127,-0.4507612,-0.2147992,-37.8187,-1.266576,-5.102082
197.58,2.303562,-20.95826,-119.3926,1.107576,-0.4468304,-0.1828588,-37.74707,-5.893168,-3.447614
197.59,-12.13286,-25.96532,-115.9733,1.105958,-0.4444372,-0.1312251,-37.74707,-5.893168,-3.447614
197.6,-25.51144,-30.79565,-112.6761,1.113473,-0.43038,-0.08195554,-37.74707,-5.893168,-3.447614
197.61,-34.34753,-32.73957,-111.3328,1.099665,-0.4204575,-0.04336591,-37.74707,-5.893168,-3.447614
197.62,-36.52544,-30.20658,-109.8063,1.055909,-0.4249964,-0.02611676,-37.29629,-10.8366,-2.54301
197.63,-31.98294,-28.14486,-108.7683,1.000509,-0.4207914,-0.04844785,-37.29629,-10.8366,-2.54301
197.64,-23.52021,-29.08736,-104.9827,0.9615445,-0.4067746,-0.07023291,-37.29629,-10.8366,-2.54301
197.65,-14.93303,-33.26973,-101.5023,0.9357103,-0.3847007,-0.1218848,-37.29629,-10.8366,-2.54301
197.66,-7.59036400000001,-37.74662,-98.0219099999997,0.9526939,-0.3722753,-0.1536625,-37.29629,-10.8366,-2.54301
197.67,-4.541293,-38.63022,-93.9920100000003,0.9893007,-0.3319491,-0.1674753,-36.11959,-15.83181,-0.809082
197.68,-5.039101,-36.56849,-92.5876500000001,1.062686,-0.3247547,-0.1841598,-36.11959,-15.83181,-0.809082
197.69,-7.83926800000001,-28.5572,-90.8779899999999,1.129891,-0.2883256,-0.1737746,-36.11959,-15.83181,-0.809082
197.7,-10.32831,-18.77872,-88.7409200000002,1.127872,-0.2208301,-0.2001749,-36.11959,-15.83181,-0.809082
197.71,-11.19947,-13.1237,-87.94715,1.069326,-0.1373697,-0.2319947,-36.11959,-15.83181,-0.809082
197.72,-11.07502,-13.47714,-87.1533800000003,1.007028,-0.07409327,-0.2450482,-34.96569,-19.38414,0.4592218
197.73,-11.19947,-16.12793,-87.5197399999999,0.971675,-0.03708755,-0.2431296,-34.96569,-19.38414,0.4592218
197.74,-13.37738,-20.01576,-86.90915,0.9549773,-0.02164805,-0.233971,-34.96569,-19.38414,0.4592218
197.75,-17.54652,-21.13498,-85.8711399999998,0.9541485,-0.04276383,-0.2137515,-34.96569,-19.38414,0.4592218
197.76,-20.03556,-19.89795,-81.7191200000001,0.9935253,-0.0537199,-0.1750696,-34.96569,-19.38414,0.4592218
197.77,-20.84449,-13.88948,-78.1776900000002,1.036474,-0.0783392,-0.1518494,-33.49873,-22.95185,0.9090366
197.78,-17.9821,-7.88101799999997,-74.6973100000003,1.060551,-0.1514253,-0.1736591,-33.49873,-22.95185,0.9090366
197.79,-9.33269099999999,-2.225992,-69.5683399999999,1.074128,-0.2364936,-0.2268874,-33.49873,-22.95185,0.9090366
197.8,5.10373,0.954959599999998,-64.37831,1.113003,-0.3261205,-0.2708918,-33.49873,-22.95185,0.9090366
197.81,21.71806,2.074183,-59.0661599999998,1.129486,-0.409723,-0.3250745,-33.49873,-22.95185,0.9090366
197.82,38.76797,-0.1642642,-54.3646,1.135765,-0.496705,-0.3696397,-32.33199,-26.81865,1.423996
197.83,55.81788,-3.993187,-49.17458,1.118777,-0.5468337,-0.386198,-32.33199,-26.81865,1.423996
197.84,70.8143399999999,-9.23586800000002,-41.359,1.113428,-0.6010031,-0.3781249,-32.33199,-26.81865,1.423996
197.85,79.0281599999999,-13.88948,-31.28424,1.133917,-0.6282842,-0.3091262,-32.33199,-26.81865,1.423996
197.86,81.5794300000001,-13.94839,-21.02631,1.161748,-0.6184248,-0.2067329,-32.33199,-26.81865,1.423996
197.87,81.76611,-10.29618,-14.92039,1.186393,-0.5753382,-0.1197179,-30.54593,-28.26064,2.664648
197.88,81.2060699999999,-1.578021,-11.44001,1.188063,-0.4134278,-0.03781479,-30.54593,-28.26064,2.664648
197.89,83.6951099999999,6.90451800000001,-14.24874,1.177334,-0.2142174,0.005532654,-30.54593,-28.26064,2.664648
197.9,92.5312000000002,10.14438,-14.06556,1.215661,-0.08242377,-0.0626071,-30.54593,-28.26064,2.664648
197.91,102.4251,8.37718000000003,-8.814471,1.205449,-0.01287983,-0.1228025,-30.54593,-28.26064,2.664648
197.92,106.1587,3.664659,-3.624443,1.167428,0.01953074,-0.1981086,-30.17544,-29.67394,5.092449
197.93,102.5496,-0.694422800000001,-0.632543299999997,1.102071,0.05960729,-0.2585095,-30.17544,-29.67394,5.092449
197.94,92.2200599999999,-5.701477,-0.3272474,1.059237,0.1286015,-0.2980407,-30.17544,-29.67394,5.092449
197.95,75.5435099999999,-7.82211200000002,-1.731608,1.052875,0.1800086,-0.2805748,-30.17544,-29.67394,5.092449
197.96,54.38668,-5.701477,-2.281141,1.055495,0.1941418,-0.2187714,-30.17544,-29.67394,5.092449
197.97,30.98973,-1.165675,-3.013851,1.037145,0.1663951,-0.1677282,-29.4688,-29.28321,7.115458
197.98,10.51739,1.95637,-2.647496,1.00543,0.1147515,-0.1254568,-29.4688,-29.28321,7.115458
197.99,-4.105711,2.545435,-2.769614,0.9967502,0.05422077,-0.1222314,-29.4688,-29.28321,7.115458
198,-11.88396,1.779651,-3.135969,0.9932501,0.009762347,-0.1122025,-29.4688,-29.28321,7.115458
198.01,-14.12409,1.485118,-3.929738,0.9868132,-0.03230804,-0.1031411,-29.4688,-29.28321,7.115458
198.02,-12.50622,2.015277,-4.235034,0.9948369,-0.06541832,-0.07906418,-29.46626,-29.63851,7.56358
198.03,-9.830499,2.781061,-4.357152,0.9881455,-0.08179305,-0.06464016,-29.46626,-29.63851,7.56358
198.04,-7.40368699999998,2.781061,-5.639395,0.9841858,-0.07314801,-0.06849217,-29.46626,-29.63851,7.56358
198.05,-4.852423,0.719333499999998,-7.89858299999998,0.9685621,-0.05756755,-0.09793446,-29.46626,-29.63851,7.56358
198.06,-3.545678,-1.106768,-9.54718100000001,0.9529907,-0.05060115,-0.116779,-29.46626,-29.63851,7.56358
198.07,-1.492221,-2.697244,-11.86743,0.9482666,-0.06047073,-0.1337017,-29.83511,-29.28083,7.111977
198.08,1.059043,-1.283488,-12.23378,0.9493222,-0.06495858,-0.1491501,-29.83511,-29.28083,7.111977
198.09,3.734759,1.485118,-11.98955,0.9721748,-0.06057839,-0.165971,-29.83511,-29.28083,7.111977
198.1,6.78383099999997,4.253725,-11.19578,0.9954898,-0.0504882,-0.193877,-29.83511,-29.28083,7.111977
198.11,9.33509400000003,6.02092,-11.07366,1.02455,-0.03302805,-0.2145141,-29.83511,-29.28083,7.111977
198.12,11.82413,6.25654599999999,-11.50107,1.038969,-0.009861621,-0.2337291,-29.46063,-29.94061,7.568441
198.13,13.44201,3.959192,-12.60014,1.036943,0.007276825,-0.2631329,-29.46063,-29.94061,7.568441
198.14,15.12211,-0.1642642,-14.12662,1.03448,0.01205318,-0.2679545,-29.46063,-29.94061,7.568441
198.15,15.80659,-3.639749,-14.73721,1.034986,0.004489614,-0.2486675,-29.46063,-29.94061,7.568441
198.16,14.99766,-5.81929000000001,-15.16462,1.030582,-0.0006090684,-0.2202195,-29.46063,-29.94061,7.568441
198.17,12.63307,-6.76179399999997,-14.67615,1.014346,0.008348616,-0.1792254,-29.09433,-29.94299,7.571922
198.18,8.58838299999999,-6.99742000000002,-14.06556,0.9990556,0.02349961,-0.1497968,-29.09433,-29.94299,7.571922
198.19,4.045888,-5.64257,-13.27179,1.001411,0.0247055,-0.1256607,-29.09433,-29.94299,7.571922
198.2,-0.745509999999999,-3.286309,-12.11167,1.012076,0.02066159,-0.1005493,-29.09433,-29.94299,7.571922
198.21,-4.727971,-0.1053577,-10.82942,1.037334,0.01764238,-0.0816713,-29.09433,-29.94299,7.571922
198.22,-6.59474900000003,3.193407,-9.66929899999999,1.044223,0.009447057,-0.08408389,-29.08442,-30.66185,7.962692
198.23,-5.84803799999999,4.194818,-9.11976599999999,1.040395,0.009685912,-0.1077381,-29.08442,-30.66185,7.962692
198.24,-2.550063,3.193407,-9.11976599999999,1.027315,0.009905258,-0.1256257,-29.08442,-30.66185,7.962692
198.25,1.432398,2.074183,-9.24188499999999,1.020973,0.01180473,-0.1241903,-29.08442,-30.66185,7.962692
198.26,6.65937899999997,0.8960531,-9.058707,1.017442,0.0201756,-0.105362,-29.08442,-30.66185,7.962692
198.27,10.51739,0.837146600000002,-8.69235199999999,0.9934689,0.03034467,-0.08416986,-28.34146,-31.0353,7.596384
198.28,12.63307,1.190586,-7.22693299999998,0.971281,0.0630976,-0.08222649,-28.34146,-31.0353,7.596384
198.29,11.82413,2.309809,-6.188927,0.9510282,0.09355132,-0.06870187,-28.34146,-31.0353,7.596384
198.3,8.02835000000001,2.722155,-5.334099,0.9454466,0.1200766,-0.07396729,-28.34146,-31.0353,7.596384
198.31,1.681302,1.95637,-3.868679,0.9475601,0.1586598,-0.09028555,-28.34146,-31.0353,7.596384
198.32,-4.665745,1.838557,-3.868679,0.9584304,0.1982264,-0.1123697,-28.70101,-31.39544,7.59874
198.33,-7.59036400000001,0.719333499999998,-4.967744,0.965351,0.196024,-0.1475827,-28.70101,-31.39544,7.59874
198.34,-5.723586,-1.283488,-5.639395,0.9752131,0.1895418,-0.1770066,-28.70101,-31.39544,7.59874
198.35,-3.732356,-3.521936,-6.00574999999998,0.9709523,0.1788133,-0.1823487,-28.70101,-31.39544,7.59874
198.36,-4.292389,-4.700066,-5.94469099999999,0.9939451,0.1592826,-0.1678549,-28.71136,-31.02674,7.972008
198.37,-5.723586,-5.348037,-5.94469099999999,1.012846,0.1619641,-0.1552542,-28.71136,-31.02674,7.972008
198.38,-7.71481699999998,-5.348037,-6.24998599999998,1.011269,0.1707858,-0.1417279,-28.71136,-31.02674,7.972008
198.39,-9.02156200000002,-5.289131,-7.22693299999998,0.9902363,0.1813695,-0.1306608,-28.71136,-31.02674,7.972008
198.4,-8.33707600000001,-4.758972,-7.95964199999997,0.9811726,0.1591557,-0.1177031,-28.71136,-31.02674,7.972008
198.41,-5.163552,-3.521936,-8.631293,0.9636701,0.1105232,-0.1289514,-28.3248,-32.11668,7.99299
198.42,0.6856869,-3.227403,-8.87552999999998,0.9540693,0.05075555,-0.1474415,-28.3248,-32.11668,7.99299
198.43,7.96612400000001,-3.934281,-8.69235199999999,0.9503444,-0.01614199,-0.1567633,-28.3248,-32.11668,7.99299
198.44,15.30879,-4.052094,-8.814471,0.9629471,-0.0597396,-0.1722661,-28.3248,-32.11668,7.99299
198.45,19.47792,-3.875375,-9.058707,0.9793792,-0.1012354,-0.1727955,-28.3248,-32.11668,7.99299
198.46,22.7759,-2.343805,-8.57023400000002,0.9816911,-0.1376058,-0.1830013,-27.65279,-31.77088,7.235331
198.47,24.14487,-0.1642642,-6.79951899999998,0.990697,-0.1632375,-0.1888237,-27.65279,-31.77088,7.235331
198.48,25.94942,0.954959599999998,-3.685502,0.9990522,-0.1667576,-0.2105244,-27.65279,-31.77088,7.235331
198.49,28.9985,2.191996,-0.876779899999998,1.008131,-0.1516272,-0.2041954,-27.65279,-31.77088,7.235331
198.5,32.91873,4.901696,2.237237,0.9994316,-0.1094553,-0.1891681,-27.65279,-31.77088,7.235331
198.51,37.71012,6.551078,5.412314,0.9817844,-0.0432481,-0.1842458,-27.95956,-32.46818,8.823694
198.52,42.25262,7.434676,7.671504,0.9729876,0.008157555,-0.164856,-27.95956,-32.46818,8.823694
198.53,46.23508,7.552489,8.77056900000003,0.9685763,0.0595623,-0.1493153,-27.95956,-32.46818,8.823694
198.54,49.28415,6.78670500000001,9.25904200000001,0.9714576,0.1124275,-0.1390607,-27.95956,-32.46818,8.823694
198.55,50.71535,5.549668,9.38116100000001,0.9694697,0.1643439,-0.1225476,-27.95956,-32.46818,8.823694
198.56,49.34638,3.429033,9.25904200000001,0.9782148,0.2148088,-0.1151783,-27.97052,-32.09845,9.260147
198.57,44.67943,1.779651,8.40421400000002,0.9831071,0.2557447,-0.08805496,-27.97052,-32.09845,9.260147
198.58,36.34116,0.3658944,7.36620799999997,0.9959524,0.2825632,-0.07686555,-27.97052,-32.09845,9.260147
198.59,25.76274,0.601520500000003,6.51137900000001,1.008051,0.2865863,-0.07055257,-27.97052,-32.09845,9.260147
198.6,15.43324,2.191996,5.168077,1.005774,0.270585,-0.07204048,-27.97052,-32.09845,9.260147
198.61,6.65937899999997,4.077005,3.885835,1.006662,0.2303407,-0.08129314,-28.00894,-30.62879,10.4373
198.62,0.499009,6.07982600000001,2.481474,1.010089,0.178497,-0.09104673,-28.00894,-30.62879,10.4373
198.63,-3.296774,7.84702199999997,1.748764,1.014003,0.1243121,-0.09260077,-28.00894,-30.62879,10.4373
198.64,-4.976874,9.20187200000002,1.32135,1.010437,0.09132737,-0.09798892,-28.00894,-30.62879,10.4373
198.65,-6.15916799999999,10.79235,0.893935900000001,1.007529,0.0404241,-0.1053441,-28.00894,-30.62879,10.4373
198.66,-7.34146099999997,11.85266,0.710758400000002,1.009901,-0.001770784,-0.1174924,-28.37524,-30.62641,10.43382
198.67,-9.14601299999999,11.73485,0.893935900000001,1.016666,-0.04868303,-0.1199885,-28.37524,-30.62641,10.43382
198.68,-12.19508,12.32392,1.931942,1.031488,-0.07655734,-0.1113244,-28.37524,-30.62641,10.43382
198.69,-15.80419,14.20893,3.824776,1.04624,-0.09904288,-0.09541054,-28.37524,-30.62641,10.43382
198.7,-19.16439,16.44737,5.83972799999998,1.060537,-0.1197587,-0.0973484,-28.37524,-30.62641,10.43382
198.71,-22.71127,19.3927,8.28209599999998,1.085429,-0.1288077,-0.1026117,-28.00894,-30.62879,10.4373
198.72,-25.26254,22.1024,10.35811,1.109251,-0.1239404,-0.1199116,-28.00894,-30.62879,10.4373
198.73,-27.87603,25.40116,12.43412,1.136905,-0.1160429,-0.1265789,-28.00894,-30.62879,10.4373
198.74,-30.80065,28.99446,13.83848,1.180155,-0.1114419,-0.136591,-28.00894,-30.62879,10.4373
198.75,-34.78311,32.11651,15.48708,1.212515,-0.08845693,-0.1379058,-28.00894,-30.62879,10.4373
198.76,-40.25899,35.00293,16.28084,1.2311,-0.04674492,-0.1435588,-28.35707,-31.00851,9.239162
198.77,-46.48159,36.94684,16.21979,1.241341,0.00360865,-0.1496972,-28.35707,-31.00851,9.239162
198.78,-53.51312,37.53591,16.3419,1.238676,0.03437614,-0.169905,-28.35707,-31.00851,9.239162
198.79,-59.3623599999999,36.82903,16.58614,1.24628,0.05564582,-0.1790081,-28.35707,-31.00851,9.239162
198.8,-63.2203700000001,33.41245,20.18863,1.259071,0.03366845,-0.1587553,-28.35707,-31.00851,9.239162
198.81,-65.2115900000001,30.58494,26.23349,1.218551,-0.01035781,-0.1227633,-29.07661,-30.67524,7.141302
198.82,-65.9583099999999,29.64243,32.03411,1.148621,-0.08636983,-0.06664887,-29.07661,-30.67524,7.141302
198.83,-66.8294699999997,30.2315,37.52944,1.114436,-0.1318073,-0.03160866,-29.07661,-30.67524,7.141302
198.84,-70.9986099999999,31.1151,44.18489,1.08445,-0.1677183,0.03627619,-29.07661,-30.67524,7.141302
198.85,-80.0835999999999,33.82479,52.67211,1.074827,-0.1491626,0.1159118,-29.07661,-30.67524,7.141302
198.86,-92.2176599999998,39.53873,61.9531099999998,1.051435,-0.1613437,0.1800043,-29.04598,-30.72779,3.918928
198.87,-100.6182,47.19658,70.3182099999999,1.034579,-0.179817,0.1852291,-29.04598,-30.72779,3.918928
198.88,-94.83115,54.02973,77.9505999999999,1.010653,-0.1934517,0.09007601,-29.04598,-30.72779,3.918928
198.89,-69.7540899999999,55.50239,82.95745,0.9903198,-0.2594733,-0.07466751,-29.04598,-30.72779,3.918928
198.9,-31.73404,52.61597,89.8571400000001,0.9651817,-0.3444777,-0.1941046,-29.04598,-30.72779,3.918928
198.91,0.747912799999997,48.25689,98.4054299999998,0.9833497,-0.4583626,-0.2271159,-30.5132,-29.01865,0.6544342
198.92,18.66899,45.25266,108.5412,1.033422,-0.5671862,-0.209849,-30.5132,-29.01865,0.6544342
198.93,27.50507,40.65795,116.54,1.076318,-0.6938006,-0.1738194,-30.5132,-29.01865,0.6544342
198.94,31.36308,33.05901,126.6148,1.10218,-0.7738518,-0.111676,-30.5132,-29.01865,0.6544342
198.95,30.9275,26.28476,136.0179,1.169643,-0.8001777,0.02210742,-31.93084,-26.88078,-2.237185
198.96,24.14487,27.5218,144.3219,1.253463,-0.7557324,0.1546375,-31.93084,-26.88078,-2.237185
198.97,11.2641,36.77012,149.1456,1.32708,-0.7052907,0.2635093,-31.93084,-26.88078,-2.237185
198.98,0.934590599999999,49.31721,152.5649,1.340673,-0.596859,0.2550916,-31.93084,-26.88078,-2.237185
198.99,4.170341,55.73802,152.1375,1.291153,-0.5330024,0.1885094,-31.93084,-26.88078,-2.237185
199,23.70929,52.02691,155.4957,1.25228,-0.4571792,0.09833554,-34.5727,-22.28562,-3.156837
199.01,45.86172,45.42938,157.9381,1.252063,-0.3812272,0.09560297,-34.5727,-22.28562,-3.156837
199.02,57.4357499999998,42.07171,158.5487,1.248141,-0.3717677,0.0748636,-34.5727,-22.28562,-3.156837
199.03,66.4585199999999,38.30169,163.1281,1.23231,-0.3908795,0.06223541,-34.5727,-22.28562,-3.156837
199.04,68.6364299999999,39.59763,170.6995,1.208341,-0.3694645,0.04291768,-34.5727,-22.28562,-3.156837
199.05,63.5339000000003,40.36342,179.2478,1.227256,-0.3884034,0.1259242,-36.06764,-16.62279,-4.841177
199.06,47.85295,47.72673,191.7649,1.151794,-0.327443,0.1355115,-36.06764,-16.62279,-4.841177
199.07,26.01165,50.73096,195.7948,1.13747,-0.3178942,0.1866453,-36.06764,-16.62279,-4.841177
199.08,6.47270099999997,53.49957,202.145,1.094867,-0.2513371,0.2513401,-36.06764,-16.62279,-4.841177
199.09,-15.61751,59.4491300000002,203.1219,1.055258,-0.2335206,0.2754036,-36.06764,-16.62279,-4.841177
199.1,-37.20992,60.8039799999999,197.5045,1.05049,-0.3086323,0.3215546,-37.28267,-9.16375,-7.436362
199.11,-53.82425,57.8586500000002,193.7798,0.9953767,-0.3989013,0.3405203,-37.28267,-9.16375,-7.436362
199.12,-59.8601699999998,53.7352,190.849,0.9888428,-0.5146813,0.279936,-37.28267,-9.16375,-7.436362
199.13,-57.3089000000001,56.91615,193.1693,0.9738154,-0.6313752,0.1261958,-37.28267,-9.16375,-7.436362
199.14,-47.2283,54.73661,196.5886,0.9017115,-0.6456766,0.05214914,-37.28267,-9.16375,-7.436362
199.15,-41.62796,45.07594,196.9549,0.9001626,-0.6430449,0.0767608,-37.75894,-2.070951,-9.955567
199.16,-42.31245,42.13062,196.1001,0.8692614,-0.5647897,0.08746541,-37.75894,-2.070951,-9.955567
199.17,-42.188,37.06466,190.2995,0.8607858,-0.5104919,0.1584949,-37.75894,-2.070951,-9.955567
199.18,-37.20992,38.77294,183.644,0.8777694,-0.5187014,0.1990552,-37.75894,-2.070951,-9.955567
199.19,-26.56928,44.13343,175.7063,0.7949019,-0.4517939,0.230351,-37.75894,-2.070951,-9.955567
199.2,-25.13808,46.72532,162.945,0.6670867,-0.4585199,0.2386928,-35.32188,5.734071,-12.0795
199.21,-27.75157,43.13202,154.3967,0.5096307,-0.4085688,0.2253653,-35.32188,5.734071,-12.0795
199.22,-30.73842,39.77435,145.2378,0.4118895,-0.4049982,0.2227081,-35.32188,5.734071,-12.0795
199.23,-35.59204,35.6509,134.6746,0.2871777,-0.3642808,0.1771144,-35.32188,5.734071,-12.0795
199.24,-36.15208,32.17541,122.3406,0.200658,-0.3584137,0.1513288,-35.32188,5.734071,-12.0795
199.25,-32.04517,28.16977,111.1668,0.1042971,-0.2924686,0.1415711,-31.90433,13.11703,-13.74505
199.26,-29.55613,20.04067,99.7487299999998,0.06770457,-0.2838675,0.1607972,-31.90433,13.11703,-13.74505
199.27,-26.81819,15.21034,86.7431199999998,0.06059742,-0.2957881,0.1332479,-31.90433,13.11703,-13.74505
199.28,-24.26692,10.67453,75.44717,0.1042451,-0.2829174,0.1275976,-31.90433,13.11703,-13.74505
199.29,-25.26254,7.31686300000001,62.6858100000002,0.1346193,-0.3045635,0.1160482,-31.90433,13.11703,-13.74505
199.3,-28.31161,3.959192,51.20669,0.1586239,-0.3171828,0.09147299,-29.77605,17.02391,-14.16647
199.31,-29.43167,0.1891749,41.00981,0.1438171,-0.3359871,0.05858106,-29.77605,17.02391,-14.16647
199.32,-26.69373,-4.346627,30.87399,0.1201822,-0.3560091,0.0589596,-29.77605,17.02391,-14.16647
199.33,-20.53336,-8.88242800000001,21.10452,0.1279218,-0.407142,0.07045082,-29.77605,17.02391,-14.16647
199.34,-13.31515,-12.18119,10.90764,0.1477675,-0.4556814,0.0906647,-29.77605,17.02391,-14.16647
199.35,-6.65697500000003,-15.06761,1.199232,0.1618323,-0.5072532,0.1016887,-28.05846,19.85217,-14.19535
199.36,-1.367769,-17.07043,-8.44811599999998,0.1934634,-0.5612526,0.09682873,-28.05846,19.85217,-14.19535
199.37,3.236951,-17.6595,-17.48487,0.2069719,-0.594306,0.06928723,-28.05846,19.85217,-14.19535
199.38,10.20626,-18.42528,-25.6668,0.226792,-0.6366642,0.07745061,-28.05846,19.85217,-14.19535
199.39,18.91789,-16.89371,-32.32225,0.235325,-0.6646886,0.07499962,-28.05846,19.85217,-14.19535
199.4,26.44723,-16.54027,-38.18393,0.2422785,-0.6782551,0.06726761,-27.72322,20.95591,-13.07207
199.41,32.29647,-16.71699,-41.90854,0.2399299,-0.6827652,0.05229284,-27.72322,20.95591,-13.07207
199.42,39.328,-16.7759,-46.54903,0.2476373,-0.6744999,0.04991774,-27.72322,20.95591,-13.07207
199.43,46.79512,-17.60059,-50.51788,0.2350263,-0.6803179,0.05952369,-27.72322,20.95591,-13.07207
199.44,52.89326,-19.60341,-55.83002,0.2348785,-0.6760785,0.1000665,-27.72322,20.95591,-13.07207
199.45,56.81349,-20.66373,-61.5085300000001,0.2396866,-0.6772732,0.1242038,-29.09678,19.50875,-13.44118
199.46,58.8669500000002,-22.60765,-66.02691,0.2472029,-0.6547772,0.1435735,-29.09678,19.50875,-13.44118
199.47,61.2315400000001,-23.90359,-71.8275299999998,0.255355,-0.6543447,0.1841296,-29.09678,19.50875,-13.44118
199.48,64.6539700000001,-25.72969,-77.8723900000002,0.2753847,-0.6681175,0.1957328,-29.09678,19.50875,-13.44118
199.49,65.4629099999999,-26.20094,-83.3677099999999,0.2994141,-0.6826943,0.1687407,-29.09678,19.50875,-13.44118
199.5,65.7118099999997,-26.79001,-87.8860899999998,0.2718689,-0.6504188,0.1759772,-29.79676,17.76131,-13.41994
199.51,64.5917399999999,-29.08736,-93.1371799999999,0.232479,-0.6082669,0.2150527,-29.79676,17.76131,-13.41994
199.52,65.8362599999999,-33.62317,-101.1359,0.2547272,-0.5964653,0.2165831,-29.79676,17.76131,-13.41994
199.53,71.3121400000001,-41.45773,-107.6082,0.2591882,-0.5524306,0.2123464,-29.79676,17.76131,-13.41994
199.54,78.4059100000001,-47.76073,-116.706,0.30262,-0.5233717,0.2308577,-29.79676,17.76131,-13.41994
199.55,85.0640800000001,-51.47184,-125.6817,0.3553616,-0.4893252,0.2045267,-31.57539,14.93344,-13.39164
199.56,91.5978100000002,-55.18295,-134.8406,0.4026069,-0.4431042,0.1912366,-31.57539,14.93344,-13.39164
199.57,96.1402999999998,-60.72016,-144.549,0.4445361,-0.3602464,0.2199932,-31.57539,14.93344,-13.39164
199.58,94.02462,-68.4958199999999,-154.4406,0.5380482,-0.3327104,0.2410432,-31.57539,14.93344,-13.39164
199.59,86.9308600000001,-73.3261600000003,-162.1951,0.6314335,-0.296315,0.2785186,-33.64729,10.68322,-11.76331
199.6,79.0281599999999,-75.8591300000002,-169.278,0.6875424,-0.2682216,0.2864445,-33.64729,10.68322,-11.76331
199.61,66.5207399999998,-78.3332100000002,-175.7502,0.7676753,-0.2546876,0.2693084,-33.64729,10.68322,-11.76331
199.62,55.32007,-81.57307,-183.1994,0.8393207,-0.267881,0.2472676,-33.64729,10.68322,-11.76331
199.63,45.48837,-84.51839,-187.7789,0.8990906,-0.2179023,0.2639359,-33.64729,10.68322,-11.76331
199.64,26.69613,-84.2238599999999,-191.5645,0.9730586,-0.176119,0.2719372,-35.69181,4.338909,-8.837265
199.65,3.236951,-85.5787100000002,-195.8387,1.074012,-0.1234965,0.3311817,-35.69181,4.338909,-8.837265
199.66,-22.64905,-86.7568400000002,-197.4262,1.181504,-0.1552243,0.4221099,-35.69181,4.338909,-8.837265
199.67,-51.52189,-81.5141599999999,-196.8767,1.245172,-0.2285177,0.5031847,-35.69181,4.338909,-8.837265
199.68,-73.8609999999999,-65.4915800000001,-197.0599,1.272442,-0.3688207,0.4310536,-35.69181,4.338909,-8.837265
199.69,-77.1589799999998,-45.81681,-194.1901,1.21861,-0.504384,0.3109513,-37.42539,-2.719034,-5.075265
199.7,-63.8426300000001,-32.85738,-188.3895,1.137416,-0.5724344,0.1880282,-37.42539,-2.719034,-5.075265
199.71,-44.73926,-28.79283,-179.9633,1.062283,-0.5256895,0.1242384,-37.42539,-2.719034,-5.075265
199.72,-35.40537,-31.79706,-172.8194,1.032142,-0.434534,0.1692337,-37.42539,-2.719034,-5.075265
199.73,-40.38345,-34.62457,-169.339,1.03207,-0.3499504,0.2639949,-37.42539,-2.719034,-5.075265
199.74,-55.6288,-34.44785,-168.0568,0.9979968,-0.3100011,0.3223813,-37.66717,-10.183,-3.378575
199.75,-70.1274500000002,-37.33427,-166.4082,0.9515142,-0.2807552,0.3319753,-37.66717,-10.183,-3.378575
199.76,-72.0564500000001,-42.04679,-162.1951,0.9337242,-0.2438232,0.3107767,-37.66717,-10.183,-3.378575
199.77,-57.8689400000001,-39.80835,-155.0512,0.9582782,-0.1982932,0.2409683,-37.66717,-10.183,-3.378575
199.78,-31.23623,-35.86161,-147.9683,0.9933512,-0.1640263,0.09443758,-37.66717,-10.183,-3.378575
199.79,-8.33707600000001,-36.50958,-142.1677,1.013231,-0.1346261,0.01107112,-36.45115,-16.88336,-2.438811
199.8,20.59799,-46.17025,-140.1527,1.051367,-0.1374026,-0.06073627,-36.45115,-16.88336,-2.438811
199.81,38.08348,-59.54203,-140.0917,1.089598,-0.1695639,-0.0645672,-36.45115,-16.88336,-2.438811
199.82,42.99933,-72.0302099999997,-140.9465,1.135087,-0.2067197,-0.03847213,-36.45115,-16.88336,-2.438811
199.83,36.52783,-78.0386699999998,-141.496,1.197203,-0.1983819,-0.02623028,-36.45115,-16.88336,-2.438811
199.84,23.21148,-76.7427300000001,-133.0699,1.397401,-0.158848,0.05206139,-33.86143,-22.95566,0.526453
199.85,9.210643,-69.08488,-122.0182,1.657057,-0.1556637,0.02040713,-33.86143,-22.95566,0.526453
199.86,7.03273400000001,-61.4270400000001,-108.402,1.808587,-0.2648461,-0.08849283,-33.86143,-22.95566,0.526453
199.87,25.57607,-57.5392100000002,-96.3733100000002,1.732365,-0.4272207,-0.10448,-33.86143,-22.95566,0.526453
199.88,44.43053,-54.7117,-88.6188,1.449305,-0.5683631,-0.1098564,-33.86143,-22.95566,0.526453
199.89,61.6671200000003,-51.53074,-74.3920100000002,1.290913,-0.6556134,-0.2026193,-32.33457,-27.86706,3.842484
199.9,61.4182100000002,-51.70746,-47.3428,1.369538,-0.6890255,-0.2188951,-32.33457,-27.86706,3.842484
199.91,34.84773,-48.23198,-16.14157,1.592104,-0.6901381,0.0002711865,-32.33457,-27.86706,3.842484
199.92,3.236951,-26.90782,7.97679899999999,1.663328,-0.7483734,0.2937194,-32.33457,-27.86706,3.842484
199.93,-13.06625,7.670302,24.52383,1.602154,-0.7371763,0.4065021,-32.33457,-27.86706,3.842484
199.94,1.86798,23.57506,31.11822,1.406658,-0.6997046,0.1179968,-29.80201,-30.68285,6.376137
199.95,35.84335,14.15002,35.81978,1.174368,-0.6478093,-0.09625983,-29.80201,-30.68285,6.376137
199.96,65.8984799999998,-2.873964,41.25405,0.9995778,-0.5425317,-0.1838256,-29.80201,-30.68285,6.376137
199.97,80.5215800000003,-16.48137,45.16183,0.8884007,-0.341403,-0.2160108,-29.80201,-30.68285,6.376137
199.98,78.5925799999997,-21.54733,42.10888,0.8877254,-0.1657215,-0.2141872,-29.80201,-30.68285,6.376137
199.99,67.3919099999999,-20.13357,35.81978,0.9575259,0.05341831,-0.1768623,-29.80562,-30.67667,6.755239
200,53.51552,-9.41258700000003,30.75187,1.062105,0.2880999,-0.1099789,-29.80562,-30.67667,6.755239
200.01,43.12378,7.90592799999999,26.47773,1.080655,0.5206626,-0.04283936,-29.80562,-30.67667,6.755239
200.02,31.86089,22.27912,18.84533,0.9958136,0.6628892,-0.08232142,-29.80562,-30.67667,6.755239
200.03,18.48231,20.21739,9.38116100000001,0.9086615,0.7641702,-0.2053784,-29.80562,-30.67667,6.755239
200.04,5.91266700000003,6.31545299999997,-3.502324,0.8945235,0.7546161,-0.3391014,-30.9663,-28.16553,8.347712
200.05,-4.416841,-5.76038300000003,-13.51603,0.9428214,0.5374187,-0.3703269,-30.9663,-28.16553,8.347712
200.06,-16.11532,-10.29618,-19.01135,0.9653431,0.3324554,-0.2582756,-30.9663,-28.16553,8.347712
200.07,-27.44044,-8.52898900000002,-20.17148,0.9615926,0.1861839,-0.16209,-30.9663,-28.16553,8.347712
200.08,-36.96102,-6.23163500000001,-19.56089,0.9350001,0.09338228,-0.07356905,-30.9663,-28.16553,8.347712
200.09,-38.39222,-5.76038300000003,-19.62194,0.9338939,-0.01398048,-0.01155393,-31.27831,-27.80103,8.338976
200.1,-30.98732,-8.17554999999998,-19.49983,0.9117682,-0.09579569,0.004137236,-31.27831,-27.80103,8.338976
200.11,-20.78227,-11.82775,-19.74406,0.9187779,-0.1664942,-0.006612749,-31.27831,-27.80103,8.338976
200.12,-12.50622,-16.36355,-20.17148,0.9350828,-0.1813071,-0.05292723,-31.27831,-27.80103,8.338976
200.13,-5.78581199999999,-21.42951,-21.27054,0.9777848,-0.2043738,-0.1247665,-31.27831,-27.80103,8.338976
200.14,-1.118866,-26.14204,-23.46867,1.026975,-0.241081,-0.2120599,-30.96209,-28.17275,7.905424
200.15,1.930206,-30.61893,-24.38456,1.075021,-0.2655008,-0.2776151,-30.96209,-28.17275,7.905424
200.16,4.232566,-33.62317,-22.9802,1.102467,-0.2716561,-0.3393238,-30.96209,-28.17275,7.905424
200.17,6.16157100000003,-34.80129,-18.40076,1.110552,-0.2438007,-0.3696436,-30.96209,-28.17275,7.905424
200.18,6.908282,-34.50676,-15.28674,1.093779,-0.2145117,-0.3807226,-30.96209,-28.17275,7.905424
200.19,7.90389699999999,-33.50535,-11.56213,1.043888,-0.1414602,-0.3406426,-30.21029,-29.61419,8.757111
200.2,10.95297,-31.79706,-8.57023400000002,0.9836777,-0.06343018,-0.2764511,-30.21029,-29.61419,8.757111
200.21,14.3754,-29.91205,-7.47116899999999,0.9478362,0.001916672,-0.190992,-30.21029,-29.61419,8.757111
200.22,16.3044,-27.32017,-7.34905100000001,0.9349808,0.05807222,-0.1247952,-30.21029,-29.61419,8.757111
200.23,15.05988,-24.13921,-7.77646500000001,0.9484163,0.1142968,-0.07348949,-30.21029,-29.61419,8.757111
200.24,11.07742,-20.84045,-9.85247699999998,0.9783448,0.1325771,-0.05793145,-30.21247,-29.90289,9.583363
200.25,5.78821500000002,-18.18966,-11.92849,1.009907,0.1418472,-0.07664952,-30.21247,-29.90289,9.583363
200.26,1.183495,-17.01153,-13.45497,1.034054,0.1165673,-0.1099375,-30.21247,-29.90289,9.583363
200.27,-0.683284100000001,-16.12793,-14.18768,1.053388,0.07983262,-0.1215478,-30.21247,-29.90289,9.583363
200.28,-0.0610244899999998,-14.83199,-14.0045,1.052331,0.03582011,-0.1177847,-29.49127,-29.88807,10.79082
200.29,1.743528,-12.94698,-13.21073,1.046254,0.0007342534,-0.08602758,-29.49127,-29.88807,10.79082
200.3,2.988047,-10.64962,-11.74531,1.016279,-0.02254922,-0.06637044,-29.49127,-29.88807,10.79082
200.31,3.796985,-8.88242800000001,-10.09671,0.9905625,-0.03181761,-0.05246277,-29.49127,-29.88807,10.79082
200.32,4.170341,-7.40976500000002,-8.57023400000002,0.9836599,-0.02451562,-0.0418488,-29.49127,-29.88807,10.79082
200.33,4.854826,-5.053505,-6.92163700000001,0.989933,-0.0210307,-0.03651709,-29.12602,-30.23957,11.62152
200.34,5.91266700000003,-2.167086,-5.578336,0.9985973,-0.007548642,-0.05142478,-29.12602,-30.23957,11.62152
200.35,7.90389699999999,-0.1642642,-4.173975,1.005809,0.006370892,-0.07019566,-29.12602,-30.23957,11.62152
200.36,10.39294,1.013866,-3.441265,1.002264,0.03120114,-0.1039298,-29.12602,-30.23957,11.62152
200.37,12.32194,1.367305,-2.891732,1.004096,0.04659641,-0.1154732,-29.12602,-30.23957,11.62152
200.38,13.81536,1.485118,-2.708555,1.003965,0.06625724,-0.1352158,-28.38411,-30.96215,12.08244
200.39,13.00643,1.897464,-2.891732,1.006278,0.07932436,-0.1371119,-28.38411,-30.96215,12.08244
200.4,11.07742,2.368716,-2.769614,1.001226,0.0977365,-0.1303297,-28.38411,-30.96215,12.08244
200.41,8.52615699999999,3.429033,-2.830673,0.9991035,0.114724,-0.1230604,-28.38411,-30.96215,12.08244
200.42,4.854826,4.194818,-2.891732,0.9819105,0.1278453,-0.1023269,-28.38411,-30.96215,12.08244
200.43,1.930206,4.84279,-2.647496,0.967733,0.1355042,-0.09945172,-28.3799,-30.96936,11.64015
200.44,-0.1232504,5.196229,-2.769614,0.9623918,0.1373193,-0.1081475,-28.3799,-30.96936,11.64015
200.45,-0.1854764,5.078416,-2.708555,0.9682654,0.1367626,-0.1211624,-28.3799,-30.96936,11.64015
200.46,1.121269,4.84279,-2.403259,0.9718396,0.1212162,-0.1308375,-28.3799,-30.96936,11.64015
200.47,2.925821,4.430444,-1.914786,0.9734946,0.1032264,-0.141488,-28.3799,-30.96936,11.64015
200.48,4.170341,3.370126,-1.60949,0.9716431,0.0972772,-0.1554995,-28.07465,-30.97134,11.64305
200.49,4.543696,2.13309,-1.426313,0.9769224,0.1045776,-0.1554702,-28.07465,-30.97134,11.64305
200.5,3.85921,1.426212,-1.487372,0.9712012,0.09103072,-0.150206,-28.07465,-30.97134,11.64305
200.51,3.299177,0.3069879,-1.304194,0.9650274,0.07502537,-0.1488087,-28.07465,-30.97134,11.64305
200.52,3.796985,-0.8711423,-0.8157207,0.9709117,0.06739839,-0.1410891,-28.07465,-30.97134,11.64305
200.53,5.10373,-1.106768,-0.0830107899999998,0.982528,0.07093819,-0.1342959,-28.0136,-30.97174,11.64363
200.54,6.65937899999997,-0.3998902,0.832876700000002,0.9838772,0.08068921,-0.1275157,-28.0136,-30.97174,11.64363
200.55,7.84167200000001,-0.04645117,1.382409,0.9798642,0.09185459,-0.1202639,-28.0136,-30.97174,11.64363
200.56,8.52615699999999,-0.1642642,2.176178,0.9763612,0.09966268,-0.1101226,-28.0136,-30.97174,11.64363
200.57,9.02396499999999,-0.2820772,2.481474,0.9752592,0.1146214,-0.1139537,-28.0136,-30.97174,11.64363
200.58,9.52177200000003,-0.2231707,2.78677,0.9786647,0.1122941,-0.1067117,-28.73946,-31.32951,11.6425
200.59,9.272869,-0.1642642,3.031007,0.9810928,0.113259,-0.1091161,-28.73946,-31.32951,11.6425
200.6,8.71283499999999,-0.3409837,3.214184,0.9873625,0.1195685,-0.1124642,-28.73946,-31.32951,11.6425
200.61,7.28163800000001,-0.3409837,3.336303,0.9863592,0.1177874,-0.09461629,-28.73946,-31.32951,11.6425
200.62,5.290408,0.1302684,3.824776,0.9882135,0.1237278,-0.08156992,-28.73946,-31.32951,11.6425
200.63,3.050273,0.1891749,4.435368,0.98768,0.1281012,-0.07914915,-28.39086,-30.59962,12.0766
200.64,1.121269,1.013866,4.923841,0.9852996,0.1213512,-0.07434431,-28.39086,-30.59962,12.0766
200.65,0.001201458,1.308399,5.045959,0.9810886,0.1076448,-0.087896,-28.39086,-30.59962,12.0766
200.66,-0.2477024,1.779651,5.534432,0.9869373,0.1057634,-0.08691987,-28.39086,-30.59962,12.0766
200.67,-0.1854764,2.250903,5.90078799999999,0.9894312,0.1013527,-0.09512624,-28.39086,-30.59962,12.0766
200.68,0.1256534,2.781061,6.20608299999999,0.9812949,0.09055007,-0.105304,-28.39026,-30.60066,12.01342
200.69,0.3123312,2.781061,6.38926099999998,0.9813652,0.08234544,-0.1029087,-28.39026,-30.60066,12.01342
200.7,0.001201458,2.722155,6.99985300000002,0.9799825,0.07645698,-0.1106457,-28.39026,-30.60066,12.01342
200.71,-0.869961900000003,2.957781,7.73256299999998,0.9838799,0.07599027,-0.1120843,-28.39026,-30.60066,12.01342
200.72,-2.425611,2.839968,8.15997699999998,0.9765548,0.07979591,-0.1130601,-28.39026,-30.60066,12.01342
200.73,-4.416841,2.957781,8.52633199999999,0.9770195,0.08455998,-0.1217345,-28.75971,-30.24194,11.625
200.74,-6.09694100000002,2.898875,8.64845099999999,0.972147,0.08878087,-0.1323541,-28.75971,-30.24194,11.625
200.75,-7.21700899999997,2.839968,8.64845099999999,0.9702212,0.08870434,-0.1391149,-28.75971,-30.24194,11.625
200.76,-8.08817200000001,2.368716,8.52633199999999,0.9727693,0.07848663,-0.1473336,-28.75971,-30.24194,11.625
200.77,-8.83488400000002,2.015277,8.40421400000002,0.9713951,0.07210112,-0.1565194,-28.75971,-30.24194,11.625
200.78,-9.33269099999999,1.779651,8.15997699999998,0.9772228,0.0735721,-0.1593964,-28.75971,-30.24194,11.625
200.79,-10.39053,1.367305,7.97679899999999,0.9709697,0.06767637,-0.1637682,-28.75971,-30.24194,11.625
200.8,-12.25731,0.601520500000003,7.79362200000003,0.9745199,0.05689907,-0.181154,-28.75971,-30.24194,11.625
200.81,-13.50183,-0.1642642,7.61044399999998,0.9737015,0.04278348,-0.1893898,-28.75971,-30.24194,11.625
200.82,-14.18632,-0.988955399999998,7.85468100000002,0.9837147,0.01422957,-0.1981112,-28.75971,-30.24194,11.625
200.83,-13.75073,-1.636927,8.09891799999999,0.9888671,-0.01577021,-0.2020228,-28.76647,-29.87942,11.61917
200.84,-12.31954,-1.401301,8.34315499999997,1.001141,-0.03108173,-0.1933382,-28.76647,-29.87942,11.61917
200.85,-10.45276,-0.812235800000003,9.25904200000001,1.009044,-0.04691132,-0.1846659,-28.76647,-29.87942,11.61917
200.86,-8.95933499999999,0.4248009,10.41917,1.017795,-0.0510668,-0.1701758,-28.76647,-29.87942,11.61917
200.87,-8.02594699999998,1.602931,10.9687,1.026456,-0.04273253,-0.1657926,-29.49127,-29.88807,10.79082
200.88,-8.15039800000001,2.663248,11.45717,1.033693,-0.03921372,-0.1575631,-29.49127,-29.88807,10.79082
200.89,-8.64820600000002,4.253725,11.64035,1.040438,-0.03708473,-0.1420995,-29.49127,-29.88807,10.79082
200.9,-9.643821,5.903107,11.82353,1.037497,-0.03609147,-0.136797,-29.49127,-29.88807,10.79082
200.91,-9.892725,7.96483500000003,12.0067,1.05599,-0.04258187,-0.1213217,-29.49127,-29.88807,10.79082
200.92,-10.39053,10.91016,12.25094,1.059441,-0.05115622,-0.1092675,-29.12917,-29.88323,11.23658
200.93,-10.63944,13.85549,12.37306,1.065783,-0.05774586,-0.09430627,-29.12917,-29.88323,11.23658
200.94,-11.32392,17.27206,13.10577,1.075926,-0.05604355,-0.07545704,-29.12917,-29.88323,11.23658
200.95,-11.94618,19.86395,13.59424,1.105153,-0.06070761,-0.08118227,-29.12917,-29.88323,11.23658
200.96,-14.18632,23.81069,14.44907,1.140129,-0.06176348,-0.06758297,-29.12917,-29.88323,11.23658
200.97,-17.48429,28.58212,15.05966,1.16551,-0.07363335,-0.06416519,-29.49689,-29.58596,10.78595
200.98,-21.0934,35.17965,16.09767,1.182161,-0.08375856,-0.07427754,-29.49689,-29.58596,10.78595
200.99,-22.71127,41.18811,17.19673,1.188048,-0.08764131,-0.08054384,-29.49689,-29.58596,10.78595
201,-24.7025,45.6061,18.96745,1.188925,-0.087789,-0.04435073,-29.49689,-29.58596,10.78595
201.01,-31.11178,51.61456,20.92134,1.187788,-0.0844418,0.00535606,-29.49689,-29.58596,10.78595
201.02,-41.44128,58.6244399999997,23.48583,1.156429,-0.06792044,0.03957167,-30.22018,-28.89533,8.366341
201.03,-58.1178399999999,64.9863399999999,26.23349,1.128446,-0.04284174,0.05402988,-30.22018,-28.89533,8.366341
201.04,-79.5857900000001,70.5235500000002,29.71386,1.095893,0.008172053,0.05067775,-30.22018,-28.89533,8.366341
201.05,-102.3605,75.05936,32.76682,1.088246,0.05430799,0.02180428,-30.22018,-28.89533,8.366341
201.06,-122.3972,83.5418900000003,36.79673,1.134923,0.09985968,0.04180709,-30.22018,-28.89533,8.366341
201.07,-141.6251,90.3750499999999,40.52134,1.161957,0.1447757,-0.04440286,-31.29521,-28.57823,5.127689
201.08,-147.9099,85.5447199999998,42.90265,1.158137,0.1665604,-0.1466662,-31.29521,-28.57823,5.127689
201.09,-146.2298,75.4128,40.39922,1.17762,0.1246449,-0.1959261,-31.29521,-28.57823,5.127689
201.1,-140.505,62.4533600000002,39.48333,1.193756,0.06141299,-0.1916775,-31.29521,-28.57823,5.127689
201.11,-136.7714,50.78987,41.00981,1.182314,-0.02637739,-0.1503965,-31.29521,-28.57823,5.127689
201.12,-134.0957,40.42233,45.65031,1.133156,-0.1287295,-0.1348192,-31.93657,-27.57285,-0.2036343
201.13,-132.7268,31.64525,52.54999,1.03267,-0.192075,-0.149691,-31.93657,-27.57285,-0.2036343
201.14,-132.3534,24.87101,57.8621399999999,0.9470369,-0.2358281,-0.1514536,-31.93657,-27.57285,-0.2036343
201.15,-132.4156,15.7994,63.78488,0.8800166,-0.3033523,-0.1223361,-31.93657,-27.57285,-0.2036343
201.16,-134.7802,9.49640499999999,69.2802000000003,0.8507958,-0.3716028,-0.04583292,-31.93657,-27.57285,-0.2036343
201.17,-136.5848,8.141555,74.5923499999999,0.8638024,-0.4845355,0.03020055,-32.64205,-26.6203,-5.092279
201.18,-135.6514,13.0897,79.0496700000002,0.9559126,-0.5757809,0.08187466,-32.64205,-26.6203,-5.092279
201.19,-133.5979,22.1024,84.9724,1.054592,-0.6776475,0.07756723,-32.64205,-26.6203,-5.092279
201.2,-125.1974,28.11086,92.1163300000001,1.083425,-0.8332928,0.01988368,-32.64205,-26.6203,-5.092279
201.21,-97.8802199999998,24.34085,101.1531,1.081713,-1.037474,-0.08044729,-32.64205,-26.6203,-5.092279
201.22,-49.21953,14.73908,115.3188,1.083529,-1.210422,-0.1551269,-33.39489,-24.12427,-7.983351
201.23,8.58838299999999,4.135911,133.2702,1.111284,-1.300804,-0.2194287,-33.39489,-24.12427,-7.983351
201.24,59.3647600000001,-5.99600900000002,150.1836,1.174353,-1.299899,-0.1739045,-33.39489,-24.12427,-7.983351
201.25,92.2200599999999,-10.4729,164.1051,1.254116,-1.232889,-0.05774297,-33.39489,-24.12427,-7.983351
201.26,108.1499,-7.93992399999999,176.5001,1.355925,-1.095056,0.1112255,-33.39489,-24.12427,-7.983351
201.27,110.8256,-1.519114,186.5749,1.424203,-0.8860348,0.2078781,-35.24369,-19.53322,-8.832279
201.28,101.8651,10.61563,191.826,1.442669,-0.6297453,0.2234357,-35.24369,-19.53322,-8.832279
201.29,100.6206,19.21598,197.9319,1.426105,-0.3764396,0.2601287,-35.24369,-19.53322,-8.832279
201.3,95.3313599999999,28.93555,203.8546,1.360586,-0.1432175,0.3120939,-35.24369,-19.53322,-8.832279
201.31,87.7398,34.53167,210.3879,1.265382,0.1391295,0.2038818,-35.24369,-19.53322,-8.832279
201.32,66.6451999999997,37.06466,206.4801,1.227803,0.2396198,0.2705927,-37.18775,-13.47934,-8.946918
201.33,43.99495,40.1867,202.9998,1.159984,0.2689943,0.2593823,-37.18775,-13.47934,-8.946918
201.34,9.52177200000003,48.49252,195.978,1.11944,0.2461526,0.2302757,-37.18775,-13.47934,-8.946918
201.35,-21.3423,48.78705,187.2465,1.039956,0.03900165,0.1360109,-37.18775,-13.47934,-8.946918
201.36,-42.188,52.14472,184.5599,0.9730327,-0.01711698,0.08891043,-37.18775,-13.47934,-8.946918
201.37,-60.4824299999998,45.78282,175.8895,0.8882558,-0.176451,-0.01105581,-37.67123,-6.374174,-10.70792
201.38,-78.4657200000003,32.76448,169.5394,0.823225,-0.3052763,0.03385911,-37.67123,-6.374174,-10.70792
201.39,-88.4840999999998,27.5218,161.8459,0.8049343,-0.4302296,0.03885135,-37.67123,-6.374174,-10.70792
201.4,-88.6085499999999,24.63538,157.2665,0.7431658,-0.5313644,0.03943973,-37.67123,-6.374174,-10.70792
201.41,-85.8706100000001,24.51757,152.0764,0.717548,-0.6147869,0.09420488,-37.67123,-6.374174,-10.70792
201.42,-78.4657200000003,23.81069,148.7182,0.6952025,-0.6272059,0.1312768,-36.32318,0.7191124,-12.45152
201.43,-64.4648799999999,24.87101,143.6503,0.6776206,-0.6181612,0.1298033,-36.32318,0.7191124,-12.45152
201.44,-46.79272,27.63961,136.3232,0.6541451,-0.5991139,0.1157897,-36.32318,0.7191124,-12.45152
201.45,-26.25815,27.93414,128.2023,0.6353264,-0.567162,0.1331817,-36.32318,0.7191124,-12.45152
201.46,-5.163552,29.3479,122.1574,0.5940498,-0.4724895,0.1487203,-36.32318,0.7191124,-12.45152
201.47,9.02396499999999,31.58635,115.6241,0.5270252,-0.3766629,0.1535789,-35.00066,8.558046,-12.94311
201.48,16.92666,32.52885,107.9917,0.5009933,-0.3426813,0.1342829,-35.00066,8.558046,-12.94311
201.49,20.10018,31.88088,98.1001299999997,0.441233,-0.292399,0.1269986,-35.00066,8.558046,-12.94311
201.5,19.10457,30.34931,86.6820600000002,0.3591276,-0.2941307,0.1132718,-35.00066,8.558046,-12.94311
201.51,13.87759,25.63679,74.2259900000002,0.2808391,-0.2527181,0.1575534,-33.31165,13.48247,-14.14333
201.52,8.77506099999999,21.98459,64.2733500000001,0.2664408,-0.2754838,0.1676009,-33.31165,13.48247,-14.14333
201.53,-0.3721543,18.62691,49.61915,0.2215318,-0.2625526,0.1911577,-33.31165,13.48247,-14.14333
201.54,-10.76389,16.683,36.9799,0.2117076,-0.3018863,0.1847747,-33.31165,13.48247,-14.14333
201.55,-19.4133,13.79658,24.40171,0.2133145,-0.3668151,0.1745057,-33.31165,13.48247,-14.14333
201.56,-25.63589,10.20328,13.35001,0.2245895,-0.4216418,0.1493244,-31.21214,16.28158,-15.81151
201.57,-30.11616,8.43608700000001,3.275243,0.2403251,-0.4795306,0.1029159,-31.21214,16.28158,-15.81151
201.58,-31.48513,7.19905000000001,-5.456217,0.2339704,-0.5181196,0.06903809,-31.21214,16.28158,-15.81151
201.59,-28.93387,3.900285,-13.33285,0.2313837,-0.5506523,0.0593105,-31.21214,16.28158,-15.81151
201.6,-22.33792,0.4837075,-20.65995,0.2345292,-0.5804613,0.07807393,-31.21214,16.28158,-15.81151
201.61,-11.7595,-1.578021,-26.70481,0.2698501,-0.6201733,0.09786416,-30.5169,18.09561,-15.45461
201.62,0.6856869,-1.872553,-32.44437,0.3148861,-0.6560345,0.1070716,-30.5169,18.09561,-15.45461
201.63,14.49985,0.837146600000002,-38.00075,0.3505427,-0.6755499,0.1124297,-30.5169,18.09561,-15.45461
201.64,28.68736,5.490761,-43.74031,0.3780389,-0.7020358,0.1032752,-30.5169,18.09561,-15.45461
201.65,42.00372,7.90592799999999,-48.19763,0.365335,-0.6972297,0.110491,-30.5169,18.09561,-15.45461
201.66,54.51114,7.552489,-52.89919,0.3423431,-0.6819227,0.1104646,-30.8697,17.37295,-15.44643
201.67,64.4050699999998,4.018098,-59.3103999999997,0.3417371,-0.6651166,0.09650528,-30.8697,17.37295,-15.44643
201.68,71.7477299999999,-0.1642642,-65.1110200000001,0.3478435,-0.6479506,0.1163424,-30.8697,17.37295,-15.44643
201.69,76.5391199999999,-5.289131,-71.4611700000002,0.3692306,-0.6510616,0.1284546,-30.8697,17.37295,-15.44643
201.7,79.0903900000001,-8.88242800000001,-76.83438,0.3970626,-0.6191636,0.153205,-30.8697,17.37295,-15.44643
201.71,77.6591900000003,-9.41258700000003,-84.0393700000002,0.4271114,-0.6134738,0.1677712,-31.56809,15.91525,-16.18826
201.72,77.0369300000003,-8.17554999999998,-88.9241,0.4647451,-0.6279225,0.1432272,-31.56809,15.91525,-16.18826
201.73,74.1745399999997,-6.34944800000001,-93.6867100000002,0.4646135,-0.610136,0.1302363,-31.56809,15.91525,-16.18826
201.74,68.7608800000001,-5.99600900000002,-98.69357,0.4482328,-0.5650582,0.09892525,-31.56809,15.91525,-16.18826
201.75,64.5917399999999,-10.29618,-104.2499,0.4335845,-0.5499497,0.06996702,-31.56809,15.91525,-16.18826
201.76,61.60489,-17.7184,-107.9746,0.4263617,-0.5082942,0.08017147,-32.52972,12.04788,-16.57817
201.77,60.6715,-28.08595,-113.6531,0.4173889,-0.4431768,0.1174446,-32.52972,12.04788,-16.57817
201.78,58.7425000000001,-39.21928,-120.3696,0.4421627,-0.4033312,0.1672967,-32.52972,12.04788,-16.57817
201.79,53.82665,-47.99635,-129.101,0.4916442,-0.3503534,0.2032468,-32.52972,12.04788,-16.57817
201.8,43.99495,-56.41998,-140.6412,0.5582273,-0.3045672,0.2319873,-32.52972,12.04788,-16.57817
201.81,34.97218,-63.6654899999997,-151.3876,0.6445841,-0.2920763,0.2544341,-34.28601,7.42698,-15.32021
201.82,26.44723,-66.43409,-160.7297,0.7014842,-0.2968766,0.2632565,-34.28601,7.42698,-15.32021
201.83,19.78905,-64.3723600000002,-169.2169,0.7775581,-0.3163092,0.2431438,-34.28601,7.42698,-15.32021
201.84,14.99766,-59.0707800000002,-172.9415,0.8246055,-0.2949601,0.2090501,-34.28601,7.42698,-15.32021
201.85,12.75752,-54.94732,-174.6512,0.8675211,-0.2489222,0.1793417,-34.28601,7.42698,-15.32021
201.86,11.94858,-54.00482,-175.2007,0.9071147,-0.219123,0.17613,-35.25082,2.512228,-13.22845
201.87,10.51739,-56.89124,-175.1396,0.9739218,-0.1989317,0.2106067,-35.25082,2.512228,-13.22845
201.88,4.294793,-58.3639000000001,-173.9795,1.03722,-0.2208275,0.2498093,-35.25082,2.512228,-13.22845
201.89,-6.65697500000003,-54.82951,-171.7814,1.109397,-0.2594912,0.3000974,-35.25082,2.512228,-13.22845
201.9,-19.53775,-46.5826,-165.9197,1.157334,-0.3023123,0.339698,-35.25082,2.512228,-13.22845
201.91,-28.93387,-40.10288,-161.2792,1.158781,-0.3535821,0.3415217,-36.96202,-4.935023,-11.1034
201.92,-35.46759,-31.56144,-154.3185,1.140906,-0.4115049,0.3201189,-36.96202,-4.935023,-11.1034
201.93,-35.52982,-29.02846,-147.0524,1.116784,-0.4212088,0.2848098,-36.96202,-4.935023,-11.1034
201.94,-31.92071,-31.208,-140.8244,1.106492,-0.4041305,0.2558671,-36.96202,-4.935023,-11.1034
201.95,-28.80942,-34.50676,-136.9777,1.080017,-0.3787361,0.2505453,-36.96202,-4.935023,-11.1034
201.96,-30.36506,-39.16037,-135.3291,1.057184,-0.3248262,0.2380561,-36.50601,-10.94026,-8.601695
201.97,-36.21431,-44.75649,-134.7795,1.044553,-0.2708191,0.2275235,-36.50601,-10.94026,-8.601695
201.98,-43.61919,-50.88277,-135.4512,1.06495,-0.2103639,0.2059914,-36.50601,-10.94026,-8.601695
201.99,-48.41059,-55.53639,-134.5353,1.095957,-0.1359494,0.1671449,-36.50601,-10.94026,-8.601695
202,-48.03724,-56.12545,-134.0468,1.132236,-0.1069367,0.1335224,-36.50601,-10.94026,-8.601695
202.01,-42.93471,-52.0609,-133.3141,1.143056,-0.06016827,0.1051805,-35.30237,-16.976,-7.672626
202.02,-35.52982,-47.17166,-131.2381,1.13455,-0.02003969,0.05505974,-35.30237,-16.976,-7.672626
202.03,-28.12493,-45.81681,-131.2991,1.110631,0.005428141,0.002454979,-35.30237,-16.976,-7.672626
202.04,-22.71127,-47.81963,-132.3372,1.047203,-0.00386945,-0.06094249,-35.30237,-16.976,-7.672626
202.05,-19.4133,-53.59247,-130.3833,1.023288,-0.04099,-0.07797318,-35.30237,-16.976,-7.672626
202.06,-16.05309,-59.18859,-127.2693,1.016516,-0.085438,-0.1171726,-33.4535,-21.97659,-5.995502
202.07,-10.88834,-65.3148700000001,-123.4225,1.051206,-0.129566,-0.2098274,-33.4535,-21.97659,-5.995502
202.08,-2.363385,-71.2644299999998,-116.8281,1.196964,-0.1918986,-0.3239496,-33.4535,-21.97659,-5.995502
202.09,12.81975,-79.2167999999998,-106.1428,1.407827,-0.3035216,-0.4327017,-33.4535,-21.97659,-5.995502
202.1,30.42969,-84.8718300000001,-98.3882699999999,1.56415,-0.4227601,-0.4808098,-33.4535,-21.97659,-5.995502
202.11,59.42698,-85.99105,-86.8480800000002,1.590313,-0.6073797,-0.5293941,-31.56551,-26.23811,-3.444893
202.12,92.5312000000002,-85.1663699999998,-78.2998000000002,1.460036,-0.8207055,-0.5142646,-31.56551,-26.23811,-3.444893
202.13,126.8799,-84.3416700000002,-63.9508999999999,1.349945,-1.018573,-0.4662365,-31.56551,-26.23811,-3.444893
202.14,144.1165,-87.22809,-46.06056,1.344705,-1.049922,-0.3968304,-31.56551,-26.23811,-3.444893
202.15,145.2366,-86.8746499999999,-26.94905,1.401039,-1.010444,-0.1485701,-31.56551,-26.23811,-3.444893
202.16,130.4268,-70.2630200000002,-7.47116899999999,1.419666,-0.9396664,0.2743429,-29.39875,-30.04673,1.060509
202.17,107.7143,-34.21223,10.48023,1.313176,-0.7564868,0.5524101,-29.39875,-30.04673,1.060509
202.18,98.3804299999997,4.960603,14.63225,1.091301,-0.4690365,0.5283284,-29.39875,-30.04673,1.060509
202.19,112.9413,23.98741,13.10577,0.9482342,-0.2514407,0.3653257,-29.39875,-30.04673,1.060509
202.2,138.7029,28.16977,18.54003,0.8866243,-0.04819762,0.1508695,-28.29837,-32.16201,5.212902
202.21,161.042,27.69852,25.0123,0.8902102,0.1422322,-0.0383535,-28.29837,-32.16201,5.212902
202.22,165.7711,27.87524,28.98115,0.9726237,0.2680978,-0.2106228,-28.29837,-32.16201,5.212902
202.23,145.5477,26.10804,31.97305,1.060549,0.3634466,-0.337584,-28.29837,-32.16201,5.212902
202.24,109.1455,25.46007,30.56869,1.120035,0.41932,-0.4174136,-28.29837,-32.16201,5.212902
202.25,67.5163699999998,26.40257,26.17243,1.19891,0.4478589,-0.3799925,-28.71557,-31.01953,8.414295
202.26,33.60321,26.6382,21.04346,1.221057,0.4407665,-0.2742725,-28.71557,-31.01953,8.414295
202.27,12.57084,23.51616,13.9606,1.202476,0.3680889,-0.1615602,-28.71557,-31.01953,8.414295
202.28,1.805754,16.97753,4.923841,1.164041,0.291253,-0.06338455,-28.71557,-31.01953,8.414295
202.29,-1.429995,10.85125,-1.182076,1.136236,0.2306557,0.002040114,-28.71557,-31.01953,8.414295
202.3,-5.101326,4.960603,-8.14282000000002,1.100962,0.1916943,0.05832359,-29.85493,-29.24683,9.197042
202.31,-7.59036400000001,3.546846,-12.72226,1.046,0.1395837,0.06916844,-29.85493,-29.24683,9.197042
202.32,-11.44837,4.253725,-14.98145,0.9762564,0.1264707,0.01732765,-29.85493,-29.24683,9.197042
202.33,-15.55529,3.370126,-16.75216,0.9308872,0.06340681,-0.06688842,-29.85493,-29.24683,9.197042
202.34,-19.78665,3.016687,-16.56899,0.929438,-0.02098216,-0.1389734,-29.85493,-29.24683,9.197042
202.35,-23.39576,3.31122,-14.24874,0.9644455,-0.1017999,-0.2220552,-29.86423,-28.529,8.74309
202.36,-26.25815,3.546846,-9.91353600000002,1.007773,-0.1874274,-0.3089864,-29.86423,-28.529,8.74309
202.37,-26.32038,2.545435,-4.54033,1.023758,-0.2733394,-0.350629,-29.86423,-28.529,8.74309
202.38,-22.58682,1.897464,-0.3272474,1.021726,-0.3211038,-0.3328826,-29.86423,-28.529,8.74309
202.39,-14.12409,-0.4587968,1.687705,0.9949036,-0.3229019,-0.2948343,-29.86423,-28.529,8.74309
202.4,-4.292389,-4.817879,1.870882,0.9890167,-0.2841142,-0.2286569,-29.83617,-29.62995,7.939201
202.41,3.548081,-7.40976500000002,0.893935900000001,0.9849879,-0.237054,-0.1590791,-29.83617,-29.62995,7.939201
202.42,11.82413,-6.93851299999998,-0.998898300000002,0.9714579,-0.2025225,-0.1286392,-29.83617,-29.62995,7.939201
202.43,21.90474,-6.34944800000001,-3.624443,0.9428592,-0.1535718,-0.1493573,-29.83617,-29.62995,7.939201
202.44,32.10979,-7.17413899999997,-5.88363100000003,0.9414644,-0.1015357,-0.1733765,-29.83617,-29.62995,7.939201
202.45,40.38584,-7.11523300000002,-8.02070100000002,0.9582818,-0.01801501,-0.2098273,-29.83617,-29.62995,7.939201
202.46,44.92834,-7.586485,-10.21883,0.9624484,0.06450933,-0.238592,-29.83617,-29.62995,7.939201
202.47,45.7995,-9.23586800000002,-12.29484,0.9688775,0.1075432,-0.2481339,-29.83617,-29.62995,7.939201
202.48,42.37707,-10.76744,-14.55403,0.9867106,0.1185049,-0.2287624,-29.83617,-29.62995,7.939201
202.49,38.08348,-11.06197,-15.53098,1.005602,0.1184056,-0.2026563,-29.83617,-29.62995,7.939201
202.5,30.30524,-11.59213,-16.44687,1.023506,0.1122488,-0.1500255,-29.83941,-30.26779,9.592678
202.51,21.0958,-10.94416,-16.44687,1.02895,0.09133571,-0.1129002,-29.83941,-30.26779,9.592678
202.52,13.06865,-10.35509,-16.50793,1.016524,0.05817562,-0.07681234,-29.83941,-30.26779,9.592678
202.53,8.96173899999999,-10.11946,-15.95839,1.003625,0.02168568,-0.03397721,-29.83941,-30.26779,9.592678
202.54,8.58838299999999,-9.35368100000002,-14.79827,0.9955362,-0.002874409,-0.01378382,-29.83941,-30.26779,9.592678
202.55,11.13965,-8.47008199999998,-13.39391,0.9864267,-0.01274309,-0.02685734,-29.12278,-29.60173,9.968046
202.56,14.8732,-8.35226899999998,-12.29484,0.9840685,-0.01581452,-0.04327669,-29.12278,-29.60173,9.968046
202.57,20.41131,-7.88101799999997,-10.82942,0.9835953,-0.01210913,-0.06112425,-29.12278,-29.60173,9.968046
202.58,24.95381,-6.76179399999997,-9.42506200000001,0.9859117,0.004231473,-0.07555962,-29.12278,-29.60173,9.968046
202.59,27.38062,-5.701477,-8.57023400000002,0.9861297,0.03372773,-0.07839093,-29.12278,-29.60173,9.968046
202.6,27.25617,-4.817879,-7.59328799999999,0.9951082,0.06888456,-0.1048324,-28.07359,-30.62221,10.81582
202.61,24.14487,-4.523346,-7.22693299999998,0.9944594,0.0895839,-0.1163707,-28.07359,-30.62221,10.81582
202.62,19.35347,-4.405533,-7.104815,0.9841505,0.103437,-0.1274661,-28.07359,-30.62221,10.81582
202.63,13.75314,-5.701477,-7.532229,0.978767,0.1096116,-0.1356701,-28.07359,-30.62221,10.81582
202.64,9.210643,-6.93851299999998,-8.14282000000002,0.9821681,0.1087054,-0.1318029,-28.07359,-30.62221,10.81582
202.65,7.28163800000001,-6.93851299999998,-8.44811599999998,0.9811953,0.1035413,-0.1134796,-29.12497,-29.89044,10.7943
202.66,7.40609000000001,-5.406944,-8.93658900000003,0.9880411,0.09267467,-0.090323,-29.12497,-29.89044,10.7943
202.67,8.65060899999999,-3.168497,-8.38705600000003,0.9934641,0.08308633,-0.08502158,-29.12497,-29.89044,10.7943
202.68,8.96173899999999,-1.93146,-8.02070100000002,0.9910773,0.07964053,-0.08937809,-29.12497,-29.89044,10.7943
202.69,9.583999,-1.75474,-7.77646500000001,0.9980555,0.06411637,-0.09952699,-29.12497,-29.89044,10.7943
202.7,9.83290199999997,-1.93146,-7.22693299999998,0.9889948,0.04752111,-0.1073068,-28.0814,-30.60882,11.63721
202.71,10.89074,-1.93146,-7.104815,0.9829438,0.01891647,-0.1078665,-28.0814,-30.60882,11.63721
202.72,12.57084,-1.224581,-6.311046,0.9887742,0.01803361,-0.1035104,-28.0814,-30.60882,11.63721
202.73,14.06427,-0.5177032,-5.27304,0.9848958,0.01703104,-0.1040051,-28.0814,-30.60882,11.63721
202.74,14.12649,0.4248009,-4.296093,0.9814176,0.0261638,-0.1078548,-28.0814,-30.60882,11.63721
202.75,12.9442,0.954959599999998,-3.319147,0.9855452,0.04905583,-0.09524869,-28.39086,-30.59962,12.0766
202.76,11.38855,2.074183,-2.097963,0.9825189,0.06158854,-0.09812485,-28.39086,-30.59962,12.0766
202.77,11.20187,2.250903,-1.182076,0.9785407,0.07592224,-0.1149935,-28.39086,-30.59962,12.0766
202.78,11.76191,1.602931,-0.998898300000002,0.9726373,0.08736358,-0.1289781,-28.39086,-30.59962,12.0766
202.79,13.75314,0.1891749,-1.487372,0.976926,0.09800003,-0.1337696,-27.72606,-30.24146,12.07715
202.8,14.99766,-0.2231707,-1.792668,0.9710357,0.1014251,-0.124609,-27.72606,-30.24146,12.07715
202.81,15.12211,-0.04645117,-1.60949,0.9714241,0.1092548,-0.1154227,-27.72606,-30.24146,12.07715
202.82,14.6243,0.1891749,-1.365253,0.9688967,0.1175281,-0.1081732,-27.72606,-30.24146,12.07715
202.83,13.75314,0.4837075,-0.998898300000002,0.9775885,0.1220086,-0.1018681,-27.72606,-30.24146,12.07715
202.84,11.01519,1.013866,-0.2051291,0.9770777,0.1239624,-0.09945244,-27.73326,-30.2291,12.83535
202.85,8.21502800000002,1.308399,0.710758400000002,0.9668868,0.1261708,-0.1139504,-27.73326,-30.2291,12.83535
202.86,5.663764,0.0713618500000003,0.832876700000002,0.9746958,0.1265971,-0.1269582,-27.73326,-30.2291,12.83535
202.87,3.921437,-0.753329299999999,0.649699199999998,0.9780601,0.1323781,-0.1327277,-27.73326,-30.2291,12.83535
202.88,2.614691,-1.578021,0.893935900000001,0.9708277,0.1246223,-0.1279375,-27.73326,-30.2291,12.83535
202.89,2.116884,-2.520525,0.832876700000002,0.9684649,0.1164075,-0.1245834,-27.73747,-30.22188,13.27764
202.9,1.183495,-2.991777,1.565587,0.9748136,0.1093252,-0.1105884,-27.73747,-30.22188,13.27764
202.91,0.747912799999997,-2.873964,2.237237,0.9869698,0.1051875,-0.09705454,-27.73747,-30.22188,13.27764
202.92,-0.932187899999997,-2.108179,2.603592,0.9865587,0.09508725,-0.08983909,-27.73747,-30.22188,13.27764
202.93,-3.04787,-1.813647,3.214184,0.9827735,0.08674271,-0.09951776,-27.73747,-30.22188,13.27764
202.94,-3.98126,-2.225992,3.397362,0.9774971,0.08271575,-0.1120863,-28.03597,-30.58242,13.28057
202.95,-4.665745,-2.697244,2.664652,0.9799659,0.0816705,-0.1226982,-28.03597,-30.58242,13.28057
202.96,-4.852423,-3.463029,2.664652,0.9833268,0.08464874,-0.1173752,-28.03597,-30.58242,13.28057
202.97,-5.599134,-3.816468,2.481474,0.9853832,0.07257044,-0.1169133,-28.03597,-30.58242,13.28057
202.98,-5.97248999999999,-3.521936,3.031007,0.9834893,0.06535351,-0.1106605,-28.03597,-30.58242,13.28057
202.99,-6.408072,-2.991777,3.51948,0.9839862,0.06297717,-0.1063214,-27.74107,-30.2157,13.65674
203,-6.59474900000003,-1.695834,4.374309,0.9927526,0.05783196,-0.09424614,-27.74107,-30.2157,13.65674
203.01,-6.345846,-0.694422800000001,4.740664,0.989414,0.05384207,-0.1043968,-27.74107,-30.2157,13.65674
203.02,-6.03471599999999,-0.3998902,4.923841,0.9880089,0.05131034,-0.1155045,-27.74107,-30.2157,13.65674
203.03,-5.288004,-0.812235800000003,4.9849,0.9953035,0.04995056,-0.1116283,-27.74107,-30.2157,13.65674
203.04,-4.230163,-1.047862,4.618545,0.9923921,0.04991027,-0.1135661,-28.04948,-29.85738,13.26891
203.05,-2.985644,-1.224581,4.862782,0.9924036,0.04799652,-0.1111574,-28.04948,-29.85738,13.26891
203.06,-3.04787,-0.753329299999999,5.107018,0.9889921,0.04752987,-0.1063417,-28.04948,-29.85738,13.26891
203.07,-3.607904,0.3069879,5.71761,0.984646,0.04317993,-0.1020193,-28.04948,-29.85738,13.26891
203.08,-5.163552,1.720744,6.45032000000002,0.9913867,0.05001222,-0.1015047,-28.04948,-29.85738,13.26891
203.09,-6.96810499999997,2.957781,6.938793,0.9855741,0.05036736,-0.1106874,-27.72966,-30.23528,12.45625
203.1,-8.64820600000002,3.31122,7.36620799999997,0.9875567,0.04838115,-0.1179248,-27.72966,-30.23528,12.45625
203.11,-9.768273,3.252314,7.30514899999999,0.9913866,0.05704747,-0.1260996,-27.72966,-30.23528,12.45625
203.12,-10.32831,3.31122,7.121971,0.9884737,0.05841948,-0.1323773,-27.72966,-30.23528,12.45625
203.13,-10.82611,3.252314,6.99985300000002,0.986546,0.05647303,-0.1319039,-27.72966,-30.23528,12.45625
203.14,-11.69728,3.31122,6.694557,0.9876032,0.04822779,-0.1348142,-28.03852,-30.22712,12.83245
203.15,-12.69289,3.016687,6.32820199999999,0.9852365,0.04096325,-0.1333883,-28.03852,-30.22712,12.83245
203.16,-14.49745,3.370126,6.08396500000001,0.989205,0.03275831,-0.1343607,-28.03852,-30.22712,12.83245
203.17,-16.23977,3.900285,6.02290600000002,0.9923331,0.0100415,-0.133919,-28.03852,-30.22712,12.83245
203.18,-17.9821,4.66607,6.32820199999999,0.9855931,0.003675585,-0.1363628,-28.03852,-30.22712,12.83245
203.19,-19.22662,4.84279,6.81667499999997,0.9862276,-0.01134825,-0.1392887,-28.09597,-30.2329,12.45277
203.2,-19.47552,5.903107,7.24408900000003,0.9935535,-0.01468749,-0.1402421,-28.09597,-30.2329,12.45277
203.21,-19.4133,6.66889099999999,7.24408900000003,0.9868335,-0.02111913,-0.1499242,-28.09597,-30.2329,12.45277
203.22,-19.35107,6.60998499999998,7.54938499999999,0.9913205,-0.02989621,-0.1610302,-28.09597,-30.2329,12.45277
203.23,-20.16001,6.78670500000001,7.671504,0.9889144,-0.03046482,-0.1682758,-28.09597,-30.2329,12.45277
203.24,-20.53336,6.96342400000002,7.73256299999998,0.9832433,-0.04605257,-0.1745971,-28.39761,-30.2371,12.07077
203.25,-21.21785,7.19905000000001,7.85468100000002,0.9726747,-0.06108917,-0.1693486,-28.39761,-30.2371,12.07077
203.26,-21.77788,7.84702199999997,8.52633199999999,0.9703172,-0.07166662,-0.1597265,-28.39761,-30.2371,12.07077
203.27,-22.52459,8.78952599999999,9.869634,0.9786762,-0.08410939,-0.1515284,-28.39761,-30.2371,12.07077
203.28,-24.01802,9.96765600000001,11.64035,1.000556,-0.08864634,-0.1370052,-28.39761,-30.2371,12.07077
203.29,-27.31599,11.44032,13.47213,1.023845,-0.08550377,-0.1306652,-28.03026,-29.89035,11.24702
203.3,-31.60958,13.50205,15.18178,1.038375,-0.08005812,-0.129651,-28.03026,-29.89035,11.24702
