Time (s),Gyroscope X (deg/s),Gyroscope Y (deg/s),Gyroscope Z (deg/s),Accelerometer X (g),Accelerometer Y (g),Accelerometer Z (g),Magnetometer X (uT),Magnetometer Y (uT),Magnetometer Z (uT)
13.220033646,-26.66793,-17.36362,0.620718400000002,-0.02066905,0.03132818,0.0861906,-17.60932,-31.92395,-32.99203
13.229894161,-26.171,-30.69362,-0.2375236,-0.01980233,-0.01640604,0.07187863,-17.60932,-31.92395,-32.99203
13.2397542,-21.45019,-43.96412,-0.973159599999999,-0.00960773,-0.0790483,0.08270545,-17.60932,-31.92395,-32.99203
13.252079487,-9.896631,-58.1272400000001,-0.1149176,0.003889972,-0.07431952,0.1438905,-17.60932,-31.92395,-32.99203
13.261940003,-4.181968,-68.42229,0.1915974,0.01127727,-0.05324667,0.1660062,-16.86664,-31.56978,-33.38375
13.271800041,-1.945794,-79.5504600000001,0.743324399999998,0.009938733,-0.01137055,0.1764419,-16.86664,-31.56978,-33.38375
13.281659603,-2.629069,-92.3448799999999,1.969384,0.0676443,0.006846701,0.2265683,-16.86664,-31.56978,-33.38375
13.291520596,-5.05159,-104.4252,2.275899,0.1114197,-0.01014093,0.2646163,-16.86664,-31.56978,-33.38375
13.301380158,-4.989474,-116.3865,3.440656,0.1476864,-0.03358921,0.284507,-16.86664,-31.56978,-33.38375
13.31124115,-3.001765,-129.895,3.992383,0.1877291,-0.009195825,0.3363749,-18.7293,-31.53662,-32.54191
13.321100712,-3.250229,-144.2367,4.421504,0.2309859,0.02737358,0.3835078,-18.7293,-31.53662,-32.54191
13.330961704,-6.91506799999999,-157.0906,4.114989,0.3234091,0.06249396,0.4471788,-18.7293,-31.53662,-32.54191
13.340821266,-14.30686,-167.3261,3.992383,0.3889942,0.06845468,0.4544408,-18.7293,-31.53662,-32.54191
13.350681305,-20.51845,-179.1684,3.440656,0.4132335,0.08946711,0.4207287,-18.7293,-31.53662,-32.54191
13.360541821,-26.60581,-194.4622,1.662869,0.4594162,0.1233484,0.3930421,-22.44773,-31.45693,-29.89803
13.370401859,-35.48839,-209.9345,-2.076613,0.5482283,0.102104,0.3575738,-22.44773,-31.45693,-29.89803
13.380262375,-38.40784,-223.086,-4.590036,0.7012362,0.03206543,0.3945755,-22.44773,-31.45693,-29.89803
13.390122414,-36.10955,-229.8105,-6.79694399999997,0.8205557,-0.06789999,0.4461808,-22.44773,-31.45693,-29.89803
13.399982929,-29.64949,-233.2025,-10.59773,0.8916427,-0.1792495,0.4308104,-22.44773,-31.45693,-29.89803
13.409842968,-12.44338,-230.4651,-11.51728,0.944568,-0.2561128,0.4413873,-28.39133,-31.69009,-25.12633
13.422168255,13.70742,-226.359,-12.069,0.9900259,-0.1610043,0.5220476,-28.39133,-31.69009,-25.12633
13.432028294,24.5777,-222.6694,-14.092,1.040893,-0.04254041,0.5894103,-28.39133,-31.69009,-25.12633
13.441888809,22.2173,-219.3369,-14.092,1.084561,0.03998707,0.5636077,-28.39133,-31.69009,-25.12633
13.451748848,12.77568,-218.3253,-12.49812,1.112013,0.0720637,0.4882527,-28.39133,-31.69009,-25.12633
13.461609364,4.576376,-219.6345,-11.02685,1.156143,0.06733026,0.4195375,-33.9508,-31.53536,-18.63196
13.471469402,-0.765591999999998,-224.3357,-8.51342899999998,1.230077,0.06103319,0.3824907,-33.9508,-31.53536,-18.63196
13.481329918,-3.37446,-231.0007,-6.91955000000002,1.315166,0.05787282,0.3769385,-33.9508,-31.53536,-18.63196
13.491189957,-2.00791,-238.7964,-7.34867099999999,1.388857,0.0689997,0.4449868,-33.9508,-31.53536,-18.63196
13.501050472,-1.324635,-242.9025,-11.02685,1.408684,0.05801771,0.4541956,-33.9508,-31.53536,-18.63196
13.510910511,0.973653600000002,-244.7473,-14.092,1.415812,0.03277033,0.4524433,-37.62438,-32.85698,-10.85189
13.520770073,4.390029,-242.4264,-15.25676,1.441502,-0.00466117,0.4019245,-37.62438,-32.85698,-10.85189
13.530631065,9.73199700000002,-239.2129,-14.64373,1.461584,-0.02964621,0.3099003,-37.62438,-32.85698,-10.85189
13.540490627,17.37226,-237.5467,-12.43682,1.48402,-0.00350727,0.2201909,-37.62438,-32.85698,-10.85189
13.55035162,21.65825,-240.2841,-9.61688199999998,1.52505,0.07210861,0.1742411,-37.62438,-32.85698,-10.85189
13.560211182,16.99956,-241.2362,-9.80079199999999,1.587395,0.1564259,0.1922737,-40.17159,-33.43744,-1.804882
13.570072174,8.48967900000002,-245.9374,-9.37167100000003,1.580498,0.1742805,0.1685627,-40.17159,-33.43744,-1.804882
13.579931736,1.781161,-251.1147,-8.636034,1.564443,0.1443811,0.148892,-40.17159,-33.43744,-1.804882
13.589791775,1.160001,-254.7448,-9.37167100000003,1.591714,0.07553053,0.1507975,-40.17159,-33.43744,-1.804882
13.602117062,6.56408599999997,-254.1497,-14.27591,1.567695,-0.02513522,0.09470312,-40.17159,-33.43744,-1.804882
13.611977577,17.62072,-251.4718,-17.83148,1.559641,-0.05163343,0.05482072,-40.47839,-34.79167,6.4059
13.621837616,29.54697,-246.592,-19.67057,1.548334,-0.012826,0.04907979,-40.47839,-34.79167,6.4059
13.631698131,36.75242,-240.1056,-19.60927,1.492054,0.06207383,0.04188845,-40.47839,-34.79167,6.4059
13.64155817,35.51011,-235.9995,-19.67057,1.480396,0.1056635,0.0146289,-40.47839,-34.79167,6.4059
13.651418686,29.98178,-235.7614,-19.91578,1.455258,0.1129296,-0.0644986,-40.47839,-34.79167,6.4059
13.661278725,25.7579,-232.4884,-18.99624,1.490911,0.1317821,-0.05238846,-39.28953,-35.78968,14.98927
13.671138763,21.28556,-227.0731,-18.75103,1.476592,0.1639769,0.002236858,-39.28953,-35.78968,14.98927
13.680999279,15.94359,-220.4081,-17.34106,1.451199,0.1555995,0.03415524,-39.28953,-35.78968,14.98927
13.690859318,11.03643,-213.386,-15.86979,1.431093,0.1296672,0.04380694,-39.28953,-35.78968,14.98927
13.700719833,6.56408599999997,-204.7572,-14.95024,1.405234,0.08028106,0.04136271,-39.28953,-35.78968,14.98927
13.710579872,6.129274,-196.426,-15.44067,1.361556,0.03312087,0.02577365,-36.61696,-36.45462,22.28086
13.720440388,8.42756399999998,-187.3806,-16.54412,1.331798,0.01042185,0.01210941,-36.61696,-36.45462,22.28086
13.730300426,11.71971,-177.8592,-16.48282,1.309489,0.01906581,0.0340643,-36.61696,-36.45462,22.28086
13.740160465,15.1982,-166.7906,-15.99239,1.275604,0.03204694,0.07203435,-36.61696,-36.45462,22.28086
13.750020981,18.05553,-155.1268,-15.13415,1.259784,0.03687837,0.1000942,-36.61696,-36.45462,22.28086
13.75988102,18.92515,-143.4631,-14.39852,1.248605,0.04851666,0.1156861,-33.95835,-36.77458,27.90433
13.769741535,19.54631,-131.0852,-12.98855,1.232453,0.06643557,0.1309227,-33.95835,-36.77458,27.90433
13.782066822,18.42822,-114.7797,-10.41382,1.185366,0.1278537,0.1402586,-33.95835,-36.77458,27.90433
13.791926384,14.14223,-102.3424,-8.206914,1.17154,0.1530835,0.1531277,-33.95835,-36.77458,27.90433
13.801787376,8.80025999999999,-88.2387599999999,-6.73564099999998,1.153369,0.1592497,0.1534387,-33.95835,-36.77458,27.90433
13.811646938,4.390029,-73.4210400000001,-5.386975,1.141104,0.1392494,0.1692583,-32.05687,-37.10462,32.18736
13.821507931,2.09174,-60.0315200000002,-5.203066,1.092135,0.09450816,0.1623907,-32.05687,-37.10462,32.18736
13.831367493,3.271943,-45.80889,-5.509581,1.069522,0.06170139,0.1614777,-32.05687,-37.10462,32.18736
13.841227531,6.75043299999998,-30.75313,-5.87739899999999,1.033001,0.04726593,0.1613972,-32.05687,-37.10462,32.18736
13.851088047,10.16681,-15.51884,-6.61303499999999,1.005727,0.06254584,0.1480181,-32.05687,-37.10462,32.18736
13.860948086,11.16066,-1.296208,-6.73564099999998,0.9955934,0.08384135,0.1411542,-29.80408,-36.73831,33.90038
13.870808601,10.41527,12.15281,-5.87739899999999,0.9727766,0.1011286,0.133479,-29.80408,-36.73831,33.90038
13.88066864,7.185245,23.81656,-4.160915,0.9498767,0.1281567,0.128283,-29.80408,-36.73831,33.90038
13.890529156,0.3524944,34.52817,-2.873553,0.9385303,0.1493768,0.1041847,-29.80408,-36.73831,33.90038
13.900389194,-6.72872000000001,45.3588,-2.260523,0.9287104,0.119498,0.07532049,-29.80408,-36.73831,33.90038
13.910249233,-11.01472,56.24893,-1.647493,0.924779,0.07649427,0.03619844,-28.67566,-37.48132,34.35022
13.920109749,-12.19492,66.2464300000002,-1.402281,0.929606,0.05490193,-0.02347331,-28.67566,-37.48132,34.35022
13.929969788,-11.26318,74.9942500000001,-1.647493,0.9278286,0.02160116,-0.07548256,-28.67566,-37.48132,34.35022
13.939830303,-8.46796500000002,82.6113900000001,-2.383129,0.9380555,-0.007614552,-0.1046268,-28.67566,-37.48132,34.35022
13.949690342,-3.622924,89.8714799999998,-2.137917,0.9501545,-0.023655,-0.1284154,-28.67566,-37.48132,34.35022
13.962015629,1.097885,96.83402,-0.911856500000002,0.9444322,0.007799571,-0.1616124,-29.8073,-36.74455,33.45228
13.971876144,1.594813,100.7021,0.4981124,0.949836,0.04859443,-0.1958475,-29.8073,-36.74455,33.45228
13.981736183,-0.951939799999999,103.499,1.049839,0.9634551,0.07527556,-0.2499659,-29.8073,-36.74455,33.45228
13.991596699,-3.99562,105.5818,1.417657,0.9746544,0.08498974,-0.2811916,-29.8073,-36.74455,33.45228
14.001456738,-6.977184,106.2959,1.417657,0.9787704,0.07664711,-0.3095934,-29.8073,-36.74455,33.45228
14.011316776,-8.654313,106.415,1.540263,1.001213,0.06559996,-0.3239033,-30.57316,-36.77155,30.89559
14.021177292,-9.08912500000002,106.534,2.459808,1.000092,0.05725082,-0.3416882,-30.57316,-36.77155,30.89559
14.031037331,-9.64816799999999,105.4628,3.256747,0.9956096,0.05133044,-0.3526958,-30.57316,-36.77155,30.89559
14.040897846,-11.76011,103.5585,3.808474,1.004211,0.05086192,-0.3681567,-30.57316,-36.77155,30.89559
14.050757408,-13.74782,101.5947,4.360201,1.008695,0.04506544,-0.3673112,-30.57316,-36.77155,30.89559
14.060618401,-15.79764,99.2143900000002,4.911928,0.9958276,0.06151018,-0.3636346,-31.34346,-37.17918,27.44648
14.070477963,-18.59286,96.7745100000001,4.482807,1.02827,0.06951699,-0.3812806,-31.34346,-37.17918,27.44648
14.080338955,-17.28843,95.9413899999999,4.54411,1.052196,0.03505273,-0.4149772,-31.34346,-37.17918,27.44648
14.090198517,-10.76625,94.87023,4.850626,1.034041,0.04317644,-0.4117747,-31.34346,-37.17918,27.44648
14.100058556,-4.492547,90.6450999999999,4.605413,1.005429,0.07507995,-0.4010345,-31.34346,-37.17918,27.44648
14.109919071,-1.945794,83.8610800000002,3.624565,0.9786628,0.08611062,-0.3809127,-33.60144,-38.2996,24.46073
14.11977911,-0.579244300000001,77.4341100000002,3.501959,0.9654164,0.1020942,-0.3695674,-33.60144,-38.2996,24.46073
14.132104397,-1.759447,68.2102299999999,3.992383,0.9678006,0.1089334,-0.3681061,-33.60144,-38.2996,24.46073
14.141964912,-3.436576,61.4262100000002,4.728019,0.972082,0.09882024,-0.3500429,-33.60144,-38.2996,24.46073
14.151824951,-4.181968,55.23728,5.95407899999997,0.9629328,0.07352676,-0.3256868,-33.60144,-38.2996,24.46073
14.161685467,-4.057736,49.82197,6.93492700000001,0.9486946,0.05496893,-0.3098269,-34.37057,-37.21682,22.27681
14.171545506,-3.436576,44.76371,7.118836,0.9455029,0.04035815,-0.3055919,-34.37057,-37.21682,22.27681
14.181405544,-1.821563,40.00299,7.67056300000001,0.9462438,0.0345755,-0.2922337,-34.37057,-37.21682,22.27681
14.19126606,0.04191487,35.65884,8.22229000000003,0.9429648,0.03556309,-0.2806778,-34.37057,-37.21682,22.27681
14.201126099,1.843277,31.79076,8.467502,0.9199596,0.04072614,-0.276952,-34.37057,-37.21682,22.27681
14.210986614,1.905392,26.97054,8.83531999999998,0.9150882,0.04068867,-0.2754453,-35.13367,-37.23848,20.10421
14.220846653,1.594813,22.98344,8.95792600000003,0.9082796,0.06212141,-0.2536034,-35.13367,-37.23848,20.10421
14.230707169,-1.014056,19.11536,8.83531999999998,0.8834463,0.0834153,-0.2262346,-35.13367,-37.23848,20.10421
14.240567207,-5.36217,15.30678,9.08053200000002,0.8780265,0.08349176,-0.1930919,-35.13367,-37.23848,20.10421
14.250427723,-9.33758799999999,11.91478,9.08053200000002,0.8861194,0.06654896,-0.1885583,-35.13367,-37.23848,20.10421
14.260287762,-10.64202,9.35589100000001,9.81616800000001,0.8768043,0.07329598,-0.1840557,-35.88589,-36.86704,19.72021
14.270147801,-12.00857,7.09455200000001,10.24529,0.8568249,0.08290491,-0.1697931,-35.88589,-36.86704,19.72021
14.280008316,-14.80379,5.487811,10.61311,0.8454653,0.09156247,-0.1700373,-35.88589,-36.86704,19.72021
14.289868355,-17.72324,4.714194,10.73571,0.8499125,0.08722015,-0.1706166,-35.88589,-36.86704,19.72021
14.29972887,-20.14576,4.119105,10.4292,0.8493776,0.06523255,-0.1933169,-35.88589,-36.86704,19.72021
14.312054157,-19.58672,3.881069,10.4905,0.8541026,0.05009326,-0.2189096,-35.51337,-37.24574,19.27396
14.321913719,-17.90959,4.178614,11.16483,0.8615041,0.05896451,-0.206481,-35.51337,-37.24574,19.27396
14.331774712,-16.17034,4.654685,11.28744,0.8544931,0.04141655,-0.1979036,-35.51337,-37.24574,19.27396
14.341634274,-14.0584,5.130757,11.41005,0.84859,0.04037874,-0.2011826,-35.51337,-37.24574,19.27396
14.351495266,-12.38127,5.309284,10.61311,0.8358625,0.06258689,-0.2180649,-35.89836,-35.77507,18.81271
14.361355782,-12.1328,4.892721,9.87747100000001,0.8366944,0.05620685,-0.2344234,-35.89836,-35.77507,18.81271
14.371214867,-10.45567,5.011739,9.38704699999999,0.8386795,0.04500306,-0.2422135,-35.89836,-35.77507,18.81271
14.381075382,-8.28161699999999,5.428301,9.14183399999998,0.8241839,0.03711281,-0.2358439,-35.89836,-35.77507,18.81271
14.390935421,-5.36217,6.02339100000001,8.03838099999998,0.8213407,0.04150704,-0.2252239,-35.89836,-35.77507,18.81271
14.400795937,-2.380606,6.43995299999998,6.44450299999999,0.8287409,0.05379548,-0.2098912,-36.27205,-36.88678,17.99377
14.410655975,0.04191487,6.61847999999998,4.605413,0.8362581,0.05293516,-0.1975465,-36.27205,-36.88678,17.99377
14.420516491,2.215972,6.61847999999998,2.888929,0.8391145,0.06172682,-0.1955962,-36.27205,-36.88678,17.99377
14.43037653,3.209827,6.67798900000002,1.233748,0.8448456,0.06955074,-0.1989662,-36.27205,-36.88678,17.99377
14.440237045,4.327913,7.451605,-0.3601296,0.8623928,0.07310617,-0.2006239,-36.27205,-36.88678,17.99377
14.450097084,4.576376,7.33258699999997,-1.157069,0.8585243,0.07650192,-0.1943105,-36.27205,-36.88678,17.99377
14.459957123,3.582522,6.02339100000001,-2.505734,0.8574995,0.05464497,-0.1810628,-36.27928,-36.15672,17.53814
14.469817639,4.141565,5.96388199999997,-3.977006,0.8705316,0.03092383,-0.1790527,-36.27928,-36.15672,17.53814
14.482142925,7.74428800000002,6.49946299999999,-5.325672,0.8767122,0.01739399,-0.1682334,-36.27928,-36.15672,17.53814
14.492002964,9.85623000000002,6.02339100000001,-6.91955000000002,0.8943358,-0.001975452,-0.1844617,-36.27928,-36.15672,17.53814
14.50186348,12.34087,5.90437299999999,-8.88124700000001,0.9270374,-0.0163531,-0.2027794,-35.90475,-36.90357,17.09565
14.511723518,16.81321,5.606828,-9.49427599999999,0.9571289,0.002888471,-0.2035251,-35.90475,-36.90357,17.09565
14.521584034,19.04939,4.95223,-9.80079199999999,0.9899955,0.03285131,-0.2066159,-35.90475,-36.90357,17.09565
14.531444073,18.24188,3.643033,-10.35252,1.005551,0.05590837,-0.1937046,-35.90475,-36.90357,17.09565
14.541304112,15.01185,1.262676,-11.45597,1.000492,0.06118798,-0.2012551,-35.90475,-36.90357,17.09565
14.551164627,12.52721,-0.820136700000001,-13.29506,0.9777018,0.04493044,-0.2005884,-36.27326,-37.26117,17.54945
14.561024666,11.59548,-3.200494,-15.62458,0.9648013,0.02244276,-0.1977191,-36.27326,-37.26117,17.54945
14.570885181,13.33472,-5.580852,-17.03454,0.9713886,0.005964334,-0.195556,-36.27326,-37.26117,17.54945
14.58074522,17.37226,-6.77103000000002,-17.27976,0.9950551,0.007201663,-0.1810277,-36.27326,-37.26117,17.54945
14.590605736,20.10535,-9.21089600000002,-16.36021,0.9904259,0.03346229,-0.1745105,-36.27326,-37.26117,17.54945
14.600465298,19.42208,-11.71027,-15.62458,1.008829,0.04626762,-0.1770607,-35.15408,-36.90596,17.53988
14.61032629,18.36611,-14.20965,-14.21461,1.010841,0.05300097,-0.2029094,-35.15408,-36.90596,17.53988
14.620185852,16.99956,-17.48264,-11.63988,1.039552,0.0776247,-0.1925684,-35.15408,-36.90596,17.53988
14.630045891,15.81936,-20.04152,-8.75863999999999,1.037924,0.101001,-0.1837223,-35.15408,-36.90596,17.53988
14.639906406,13.02414,-24.02862,-5.87739899999999,1.007149,0.1168519,-0.1663779,-35.15408,-36.90596,17.53988
14.649766445,9.918345,-28.13474,-3.977006,0.9828318,0.11277,-0.159357,-34.02691,-36.90733,18.36627
14.662091732,6.99889700000002,-32.83595,-2.076613,0.9478869,0.09691371,-0.1527632,-34.02691,-36.90733,18.36627
14.671952248,6.81255000000002,-34.97826,-1.708796,0.9478657,0.08274909,-0.1667792,-34.02691,-36.90733,18.36627
14.681812286,8.80025999999999,-33.43103,-0.973159599999999,0.9779526,0.07331909,-0.1572244,-34.02691,-36.90733,18.36627
14.691672802,11.71971,-29.44393,0.007688423,0.9794127,0.08162984,-0.1504663,-34.02691,-36.90733,18.36627
14.701532841,13.33472,-26.05193,0.3142034,0.9639801,0.07081336,-0.1436288,-33.27343,-38.02041,18.37372
14.711393356,15.07397,-22.48139,-0.2375236,0.9653537,0.04798807,-0.1347362,-33.27343,-38.02041,18.37372
14.721253395,18.55246,-18.67282,0.007688423,0.976276,0.02615889,-0.1422641,-33.27343,-38.02041,18.37372
14.731113434,23.21115,-15.04277,0.5594154,0.992819,0.02530423,-0.1496951,-33.27343,-38.02041,18.37372
14.740973949,27.3108,-12.78143,0.4368094,0.991765,0.0311327,-0.1501101,-33.27343,-38.02041,18.37372
14.750833988,29.98178,-10.63911,-0.05361458,0.9933955,0.056933,-0.1513532,-32.88527,-38.36882,20.10393
14.760694504,30.47871,-8.615807,-1.095766,1.016855,0.0975225,-0.1532618,-32.88527,-38.36882,20.10393
14.770554542,28.92582,-4.628708,-2.076613,1.046796,0.1162329,-0.1655106,-32.88527,-38.36882,20.10393
14.780415058,27.86984,0.667586600000001,-1.954008,1.010789,0.134873,-0.1705905,-32.88527,-38.36882,20.10393
14.790275097,25.94425,3.762051,-1.954008,0.9687592,0.1340236,-0.1680818,-32.88527,-38.36882,20.10393
14.800135612,23.14903,6.26142599999997,-2.260523,0.9499283,0.118302,-0.1636333,-31.76609,-38.01362,20.09436
14.809995651,23.14903,6.67798900000002,-3.118764,0.9641789,0.09794039,-0.1769467,-31.76609,-38.01362,20.09436
14.81985569,25.7579,8.04669499999999,-3.057462,0.9688928,0.0717039,-0.1772353,-31.76609,-38.01362,20.09436
14.829716206,27.12445,8.998837,-2.321826,0.9780749,0.07614817,-0.1816414,-31.76609,-38.01362,20.09436
14.842041492,28.11831,9.35589100000001,-3.057462,0.9709929,0.09625616,-0.2527715,-31.76609,-38.01362,20.09436
14.851901531,23.08692,2.869417,-6.18391400000002,0.9221236,0.1096728,-0.4522671,-31.76086,-38.37553,20.54623
14.861762047,25.7579,2.214819,-4.590036,1.116104,0.1627794,-0.2442151,-31.76086,-38.37553,20.54623
14.871621609,13.2726,5.130757,0.3142034,1.134475,0.03862411,-0.04665696,-31.76086,-38.37553,20.54623
14.881482601,11.2849,5.190266,-3.8544,1.070436,-0.01967664,-0.1300962,-31.76086,-38.37553,20.54623
14.891342163,30.4166,5.547319,-6.61303499999999,1.111073,-0.008566374,-0.1181224,-31.76086,-38.37553,20.54623
14.901203155,35.01318,11.61723,-5.509581,1.12459,0.08307229,0.02094697,-31.76287,-38.00738,20.54246
14.911062717,25.82002,15.12826,-7.226065,1.062446,0.1265405,-0.04920121,-31.76287,-38.00738,20.54246
14.920922756,29.23639,11.02214,-12.0077,1.056978,0.1033337,-0.2553749,-31.76287,-38.00738,20.54246
14.930783272,36.13126,3.82156,-12.55943,1.195491,0.131786,-0.2619009,-31.76287,-38.00738,20.54246
14.940643311,29.17428,-1.653262,-12.68203,1.279137,0.3041107,-0.1830501,-31.76287,-38.00738,20.54246
14.950503826,12.21663,-1.950806,-13.04985,1.264665,0.3407083,0.007707255,-31.76086,-38.37553,20.54623
14.960363865,-4.057736,2.750399,-9.24906400000001,1.092528,0.2176836,0.04841674,-31.76086,-38.37553,20.54623
14.97022438,-10.26933,3.643033,-5.509581,0.9897077,0.1091202,0.0187764,-31.76086,-38.37553,20.54623
14.980084419,-8.03315400000002,3.345489,-2.444432,1.00699,0.0883239,0.01212499,-31.76086,-38.37553,20.54623
14.989944935,-6.41814000000001,2.809908,-1.095766,1.067215,0.08154909,0.009771858,-31.76086,-38.37553,20.54623
14.999804974,-6.35602500000002,3.404998,0.8659304,1.115142,0.09536979,-0.05117371,-31.01662,-38.3904,20.09427
15.01213026,-4.492547,3.583524,3.808474,1.111371,0.05534123,-0.07589695,-31.01662,-38.3904,20.09427
15.021990776,3.706754,5.547319,3.747171,1.114388,-0.006479117,-0.08844166,-31.01662,-38.3904,20.09427
15.031850815,15.38455,7.451605,1.356354,1.101609,-0.03541427,-0.1182141,-31.01662,-38.3904,20.09427
15.041710854,27.6835,7.98718600000001,-0.05361458,1.095785,-0.02275919,-0.1036483,-31.01662,-38.3904,20.09427
15.051571369,37.93262,10.54607,-2.873553,1.12182,0.02667708,-0.08826777,-30.64164,-39.13635,19.7158
15.061431408,43.64729,14.41415,-4.344824,1.128552,0.05843921,-0.06892769,-30.64164,-39.13635,19.7158
15.071291924,43.64729,16.25893,-4.099612,1.103857,0.08829031,-0.09563817,-30.64164,-39.13635,19.7158
15.081151962,40.47938,16.61598,-2.62834,1.095953,0.09649885,-0.09401864,-30.64164,-39.13635,19.7158
15.091012478,37.68416,16.735,-1.708796,1.134225,0.1057929,-0.04177374,-30.64164,-39.13635,19.7158
15.100872517,31.65891,17.98469,-1.279675,1.131441,0.1201038,0.01780744,-31.00859,-39.86299,20.10935
15.110733032,22.96269,17.98469,-0.2988266,1.115616,0.1560453,0.03702509,-31.00859,-39.86299,20.10935
15.120593071,11.78182,16.735,1.417657,1.11447,0.1569653,0.0255484,-31.00859,-39.86299,20.10935
15.13045311,2.09174,13.81906,3.072838,1.117429,0.142351,0.01436132,-31.00859,-39.86299,20.10935
15.140313625,-3.063881,11.85527,3.440656,1.11166,0.1135226,-0.003530139,-31.00859,-39.86299,20.10935
15.150173664,-3.312345,10.07,3.195444,1.068105,0.08725612,-0.02757022,-31.01537,-39.13204,19.71773
15.16003418,0.1040308,8.82031100000003,2.275899,1.046091,0.04081461,-0.03244039,-31.01537,-39.13204,19.71773
15.169893742,5.694463,7.09455200000001,1.172445,1.03975,0.02611674,-0.04397485,-31.01537,-39.13204,19.71773
15.179754734,11.16066,5.666337,0.682021400000003,1.024086,0.02597528,-0.04471119,-31.01537,-39.13204,19.71773
15.192080021,16.50263,3.28598,0.3755064,0.9978393,0.0305368,-0.06394579,-31.01537,-39.13204,19.71773
15.201939583,18.80092,1.203167,0.2529004,0.9863065,0.06257983,-0.05632301,-31.39111,-38.75957,19.71589
15.211800575,18.80092,-1.058172,0.1302944,0.9656002,0.08725166,-0.04623569,-31.39111,-38.75957,19.71589
15.221660137,16.44052,-2.843441,0.5594154,0.9563752,0.1187888,-0.04919245,-31.39111,-38.75957,19.71589
15.231520176,11.71971,-4.5692,0.5594154,0.9614012,0.1475405,-0.04997984,-31.39111,-38.75957,19.71589
15.241380692,6.874665,-5.87839600000002,0.1302944,0.9606662,0.1484426,-0.06721292,-31.39111,-38.75957,19.71589
15.25124073,3.45829,-6.94955700000003,-0.1149176,0.9445043,0.1380415,-0.07761274,-31.38713,-38.37984,20.5443
15.261101246,0.3524944,-8.55629800000001,-1.034463,0.946462,0.1302475,-0.08441521,-31.38713,-38.37984,20.5443
15.270961285,-2.256374,-9.80598499999999,-1.892705,0.9554991,0.1211153,-0.0755163,-31.38713,-38.37984,20.5443
15.2808218,-3.436576,-11.35322,-2.260523,0.9330217,0.09992939,-0.09214672,-31.38713,-38.37984,20.5443
15.290681839,-4.119852,-12.84094,-2.505734,0.9508754,0.0864843,-0.08628505,-31.38713,-38.37984,20.5443
15.300542355,-3.871388,-14.38817,-3.118764,0.9651486,0.07247607,-0.09235709,-31.0114,-38.75231,20.54614
15.310402393,-2.566953,-15.10228,-3.670491,0.994924,0.04698097,-0.08389183,-31.0114,-38.75231,20.54614
15.320262432,-1.138287,-15.81639,-4.590036,1.000271,0.05092466,-0.08297636,-31.0114,-38.75231,20.54614
15.330122948,-2.31849,-16.82804,-5.570884,0.9839118,0.06536696,-0.08597571,-31.0114,-38.75231,20.54614
15.339982987,-6.48025699999999,-18.79183,-6.06130799999997,0.9857051,0.1000018,-0.06749941,-31.0114,-38.75231,20.54614
15.349843502,-14.80379,-20.04152,-6.30652000000001,0.9833187,0.1263613,-0.03992856,-31.38713,-38.37984,20.5443
15.359703541,-25.30138,-21.70777,-6.61303499999999,0.9573261,0.173824,-0.03867835,-31.38713,-38.37984,20.5443
15.372028828,-37.78667,-24.38568,-7.47127699999998,0.982097,0.1419065,-0.04409276,-31.38713,-38.37984,20.5443
15.381889343,-45.92386,-25.27831,-7.10345900000001,0.9967051,0.1293233,-0.06022073,-31.38713,-38.37984,20.5443
15.391749382,-51.82487,-26.88505,-7.59388300000003,0.9732341,0.1363064,-0.08905844,-31.38713,-38.37984,20.5443
15.401609898,-55.80029,-29.8605,-8.14561100000001,0.9708611,0.1027531,-0.0773278,-30.63365,-39.49292,20.55175
15.411469936,-53.56412,-30.93166,-9.24906400000001,0.9668077,0.0826613,-0.1052332,-30.63365,-39.49292,20.55175
15.421329498,-49.27812,-31.82429,-9.18776100000002,0.9704857,0.06505267,-0.1380198,-30.63365,-39.49292,20.55175
15.431190491,-43.93615,-32.77644,-8.51342899999998,0.9893263,0.04367183,-0.1744087,-30.63365,-39.49292,20.55175
15.441050053,-36.91705,-32.65742,-7.59388300000003,1.015928,0.04102936,-0.1633094,-30.63365,-39.49292,20.55175
15.450911045,-29.33891,-32.95496,-7.961701,1.001601,0.06611622,-0.1873326,-30.26314,-39.50347,20.10172
15.460770607,-24.36964,-33.31202,-7.961701,0.9787648,0.1053682,-0.1770919,-30.26314,-39.50347,20.10172
15.4706316,-24.24541,-34.08563,-7.04215600000001,0.9541777,0.1383146,-0.1572954,-30.26314,-39.50347,20.10172
15.480491161,-25.73619,-35.2163,-5.386975,0.9566737,0.128586,-0.1622051,-30.26314,-39.50347,20.10172
15.490352154,-26.60581,-35.45434,-4.283521,0.9821158,0.1307654,-0.1601533,-30.26314,-39.50347,20.10172
15.500211716,-26.41947,-35.2163,-4.406127,0.9944444,0.1327196,-0.1871477,-29.13869,-40.62621,19.72315
15.510071755,-26.04677,-35.27581,-4.528733,0.9687412,0.1343715,-0.204977,-29.13869,-40.62621,19.72315
15.51993227,-26.41947,-35.63286,-3.915704,0.9612956,0.1396464,-0.2081808,-29.13869,-40.62621,19.72315
15.529792309,-26.85428,-35.09728,-2.383129,0.9729954,0.1314388,-0.21848,-29.13869,-40.62621,19.72315
15.542117596,-26.04677,-34.91875,-1.402281,0.9715807,0.114353,-0.2296256,-29.13869,-40.62621,19.72315
15.551978111,-23.74848,-35.63286,-0.789250600000002,0.9660174,0.1012064,-0.2186357,-28.38124,-41.35955,20.55901
15.56183815,-20.82903,-36.70403,-0.2375236,0.9491128,0.1089283,-0.1958072,-28.38124,-41.35955,20.55901
15.571698666,-18.77921,-38.31076,-0.850553500000001,0.9464778,0.1562107,-0.1680562,-28.38124,-41.35955,20.55901
15.581558704,-19.46248,-38.48929,-1.463584,0.9642976,0.1883789,-0.1963115,-28.38124,-41.35955,20.55901
15.59141922,-21.82289,-38.37027,-1.034463,0.9510464,0.1744441,-0.2475146,-28.38124,-41.35955,20.55901
15.601279259,-25.11503,-39.56045,0.743324399999998,0.9444339,0.1441807,-0.2567805,-28.00429,-41.35763,21.00518
15.611139774,-25.42561,-40.69112,2.153293,0.9537606,0.05896772,-0.2935725,-28.00429,-41.35763,21.00518
15.620999813,-19.02767,-40.15554,3.379353,0.9638428,0.02056956,-0.3055411,-28.00429,-41.35763,21.00518
15.630859852,-11.38741,-40.15554,2.950232,0.9649973,0.00793456,-0.3037474,-28.00429,-41.35763,21.00518
15.640720367,-5.300054,-40.92916,2.337202,0.9672154,0.04743763,-0.2857153,-28.00429,-41.35763,21.00518
15.650580406,-3.125997,-41.10769,2.275899,0.9691423,0.09222808,-0.2844063,-26.50657,-42.48558,20.56067
15.660440922,-3.622924,-40.75063,2.459808,0.9793932,0.1131714,-0.3035436,-26.50657,-42.48558,20.56067
15.67030096,-5.79698099999998,-40.69112,3.256747,0.9832795,0.1384509,-0.3191993,-26.50657,-42.48558,20.56067
15.680161476,-6.79083600000002,-39.26291,3.440656,0.9838518,0.128091,-0.35811,-26.50657,-42.48558,20.56067
15.690021515,-6.85295199999998,-38.31076,4.298898,0.9768065,0.1007687,-0.3606362,-26.50657,-42.48558,20.56067
15.69988203,-5.610633,-37.71568,4.850626,0.9711581,0.1046859,-0.3408754,-26.11841,-42.83399,22.29088
15.709742069,-4.554663,-36.76353,4.482807,0.9679593,0.1368076,-0.3319331,-26.11841,-42.83399,22.29088
15.722067356,-6.85295199999998,-35.45434,4.911928,0.9527879,0.1643652,-0.3439435,-26.11841,-42.83399,22.29088
15.731927872,-10.70414,-34.50219,5.524958,0.9337103,0.1534554,-0.3533477,-26.11841,-42.83399,22.29088
15.74178791,-11.94646,-34.26416,5.89277599999998,0.9351017,0.1120826,-0.3594671,-26.11841,-42.83399,22.29088
15.751647472,-9.58605199999997,-34.14514,5.586261,0.9364153,0.09705184,-0.3481119,-25.36973,-42.46824,22.73134
15.761508465,-4.989474,-33.78809,4.176292,0.9436823,0.1029554,-0.3481656,-25.36973,-42.46824,22.73134
15.771368027,-0.579244300000001,-33.8476,2.766323,0.938547,0.1091895,-0.360499,-25.36973,-42.46824,22.73134
15.781229019,3.582522,-35.15679,1.785475,0.9438147,0.1038344,-0.3735577,-25.36973,-42.46824,22.73134
15.791088581,5.259652,-35.2163,2.766323,0.9511554,0.107453,-0.3343374,-25.36973,-42.46824,22.73134
15.800949573,9.85623000000002,-33.72858,0.988536299999999,0.9509253,0.1059227,-0.3525566,-24.99279,-42.46631,23.1775
15.810809135,13.14837,-34.62121,1.049839,0.9517681,0.09808105,-0.3694068,-24.99279,-42.46631,23.1775
15.820670128,15.13608,-35.39483,0.8659304,0.9807988,0.09740827,-0.3578462,-24.99279,-42.46631,23.1775
15.83052969,17.5586,-35.03777,0.5594154,0.9866418,0.0974525,-0.3598459,-24.99279,-42.46631,23.1775
15.840389729,18.61457,-36.04943,0.4368094,0.9749051,0.08953794,-0.3664543,-24.99279,-42.46631,23.1775
15.850250244,19.91901,-36.94206,0.1915974,0.9663333,0.07048576,-0.3660137,-24.23734,-42.83151,24.00959
15.860110283,21.40979,-38.19175,0.4981124,0.9795337,0.071577,-0.3657134,-24.23734,-42.83151,24.00959
15.869970798,22.52788,-39.26291,1.111142,0.9834462,0.06282331,-0.3735102,-24.23734,-42.83151,24.00959
15.879830837,22.90057,-41.04818,1.908081,0.9765628,0.06031159,-0.3782253,-24.23734,-42.83151,24.00959
15.889691353,22.71422,-43.07148,3.011535,0.9752598,0.06571602,-0.3613892,-24.23734,-42.83151,24.00959
15.90201664,22.34153,-44.44019,4.482807,0.9694279,0.07676899,-0.3846935,-23.10779,-40.96809,26.54549
15.911876678,20.78863,-46.04693,5.279747,0.9492291,0.07459792,-0.3968831,-23.10779,-40.96809,26.54549
15.921737194,21.22344,-47.77269,5.708868,0.9386387,0.05746371,-0.3992728,-23.10779,-40.96809,26.54549
15.931597233,23.70808,-49.61746,5.89277599999998,0.9423588,0.04683739,-0.3869563,-23.10779,-40.96809,26.54549
15.941457748,27.18657,-50.80764,6.07668500000002,0.9276121,0.02764629,-0.4089513,-23.10779,-40.96809,26.54549
15.951317787,31.84526,-52.41438,8.03838099999998,0.9586068,0.01039322,-0.4114554,-22.34991,-40.58452,28.26624
15.961177826,37.31147,-51.58126,13.49435,1.097556,0.0389699,-0.3858802,-22.34991,-40.58452,28.26624
15.971038342,36.25549,-53.24751,19.01162,1.113787,0.2236352,-0.3605932,-22.34991,-40.58452,28.26624
15.98089838,30.35448,-51.93831,18.09207,1.147169,0.1811344,-0.3537604,-22.34991,-40.58452,28.26624
15.990758896,32.96335,-55.09229,17.66295,1.149088,0.1234476,-0.2996459,-22.34991,-40.58452,28.26624
16.000618935,39.73399,-57.8892100000002,17.41774,1.18483,0.08484977,-0.295689,-21.2171,-39.83088,30.42937
16.01047945,45.51077,-62.0548299999998,16.6821,1.215336,0.04233987,-0.2845026,-21.2171,-39.83088,30.42937
16.020339489,52.34352,-67.1725999999998,13.55565,1.214351,-0.02561694,-0.2371421,-21.2171,-39.83088,30.42937
16.030200005,61.3503200000001,-70.86215,10.18399,1.161178,-0.08547527,-0.2426398,-21.2171,-39.83088,30.42937
16.040060043,69.0527000000001,-76.6345199999997,8.34489499999999,1.095691,-0.1469307,-0.2556427,-21.2171,-39.83088,30.42937
16.049920559,75.2021699999998,-80.9191599999997,7.118836,1.058503,-0.1407806,-0.214808,-20.08152,-39.07189,32.97659
16.059780598,77.6246900000002,-84.90626,4.911928,1.037537,-0.1365531,-0.2058479,-20.08152,-39.07189,32.97659
16.072105885,79.9229800000001,-87.4651500000001,2.214596,1.061851,-0.169089,-0.2452842,-20.08152,-39.07189,32.97659
16.081965446,84.45744,-90.4405900000001,1.908081,1.094767,-0.2020935,-0.3001814,-20.08152,-39.07189,32.97659
16.091826439,92.5946300000002,-94.60622,2.275899,1.095223,-0.1862574,-0.3604334,-20.08152,-39.07189,32.97659
16.101686001,100.2349,-103.473,1.540263,1.112189,-0.1069747,-0.4098428,-18.94711,-35.71093,37.28979
16.111546993,100.6076,-110.138,2.582414,1.186334,0.06583229,-0.3097678,-18.94711,-35.71093,37.28979
16.121406555,94.27176,-110.9712,1.172445,1.121025,0.2056073,-0.38385,-18.94711,-35.71093,37.28979
16.131267071,82.7803100000002,-116.803,1.540263,1.062892,0.2907197,-0.5179166,-18.94711,-35.71093,37.28979
16.14112711,60.9155099999999,-133.1085,3.440656,1.169066,0.3024068,-0.5068721,-18.94711,-35.71093,37.28979
16.150987625,35.32376,-134.1797,7.24144199999999,1.26508,0.3361403,-0.4322423,-15.19707,-32.38107,41.52547
16.160847664,13.21049,-132.6324,9.01922900000002,1.225971,0.2838311,-0.4043328,-15.19707,-32.38107,41.52547
16.17070818,-4.244083,-131.6803,10.06138,1.097842,0.1827555,-0.4536756,-15.19707,-32.38107,41.52547
16.180568218,-11.13895,-131.0852,9.14183399999998,1.042352,0.1169185,-0.4908179,-15.19707,-32.38107,41.52547
16.190428257,-5.548518,-116.7435,8.77401600000001,1.051738,0.1153443,-0.4138139,-15.19707,-32.38107,41.52547
16.200288773,7.24736100000001,-91.4522499999998,7.36404799999998,1.148972,0.1684665,-0.2326556,-9.965313,-28.35,44.4656
16.210148811,13.58318,-60.8051399999997,1.908081,1.090641,0.267215,0.02538087,-9.965313,-28.35,44.4656
16.220009327,4.576376,-33.72858,-3.425279,0.9192114,0.1548627,0.05562795,-9.965313,-28.35,44.4656
16.229869366,-0.765591999999998,-11.05567,-3.180068,0.8074061,-0.00872918,0.03619366,-9.965313,-28.35,44.4656
16.239729881,6.99889700000002,12.27183,-2.934855,0.6767799,-0.03373006,-0.09345623,-9.965313,-28.35,44.4656
16.252055168,20.78863,36.78951,-5.81609599999999,0.6059237,0.05579769,-0.1880099,-5.099222,-26.90323,46.60187
16.261915207,24.88828,59.5814299999997,-7.10345900000001,0.604821,0.1024882,-0.1919129,-5.099222,-26.90323,46.60187
16.271775723,25.13674,84.6942100000002,-8.32951900000003,0.6098393,0.1434434,-0.182534,-5.099222,-26.90323,46.60187
16.281635761,23.89443,106.5935,-12.069,0.5882947,0.1479941,-0.2157325,-5.099222,-26.90323,46.60187
16.291496277,22.71422,124.8032,-17.15715,0.6057395,0.1184561,-0.2181472,-5.099222,-26.90323,46.60187
16.301356316,22.40364,139.978,-23.41006,0.6238955,0.09262118,-0.2727736,-3.981632,-25.06297,47.47342
16.311216354,23.77019,157.4736,-30.15339,0.7051079,0.07053093,-0.2563871,-3.981632,-25.06297,47.47342
16.32107687,25.94425,174.6717,-36.89672,0.714788,0.04178264,-0.2893532,-3.981632,-25.06297,47.47342
16.330936909,23.95654,184.0741,-43.82396,0.7182857,0.01804596,-0.2689978,-3.981632,-25.06297,47.47342
16.340797424,20.97498,200.3796,-48.7282,0.761911,-0.02157806,-0.2977476,-3.981632,-25.06297,47.47342
16.350657463,16.81321,213.6501,-52.40637,0.8004373,-0.04874574,-0.3665723,-7.352055,-22.06112,48.74091
16.360517979,14.63916,224.0046,-56.02325,0.8671637,-0.07362336,-0.410382,-7.352055,-22.06112,48.74091
16.370378018,15.07397,233.7046,-58.5979800000002,0.9316667,-0.102365,-0.4412542,-7.352055,-22.06112,48.74091
16.380238533,16.56475,240.2506,-61.7857300000002,0.9555844,-0.09986171,-0.4789515,-7.352055,-22.06112,48.74091
16.390098572,15.63301,244.5352,-64.7282800000003,1.019199,-0.1082159,-0.5211399,-7.352055,-22.06112,48.74091
16.399959087,14.32858,249.1769,-65.9543400000002,1.092146,-0.1076891,-0.5528439,-13.35297,-19.80099,47.46892
16.409819126,12.34087,251.4382,-67.1190899999999,1.123272,-0.1118578,-0.5700947,-13.35297,-19.80099,47.46892
16.419678688,9.42141799999999,251.6168,-67.1804000000001,1.139353,-0.09903871,-0.5635068,-13.35297,-19.80099,47.46892
16.432003975,0.663074000000001,250.5456,-66.1995499999999,1.148556,-0.05845951,-0.5345436,-13.35297,-19.80099,47.46892
16.441864491,-10.76625,250.3671,-64.6669799999999,1.177189,-0.05533992,-0.5488222,-23.47377,-18.25463,44.43333
16.451724529,-21.38808,249.4744,-61.7244299999998,1.224128,-0.0769007,-0.5697995,-23.47377,-18.25463,44.43333
16.461585045,-27.28909,249.534,-57.3106100000001,1.241974,-0.1045067,-0.5769956,-23.47377,-18.25463,44.43333
16.471445084,-28.40718,245.9039,-54.00025,1.25397,-0.149735,-0.5981539,-23.47377,-18.25463,44.43333
16.481305599,-25.92254,240.6671,-51.54813,1.262471,-0.1642555,-0.5974392,-23.47377,-18.25463,44.43333
16.491165638,-23.12732,233.6451,-49.27992,1.252943,-0.1983098,-0.5726724,-35.10983,-18.59054,37.19941
16.501026154,-19.33825,226.5635,-45.47913,1.23758,-0.2446118,-0.5560722,-35.10983,-18.59054,37.19941
16.510886192,-15.85976,218.9464,-40.6975,1.21172,-0.2340814,-0.5417179,-35.10983,-18.59054,37.19941
16.520746708,-15.54918,210.7341,-34.5059,1.209996,-0.2091327,-0.5026677,-35.10983,-18.59054,37.19941
16.530606747,-17.9717,202.6409,-27.08824,1.212338,-0.1860588,-0.4541072,-35.10983,-18.59054,37.19941
16.540466786,-22.44405,193.6551,-19.79318,1.192783,-0.1505882,-0.421902,-35.10983,-18.59054,37.19941
16.550327301,-28.28294,181.9913,-14.21461,1.167181,-0.1244959,-0.4107745,-44.51554,-20.83585,26.90008
16.56018734,-35.5505,170.2681,-9.98470000000001,1.110857,-0.09585508,-0.4260228,-44.51554,-20.83585,26.90008
16.570047855,-42.19691,156.462,-7.65518600000002,1.01586,-0.08674005,-0.4959927,-44.51554,-20.83585,26.90008
16.579907894,-44.68154,142.8939,-7.34867099999999,0.933561,-0.09726531,-0.5131181,-44.51554,-20.83585,26.90008
16.58976841,-40.70612,127.3621,-8.51342899999998,0.8353544,-0.1093311,-0.5142162,-44.51554,-20.83585,26.90008
16.602093697,-29.96007,100.5831,-12.43682,0.7396438,-0.1317489,-0.5566484,-50.56327,-22.01468,16.63608
16.611953735,-21.69866,74.8157199999999,-12.13031,0.7233817,-0.1656134,-0.5950385,-50.56327,-22.01468,16.63608
16.621814251,-13.37512,46.66799,-8.51342899999998,0.686413,-0.1539475,-0.6408955,-50.56327,-22.01468,16.63608
16.63167429,-10.20721,16.79451,-2.383129,0.6673775,-0.120687,-0.680117,-50.56327,-22.01468,16.63608
16.641534805,-10.14509,-11.35322,3.501959,0.682057,-0.06077439,-0.6989886,-53.96682,-23.16937,10.26339
16.651394844,-7.97103800000001,-40.5126,8.34489499999999,0.65363,-0.09668167,-0.7343472,-53.96682,-23.16937,10.26339
16.66125536,-3.560808,-65.56586,11.41005,0.733919,-0.03554845,-0.7124532,-53.96682,-23.16937,10.26339
16.671115398,-0.2686647,-84.8467599999998,9.44834999999999,0.7857993,0.04973458,-0.6717409,-53.96682,-23.16937,10.26339
16.68097496,4.452145,-99.3074299999999,10.30659,0.929198,-0.01917672,-0.4414754,-53.96682,-23.16937,10.26339
16.690835953,23.3975,-93.9516199999997,23.48674,2.260901,0.2181305,2.207334,-54.70223,-25.36962,10.28988
16.700695515,44.4548,-3.795583,6.01538200000003,2.345936,0.02374322,1.168452,-54.70223,-25.36962,10.28988
16.710556507,45.32442,-49.2009,-36.22238,1.01489,-0.1830701,0.02984837,-54.70223,-25.36962,10.28988
16.720416069,52.96468,-67.4701499999999,-18.81233,0.8956129,0.4361787,-0.7816982,-54.70223,-25.36962,10.28988
16.730277061,1.097885,-101.3902,0.927233400000001,0.8583664,0.7041368,-0.4789271,-54.70223,-25.36962,10.28988
16.740136623,-57.4774200000001,-106.2105,3.563262,1.236898,0.3560353,0.1376162,-55.79627,-25.30411,14.07249
16.749997616,-58.8439700000001,-101.1522,-2.873553,1.252659,0.2605122,0.06135109,-55.79627,-25.30411,14.07249
16.759857178,-71.8883099999997,-116.803,-9.80079199999999,1.114486,0.01679616,-0.2401529,-55.79627,-25.30411,14.07249
16.769717216,-70.5838800000003,-119.4809,-8.206914,0.9932854,-0.1327482,-0.2545427,-55.79627,-25.30411,14.07249
16.782043457,-72.2610100000001,-110.019,-3.24137,0.9737468,-0.1012613,-0.1169474,-55.79627,-25.30411,14.07249
16.791903019,-65.2419099999998,-99.6644699999998,-4.896551,0.9672379,-0.1584827,-0.1781959,-55.40493,-24.53025,17.07166
16.801763058,-46.11021,-88.5958199999998,-9.739489,0.9402416,-0.1281238,-0.1938477,-55.40493,-24.53025,17.07166
16.811623573,-26.73005,-82.3473699999998,-12.68203,0.9579726,-0.07506992,-0.1026048,-55.40493,-24.53025,17.07166
16.821483612,-13.06454,-77.76519,-15.56327,1.027309,-0.0328569,-0.03950324,-55.40493,-24.53025,17.07166
16.831344128,-0.827707900000002,-75.32533,-19.85448,1.026832,0.008859461,-0.07364675,-55.40493,-24.53025,17.07166
16.841204166,12.40298,-72.4093900000002,-21.38706,0.9971545,0.08976999,-0.09793849,-53.50542,-25.60817,20.53006
16.851064682,22.34153,-67.2916200000002,-19.42536,0.9942855,0.148921,-0.1486727,-53.50542,-25.60817,20.53006
16.860924721,24.9504,-63.8400999999999,-18.1993,1.003802,0.1593193,-0.1233231,-53.50542,-25.60817,20.53006
16.870785236,23.45961,-62.1738500000002,-16.36021,1.049019,0.1126906,-0.07739948,-53.50542,-25.60817,20.53006
16.880645275,21.34767,-60.5671099999998,-14.45982,1.050707,0.1298544,-0.04613073,-53.50542,-25.60817,20.53006
16.890505791,14.88762,-60.2100499999999,-12.43682,1.000697,0.2205435,-0.01015024,-53.09358,-27.39887,24.45183
16.900365829,3.955218,-59.3769300000002,-9.80079199999999,0.9503703,0.3043072,-0.003454853,-53.09358,-27.39887,24.45183
16.910225868,-10.89049,-59.3769300000002,-8.57473199999998,0.9348225,0.2817404,-0.01540369,-53.09358,-27.39887,24.45183
16.920086384,-22.31981,-58.4247900000001,-7.04215600000001,0.9429355,0.2136748,-0.01848976,-53.09358,-27.39887,24.45183
16.929946423,-28.22083,-58.18675,-6.67433799999998,0.9671012,0.1607261,-0.05090819,-53.09358,-27.39887,24.45183
16.939806938,-29.89796,-56.81804,-6.490429,0.9722985,0.129963,-0.09149463,-51.2113,-27.02201,26.61487
16.952132225,-25.73619,-54.85425,-6.55173199999999,0.9852155,0.1070504,-0.1330833,-51.2113,-27.02201,26.61487
16.961992264,-17.22631,-53.12849,-7.90039899999997,1.010667,0.01234571,-0.1438293,-51.2113,-27.02201,26.61487
16.971852779,-5.237938,-52.05733,-8.26821599999997,1.003325,0.02155584,-0.1359797,-51.2113,-27.02201,26.61487
16.981712818,5.259652,-49.61746,-7.77779200000001,0.9802164,0.1216233,-0.128097,-51.2113,-27.02201,26.61487
16.991573334,2.278088,-48.07023,-6.85824700000003,0.969794,0.1885946,-0.1518225,-50.44263,-28.10569,28.73477
17.001433372,-0.641360199999998,-47.8322,-8.32951900000003,0.9568451,0.08287671,-0.1539677,-50.44263,-28.10569,28.73477
17.011293888,1.222117,-48.84385,-7.59388300000003,0.9888335,0.0462428,-0.1365232,-50.44263,-28.10569,28.73477
17.021153927,7.68217200000001,-47.11809,-7.65518600000002,0.9881654,0.07011054,-0.1286451,-50.44263,-28.10569,28.73477
17.031014442,10.04258,-47.29662,-8.39082200000002,0.9676028,0.1199408,-0.1576418,-50.44263,-28.10569,28.73477
17.040874481,8.92449099999999,-47.1776,-8.32951900000003,0.950828,0.1435408,-0.1830803,-48.93006,-28.46081,30.90729
17.050734043,6.56408599999997,-47.05858,-6.79694399999997,0.9741912,0.1246744,-0.2084909,-48.93006,-28.46081,30.90729
17.060595036,5.197536,-46.04693,-5.509581,0.9625521,0.1167876,-0.2079124,-48.93006,-28.46081,30.90729
17.070454597,4.265797,-46.99907,-5.87739899999999,0.9606916,0.1032626,-0.1768521,-48.93006,-28.46081,30.90729
17.08031559,4.700608,-47.53465,-5.632187,0.9616381,0.1081444,-0.1749075,-48.93006,-28.46081,30.90729
17.090175152,5.13542,-47.23711,-5.632187,0.965859,0.1475428,-0.1894904,-47.79524,-28.07532,33.07419
17.100036144,3.893102,-48.12974,-5.754793,0.9501148,0.1547018,-0.1896848,-47.79524,-28.07532,33.07419
17.109895706,4.327913,-48.42728,-5.69349,0.9656563,0.1426027,-0.2086972,-47.79524,-28.07532,33.07419
17.119756222,6.68831799999999,-48.07023,-6.18391400000002,0.9635875,0.1152127,-0.2410052,-47.79524,-28.07532,33.07419
17.132081509,11.09855,-48.66532,-6.490429,0.9535859,0.08639377,-0.2463771,-47.79524,-28.07532,33.07419
17.141941547,14.018,-48.96286,-6.98085300000002,0.948469,0.1092329,-0.242757,-47.02858,-28.79085,35.19032
17.151802063,15.69513,-48.5463,-7.65518600000002,0.9391752,0.1339152,-0.2567922,-47.02858,-28.79085,35.19032
17.161662102,16.0057,-48.24876,-8.39082200000002,0.9399262,0.1299532,-0.2769627,-47.02858,-28.79085,35.19032
17.171522617,16.56475,-48.66532,-8.45212599999999,0.9403414,0.1240777,-0.2875606,-47.02858,-28.79085,35.19032
17.181382656,17.74495,-48.72483,-8.697337,0.9536877,0.1139814,-0.2863984,-47.02858,-28.79085,35.19032
17.191242695,19.29785,-48.48679,-8.88124700000001,0.9529037,0.1300045,-0.2939192,-44.76655,-29.52275,37.36274
17.20110321,19.04939,-48.84385,-8.206914,0.9551672,0.1519443,-0.288016,-44.76655,-29.52275,37.36274
17.210963249,17.80707,-48.42728,-8.32951900000003,0.9393078,0.1813937,-0.3129389,-44.76655,-29.52275,37.36274
17.220823765,15.88147,-47.77269,-7.90039899999997,0.9371059,0.165195,-0.3451506,-44.76655,-29.52275,37.36274
17.230683804,14.32858,-47.29662,-7.65518600000002,0.9386741,0.1413136,-0.3587921,-44.76655,-29.52275,37.36274
17.240544319,14.51492,-46.76104,-7.53257999999997,0.9466873,0.1233716,-0.3609746,-43.63575,-28.40096,39.52211
17.250404358,17.06167,-45.92791,-7.83909500000001,0.9564244,0.0811044,-0.3657828,-43.63575,-28.40096,39.52211
17.260264874,20.2917,-45.98742,-7.83909500000001,0.9712511,0.07981279,-0.3559418,-43.63575,-28.40096,39.52211
17.270124912,22.52788,-46.76104,-7.47127699999998,0.9734012,0.1173435,-0.3446342,-43.63575,-28.40096,39.52211
17.279985428,22.27941,-46.99907,-7.28736799999999,0.9739133,0.1494422,-0.3506002,-43.63575,-28.40096,39.52211
17.289845467,20.91286,-48.84385,-6.67433799999998,0.9672384,0.1551546,-0.3686664,-42.13162,-28.40041,40.79466
17.302170754,20.91286,-51.22421,-6.18391400000002,0.9732575,0.129373,-0.3804705,-42.13162,-28.40041,40.79466
17.312031269,24.32924,-54.02113,-6.36782300000001,0.9787897,0.1012818,-0.3582641,-42.13162,-28.40041,40.79466
17.321891308,30.4166,-55.74688,-7.40997399999998,0.9869128,0.07848894,-0.3566554,-42.13162,-28.40041,40.79466
17.331751824,39.36129,-57.65117,-9.06515500000003,0.9914408,0.1019986,-0.3268112,-42.13162,-28.40041,40.79466
17.341611862,48.05752,-60.98367,-11.39467,0.9913789,0.07366375,-0.3562806,-40.61709,-28.00765,43.79181
17.351471901,56.31894,-65.9824200000002,-12.19161,1.003539,0.03824684,-0.3567528,-40.61709,-28.00765,43.79181
17.361332417,63.3380299999998,-71.2787199999999,-13.84679,1.034293,0.04791281,-0.317336,-40.61709,-28.00765,43.79181
17.371191979,69.98444,-75.97992,-15.56327,1.042892,0.05804935,-0.3595425,-40.61709,-28.00765,43.79181
17.381052971,73.9598500000001,-80.2050599999998,-15.80848,1.055062,0.006876845,-0.4090262,-40.61709,-28.00765,43.79181
17.390912533,82.0349299999999,-82.8234500000002,-8.02300500000002,1.230103,-0.0261261,-0.4098827,-38.3571,-27.25538,46.78133
17.400773525,82.1591599999997,-91.51175,-2.321826,1.23887,0.1220915,-0.3541281,-38.3571,-27.25538,46.78133
17.410633087,78.0595100000001,-92.8804599999999,-4.651339,1.252272,0.1182228,-0.3792701,-38.3571,-27.25538,46.78133
17.42049408,76.0096799999998,-96.5105099999999,-5.386975,1.269148,0.1091632,-0.3695239,-38.3571,-27.25538,46.78133
17.430353642,76.0096799999998,-99.9620199999999,-5.264369,1.312039,0.1193992,-0.3365049,-38.3571,-27.25538,46.78133
17.440214634,77.18988,-100.9142,-7.28736799999999,1.320581,0.09317301,-0.3430775,-35.34647,-25.38948,51.03595
17.450074196,80.9168400000001,-102.5209,-9.18776100000002,1.318651,0.05033445,-0.3429323,-35.34647,-25.38948,51.03595
17.459934235,86.7557400000003,-102.3424,-13.35637,1.2911,0.003801018,-0.3592252,-35.34647,-25.38948,51.03595
17.46979475,95.6383100000001,-100.7951,-15.44067,1.308719,-0.06886916,-0.3150449,-35.34647,-25.38948,51.03595
17.479654789,106.5086,-97.7006799999998,-15.56327,1.286121,-0.08200728,-0.2616425,-35.34647,-25.38948,51.03595
17.491980076,120.2362,-95.2608199999997,-14.52112,1.235796,-0.0664598,-0.2790036,-31.60563,-22.07744,53.99134
17.501840592,127.3174,-92.9399600000001,-11.82379,1.195629,0.01199182,-0.2854362,-31.60563,-22.07744,53.99134
17.51170063,129.1188,-89.5479599999999,-9.86209499999999,1.095278,0.1073479,-0.3133908,-31.60563,-22.07744,53.99134
17.521561146,125.4539,-90.0835399999999,-9.49427599999999,0.9695389,0.183805,-0.3900214,-31.60563,-22.07744,53.99134
17.531421185,118.6833,-86.0369299999997,-10.22991,0.9437487,0.2230256,-0.3811764,-31.60563,-22.07744,53.99134
17.5412817,110.2355,-83.8351000000001,-13.41767,0.845415,0.2626231,-0.4896566,-27.86955,-18.4026,56.55888
17.551141739,106.0117,-79.9670200000002,-18.38321,0.779594,0.2877892,-0.6303492,-27.86955,-18.4026,56.55888
17.561002254,101.2909,-78.3602799999999,-23.83918,0.7795307,0.305077,-0.6915399,-27.86955,-18.4026,56.55888
17.570862293,90.2963400000002,-79.9670200000002,-28.13039,0.8089481,0.278233,-0.7822752,-27.86955,-18.4026,56.55888
17.580722809,74.5810199999999,-84.1326399999999,-25.37175,0.8174116,0.2306376,-0.7775263,-27.86955,-18.4026,56.55888
17.590582847,61.72302,-80.9786700000002,-22.12269,0.823602,0.1415706,-0.7965758,-24.89984,-13.63962,57.3266
17.600442886,65.5742000000002,-68.8388500000001,-25.00393,0.7666295,0.2020841,-0.6160325,-24.89984,-13.63962,57.3266
17.610303402,74.2704299999999,-51.81929,-35.11893,0.7469723,0.2582714,-0.2501281,-24.89984,-13.63962,57.3266
17.620163441,70.6056000000001,-25.93291,-41.43314,0.7330447,0.1909493,-0.003230894,-24.89984,-13.63962,57.3266
17.630023956,57.6854899999998,-6.23544999999998,-51.42553,0.6125813,0.1673072,0.07543759,-24.89984,-13.63962,57.3266
17.639883995,46.56674,15.66384,-59.0884000000001,0.5719526,-0.02732159,0.04610134,-21.92803,-11.47685,56.45634
17.649744511,49.05137,33.09996,-62.3987600000002,0.5111138,-0.1734016,-0.09514902,-21.92803,-11.47685,56.45634
17.662069797,69.2390399999997,54.93974,-65.9543400000002,0.5615717,-0.1383233,-0.2029128,-21.92803,-11.47685,56.45634
17.671929836,77.50047,73.9230900000003,-69.6325199999999,0.5815899,-0.04140504,-0.2282569,-21.92803,-11.47685,56.45634
17.681790352,70.29501,89.0978599999997,-76.4984599999999,0.6049526,-0.004749022,-0.2407397,-21.92803,-11.47685,56.45634
17.691650391,58.4308799999998,100.3451,-81.9544199999999,0.6885229,-0.1100591,-0.2322772,-21.58074,-10.04421,53.87877
17.701510906,56.38105,117.2456,-85.6326000000002,0.738429,-0.2348186,-0.2699813,-21.58074,-10.04421,53.87877
17.711370945,59.9837799999997,129.2069,-88.6364500000001,0.7420853,-0.3433263,-0.2766996,-21.58074,-10.04421,53.87877
17.721231461,64.6424700000001,137.4786,-90.7820500000001,0.7507857,-0.3630252,-0.2300283,-21.58074,-10.04421,53.87877
17.731091499,64.6424700000001,152.5939,-89.6172900000001,0.7750924,-0.3877517,-0.2631689,-21.58074,-10.04421,53.87877
17.740952015,58.4308799999998,162.2939,-86.7360500000001,0.7841317,-0.4394942,-0.327468,-25.36973,-9.729125,46.98082
17.750812054,52.84044,170.5656,-80.85097,0.8571047,-0.5246175,-0.3608536,-25.36973,-9.729125,46.98082
17.760671616,51.47389,177.5281,-72.6976700000002,0.9400717,-0.6286349,-0.3954995,-25.36973,-9.729125,46.98082
17.770532608,56.25682,182.4079,-63.0731000000003,0.9894741,-0.7203386,-0.4410639,-25.36973,-9.729125,46.98082
17.78039217,63.0895700000001,185.0858,-53.38722,1.040153,-0.7404497,-0.473583,-25.36973,-9.729125,46.98082
17.790253162,65.5742000000002,186.633,-43.14962,1.037818,-0.727881,-0.4902157,-30.29832,-9.436725,37.52812
17.800112724,62.4684099999999,186.395,-32.78941,1.042381,-0.7167023,-0.5045624,-30.29832,-9.436725,37.52812
17.80997324,58.4308799999998,184.7882,-22.42921,1.055883,-0.702125,-0.5420094,-30.29832,-9.436725,37.52812
17.819833279,53.71007,183.122,-11.82379,1.065461,-0.6475508,-0.5450397,-30.29832,-9.436725,37.52812
17.829693794,44.01999,180.6821,-2.015311,1.068528,-0.5812234,-0.5128965,-30.29832,-9.436725,37.52812
17.842019081,24.5777,176.695,10.30659,1.059038,-0.504845,-0.4958238,-35.59669,-7.644254,29.72663
17.85187912,5.81869499999997,172.5294,20.11507,1.06822,-0.4800307,-0.5182677,-35.59669,-7.644254,29.72663
17.861739635,-12.31915,167.9472,30.65919,1.083712,-0.4857968,-0.5353091,-35.59669,-7.644254,29.72663
17.871599674,-26.66793,163.4245,41.38721,1.084834,-0.4637771,-0.5054289,-35.59669,-7.644254,29.72663
17.88146019,-40.45766,158.0092,49.84703,1.078866,-0.4252869,-0.478663,-35.59669,-7.644254,29.72663
17.891320229,-53.81258,152.4749,56.71296,1.077464,-0.3824525,-0.4720519,-40.50165,-7.678127,23.28634
17.901180744,-64.4343999999998,146.1074,61.8624100000003,1.057125,-0.3701519,-0.5176614,-40.50165,-7.678127,23.28634
17.911040783,-73.0685200000002,138.4903,66.6440399999999,1.040798,-0.3644885,-0.5260065,-40.50165,-7.678127,23.28634
17.920900822,-78.9695300000001,131.4682,70.8739499999997,1.034942,-0.3386604,-0.5022243,-40.50165,-7.678127,23.28634
17.930761337,-85.5538200000003,123.613,73.5712799999998,1.03456,-0.3158228,-0.5101725,-40.50165,-7.678127,23.28634
17.940621376,-92.2002200000002,114.9247,76.4525200000003,1.024659,-0.2998314,-0.5046253,-44.67236,-7.002156,15.55438
17.950481892,-97.8527699999999,106.1174,78.7207300000002,0.9895072,-0.2927999,-0.4930433,-44.67236,-7.002156,15.55438
17.96034193,-102.3872,97.0125499999997,80.1920100000001,0.9568166,-0.2798839,-0.4752172,-44.67236,-7.002156,15.55438
17.970202446,-106.3626,87.7291600000001,81.5406699999997,0.9551002,-0.2462802,-0.4638875,-44.67236,-7.002156,15.55438
17.980062485,-109.7169,78.2672299999999,81.6019700000002,0.9450338,-0.2191067,-0.4606396,-44.67236,-7.002156,15.55438
17.989923,-113.2575,69.1028600000001,80.8663399999999,0.9400946,-0.1991463,-0.4465039,-45.47064,-5.60379,9.589877
17.999783039,-116.177,59.75996,80.4372199999998,0.9144706,-0.1794074,-0.4426177,-45.47064,-5.60379,9.589877
18.012108326,-117.8541,48.33424,78.9046400000001,0.8997955,-0.1507318,-0.4172482,-45.47064,-5.60379,9.589877
18.021968842,-117.6056,39.76496,76.3912199999998,0.8962016,-0.1210287,-0.4035287,-45.47064,-5.60379,9.589877
18.03182888,-117.6056,31.85027,73.5712799999998,0.9017543,-0.08884428,-0.3985443,-45.47064,-5.60379,9.589877
18.041689396,-117.9783,25.48281,69.7704900000001,0.8739035,-0.05845875,-0.4050789,-45.12624,-4.238749,6.564842
18.051549435,-119.1585,15.66384,66.1536199999999,0.8285222,-0.0638468,-0.4370631,-45.12624,-4.238749,6.564842
18.06140995,-119.1585,5.130757,63.5788900000001,0.8430142,-0.09621005,-0.4073532,-45.12624,-4.238749,6.564842
18.071269989,-116.5497,-2.129333,60.7589599999998,0.8594026,-0.07291533,-0.3331143,-45.12624,-4.238749,6.564842
18.081129551,-114.0029,-7.54464599999999,57.5712099999997,0.8502648,-0.02168915,-0.2764854,-45.12624,-4.238749,6.564842
18.090990543,-114.1893,-12.36487,53.77042,0.8520344,0.02758574,-0.2468636,-44.02551,-2.803162,4.815592
18.100850105,-116.9845,-17.00657,49.234,0.8197765,0.04572538,-0.2644603,-44.02551,-2.803162,4.815592
18.110711098,-120.5872,-22.89795,44.69757,0.8313215,0.04346762,-0.2449968,-44.02551,-2.803162,4.815592
18.12057066,-122.8855,-25.27831,40.34506,0.8509389,0.06283114,-0.1885674,-44.02551,-2.803162,4.815592
18.130431652,-125.4322,-24.5642,36.05385,0.8790729,0.1036723,-0.1344742,-44.02551,-2.803162,4.815592
18.140291214,-127.979,-19.68447,30.35267,0.8833599,0.2133942,-0.08233495,-42.91038,-0.5956426,5.619353
18.150152206,-135.5571,-15.8759,22.38328,0.8540914,0.3060036,-0.102221,-42.91038,-0.5956426,5.619353
18.160011768,-149.968,-25.69487,14.41389,0.6038518,0.122342,-0.6043223,-42.91038,-0.5956426,5.619353
18.169872761,-122.7612,-47.95121,13.61695,0.9072434,0.02808579,-0.5030596,-42.91038,-0.5956426,5.619353
18.179732323,-99.4056600000002,-36.58501,-3.670491,0.9633619,0.07191411,-0.3673968,-42.91038,-0.5956426,5.619353
18.19205761,-88.7838399999999,-50.33157,-11.02685,0.7724138,-0.09313034,-0.8462261,-42.53025,0.5285392,7.334483
18.201918125,-55.55183,-61.9358100000001,-19.54797,0.9929374,-0.3253662,-0.880081,-42.53025,0.5285392,7.334483
18.211778164,-26.41947,-57.3536300000003,-27.94648,1.102662,-0.2109804,-0.4824648,-42.53025,0.5285392,7.334483
18.22163868,-13.18878,-46.93956,-47.99256,1.08884,0.07208679,-0.09891529,-42.53025,0.5285392,7.334483
18.231498718,-6.79083600000002,-31.40773,-66.87389,1.014448,0.1592988,-0.02428068,-42.53025,0.5285392,7.334483
18.241358757,-3.68504,-18.61331,-74.0463299999998,0.9749519,0.05521003,-0.17794,-41.38861,-0.9329448,9.072143
18.251219273,-15.30072,-18.43478,-78.1536300000002,1.027618,-0.126478,-0.3503398,-41.38861,-0.9329448,9.072143
18.261079311,-21.01538,-17.18509,-80.72836,1.127514,-0.2454813,-0.268908,-41.38861,-0.9329448,9.072143
18.270939827,-10.45567,-8.02071800000003,-80.2992399999999,1.209574,-0.3689637,-0.1719254,-41.38861,-0.9329448,9.072143
18.280799866,4.452145,-0.4035742,-83.6709100000001,1.094544,-0.4083543,-0.282751,-41.38861,-0.9329448,9.072143
18.290660381,4.390029,1.322185,-85.5099900000002,1.05768,-0.4346049,-0.3183871,-41.37857,-2.773683,9.090996
18.30052042,1.532697,6.02339100000001,-70.6133700000001,1.097593,-0.448195,-0.2735467,-41.37857,-2.773683,9.090996
18.310380936,-4.554663,7.451605,-54.30677,1.120242,-0.2057109,-0.1572944,-41.37857,-2.773683,9.090996
18.320240975,-21.57442,13.04545,-50.50598,1.079267,0.0148024,-0.1697046,-41.37857,-2.773683,9.090996
18.33010149,-41.45152,15.00924,-50.38337,1.008359,0.1174975,-0.2564792,-41.37857,-2.773683,9.090996
18.339961529,-59.3408999999998,16.735,-48.05386,1.009615,0.1205147,-0.2334701,-40.61337,-6.034286,9.12044
18.349822044,-69.4036800000001,19.88897,-47.50213,1.033169,0.03948009,-0.2277808,-40.61337,-6.034286,9.12044
18.359682083,-64.8071000000002,20.36504,-49.58644,1.098482,-0.1034935,-0.2280015,-40.61337,-6.034286,9.12044
18.37200737,-37.97302,27.20857,-52.40637,1.212969,-0.297931,-0.1833543,-40.61337,-6.034286,9.12044
18.381867886,-14.8659,28.99384,-52.71289,1.128566,-0.2905864,-0.2314469,-40.60731,-8.254754,8.310884
18.391727924,-2.132142,29.88647,-51.48683,1.128616,-0.1925738,-0.1774293,-40.60731,-8.254754,8.310884
18.40158844,-3.250229,29.82697,-51.67074,1.098099,-0.09245636,-0.1387718,-40.60731,-8.254754,8.310884
18.411448479,-11.94646,28.7558,-50.8738,1.031965,-0.0517037,-0.1451525,-40.60731,-8.254754,8.310884
18.421308518,-22.50616,27.44661,-47.99256,0.9794397,-0.03819588,-0.1821467,-40.60731,-8.254754,8.310884
18.431169033,-31.57509,27.14906,-45.05001,0.9611911,-0.0183813,-0.1754898,-40.60731,-8.254754,8.310884
18.441029072,-35.86108,28.27973,-41.55574,0.9681085,-0.01927748,-0.1712831,-40.23798,-9.755715,6.595662
18.450889588,-35.11569,29.35089,-40.02317,0.9659558,0.01043114,-0.1595009,-40.23798,-9.755715,6.595662
18.460749626,-28.59352,31.96929,-37.63235,1.019867,-0.001757547,-0.1632474,-40.23798,-9.755715,6.595662
18.470610142,-17.599,37.92018,-36.71281,1.021605,-0.02070819,-0.1600777,-40.23798,-9.755715,6.595662
18.480470181,-8.71642900000001,37.56313,-36.22238,0.9940048,-0.06579117,-0.1787536,-40.23798,-9.755715,6.595662
18.490330696,0.1040308,37.20607,-35.91587,0.9830899,-0.07813574,-0.2007453,-40.23237,-11.97708,5.722093
18.500190258,7.55793999999999,36.0159,-34.93502,0.9799878,-0.1018621,-0.1620862,-40.23237,-11.97708,5.722093
18.510051251,14.45281,36.67049,-34.5059,0.9616504,-0.1102548,-0.1508741,-40.23237,-11.97708,5.722093
18.519910812,18.05553,33.27848,-34.5672,0.9528686,-0.1044674,-0.1439913,-40.23237,-11.97708,5.722093
18.529771805,19.29785,28.69629,-32.85072,0.9594581,-0.07225764,-0.1347086,-40.23237,-11.97708,5.722093
18.542097092,17.18591,24.11411,-32.66681,0.9739507,-0.01847492,-0.1009173,-39.85659,-13.46556,4.903064
18.551956654,14.45281,21.49571,-31.86987,0.9818705,0.001149923,-0.07690459,-39.85659,-13.46556,4.903064
18.561817646,11.84394,19.53192,-30.82772,0.9971245,0.02816214,-0.04670447,-39.85659,-13.46556,4.903064
18.571677208,12.03029,18.69879,-29.96948,0.9790813,0.002006864,-0.1012968,-39.85659,-13.46556,4.903064
18.581537247,14.018,15.4258,-28.00778,0.9752754,-0.02240848,-0.1148662,-39.48127,-14.95494,4.020021
18.591397762,17.86918,13.99759,-26.65911,0.9909765,0.002643167,-0.08948095,-39.48127,-14.95494,4.020021
18.601257801,20.16747,12.80741,-25.18784,1.000191,0.02857859,-0.07262142,-39.48127,-14.95494,4.020021
18.611118317,20.22959,11.61723,-24.63612,0.9886072,0.05279551,-0.07560634,-39.48127,-14.95494,4.020021
18.620978355,20.54017,12.15281,-23.53266,0.9914629,0.06109874,-0.07413938,-39.48127,-14.95494,4.020021
18.630838871,21.34767,10.78411,-22.61312,0.9745559,0.04476162,-0.1085386,-39.47601,-16.43288,3.651021
18.64069891,21.90672,10.84361,-21.87748,0.9964221,0.07127883,-0.09616732,-39.47601,-16.43288,3.651021
18.650559425,21.34767,11.73625,-22.06139,0.9935092,0.1111586,-0.09531004,-39.47601,-16.43288,3.651021
18.660419464,20.04324,12.27183,-22.00009,0.9757674,0.1124299,-0.103672,-39.47601,-16.43288,3.651021
18.67027998,17.5586,12.56937,-20.71272,0.9826571,0.09736728,-0.1139605,-39.47601,-16.43288,3.651021
18.680140018,15.88147,12.21232,-18.56712,0.9810342,0.05057541,-0.1306251,-39.47601,-16.43288,3.651021
18.690000534,17.24802,11.3792,-16.97324,0.9954823,0.03675226,-0.08781971,-39.47198,-17.16917,3.658562
18.699860573,18.98727,10.78411,-17.52497,0.9801677,0.03085171,-0.06800406,-39.47198,-17.16917,3.658562
18.709721088,21.4719,9.53441800000002,-17.83148,0.962923,0.02871204,-0.07879794,-39.47198,-17.16917,3.658562
18.722046375,22.2173,7.51111399999998,-17.40236,0.9777877,0.09125376,-0.04589641,-39.47198,-17.16917,3.658562
18.731906414,19.98112,7.03504299999997,-17.09585,0.9836828,0.09131285,-0.04406314,-39.09546,-18.28417,3.219846
18.74176693,19.91901,5.90437299999999,-16.36021,0.9801731,0.09028171,-0.05120981,-39.09546,-18.28417,3.219846
18.751626968,21.16133,5.011739,-15.50197,0.987981,0.1264744,-0.02082608,-39.09546,-18.28417,3.219846
18.761487484,21.34767,4.714194,-14.88894,0.9746869,0.1497677,-0.006543242,-39.09546,-18.28417,3.219846
18.771347523,20.91286,4.000087,-14.33721,0.9574361,0.1777612,-0.0271459,-39.09546,-18.28417,3.219846
18.781207561,20.35382,2.750399,-12.31421,0.9566486,0.1957362,-0.03321257,-39.08822,-19.01423,3.675484
18.791068077,21.03709,2.333837,-10.65903,0.9680849,0.1949122,-0.02044414,-39.08822,-19.01423,3.675484
18.800928116,22.71422,0.9056224,-10.41382,0.9529184,0.2089359,-0.00812964,-39.08822,-19.01423,3.675484
18.810788631,23.21115,-0.5225921,-9.67818499999998,0.9475289,0.206933,-0.01046573,-39.08822,-19.01423,3.675484
18.82064867,23.64596,-2.069824,-8.94255000000001,0.9493191,0.179209,-0.01120442,-39.08822,-19.01423,3.675484
18.830509186,24.26712,-3.617057,-8.206914,0.9606951,0.107575,-0.06516224,-39.45919,-19.00457,4.061499
18.840369225,27.93196,-3.914601,-6.429126,0.9872195,0.1010046,-0.06319973,-39.45919,-19.00457,4.061499
18.85022974,29.79544,-3.736075,-5.754793,0.9943371,0.1332297,-0.05104923,-39.45919,-19.00457,4.061499
18.860089779,28.73947,-4.450181,-5.448278,0.9810314,0.1487081,-0.04449936,-39.45919,-19.00457,4.061499
18.869950294,27.55927,-5.164289,-4.160915,0.9768525,0.1578742,-0.05586324,-39.45919,-19.00457,4.061499
18.879810333,26.44118,-6.35446700000003,-3.731794,0.9746357,0.158406,-0.03857598,-38.32955,-19.37319,4.955667
18.892135143,25.32309,-6.77103000000002,-2.62834,0.9720713,0.1354039,-0.06748551,-38.32955,-19.37319,4.955667
18.901996136,26.25483,-7.78268199999998,-1.58619,0.9698583,0.1465427,-0.07646476,-38.32955,-19.37319,4.955667
18.911855698,26.62753,-8.43728100000002,-0.727947499999999,0.9764565,0.1373909,-0.06705205,-38.32955,-19.37319,4.955667
18.92171669,29.23639,-9.32991399999999,-0.850553500000001,0.9657653,0.09692813,-0.06149076,-38.32955,-19.37319,4.955667
18.931576252,32.65277,-10.52009,-1.034463,0.9559548,0.1168512,-0.04584841,-38.69851,-19.73168,5.345453
18.941437244,31.5968,-12.00782,-1.58619,0.9565473,0.1548314,-0.04074433,-38.69851,-19.73168,5.345453
18.951296806,26.87599,-12.84094,-0.6053416,0.9642688,0.1680528,-0.03690921,-38.69851,-19.73168,5.345453
18.961156845,21.03709,-14.03112,0.3755064,0.9748133,0.1763859,-0.04561476,-38.69851,-19.73168,5.345453
18.971017361,16.81321,-15.75688,1.47896,0.9892469,0.1565647,-0.04502935,-38.69851,-19.73168,5.345453
18.980877399,15.63301,-16.41148,2.459808,1.002464,0.1166497,-0.07957774,-38.6993,-18.98915,5.786008
18.990737915,19.91901,-16.94706,2.70502,0.9871327,0.09889175,-0.1073027,-38.6993,-18.98915,5.786008
19.000597954,24.26712,-17.8992,4.421504,0.9781795,0.1031656,-0.114327,-38.6993,-18.98915,5.786008
19.010458469,27.74561,-18.07773,5.83147299999998,0.9852468,0.1242824,-0.07974714,-38.6993,-18.98915,5.786008
19.020318508,28.55312,-17.8992,6.62841199999998,0.9750662,0.1489821,-0.08706078,-38.6993,-18.98915,5.786008
19.030179024,27.06234,-19.38692,7.057533,0.9727826,0.1353364,-0.0871434,-38.68885,-19.71297,6.689743
19.040039063,25.82002,-20.04152,7.97707799999999,0.9705106,0.1295057,-0.07949303,-38.68885,-19.71297,6.689743
19.049899578,24.70193,-20.51759,8.65141099999999,0.9559131,0.1274451,-0.07546878,-38.68885,-19.71297,6.689743
19.059759617,18.36611,-23.49304,8.590108,0.9635708,0.09000784,-0.08499865,-38.68885,-19.71297,6.689743
19.072084904,15.44666,-27.06358,8.77401600000001,0.9765283,0.05991847,-0.09406286,-38.68885,-19.71297,6.689743
19.081945419,13.95588,-29.92001,8.89662299999997,0.9943965,0.0430599,-0.090147,-38.30792,-19.33132,7.964316
19.091805458,13.58318,-32.41938,8.89662299999997,0.9956109,0.02263035,-0.09081593,-38.30792,-19.33132,7.964316
19.101665974,14.76339,-35.2163,8.65141099999999,0.9992862,0.01687353,-0.0774993,-38.30792,-19.33132,7.964316
19.111526012,14.88762,-38.96536,8.77401600000001,1.019093,-0.01608432,-0.08908133,-38.30792,-19.33132,7.964316
19.121386528,17.9313,-41.82179,9.14183399999998,1.056473,-0.04987337,-0.1042752,-38.30792,-19.33132,7.964316
19.131246567,22.09306,-45.03527,9.57095500000001,1.064102,-0.07218398,-0.1026554,-37.93223,-18.58776,8.787024
19.141107082,24.82616,-48.07023,9.38704699999999,1.113093,-0.06817725,-0.05827514,-37.93223,-18.58776,8.787024
19.150967121,23.58385,-50.33157,9.87747100000001,1.066058,-0.04580241,-0.07945912,-37.93223,-18.58776,8.787024
19.16082716,18.05553,-53.8426,9.57095500000001,1.127851,-0.0554652,-0.07706697,-37.93223,-18.58776,8.787024
19.170687676,10.9122,-56.46099,10.79702,1.119615,-0.02112196,-0.1125997,-37.93223,-18.58776,8.787024
19.180547714,-2.877533,-58.8413500000003,13.73956,1.067155,-0.02845404,-0.1272483,-37.92181,-18.19555,10.51163
19.19040823,-23.68637,-60.6861199999999,19.31813,1.049391,-0.119817,-0.1828741,-37.92181,-18.19555,10.51163
19.200268269,-43.62557,-60.2100499999999,24.7128,0.9984999,-0.1259129,-0.2607889,-37.92181,-18.19555,10.51163
19.210128784,-64.6207500000002,-58.9603700000001,28.14577,0.9467878,-0.0535032,-0.2939432,-37.92181,-18.19555,10.51163
19.219988823,-85.3053499999997,-55.44934,27.90055,1.025254,-0.04263659,-0.3064706,-37.92181,-18.19555,10.51163
19.229849339,-95.4923599999999,-52.17635,31.08831,0.9544271,-0.06911066,-0.3214981,-37.53291,-18.17047,12.62215
19.239709377,-106.2384,-49.61746,38.38337,0.8871431,0.05089485,-0.342528,-37.53291,-18.17047,12.62215
19.252034664,-120.0903,-45.8684,44.08455,0.8988002,0.1340563,-0.3832034,-37.53291,-18.17047,12.62215
19.26189518,-125.308,-42.71443,49.05009,0.8326001,0.07874446,-0.4431058,-37.53291,-18.17047,12.62215
19.271755219,-114.065,-41.76228,54.62866,0.8029803,-0.1260239,-0.6068605,-37.53291,-18.17047,12.62215
19.281615734,-86.4855499999999,-39.38193,58.5520500000002,0.8272172,-0.2903506,-0.6244062,-36.78343,-18.54725,12.62206
19.291475773,-48.09792,-33.96661,59.7168100000003,0.8603203,-0.3810777,-0.5010518,-36.78343,-18.54725,12.62206
19.301336289,-6.91506799999999,-23.01697,58.0003200000001,0.8392231,-0.3546471,-0.4104386,-36.78343,-18.54725,12.62206
19.311196327,25.94425,-13.2575,52.60566,0.8347617,-0.271434,-0.2697465,-36.78343,-18.54725,12.62206
19.321056843,45.51077,-1.296208,46.59797,0.7445562,-0.02201409,-0.2433544,-36.78343,-18.54725,12.62206
19.330916405,48.80291,7.09455200000001,40.89679,0.7546898,0.1292523,-0.1564455,-37.52571,-17.7845,13.89865
19.340777397,41.65958,15.24728,37.21861,0.7947339,0.24028,-0.1000129,-37.52571,-17.7845,13.89865
19.350636959,24.5777,23.22147,31.51743,0.8668103,0.3433567,-0.03356153,-37.52571,-17.7845,13.89865
19.360496998,6.99889700000002,34.7067,26.42928,0.8691342,0.410396,-0.1988319,-37.52571,-17.7845,13.89865
19.370357514,-11.44953,37.20607,20.05377,0.8194523,0.367923,-0.5070867,-37.52571,-17.7845,13.89865
19.380217552,-30.76758,43.27599,19.99247,1.066182,0.6610054,-0.2738012,-37.15599,-17.05252,13.88918
19.390078068,-56.04876,47.50112,-0.2988266,0.929158,1.019526,-0.4993175,-37.15599,-17.05252,13.88918
19.399938107,-97.1694899999997,35.18277,-12.0077,0.7124176,0.6358879,-0.9451216,-37.15599,-17.05252,13.88918
19.409798622,-106.549,10.42705,-13.78549,0.8645483,0.02045973,-0.8782077,-37.15599,-17.05252,13.88918
19.419658661,-71.63985,20.84112,-5.448278,1.1379,-0.434302,-0.4268685,-37.15599,-17.05252,13.88918
19.431983948,0.787305800000002,42.85942,-9.92339700000002,1.107768,-0.6714997,-0.1543388,-37.91867,-15.95727,12.60146
19.441844463,54.82815,47.08456,-13.66288,0.9054937,-0.6335104,-0.3164591,-37.91867,-15.95727,12.60146
19.451704502,91.6628900000003,39.94349,-16.54412,0.8917598,-0.3054409,-0.3892082,-37.91867,-15.95727,12.60146
19.461565018,100.297,39.46741,-18.01539,1.028671,0.00146722,-0.2323503,-37.91867,-15.95727,12.60146
19.471425057,82.9045499999997,40.83612,-16.60542,1.088529,0.1674202,-0.1096071,-37.91867,-15.95727,12.60146
19.481285572,50.35581,39.46741,-14.88894,1.053495,0.2513545,-0.09354422,-37.54967,-16.7148,11.3908
19.491145611,15.50878,33.3975,-13.66288,1.025297,0.2329535,-0.132592,-37.54967,-16.7148,11.3908
19.501006127,-16.97785,28.27973,-10.22991,1.07731,0.1609827,-0.1128559,-37.54967,-16.7148,11.3908
19.510866165,-38.03514,27.3871,-8.94255000000001,1.086629,0.06272061,-0.125798,-37.54967,-16.7148,11.3908
19.520726681,-43.06653,25.95888,-8.51342899999998,1.083855,-0.02109941,-0.1518634,-37.54967,-16.7148,11.3908
19.53058672,-37.72456,24.53067,-9.49427599999999,1.037295,-0.05082929,-0.1840363,-38.29834,-17.08056,10.95034
19.540447235,-26.35735,24.35214,-11.33337,1.01906,-0.1085038,-0.2087023,-38.29834,-17.08056,10.95034
19.550307274,-10.64202,24.64969,-11.88509,0.9963175,-0.1364652,-0.2148437,-38.29834,-17.08056,10.95034
19.56016779,4.762724,24.64969,-11.70118,0.9683357,-0.1015878,-0.191149,-38.29834,-17.08056,10.95034
19.570027828,13.6453,23.16196,-12.31421,0.9563634,-0.03633549,-0.1506541,-38.29834,-17.08056,10.95034
19.579887867,16.06782,21.25768,-13.17246,0.9441019,0.03566949,-0.1254325,-39.05823,-17.09598,9.225832
19.589748382,14.20434,19.53192,-13.35637,0.940201,0.09506691,-0.1081037,-39.05823,-17.09598,9.225832
19.602073669,4.265797,16.31844,-12.25291,0.9349592,0.1388642,-0.09520014,-39.05823,-17.09598,9.225832
19.611933708,-8.09526999999998,13.4025,-11.57858,0.9456955,0.1492049,-0.0880779,-39.05823,-17.09598,9.225832
19.621794224,-18.40651,11.85527,-10.47512,0.9483393,0.1165718,-0.1022878,-39.05823,-17.09598,9.225832
19.631654262,-24.55599,10.24853,-10.22991,0.9529703,0.05222996,-0.1421911,-38.68249,-17.46844,9.227671
19.641514778,-25.17715,8.82031100000003,-10.046,0.9536117,-0.006797692,-0.1829512,-38.68249,-17.46844,9.227671
19.651374817,-20.26999,8.58227499999998,-9.24906400000001,0.9760322,-0.02370977,-0.204019,-38.68249,-17.46844,9.227671
19.661235332,-12.94031,8.58227499999998,-9.37167100000003,0.9859121,0.002768525,-0.1737468,-38.68249,-17.46844,9.227671
19.671095371,-5.300054,9.41540100000002,-9.24906400000001,1.016193,0.0005820845,-0.179468,-38.68249,-17.46844,9.227671
19.680955887,1.284233,10.24853,-7.77779200000001,1.018058,0.06048988,-0.169405,-39.0602,-17.84386,8.401194
19.690815926,2.278088,10.24853,-6.30652000000001,1.020902,0.09613062,-0.1447056,-39.0602,-17.84386,8.401194
19.700676441,0.1040308,10.54607,-3.915704,1.021562,0.09716008,-0.1312888,-39.0602,-17.84386,8.401194
19.71053648,-2.504838,10.30803,-2.321826,1.015388,0.08055673,-0.1322993,-39.0602,-17.84386,8.401194
19.720396995,-4.492547,9.89147200000003,-1.095766,1.003776,0.06096059,-0.1399664,-39.0602,-17.84386,8.401194
19.730257034,-4.989474,9.47490899999998,0.0689914200000002,0.9820253,0.04619368,-0.1335514,-38.68567,-18.59071,7.958707
19.74011755,-4.181968,8.82031100000003,0.682021400000003,0.9631104,0.02654224,-0.1387188,-38.68567,-18.59071,7.958707
19.749977112,-0.2686647,9.29638199999997,2.09199,0.9140844,-0.002321447,-0.06398778,-38.68567,-18.59071,7.958707
19.759838104,-6.35602500000002,9.29638199999997,6.07668500000002,0.9734483,0.2668895,-0.1737361,-38.68567,-18.59071,7.958707
19.769697666,-14.12051,8.34423899999999,1.47896,0.9703403,0.01632367,-0.1556801,-38.68567,-18.59071,7.958707
19.782022953,-4.678895,6.20191800000002,1.908081,1.009968,-0.1126522,-0.1257062,-39.05739,-18.95454,7.964409
19.791883945,8.61391200000001,5.547319,1.049839,0.9755171,-0.06090944,-0.1310081,-39.05739,-18.95454,7.964409
19.801743507,13.6453,2.571872,0.682021400000003,0.9780708,0.0101537,-0.1323616,-39.05739,-18.95454,7.964409
19.8116045,11.84394,0.608077699999999,-0.4214326,0.9663545,0.02030939,-0.1215665,-39.05739,-18.95454,7.964409
19.821464062,8.86237499999997,-1.355717,-1.034463,0.95249,0.0246696,-0.09401773,-39.05739,-18.95454,7.964409
19.831325054,4.203681,-3.021967,-1.095766,0.9428112,0.03619514,-0.1119921,-39.06141,-18.21824,7.956868
19.841184616,-0.02020105,-4.628708,-0.2375236,0.9608971,0.05916291,-0.128828,-39.06141,-18.21824,7.956868
19.851044655,-4.3062,-5.283307,0.804627399999999,0.9859134,0.0812382,-0.140499,-39.06141,-18.21824,7.956868
19.86090517,-5.73486500000002,-5.99741399999999,2.275899,0.9948215,0.06425759,-0.1479573,-39.06141,-18.21824,7.956868
19.870765209,-3.125997,-7.18759300000001,3.440656,0.9938501,0.03021018,-0.141522,-39.06141,-18.21824,7.956868
19.880625725,3.023479,-8.02071800000003,3.992383,1.001959,0.006436717,-0.1418382,-39.06342,-17.85009,7.953097
19.890485764,10.97432,-8.615807,4.54411,0.9981776,-0.001371832,-0.138975,-39.06342,-17.85009,7.953097
19.900346279,17.24802,-9.56794999999997,4.605413,1.00306,0.005992169,-0.1332321,-39.06342,-17.85009,7.953097
19.910206318,21.09921,-10.63911,4.911928,0.9956527,0.01078967,-0.1340444,-39.06342,-17.85009,7.953097
19.920066833,22.03095,-11.53174,4.728019,0.9833062,0.01797145,-0.1362038,-39.06342,-17.85009,7.953097
19.929926872,21.53402,-12.18634,4.911928,0.9674389,0.01240151,-0.1566303,-39.05618,-18.58015,8.408735
19.939787388,21.22344,-12.36487,5.095838,0.9615228,0.01135999,-0.1608675,-39.05618,-18.58015,8.408735
19.952112675,20.41593,-12.72192,5.095838,0.9545383,0.01956042,-0.163574,-39.05618,-18.58015,8.408735
19.961972713,19.85689,-12.66241,4.789322,0.9431476,0.02918555,-0.1652472,-39.05618,-18.58015,8.408735
19.971833229,18.7388,-13.13849,4.789322,0.9427458,0.05641166,-0.1707621,-39.05618,-18.58015,8.408735
19.981693268,16.06782,-13.2575,5.15714,0.964528,0.07899911,-0.1680067,-38.68446,-18.21632,8.403032
19.991553783,13.21049,-12.72192,4.728019,0.9739979,0.07571383,-0.1581062,-38.68446,-18.21632,8.403032
20.001413822,10.22893,-12.48389,4.605413,0.9892468,0.0514608,-0.1733834,-38.68446,-18.21632,8.403032
20.011274338,8.86237499999997,-11.41273,4.728019,0.9965829,0.03834318,-0.1850995,-38.68446,-18.21632,8.403032
20.021134377,8.36544800000002,-10.16304,4.728019,0.991147,0.01826257,-0.2067554,-38.68446,-18.21632,8.403032
20.030994892,9.794114,-9.44893200000001,4.421504,0.9729713,-0.01254244,-0.203402,-39.04576,-18.18795,10.13334
20.040854931,10.29104,-8.25875400000001,4.237596,0.978131,0.009900513,-0.1999317,-39.04576,-18.18795,10.13334
20.050715446,8.676027,-7.06857499999999,4.605413,0.9800695,0.02407121,-0.1888181,-39.04576,-18.18795,10.13334
20.060575485,6.129274,-5.99741399999999,4.114989,0.9795502,0.03431104,-0.1820155,-39.04576,-18.18795,10.13334
20.070435524,2.215972,-4.747726,4.114989,0.9778862,0.03765962,-0.1934643,-39.04576,-18.18795,10.13334
20.08029604,-1.262519,-3.97411,4.176292,0.9700499,0.03905234,-0.1928617,-38.67726,-17.83035,9.679539
20.090156078,-3.933504,-3.557548,4.482807,0.9767268,0.0260171,-0.1810869,-38.67726,-17.83035,9.679539
20.100016594,-5.237938,-3.021967,4.666717,0.9849921,0.0236351,-0.1869752,-38.67726,-17.83035,9.679539
20.109876633,-4.927359,-2.30786,4.482807,0.9822557,0.01243654,-0.1822387,-38.67726,-17.83035,9.679539
20.119737148,-4.803127,-2.188842,4.114989,0.9984642,0.01064527,-0.1791304,-38.67726,-17.83035,9.679539
20.132062435,-4.244083,-2.129333,3.869777,0.987341,-0.001135327,-0.1800297,-39.04701,-17.44631,10.50988
20.141921997,-3.99562,-2.486387,3.440656,0.9876235,-0.0254661,-0.1807183,-39.04701,-17.44631,10.50988
20.15178299,-3.188113,-2.605405,3.134141,0.9857365,-0.03132226,-0.1807408,-39.04701,-17.44631,10.50988
20.161642551,-2.194258,-2.545896,2.275899,0.9793119,-0.07080837,-0.1843369,-39.04701,-17.44631,10.50988
20.171503544,-0.2686647,-3.260003,2.521111,0.9675784,-0.04663415,-0.1983416,-39.04701,-17.44631,10.50988
20.181363106,-0.1444329,-3.081476,2.275899,0.9640853,-0.0452194,-0.2021135,-39.04501,-17.81446,10.51365
20.191224098,0.2282626,-3.379021,2.214596,0.9632149,-0.0559383,-0.2036291,-39.04501,-17.81446,10.51365
20.20108366,1.719045,-3.676566,1.540263,0.9534702,-0.03990232,-0.186583,-39.04501,-17.81446,10.51365
20.210944653,3.520406,-3.736075,0.5594154,0.952104,-0.05062738,-0.1885708,-39.04501,-17.81446,10.51365
20.220804215,6.874665,-4.5692,0.743324399999998,0.9761899,-0.03147645,-0.1992948,-39.04501,-17.81446,10.51365
20.230665207,8.11698399999998,-4.5692,1.111142,0.9728104,0.01914643,-0.1873187,-38.67805,-17.08782,10.12009
20.240524769,7.49582399999998,-5.045271,1.356354,0.9737706,0.0245204,-0.1839326,-38.67805,-17.08782,10.12009
20.250385761,6.37773799999999,-5.461833,0.988536299999999,0.9733894,0.02698798,-0.1738431,-38.67805,-17.08782,10.12009
20.260245323,4.949072,-5.64036,0.4981124,0.980722,0.01582225,-0.1841051,-38.67805,-17.08782,10.12009
20.270106316,3.644638,-5.759378,0.5594154,0.9831525,-0.01150117,-0.2092887,-38.67805,-17.08782,10.12009
20.279965878,3.706754,-4.747726,0.8659304,0.9793878,-0.03444007,-0.2185334,-38.29834,-17.08056,10.95034
20.28982687,4.638493,-3.855092,0.5594154,0.9726309,-0.03935682,-0.2160826,-38.29834,-17.08056,10.95034
20.299686432,5.383883,-3.260003,0.3142034,0.9725493,-0.0286391,-0.2126366,-38.29834,-17.08056,10.95034
20.312011719,5.259652,-2.30786,-0.2988266,0.9768297,-0.01398816,-0.2087404,-38.29834,-17.08056,10.95034
20.321872234,3.955218,-1.831789,-0.4827355,0.9787247,-0.007153276,-0.2072721,-38.29834,-17.08056,10.95034
20.331732273,2.340204,-0.939154599999998,-0.2988266,0.9800373,-0.001813995,-0.2139545,-38.30634,-16.72399,10.11439
20.341592789,1.284233,-0.2845563,-0.2988266,0.9741581,8.437881e-05,-0.2128963,-38.30634,-16.72399,10.11439
20.351452828,0.849421699999999,0.667586600000001,-0.2988266,0.9667762,0.004400874,-0.2122754,-38.30634,-16.72399,10.11439
20.361313343,0.2903785,1.143658,-0.4827355,0.9696623,0.01124808,-0.2098628,-38.30634,-16.72399,10.11439
20.371173382,-0.2065488,1.679239,-0.850553500000001,0.9658986,0.01076792,-0.1992708,-38.30634,-16.72399,10.11439
20.381033421,-0.641360199999998,2.15531,-0.973159599999999,0.9771014,0.005971427,-0.2071382,-38.67529,-17.08248,10.50418
20.390893936,-0.3928965,2.631382,-0.973159599999999,0.9767634,-0.001801421,-0.2028862,-38.67529,-17.08248,10.50418
20.400753975,-0.3928965,2.869417,-1.034463,0.97728,-0.0008128195,-0.20001,-38.67529,-17.08248,10.50418
20.410614491,-0.02020105,2.869417,-1.095766,0.9705701,-0.004739714,-0.1932387,-38.67529,-17.08248,10.50418
20.420474529,0.04191487,2.988435,-1.340978,0.9783797,-0.002234239,-0.1923705,-38.67529,-17.08248,10.50418
20.430335045,-0.1444329,3.107453,-1.157069,0.9745385,-0.006642308,-0.1909153,-38.30432,-17.09214,10.11816
20.440195084,-0.579244300000001,2.928926,-1.402281,0.9716228,-0.007151001,-0.1899197,-38.30432,-17.09214,10.11816
20.450055599,-0.579244300000001,2.809908,-1.647493,0.974615,-0.01638502,-0.1938738,-38.30432,-17.09214,10.11816
20.459915638,-0.3928965,2.571872,-1.647493,0.972663,-0.01786568,-0.1948169,-38.30432,-17.09214,10.11816
20.469776154,-0.1444329,2.750399,-1.892705,0.9755933,-0.01198235,-0.190017,-38.30432,-17.09214,10.11816
20.482101441,0.2282626,2.750399,-2.015311,0.9759616,-0.01005958,-0.197194,-38.30156,-17.08679,10.50224
20.491961479,0.4146104,2.869417,-2.137917,0.9730546,-0.004707051,-0.1903986,-38.30156,-17.08679,10.50224
20.501821995,0.5388422,2.571872,-2.199219,0.9735026,0.002608926,-0.1869889,-38.30156,-17.08679,10.50224
20.511682034,0.5388422,2.333837,-2.260523,0.9706317,0.001624796,-0.1831227,-38.30156,-17.08679,10.50224
20.521542549,0.2282626,2.393346,-2.321826,0.9691015,0.00305862,-0.1864432,-39.04379,-17.44007,10.95798
20.531402588,0.2903785,1.917274,-2.199219,0.9735488,-0.005677761,-0.1908931,-39.04379,-17.44007,10.95798
20.541263104,0.725189899999998,2.036292,-2.321826,0.9740025,0.001151637,-0.1874875,-39.04379,-17.44007,10.95798
20.551123142,0.787305800000002,2.095801,-2.199219,0.9808115,0.006083253,-0.1861053,-39.04379,-17.44007,10.95798
20.560983658,0.600958099999998,1.976783,-2.199219,0.9704632,0.01085307,-0.1873552,-39.04379,-17.44007,10.95798
20.570843696,0.4146104,1.976783,-2.321826,0.9719645,0.007458081,-0.1878844,-39.04379,-17.44007,10.95798
20.580704212,0.3524944,1.857765,-2.076613,0.9739527,0.006996147,-0.1859999,-39.04701,-17.44631,10.50988
20.590564251,0.2282626,1.679239,-2.076613,0.972515,0.005038778,-0.1855167,-39.04701,-17.44631,10.50988
20.600424766,-0.1444329,1.61973,-2.076613,0.9784246,0.001684383,-0.1856292,-39.04701,-17.44631,10.50988
20.610284805,-0.1444329,1.441203,-1.954008,0.9768683,0.003110781,-0.1908662,-39.04701,-17.44631,10.50988
20.620145321,-0.0823169599999999,1.143658,-1.892705,0.978314,0.006046877,-0.1899036,-39.04701,-17.44631,10.50988
20.63000536,0.04191487,1.084149,-2.137917,0.9750406,-0.006634291,-0.189964,-38.67927,-17.46221,9.675768
20.639865875,0.4767263,0.9056224,-1.954008,0.9750855,-0.00271567,-0.1832228,-38.67927,-17.46221,9.675768
20.649725914,0.600958099999998,0.9056224,-2.076613,0.9760059,0.002158723,-0.1831948,-38.67927,-17.46221,9.675768
20.662051201,0.849421699999999,0.370042,-1.770099,0.9754655,0.01141612,-0.1787961,-38.67927,-17.46221,9.675768
20.671911716,0.4767263,0.07249729,-1.58619,0.9759763,0.0128913,-0.1759158,-38.67128,-17.81877,10.51172
20.681771755,0.1040308,0.07249729,-1.647493,0.9807639,0.01778713,-0.1792971,-38.67128,-17.81877,10.51172
20.691632271,0.04191487,-0.1060295,-1.524887,0.9787351,0.01286699,-0.1888937,-38.67128,-17.81877,10.51172
20.701491833,-0.02020105,-0.2250474,-1.402281,0.9714227,0.01134455,-0.1883231,-38.67128,-17.81877,10.51172
20.711351871,0.600958099999998,-0.582100999999999,-1.402281,0.9700392,0.006473277,-0.1864277,-38.67128,-17.81877,10.51172
20.721212387,0.849421699999999,-0.3440652,-1.340978,0.975467,0.007998929,-0.1817002,-38.67329,-17.45062,10.50795
20.731072426,0.973653600000002,-0.3440652,-1.402281,0.9779406,0.005099124,-0.1822391,-38.67329,-17.45062,10.50795
20.740932941,0.725189899999998,-0.5225921,-1.402281,0.9724998,0.003569759,-0.1879249,-38.67329,-17.45062,10.50795
20.75079298,0.4146104,-0.4035742,-1.157069,0.9793522,0.007049067,-0.1846388,-38.67329,-17.45062,10.50795
20.760653496,0.3524944,-0.4035742,-1.095766,0.9803419,0.001690461,-0.1885317,-38.67329,-17.45062,10.50795
20.770513534,-0.1444329,-0.2250474,-1.157069,0.9789159,0.003153993,-0.1841862,-38.67605,-17.45597,10.12386
20.78037405,-0.2686647,-0.04652058,-1.218372,0.9769197,0.0026372,-0.1875165,-38.67605,-17.45597,10.12386
20.790234089,-0.3307806,0.1320062,-1.218372,0.9777206,0.006012865,-0.1975626,-38.67605,-17.45597,10.12386
20.800094604,-0.2065488,0.2510241,-1.095766,0.9767786,0.004061657,-0.1966073,-38.67605,-17.45597,10.12386
20.809954643,0.1040308,0.786604499999998,-1.157069,0.9729325,0.0006285994,-0.1946647,-38.67605,-17.45597,10.12386
20.819815159,0.2282626,0.846113400000001,-1.218372,0.9772786,0.006998429,-0.1932352,-39.04898,-18.19419,9.685241
20.832140446,0.4146104,1.262676,-1.157069,0.9752637,0.01135856,-0.1936489,-39.04898,-18.19419,9.685241
20.842000484,0.5388422,1.381694,-0.911856500000002,0.9712209,0.01568105,-0.1993052,-39.04898,-18.19419,9.685241
20.851861,0.2903785,1.61973,-0.973159599999999,0.9771804,0.01527026,-0.193164,-39.04898,-18.19419,9.685241
20.861721039,0.3524944,1.61973,-0.850553500000001,0.9738464,0.01428925,-0.1873744,-39.04898,-18.19419,9.685241
20.871581554,0.2903785,1.500712,-0.727947499999999,0.9744903,0.008967191,-0.1807197,-39.04977,-17.45165,10.1258
20.881441593,0.4767263,1.381694,-0.789250600000002,0.9749605,0.009454359,-0.1816807,-39.04977,-17.45165,10.1258
20.891302109,0.5388422,1.500712,-0.850553500000001,0.9812688,0.01096077,-0.1841539,-39.04977,-17.45165,10.1258
20.901162147,0.4767263,1.381694,-0.850553500000001,0.9817716,0.007063162,-0.18659,-39.04977,-17.45165,10.1258
20.911022663,0.4146104,1.262676,-0.6666446,0.9784485,0.004620563,-0.181292,-39.04977,-17.45165,10.1258
20.920882702,0.3524944,0.965131299999997,-0.5440385,0.978267,0.009451069,-0.1903535,-38.67128,-17.81877,10.51172
20.930743217,0.1661467,1.02464,-0.727947499999999,0.9730143,0.01188117,-0.1787573,-38.67128,-17.81877,10.51172
20.940603256,-0.2686647,0.9056224,-0.4214326,0.9738905,0.01332538,-0.1849872,-38.67128,-17.81877,10.51172
20.950463772,-0.3928965,0.608077699999999,-0.5440385,0.9699279,0.0147414,-0.1873147,-38.67128,-17.81877,10.51172
20.960323811,-0.579244300000001,0.310533,-0.5440385,0.9681394,0.01379558,-0.1757964,-38.67128,-17.81877,10.51172
20.970184326,-0.765591999999998,0.1320062,-0.4214326,0.9685416,0.01231044,-0.1834819,-38.67128,-17.81877,10.51172
20.980044365,-0.5171283,-0.1655384,-0.6053416,0.9729912,0.01382749,-0.1787405,-38.67128,-17.81877,10.51172
20.989904881,-0.579244300000001,-0.760627799999999,-0.4214326,0.9749917,0.01288083,-0.176381,-38.67128,-17.81877,10.51172
20.999764919,-0.3928965,-0.5225921,-0.4214326,0.9762897,0.01723953,-0.1849883,-38.67128,-17.81877,10.51172
21.012090206,-0.3928965,-0.879645599999998,-0.2988266,0.9753854,0.01432259,-0.1821249,-38.67128,-17.81877,10.51172
21.021950722,-0.579244300000001,-1.058172,-0.1149176,0.9735042,0.01237391,-0.1782809,-37.92382,-17.82741,10.50785
21.031810761,-1.014056,-1.296208,-0.05361458,0.9744296,0.01627329,-0.1787404,-37.92382,-17.82741,10.50785
21.041671276,-1.448867,-1.355717,-0.1762206,0.9758866,0.01384217,-0.1816569,-37.92382,-17.82741,10.50785
21.051531315,-1.821563,-1.415226,-0.05361458,0.9784015,0.008024756,-0.1817418,-37.92382,-17.82741,10.50785
21.06139183,-1.883678,-1.534244,0.1302944,0.9778039,0.009454191,-0.18843,-37.92382,-17.82741,10.50785
21.071251869,-1.883678,-1.593753,0.0689914200000002,0.9724536,0.007462386,-0.1878914,-38.67204,-18.19227,10.13141
21.081111908,-1.821563,-1.712771,-0.1762206,0.9739317,0.01040777,-0.1845332,-38.67204,-18.19227,10.13141
21.090972424,-1.697331,-1.712771,0.0689914200000002,0.9778914,0.00703801,-0.1841389,-38.67204,-18.19227,10.13141
21.100832462,-1.635215,-1.474735,0.007688423,0.9773792,0.00898002,-0.1841152,-38.67204,-18.19227,10.13141
21.110692978,-1.697331,-1.534244,0.1302944,0.9772107,0.01381424,-0.1922184,-38.67204,-18.19227,10.13141
21.120553017,-1.697331,-1.593753,-0.05361458,0.9768466,0.006033964,-0.1898828,-38.29554,-18.19124,10.51356
21.130413532,-1.635215,-1.296208,-0.05361458,0.9803043,0.00265619,-0.1904398,-38.29554,-18.19124,10.51356
21.140273094,-1.138287,-0.998663500000001,0.1915974,0.9802486,0.0001991608,-0.1966894,-38.29554,-18.19124,10.51356
21.150134087,-0.5171283,-0.701118900000002,-0.05361458,0.9782705,-0.001288933,-0.1995489,-38.29554,-18.19124,10.51356
21.159993649,-0.2065488,-0.701118900000002,0.1302944,0.9763691,0.005056503,-0.1898843,-38.29554,-18.19124,10.51356
21.169854641,-0.2686647,-0.3440652,-0.1149176,0.9739071,0.00698315,-0.1893537,-38.30031,-17.82844,10.1257
21.179714203,-0.3928965,-0.2845563,-0.1762206,0.9758967,0.007498087,-0.1865025,-38.30031,-17.82844,10.1257
21.19203949,-0.579244300000001,-0.1655384,-0.2375236,0.9758294,0.006014215,-0.1927437,-38.30031,-17.82844,10.1257
21.201900482,-0.4550124,0.01298836,-0.05361458,0.9758034,0.01040085,-0.1907895,-38.30031,-17.82844,10.1257
21.211760044,-0.3928965,0.1320062,0.007688423,0.9748889,0.009433934,-0.186951,-38.30031,-17.82844,10.1257
21.221621037,-0.2065488,0.01298836,0.0689914200000002,0.9772981,0.007003999,-0.1917979,-38.29554,-18.19124,10.51356
21.231480599,-0.0823169599999999,0.1320062,0.007688423,0.9759943,0.003131879,-0.1831864,-38.29554,-18.19124,10.51356
21.241341591,0.1040308,0.07249729,-0.1149176,0.9723864,0.01037257,-0.1902619,-38.29554,-18.19124,10.51356
21.251201153,0.1040308,0.1320062,-0.1149176,0.9733371,0.01379094,-0.1892882,-38.29554,-18.19124,10.51356
21.261061668,-0.02020105,0.01298836,-0.1149176,0.9742971,0.01037679,-0.1936435,-38.29554,-18.19124,10.51356
21.270921707,0.1040308,0.1320062,-0.1762206,0.9767209,0.0133215,-0.1926948,-38.30031,-17.82844,10.1257
21.280782223,0.1661467,0.01298836,-0.05361458,0.9738695,0.01234294,-0.1873912,-38.30031,-17.82844,10.1257
21.290642262,0.2903785,-0.1655384,-0.1149176,0.9724283,0.007943395,-0.1893246,-38.30031,-17.82844,10.1257
21.300502777,0.4146104,0.01298836,0.007688423,0.9709725,0.01135138,-0.1854414,-38.30031,-17.82844,10.1257
21.310362816,0.3524944,-0.1655384,-0.05361458,0.9718922,0.01134328,-0.1897674,-38.30031,-17.82844,10.1257
21.320223332,0.4146104,-0.4035742,0.0689914200000002,0.9693795,0.01423195,-0.1921032,-38.29554,-18.19124,10.51356
21.33008337,0.4146104,-0.3440652,0.1302944,0.9708707,0.01718104,-0.1877868,-38.29554,-18.19124,10.51356
21.339943886,0.3524944,-0.2250474,0.2529004,0.9733806,0.01673269,-0.1835136,-38.29554,-18.19124,10.51356
21.349803925,0.1661467,-0.3440652,0.0689914200000002,0.9787778,0.01092625,-0.1874731,-38.29554,-18.19124,10.51356
21.35966444,-0.0823169599999999,-0.3440652,0.1915974,0.9743051,0.01135552,-0.1921977,-38.29554,-18.19124,10.51356
21.371989727,-0.0823169599999999,-0.2250474,0.3142034,0.9753157,0.006979354,-0.1936866,-39.4215,-17.81549,10.1315
21.381849766,0.1661467,-0.1060295,0.3142034,0.97772,0.009918489,-0.1941753,-39.4215,-17.81549,10.1315
21.391710281,0.4146104,-0.04652058,0.1915974,0.9758475,0.009436973,-0.1884023,-39.4215,-17.81549,10.1315
21.40157032,0.1661467,0.01298836,0.3142034,0.9733103,0.01329508,-0.1916879,-39.4215,-17.81549,10.1315
21.411430836,0.04191487,0.1320062,0.3142034,0.9713829,0.01084497,-0.1916811,-39.4215,-17.81549,10.1315
21.421290875,-0.1444329,0.07249729,0.3755064,0.9679145,0.01568434,-0.1906325,-37.92458,-18.2009,10.12754
21.43115139,-0.2686647,0.1320062,0.3755064,0.9728964,0.01135932,-0.1878648,-37.92458,-18.2009,10.12754
21.441011429,-0.3928965,0.07249729,0.3755064,0.9709356,0.01280555,-0.1868662,-37.92458,-18.2009,10.12754
21.450871945,-0.2686647,0.310533,0.4368094,0.9767895,0.01138818,-0.1893576,-37.92458,-18.2009,10.12754
21.460731983,-0.2065488,0.1915152,0.3755064,0.9777634,0.00846618,-0.1922714,-37.92458,-18.2009,10.12754
21.470592499,0.2903785,0.4295509,0.4981124,0.9773393,0.004086385,-0.1913439,-38.30031,-17.82844,10.1257
21.480452538,0.4146104,0.4295509,0.4368094,0.9753801,0.006509486,-0.1893787,-38.30031,-17.82844,10.1257
21.490312576,0.3524944,0.4890598,0.4368094,0.9734686,0.001622772,-0.1903511,-38.30031,-17.82844,10.1257
21.500173092,0.2282626,0.370042,0.4981124,0.9733978,0.0108789,-0.1873968,-38.30031,-17.82844,10.1257
21.510033131,0.2903785,0.5485688,0.3755064,0.9768691,0.007993275,-0.1865122,-38.30031,-17.82844,10.1257
21.519893646,0.04191487,0.608077699999999,0.4368094,0.9704719,0.007926177,-0.1892968,-38.29955,-17.45494,10.50602
21.529753685,-0.3928965,0.4890598,0.4981124,0.9768583,0.009454867,-0.1860205,-38.29955,-17.45494,10.50602
21.542079449,-0.2686647,0.4890598,0.4368094,0.9749308,0.007004756,-0.1860137,-38.29955,-17.45494,10.50602
21.551939488,0.1661467,0.310533,0.3755064,0.974399,0.004547137,-0.1912981,-38.29955,-17.45494,10.50602
21.561799526,0.3524944,0.4295509,0.3142034,0.9778574,0.006051856,-0.1875011,-38.29955,-17.45494,10.50602
21.571660042,0.5388422,0.667586600000001,0.1915974,0.9748477,0.01235155,-0.187405,-38.30031,-17.82844,10.1257
21.581520557,0.3524944,0.4295509,0.3755064,0.9718784,0.01085113,-0.191209,-38.30031,-17.82844,10.1257
21.591380596,0.3524944,0.5485688,0.620718400000002,0.9758506,0.01578477,-0.1825983,-38.30031,-17.82844,10.1257
21.601240635,0.1661467,0.4295509,0.4981124,0.972317,0.01621151,-0.1902116,-38.30031,-17.82844,10.1257
21.61110115,-0.2686647,0.4295509,0.4981124,0.9768394,0.009937732,-0.1869746,-38.30031,-17.82844,10.1257
21.620961189,-0.02020105,0.1915152,0.4368094,0.9715709,0.006016323,-0.1821406,-38.30031,-17.82844,10.1257
21.630821705,0.1661467,0.2510241,0.4981124,0.9743817,0.01040093,-0.1874149,-38.30031,-17.82844,10.1257
21.640681744,0.600958099999998,-0.04652058,0.3142034,0.9779022,0.001182359,-0.1885012,-38.30031,-17.82844,10.1257
21.650542259,0.600958099999998,0.07249729,0.4981124,0.9768669,0.00652797,-0.1879622,-38.30031,-17.82844,10.1257
21.660402298,0.4767263,-0.1060295,0.620718400000002,0.9798594,0.01047613,-0.1803043,-38.30031,-17.82844,10.1257
21.670262813,0.2903785,-0.04652058,0.620718400000002,0.977317,0.006521134,-0.1908438,-37.9306,-17.09646,10.11623
21.680122852,0.1040308,-0.04652058,0.4981124,0.9792973,0.009474532,-0.1865343,-37.9306,-17.09646,10.11623
21.689983368,-0.2065488,0.1915152,0.743324399999998,0.9739172,0.005033124,-0.1903287,-37.9306,-17.09646,10.11623
21.69984293,0.04191487,0.310533,0.620718400000002,0.9713394,0.007903221,-0.1974557,-37.9306,-17.09646,10.11623
21.709703922,0.1661467,0.4295509,0.620718400000002,0.9764407,0.0006828679,-0.1884846,-37.9306,-17.09646,10.11623
21.722029209,0.1661467,0.846113400000001,0.620718400000002,0.9758763,-0.001784036,-0.1961646,-38.67128,-17.81877,10.51172
21.731888771,0.2282626,0.965131299999997,0.682021400000003,0.974389,0.006497164,-0.1903231,-38.67128,-17.81877,10.51172
21.741749763,0.4146104,1.203167,0.620718400000002,0.9763944,0.0001814358,-0.1923218,-38.67128,-17.81877,10.51172
21.751609325,0.787305800000002,1.262676,0.620718400000002,0.9764189,-0.009576124,-0.1991133,-38.67128,-17.81877,10.51172
21.761470318,1.594813,1.381694,0.620718400000002,0.9771074,-0.01976768,-0.1934587,-38.67128,-17.81877,10.51172
21.77132988,2.837131,1.381694,0.5594154,0.9795457,-0.02023646,-0.1944558,-38.67525,-18.1985,9.68331
21.781190872,4.079449,1.798256,0.3142034,0.9801527,-0.01971029,-0.1853552,-38.67525,-18.1985,9.68331
21.791050434,5.321767,1.738747,0.1302944,0.9870426,-0.02159078,-0.1840317,-38.67525,-18.1985,9.68331
21.800911426,6.00504300000001,1.500712,-0.1762206,0.9945105,-0.02490626,-0.1774573,-38.67525,-18.1985,9.68331
21.810770988,5.197536,1.084149,-0.5440385,0.9872493,-0.03129635,-0.1774078,-38.67525,-18.1985,9.68331
21.820631504,5.13542,1.262676,-0.2375236,0.9877437,-0.01908488,-0.1662901,-38.67329,-17.45062,10.50795
21.830491543,4.017333,0.786604499999998,-0.2375236,0.9796632,-0.002626798,-0.1703489,-38.67329,-17.45062,10.50795
21.840352058,1.470581,0.370042,-0.2988266,0.9680846,0.02940322,-0.16608,-38.67329,-17.45062,10.50795
21.850212097,-1.759447,0.1320062,-0.2375236,0.971659,0.04252329,-0.1794378,-38.67329,-17.45062,10.50795
21.860072613,-4.492547,-0.1655384,0.3142034,0.9730315,0.04006803,-0.1885828,-38.67329,-17.45062,10.50795
21.869932651,-5.921213,0.1320062,0.8659304,0.9749401,0.04300101,-0.1895437,-38.29755,-17.82309,10.50979
21.879793167,-6.16967699999999,0.4295509,0.927233400000001,0.9683111,0.03226201,-0.182831,-38.29755,-17.82309,10.50979
21.889653206,-5.36217,0.667586600000001,1.172445,0.9707,0.02494401,-0.1934692,-38.29755,-17.82309,10.50979
21.901978493,-3.871388,0.01298836,1.295051,0.973644,0.02253138,-0.1949691,-38.29755,-17.82309,10.50979
21.911839008,-2.877533,0.01298836,1.540263,0.9738661,0.02308294,-0.1781957,-38.29755,-17.82309,10.50979
21.921699047,-2.753301,-0.4630831,1.785475,0.9705169,0.02063292,-0.1748142,-39.04977,-17.45165,10.1258
21.931559563,-3.063881,-1.17719,1.846778,0.9763991,0.02068828,-0.1739392,-39.04977,-17.45165,10.1258
21.941419601,-2.691185,-2.010315,2.030687,0.982087,0.004711967,-0.1655295,-39.04977,-17.45165,10.1258
21.951280117,-2.070026,-2.426878,2.337202,0.981631,-0.007976795,-0.1742557,-39.04977,-17.45165,10.1258
21.961140156,-1.138287,-2.90295,2.521111,0.981079,-0.002140304,-0.1737194,-39.04977,-17.45165,10.1258
21.971000671,-0.765591999999998,-3.379021,2.827626,0.9823865,0.00417399,-0.1799143,-39.04777,-17.8198,10.12957
21.98086071,-0.3928965,-3.379021,3.134141,0.9918245,-0.00302619,-0.1757968,-39.04777,-17.8198,10.12957
21.990721226,-0.02020105,-3.200494,3.440656,0.9834015,-0.001665624,-0.1823741,-39.04777,-17.8198,10.12957
22.000581264,0.4146104,-3.97411,3.440656,0.9726633,-0.0002894459,-0.1793342,-39.04777,-17.8198,10.12957
22.01044178,1.160001,-4.331164,3.869777,0.9720085,0.00210015,-0.1893679,-39.04777,-17.8198,10.12957
22.020301819,1.905392,-4.331164,3.869777,0.9754207,0.007497496,-0.1855374,-38.67329,-17.45062,10.50795
22.030162334,2.464436,-4.093128,4.482807,0.9752985,0.01283315,-0.1898034,-38.67329,-17.45062,10.50795
22.040022373,3.582522,-3.914601,4.237596,0.9623892,0.02291895,-0.1948055,-38.67329,-17.45062,10.50795
22.049882889,4.265797,-4.5692,4.54411,0.9598685,0.02482889,-0.198587,-38.67329,-17.45062,10.50795
22.059742928,4.265797,-4.5692,4.298898,0.9686562,0.02734298,-0.1977327,-38.67329,-17.45062,10.50795
22.072068214,4.390029,-4.390673,4.114989,0.9577876,0.0198939,-0.2120166,-38.30231,-17.46029,10.12193
22.08192873,4.762724,-4.390673,4.114989,0.9617423,0.01749916,-0.2111348,-38.30231,-17.46029,10.12193
22.091788769,4.638493,-3.914601,4.053687,0.9710392,0.01172344,-0.216108,-38.30231,-17.46029,10.12193
22.101649284,4.514261,-3.081476,3.992383,0.9677407,0.008311393,-0.2098602,-38.30231,-17.46029,10.12193
22.111509323,4.327913,-2.248351,3.685868,0.9717278,-0.002862184,-0.2143241,-38.30231,-17.46029,10.12193
22.121369839,4.390029,-1.415226,3.747171,0.972258,-0.01016955,-0.2177477,-38.66806,-17.81254,10.95982
22.131229878,4.390029,-0.582100999999999,3.501959,0.9732252,-0.01748747,-0.2250113,-38.66806,-17.81254,10.95982
22.141090393,4.452145,0.1915152,3.440656,0.9732989,-0.02478986,-0.2260324,-38.66806,-17.81254,10.95982
22.150950432,4.203681,1.143658,3.256747,0.9857156,-0.02853402,-0.2156985,-38.66806,-17.81254,10.95982
22.160810947,4.452145,2.214819,3.072838,0.9837974,-0.03781665,-0.2210207,-38.66806,-17.81254,10.95982
22.170670986,5.073304,3.107453,3.195444,0.9813896,-0.0388039,-0.2190779,-39.04501,-17.81446,10.51365
22.180531502,5.88081099999999,3.762051,3.256747,0.9760733,-0.03980956,-0.2151771,-39.04501,-17.81446,10.51365
22.190391541,6.68831799999999,4.238123,3.011535,0.9697087,-0.03547331,-0.2116954,-39.04501,-17.81446,10.51365
22.200251579,7.06101299999998,4.714194,2.766323,0.9677581,-0.03158305,-0.2078012,-39.04501,-17.81446,10.51365
22.210112095,7.12312899999999,5.130757,2.766323,0.9681787,-0.02085731,-0.2034038,-39.04501,-17.81446,10.51365
22.219972134,6.874665,5.190266,2.766323,0.9804314,-0.01244259,-0.1944026,-38.30236,-16.34426,10.9428
22.229832649,6.50197000000002,5.606828,2.582414,0.9819875,-0.01826305,-0.1930364,-38.30236,-16.34426,10.9428
22.239692688,6.50197000000002,5.78535500000003,2.582414,0.9819716,-0.02022051,-0.1959278,-38.30236,-16.34426,10.9428
22.252018452,7.37159299999998,5.78535500000003,2.153293,0.9787562,-0.02897934,-0.1882887,-38.30236,-16.34426,10.9428
22.261878491,7.99275200000001,5.487811,2.214596,0.9631154,-0.02667305,-0.1851712,-38.30236,-16.34426,10.9428
22.271739006,8.11698399999998,4.95223,2.030687,0.9621112,-0.02668908,-0.1870738,-38.67805,-17.08782,10.12009
22.281599045,8.17909999999999,4.41665,1.846778,0.9529986,-0.02818418,-0.1749765,-38.67805,-17.08782,10.12009
22.29145956,7.80640399999998,4.119105,1.785475,0.9670514,-0.01979681,-0.177502,-38.67805,-17.08782,10.12009
22.301319599,7.24736100000001,3.583524,1.724172,0.977917,-0.02308959,-0.1728927,-38.67805,-17.08782,10.12009
22.311179161,6.56408599999997,3.524015,1.417657,0.983307,-0.02499227,-0.173944,-38.67805,-17.08782,10.12009
22.321040154,6.68831799999999,3.226471,1.356354,0.9861836,-0.03328283,-0.1855557,-39.05304,-16.34187,10.49857
22.330899716,6.874665,3.047944,1.417657,0.9892035,-0.0371385,-0.1827561,-39.05304,-16.34187,10.49857
22.340760708,7.30947700000003,2.928926,1.233748,0.9902482,-0.03613445,-0.1770121,-39.05304,-16.34187,10.49857
22.35062027,7.37159299999998,3.345489,1.295051,0.9967026,-0.04142157,-0.1747527,-39.05304,-16.34187,10.49857
22.360481262,6.874665,3.404998,1.233748,0.9856296,-0.02012353,-0.178728,-39.05304,-16.34187,10.49857
22.370340824,6.439854,3.107453,1.049839,0.9763347,-0.02167062,-0.1800462,-39.42476,-16.7057,10.50427
22.38020134,6.06715799999999,2.809908,0.988536299999999,0.9698955,-0.01930854,-0.183768,-39.42476,-16.7057,10.50427
22.390061379,5.197536,2.69089,0.8659304,0.9738966,-0.01680779,-0.1751784,-39.42476,-16.7057,10.50427
22.399921894,4.079449,2.036292,0.2529004,0.9921373,-0.02881299,-0.1755397,-39.42476,-16.7057,10.50427
22.409781933,3.76887,0.965131299999997,0.1302944,0.9910634,-0.04433699,-0.160321,-39.42476,-16.7057,10.50427
22.42210722,2.153856,-0.1060295,0.682021400000003,0.9813809,-0.03463024,-0.1442875,-39.42476,-16.7057,10.50427
22.431967735,0.663074000000001,-0.998663500000001,0.988536299999999,0.9849396,-0.0443261,-0.1429824,-39.42476,-16.7057,10.50427
22.441827774,0.725189899999998,-2.069824,1.049839,0.988811,-0.05016217,-0.1512333,-39.42476,-16.7057,10.50427
22.45168829,1.470581,-3.617057,0.804627399999999,0.9936246,-0.0364708,-0.1449567,-39.42476,-16.7057,10.50427
22.461548329,1.781161,-5.164289,0.682021400000003,0.9880489,-0.02827417,-0.1519961,-39.42476,-16.7057,10.50427
22.471408844,0.663074000000001,-6.11643200000001,0.620718400000002,0.9932504,-0.05108916,-0.1493876,-39.42752,-16.71104,10.12019
22.481268883,0.725189899999998,-6.77103000000002,0.620718400000002,1.005222,-0.08216587,-0.1598836,-39.42752,-16.71104,10.12019
22.491129398,1.781161,-7.66366400000002,0.804627399999999,1.018483,-0.1015629,-0.1731747,-39.42752,-16.71104,10.12019
22.500989437,2.340204,-8.25875400000001,1.233748,1.01611,-0.1054696,-0.1712571,-39.42752,-16.71104,10.12019
22.510849953,1.097885,-9.21089600000002,1.846778,1.002825,-0.08852033,-0.1618199,-39.42752,-16.71104,10.12019
22.520709992,-2.815417,-10.22255,2.70502,1.001318,-0.07633907,-0.1540284,-38.66885,-17.07,11.40037
22.530570507,-12.5055,-11.29371,4.54411,1.016148,-0.1185057,-0.1440533,-38.66885,-17.07,11.40037
22.540430546,-18.71709,-13.37652,8.71271399999999,0.9957645,-0.1952928,-0.1995187,-38.66885,-17.07,11.40037
22.550291062,-21.32596,-13.79308,10.00008,1.022597,-0.1399056,-0.1563058,-38.66885,-17.07,11.40037
22.5601511,-28.22083,-13.79308,12.20698,1.016619,-0.139012,-0.163401,-38.66885,-17.07,11.40037
22.570011616,-34.86723,-14.98326,14.16868,1.018964,-0.1497602,-0.1802971,-39.04781,-16.70378,10.95043
22.579871654,-40.76824,-14.80474,16.80471,1.040764,-0.1446084,-0.155646,-39.04781,-16.70378,10.95043
22.58973217,-43.00441,-9.270405,19.93116,1.103775,-0.128318,-0.1127994,-39.04781,-16.70378,10.95043
22.602057457,-46.60714,-1.831789,19.93116,1.009716,-0.1101475,-0.1060343,-39.04781,-16.70378,10.95043
22.611917496,-50.33409,-5.81888699999998,21.83156,1.010893,-0.1395112,-0.1532604,-38.29914,-16.33803,11.3909
22.621778011,-53.19142,-5.64036,23.11892,1.018563,-0.1121457,-0.1406796,-38.29914,-16.33803,11.3909
22.63163805,-61.4528399999999,-11.29371,25.01931,0.9502395,-0.1357877,-0.1849501,-38.29914,-16.33803,11.3909
22.641498566,-68.0992399999998,-16.05442,28.45228,0.9648148,-0.1697271,-0.1864027,-38.29914,-16.33803,11.3909
22.651358604,-73.4412099999997,-20.16054,31.27222,0.9775175,-0.1613192,-0.1802832,-38.29914,-16.33803,11.3909
22.66121912,-78.5347100000002,-23.255,33.35652,0.9739692,-0.1750552,-0.2014333,-39.42033,-16.32508,11.39669
22.671079159,-83.6903399999999,-25.75438,35.31821,0.989144,-0.1837062,-0.2084314,-39.42033,-16.32508,11.39669
22.680939674,-88.1626799999998,-28.61081,36.85079,0.9934529,-0.1934584,-0.2239095,-39.42033,-16.32508,11.39669
22.690799713,-91.7653999999997,-32.41938,39.42552,0.9851056,-0.2639808,-0.3240591,-39.42033,-16.32508,11.39669
22.700660229,-89.65347,-38.5488,45.188,0.9858941,-0.4162178,-0.4360502,-39.42033,-16.32508,11.39669
22.710520267,-75.9258500000002,-44.73773,52.91217,1.027731,-0.5474626,-0.4971749,-39.42033,-16.32508,11.39669
22.720380783,-56.17299,-50.62912,60.0233199999998,1.050667,-0.6242796,-0.5331316,-38.67487,-15.96556,11.38906
22.730240822,-35.5505,-56.81804,65.0501599999997,1.060229,-0.6308211,-0.4834864,-38.67487,-15.96556,11.38906
22.740101337,-18.3444,-60.0315200000002,67.3796799999998,1.062365,-0.5674182,-0.4503962,-38.67487,-15.96556,11.38906
22.749961376,-8.15738599999999,-64.4351900000003,67.0731700000003,1.05991,-0.4584852,-0.4628595,-38.67487,-15.96556,11.38906
22.759821892,-5.548518,-70.6836199999997,68.1766200000002,1.081441,-0.326877,-0.4543884,-38.67487,-15.96556,11.38906
22.76968193,-13.00243,-78.1817599999999,69.6478899999998,1.115493,-0.2198418,-0.4103633,-38.66095,-15.19452,13.87806
22.782007217,-33.06587,-88.6553299999998,73.4486800000001,1.151084,-0.1694075,-0.4109241,-38.66095,-15.19452,13.87806
22.791867733,-49.27812,-98.5338099999998,76.5751300000003,1.137153,-0.1925421,-0.4482984,-38.66095,-15.19452,13.87806
22.801727772,-59.9620599999999,-107.8767,79.2724599999998,1.167689,-0.2464079,-0.4808153,-38.66095,-15.19452,13.87806
22.811588287,-61.5770699999997,-114.1251,81.9698000000001,1.177019,-0.3072084,-0.4958374,-39.3928,-14.03957,16.87926
22.821448326,-54.24739,-119.2429,82.5828199999998,1.193239,-0.374772,-0.51389,-39.3928,-14.03957,16.87926
22.831308842,-38.96688,-123.1705,81.3567700000002,1.202157,-0.3778615,-0.5801727,-39.3928,-14.03957,16.87926
22.84116888,-21.01538,-126.2055,79.51767,1.212619,-0.3944516,-0.616881,-39.3928,-14.03957,16.87926
22.851029396,-1.324635,-129.2404,76.5138200000001,1.203515,-0.3951029,-0.639279,-39.3928,-14.03957,16.87926
22.860889435,18.17976,-130.4306,72.7130400000001,1.188903,-0.3553153,-0.6353806,-38.98582,-13.23542,22.0549
22.87074995,34.14355,-132.0373,68.6057399999997,1.171328,-0.3383732,-0.617736,-38.98582,-13.23542,22.0549
22.880609989,49.67253,-132.3944,64.9888599999999,1.14161,-0.3346967,-0.6053014,-38.98582,-13.23542,22.0549
22.890470505,63.2137999999999,-132.2754,61.5559000000002,1.078716,-0.3068782,-0.5648759,-38.98582,-13.23542,22.0549
22.900330543,71.2267499999999,-130.9067,58.0616300000003,1.04352,-0.2993713,-0.5561645,-38.98582,-13.23542,22.0549
22.910191059,76.2581400000001,-127.8122,56.16124,0.995087,-0.291013,-0.5486948,-37.1012,-9.877748,26.74833
22.920051098,78.6185500000001,-122.6944,55.18039,0.9584314,-0.3291398,-0.5077623,-37.1012,-9.877748,26.74833
22.929911613,80.6683700000001,-115.9104,54.81257,0.9239227,-0.3542832,-0.5132331,-37.1012,-9.877748,26.74833
22.939771175,82.3455,-108.2338,55.54821,0.8962519,-0.3719104,-0.4770474,-37.1012,-9.877748,26.74833
22.949632168,83.7741700000001,-103.354,57.01948,0.7987481,-0.3641639,-0.5168036,-37.1012,-9.877748,26.74833
22.961957455,83.96052,-93.77309,56.65166,0.7602134,-0.3699802,-0.5493682,-34.45786,-7.995058,31.90107
22.971817017,81.5379899999999,-86.0964400000002,57.6325100000002,0.7015154,-0.3803985,-0.5936643,-34.45786,-7.995058,31.90107
22.981678009,79.4260600000002,-79.6694700000002,57.3872900000002,0.6744782,-0.4057918,-0.5537196,-34.45786,-7.995058,31.90107
22.991537571,78.9291299999999,-73.3020199999998,56.16124,0.6477058,-0.4375918,-0.5358761,-34.45786,-7.995058,31.90107
23.001398563,79.9229800000001,-65.8633999999998,54.87387,0.6254033,-0.4592159,-0.5400535,-34.45786,-7.995058,31.90107
23.011258125,82.4697299999998,-57.1751,54.44475,0.6137374,-0.4719926,-0.5457454,-31.46815,-3.999448,34.85342
23.021119118,84.5195600000001,-48.30827,53.89302,0.587703,-0.4561413,-0.5394902,-31.46815,-3.999448,34.85342
23.03097868,83.7741700000001,-40.86965,54.38345,0.5757735,-0.4318878,-0.5319275,-31.46815,-3.999448,34.85342
23.040839672,80.7926,-33.43103,55.4256,0.5548704,-0.4038545,-0.5333098,-31.46815,-3.999448,34.85342
23.050699234,75.6991,-26.82554,55.97733,0.5428809,-0.3805947,-0.5310259,-31.46815,-3.999448,34.85342
23.060560226,69.4253900000002,-20.75563,57.01948,0.5324343,-0.3719471,-0.5360752,-30.35061,-1.04316,36.54583
23.070419788,64.4561200000002,-13.67407,58.2455400000001,0.5200422,-0.3647783,-0.5415884,-30.35061,-1.04316,36.54583
23.080280304,59.7974299999998,-8.73482500000002,58.7972599999999,0.486327,-0.3617837,-0.5717515,-30.35061,-1.04316,36.54583
23.090140343,56.00835,-4.331164,59.2876900000002,0.4692133,-0.3546097,-0.5647382,-30.35061,-1.04316,36.54583
23.100000858,52.84044,0.727095499999998,59.4102899999999,0.4745957,-0.3392915,-0.515328,-30.35061,-1.04316,36.54583
23.109860897,49.11349,5.90437299999999,58.42945,0.4711187,-0.3221138,-0.468172,-28.87576,2.62105,36.5004
23.119721413,45.57288,11.02214,57.20338,0.4606187,-0.3056698,-0.4702795,-28.87576,2.62105,36.5004
23.1320467,41.22477,16.49696,54.38345,0.4528591,-0.2674203,-0.5033901,-28.87576,2.62105,36.5004
23.141906738,37.49781,20.66259,52.36045,0.4669521,-0.2327924,-0.5157579,-28.87576,2.62105,36.5004
23.151767254,34.26778,24.29263,49.66312,0.4786829,-0.1947447,-0.5189584,-28.87576,2.62105,36.5004
23.161627293,31.09987,26.7325,46.72057,0.4927427,-0.1606145,-0.5342051,-29.26957,6.306843,36.46463
23.171487808,27.49715,27.68464,43.34891,0.5077494,-0.1255081,-0.5508947,-29.26957,6.306843,36.46463
23.181347847,23.14903,27.50612,39.54812,0.4979461,-0.1189003,-0.5823264,-29.26957,6.306843,36.46463
23.191208363,20.22959,27.44661,35.99255,0.4986278,-0.1126293,-0.5985759,-29.26957,6.306843,36.46463
23.201068401,18.92515,26.55397,32.00785,0.4984776,-0.09119014,-0.5907257,-29.26957,6.306843,36.46463
23.210928917,17.06167,24.82821,27.53273,0.4982204,-0.07173444,-0.5924747,-29.28881,8.129763,35.1655
23.220788956,14.76339,22.20982,23.30283,0.5024315,-0.06003267,-0.5962695,-29.28881,8.129763,35.1655
23.230649471,12.27875,20.0675,18.39859,0.5041333,-0.04739412,-0.6038543,-29.28881,8.129763,35.1655
23.24050951,9.42141799999999,17.80616,13.43304,0.495084,-0.02898905,-0.6054868,-29.28881,8.129763,35.1655
23.250370026,7.24736100000001,15.30678,7.24144199999999,0.4921468,-0.01778644,-0.5957664,-29.28881,8.129763,35.1655
23.260230064,5.508115,12.98594,1.356354,0.4969799,-0.008483551,-0.5919232,-29.29483,9.234205,35.15419
23.27009058,3.76887,11.31969,-4.773945,0.4999067,0.003745726,-0.5817986,-29.29483,9.234205,35.15419
23.279950619,1.222117,10.12951,-10.90425,0.5087734,0.01116459,-0.5708407,-29.29483,9.234205,35.15419
23.289811134,-2.070026,9.35589100000001,-16.48282,0.5078184,0.01360372,-0.5669729,-29.29483,9.234205,35.15419
23.299671173,-6.29390900000001,8.87982000000001,-22.00009,0.5076886,0.001496231,-0.5512596,-29.29483,9.234205,35.15419
23.31199646,-11.13895,9.05834700000001,-28.68211,0.525282,-0.007005689,-0.5242678,-29.68178,9.956997,33.8683
23.321856976,-15.36283,9.17736400000001,-33.64766,0.5318775,-0.04336385,-0.5031046,-29.68178,9.956997,33.8683
23.331717014,-18.77921,9.95097999999998,-38.5519,0.5344085,-0.07687041,-0.4904851,-29.68178,9.956997,33.8683
23.34157753,-20.7048,10.84361,-44.06916,0.5419471,-0.09823015,-0.4946064,-29.68178,9.956997,33.8683
23.351437569,-20.76692,13.16446,-49.58644,0.5581902,-0.1161231,-0.5031353,-29.68178,9.956997,33.8683
23.361298084,-19.95941,16.13991,-54.67458,0.5709755,-0.1003682,-0.4844958,-30.42401,9.60372,34.32403
23.371158123,-20.45634,18.99634,-59.76273,0.584894,-0.0729783,-0.4801502,-30.42401,9.60372,34.32403
23.381018639,-23.50002,21.91228,-64.6056700000003,0.6042143,-0.03967609,-0.4691229,-30.42401,9.60372,34.32403
23.390878677,-30.39488,24.94723,-68.8355800000001,0.6144678,-0.04252002,-0.4731266,-30.42401,9.60372,34.32403
23.400739193,-38.71841,27.86317,-71.96204,0.6309798,-0.07205369,-0.4721737,-30.42401,9.60372,34.32403
23.410599232,-45.86174,31.61223,-74.3528500000002,0.646473,-0.1151428,-0.4502358,-31.17189,8.495436,33.44301
23.420459747,-51.51429,35.36129,-77.4792999999999,0.6566545,-0.1821828,-0.4442379,-31.17189,8.495436,33.44301
23.430319786,-52.6945,40.00299,-81.464,0.6806769,-0.2345489,-0.4507725,-31.17189,8.495436,33.44301
23.440180302,-50.45832,45.83487,-85.5099900000002,0.7140515,-0.2819341,-0.4487729,-31.17189,8.495436,33.44301
23.450040341,-46.04809,51.96429,-88.5138400000001,0.7338129,-0.3061168,-0.4559674,-31.17189,8.495436,33.44301
23.459900856,-40.39555,56.90353,-92.3146299999998,0.7556344,-0.2709595,-0.4751498,-31.91048,5.172922,32.20053
23.469760895,-37.72456,62.1403199999998,-96.9123500000002,0.7875382,-0.1797546,-0.4949611,-31.91048,5.172922,32.20053
23.482086182,-42.88018,68.2697399999998,-102.8587,0.8159604,-0.0874847,-0.4821283,-31.91048,5.172922,32.20053
23.491946697,-56.6078,72.0187999999999,-106.7208,0.866657,-0.2710941,-0.5136316,-31.91048,5.172922,32.20053
23.501806736,-59.1545499999999,75.3512999999998,-106.1078,0.8750064,-0.3558273,-0.5499264,-31.91048,5.172922,32.20053
23.511667252,-54.62009,76.8390199999998,-106.966,0.9173129,-0.3876103,-0.5608609,-34.51893,1.497604,30.52339
23.52152729,-48.47062,78.1482199999998,-107.4565,0.9493139,-0.4121701,-0.5677537,-34.51893,1.497604,30.52339
23.531387806,-41.14093,79.87398,-108.2534,0.9668726,-0.3761706,-0.6117866,-34.51893,1.497604,30.52339
23.541247845,-39.65015,81.2426800000002,-109.2956,1.029939,-0.4700684,-0.625937,-34.51893,1.497604,30.52339
23.55110836,-32.75529,82.5518800000002,-107.5178,1.044073,-0.5365744,-0.6166366,-34.51893,1.497604,30.52339
23.560968399,-20.45634,80.4095599999999,-107.3952,1.054977,-0.5100746,-0.5830243,-36.38833,-2.946697,27.12155
23.570828915,-10.02086,79.5764299999999,-107.8856,1.058538,-0.4194654,-0.5650592,-36.38833,-2.946697,27.12155
23.580688953,-5.98332900000001,78.0887099999999,-109.786,1.070971,-0.360982,-0.5704933,-36.38833,-2.946697,27.12155
23.590549469,-5.610633,76.4819700000001,-110.5829,1.070347,-0.3650659,-0.6198764,-36.38833,-2.946697,27.12155
23.600409508,-1.573099,73.0899599999997,-111.3186,1.075036,-0.3870507,-0.654152,-36.38833,-2.946697,27.12155
23.610270023,6.75043299999998,69.2218799999999,-111.3799,1.085982,-0.3844618,-0.6384725,-37.1429,-6.238146,23.70197
23.620130062,16.3784,64.7587100000002,-112.9124,1.105774,-0.396295,-0.5966849,-37.1429,-6.238146,23.70197
23.629990578,25.44732,60.7121,-114.8128,1.101281,-0.4940876,-0.5816327,-37.1429,-6.238146,23.70197
23.63985014,36.62819,55.95139,-111.0733,1.094542,-0.6113743,-0.5691088,-37.1429,-6.238146,23.70197
23.649711132,51.90871,51.60723,-106.1078,1.093433,-0.5860325,-0.5564199,-37.1429,-6.238146,23.70197
23.662036419,61.9093699999999,47.02505,-99.5483900000001,1.097541,-0.5040555,-0.5059499,-37.5214,-9.963417,20.28487
23.671895981,63.4622699999999,42.91893,-94.39893,1.099549,-0.4397128,-0.4814755,-37.5214,-9.963417,20.28487
23.681756973,62.7789899999997,36.37295,-91.0885699999999,1.104662,-0.3870129,-0.4547477,-37.5214,-9.963417,20.28487
23.691616535,61.78514,32.38585,-87.6555999999999,1.146404,-0.3128766,-0.378045,-37.5214,-9.963417,20.28487
23.701477528,56.00835,27.98219,-82.4448500000002,1.148019,-0.2367935,-0.3362148,-37.5214,-9.963417,20.28487
23.711337089,41.41111,20.96013,-77.418,1.154248,-0.1753927,-0.327639,-38.26998,-12.56122,18.20267
23.721198082,21.65825,12.68839,-72.9428799999999,1.140209,-0.187682,-0.3275427,-38.26998,-12.56122,18.20267
23.731057644,5.81869499999997,5.249775,-67.9773399999999,1.110146,-0.2691381,-0.3076752,-38.26998,-12.56122,18.20267
23.740918636,-1.448867,-2.010315,-63.3796099999998,1.081783,-0.3477207,-0.3041006,-38.26998,-12.56122,18.20267
23.750778198,-1.200403,-8.08022700000001,-59.39492,1.077524,-0.3690654,-0.2764264,-38.26998,-12.56122,18.20267
23.760638714,0.663074000000001,-11.47224,-56.39107,1.063638,-0.3541058,-0.2770607,-37.89023,-13.66998,18.21205
23.770498753,0.4146104,-14.74523,-53.75504,1.033305,-0.3393754,-0.2999848,-37.89023,-13.66998,18.21205
23.780359268,0.1040308,-19.26791,-51.24162,1.014069,-0.3304481,-0.3394089,-37.89023,-13.66998,18.21205
23.790219307,-0.2686647,-20.75563,-47.74734,1.034279,-0.3247212,-0.2874158,-37.89023,-13.66998,18.21205
23.800079822,-0.889823900000002,-20.39858,-42.35268,1.034617,-0.3295071,-0.2668555,-37.89023,-13.66998,18.21205
23.809939861,-1.945794,-20.63661,-37.87756,1.036699,-0.3152955,-0.2452012,-37.51814,-15.16559,16.88091
23.819800377,-4.741011,-20.27956,-32.60551,1.032949,-0.331748,-0.2117427,-37.51814,-15.16559,16.88091
23.829660416,-5.486402,-19.32742,-27.21084,1.028043,-0.3633951,-0.2047518,-37.51814,-15.16559,16.88091
23.841986656,-0.703476100000001,-18.37527,-22.3066,1.025763,-0.3872924,-0.2135466,-37.51814,-15.16559,16.88091
23.851846218,5.508115,-17.66117,-19.24145,1.026818,-0.3673799,-0.226332,-37.51814,-15.16559,16.88091
23.861707211,10.47739,-16.64951,-16.85064,1.023354,-0.3470511,-0.2471958,-37.88663,-15.52319,17.33471
23.871566772,14.14223,-16.11393,-14.33721,1.022356,-0.3086306,-0.250691,-37.88663,-15.52319,17.33471
23.881427288,14.8255,-15.39983,-12.13031,1.028309,-0.2743792,-0.2145468,-37.88663,-15.52319,17.33471
23.891287327,13.45895,-12.95996,-9.98470000000001,1.025531,-0.2650839,-0.1947816,-37.88663,-15.52319,17.33471
23.901147366,12.03029,-10.5796,-7.04215600000001,1.018691,-0.2646539,-0.1937221,-37.88663,-15.52319,17.33471
23.911007881,11.34701,-7.96120899999999,-4.283521,1.013405,-0.2682273,-0.2257832,-37.13316,-16.63626,17.34216
23.920868397,10.97432,-5.283307,-1.58619,1.009419,-0.2604709,-0.2242234,-37.13316,-16.63626,17.34216
23.930728436,11.09855,-2.248351,1.417657,1.01085,-0.2585154,-0.2251857,-37.13316,-16.63626,17.34216
23.940588951,11.59548,0.370042,4.053687,0.9919891,-0.2514342,-0.2387539,-37.13316,-16.63626,17.34216
23.95044899,11.47124,2.928926,6.62841199999998,0.9833394,-0.2276799,-0.2422637,-37.13316,-16.63626,17.34216
23.960309029,10.04258,6.737498,8.77401600000001,0.9813802,-0.2208627,-0.2364279,-36.75022,-16.62276,18.6205
23.970169544,9.297187,9.29638199999997,10.79702,0.9649746,-0.2244981,-0.2587471,-36.75022,-16.62276,18.6205
23.98003006,10.16681,11.55772,12.69741,0.9583541,-0.2129114,-0.2676597,-36.75022,-16.62276,18.6205
23.989890099,10.16681,13.81906,13.49435,0.9541401,-0.1837382,-0.2639991,-36.75022,-16.62276,18.6205
23.999750614,8.676027,16.31844,14.4752,0.9508572,-0.1599402,-0.2685435,-36.75022,-16.62276,18.6205
24.012075901,6.37773799999999,18.57978,14.78171,0.9328822,-0.1281122,-0.3030002,-37.50446,-15.88318,18.23274
24.02193594,3.396174,19.4129,15.21083,0.9563764,-0.1414357,-0.2780499,-37.50446,-15.88318,18.23274
24.031796455,2.588667,21.25768,16.25298,0.9636928,-0.1671177,-0.266391,-37.50446,-15.88318,18.23274
24.041656494,3.76887,22.03129,16.74341,0.9623988,-0.1905161,-0.2742372,-37.50446,-15.88318,18.23274
24.05151701,5.94292600000003,22.62638,17.35644,0.9749581,-0.1953312,-0.2902704,-37.50446,-15.88318,18.23274
24.061377049,7.68217200000001,23.10246,18.82771,0.9940544,-0.1849044,-0.2799122,-37.50969,-15.52127,17.78087
24.071237564,8.80025999999999,22.86442,20.54419,0.997502,-0.1819381,-0.2756235,-37.50969,-15.52127,17.78087
24.081097603,9.42141799999999,22.98344,21.89286,1.00446,-0.1818462,-0.2675755,-37.50969,-15.52127,17.78087
24.090958118,10.47739,22.80491,22.6898,1.005741,-0.1804218,-0.2800409,-37.50969,-15.52127,17.78087
24.100818157,11.84394,22.50737,23.36413,1.002174,-0.1804928,-0.2905331,-37.50969,-15.52127,17.78087
24.110678673,11.90605,22.0908,24.22237,1.015399,-0.2056236,-0.2755993,-37.88462,-15.89134,17.33848
24.120538712,11.78182,22.50737,26.67449,1.029257,-0.2346148,-0.2535191,-37.88462,-15.89134,17.33848
24.130399227,10.53951,23.10246,30.78179,1.031367,-0.2573652,-0.2264268,-37.88462,-15.89134,17.33848
24.140259266,6.56408599999997,23.16196,35.0117,1.027718,-0.2597657,-0.2091438,-37.88462,-15.89134,17.33848
24.150119782,-0.951939799999999,23.28098,39.36421,1.039924,-0.2902871,-0.2019082,-37.88462,-15.89134,17.33848
24.15997982,-8.03315400000002,24.23313,44.69757,1.059389,-0.3328366,-0.1752304,-37.89387,-14.79313,16.87907
24.169840336,-15.2386,24.94723,50.70527,1.059412,-0.3605239,-0.1620468,-37.89387,-14.79313,16.87907
24.179700375,-24.43176,25.83987,56.28384,1.06267,-0.3750527,-0.1511942,-37.89387,-14.79313,16.87907
24.192025662,-37.16552,27.03004,62.23023,1.068862,-0.3939498,-0.144254,-37.89387,-14.79313,16.87907
24.201886177,-46.11021,28.27973,66.3988300000002,1.070101,-0.4285309,-0.155585,-37.89387,-14.79313,16.87907
24.211746216,-53.31565,28.7558,70.7513399999997,1.073246,-0.4748266,-0.180939,-38.6461,-14.4217,16.49508
24.221606731,-57.3531900000002,28.45826,74.3682200000002,1.076883,-0.501588,-0.1888838,-38.6461,-14.4217,16.49508
24.23146677,-60.6453299999998,28.51777,77.73988,1.08736,-0.54245,-0.2099836,-38.6461,-14.4217,16.49508
24.241327286,-61.8876500000001,27.68464,81.90849,1.095176,-0.5702127,-0.2352476,-38.6461,-14.4217,16.49508
24.251187325,-60.9559100000002,26.31594,86.1997000000002,1.138587,-0.5703514,-0.2449723,-38.6461,-14.4217,16.49508
24.26104784,-59.2787799999998,24.82821,91.2265499999998,1.168458,-0.5386142,-0.2868206,-39.02785,-12.94479,16.48193
24.270907879,-58.0364600000001,21.85277,96.4373000000001,1.196062,-0.5044062,-0.3132812,-39.02785,-12.94479,16.48193
24.280768395,-56.85626,18.40125,101.2802,1.195615,-0.4942809,-0.3371494,-39.02785,-12.94479,16.48193
24.290628433,-52.25969,14.17612,106.1845,1.171438,-0.4969934,-0.3545581,-39.02785,-12.94479,16.48193
24.300488949,-45.86174,8.403749,109.4948,1.14457,-0.4851504,-0.3770768,-39.02785,-12.94479,16.48193
24.310348988,-38.09726,2.869417,109.6787,1.116901,-0.4766832,-0.3895494,-40.15829,-11.83363,16.02832
24.320209503,-27.04062,-2.90295,107.3492,1.127799,-0.4722904,-0.4117108,-40.15829,-11.83363,16.02832
24.330069542,-12.25704,-8.615807,104.1002,1.169549,-0.4754266,-0.4382091,-40.15829,-11.83363,16.02832
24.339930058,5.383883,-14.03112,101.035,1.175951,-0.4383882,-0.4384669,-40.15829,-11.83363,16.02832
24.349790096,20.2917,-19.9225,97.5407599999998,1.172425,-0.4325886,-0.4407637,-40.15829,-11.83363,16.02832
24.359650612,35.63433,-25.69487,94.4755999999997,1.166123,-0.3967703,-0.4767908,-40.54084,-9.614195,16.45572
24.371975899,51.22543,-35.2163,91.53306,1.153304,-0.3910526,-0.4789558,-40.54084,-9.614195,16.45572
24.381835938,62.8411099999998,-42.11934,89.0196399999997,1.16152,-0.4001489,-0.4585441,-40.54084,-9.614195,16.45572
24.391696453,76.44449,-48.30827,86.5675199999999,1.158507,-0.3958029,-0.4603813,-40.54084,-9.614195,16.45572
24.401556492,88.1222800000001,-53.24751,83.44106,1.148205,-0.356491,-0.4637363,-40.54084,-9.614195,16.45572
