Time (s),Gyroscope X (deg/s),Gyroscope Y (deg/s),Gyroscope Z (deg/s),Accelerometer X (g),Accelerometer Y (g),Accelerometer Z (g),Magnetometer X (uT),Magnetometer Y (uT),Magnetometer Z (uT)
0,0.5694358,12.02768,-8.662713,0.9150771,0.0367114,0.3291213,-56.86891,6.280924,-2.13994
0.027187347,-7.885434,6.96723,-9.151444,0.9138503,-0.03432339,0.3333262,-56.86891,6.280924,-2.13994
0.029658794,-7.823266,6.73186,-8.907079,0.9162585,-0.03769366,0.3362315,-56.86891,6.280924,-2.13994
0.039545059,-6.766407,6.319963,-8.357256,0.9088899,-0.06499144,0.3334755,-56.86891,6.280924,-2.13994
0.049431801,-5.087867,5.966908,-7.501976,0.913215,-0.07816203,0.3325852,-57.23211,5.892878,-2.986302
0.059317589,-3.098486,5.672696,-6.463423,0.9136564,-0.09181907,0.3312119,-57.23211,5.892878,-2.986302
0.06920433,-1.544282,5.319641,-5.852509,0.915606,-0.09386418,0.3249725,-57.23211,5.892878,-2.986302
0.079090118,-0.3630867,4.554688,-5.302687,0.9210143,-0.08734515,0.3057089,-57.23211,5.892878,-2.986302
0.091448307,-0.1765822,2.907099,-5.363778,0.9331568,-0.07796611,0.3157746,-57.23211,5.892878,-2.986302
0.101335049,-0.1765822,1.730249,-5.363778,0.9390045,-0.0686681,0.3195817,-56.47887,5.503767,-2.963838
0.111220837,-0.4252549,1.612564,-5.974692,0.9341606,-0.05876854,0.3296255,-56.47887,5.503767,-2.963838
0.121107578,-0.4252549,0.4945571,-6.035783,0.9206035,-0.05347877,0.3233314,-56.47887,5.503767,-2.963838
0.130993366,-1.109105,-0.09386778,-6.34124,0.9171996,-0.05393023,0.3252534,-56.47887,5.503767,-2.963838
0.140880108,-1.855123,-0.9176625,-6.463423,0.9287863,-0.06052598,0.3416513,-56.47887,5.503767,-2.963838
0.150765896,-2.725477,-1.153032,-6.280149,0.9301915,-0.06816899,0.3517908,-56.85583,5.509293,-2.972418
0.160652638,-2.725477,-0.3880802,-5.730326,0.9354897,-0.07090704,0.3647955,-56.85583,5.509293,-2.972418
0.170538425,-2.352468,0.4945571,-5.302687,0.9325677,-0.06735603,0.3739118,-56.85583,5.509293,-2.972418
0.180425167,-2.103795,1.612564,-4.630681,0.9340181,-0.06732295,0.3763179,-56.85583,5.509293,-2.972418
0.190310955,-2.041627,2.907099,-4.386316,0.9408749,-0.05229855,0.3724024,-56.85583,5.509293,-2.972418
0.200197697,-2.538972,3.495524,-4.019767,0.9447999,-0.04958591,0.3589273,-56.86566,4.383468,-2.502537
0.210083485,-3.844504,3.907421,-4.080859,0.9380017,-0.04607036,0.3651538,-56.86566,4.383468,-2.502537
0.219970226,-5.896053,3.672051,-3.592128,0.9331814,-0.04378425,0.3545565,-56.86566,4.383468,-2.502537
0.229856968,-7.761098,3.436681,-3.042305,0.92493,-0.04476342,0.3531093,-56.86566,4.383468,-2.502537
0.239742756,-8.817957,3.377839,-2.859031,0.9307559,-0.04975946,0.3454465,-56.86566,4.383468,-2.502537
0.249629498,-8.693621,3.201311,-2.920122,0.9210629,-0.05928713,0.3257658,-57.98209,4.384533,-3.371363
0.259515286,-7.636762,2.789414,-2.920122,0.9244594,-0.05928665,0.3262506,-57.98209,4.384533,-3.371363
0.269402027,-6.455566,2.083304,-2.675757,0.9239857,-0.0663259,0.3113771,-57.98209,4.384533,-3.371363
0.279287815,-4.839194,0.847612,-2.492483,0.9191151,-0.07815405,0.301332,-57.98209,4.384533,-3.371363
0.289174557,-2.663309,-0.03502529,-2.675757,0.9171216,-0.08777408,0.309073,-57.98209,4.384533,-3.371363
0.299060822,-0.3009185,-0.4469227,-2.920122,0.9180585,-0.09651946,0.3105611,-57.60444,4.757066,-3.368087
0.311418533,4.050853,-0.6234501,-2.79794,0.9127277,-0.09208324,0.3134181,-57.60444,4.757066,-3.368087
0.321305275,7.221429,-0.85882,-2.79794,0.9152121,-0.07254544,0.3176505,-57.60444,4.757066,-3.368087
0.331191063,9.583819,-1.56493,-3.408854,0.9158195,-0.04345904,0.3088476,-57.60444,4.757066,-3.368087
0.341077805,10.08116,-2.565252,-4.325224,0.9226608,-0.02485342,0.3164561,-57.60444,4.757066,-3.368087
0.350963593,9.459483,-3.683259,-5.302687,0.9222005,-0.01057998,0.3264828,-57.59666,4.748713,-3.822057
0.360850334,8.029615,-4.271684,-6.463423,0.9294691,-0.007034713,0.3365725,-57.59666,4.748713,-3.822057
0.370737076,6.53758,-4.095157,-7.379794,0.9357255,-0.005713706,0.360619,-57.59666,4.748713,-3.822057
0.380622864,5.791562,-3.447889,-8.11289,0.9414781,-0.0177119,0.3731901,-57.59666,4.748713,-3.822057
0.390509605,5.294216,-2.859464,-8.907079,0.9356542,-0.01919719,0.3707864,-57.59666,4.748713,-3.822057
0.400395393,5.107712,-2.094512,-9.090353,0.9428611,-0.02969428,0.3862371,-56.85913,3.682006,-2.946782
0.410282135,5.232048,-0.7999775,-8.907079,0.952031,-0.04679879,0.3834485,-56.85913,3.682006,-2.946782
0.420167923,5.605057,0.2003446,-8.357256,0.9442249,-0.05797603,0.383977,-56.85913,3.682006,-2.946782
0.430054665,6.226739,1.200667,-7.624159,0.9514402,-0.07947361,0.3802464,-56.85913,3.682006,-2.946782
0.439940453,7.594438,1.906777,-6.646697,0.9557874,-0.09228669,0.3706977,-56.85913,3.682006,-2.946782
0.449827194,10.14333,2.730572,-5.241595,0.9470271,-0.106055,0.360658,-56.48354,2.920362,-2.927594
0.459712982,13.12741,3.436681,-4.264133,0.9417341,-0.1058379,0.341895,-56.48354,2.920362,-2.927594
0.469599724,15.80064,4.201633,-3.225579,0.9277604,-0.08107653,0.335021,-56.48354,2.920362,-2.927594
0.479486466,17.29267,4.025106,-2.79794,0.9254876,-0.04273237,0.3261681,-56.48354,2.920362,-2.927594
0.489372254,16.48449,2.612886,-2.859031,0.9217634,-0.005409587,0.3139522,-56.48354,2.920362,-2.927594
0.499258995,13.18957,0.08265968,-3.164488,0.9087327,0.01604197,0.313829,-56.84673,2.532316,-3.773957
0.509144783,8.962138,-2.329882,-3.347762,0.9160646,0.0321256,0.3156798,-56.84673,2.532316,-3.773957
0.521502972,4.672534,-4.212842,-4.203042,0.9174848,0.03284699,0.3315482,-56.84673,2.532316,-3.773957
0.531389713,2.496649,-4.683581,-4.56959,0.9096763,0.02666147,0.3402271,-56.84673,2.532316,-3.773957
0.541275501,1.377622,-4.565897,-5.241595,0.9081631,0.01259324,0.3436629,-56.84673,2.532316,-3.773957
0.551162243,1.377622,-4.507054,-5.058321,0.9124718,-0.005948142,0.3418378,-57.23147,2.546195,-3.328567
0.561048031,1.377622,-5.213164,-4.630681,0.9134163,-0.02021535,0.3322926,-57.23147,2.546195,-3.328567
0.570934772,1.626294,-6.154644,-4.14195,0.9216436,-0.03351586,0.3232317,-57.23147,2.546195,-3.328567
0.580821514,1.937135,-7.390336,-3.653219,0.9265524,-0.0274037,0.3092596,-57.23147,2.546195,-3.328567
0.590707302,2.558817,-8.390658,-3.408854,0.9333175,-0.02971523,0.3184165,-57.23147,2.546195,-3.328567
0.600594044,2.745321,-8.861399,-3.286671,0.9289938,-0.0175473,0.3173882,-57.6151,2.55888,-2.94803
0.610479832,2.80749,-9.802878,-3.103397,0.9261048,-0.01818671,0.3068079,-57.6151,2.55888,-2.94803
0.620366573,2.683153,-10.97973,-2.79794,0.9149412,-0.01816465,0.3067951,-57.6151,2.55888,-2.94803
0.630252361,2.310144,-12.45079,-2.003752,0.9134626,-0.02697716,0.3034715,-57.6151,2.55888,-2.94803
0.640139103,1.937135,-13.86301,-1.576112,0.9139476,-0.0324496,0.295805,-57.6151,2.55888,-2.94803
0.650024891,2.185808,-15.15754,-1.209563,0.91687,-0.03252008,0.2914804,-57.62177,2.566041,-2.558913
0.659911632,2.683153,-16.74629,-1.026289,0.923658,-0.03298449,0.2938951,-57.62177,2.566041,-2.558913
0.669798374,2.993994,-17.92314,-0.2931925,0.9343525,-0.02663933,0.2962798,-57.62177,2.566041,-2.558913
0.679684162,3.242667,-19.15883,0.1344473,0.9338734,-0.02717566,0.2929155,-57.62177,2.566041,-2.558913
0.689570904,2.993994,-20.62989,0.867544,0.9324184,-0.0261845,0.2938707,-57.62177,2.566041,-2.558913
0.699456692,2.496649,-21.80675,1.417367,0.9338792,-0.03019802,0.2861979,-57.62955,2.574393,-2.104944
0.709343433,1.874967,-22.98359,2.02828,0.9328921,-0.03357596,0.2881375,-57.62955,2.574393,-2.104944
0.719229221,1.253286,-24.21929,2.394829,0.9304321,-0.04978425,0.2785982,-57.62955,2.574393,-2.104944
0.729115963,1.191117,-25.51382,2.944651,0.9299179,-0.05706592,0.2800772,-57.62955,2.574393,-2.104944
0.741473675,0.9424447,-26.98488,4.105388,0.9449378,-0.07185508,0.2700696,-57.62955,2.574393,-2.104944
0.751360416,1.43979,-27.22025,5.08285,0.9478387,-0.07178892,0.2748818,-57.28038,2.598701,-0.4750433
0.761246204,1.937135,-28.69131,6.060313,0.9444162,-0.07859227,0.2753932,-57.28038,2.598701,-0.4750433
0.771132946,2.869658,-29.39742,7.037775,0.9488147,-0.07530734,0.2676869,-57.28038,2.598701,-0.4750433
0.781019211,3.553508,-30.04469,8.198511,0.9551607,-0.06659072,0.2652454,-57.28038,2.598701,-0.4750433
0.790905476,4.175189,-30.51543,9.481431,0.9575905,-0.0681067,0.2618894,-57.28038,2.598701,-0.4750433
0.80079174,4.361694,-31.51575,10.09234,0.9673108,-0.06273351,0.2642779,-56.55356,2.99554,1.158133
0.810678005,4.299526,-31.80997,11.37526,0.9735988,-0.07007174,0.2628794,-56.55356,2.99554,1.158133
0.820564747,4.361694,-32.10418,12.59709,0.9731339,-0.06820931,0.2570984,-56.55356,2.99554,1.158133
0.830450535,4.237358,-32.45723,13.57455,0.9765197,-0.07361558,0.254244,-56.55356,2.99554,1.158133
0.840337276,4.175189,-32.6926,14.6742,0.9741178,-0.07177807,0.2465373,-56.55356,2.99554,1.158133
0.850223541,4.237358,-33.16334,15.71275,0.9813555,-0.08047839,0.2518796,-57.3286,3.029265,2.373176
0.860109806,4.050853,-33.22218,16.69021,0.9852589,-0.0776291,0.2475414,-57.3286,3.029265,2.373176
0.869996071,3.615676,-33.04566,17.66768,0.987248,-0.07096671,0.2374106,-57.3286,3.029265,2.373176
0.879882336,3.242667,-33.04566,18.76732,0.9911157,-0.07336597,0.2403127,-57.3286,3.029265,2.373176
0.889769077,2.931826,-32.75145,19.86697,0.9915944,-0.07730564,0.2374476,-57.3286,3.029265,2.373176
0.899654865,3.056162,-32.45723,20.41679,0.9940434,-0.07695295,0.228792,-57.34835,3.808057,3.594772
0.909541607,2.683153,-31.63344,20.96661,0.9916278,-0.07204273,0.2311691,-57.34835,3.808057,3.594772
0.919427872,2.310144,-31.39807,21.27207,0.9959432,-0.08963179,0.2278964,-57.34835,3.808057,3.594772
0.929314136,2.745321,-28.27942,22.24953,1.028799,-0.09820826,0.277512,-57.34835,3.808057,3.594772
0.939200401,2.061472,-29.33858,22.37171,0.9891605,-0.08770654,0.2254744,-57.34835,3.808057,3.594772
0.949086666,2.372312,-28.33826,23.1659,0.992608,-0.08205687,0.2129458,-56.99961,4.211617,5.284221
0.961444855,2.247976,-28.04405,22.73826,0.994049,-0.09241507,0.2043432,-56.99961,4.211617,5.284221
0.971331596,3.740012,-27.45562,23.04372,0.9960183,-0.08712003,0.2004713,-56.99961,4.211617,5.284221
0.981217384,4.299526,-26.57299,22.55499,1.006682,-0.09799779,0.19092,-56.99961,4.211617,5.284221
0.991104126,4.610366,-25.63151,22.43281,1.004328,-0.08053483,0.1860199,-56.71842,5.694424,7.346329
1.000989914,3.926517,-24.98424,21.51643,1.015968,-0.08299258,0.1860455,-56.71842,5.694424,7.346329
1.010876656,3.988685,-24.74887,20.84443,1.010162,-0.07712332,0.1869711,-56.71842,5.694424,7.346329
1.020763397,4.48603,-23.6897,19.86697,1.006736,-0.09186885,0.1774233,-56.71842,5.694424,7.346329
1.030649185,4.859039,-22.86591,18.52296,1.010618,-0.09485574,0.1735954,-56.71842,5.694424,7.346329
1.040535927,5.294216,-21.80675,18.09532,1.009166,-0.09935763,0.1654409,-55.59883,6.826344,8.134391
1.050421715,5.542889,-20.33568,17.30113,1.005749,-0.1071924,0.1621101,-55.59883,6.826344,8.134391
1.060308456,4.548198,-21.21832,13.51346,1.019197,-0.1247329,0.1958785,-55.59883,6.826344,8.134391
1.070194244,4.983376,-17.39356,14.6742,1.00235,-0.1076726,0.1621087,-55.59883,6.826344,8.134391
1.080080986,5.605057,-15.68713,13.9411,0.9960546,-0.1047673,0.1601631,-55.59883,6.826344,8.134391
1.089967728,6.661916,-14.15722,12.65818,0.9965524,-0.1008655,0.1606249,-55.9883,7.91855,8.953869
1.099853516,6.84842,-12.27426,11.31417,0.9936097,-0.1096247,0.1606658,-55.9883,7.91855,8.953869
1.109740257,7.221429,-10.50899,10.45889,0.9868364,-0.1002946,0.1649393,-55.9883,7.91855,8.953869
1.119626045,6.84842,-8.802556,9.175974,0.986837,-0.098805,0.1668554,-55.9883,7.91855,8.953869
1.129512787,6.599748,-7.213809,7.893054,0.9834422,-0.1013049,0.162055,-55.9883,7.91855,8.953869
1.139399529,6.661916,-5.448534,6.793409,0.9853854,-0.09883089,0.1649302,-55.62511,8.306597,9.800231
1.149285317,6.351075,-4.330527,5.693764,0.9859138,-0.09213685,0.1567214,-55.62511,8.306597,9.800231
1.159172058,6.226739,-2.977149,4.410845,0.9902708,-0.09306903,0.1600975,-55.62511,8.306597,9.800231
1.169057846,5.356384,-0.5646076,2.517012,1.001939,-0.09868579,0.1442687,-55.62511,8.306597,9.800231
1.181415558,4.734703,-0.6234501,1.356275,0.9888288,-0.09066738,0.1576791,-55.62511,8.306597,9.800231
1.1913023,4.734703,0.4945571,0.07335586,0.98979,-0.09409232,0.1567356,-56.00612,9.76851,10.16044
1.201188564,4.921207,1.377194,-1.148472,0.9878905,-0.08838175,0.1475671,-56.00612,9.76851,10.16044
1.211074829,4.548198,2.495202,-2.553574,0.9912801,-0.08833813,0.1509372,-56.00612,9.76851,10.16044
1.220961571,4.361694,3.672051,-3.71431,0.9888757,-0.08051342,0.1528186,-56.00612,9.76851,10.16044
1.230847359,3.80218,5.025428,-4.813955,0.9888864,-0.07610213,0.15472,-56.00612,9.76851,10.16044
1.2407341,3.11833,6.143435,-5.9136,0.9850299,-0.06879745,0.1541978,-55.62306,9.440775,9.78432
1.250619888,1.999303,7.2026,-6.707788,0.9816493,-0.06591219,0.1512938,-55.62306,9.440775,9.78432
1.26050663,0.8802766,8.085238,-7.868525,0.9826059,-0.06831289,0.1537117,-55.62306,9.440775,9.78432
1.270393372,-0.487423,9.262087,-8.54053,0.9840468,-0.07170282,0.1551732,-55.62306,9.440775,9.78432
1.28027916,-1.855123,9.791669,-9.39581,0.9850362,-0.07033019,0.1493963,-55.62306,9.440775,9.78432
1.290165901,-2.974149,10.49778,-10.55655,0.9893861,-0.07868166,0.1451152,-54.86248,9.422563,9.412363
1.300051689,-3.720167,11.0862,-11.41183,0.9874361,-0.08011708,0.146563,-54.86248,9.422563,9.412363
1.309938431,-4.341849,11.32157,-12.20601,0.9917871,-0.08748025,0.1432387,-54.86248,9.422563,9.412363
1.319825172,-4.466185,11.96884,-12.87802,0.9859619,-0.08597195,0.1456291,-54.86248,9.422563,9.412363
1.32971096,-4.279681,12.26305,-13.79439,0.9951904,-0.0885184,0.1394005,-54.86248,9.422563,9.412363
1.339597702,-4.093176,12.67495,-14.16094,0.9942247,-0.08705565,0.139392,-55.23302,8.663616,8.960422
1.34948349,-3.844504,12.79264,-14.4664,0.9917887,-0.0840069,0.1475495,-55.23302,8.663616,8.960422
1.359370232,-3.471495,12.67495,-14.83294,0.9883877,-0.08397862,0.1489882,-55.23302,8.663616,8.960422
1.369256973,-3.409327,12.55727,-15.1384,0.9961497,-0.08446652,0.1499613,-55.23302,8.663616,8.960422
1.379142761,-3.160654,12.55727,-15.19949,0.9888474,-0.08630643,0.1562143,-55.23302,8.663616,8.960422
1.39150095,-3.222822,12.79264,-15.32168,0.9888631,-0.07844336,0.1609838,-55.97386,7.903037,8.110783
1.401387215,-3.347158,12.38074,-15.1384,0.9898163,-0.07982701,0.166282,-55.97386,7.903037,8.110783
1.41127348,-3.471495,12.20421,-14.89404,0.9961313,-0.08036958,0.1634064,-55.97386,7.903037,8.110783
1.421159744,-3.720167,12.26305,-14.95513,0.9878855,-0.07342096,0.1710567,-55.97386,7.903037,8.110783
1.431046486,-4.217513,12.26305,-14.58858,0.9922397,-0.07682384,0.1720406,-55.97386,7.903037,8.110783
1.440932751,-4.590521,11.85116,-14.22203,0.9859383,-0.07537211,0.1705834,-55.5969,7.897511,8.119363
1.450819016,-4.777026,11.73347,-14.03876,0.9912525,-0.07920631,0.175418,-55.5969,7.897511,8.119363
1.46070528,-5.274371,11.4981,-13.48893,0.994211,-0.06855677,0.1715202,-55.5969,7.897511,8.119363
1.470591545,-5.585212,11.20389,-12.87802,0.993713,-0.06449482,0.1825603,-55.5969,7.897511,8.119363
1.480478287,-6.269062,10.96852,-12.69475,0.9874021,-0.06447516,0.1830339,-55.5969,7.897511,8.119363
1.490364075,-7.139416,10.55662,-12.14492,0.985938,-0.06641288,0.183523,-56.33106,7.129772,6.880607
1.500250816,-8.00977,10.08588,-11.77837,0.9873981,-0.06693867,0.1811227,-56.33106,7.129772,6.880607
1.510137081,-8.631453,9.673985,-10.92309,0.9830298,-0.06892097,0.1782422,-56.33106,7.129772,6.880607
1.520023346,-9.439638,9.085559,-10.25109,0.9810944,-0.06547254,0.1806272,-56.33106,7.129772,6.880607
1.529910088,-10.06132,8.61482,-9.517993,0.9816126,-0.05672285,0.1796217,-56.33106,7.129772,6.880607
1.539795876,-10.683,7.791025,-9.090353,0.9772435,-0.05621288,0.180576,-56.70465,5.300852,6.508546
1.549682617,-11.24251,7.43797,-8.479439,0.9772403,-0.05917772,0.1777055,-56.70465,5.300852,6.508546
1.559568405,-11.67769,6.849545,-7.746342,0.979189,-0.05375322,0.1824895,-56.70465,5.300852,6.508546
1.569455147,-12.17504,6.437648,-6.952154,0.9786986,-0.05620857,0.1810586,-56.70465,5.300852,6.508546
1.579341888,-12.85889,5.672696,-6.280149,0.9796745,-0.05674058,0.1781768,-56.70465,5.300852,6.508546
1.589227676,-13.10756,4.907743,-5.608143,0.9739048,-0.04662545,0.1699435,-55.95142,4.911741,6.53101
1.599114418,-13.72924,4.319319,-5.180504,0.9748319,-0.04983463,0.1834266,-55.95142,4.911741,6.53101
1.611472607,-14.22659,3.260154,-4.508498,0.9738924,-0.04853728,0.1723578,-55.95142,4.911741,6.53101
1.621358395,-14.5996,2.436359,-4.14195,0.9733894,-0.04991805,0.1776543,-55.95142,4.911741,6.53101
1.631245136,-15.09694,1.730249,-3.469945,0.9661071,-0.05138608,0.1762107,-55.95142,4.911741,6.53101
1.641131401,-15.15911,0.729927,-3.225579,0.9690347,-0.05099119,0.1704409,-56.70465,5.300852,6.508546
1.651017666,-15.28345,-0.09386778,-2.736848,0.9705074,-0.05060061,0.1641887,-56.70465,5.300852,6.508546
1.660903931,-15.40778,-0.6234501,-2.248117,0.9719628,-0.04910669,0.1665874,-56.70465,5.300852,6.508546
1.670790672,-15.40778,-1.447245,-2.003752,0.9690143,-0.05384814,0.1747836,-56.70465,5.300852,6.508546
1.680676937,-15.59429,-2.094512,-1.759386,0.9719288,-0.05187735,0.1767007,-56.70465,5.300852,6.508546
1.690563202,-16.02946,-2.682937,-1.576112,0.9699965,-0.05292651,0.1714137,-56.33504,4.924427,6.911547
1.700449467,-15.9673,-2.977149,-1.331746,0.9690252,-0.05740061,0.1651832,-56.33504,4.924427,6.911547
1.710335731,-16.02946,-3.742102,-0.843015,0.9700046,-0.05695873,0.1622965,-56.33504,4.924427,6.911547
1.720222473,-16.02946,-3.977472,-0.843015,0.9694954,-0.06078862,0.1666436,-56.33504,4.924427,6.911547
1.730108261,-16.1538,-4.271684,-0.1710097,0.9670557,-0.0661762,0.1642635,-56.33504,4.924427,6.911547
1.739995003,-15.9673,-4.918952,-0.04882693,0.9709296,-0.06712181,0.1666773,-56.70659,4.229684,6.523574
1.749881267,-15.78079,-5.330849,0.25663,0.9690039,-0.0652277,0.1628181,-56.70659,4.229684,6.523574
1.759767532,-15.40778,-5.213164,0.3788128,0.9748324,-0.06576213,0.1604228,-56.70659,4.229684,6.523574
1.769654274,-14.9726,-5.507376,0.562087,0.9743307,-0.07113197,0.1594876,-56.70659,4.229684,6.523574
1.779540062,-14.7861,-5.566219,0.562087,0.9753122,-0.06871355,0.1585146,-56.70659,4.229684,6.523574
1.789426804,-14.5996,-5.389691,0.6842698,0.9777259,-0.06813788,0.1647664,-56.71394,3.858785,6.917994
1.799312592,-14.35092,-5.389691,0.9897268,0.9782159,-0.06816761,0.1628435,-56.71394,3.858785,6.917994
1.809199333,-14.16442,-5.507376,1.050818,0.9733774,-0.06676191,0.1585026,-56.71394,3.858785,6.917994
1.819086075,-14.16442,-5.683904,1.661732,0.9714444,-0.06432334,0.158488,-56.71394,3.858785,6.917994
1.831443787,-14.10225,-5.683904,1.845006,0.9723936,-0.06916596,0.1604373,-55.96712,4.234146,7.383821
1.841330051,-14.10225,-5.978116,2.02828,0.9724039,-0.06723975,0.1589848,-55.96712,4.234146,7.383821
1.851216793,-13.97791,-5.978116,2.272646,0.9767677,-0.06622415,0.1623511,-55.96712,4.234146,7.383821
1.861103058,-13.85358,-6.036959,2.089372,0.9801925,-0.06242159,0.1565647,-55.96712,4.234146,7.383821
1.870989323,-13.85358,-5.978116,1.906098,0.9855242,-0.0638786,0.15754,-55.96712,4.234146,7.383821
1.880875587,-14.04008,-5.801589,1.783915,0.9826036,-0.06730305,0.1561112,-56.35075,4.246831,7.764358
1.890761852,-14.22659,-5.507376,1.417367,0.9850158,-0.07418262,0.1523013,-56.35075,4.246831,7.764358
1.900648117,-14.04008,-5.566219,1.11191,0.9854974,-0.07863802,0.1475152,-56.35075,4.246831,7.764358
1.910534859,-13.54274,-5.036636,0.9286354,0.988907,-0.07921798,0.1417509,-56.35075,4.246831,7.764358
1.920421123,-13.10756,-4.212842,0.9286354,1.004359,-0.0837226,0.1682419,-56.35075,4.246831,7.764358
1.930307388,-12.29937,-4.153999,0.3788128,0.9894128,-0.07636198,0.1374088,-56.74284,3.889811,8.604168
1.94019413,-11.30468,-4.389369,0.1955387,0.9918524,-0.0824187,0.1234954,-56.74284,3.889811,8.604168
1.950079918,-10.74517,-4.389369,-0.04882693,0.9884269,-0.08372899,0.1331166,-56.74284,3.889811,8.604168
1.95996666,-9.999151,-4.565897,-0.4153753,0.9864712,-0.08413299,0.1384065,-56.74284,3.889811,8.604168
1.969852448,-9.128798,-4.507054,-0.9651978,0.9961815,-0.08367242,0.1379343,-56.74284,3.889811,8.604168
1.979739189,-8.569283,-4.507054,-1.392838,0.98742,-0.08946975,0.1398773,-56.74216,4.26787,8.598865
1.989625931,-7.823266,-4.507054,-1.881569,0.9908091,-0.09290667,0.1384558,-56.74216,4.26787,8.598865
1.999511719,-7.263752,-4.330527,-2.248117,0.9898514,-0.09049878,0.1365189,-56.74216,4.26787,8.598865
2.00939846,-6.517735,-4.507054,-2.431391,0.9961568,-0.09346889,0.1341365,-56.74216,4.26787,8.598865
2.019285202,-5.523044,-4.565897,-2.79794,0.997631,-0.0915959,0.1293194,-56.74216,4.26787,8.598865
2.02917099,-4.963531,-4.448212,-3.164488,0.9927598,-0.09296804,0.134611,-56.36588,3.884284,8.612748
2.039057732,-4.466185,-4.507054,-3.408854,0.9971666,-0.08525743,0.1297678,-56.36588,3.884284,8.612748
2.051415443,-4.093176,-4.683581,-3.897585,0.9991093,-0.09124128,0.1206628,-56.36588,3.884284,8.612748
2.061301708,-3.533663,-4.624739,-4.203042,1.004449,-0.08777128,0.1254605,-56.36588,3.884284,8.612748
2.071187973,-2.974149,-4.742424,-4.386316,1.005915,-0.08783889,0.1211342,-56.36588,3.884284,8.612748
2.081074715,-2.476804,-4.507054,-4.691772,1.001566,-0.08596158,0.1158297,-56.37392,3.135326,9.012473
2.090960979,-1.979459,-4.742424,-4.56959,1.006419,-0.08695944,0.1148784,-56.37392,3.135326,9.012473
2.100847244,-1.668618,-4.683581,-4.203042,1.010788,-0.08647394,0.1153618,-56.37392,3.135326,9.012473
2.110733986,-1.482114,-4.271684,-3.836493,1.004001,-0.08701218,0.1110285,-56.37392,3.135326,9.012473
2.120619774,-1.109105,-3.565574,-3.469945,1.002042,-0.08938555,0.1148857,-56.37392,3.135326,9.012473
2.130506516,-0.5495912,-2.800622,-3.164488,1.008362,-0.09294328,0.1057733,-56.37323,3.513385,9.007169
2.140392303,0.1964268,-2.447567,-2.736848,1.000595,-0.09740395,0.09953506,-56.37323,3.513385,9.007169
2.150279045,0.9424447,-1.506087,-2.3703,0.9913638,-0.1047906,0.092829,-56.37323,3.513385,9.007169
2.160165787,1.874967,-1.09419,-2.125934,0.9942945,-0.09943995,0.09280529,-56.37323,3.513385,9.007169
2.170051575,2.683153,-0.3880802,-1.881569,0.9889821,-0.0951188,0.0879682,-56.37323,3.513385,9.007169
2.179938316,3.429171,0.4945571,-1.392838,0.9899726,-0.09176244,0.08458592,-56.37392,3.135326,9.012473
2.189825058,4.299526,0.9064545,-1.453929,0.9846579,-0.08941782,0.07783514,-56.37392,3.135326,9.012473
2.199710846,5.294216,1.318352,-1.392838,0.9885569,-0.08952618,0.07110722,-56.37392,3.135326,9.012473
2.209597588,6.288907,1.436037,-1.576112,0.9934095,-0.08952858,0.07159368,-56.37392,3.135326,9.012473
2.219483376,7.470102,1.612564,-1.576112,0.9944029,-0.08768339,0.06485258,-56.37392,3.135326,9.012473
2.229370117,8.52696,1.612564,-1.637203,0.9919834,-0.08523667,0.06531838,-56.37392,3.135326,9.012473
2.239256859,9.521651,1.612564,-2.064843,0.9944216,-0.08630885,0.0590746,-56.37392,3.135326,9.012473
2.249142647,10.26767,1.259509,-2.064843,0.9895803,-0.0823965,0.05953025,-56.37392,3.135326,9.012473
2.259029388,10.95152,1.141824,-1.94266,0.9871589,-0.07545938,0.06718718,-56.37392,3.135326,9.012473
2.2713871,12.13271,0.729927,-2.187026,0.9944208,-0.08182565,0.06578484,-56.37392,3.135326,9.012473
2.281273842,13.43825,0.5533996,-2.309208,1.001212,-0.08181031,0.06771617,-56.01141,3.145313,9.86414
2.29115963,15.30329,0.5533996,-2.553574,1.010428,-0.08427765,0.06677727,-56.01141,3.145313,9.86414
2.301046372,17.16833,0.612242,-3.103397,1.020095,-0.08951661,0.07595224,-56.01141,3.145313,9.86414
2.310933113,18.97121,0.4945571,-3.286671,1.032213,-0.08993404,0.08222011,-56.01141,3.145313,9.86414
2.320818901,20.46325,0.02381719,-3.347762,1.037542,-0.08987987,0.08655418,-56.01141,3.145313,9.86414
2.330705643,21.83095,-0.5057651,-2.981214,1.040911,-0.09120359,0.09618313,-56.37323,3.513385,9.007169
2.340591431,23.07431,-1.211875,-2.736848,1.039923,-0.09108661,0.1038761,-56.37323,3.513385,9.007169
2.350478172,23.82033,-2.094512,-1.881569,1.033075,-0.09273329,0.1231135,-56.37323,3.513385,9.007169
2.360364914,24.93936,-2.859464,-0.843015,1.023817,-0.0875148,0.145199,-56.37323,3.513385,9.007169
2.370250702,25.2502,-3.271362,0.07335586,1.022827,-0.08987568,0.150019,-56.37323,3.513385,9.007169
2.380137444,25.80971,-2.859464,1.234092,1.014095,-0.08093517,0.1605442,-56.37323,3.513385,9.007169
2.390024185,26.18272,-2.918307,2.517012,1.01264,-0.07546081,0.1682096,-56.37323,3.513385,9.007169
2.399909973,26.05838,-2.329882,3.555565,1.003924,-0.06662097,0.1720024,-56.37323,3.513385,9.007169
2.409796715,25.93405,-1.859142,4.899576,0.9995874,-0.05685902,0.1729099,-56.37323,3.513385,9.007169
2.41968298,24.93936,-1.56493,6.121404,0.9962563,-0.03836271,0.1718508,-56.37323,3.513385,9.007169
2.429569244,23.38515,-1.506087,7.098866,0.996762,-0.03351577,0.1703842,-56.74353,3.511751,8.609472
2.439455986,21.3336,-1.388402,8.259603,0.9875726,-0.02474689,0.1693676,-56.74353,3.511751,8.609472
2.449341774,18.84688,-1.388402,8.931608,0.9866279,-0.01993304,0.1654948,-56.74353,3.511751,8.609472
2.459228516,16.48449,-1.388402,9.175974,0.977923,-0.01912167,0.1534578,-56.74353,3.511751,8.609472
2.469114781,14.18426,-1.682615,9.481431,0.9696819,-0.01917009,0.1491204,-56.74353,3.511751,8.609472
2.479001045,12.56789,-1.270717,9.603614,0.9841653,-0.02219037,0.1770455,-55.99491,4.263978,9.005141
2.491358757,10.88935,-1.32956,9.175974,0.9615213,-0.01475177,0.1178289,-55.99491,4.263978,9.005141
2.501245499,9.521651,-2.212197,8.870517,0.9673119,-0.01753394,0.1279489,-55.99491,4.263978,9.005141
2.51113224,8.962138,-2.212197,8.442877,0.9745845,-0.01948892,0.1284479,-55.99491,4.263978,9.005141
2.521018028,8.52696,-1.56493,8.015237,0.9697359,-0.01901396,0.1269973,-55.99491,4.263978,9.005141
2.53090477,7.843111,-1.447245,7.159958,0.9711997,-0.02453866,0.1159657,-56.37187,4.269504,8.996561
2.540791511,7.407934,-1.8003,6.793409,0.962456,-0.02547371,0.1174032,-56.37187,4.269504,8.996561
2.550677299,6.786252,-2.094512,6.121404,0.9629365,-0.03091739,0.1116602,-56.37187,4.269504,8.996561
2.560564041,6.599748,-2.74178,5.388307,0.9565881,-0.04061509,0.1136257,-56.37187,4.269504,8.996561
2.570450306,6.786252,-3.094834,4.899576,0.9575703,-0.03969345,0.1102557,-56.37187,4.269504,8.996561
2.580336571,7.283597,-2.447567,4.960668,0.9493587,-0.03694245,0.09772851,-56.74091,4.960979,8.58914
2.590222835,7.470102,-3.742102,3.861022,0.9493065,-0.04357991,0.109785,-56.74091,4.960979,8.58914
2.600109577,8.091784,-3.742102,2.88356,0.9624098,-0.03811995,0.1184289,-56.74091,4.960979,8.58914
2.609995842,8.340456,-3.506732,2.150463,0.9609198,-0.04686054,0.1199141,-56.74091,4.960979,8.58914
2.619882107,8.464792,-3.389047,1.478458,0.961395,-0.04978318,0.1199295,-56.74091,4.960979,8.58914
2.629768371,8.52696,-3.506732,0.867544,0.9691429,-0.05366533,0.1218816,-56.37703,5.727085,9.430199
2.639654636,8.713465,-3.624417,0.3788128,0.9759371,-0.05367157,0.1223702,-56.37703,5.727085,9.430199
2.649541378,9.024306,-3.683259,0.01226447,0.9759145,-0.05950055,0.1233615,-56.37703,5.727085,9.430199
2.659427643,9.459483,-3.447889,-0.4764667,0.9793041,-0.05746598,0.1296071,-56.37703,5.727085,9.430199
2.669313908,9.583819,-3.565574,-0.9041064,0.9720099,-0.06234263,0.1281807,-56.37703,5.727085,9.430199
2.679200649,9.708156,-3.742102,-1.148472,0.9676404,-0.06133135,0.1300942,-56.37771,5.349025,9.435503
2.689086437,9.770324,-3.742102,-1.576112,0.9695541,-0.06464313,0.1368461,-56.37771,5.349025,9.435503
2.701444626,9.770324,-3.330204,-1.820477,0.9729624,-0.05924309,0.1401891,-56.37771,5.349025,9.435503
2.711331367,9.956828,-2.859464,-2.187026,0.9787871,-0.06423195,0.1330071,-56.37771,5.349025,9.435503
2.721217632,10.2055,-2.565252,-2.309208,0.9865405,-0.06217723,0.1411812,-55.99422,4.642037,8.999837
2.731103897,10.45417,-2.27104,-2.736848,0.9894447,-0.06113718,0.1459885,-55.99422,4.642037,8.999837
2.740990162,10.70285,-1.917985,-3.286671,1.004489,-0.06214799,0.1455297,-55.99422,4.642037,8.999837
2.750876903,10.82718,-1.859142,-3.164488,1.0098,-0.06795157,0.1489316,-55.99422,4.642037,8.999837
2.760762691,10.64068,-1.917985,-3.103397,1.019976,-0.06836516,0.1551972,-55.99422,4.642037,8.999837
2.770649433,10.70285,-2.094512,-2.553574,1.017564,-0.0674584,0.1503807,-56.75467,5.354551,9.426923
2.780536175,10.64068,-2.50641,-2.003752,1.027264,-0.06195575,0.1614251,-56.75467,5.354551,9.426923
2.790421963,10.64068,-2.800622,-1.51502,1.036512,-0.05318017,0.1633149,-56.75467,5.354551,9.426923
2.800308704,10.45417,-2.800622,-1.087381,1.034061,-0.05351849,0.1729323,-56.75467,5.354551,9.426923
2.810195446,9.956828,-2.50641,-0.7819237,1.03358,-0.04558254,0.18251,-56.75467,5.354551,9.426923
2.820081234,9.770324,-2.212197,-0.4764667,1.021904,-0.05434614,0.1810983,-56.00075,5.343499,9.444083
2.829967976,9.583819,-2.094512,-0.1710097,1.022399,-0.05092409,0.1820434,-56.00075,5.343499,9.444083
2.839853764,8.89997,-2.329882,0.6231784,1.015134,-0.04503758,0.1839291,-56.00075,5.343499,9.444083
2.849740505,8.52696,-2.565252,1.417367,1.010278,-0.03854665,0.1939901,-56.00075,5.343499,9.444083
2.859627247,7.780943,-2.918307,2.150463,1.01372,-0.02639408,0.1929708,-56.00075,5.343499,9.444083
2.869513035,6.972757,-3.212519,2.944651,1.006446,-0.01547269,0.2058922,-56.38506,4.978126,9.829924
2.879399776,5.418552,-3.565574,3.494474,1.004053,-0.008214031,0.2024863,-56.38506,4.978126,9.829924
2.889286518,3.056162,-3.565574,3.861022,0.9997135,0.000566836,0.2029179,-56.38506,4.978126,9.829924
2.899172306,0.2585949,-3.624417,4.227571,0.9967927,0.002119731,0.2086778,-56.38506,4.978126,9.829924
2.909059048,-2.725477,-3.624417,4.288662,0.9875984,0.004450431,0.2004799,-56.38506,4.978126,9.829924
2.921416759,-6.704239,-3.271362,4.410845,0.9817509,-0.004847583,0.1966729,-56.00674,5.728718,9.827895
2.931303501,-9.688311,-2.800622,4.16648,0.9763899,-0.01614468,0.1895101,-56.00674,5.728718,9.827895
2.941189289,-12.0507,-2.153355,3.738839,0.9725118,-0.02612046,0.1732047,-56.00674,5.728718,9.827895
2.951076031,-13.79141,-1.447245,3.189017,0.973958,-0.03501783,0.1645948,-56.00674,5.728718,9.827895
2.960962772,-14.72393,-0.7411351,2.333737,0.9661708,-0.04880241,0.1535944,-56.00674,5.728718,9.827895
2.97084856,-15.09694,-0.3292377,1.295184,0.9724706,-0.0567139,0.1464277,-55.99939,6.099618,9.433475
2.980735302,-14.72393,0.2003446,0.01226447,0.9719821,-0.06365964,0.1378057,-55.99939,6.099618,9.433475
2.990622044,-14.41309,0.2591871,-0.7208322,0.9720048,-0.06479894,0.1267503,-55.99939,6.099618,9.433475
3.000507832,-13.48057,0.4357146,-1.759386,0.9749095,-0.07371358,0.1171802,-55.99939,6.099618,9.433475
3.010394573,-12.54805,0.4357146,-2.431391,0.9797191,-0.08240192,0.1230006,-55.99939,6.099618,9.433475
3.020280838,-11.24251,0.3768721,-2.859031,0.9821121,-0.0901547,0.1259281,-56.00742,5.350659,9.8332
3.030167103,-9.439638,0.1415022,-3.347762,0.9913207,-0.0940685,0.1259583,-56.00742,5.350659,9.8332
3.040053368,-7.636762,0.2003446,-3.531036,0.9927451,-0.09785189,0.1336738,-56.00742,5.350659,9.8332
3.049940109,-6.579903,-0.09386778,-3.71431,1.000014,-0.0953021,0.1423257,-56.00742,5.350659,9.8332
3.059826374,-5.709548,0.1415022,-3.531036,1.000495,-0.09975749,0.1375396,-56.00742,5.350659,9.8332
3.069712639,-5.212203,0.6710845,-3.469945,1.006795,-0.1026916,0.1375616,-56.00605,6.106778,9.822592
3.079599381,-4.777026,1.200667,-3.286671,0.9994642,-0.1043518,0.1558366,-56.00605,6.106778,9.822592
3.089485168,-4.528353,1.730249,-3.164488,0.9999456,-0.1078117,0.1524882,-56.00605,6.106778,9.822592
3.09937191,-4.279681,2.554044,-3.225579,0.989241,-0.1150876,0.1529937,-56.00605,6.106778,9.822592
3.109258652,-4.217513,2.907099,-2.859031,0.9780666,-0.1164904,0.1553927,-56.00605,6.106778,9.822592
3.11914444,-3.782336,3.495524,-2.553574,0.9746341,-0.1272109,0.1544812,-56.38632,4.285017,9.839647
3.129031181,-2.725477,3.672051,-2.187026,0.9741568,-0.1312422,0.1453635,-56.38632,4.285017,9.839647
3.141388893,-1.046937,4.260476,-1.820477,0.9795088,-0.1248649,0.1491847,-56.38632,4.285017,9.839647
3.151275635,0.4450994,4.554688,-1.392838,0.9727317,-0.1249665,0.1414828,-56.38632,4.285017,9.839647
3.1611619,1.564126,4.907743,-1.148472,0.9780884,-0.1206089,0.140505,-56.38632,4.285017,9.839647
3.171048164,2.745321,4.554688,-0.6597409,0.9829715,-0.1148327,0.136634,-56.0081,4.9726,9.838503
3.180934906,3.491339,4.437004,-0.5375581,0.9834846,-0.1085393,0.1341982,-56.0081,4.9726,9.838503
3.190820694,4.299526,4.083949,-0.2931925,0.9873891,-0.1047017,0.1308168,-56.0081,4.9726,9.838503
3.200707436,4.548198,3.789736,-0.1099183,0.9849813,-0.09785093,0.1327031,-56.0081,4.9726,9.838503
3.210594177,4.672534,3.260154,0.01226447,0.9810898,-0.09828705,0.1355864,-56.0081,4.9726,9.838503
3.220479965,5.16988,2.612886,0.1955387,0.9738205,-0.09535818,0.1350824,-56.00742,5.350659,9.8332
3.230366707,5.667225,1.906777,0.3177214,0.9840347,-0.08456481,0.1417724,-56.00742,5.350659,9.8332
3.240253449,5.978066,1.553722,0.5009956,0.9825768,-0.08504887,0.1417732,-56.00742,5.350659,9.8332
3.250139237,6.102402,0.847612,0.562087,0.9840345,-0.07859199,0.1503988,-56.00742,5.350659,9.8332
3.260025978,6.226739,0.3768721,0.5009956,0.9811511,-0.07628095,0.1417273,-56.00742,5.350659,9.8332
3.26991272,5.729393,0.3180296,0.3788128,0.9787377,-0.06939418,0.146018,-56.38438,5.356185,9.824619
3.279798508,5.294216,0.1415022,0.1344473,0.9758086,-0.07624883,0.1431638,-56.38438,5.356185,9.824619
3.289685249,4.734703,-0.2115527,0.07335586,0.9724095,-0.0817064,0.1359737,-56.38438,5.356185,9.824619
3.299571514,4.610366,-0.7411351,0.07335586,0.9724112,-0.08420586,0.131658,-56.38438,5.356185,9.824619
3.309457779,4.921207,-0.976505,-0.04882693,0.9704595,-0.08612824,0.1331083,-56.38438,5.356185,9.824619
3.319344044,4.983376,-1.153032,-0.04882693,0.9694899,-0.08613352,0.1326263,-56.38506,4.978126,9.829924
3.329230785,5.729393,-1.388402,-0.1710097,0.9646527,-0.08871687,0.1220536,-56.38506,4.978126,9.829924
3.33911705,6.413243,-1.8003,0.07335586,0.9709519,-0.08716782,0.1287858,-56.38506,4.978126,9.829924
3.349003315,6.972757,-2.212197,-0.1710097,0.9714575,-0.08232089,0.1273191,-56.38506,4.978126,9.829924
3.361361504,8.029615,-2.800622,-0.3542839,0.9772605,-0.08617763,0.1307117,-56.38506,4.978126,9.829924
3.371248245,8.464792,-3.153677,-0.1710097,0.9797089,-0.08134172,0.1287663,-56.76134,5.361711,9.816039
3.381134033,8.651297,-3.565574,-0.1099183,0.9782566,-0.07887534,0.1306759,-56.76134,5.361711,9.816039
3.391020775,9.086474,-3.506732,0.01226447,0.9821193,-0.08273543,0.1335853,-56.76134,5.361711,9.816039
3.40090704,9.086474,-4.095157,0.3788128,0.983086,-0.08121899,0.1374261,-56.76134,5.361711,9.816039
3.410793305,9.583819,-4.212842,0.5009956,0.9884437,-0.07288671,0.1417184,-56.76134,5.361711,9.816039
3.420679569,10.019,-4.624739,0.562087,0.9957207,-0.06889766,0.1489203,-56.00007,5.721559,9.438779
3.430566311,10.26767,-4.330527,0.9286354,0.9971994,-0.06108061,0.1508062,-56.00007,5.721559,9.438779
3.440452576,10.2055,-4.801267,0.9286354,0.9986837,-0.054295,0.1488499,-56.00007,5.721559,9.438779
3.450338841,10.019,-4.507054,1.295184,1.003057,-0.05284279,0.1488476,-56.00007,5.721559,9.438779
3.460225582,9.583819,-4.448212,1.478458,1.000626,-0.05032415,0.1541222,-56.00007,5.721559,9.438779
3.47011137,8.713465,-4.271684,1.661732,0.9967251,-0.05517875,0.1546232,-56.74621,5.724257,8.967649
3.479998112,8.029615,-4.271684,1.845006,0.9972478,-0.04745329,0.1502565,-56.74621,5.724257,8.967649
3.489884853,7.283597,-4.271684,1.967189,0.9943342,-0.042463,0.1579227,-56.74621,5.724257,8.967649
3.499770641,6.972757,-4.095157,2.211555,0.9958142,-0.03863503,0.1535767,-56.74621,5.724257,8.967649
3.509657383,6.53758,-3.800944,2.333737,0.9992163,-0.03667957,0.1545326,-56.74621,5.724257,8.967649
3.519544125,6.226739,-3.565574,2.272646,1.002136,-0.0342434,0.1550045,-56.38301,6.112304,9.814012
3.529429913,5.729393,-3.153677,2.089372,1.005072,-0.03340471,0.146347,-56.38301,6.112304,9.814012
3.539316654,5.045544,-2.977149,1.661732,1.008956,-0.03142864,0.148746,-56.38301,6.112304,9.814012
3.549203396,4.175189,-2.74178,1.722824,1.010886,-0.0333515,0.1506816,-56.38301,6.112304,9.814012
3.559089184,3.553508,-2.565252,1.295184,1.013798,-0.03584233,0.1473311,-56.38301,6.112304,9.814012
3.571447849,2.745321,-2.388725,1.417367,1.009923,-0.035885,0.1439604,-56.01588,4.980953,10.29247
3.581333637,2.185808,-2.153355,1.234092,1.011385,-0.03045235,0.1492248,-56.01588,4.980953,10.29247
3.591220379,1.750631,-1.859142,1.11191,1.009974,-0.0257598,0.1371764,-56.01588,4.980953,10.29247
3.60110712,1.066781,-1.506087,1.11191,1.006059,-0.02803583,0.1472829,-56.01588,4.980953,10.29247
3.610992908,0.3829313,-1.32956,1.050818,1.007046,-0.02465789,0.1453432,-56.00674,5.728718,9.827895
3.62087965,-0.3630867,-0.976505,0.8064526,1.010466,-0.01983109,0.1429181,-56.00674,5.728718,9.827895
3.630765915,-1.109105,-0.6234501,0.3788128,1.011905,-0.02221117,0.1467791,-56.00674,5.728718,9.827895
3.64065218,-2.414636,-0.09386778,0.01226447,1.011933,-0.0228851,0.1342786,-56.00674,5.728718,9.827895
3.650538921,-3.906672,0.3768721,-0.2321011,1.002675,-0.03259143,0.135279,-56.00674,5.728718,9.827895
3.660425186,-5.460876,1.082982,-0.4764667,0.9944454,-0.03221763,0.1266112,-56.00537,6.484837,9.817287
3.670311451,-6.517735,1.494879,-0.7208322,0.991978,-0.04091315,0.1309806,-56.00537,6.484837,9.817287
3.680197716,-7.139416,2.024462,-0.9651978,0.9895399,-0.04680925,0.1271602,-56.00537,6.484837,9.817287
3.690084457,-7.574594,2.495202,-1.026289,0.9866235,-0.05672942,0.1147031,-56.00537,6.484837,9.817287
3.699970245,-7.574594,3.201311,-1.331746,0.9909919,-0.05972446,0.1103949,-56.00537,6.484837,9.817287
3.709856987,-7.139416,3.554366,-1.392838,0.9900392,-0.05585572,0.1084506,-55.62909,6.101252,9.831171
3.719743729,-6.890744,3.966264,-1.698295,0.990011,-0.06164875,0.1118463,-55.62909,6.101252,9.831171
3.729629517,-6.455566,4.260476,-1.94266,0.9924482,-0.0637092,0.1046457,-55.62909,6.101252,9.831171
3.739516258,-5.896053,4.083949,-2.248117,0.9880775,-0.06269072,0.1070401,-55.62909,6.101252,9.831171
3.749403,-5.398708,4.378161,-2.248117,0.9919488,-0.06909342,0.1027486,-55.62909,6.101252,9.831171
3.759288788,-4.901362,4.319319,-2.553574,0.9953365,-0.06555487,0.1118721,-56.00674,5.728718,9.827895
3.769175529,-4.714858,4.142791,-2.736848,0.9943668,-0.0635692,0.1142655,-56.00674,5.728718,9.827895
3.779062271,-4.466185,4.201633,-2.981214,1.004077,-0.06211317,0.1152311,-56.00674,5.728718,9.827895
3.791419983,-4.590521,3.966264,-2.981214,1.000211,-0.05674189,0.1156805,-56.00674,5.728718,9.827895
3.801306725,-4.528353,3.907421,-2.920122,1.000234,-0.05389932,0.110376,-56.00674,5.728718,9.827895
3.811192512,-4.466185,3.848579,-3.164488,1.002159,-0.05728301,0.112319,-55.62978,5.723192,9.836475
3.821079254,-4.404017,3.554366,-3.103397,0.9953657,-0.05578717,0.1137464,-55.62978,5.723192,9.836475
3.830965996,-4.466185,3.377839,-3.286671,0.9967749,-0.06196214,0.1243595,-55.62978,5.723192,9.836475
3.840851784,-4.404017,3.377839,-3.164488,0.9928937,-0.06345846,0.1214771,-55.62978,5.723192,9.836475
3.850738525,-4.093176,3.142469,-3.286671,0.9914358,-0.06294706,0.1229157,-55.62978,5.723192,9.836475
3.860625267,-4.341849,3.318996,-2.859031,0.9894938,-0.06443284,0.1209973,-56.37771,5.349025,9.435503
3.870511055,-4.341849,3.318996,-2.675757,0.9885282,-0.06297007,0.1209888,-56.37771,5.349025,9.435503
3.880397797,-4.466185,3.201311,-2.614666,0.9861104,-0.06401828,0.1157012,-56.37771,5.349025,9.435503
3.890284061,-4.590521,3.142469,-2.309208,0.9856353,-0.06607297,0.1084972,-56.37771,5.349025,9.435503
3.900170326,-4.466185,2.848256,-2.187026,0.9885386,-0.06801214,0.1094722,-56.37771,5.349025,9.435503
3.910056591,-4.279681,2.671729,-2.431391,0.9870864,-0.06753669,0.1085063,-56.38438,5.356185,9.824619
3.919943333,-3.844504,2.554044,-2.187026,0.9846404,-0.07537339,0.1051766,-56.38438,5.356185,9.824619
3.929829597,-3.222822,2.377517,-2.309208,0.9846669,-0.07006732,0.1017834,-56.38438,5.356185,9.824619
3.939715862,-2.538972,2.259832,-1.94266,0.9831898,-0.07042912,0.1099592,-56.38438,5.356185,9.824619
3.949602604,-2.041627,1.494879,-1.881569,0.9866186,-0.066154,0.1032086,-56.38438,5.356185,9.824619
3.959488392,-1.295609,1.318352,-1.637203,0.9861309,-0.0651432,0.1056076,-56.76844,5.748123,10.2647
3.969375134,-1.046937,0.729927,-1.51502,0.9851397,-0.06700277,0.1113869,-56.76844,5.748123,10.2647
3.979261875,-0.860432,0.4945571,-1.392838,0.9851543,-0.06211891,0.1123241,-56.76844,5.748123,10.2647
3.989148617,-0.4252549,0.1415022,-1.331746,0.9846848,-0.05823676,0.1113421,-56.76844,5.748123,10.2647
3.999034405,-0.5495912,-0.1527103,-0.9651978,0.9832252,-0.05721684,0.1142208,-56.76844,5.748123,10.2647
4.011392117,-0.9847683,-0.4469227,-0.5986494,0.9778724,-0.05711999,0.1199853,-56.37771,5.349025,9.435503
4.021278858,-1.046937,-0.7999775,-0.1710097,0.9822578,-0.05524556,0.1156525,-56.37771,5.349025,9.435503
4.0311656,-1.357777,-0.85882,0.01226447,0.9827489,-0.05428701,0.1146864,-56.37771,5.349025,9.435503
4.041051388,-1.419945,-1.035347,0.25663,0.9827183,-0.06006565,0.1190438,-56.37771,5.349025,9.435503
4.050938129,-1.295609,-1.388402,0.3177214,0.9832189,-0.05468861,0.12046,-56.37771,5.349025,9.435503
4.060824871,-1.357777,-1.388402,0.25663,0.9861255,-0.05864029,0.1171168,-55.99422,4.642037,8.999837
4.070710659,-1.419945,-1.447245,0.3177214,0.9841768,-0.05908744,0.1195214,-55.99422,4.642037,8.999837
4.080597401,-1.109105,-1.682615,0.1344473,0.9832076,-0.05959405,0.1180802,-55.99422,4.642037,8.999837
4.090484142,-0.9226002,-2.03567,-0.04882693,0.9817747,-0.05525898,0.1146902,-55.99422,4.642037,8.999837
4.10036993,-0.7360957,-2.27104,0.07335586,0.9842012,-0.05874432,0.1099013,-55.99422,4.642037,8.999837
4.110256672,-0.487423,-2.50641,0.1955387,0.9895368,-0.05674237,0.1142256,-56.00201,4.650391,9.453807
4.120142937,-0.5495912,-2.977149,0.07335586,0.985173,-0.05775796,0.1108593,-56.00201,4.650391,9.453807
4.130029678,-0.6117593,-3.094834,0.07335586,0.9861228,-0.06111098,0.1147247,-56.00201,4.650391,9.453807
4.139915943,-0.7360957,-3.153677,0.07335586,0.9929323,-0.05872563,0.1123158,-56.00201,4.650391,9.453807
4.149802208,-0.487423,-3.330204,-0.04882693,0.9904996,-0.05768941,0.1161551,-56.00201,4.650391,9.453807
4.15968895,-0.3009185,-3.330204,0.1955387,0.9919666,-0.05726287,0.1123073,-55.63114,4.967074,9.847083
4.169574738,-0.1765822,-3.447889,0.3177214,0.997766,-0.0591071,0.1200179,-55.63114,4.967074,9.847083
4.179461479,-0.114414,-3.447889,0.5009956,0.9939084,-0.05279069,0.1185389,-55.63114,4.967074,9.847083
4.189348221,-0.2387504,-3.389047,0.6231784,0.9967879,-0.06055164,0.120986,-55.63114,4.967074,9.847083
4.199234009,-0.1765822,-3.389047,0.4399042,0.9938716,-0.06002298,0.1233846,-55.63114,4.967074,9.847083
4.20912075,-0.2387504,-3.330204,0.4399042,0.9958217,-0.05958302,0.120499,-56.38506,4.978126,9.829924
4.221478462,-0.3630867,-3.271362,0.3788128,0.9938779,-0.0625512,0.1171454,-56.38506,4.978126,9.829924
4.231365204,-0.5495912,-3.212519,0.25663,0.984149,-0.06339085,0.1248333,-56.38506,4.978126,9.829924
4.241251946,-0.9226002,-3.035992,0.3177214,0.9890356,-0.06161806,0.1137687,-56.38506,4.978126,9.829924
4.251137734,-0.5495912,-2.565252,0.1344473,0.9909676,-0.06305398,0.1157018,-56.38506,4.978126,9.829924
4.261024475,-0.05224587,-2.50641,-0.1710097,0.9909732,-0.061099,0.1161729,-56.0081,4.9726,9.838503
4.270911217,0.2585949,-2.212197,-0.2321011,0.9972758,-0.06554432,0.1128361,-56.0081,4.9726,9.838503
4.280797005,0.5694358,-2.153355,-0.4764667,0.9948981,-0.05838635,0.1026979,-56.0081,4.9726,9.838503
4.290683746,1.004613,-1.682615,-0.5986494,0.9982692,-0.06569008,0.1032195,-56.0081,4.9726,9.838503
4.300570488,1.191117,-1.859142,-0.7819237,0.9987376,-0.06558316,0.1104333,-56.0081,4.9726,9.838503
4.310456276,1.626294,-1.976827,-0.7819237,1.000205,-0.06267154,0.1099394,-56.39951,4.993639,10.67301
4.320343018,1.874967,-1.859142,-0.9651978,1.000218,-0.06325199,0.1036903,-56.39951,4.993639,10.67301
4.330229282,2.310144,-1.859142,-1.148472,1.006505,-0.06013422,0.1176284,-56.39951,4.993639,10.67301
4.340116024,2.372312,-1.859142,-1.209563,1.00262,-0.05961803,0.1190642,-56.39951,4.993639,10.67301
4.350001812,2.372312,-1.388402,-1.392838,1.00265,-0.05731993,0.1099151,-56.39951,4.993639,10.67301
4.359888554,2.745321,-1.09419,-1.51502,1.000687,-0.06165547,0.1128203,-56.39216,5.364538,10.27859
4.369775295,2.80749,-0.5646076,-1.576112,1.0007,-0.06174177,0.1070497,-56.39216,5.364538,10.27859
4.379661083,2.993994,-0.5057651,-1.637203,0.9987409,-0.06162287,0.1147416,-56.39216,5.364538,10.27859
4.389547825,2.931826,-0.1527103,-1.453929,0.989,-0.06686661,0.121009,-56.39216,5.364538,10.27859
4.399434567,3.242667,0.02381719,-1.453929,0.9997042,-0.06307124,0.1157119,-56.39216,5.364538,10.27859
4.409320355,3.864348,-0.03502529,-1.331746,0.9958134,-0.06500416,0.1161981,-56.0152,5.359012,10.28717
4.419207096,4.113021,0.02381719,-1.453929,0.9953597,-0.06022722,0.1099215,-56.0152,5.359012,10.28717
4.429093838,4.361694,0.2003446,-1.576112,0.9997132,-0.0621333,0.1133025,-56.0152,5.359012,10.28717
4.44145155,4.423862,0.08265968,-1.637203,0.998265,-0.05819889,0.1156856,-56.0152,5.359012,10.28717
4.451338291,4.48603,-0.03502529,-1.759386,0.9953585,-0.05922456,0.1118401,-56.0152,5.359012,10.28717
4.461224079,4.672534,-0.03502529,-1.820477,0.9987426,-0.06412232,0.1104259,-56.39342,4.67143,10.28831
4.471110821,4.921207,-0.03502529,-1.637203,0.9992195,-0.06556255,0.1118765,-56.39342,4.67143,10.28831
4.480997563,5.232048,0.08265968,-1.637203,1.000697,-0.05674285,0.115681,-56.39342,4.67143,10.28831
4.49088335,5.356384,0.02381719,-1.51502,1.001681,-0.05484013,0.112787,-56.39342,4.67143,10.28831
4.500770092,5.480721,-0.03502529,-1.392838,0.9987554,-0.05474807,0.1185543,-56.39342,4.67143,10.28831
4.510656834,5.605057,-0.03502529,-1.331746,0.99343,-0.05283288,0.115653,-56.7626,4.668602,9.825764
4.520543099,5.667225,0.08265968,-1.087381,0.9948764,-0.05526331,0.1161478,-56.7626,4.668602,9.825764
4.530429363,5.542889,0.08265968,-0.7819237,0.9973107,-0.05382165,0.1151815,-56.7626,4.668602,9.825764
4.540315628,5.915898,-0.03502529,-0.5986494,0.9876066,-0.05282857,0.1151654,-56.7626,4.668602,9.825764
4.55020237,5.85373,0.2003446,-0.2931925,0.9871245,-0.04986278,0.1180354,-56.7626,4.668602,9.825764
4.560088158,5.791562,-0.1527103,-0.2931925,0.988588,-0.0484192,0.1170679,-56.39342,4.67143,10.28831
4.569974899,5.729393,-0.2115527,-0.04882693,0.9861626,-0.04394558,0.1228136,-56.39342,4.67143,10.28831
4.579861641,5.605057,-0.4469227,0.01226447,0.9881308,-0.03963881,0.1179849,-56.39342,4.67143,10.28831
4.589747429,5.605057,-0.6234501,0.25663,0.9978507,-0.03874163,0.114144,-56.39342,4.67143,10.28831
4.59963417,5.418552,-0.6234501,0.3177214,0.9959092,-0.03575139,0.118455,-56.39342,4.67143,10.28831
4.609520912,5.107712,-0.976505,0.562087,0.9988174,-0.03622971,0.1194226,-56.0152,5.359012,10.28717
4.619407654,4.548198,-1.09419,0.5009956,0.9988123,-0.03769055,0.11943,-56.0152,5.359012,10.28717
4.629293442,4.237358,-1.153032,0.3177214,0.9963895,-0.03920413,0.1155875,-56.0152,5.359012,10.28717
4.639180183,3.80218,-1.388402,0.07335586,0.9983049,-0.04302443,0.1208991,-56.0152,5.359012,10.28717
4.649066448,4.113021,-1.153032,-0.04882693,0.9905249,-0.04938973,0.117556,-56.0152,5.359012,10.28717
4.661424637,4.361694,-1.447245,0.07335586,0.9904905,-0.05763187,0.1200022,-56.39342,4.67143,10.28831
4.671311378,4.859039,-1.211875,0.3788128,0.9953599,-0.05176934,0.1219018,-56.39342,4.67143,10.28831
4.681197166,5.356384,-1.32956,0.3177214,0.9963261,-0.05174249,0.1238264,-56.39342,4.67143,10.28831
4.691083908,6.040234,-1.211875,0.4399042,0.9972817,-0.05612693,0.1238497,-56.39342,4.67143,10.28831
4.700970173,6.226739,-1.153032,0.3788128,0.9992209,-0.05810732,0.1219382,-56.0152,5.359012,10.28717
4.710856438,6.351075,-0.9176625,0.867544,1.002634,-0.05174058,0.1247955,-56.0152,5.359012,10.28717
4.720743179,6.53758,-0.85882,0.867544,1.003128,-0.04980813,0.1238244,-56.0152,5.359012,10.28717
4.730629444,6.53758,-0.9176625,1.234092,1.002156,-0.05029316,0.1238257,-56.0152,5.359012,10.28717
4.740515709,6.53758,-0.85882,1.845006,1.003152,-0.0419954,0.1252277,-56.0152,5.359012,10.28717
4.750401974,6.413243,-0.7411351,2.02828,0.9919701,-0.04185828,0.132909,-56.39216,5.364538,10.27859
4.760288715,6.226739,-0.9176625,2.394829,0.9934498,-0.0350439,0.1328763,-56.39216,5.364538,10.27859
4.770175457,5.729393,-0.4469227,2.394829,0.9983498,-0.02539366,0.127543,-56.39216,5.364538,10.27859
4.780061245,5.16988,-0.2703952,1.967189,0.9944695,-0.02092436,0.1328061,-56.39216,5.364538,10.27859
4.789947987,4.361694,-0.2703952,1.845006,0.9954318,-0.02336101,0.1328195,-56.39216,5.364538,10.27859
4.799834728,3.056162,-0.2703952,1.661732,0.9891334,-0.02441593,0.1265657,-56.0152,5.359012,10.28717
4.809720516,2.061472,-0.2115527,1.295184,0.9828294,-0.02643036,0.1212786,-56.0152,5.359012,10.28717
4.819607258,1.564126,-0.2703952,1.234092,0.9779655,-0.03033792,0.11985,-56.0152,5.359012,10.28717
4.829493999,1.066781,0.08265968,1.234092,0.9765248,-0.0329208,0.1097621,-56.0152,5.359012,10.28717
4.839380264,0.8802766,-0.03502529,0.6231784,0.9726329,-0.03982387,0.1035406,-56.0152,5.359012,10.28717
4.849266529,1.315454,-0.1527103,0.1344473,0.9779528,-0.04568497,0.1030953,-56.39216,5.364538,10.27859
4.859152794,1.501958,-0.3292377,-0.5986494,0.9803754,-0.05063834,0.09783298,-56.39216,5.364538,10.27859
4.869039535,1.874967,-0.5057651,-0.9041064,0.9822869,-0.05891309,0.09835789,-56.39216,5.364538,10.27859
4.881397724,2.80749,-0.7999775,-1.392838,0.9842179,-0.06531915,0.09358325,-56.39216,5.364538,10.27859
4.891283512,3.429171,-0.85882,-1.759386,0.9866567,-0.06490172,0.08925563,-56.39216,5.364538,10.27859
4.901170254,4.361694,-1.153032,-2.125934,0.9856508,-0.06965421,0.09697323,-56.3837,5.734244,9.819315
4.911056519,5.232048,-1.211875,-2.248117,0.9880631,-0.07354739,0.09747657,-56.3837,5.734244,9.819315
4.92094326,6.040234,-1.211875,-2.248117,0.988071,-0.07359773,0.09411038,-56.3837,5.734244,9.819315
4.930829048,6.786252,-1.211875,-2.492483,0.9876025,-0.06773183,0.09552297,-56.3837,5.734244,9.819315
4.94071579,7.656606,-1.32956,-2.492483,0.9948661,-0.07162022,0.09699364,-56.3837,5.734244,9.819315
4.950602531,8.340456,-1.035347,-2.309208,0.9972861,-0.06660452,0.1070704,-56.39815,5.749757,10.6624
4.960488319,8.962138,-0.85882,-2.309208,0.999706,-0.06756163,0.1085208,-56.39815,5.749757,10.6624
4.970375061,9.335147,-0.9176625,-2.003752,1.002623,-0.06759614,0.1066006,-56.39815,5.749757,10.6624
4.980261803,9.832492,-0.6234501,-1.94266,1.004068,-0.06902391,0.109014,-56.39815,5.749757,10.6624
4.990148544,10.26767,-0.6822926,-1.759386,1.013768,-0.06849861,0.1128698,-56.39815,5.749757,10.6624
5.000034332,10.64068,-0.6234501,-1.576112,1.013788,-0.06662994,0.1075702,-55.63824,5.353486,10.29575
5.009921074,11.20019,-0.9176625,-1.209563,1.014292,-0.06525636,0.1017928,-55.63824,5.353486,10.29575
5.019807339,11.63537,-1.153032,-1.087381,1.017233,-0.05748534,0.100795,-55.63824,5.353486,10.29575
5.029693604,12.19488,-1.388402,-0.5375581,1.021102,-0.05590992,0.1089671,-55.63824,5.353486,10.29575
5.039579868,12.50572,-1.682615,0.1344473,1.021614,-0.04612879,0.1118038,-55.63824,5.353486,10.29575
5.04946661,12.81656,-1.741457,0.562087,1.024533,-0.04268996,0.1141943,-55.62909,6.101252,9.831171
5.059353352,13.00307,-1.682615,1.295184,1.02211,-0.03574565,0.1223322,-55.62909,6.101252,9.831171
5.06923914,12.44355,-1.56493,1.722824,1.022584,-0.03368375,0.130017,-55.62909,6.101252,9.831171
5.079125881,11.69754,-1.506087,2.089372,1.012412,-0.03180213,0.1242249,-55.62909,6.101252,9.831171
5.09148407,10.70285,-1.270717,2.333737,1.006105,-0.0298203,0.1256505,-55.62909,6.101252,9.831171
5.101370335,10.14333,-1.153032,2.761377,1.002733,-0.02598992,0.1208181,-55.64423,5.738705,10.67956
5.111257076,9.708156,-1.035347,2.700286,1.004206,-0.01863826,0.124149,-55.64423,5.738705,10.67956
5.121142864,9.086474,-0.7999775,2.944651,1.003247,-0.01721865,0.1212552,-55.64423,5.738705,10.67956
5.131029606,7.905279,-0.6822926,2.944651,1.001827,-0.008980826,0.1183265,-55.64423,5.738705,10.67956
5.140916348,6.910588,-0.7411351,3.189017,0.9998914,-0.008518809,0.1163983,-55.64423,5.738705,10.67956
5.150802136,5.791562,-0.5057651,2.944651,0.9974526,-0.007940766,0.1221636,-56.3908,6.120657,10.26798
5.160688877,5.107712,-0.2703952,3.005743,0.9897038,-0.01301064,0.1077528,-56.3908,6.120657,10.26798
5.170575619,4.548198,-0.5057651,2.944651,0.9853322,-0.01895324,0.100564,-56.3908,6.120657,10.26798
5.180461884,3.926517,-0.6234501,3.127926,0.9843791,-0.01458319,0.09957902,-56.3908,6.120657,10.26798
5.190348148,3.80218,-0.6234501,2.944651,0.9780406,-0.01339546,0.1130316,-56.3908,6.120657,10.26798
5.20023489,3.180499,-1.035347,3.005743,0.9761259,-0.01306289,0.1024475,-56.0205,6.122291,10.66568
5.210121155,2.869658,-0.9176625,3.005743,0.9761338,-0.01311323,0.0990813,-56.0205,6.122291,10.66568
5.22000742,3.180499,-0.976505,2.88356,0.9751375,-0.0144427,0.1077435,-56.0205,6.122291,10.66568
5.229893684,3.11833,-0.9176625,2.333737,0.9785205,-0.0183378,0.1082479,-56.0205,6.122291,10.66568
5.239780426,2.683153,-0.6822926,2.272646,0.983368,-0.0178101,0.1116172,-56.0205,6.122291,10.66568
5.249667168,2.558817,-0.7411351,1.661732,0.9862717,-0.02124606,0.1101951,-56.01384,6.115131,10.27656
5.259552956,2.434481,-0.7999775,1.417367,0.9877313,-0.02027505,0.1101919,-56.01384,6.115131,10.27656
5.269439697,2.372312,-0.7999775,0.9897268,0.9935451,-0.02370238,0.1097349,-56.01384,6.115131,10.27656
5.279326439,2.247976,-0.6822926,0.7453612,0.997406,-0.02605848,0.1155222,-56.01384,6.115131,10.27656
5.289212227,2.247976,-0.4469227,0.562087,1.003206,-0.02840404,0.1222736,-56.01384,6.115131,10.27656
5.299098969,2.247976,-0.3292377,0.562087,1.004175,-0.0259065,0.1265903,-56.38301,6.112304,9.814012
5.31145668,1.937135,0.08265968,0.6231784,1.006124,-0.02247294,0.1284989,-56.38301,6.112304,9.814012
5.321343422,1.501958,0.4357146,0.9897268,1.000316,-0.01808611,0.1279892,-56.38301,6.112304,9.814012
5.331230164,1.066781,0.7887695,1.234092,1.000296,-0.02095025,0.131851,-56.38301,6.112304,9.814012
5.341116905,0.3829313,1.082982,1.356275,0.9973774,-0.02289229,0.1318575,-56.38301,6.112304,9.814012
5.351002693,-0.1765822,1.200667,1.600641,0.9930215,-0.02296276,0.1265628,-56.02649,6.50751,11.04949
5.360889435,-1.109105,1.730249,1.845006,0.9969011,-0.02195339,0.1294476,-56.02649,6.50751,11.04949
5.3707757,-1.60645,1.494879,2.02828,1.001279,-0.02201956,0.1256056,-56.02649,6.50751,11.04949
5.380661965,-2.165963,1.965619,2.089372,0.9954534,-0.01951578,0.1294336,-56.02649,6.50751,11.04949
5.390548229,-2.911981,1.847934,2.272646,0.9906127,-0.02008663,0.1231791,-56.02649,6.50751,11.04949
5.400434971,-3.595831,1.789092,2.150463,0.9911124,-0.01868428,0.1193252,-55.63619,6.487664,10.27984
5.410321713,-4.404017,1.612564,2.089372,0.9843358,-0.01530537,0.1164149,-55.63619,6.487664,10.27984
5.420207501,-5.150035,1.906777,1.906098,0.9853037,-0.01877345,0.1125861,-55.63619,6.487664,10.27984
5.430094242,-5.771717,1.965619,1.722824,0.9843734,-0.01653817,0.09910797,-55.63619,6.487664,10.27984
5.439980984,-6.020389,1.847934,1.356275,0.9867827,-0.01991563,0.1015324,-55.63619,6.487664,10.27984
5.449866772,-6.020389,1.553722,0.867544,0.982403,-0.02083055,0.1048985,-56.01315,6.49319,10.27126
5.459753513,-6.269062,1.259509,0.1955387,0.986289,-0.02533581,0.09723093,-56.01315,6.49319,10.27126
5.469640255,-6.206894,0.7887695,-0.04882693,0.9818997,-0.03166468,0.09677699,-56.01315,6.49319,10.27126
5.47952652,-6.393398,0.612242,-0.2931925,0.9853159,-0.02432404,0.09962931,-56.01315,6.49319,10.27126
5.489412785,-6.393398,0.3180296,-0.843015,0.9833644,-0.03122376,0.09389091,-56.01315,6.49319,10.27126
5.499299049,-6.455566,-0.03502529,-0.9651978,0.9882062,-0.03165558,0.09822688,-56.00537,6.484837,9.817287
5.509185791,-6.642071,-0.2703952,-1.209563,0.9940182,-0.03457438,0.09921008,-56.00537,6.484837,9.817287
5.519072533,-6.828576,-0.6234501,-1.331746,0.9901211,-0.03497455,0.1044978,-56.00537,6.484837,9.817287
5.531430245,-7.139416,-1.09419,-1.698295,0.9940081,-0.03849153,0.0977871,-56.00537,6.484837,9.817287
5.541316509,-7.201584,-1.211875,-1.94266,0.9949567,-0.04084188,0.1035711,-55.62909,6.101252,9.831171
5.551202774,-7.077248,-1.623772,-2.125934,0.9930075,-0.04377411,0.1026219,-55.62909,6.101252,9.831171
5.561089516,-7.139416,-1.623772,-2.187026,0.9925385,-0.04138876,0.09924284,-55.62909,6.101252,9.831171
5.570976257,-6.952912,-1.623772,-2.309208,0.999299,-0.04466698,0.1088855,-55.62909,6.101252,9.831171
5.580862045,-6.890744,-1.682615,-2.3703,1.004641,-0.04718418,0.1040951,-55.62909,6.101252,9.831171
5.590748787,-6.890744,-1.506087,-2.431391,1.005139,-0.0437837,0.1035976,-55.25992,6.104079,10.29372
5.600635528,-6.952912,-1.741457,-2.492483,0.9988171,-0.04568306,0.1060046,-55.25992,6.104079,10.29372
5.61052227,-7.325921,-1.859142,-2.431391,1.003675,-0.04572142,0.1040866,-55.25992,6.104079,10.29372
5.620408058,-7.69893,-1.859142,-2.736848,1.001719,-0.05308651,0.09979331,-55.25992,6.104079,10.29372
5.6302948,-8.320611,-1.741457,-2.920122,1.002199,-0.05653925,0.09692577,-55.25992,6.104079,10.29372
5.640181065,-8.258443,-1.8003,-2.981214,0.9997418,-0.06330857,0.09984271,-55.64491,5.360646,10.68487
5.650067329,-7.885434,-1.623772,-2.859031,1.003153,-0.06489119,0.09215986,-55.64491,5.360646,10.68487
5.659953594,-7.077248,-1.388402,-2.859031,1.002648,-0.06874983,0.09458338,-55.64491,5.360646,10.68487
5.669840336,-6.269062,-1.035347,-2.736848,1.005535,-0.07556566,0.09510203,-55.64491,5.360646,10.68487
5.679727077,-5.398708,-0.976505,-2.553574,0.9996983,-0.0734841,0.1032605,-55.64491,5.360646,10.68487
5.689612865,-4.839194,-1.09419,-2.553574,1.001196,-0.06926987,0.09217976,-55.64423,5.738705,10.67956
5.699499607,-3.906672,-1.211875,-2.492483,1.006533,-0.0702615,0.09170992,-55.64423,5.738705,10.67956
5.709386349,-3.720167,-1.153032,-2.309208,1.006051,-0.06779704,0.0936206,-55.64423,5.738705,10.67956
5.71927309,-3.28499,-0.9176625,-1.94266,1.001661,-0.06715044,0.1037117,-55.64423,5.738705,10.67956
5.729158878,-2.974149,-0.976505,-1.759386,0.9968193,-0.06224261,0.1056051,-55.64423,5.738705,10.67956
5.73904562,-2.849813,-0.6822926,-1.698295,0.9997367,-0.06277846,0.1027256,-56.02119,5.744231,10.67098
5.751403332,-2.725477,-0.7411351,-1.270655,0.9978014,-0.06231645,0.1007973,-56.02119,5.744231,10.67098
5.761290073,-2.2903,-0.5646076,-1.026289,1.001225,-0.05452482,0.1012428,-56.02119,5.744231,10.67098
5.771176815,-2.041627,-0.2703952,-0.843015,1.006076,-0.05600964,0.100294,-56.02119,5.744231,10.67098
5.781062603,-2.165963,-0.5057651,-0.6597409,1.000261,-0.05108551,0.103148,-56.02119,5.744231,10.67098
5.790949345,-2.352468,-0.2703952,-0.3542839,0.9949388,-0.0476951,0.1012011,-55.64423,5.738705,10.67956
5.800835609,-2.414636,-0.5646076,-0.3542839,0.9944386,-0.04959158,0.1045766,-55.64423,5.738705,10.67956
5.810722351,-2.60114,-0.85882,-0.04882693,0.9992754,-0.0524797,0.1074822,-55.64423,5.738705,10.67956
5.820608616,-2.414636,-0.85882,0.07335586,0.9992906,-0.04809718,0.1074601,-55.64423,5.738705,10.67956
5.830494881,-2.663309,-0.9176625,0.3788128,0.9949381,-0.04520283,0.1050359,-55.64423,5.738705,10.67956
5.840381622,-2.849813,-0.976505,0.8064526,0.9973763,-0.04030219,0.1074185,-56.02187,5.366172,10.67629
5.85026741,-3.347158,-0.9176625,0.9897268,0.9930101,-0.03732155,0.1107649,-56.02187,5.366172,10.67629
5.860154152,-3.720167,-1.211875,0.867544,0.9954369,-0.03732634,0.1107677,-56.02187,5.366172,10.67629
5.870040894,-4.093176,-1.09419,0.9286354,0.99251,-0.03822256,0.1155781,-56.02187,5.366172,10.67629
5.879927635,-4.155344,-1.153032,0.9897268,0.9959291,-0.03537951,0.1107584,-56.02187,5.366172,10.67629
5.889813423,-4.528353,-1.153032,0.9286354,0.9925225,-0.0402926,0.1074129,-55.65936,5.376159,11.52795
5.899700165,-4.963531,-1.035347,1.050818,0.9940074,-0.0350038,0.1030596,-55.65936,5.376159,11.52795
5.90958643,-5.398708,-1.09419,1.050818,0.9939868,-0.03387888,0.1131532,-55.65936,5.376159,11.52795
5.919473171,-6.082557,-1.211875,1.050818,0.9954477,-0.03689693,0.1069182,-55.65936,5.376159,11.52795
5.929359436,-6.642071,-1.447245,0.9897268,0.9934818,-0.03922714,0.1136606,-55.65936,5.376159,11.52795
5.939245701,-7.201584,-1.270717,1.234092,0.996419,-0.0334183,0.1117109,-55.65868,5.754219,11.52265
5.949132442,-7.512425,-1.035347,1.295184,0.9968705,-0.04415366,0.1103229,-55.65868,5.754219,11.52265
5.959019184,-7.947602,-0.7999775,1.478458,0.9920184,-0.04166619,0.1131904,-55.65868,5.754219,11.52265
5.971376896,-8.071939,-0.7411351,1.478458,0.9954194,-0.04169448,0.1117516,-55.65868,5.754219,11.52265
5.981263161,-8.444947,-0.7411351,1.539549,0.9963709,-0.04356508,0.1170523,-55.65868,5.754219,11.52265
5.991149426,-9.253134,-0.85882,1.356275,0.9900962,-0.03979367,0.1078886,-55.65799,6.132278,11.51734
6.001036167,-9.688311,-0.6234501,1.11191,0.989556,-0.05188728,0.1132392,-55.65799,6.132278,11.51734
6.010922909,-10.55867,-0.3880802,1.050818,0.9934509,-0.05047726,0.110351,-55.65799,6.132278,11.51734
6.020808697,-10.80734,0.08265968,0.8064526,1.001233,-0.04810821,0.1069814,-55.65799,6.132278,11.51734
6.030695438,-10.86951,0.4357146,0.4399042,0.9988259,-0.05220755,0.09305269,-55.65799,6.132278,11.51734
6.04058218,-10.74517,0.965297,0.25663,0.9992944,-0.05707798,0.09307783,-56.02119,5.744231,10.67098
6.050468445,-10.55867,1.200667,-0.5375581,1.003665,-0.0600874,0.08780787,-56.02119,5.744231,10.67098
6.06035471,-10.24782,1.494879,-0.7819237,0.99976,-0.06441909,0.09071085,-56.02119,5.744231,10.67098
6.070240974,-9.439638,1.671407,-1.087381,0.9982859,-0.07126943,0.08833918,-56.02119,5.744231,10.67098
6.080127716,-8.631453,1.847934,-1.392838,1.004079,-0.08003879,0.088871,-56.02119,5.744231,10.67098
6.090014458,-7.885434,1.965619,-1.392838,0.9997256,-0.07465218,0.0902816,-56.02965,5.374525,11.13026
6.099900246,-7.450257,2.142147,-1.392838,0.999711,-0.07854055,0.09078216,-56.02965,5.374525,11.13026
6.109786987,-6.890744,2.259832,-1.453929,1.005555,-0.07071058,0.09411567,-56.02965,5.374525,11.13026
6.119673729,-6.704239,2.612886,-1.576112,1.007983,-0.06873162,0.09651304,-56.02965,5.374525,11.13026
6.129560471,-6.393398,2.730572,-1.759386,1.003105,-0.07354835,0.09941737,-56.02965,5.374525,11.13026
6.139446259,-6.020389,3.201311,-2.187026,1.010362,-0.07739358,0.1037733,-56.03564,5.759745,11.51407
6.149333,-5.833885,3.436681,-2.309208,1.01132,-0.08328921,0.1004378,-56.03564,5.759745,11.51407
6.159219265,-5.150035,4.025106,-2.675757,1.009369,-0.08670839,0.09949099,-56.03564,5.759745,11.51407
6.169106007,-4.528353,4.319319,-2.675757,1.009396,-0.0784159,0.100411,-56.03564,5.759745,11.51407
6.178991795,-3.720167,4.495846,-2.736848,1.01619,-0.07792801,0.1013781,-56.03564,5.759745,11.51407
6.191349983,-2.911981,4.672373,-2.981214,1.016203,-0.07601617,0.0989638,-55.65395,4.67589,11.14856
6.201236725,-2.725477,4.966586,-3.042305,1.009396,-0.07593083,0.1037648,-55.65395,4.67589,11.14856
6.21112299,-2.476804,5.025428,-2.981214,1.003567,-0.08086789,0.09849304,-55.65395,4.67589,11.14856
6.221009731,-2.414636,5.319641,-2.920122,0.9918968,-0.08269917,0.104741,-55.65395,4.67589,11.14856
6.230895996,-2.103795,5.319641,-2.3703,0.9870572,-0.08128627,0.100881,-55.65395,4.67589,11.14856
6.240782261,-1.730786,5.143113,-1.94266,0.9889959,-0.08276534,0.09992882,-56.02312,4.673063,10.68601
6.250669003,-1.046937,5.319641,-1.637203,1.001657,-0.06961395,0.1018004,-56.02312,4.673063,10.68601
6.260555744,-0.5495912,5.437326,-1.51502,0.9963205,-0.06812817,0.1027487,-56.02312,4.673063,10.68601
6.270441532,0.009922287,5.260798,-1.392838,0.9977952,-0.06277462,0.1027233,-56.02312,4.673063,10.68601
6.280328274,0.4450994,4.966586,-1.759386,1.000196,-0.07356417,0.09797136,-56.02312,4.673063,10.68601
6.290215015,1.191117,4.672373,-1.698295,1.00553,-0.07055236,0.1046951,-56.40009,4.678589,10.67743
6.30010128,1.750631,4.495846,-1.759386,1.002612,-0.07101196,0.1061369,-56.40009,4.678589,10.67743
6.309987545,2.061472,4.083949,-1.576112,0.9948546,-0.06657096,0.1089911,-56.40009,4.678589,10.67743
6.31987381,2.434481,3.730894,-1.331746,0.9924448,-0.06368762,0.1060883,-56.40009,4.678589,10.67743
6.329760552,2.558817,3.318996,-0.9651978,0.9910082,-0.05236272,0.1142051,-56.40009,4.678589,10.67743
6.339647293,2.310144,3.260154,-0.4764667,0.9803162,-0.05026438,0.1228389,-56.39285,4.986479,10.28389
6.349533081,1.812799,3.201311,0.1955387,0.9832436,-0.04588762,0.1228201,-56.39285,4.986479,10.28389
6.359419823,1.626294,3.024784,0.5009956,0.9881262,-0.03562817,0.1256594,-56.39285,4.986479,10.28389
6.369306564,0.9424447,3.201311,0.7453612,0.995401,-0.03759754,0.1251967,-56.39285,4.986479,10.28389
6.379193306,0.1342586,3.201311,0.6842698,0.9939607,-0.03470894,0.1227758,-56.39285,4.986479,10.28389
6.389079094,-0.6739275,2.671729,0.25663,1.003647,-0.04155976,0.1218596,-56.00936,4.279491,9.848228
6.401436806,-1.109105,2.083304,-0.2321011,1.001655,-0.05915073,0.1176179,-56.00936,4.279491,9.848228
6.411323547,-0.9226002,1.318352,-0.2931925,0.9996828,-0.06990287,0.1147845,-56.00936,4.279491,9.848228
6.421210289,-0.2387504,0.9064545,-0.2321011,0.9967536,-0.07377112,0.1162435,-56.00936,4.279491,9.848228
6.431097031,0.3207631,0.6710845,0.25663,0.9904346,-0.07469659,0.1186456,-56.00936,4.279491,9.848228
6.440982819,1.501958,0.3768721,0.5009956,0.9875388,-0.06832457,0.1210147,-55.6324,4.273965,9.856808
6.45086956,2.247976,0.3180296,1.234092,0.9904575,-0.05941425,0.1310723,-55.6324,4.273965,9.856808
6.460755825,2.558817,0.6710845,1.539549,0.9905021,-0.0492459,0.1271736,-55.6324,4.273965,9.856808
6.470642567,2.12364,0.7887695,1.478458,0.9812608,-0.0530873,0.1295872,-55.6324,4.273965,9.856808
6.480528355,1.253286,0.847612,1.600641,0.983681,-0.05603535,0.128162,-55.6324,4.273965,9.856808
6.490415096,0.8181084,0.7887695,1.906098,0.9821938,-0.06429619,0.1291639,-56.38564,4.663076,9.834343
6.500301838,0.8181084,0.7887695,1.967189,0.9860837,-0.06633795,0.1234076,-56.38564,4.663076,9.834343
6.51018858,0.7559403,1.024139,2.333737,0.9875363,-0.06432831,0.1277274,-56.38564,4.663076,9.834343
6.520074368,0.9424447,1.200667,2.45592,0.987043,-0.06427702,0.131093,-56.38564,4.663076,9.834343
6.529961109,1.315454,1.024139,2.639194,0.9895219,-0.05366247,0.1247903,-56.38564,4.663076,9.834343
6.539847851,1.688463,1.141824,2.639194,0.9861078,-0.05404921,0.1310403,-56.01588,4.980953,10.29247
6.549734115,1.750631,0.9064545,2.333737,0.9788153,-0.05545251,0.1339246,-56.01588,4.980953,10.29247
6.55962038,1.812799,1.024139,2.394829,0.9788595,-0.05075564,0.1223588,-56.01588,4.980953,10.29247
6.569506645,1.812799,0.7887695,2.517012,0.9807992,-0.04925549,0.125239,-56.01588,4.980953,10.29247
6.579393387,1.750631,0.7887695,2.761377,0.9910061,-0.04389045,0.1271472,-56.01588,4.980953,10.29247
6.589280128,1.377622,0.847612,2.578103,0.9968164,-0.04430979,0.132446,-56.38506,4.978126,9.829924
6.599165916,0.7559403,1.024139,2.45592,0.9992496,-0.04584735,0.1276473,-56.38506,4.978126,9.829924
6.609052658,0.1342586,0.847612,2.333737,0.9963143,-0.05515112,0.1238436,-56.38506,4.978126,9.829924
6.62141037,0.1342586,0.965297,1.906098,0.9919027,-0.06929991,0.1215055,-56.38506,4.978126,9.829924
6.631297111,0.6937721,1.024139,1.783915,0.9928733,-0.06830635,0.1229444,-56.01588,4.980953,10.29247
6.641183853,1.626294,1.141824,1.661732,0.990945,-0.06888295,0.1166931,-56.01588,4.980953,10.29247
6.651070595,2.434481,1.318352,1.967189,0.9856301,-0.06355194,0.1142555,-56.01588,4.980953,10.29247
6.660956383,3.056162,1.436037,1.967189,0.9841751,-0.06256079,0.1152107,-56.01588,4.980953,10.29247
6.670843124,3.491339,1.377194,1.967189,0.9861115,-0.06303,0.116658,-56.01588,4.980953,10.29247
6.680729866,3.304835,1.318352,2.211555,0.9836953,-0.05662298,0.1214321,-55.63114,4.967074,9.847083
6.690616131,3.056162,1.494879,1.967189,0.9856566,-0.054264,0.1166132,-55.63114,4.967074,9.847083
6.700502396,2.745321,1.436037,2.02828,0.9885226,-0.06990239,0.1133291,-55.63114,4.967074,9.847083
6.71038866,2.80749,1.377194,1.783915,0.9899645,-0.06931765,0.1200607,-55.63114,4.967074,9.847083
6.720275402,2.931826,1.612564,1.417367,0.9904591,-0.07435348,0.1090255,-55.63114,4.967074,9.847083
6.730162144,3.242667,1.789092,1.050818,0.9909475,-0.07586561,0.1056672,-56.0081,4.9726,9.838503
6.740047932,4.175189,1.553722,0.7453612,0.9894744,-0.08172768,0.1042524,-56.0081,4.9726,9.838503
6.749934673,5.542889,1.259509,0.9286354,0.9952853,-0.0846393,0.1057165,-56.0081,4.9726,9.838503
6.759821415,6.84842,1.141824,0.867544,0.9972348,-0.08170706,0.1066657,-56.0081,4.9726,9.838503
6.76970768,7.967447,0.965297,0.867544,0.9948034,-0.08366444,0.105711,-56.0081,4.9726,9.838503
6.779593944,8.89997,0.965297,1.050818,0.9943302,-0.07677431,0.1104849,-56.74869,4.969332,9.04311
6.789480686,9.708156,0.9064545,1.173001,0.9962532,-0.08213455,0.1105141,-56.74869,4.969332,9.04311
6.799366951,10.08116,0.729927,1.417367,0.9933273,-0.0820425,0.1162814,-56.74869,4.969332,9.04311
6.809253693,10.45417,0.5533996,1.661732,0.9884915,-0.0751797,0.1186458,-56.74869,4.969332,9.04311
6.819139481,10.45417,0.4945571,1.967189,0.9870647,-0.06640459,0.1190808,-56.74869,4.969332,9.04311
6.829026222,10.70285,0.1415022,2.089372,0.981235,-0.06387204,0.1248324,-55.99939,6.099618,9.433475
6.841384411,10.45417,-0.2115527,2.272646,0.9856125,-0.06294274,0.1224281,-55.99939,6.099618,9.433475
6.851270676,10.39201,-0.3880802,1.967189,0.9865977,-0.05109253,0.1334305,-55.99939,6.099618,9.433475
6.861157417,10.08116,-0.3880802,2.02828,0.9894975,-0.05798746,0.1286594,-55.99939,6.099618,9.433475
6.871044159,9.956828,-0.7411351,1.722824,0.9851462,-0.05808669,0.1214412,-55.99939,6.099618,9.433475
6.880929947,9.770324,-1.09419,1.661732,0.9846711,-0.05615953,0.1199881,-56.00007,5.721559,9.438779
6.890816689,9.956828,-1.153032,1.478458,0.9866206,-0.0562137,0.1166242,-56.00007,5.721559,9.438779
6.90070343,9.832492,-1.447245,1.417367,0.9851462,-0.05709122,0.1228789,-56.00007,5.721559,9.438779
6.910589695,9.89466,-1.741457,1.478458,0.9822466,-0.05915552,0.1147104,-56.00007,5.721559,9.438779
6.92047596,10.08116,-1.976827,1.417367,0.9812576,-0.06102948,0.1195279,-56.00007,5.721559,9.438779
6.930362225,10.019,-2.094512,1.478458,0.9827093,-0.06100358,0.1214531,-55.24547,6.088566,9.450635
6.940248966,10.2055,-2.388725,1.417367,0.9841756,-0.06107119,0.1171269,-55.24547,6.088566,9.450635
6.950135708,10.51634,-2.50641,1.234092,0.9788477,-0.05715067,0.1180628,-55.24547,6.088566,9.450635
6.960022449,10.57851,-2.565252,1.417367,0.9788295,-0.05504467,0.1286324,-55.24547,6.088566,9.450635
6.969908237,10.82718,-2.682937,1.478458,0.9812654,-0.055107,0.1247882,-55.24547,6.088566,9.450635
6.979794979,10.88935,-3.035992,1.417367,0.9846776,-0.04923439,0.127167,-56.00075,5.343499,9.444083
6.989681721,10.51634,-2.859464,1.478458,0.9783666,-0.04622833,0.1319538,-56.00075,5.343499,9.444083
6.999567986,10.2055,-3.212519,1.295184,0.9837216,-0.04335316,0.1295408,-56.00075,5.343499,9.444083
7.00945425,10.019,-3.565574,1.295184,0.984194,-0.04675555,0.1300394,-56.00075,5.343499,9.444083
7.019340515,10.08116,-3.389047,0.9897268,0.9822523,-0.04376531,0.1343504,-56.00075,5.343499,9.444083
7.029227257,9.770324,-3.742102,1.050818,0.9842159,-0.03942977,0.1314452,-55.61576,6.086932,9.052938
7.039113998,9.459483,-3.565574,0.867544,0.9851689,-0.03882249,0.1396188,-55.61576,6.086932,9.052938
7.048999786,9.335147,-3.565574,1.050818,0.990533,-0.03500938,0.1347965,-55.61576,6.086932,9.052938
7.061358452,8.775634,-3.683259,1.050818,0.9866833,-0.02476144,0.1357022,-55.61576,6.086932,9.052938
7.07124424,8.21612,-3.859787,0.9286354,0.9881586,-0.01990923,0.1347175,-55.61576,6.086932,9.052938
7.081130981,7.345766,-3.800944,1.050818,0.9852401,-0.02135713,0.1352024,-56.75929,6.495889,9.800127
7.091017723,6.724084,-3.918629,0.9286354,0.9828206,-0.01990587,0.1342305,-56.75929,6.495889,9.800127
7.100904465,5.915898,-3.977472,0.562087,0.987659,-0.02230705,0.1371336,-56.75929,6.495889,9.800127
7.110790253,5.418552,-3.977472,0.25663,0.990095,-0.02236938,0.1332894,-56.75929,6.495889,9.800127
7.120676994,4.734703,-4.095157,-0.04882693,0.9886321,-0.02232335,0.136173,-56.75929,6.495889,9.800127
7.130563736,4.361694,-4.095157,-0.2321011,0.9915449,-0.02183497,0.1366547,-55.99939,6.099618,9.433475
7.140450001,3.988685,-4.153999,-0.4153753,0.9934762,-0.02276955,0.1395472,-55.99939,6.099618,9.433475
7.150336266,3.11833,-4.271684,-0.5375581,0.9949543,-0.01942852,0.1352037,-55.99939,6.099618,9.433475
7.16022253,2.496649,-4.212842,-0.5986494,0.9901194,-0.01804439,0.1294201,-55.99939,6.099618,9.433475
7.170109272,1.874967,-3.859787,-0.7819237,0.9954414,-0.01894253,0.1352018,-55.99939,6.099618,9.433475
7.179996014,1.128949,-3.683259,-0.9651978,0.9949679,-0.01652841,0.1337463,-55.62773,6.857369,9.820563
7.189881802,0.4450994,-3.330204,-0.7819237,0.9930293,-0.01604482,0.1332607,-55.62773,6.857369,9.820563
7.199768543,-0.4252549,-3.153677,-0.6597409,0.9910816,-0.01649917,0.1351845,-55.62773,6.857369,9.820563
7.209655285,-0.9226002,-3.153677,-0.6597409,0.9915965,-0.01469617,0.1255575,-55.62773,6.857369,9.820563
7.21954155,-1.792954,-3.271362,-0.9041064,0.9935346,-0.0156739,0.1255647,-55.62773,6.857369,9.820563
7.229428291,-2.787645,-3.094834,-0.9651978,0.9901305,-0.01313896,0.1318,-56.01982,6.50035,10.66037
7.239314079,-3.844504,-3.094834,-1.331746,0.9940352,-0.01626968,0.1183544,-56.01982,6.50035,10.66037
7.249200821,-4.714858,-2.859464,-1.392838,0.9857556,-0.02105093,0.1231784,-56.01982,6.50035,10.66037
7.259087563,-5.274371,-2.74178,-1.576112,0.9891469,-0.02052035,0.126546,-56.01982,6.50035,10.66037
7.271445274,-5.958221,-2.388725,-1.820477,0.990635,-0.02172007,0.1116452,-56.01982,6.50035,10.66037
7.281332016,-6.269062,-2.094512,-2.125934,0.9930647,-0.01925417,0.1140401,-55.63619,6.487664,10.27984
7.291218758,-6.33123,-2.03567,-2.431391,0.9935282,-0.02956731,0.1083217,-55.63619,6.487664,10.27984
7.301104546,-6.455566,-1.976827,-2.920122,0.9983801,-0.03006385,0.1083298,-55.63619,6.487664,10.27984
7.310991287,-6.579903,-1.976827,-2.981214,1.003705,-0.03346864,0.1093149,-55.63619,6.487664,10.27984
7.320878029,-6.704239,-1.917985,-3.347762,1.000776,-0.04032329,0.1064606,-55.63619,6.487664,10.27984
7.330764771,-6.828576,-1.8003,-3.71431,1.000275,-0.04619446,0.104566,-55.27437,6.119592,11.13681
7.340650559,-6.766407,-1.8003,-3.592128,1.002222,-0.04523879,0.1036016,-55.27437,6.119592,11.13681
7.3505373,-6.517735,-1.623772,-3.71431,1.002715,-0.04379329,0.102633,-55.27437,6.119592,11.13681
7.360423565,-6.455566,-1.56493,-3.592128,1.002684,-0.04658552,0.1113037,-55.27437,6.119592,11.13681
7.370310307,-6.33123,-1.388402,-3.592128,1.00222,-0.04422894,0.1060011,-55.27437,6.119592,11.13681
7.380196095,-6.206894,-1.447245,-3.653219,1.002196,-0.04905526,0.108911,-56.01982,6.50035,10.66037
7.390082836,-6.455566,-1.153032,-3.653219,1.004128,-0.0524821,0.1079687,-56.01982,6.50035,10.66037
7.399969578,-6.517735,-1.09419,-3.653219,1.006557,-0.0569773,0.1007803,-56.01982,6.50035,10.66037
7.40985632,-6.393398,-0.6234501,-3.469945,1.002666,-0.05990569,0.09982885,-56.01982,6.50035,10.66037
7.419742584,-6.206894,-0.5646076,-3.286671,1.002654,-0.06032791,0.1041593,-56.01982,6.50035,10.66037
7.429628849,-5.709548,-0.5646076,-3.164488,1.003163,-0.05798762,0.09789602,-56.0205,6.122291,10.66568
7.439515591,-5.523044,-0.5646076,-3.164488,1.002688,-0.05208577,0.101713,-56.0205,6.122291,10.66568
7.449401856,-5.523044,-0.9176625,-2.981214,0.9993117,-0.04872796,0.09784485,-56.0205,6.122291,10.66568
7.459288597,-5.398708,-1.035347,-2.920122,0.998316,-0.0525497,0.1026723,-56.0205,6.122291,10.66568
7.469174385,-5.460876,-0.976505,-2.553574,1.001238,-0.05410979,0.09643148,-56.0205,6.122291,10.66568
7.479061127,-5.336539,-0.5646076,-2.614666,1.005624,-0.05323083,0.09066098,-56.39883,5.371698,10.66771
7.491419315,-5.025699,-0.6234501,-2.187026,1.006113,-0.04877735,0.09544823,-56.39883,5.371698,10.66771
7.50130558,-4.901362,-0.85882,-2.003752,1.00175,-0.05029428,0.09112265,-56.39883,5.371698,10.66771
7.511192322,-4.714858,-0.7411351,-1.881569,1.006104,-0.05220755,0.0940228,-56.39883,5.371698,10.66771
7.521079064,-4.590521,-0.976505,-1.637203,0.9988446,-0.04983754,0.08871244,-56.02119,5.744231,10.67098
7.530964852,-4.466185,-1.388402,-1.331746,1.00124,-0.05611511,0.09259425,-56.02119,5.744231,10.67098
7.540851593,-4.404017,-1.211875,-1.331746,0.9993072,-0.0486992,0.09976839,-56.02119,5.744231,10.67098
7.550738335,-4.217513,-1.447245,-1.331746,0.9993174,-0.04776845,0.09687817,-56.02119,5.744231,10.67098
7.560624599,-4.155344,-1.447245,-1.270655,0.9954537,-0.0458921,0.09157418,-56.02119,5.744231,10.67098
7.570511341,-3.782336,-1.8003,-1.209563,1.000797,-0.04244368,0.09492926,-55.64423,5.738705,10.67956
7.580397129,-3.595831,-1.976827,-0.9651978,1.000804,-0.03950762,0.09587628,-55.64423,5.738705,10.67956
7.590283871,-3.720167,-1.917985,-0.5986494,1.002736,-0.03795712,0.1021226,-55.64423,5.738705,10.67956
7.600170612,-4.155344,-2.153355,-0.5375581,1.004209,-0.0310996,0.1049752,-55.64423,5.738705,10.67956
7.610057354,-4.839194,-2.153355,-0.1099183,1.004225,-0.02920934,0.1011183,-55.64423,5.738705,10.67956
7.619943142,-5.709548,-2.388725,-0.04882693,1.000823,-0.02967519,0.1020786,-56.02965,5.374525,11.13026
7.629829883,-6.393398,-2.153355,0.1344473,1.000831,-0.03021967,0.09823398,-56.02965,5.374525,11.13026
7.639716625,-7.077248,-2.094512,0.01226447,0.993516,-0.03944289,0.09923411,-56.02965,5.374525,11.13026
7.64960289,-7.139416,-2.03567,-0.04882693,1.002741,-0.03997683,0.09732362,-56.02965,5.374525,11.13026
7.659489155,-7.139416,-2.03567,0.1955387,0.9993332,-0.04289179,0.09733447,-56.02965,5.374525,11.13026
7.66937542,-7.077248,-1.917985,0.1955387,0.9998112,-0.04334374,0.09974191,-56.02187,5.366172,10.67629
7.679262161,-6.952912,-2.094512,0.3788128,1.007079,-0.04377316,0.1045615,-56.02187,5.366172,10.67629
7.689148903,-7.263752,-1.859142,0.562087,1.004668,-0.04187811,0.1007019,-56.02187,5.366172,10.67629
7.699035644,-7.69893,-1.741457,0.8064526,1.004658,-0.04479979,0.1007166,-56.02187,5.366172,10.67629
7.711393356,-7.885434,-1.56493,0.8064526,1.001257,-0.04825924,0.09688286,-56.02187,5.366172,10.67629
7.721280098,-8.196275,-1.035347,0.867544,1.001247,-0.05018545,0.09833535,-56.03033,4.996466,11.13556
7.731165886,-7.947602,-0.9176625,0.867544,1.003686,-0.04827841,0.09592389,-56.03033,4.996466,11.13556
7.741052628,-7.69893,-0.6234501,0.867544,1.003684,-0.04826403,0.09688564,-56.03033,4.996466,11.13556
7.750939369,-7.761098,0.1415022,0.9897268,1.004197,-0.0399797,0.09732529,-56.03033,4.996466,11.13556
7.760825634,-7.823266,0.3180296,0.8064526,1.009032,-0.04683532,0.09544174,-56.03033,4.996466,11.13556
7.770711899,-8.071939,0.4945571,0.7453612,1.002261,-0.0410073,0.09348091,-55.2824,5.370633,11.53653
7.78059864,-8.382779,0.7887695,0.562087,1.006648,-0.03765045,0.09058341,-55.2824,5.370633,11.53653
7.790484905,-8.880125,0.9064545,0.5009956,1.006638,-0.03858119,0.09347363,-55.2824,5.370633,11.53653
7.800371647,-8.880125,1.141824,0.5009956,1.01051,-0.04150335,0.09397372,-55.2824,5.370633,11.53653
7.810258388,-8.942293,1.494879,0.3788128,1.006627,-0.04249115,0.09253153,-55.2824,5.370633,11.53653
7.820144176,-8.942293,1.671407,0.562087,1.007603,-0.04401863,0.08821207,-55.66061,4.683051,11.53768
7.830030918,-8.880125,1.730249,0.562087,1.007617,-0.03863345,0.09010855,-55.66061,4.683051,11.53768
7.83991766,-9.004461,1.789092,0.5009956,1.008565,-0.03899287,0.09876803,-55.66061,4.683051,11.53768
7.849803925,-9.37747,1.671407,0.25663,1.009046,-0.04095599,0.09781665,-55.66061,4.683051,11.53768
7.859690666,-9.812647,1.671407,0.07335586,1.010003,-0.04534763,0.09735902,-55.66061,4.683051,11.53768
7.869576454,-10.06132,1.906777,-0.04882693,1.002218,-0.05217831,0.095461,-55.28975,4.999734,11.93095
7.879463196,-10.18566,2.318674,-0.4153753,1.004156,-0.0541515,0.09403041,-55.28975,4.999734,11.93095
7.889349937,-10.24782,3.024784,-0.2931925,1.001735,-0.05418267,0.09162321,-55.28975,4.999734,11.93095
7.899236679,-9.563974,3.377839,-0.4764667,1.006559,-0.06097355,0.09406761,-55.28975,4.999734,11.93095
7.909122467,-9.439638,3.907421,-0.2321011,1.008006,-0.06490079,0.09216543,-55.28975,4.999734,11.93095
7.919009209,-8.880125,4.083949,-0.3542839,1.005085,-0.06483749,0.09600915,-55.65463,4.297832,11.15386
7.93136692,-8.444947,4.201633,-0.9041064,1.001206,-0.06883325,0.08881111,-55.65463,4.297832,11.15386
7.941253662,-8.196275,4.083949,-1.087381,0.9997133,-0.08054587,0.08694492,-55.65463,4.297832,11.15386
7.951140404,-7.885434,4.495846,-1.209563,0.9982368,-0.08439542,0.08984822,-55.65463,4.297832,11.15386
7.961026669,-7.325921,4.495846,-1.270655,0.9987455,-0.08305062,0.08214726,-55.65463,4.297832,11.15386
7.97091341,-6.704239,4.907743,-1.698295,1.005017,-0.08829723,0.09035657,-55.6613,4.304992,11.54298
7.980799675,-5.958221,4.848901,-1.576112,1.004512,-0.09413964,0.09038551,-55.6613,4.304992,11.54298
7.99068594,-5.150035,4.907743,-2.064843,1.005016,-0.09127645,0.08652426,-55.6613,4.304992,11.54298
8.000572681,-3.96884,4.790059,-2.309208,1.000144,-0.08916085,0.09708828,-55.6613,4.304992,11.54298
8.010459423,-2.911981,4.495846,-2.3703,1.00449,-0.09898034,0.09233364,-55.6613,4.304992,11.54298
8.020345211,-2.041627,4.437004,-2.3703,0.9952597,-0.1023923,0.09089763,-55.64616,4.667537,10.69459
8.030231953,-1.233441,4.672373,-2.125934,0.9981892,-0.09205712,0.09854347,-55.64616,4.667537,10.69459
8.040118694,-0.7360957,4.672373,-1.51502,0.990416,-0.0944837,0.09806596,-55.64616,4.667537,10.69459
8.050004959,-0.1765822,4.613531,-1.392838,0.9909063,-0.087051,0.1066855,-55.64616,4.667537,10.69459
8.059891701,0.07209045,4.790059,-1.209563,1.001134,-0.07882901,0.104251,-55.64616,4.667537,10.69459
8.069777489,0.3829313,4.907743,-1.087381,0.998717,-0.08087987,0.09704481,-56.02312,4.673063,10.68601
8.07966423,0.2585949,4.848901,-1.148472,0.9953018,-0.08524131,0.09802481,-56.02312,4.673063,10.68601
8.089550972,0.3207631,5.025428,-1.148472,0.9899373,-0.09153949,0.09949331,-56.02312,4.673063,10.68601
8.099437714,0.5072676,4.613531,-1.026289,0.9821618,-0.09494715,0.09853984,-56.02312,4.673063,10.68601
8.109323502,1.191117,4.378161,-0.9041064,0.9845898,-0.09396367,0.09949948,-56.02312,4.673063,10.68601
8.119210243,1.750631,3.848579,-0.5375581,0.9792671,-0.09156873,0.09611488,-56.02381,4.295004,10.69131
8.129096985,2.683153,3.789736,-0.1710097,0.9802547,-0.08371477,0.1004046,-56.02381,4.295004,10.69131
8.141454697,3.80218,3.613209,0.4399042,0.9846614,-0.0750087,0.09699916,-56.02381,4.295004,10.69131
8.151341438,4.113021,3.436681,0.3177214,0.986626,-0.06669848,0.09936401,-56.02381,4.295004,10.69131
8.161227703,4.299526,3.083626,0.562087,0.9832143,-0.07008601,0.1003391,-56.02381,4.295004,10.69131
8.171114445,4.361694,2.495202,0.5009956,0.9861236,-0.06758512,0.105139,-56.02449,3.916945,10.69662
8.18100071,4.423862,2.142147,0.5009956,0.9900213,-0.06569535,0.1017674,-56.02449,3.916945,10.69662
8.190886974,4.361694,1.671407,0.3177214,0.9851795,-0.066259,0.09599371,-56.02449,3.916945,10.69662
8.200773716,4.237358,1.141824,0.07335586,0.9841771,-0.06804666,0.1065819,-56.02449,3.916945,10.69662
8.210660458,4.672534,0.847612,0.01226447,0.9822581,-0.06520025,0.1012752,-56.02449,3.916945,10.69662
8.220547199,4.859039,0.4945571,0.1955387,0.9778807,-0.06612954,0.1036795,-56.02381,4.295004,10.69131
8.230432987,5.480721,-0.09386778,0.1955387,0.9827265,-0.06409786,0.1099267,-56.02381,4.295004,10.69131
8.240319729,5.791562,-0.3292377,0.562087,0.9827571,-0.06031016,0.1026938,-56.02381,4.295004,10.69131
8.250205994,5.978066,-0.7999775,0.867544,0.9905093,-0.05824827,0.1113488,-56.02381,4.295004,10.69131
8.260092735,5.85373,-0.85882,1.11191,0.9939209,-0.05187434,0.1146869,-56.02381,4.295004,10.69131
8.269978523,5.605057,-1.035347,1.295184,0.9929479,-0.05185803,0.1156475,-55.6395,4.660378,10.30547
8.279865265,5.356384,-1.32956,1.539549,0.9953431,-0.05962521,0.1176132,-55.6395,4.660378,10.30547
8.289752007,4.859039,-1.56493,1.600641,0.9977636,-0.05809725,0.1224174,-55.6395,4.660378,10.30547
8.299638748,4.610366,-1.741457,1.600641,0.9934033,-0.05813896,0.1190462,-55.6395,4.660378,10.30547
8.309525013,4.050853,-1.859142,1.661732,0.9885196,-0.06440934,0.1224388,-55.6395,4.660378,10.30547
8.319411278,4.237358,-1.741457,1.539549,0.9938537,-0.06886712,0.1181391,-56.3941,4.29337,10.29362
8.329298019,4.672534,-1.682615,1.600641,0.9933888,-0.06501375,0.1152336,-56.3941,4.29337,10.29362
8.339184284,4.859039,-1.623772,1.600641,0.9967745,-0.06743362,0.1166924,-56.3941,4.29337,10.29362
8.349071026,5.16988,-1.211875,1.600641,0.9929057,-0.06502717,0.1142713,-56.3941,4.29337,10.29362
8.361429215,5.605057,-1.32956,1.722824,0.9919004,-0.07028098,0.1210296,-56.39951,4.993639,10.67301
8.371315479,5.85373,-1.153032,1.722824,0.9880441,-0.06795365,0.1133187,-56.39951,4.993639,10.67301
8.381202221,6.226739,-1.09419,2.150463,0.987057,-0.07332252,0.1123828,-56.39951,4.993639,10.67301
8.391088009,6.413243,-1.035347,2.211555,0.9929211,-0.06562199,0.1070605,-56.39951,4.993639,10.67301
8.400974751,6.724084,-0.9176625,2.333737,0.9865795,-0.0703855,0.1133293,-56.39951,4.993639,10.67301
8.410861492,6.724084,-0.6822926,2.333737,0.9899934,-0.06601688,0.1128302,-56.01588,4.980953,10.29247
8.420748234,7.159261,-0.6822926,1.906098,0.9904731,-0.06498642,0.1166729,-56.01588,4.980953,10.29247
8.430634499,7.407934,-0.5646076,1.783915,0.9929147,-0.06309377,0.1132997,-56.01588,4.980953,10.29247
8.440520763,7.967447,-0.4469227,1.295184,0.9924419,-0.06317192,0.1080094,-56.01588,4.980953,10.29247
8.450407028,8.153952,-0.3292377,1.295184,0.9953563,-0.06219658,0.1084887,-56.01588,4.980953,10.29247
8.46029377,8.52696,-0.5646076,0.9286354,0.993403,-0.06460591,0.1099414,-56.01588,4.980953,10.29247
8.470180512,8.713465,-0.5057651,0.867544,0.9939029,-0.05872755,0.1123169,-55.63114,4.967074,9.847083
8.480067253,8.962138,-0.6234501,0.6231784,0.9963264,-0.05970624,0.1123246,-55.63114,4.967074,9.847083
8.489953041,8.837802,-0.5057651,0.8064526,0.98857,-0.05527241,0.114698,-55.63114,4.967074,9.847083
8.499839783,8.775634,-0.5057651,0.6231784,0.9812809,-0.05868823,0.1132642,-55.63114,4.967074,9.847083
8.509726048,8.651297,-0.5646076,0.8064526,0.9808163,-0.05035883,0.116588,-55.63114,4.967074,9.847083
8.519612789,8.52696,-0.09386778,0.9286354,0.9813023,-0.05086112,0.1156292,-55.64559,4.982587,10.69017
8.529499531,8.651297,0.02381719,1.173001,0.9813272,-0.04803293,0.109363,-55.64559,4.982587,10.69017
8.539385319,8.775634,0.4357146,1.295184,0.9817933,-0.0489071,0.1161008,-55.64559,4.982587,10.69017
8.54927206,8.589128,0.3768721,1.173001,0.9769915,-0.03927364,0.108352,-55.64559,4.982587,10.69017
8.559158802,8.153952,0.3768721,1.11191,0.9798924,-0.03821201,0.1146019,-55.64559,4.982587,10.69017
8.569045544,7.843111,0.2003446,0.6842698,0.9808841,-0.03486283,0.1107387,-56.02255,4.988113,10.68159
8.581403255,7.470102,-0.09386778,-0.04882693,0.9871964,-0.03688062,0.1069087,-56.02255,4.988113,10.68159
8.591289997,7.407934,-0.5057651,-0.3542839,0.9910715,-0.03882889,0.1074039,-56.02255,4.988113,10.68159
8.601176739,7.159261,-0.7411351,-0.6597409,0.9910784,-0.04086297,0.1016431,-56.02255,4.988113,10.68159
8.611062527,7.470102,-1.035347,-0.9041064,0.9959072,-0.04469623,0.1064772,-56.01452,5.737072,10.28187
8.620949268,7.718775,-1.153032,-1.087381,0.9963874,-0.04217615,0.1122361,-56.01452,5.737072,10.28187
8.630835533,7.905279,-1.09419,-1.087381,0.9920237,-0.04518269,0.1059943,-56.01452,5.737072,10.28187
8.640722275,7.905279,-1.506087,-0.9651978,0.9949221,-0.04311121,0.1146437,-56.01452,5.737072,10.28187
8.650608063,7.843111,-1.388402,-0.7819237,0.9929987,-0.03724963,0.1155738,-56.01452,5.737072,10.28187
8.660494804,7.780943,-1.32956,-0.7208322,0.9891123,-0.04020678,0.1126988,-56.76912,5.370064,10.27001
8.670381546,7.283597,-1.741457,-0.5986494,0.9871454,-0.04252981,0.1199221,-56.76912,5.370064,10.27001
8.680268288,7.097093,-1.8003,-0.9041064,0.9954123,-0.03567851,0.1232633,-56.76912,5.370064,10.27001
8.690154552,6.724084,-1.8003,-0.6597409,0.9920166,-0.03618032,0.1218192,-56.76912,5.370064,10.27001
8.700040817,6.413243,-1.917985,-0.7208322,0.992016,-0.03667446,0.1213408,-56.76912,5.370064,10.27001
8.709927559,5.978066,-1.917985,-0.7208322,0.9963701,-0.03908187,0.1237625,-56.01384,6.115131,10.27656
8.719813824,5.85373,-1.682615,-0.6597409,0.9915239,-0.03961676,0.1199123,-56.01384,6.115131,10.27656
8.729700565,5.667225,-1.623772,-0.843015,0.9944372,-0.04162064,0.1165593,-56.01384,6.115131,10.27656
8.739587307,5.791562,-1.56493,-0.843015,0.9910254,-0.04202177,0.1218476,-56.01384,6.115131,10.27656
8.749473095,5.915898,-1.506087,-0.6597409,0.9905593,-0.03915666,0.1179852,-56.01384,6.115131,10.27656
8.759359837,5.667225,-1.682615,-0.7208322,0.992522,-0.04078674,0.1069345,-55.63824,5.353486,10.29575
8.769246578,5.791562,-1.623772,-0.6597409,0.9876618,-0.03824893,0.1131681,-55.63824,5.353486,10.29575
8.779132843,5.356384,-1.56493,-0.6597409,0.9779957,-0.03202169,0.10495,-55.63824,5.353486,10.29575
8.789019585,5.356384,-1.8003,-0.7208322,0.9804107,-0.03244871,0.1092832,-55.63824,5.353486,10.29575
8.801377773,4.921207,-2.03567,-1.026289,0.9872088,-0.03297785,0.1073699,-55.63824,5.353486,10.29575
8.811264038,4.734703,-1.917985,-1.270655,0.9872048,-0.03345041,0.1083342,-56.0152,5.359012,10.28717
8.82115078,4.734703,-1.976827,-1.331746,0.9857554,-0.03149975,0.1083227,-56.0152,5.359012,10.28717
8.831036568,4.672534,-2.094512,-1.392838,0.9911188,-0.02519438,0.107335,-56.0152,5.359012,10.28717
8.840923309,4.672534,-2.388725,-1.576112,0.9877042,-0.02806619,0.1102312,-56.0152,5.359012,10.28717
8.850810051,4.672534,-2.329882,-1.759386,0.9872478,-0.02476448,0.1030002,-56.0152,5.359012,10.28717
8.860696793,4.361694,-2.447567,-1.94266,0.9916013,-0.02268869,0.1121321,-55.64491,5.360646,10.68487
8.870582581,3.926517,-2.74178,-1.881569,0.994505,-0.02512917,0.1121478,-55.64491,5.360646,10.68487
8.880469322,3.367003,-2.74178,-2.064843,0.9940332,-0.02421905,0.1078143,-55.64491,5.360646,10.68487
8.890355587,3.242667,-2.918307,-2.003752,0.9988704,-0.02263116,0.1169493,-55.64491,5.360646,10.68487
8.900242329,2.80749,-2.918307,-1.881569,0.9978917,-0.02357437,0.1188767,-55.64491,5.360646,10.68487
8.91012907,2.869658,-3.035992,-1.881569,1.000823,-0.01872503,0.1178937,-56.02187,5.366172,10.67629
8.920014858,2.745321,-3.035992,-1.637203,0.9998423,-0.01965386,0.1207828,-56.02187,5.366172,10.67629
8.9299016,2.185808,-3.271362,-1.453929,1.002764,-0.01723207,0.1202929,-56.02187,5.366172,10.67629
8.939788342,1.812799,-3.212519,-1.148472,1.001288,-0.01859654,0.1265501,-56.02187,5.366172,10.67629
8.949675083,0.8181084,-3.094834,-0.843015,0.9974254,-0.01274551,0.1265162,-56.02187,5.366172,10.67629
8.959561348,-0.487423,-3.035992,-0.6597409,1.001303,-0.0166991,0.1231741,-56.02255,4.988113,10.68159
8.96944809,-1.046937,-2.624094,-0.5375581,0.999862,-0.01530011,0.1188371,-56.02255,4.988113,10.68159
8.979333878,-1.544282,-2.447567,-0.5375581,1.006152,-0.0236482,0.1150391,-56.02255,4.988113,10.68159
8.989220619,-1.482114,-2.212197,-0.2931925,1.005185,-0.02416919,0.112636,-56.02255,4.988113,10.68159
8.999107361,-1.109105,-2.27104,-0.2931925,1.018267,-0.0290214,0.1155609,-56.02255,4.988113,10.68159
9.008994102,-0.3009185,-1.917985,-0.2321011,1.025538,-0.02798279,0.1208541,-56.02119,5.744231,10.67098
9.021351814,0.3207631,-2.094512,-0.2321011,1.037674,-0.02204115,0.1290135,-56.02119,5.744231,10.67098
9.031238556,0.5072676,-2.212197,-0.04882693,1.039616,-0.01906577,0.132848,-56.02119,5.744231,10.67098
9.041125298,0.3207631,-2.50641,0.01226447,1.046436,-0.01077234,0.1347376,-56.02119,5.744231,10.67098
9.051011086,-0.2387504,-2.447567,0.07335586,1.039136,-0.01163116,0.1414665,-56.02119,5.744231,10.67098
9.060897827,-1.233441,-2.094512,0.1955387,1.027493,-0.01114996,0.1395271,-56.02119,5.744231,10.67098
9.070784092,-2.911981,-1.623772,0.25663,1.00953,-0.01208117,0.1399924,-56.02119,5.744231,10.67098
9.080670834,-5.087867,-0.6234501,0.4399042,0.9935039,-0.01846613,0.1342353,-56.02119,5.744231,10.67098
9.090557575,-7.325921,0.612242,0.7453612,0.9804119,-0.02001614,0.1265336,-56.02119,5.744231,10.67098
9.100443363,-9.501806,1.318352,0.5009956,0.9770597,-0.01531975,0.114483,-56.02119,5.744231,10.67098
9.110330105,-11.24251,2.259832,0.4399042,0.9712437,-0.01386898,0.1130263,-55.65269,5.368999,11.13883
9.120216846,-12.54805,2.965941,0.1344473,0.9721878,-0.02116791,0.1135451,-55.65269,5.368999,11.13883
9.130103111,-13.35623,3.142469,-0.5375581,0.9712163,-0.02812708,0.1039608,-55.65269,5.368999,11.13883
9.139989853,-13.4184,3.201311,-0.7819237,0.9653716,-0.03893627,0.09679494,-55.65269,5.368999,11.13883
9.149876118,-12.98322,2.789414,-1.576112,0.9658419,-0.04730163,0.0910667,-55.65269,5.368999,11.13883
9.159762383,-11.80203,2.730572,-1.820477,0.9673089,-0.04986149,0.08290565,-56.02965,5.374525,11.13026
9.169649124,-10.43433,2.612886,-2.003752,0.97558,-0.04353311,0.08384492,-56.02965,5.374525,11.13026
9.179535866,-9.004461,2.671729,-2.675757,0.982417,-0.03385794,0.08043735,-56.02965,5.374525,11.13026
9.189422607,-8.00977,2.436359,-3.042305,0.9863327,-0.02312402,0.08231125,-56.02965,5.374525,11.13026
9.199308395,-7.69893,2.142147,-3.592128,0.986819,-0.01417295,0.09477051,-56.02965,5.374525,11.13026
9.209195137,-7.823266,1.789092,-3.897585,0.9911647,-0.01602869,0.1015177,-56.03757,4.688577,11.5291
9.219081402,-8.258443,1.730249,-4.203042,0.9974671,-0.01649215,0.1039318,-56.03757,4.688577,11.5291
9.231439591,-8.880125,1.553722,-4.447407,1.005697,-0.01687314,0.1121188,-56.03757,4.688577,11.5291
9.241326332,-9.688311,1.553722,-4.630681,1.00324,-0.02264698,0.1164735,-56.03757,4.688577,11.5291
9.251212597,-10.683,1.553722,-4.630681,0.9983664,-0.02699114,0.1184135,-56.03757,4.688577,11.5291
9.261099339,-11.05601,1.200667,-4.691772,0.998811,-0.03071508,0.129975,-56.037,5.003626,11.52468
9.27098608,-11.05601,1.141824,-4.691772,1.002191,-0.03956594,0.1247334,-56.037,5.003626,11.52468
9.280871868,-10.99384,1.318352,-4.508498,1.000234,-0.04245502,0.1266695,-56.037,5.003626,11.52468
9.29075861,-11.18035,1.671407,-4.508498,0.9958419,-0.05174872,0.123345,-56.037,5.003626,11.52468
9.300645351,-10.93167,1.847934,-4.080859,0.9983136,-0.04656251,0.1122604,-56.037,5.003626,11.52468
9.310531616,-10.74517,2.377517,-3.775402,0.9992596,-0.0563609,0.1084636,-56.02255,4.988113,10.68159
9.320418358,-10.43433,2.554044,-3.042305,1.003624,-0.05783756,0.1079951,-56.02255,4.988113,10.68159
9.330304623,-10.18566,2.495202,-2.492483,1.002185,-0.05744842,0.1012586,-56.02255,4.988113,10.68159
9.340190888,-9.688311,2.318674,-2.064843,1.004123,-0.05792482,0.1022251,-56.02255,4.988113,10.68159
9.350077629,-9.128798,2.377517,-1.576112,1.002672,-0.05894618,0.09886216,-56.02255,4.988113,10.68159
9.359964371,-8.569283,2.200989,-1.637203,1.001717,-0.05655987,0.09548257,-55.27767,4.292305,11.16244
9.369850636,-7.761098,2.024462,-1.576112,1.001231,-0.05705305,0.09500358,-55.27767,4.292305,11.16244
9.3797369,-7.077248,1.965619,-1.392838,1.003707,-0.04641693,0.09014344,-55.27767,4.292305,11.16244
9.389623642,-6.020389,1.553722,-1.392838,1.007118,-0.04004299,0.09348156,-55.27767,4.292305,11.16244
9.399509907,-5.274371,1.553722,-1.087381,1.004231,-0.03123624,0.09583838,-55.27767,4.292305,11.16244
9.409396649,-4.901362,1.377194,-0.843015,0.9993924,-0.02584865,0.09724842,-54.9649,3.531581,11.1802
9.41928339,-5.336539,1.318352,-0.5375581,0.9974554,-0.02189171,0.1010736,-54.9649,3.531581,11.1802
9.429170132,-5.896053,1.200667,-0.5375581,0.9945384,-0.01887078,0.107307,-54.9649,3.531581,11.1802
9.43905592,-6.766407,0.612242,-0.5986494,0.9969844,-0.01302502,0.1077611,-54.9649,3.531581,11.1802
9.451414585,-8.071939,0.4357146,-0.5375581,0.9969827,-0.0125165,0.1092013,-56.40923,3.930824,11.14201
9.461300373,-9.066629,-0.03502529,-0.843015,0.9950486,-0.01405261,0.1039168,-56.40923,3.930824,11.14201
9.471187115,-9.688311,0.08265968,-1.087381,0.9950047,-0.02571776,0.1054184,-56.40923,3.930824,11.14201
9.481073856,-9.936983,0.08265968,-1.026289,0.9920813,-0.03260837,0.1001598,-56.40923,3.930824,11.14201
9.490960121,-9.936983,0.02381719,-0.9041064,0.9891521,-0.03647662,0.1016188,-56.40923,3.930824,11.14201
9.500846863,-9.688311,-0.03502529,-0.5986494,0.9861946,-0.04812882,0.103598,-55.65463,4.297832,11.15386
9.510733605,-8.880125,-0.2115527,-0.5986494,0.9876656,-0.04822519,0.09734816,-55.65463,4.297832,11.15386
9.520619393,-8.258443,-0.1527103,-0.4764667,0.9920118,-0.05058226,0.1031361,-55.65463,4.297832,11.15386
9.530506134,-7.512425,-0.3292377,-0.4764667,1.000284,-0.04525653,0.1021567,-55.65463,4.297832,11.15386
9.540392876,-6.828576,-0.5646076,-0.9041064,1.001258,-0.04975604,0.09448582,-55.65463,4.297832,11.15386
9.55027914,-6.020389,-0.3880802,-1.148472,0.9998016,-0.04776222,0.09735962,-56.77773,4.306056,10.67415
9.560165882,-5.896053,-0.6234501,-1.209563,1.003166,-0.0609956,0.09214018,-56.77773,4.306056,10.67415
9.570052147,-5.274371,-0.3292377,-1.270655,0.9988136,-0.05810125,0.089716,-56.77773,4.306056,10.67415
9.579938412,-5.212203,-0.2115527,-1.087381,0.9944525,-0.05764163,0.08730412,-56.77773,4.306056,10.67415
9.589825153,-4.528353,0.02381719,-1.270655,0.9992757,-0.06243439,0.09310488,-56.77773,4.306056,10.67415
9.599711895,-3.906672,0.2591871,-1.331746,0.997353,-0.05707414,0.0930756,-56.03296,3.547239,11.15589
9.60959816,-3.720167,0.4945571,-1.637203,0.9949253,-0.05358161,0.09834532,-56.03296,3.547239,11.15589
9.619484901,-4.031008,0.729927,-1.637203,0.9924921,-0.05005312,0.1060195,-56.03296,3.547239,11.15589
9.629371166,-4.528353,0.729927,-1.698295,0.9876469,-0.0505952,0.1016884,-56.03296,3.547239,11.15589
9.639257431,-4.155344,0.729927,-1.698295,0.9924832,-0.0559684,0.1012401,-56.03296,3.547239,11.15589
9.649144173,-3.657999,0.6710845,-1.698295,0.9963787,-0.05605518,0.09595487,-56.77978,3.171878,10.69007
9.659030914,-2.849813,0.6710845,-2.003752,1.000236,-0.05938518,0.1017471,-56.77978,3.171878,10.69007
9.671388626,-1.917291,1.024139,-2.064843,1.005603,-0.05210591,0.1007546,-56.77978,3.171878,10.69007
9.681275368,-1.357777,1.024139,-2.125934,1.015356,-0.04643995,0.0901568,-56.77978,3.171878,10.69007
9.691162109,-0.9847683,1.377194,-2.064843,1.017332,-0.03273017,0.0953799,-56.77978,3.171878,10.69007
9.701047897,-0.860432,1.141824,-1.881569,1.018271,-0.0380022,0.1011787,-56.02517,3.538886,10.70192
9.710934639,-1.295609,0.9064545,-1.820477,1.013904,-0.04148849,0.09542026,-56.02517,3.538886,10.70192
9.720821381,-1.792954,1.200667,-1.51502,1.016293,-0.04821705,0.101709,-56.02517,3.538886,10.70192
9.730707645,-2.228132,1.141824,-1.331746,1.012414,-0.04873228,0.09930255,-56.02517,3.538886,10.70192
9.740594387,-2.228132,1.377194,-1.270655,1.014335,-0.05457949,0.09933428,-56.02517,3.538886,10.70192
9.750481129,-1.855123,1.730249,-0.7819237,1.009462,-0.05842951,0.1017528,-56.03364,3.169179,11.1612
9.760366917,-1.233441,1.789092,-0.4153753,1.012388,-0.05553516,0.1002987,-56.03364,3.169179,11.1612
9.770253658,-0.9226002,1.965619,-0.1710097,1.012399,-0.05062973,0.1026786,-56.03364,3.169179,11.1612
9.7801404,-0.3630867,1.965619,0.25663,1.009006,-0.04866084,0.1036266,-56.03364,3.169179,11.1612
9.790026665,-0.114414,2.083304,0.6231784,1.005605,-0.04614748,0.1084192,-56.03364,3.169179,11.1612
9.799913406,0.2585949,2.142147,0.6842698,1.005611,-0.04618344,0.1060148,-55.64958,2.777241,10.72111
9.809799671,0.3829313,2.612886,1.050818,1.006575,-0.04614221,0.1089012,-55.64958,2.777241,10.72111
9.819685936,0.8181084,2.848256,1.11191,1.001753,-0.04135664,0.1026196,-55.64958,2.777241,10.72111
9.829572678,1.128949,3.260154,1.234092,0.9993285,-0.03888115,0.1050089,-55.64958,2.777241,10.72111
9.839459419,1.128949,3.142469,1.539549,1.008086,-0.03405052,0.1035517,-55.64958,2.777241,10.72111
9.849345684,1.066781,3.142469,1.722824,1.009552,-0.02665571,0.109768,-56.03364,3.169179,11.1612
9.859232426,0.6937721,3.201311,1.967189,1.014391,-0.03104782,0.1097957,-56.03364,3.169179,11.1612
9.86911869,0.6316039,3.083626,1.967189,1.009054,-0.02806525,0.113141,-56.03364,3.169179,11.1612
9.879004955,0.07209045,3.024784,1.906098,0.9998045,-0.0318563,0.1189207,-56.03364,3.169179,11.1612
9.891363621,-0.860432,3.083626,1.722824,0.9876556,-0.03771164,0.1165319,-56.03364,3.169179,11.1612
9.901249886,-1.295609,3.083626,1.967189,0.9857056,-0.04014254,0.1165419,-56.02654,2.782767,10.71253
9.91113615,-1.357777,3.377839,2.150463,0.9828052,-0.03473722,0.1193968,-56.02654,2.782767,10.71253
9.921022892,-1.295609,3.613209,2.150463,0.979389,-0.04108239,0.1179823,-56.02654,2.782767,10.71253
9.930909634,-1.109105,3.907421,2.150463,0.9847252,-0.04057723,0.1199095,-56.02654,2.782767,10.71253
9.940796375,-1.171273,3.966264,1.967189,0.988636,-0.03628149,0.1146021,-56.02654,2.782767,10.71253
9.950682163,-1.171273,3.613209,1.661732,1.000729,-0.04201937,0.1233014,-56.03432,2.791121,11.1665
9.960568905,-1.171273,3.495524,1.478458,1.000717,-0.04840722,0.1194863,-56.03432,2.791121,11.1665
9.97045517,-1.419945,3.318996,1.295184,1.004607,-0.05044898,0.11373,-56.03432,2.791121,11.1665
9.980341911,-1.792954,3.377839,1.173001,0.999742,-0.05285973,0.1146985,-56.03432,2.791121,11.1665
9.990228653,-1.917291,3.495524,0.867544,0.9924271,-0.06307843,0.1142609,-56.03432,2.791121,11.1665
10.000115395,-1.792954,3.377839,0.6231784,0.9894968,-0.06793495,0.114763,-56.01184,3.524566,9.923688
10.010001183,-1.109105,3.907421,0.6842698,0.9933724,-0.06938909,0.1157366,-56.01184,3.524566,9.923688
10.019887924,-0.114414,4.083949,0.6231784,0.9894414,-0.08151912,0.118198,-56.01184,3.524566,9.923688
10.029774189,1.191117,4.437004,0.6842698,0.9914042,-0.07170492,0.1234408,-56.01184,3.524566,9.923688
10.039660931,2.434481,4.613531,0.6231784,0.9942971,-0.07357934,0.1287437,-56.01184,3.524566,9.923688
10.049547672,3.242667,4.672373,0.3788128,0.9923834,-0.06827662,0.1248674,-56.40145,3.922471,10.68804
10.059434414,3.553508,4.260476,0.7453612,0.9928806,-0.06287802,0.1277262,-56.40145,3.922471,10.68804
10.069320202,3.740012,4.025106,0.8064526,0.9909334,-0.06283823,0.1301284,-56.40145,3.922471,10.68804
10.079206944,3.864348,3.495524,0.9286354,0.9890126,-0.05450595,0.1334505,-56.40145,3.922471,10.68804
10.089093685,3.677844,3.554366,0.9897268,0.9880634,-0.04866786,0.132939,-56.40145,3.922471,10.68804
10.09897995,3.553508,3.848579,1.050818,0.979317,-0.05207361,0.1319844,-56.38632,4.285017,9.839647
10.111338139,3.429171,3.848579,0.9286354,0.9769081,-0.04621107,0.1329139,-56.38632,4.285017,9.839647
10.121224403,3.491339,3.966264,0.7453612,0.9783797,-0.04680877,0.1257048,-56.38632,4.285017,9.839647
10.131111145,3.491339,3.789736,0.6842698,0.9710888,-0.04672965,0.1300244,-56.38632,4.285017,9.839647
10.140997887,3.429171,3.907421,0.3788128,0.9769201,-0.04777978,0.125708,-56.38632,4.285017,9.839647
10.150883675,3.367003,3.789736,0.25663,0.9778937,-0.04431554,0.129539,-56.38033,3.899798,9.455835
10.160770416,3.056162,3.142469,0.1344473,0.9871119,-0.04480632,0.1305138,-56.38033,3.899798,9.455835
10.170657158,3.242667,2.965941,-0.1099183,0.9866079,-0.05215272,0.1276648,-56.38033,3.899798,9.455835
10.1805439,3.242667,2.554044,-0.2931925,0.984181,-0.05015699,0.1305375,-56.38033,3.899798,9.455835
10.190430164,3.491339,2.024462,-0.3542839,0.9831877,-0.05797499,0.1286522,-56.38033,3.899798,9.455835
10.200316906,3.926517,1.730249,-0.2931925,0.9793232,-0.05061996,0.1314962,-56.75729,3.905324,9.447255
10.210202694,4.050853,1.671407,-0.2931925,0.978835,-0.05010328,0.1334167,-56.75729,3.905324,9.447255
10.220089436,4.361694,1.494879,0.01226447,0.9715714,-0.04721037,0.1305083,-56.75729,3.905324,9.447255
10.229976177,4.175189,1.259509,0.1955387,0.9701173,-0.04224453,0.1367335,-56.75729,3.905324,9.447255
10.239862919,4.175189,1.024139,0.5009956,0.9764068,-0.04411849,0.1425212,-56.75729,3.905324,9.447255
10.249749184,3.864348,1.200667,0.6231784,0.9812859,-0.03781934,0.1410521,-56.3888,3.530092,9.915108
10.259635449,2.993994,1.259509,0.5009956,0.9914805,-0.03635707,0.1424991,-56.3888,3.530092,9.915108
10.269521713,2.434481,1.200667,0.1955387,0.9929594,-0.03451284,0.1357586,-56.3888,3.530092,9.915108
10.279408455,1.750631,0.7887695,-0.2321011,0.9948636,-0.04722045,0.1329394,-56.3888,3.530092,9.915108
10.289295197,1.626294,0.2591871,-0.4764667,0.9904542,-0.06237908,0.1282018,-56.3888,3.530092,9.915108
10.299181938,2.12364,0.02381719,-0.7208322,0.9875386,-0.0643427,0.1267657,-56.38033,3.899798,9.455835
10.309068203,3.180499,-0.3880802,-0.9041064,0.9816915,-0.0691647,0.129188,-56.38033,3.899798,9.455835
10.321426392,4.423862,-0.2115527,-0.4153753,0.9792481,-0.06656694,0.1397523,-56.38033,3.899798,9.455835
10.331313133,5.356384,-0.5057651,-0.1099183,0.9778308,-0.05536429,0.1396941,-56.38033,3.899798,9.455835
10.341199398,5.480721,-0.6234501,0.25663,0.9831936,-0.04756212,0.1411035,-56.38033,3.899798,9.455835
10.351085663,5.232048,-0.5057651,0.562087,0.9851553,-0.04072712,0.142514,-56.38102,3.521739,9.461139
10.360971928,4.548198,-0.3880802,0.6231784,0.9900136,-0.03877455,0.1434715,-56.38102,3.521739,9.461139
10.370858669,3.367003,-0.3880802,0.8064526,0.9958653,-0.03398131,0.1391256,-56.38102,3.521739,9.461139
10.380745411,2.434481,-0.3880802,0.9286354,0.9997426,-0.03594396,0.138659,-56.38102,3.521739,9.461139
10.390632153,1.874967,-0.5057651,0.8064526,0.995862,-0.03993254,0.1319419,-56.38102,3.521739,9.461139
10.400518417,2.12364,-0.6822926,0.5009956,1.00068,-0.0526531,0.1286452,-56.75798,3.527265,9.452559
10.410404682,2.620985,-0.6234501,0.07335586,1.000665,-0.0525596,0.1348967,-56.75798,3.527265,9.452559
10.420291424,3.429171,-0.5057651,-0.2931925,1.005498,-0.05741709,0.1363695,-56.75798,3.527265,9.452559
10.430177689,4.610366,-0.3880802,-0.5986494,1.001153,-0.05108534,0.1358516,-56.75798,3.527265,9.452559
10.44006443,5.605057,-0.1527103,-0.7208322,0.9958135,-0.0525644,0.1339294,-56.75798,3.527265,9.452559
10.449951172,5.915898,-0.2703952,-0.5375581,0.9929239,-0.04473872,0.1358102,-56.38102,3.521739,9.461139
10.459837914,5.85373,-0.2115527,-0.5986494,0.9938747,-0.05008987,0.1363192,-56.38102,3.521739,9.461139
10.469723702,5.978066,0.1415022,-0.3542839,0.9924102,-0.05152626,0.1377676,-56.38102,3.521739,9.461139
10.479610443,5.791562,0.4945571,-0.1710097,0.994841,-0.05304943,0.1339307,-56.38102,3.521739,9.461139
10.489496708,6.226739,0.729927,-0.1099183,0.9914232,-0.06087701,0.1310808,-56.38102,3.521739,9.461139
10.49938345,6.599748,1.200667,0.01226447,0.990943,-0.06140615,0.1281974,-56.37965,4.277857,9.450531
10.509270191,7.159261,1.200667,0.1344473,0.9904847,-0.05560498,0.1252821,-56.37965,4.277857,9.450531
10.519156933,7.843111,1.553722,0.25663,0.9958085,-0.0550207,0.132499,-56.37965,4.277857,9.450531
10.529042721,8.464792,1.377194,0.1344473,0.987586,-0.04871725,0.1295723,-56.37965,4.277857,9.450531
10.541401386,9.024306,1.318352,0.3177214,0.990983,-0.04822263,0.1305355,-55.99739,3.509053,9.080602
10.551288128,9.397315,1.200667,0.1955387,0.991953,-0.04075494,0.14156,-55.99739,3.509053,9.080602
10.561173916,9.708156,1.436037,0.1955387,0.9963404,-0.03391755,0.1434541,-55.99739,3.509053,9.080602
10.571060657,9.459483,1.200667,0.1344473,0.9934394,-0.03000183,0.1443929,-55.99739,3.509053,9.080602
10.580946922,8.837802,1.141824,-0.1710097,0.9905475,-0.02614365,0.1414846,-55.99739,3.509053,9.080602
10.590833664,7.905279,1.082982,0.01226447,0.9890772,-0.02555314,0.1482128,-56.74994,4.276223,9.052834
10.600720405,7.345766,1.436037,-0.1710097,0.9822741,-0.03046672,0.1443826,-56.74994,4.276223,9.052834
10.610607147,6.724084,1.612564,-0.1099183,0.9837274,-0.03094935,0.1448676,-56.74994,4.276223,9.052834
10.620492935,6.413243,1.671407,0.1344473,0.9808322,-0.03105147,0.137651,-56.74994,4.276223,9.052834
10.630379677,6.53758,1.612564,0.07335586,0.9793766,-0.02856352,0.1410032,-56.74994,4.276223,9.052834
10.640265942,6.599748,1.612564,0.07335586,0.9779251,-0.03356675,0.1318893,-56.37435,3.514578,9.072021
10.650152683,6.599748,1.494879,0.01226447,0.976934,-0.03642179,0.1362309,-56.37435,3.514578,9.072021
10.660039425,6.84842,1.141824,-0.1710097,0.9808266,-0.03499739,0.1343045,-56.37435,3.514578,9.072021
10.669926166,7.159261,1.141824,-0.1710097,0.9798242,-0.04076691,0.1391417,-56.37435,3.514578,9.072021
10.679811954,7.159261,0.847612,0.01226447,0.9764284,-0.04325966,0.1348221,-56.37435,3.514578,9.072021
10.689698696,7.283597,0.5533996,-0.2321011,0.9754689,-0.03934778,0.1357631,-56.74216,4.26787,8.598865
10.699585438,7.594438,0.3768721,-0.4764667,0.9817815,-0.03688956,0.1381625,-56.74216,4.26787,8.598865
10.709471703,8.029615,0.3180296,-0.5375581,0.9793485,-0.03833842,0.138648,-56.74216,4.26787,8.598865
10.719358444,8.651297,0.02381719,-0.5986494,0.9817804,-0.03787784,0.1372056,-56.74216,4.26787,8.598865
10.729245186,8.837802,-0.09386778,-0.5375581,0.9793569,-0.03490821,0.1400734,-56.74216,4.26787,8.598865
10.739130974,8.962138,-0.3880802,-0.2931925,0.9730627,-0.02802815,0.1433979,-56.75063,3.898164,9.058138
10.749017715,9.086474,-0.5057651,-0.1710097,0.9774333,-0.02705569,0.1438789,-56.75063,3.898164,9.058138
10.761376381,8.775634,-0.7999775,0.1344473,0.9794002,-0.01975533,0.1438442,-56.75063,3.898164,9.058138
10.771262169,8.651297,-0.7411351,0.25663,0.9784322,-0.01628725,0.147673,-56.75063,3.898164,9.058138
10.78114891,8.153952,-0.976505,0.4399042,0.9789158,-0.01478421,0.1505515,-56.75063,3.898164,9.058138
10.791035652,7.53227,-1.153032,0.6231784,0.9765098,-0.01043286,0.1481221,-55.61906,4.259645,9.078574
10.800921917,6.786252,-1.56493,0.5009956,0.9798939,-0.01433515,0.1481457,-55.61906,4.259645,9.078574
10.810808659,6.413243,-1.8003,0.25663,0.9828051,-0.01532918,0.1471922,-55.61906,4.259645,9.078574
10.8206954,5.85373,-1.976827,0.3788128,0.979408,-0.01582379,0.146229,-55.61906,4.259645,9.078574
10.830581188,5.729393,-2.329882,0.07335586,0.9842653,-0.01685043,0.1433542,-55.61906,4.259645,9.078574
10.84046793,5.791562,-2.565252,0.07335586,0.9803829,-0.01933502,0.1395149,-55.98824,4.256818,8.616024
10.850354671,5.667225,-2.977149,0.01226447,0.9866905,-0.01734217,0.1433594,-55.98824,4.256818,8.616024
10.860240936,5.729393,-3.389047,-0.1099183,0.9818385,-0.01983204,0.1390382,-55.98824,4.256818,8.616024
10.870127678,5.85373,-3.506732,-0.1710097,0.9886411,-0.01839901,0.1380768,-55.98824,4.256818,8.616024
10.88001442,5.978066,-3.683259,-0.2931925,0.9813621,-0.01789767,0.138066,-55.98824,4.256818,8.616024
10.889901161,6.226739,-3.859787,-0.2321011,0.9871793,-0.01935564,0.1390418,-56.3652,4.262344,8.607445
10.899786949,6.288907,-3.800944,-0.1710097,0.9866803,-0.01926838,0.1448119,-56.3652,4.262344,8.607445
10.909673691,6.351075,-4.036314,-0.1099183,0.9862057,-0.01983348,0.1395241,-56.3652,4.262344,8.607445
10.919559956,6.413243,-4.153999,-0.1710097,0.990104,-0.01545863,0.1395064,-56.3652,4.262344,8.607445
10.929446697,6.661916,-4.153999,-0.1710097,0.9900852,-0.01882411,0.1424089,-56.3652,4.262344,8.607445
10.939333439,6.84842,-4.271684,0.1955387,0.9866874,-0.01184911,0.1524691,-56.37298,4.270697,9.061414
10.94922018,6.53758,-4.448212,0.3788128,0.9934969,-0.01245017,0.145747,-56.37298,4.270697,9.061414
10.959105968,6.16457,-4.153999,0.562087,0.9935138,-0.007580703,0.1457224,-56.37298,4.270697,9.061414
10.96899271,5.542889,-4.271684,0.6842698,0.9920809,-0.002250177,0.1437702,-56.37298,4.270697,9.061414
10.981351376,5.045544,-4.330527,0.562087,0.9940348,-0.001337653,0.1399204,-56.37298,4.270697,9.061414
10.991237164,4.113021,-4.095157,0.8064526,0.9891764,0.00168711,0.1461516,-56.00201,4.650391,9.453807
11.001123905,3.180499,-4.507054,0.9286354,0.9833425,-0.003715328,0.1423249,-56.00201,4.650391,9.453807
11.01101017,2.745321,-4.095157,0.6842698,0.986747,-0.004760661,0.1380058,-56.00201,4.650391,9.453807
11.020896912,2.185808,-4.036314,0.6231784,0.9882224,-0.002894859,0.1327079,-56.00201,4.650391,9.453807
11.030783653,1.688463,-3.918629,0.5009956,0.9921071,-0.001420116,0.1341476,-56.00201,4.650391,9.453807
11.040670395,1.626294,-3.624417,0.1955387,0.9867941,-0.0005795052,0.1245189,-55.63226,4.968267,9.911936
11.050556183,1.253286,-3.683259,-0.1099183,0.984366,0.002418888,0.1293102,-55.63226,4.968267,9.911936
11.060442925,1.004613,-4.153999,-0.4764667,0.9858069,-0.003957448,0.1264585,-55.63226,4.968267,9.911936
11.070329666,0.6937721,-4.448212,-0.843015,0.9857905,-0.00733731,0.1283993,-55.63226,4.968267,9.911936
11.080215931,0.5072676,-4.389369,-1.209563,0.9920982,-0.008330864,0.1279306,-55.63226,4.968267,9.911936
11.090102673,0.3207631,-4.507054,-1.759386,0.9964353,-0.0136168,0.1332523,-56.00201,4.650391,9.453807
11.099989414,0.4450994,-4.507054,-1.759386,0.9920672,-0.01759005,0.1274964,-56.00201,4.650391,9.453807
11.109876156,0.1342586,-4.624739,-1.94266,0.9974227,-0.01422073,0.1255618,-56.00201,4.650391,9.453807
11.119761944,0.3829313,-4.271684,-2.125934,0.9964088,-0.01892288,0.1366456,-56.00201,4.650391,9.453807
11.129648685,0.5694358,-4.153999,-2.309208,0.9993443,-0.01957379,0.1260719,-56.00201,4.650391,9.453807
11.13953495,0.5072676,-3.859787,-2.492483,0.9964004,-0.02434402,0.1323446,-56.02312,4.673063,10.68601
11.149421692,0.6316039,-3.565574,-2.003752,0.9944735,-0.01945633,0.1332796,-56.02312,4.673063,10.68601
11.159308434,0.8181084,-3.624417,-1.881569,0.9944786,-0.01998642,0.1303968,-56.02312,4.673063,10.68601
11.169195175,0.8802766,-3.212519,-1.820477,0.9944939,-0.01759484,0.1274992,-56.02312,4.673063,10.68601
11.179080963,0.8802766,-3.153677,-1.881569,0.9998499,-0.01074499,0.1303562,-56.02312,4.673063,10.68601
11.188967705,0.7559403,-3.035992,-2.003752,0.9979044,-0.01121371,0.1313182,-55.6395,4.660378,10.30547
11.20132637,0.4450994,-2.918307,-1.820477,0.996936,-0.01222165,0.1289175,-55.6395,4.660378,10.30547
11.211212158,0.2585949,-3.094834,-2.003752,0.9916011,-0.01771134,0.1193208,-55.6395,4.660378,10.30547
11.2210989,0.2585949,-2.977149,-1.94266,0.9935398,-0.01819493,0.1198064,-55.6395,4.660378,10.30547
11.230985165,0.5694358,-2.682937,-1.759386,0.9911349,-0.0128553,0.1183339,-55.6395,4.660378,10.30547
11.240871906,0.8181084,-2.859464,-2.003752,0.9920972,-0.01330101,0.1212228,-55.63351,4.275159,9.92166
11.250758648,1.191117,-2.800622,-1.881569,0.9945716,-0.007635048,0.1096548,-55.63351,4.275159,9.92166
11.26064539,1.377622,-2.682937,-2.003752,0.9988986,-0.01186079,0.1207423,-55.63351,4.275159,9.92166
11.270531654,1.253286,-2.565252,-1.881569,0.999402,-0.008990414,0.1173619,-55.63351,4.275159,9.92166
11.280417919,0.9424447,-2.800622,-1.759386,0.9974714,-0.007561694,0.1149479,-55.63351,4.275159,9.92166
11.290304184,0.8802766,-2.74178,-1.698295,0.9979504,-0.008020833,0.1168744,-56.39342,4.67143,10.28831
11.300190926,0.4450994,-3.035992,-1.392838,0.9964988,-0.005060317,0.1192624,-56.39342,4.67143,10.28831
11.310077667,0.2585949,-2.918307,-1.576112,0.9959954,-0.0109171,0.1183296,-56.39342,4.67143,10.28831
11.319964409,0.009922287,-2.918307,-1.51502,0.9965001,-0.008053914,0.1144684,-56.39342,4.67143,10.28831
11.329850674,-0.05224587,-2.74178,-1.331746,0.9979448,-0.009975811,0.1164034,-56.39342,4.67143,10.28831
11.339737415,-0.05224587,-2.565252,-1.209563,1.001846,-0.007112145,0.1130269,-56.02312,4.673063,10.68601
11.34962368,-0.114414,-2.388725,-1.209563,1.002824,-0.006663075,0.1106212,-56.02312,4.673063,10.68601
11.359509945,-0.3009185,-2.27104,-0.843015,1.002804,-0.009520032,0.1149639,-56.02312,4.673063,10.68601
11.369396687,-0.487423,-2.27104,-0.6597409,1.008652,-0.003709754,0.1134984,-56.02312,4.673063,10.68601
11.379283428,-0.6117593,-2.153355,-0.4764667,1.008151,-0.003608112,0.1202302,-56.02312,4.673063,10.68601
11.38917017,-0.9226002,-2.153355,-0.2321011,1.00961,-0.004126702,0.1183108,-55.65463,4.297832,11.15386
11.399056435,-1.295609,-1.859142,0.07335586,1.005263,-0.001769636,0.1125229,-55.65463,4.297832,11.15386
11.411414623,-1.855123,-1.859142,0.01226447,1.005735,-0.006661639,0.1111054,-55.65463,4.297832,11.15386
11.421300888,-2.041627,-1.741457,0.1344473,1.0033,-0.004615564,0.1173442,-55.65463,4.297832,11.15386
11.43118763,-2.414636,-1.682615,0.4399042,1.004275,-0.006135856,0.1135057,-56.40923,3.930824,11.14201
11.441073895,-2.787645,-1.682615,0.5009956,1.002843,0.000182947,0.1125103,-56.40923,3.930824,11.14201
11.450960159,-3.28499,-1.153032,0.6231784,1.006226,0.001265193,0.1202034,-56.40923,3.930824,11.14201
11.460846901,-3.782336,-0.85882,0.9286354,0.9989584,0.002690079,0.1168215,-56.40923,3.930824,11.14201
11.470733643,-4.155344,-0.7999775,0.8064526,0.9941025,-0.001267821,0.1120267,-56.40923,3.930824,11.14201
11.480620384,-4.590521,-0.6822926,0.9286354,0.9878024,-0.001814216,0.1072131,-56.03894,3.932458,11.5397
11.490506649,-5.150035,-0.6822926,0.9897268,0.9878131,0.001601604,0.1076768,-56.03894,3.932458,11.5397
11.500393391,-5.585212,-0.7411351,1.295184,0.9892698,0.0001019276,0.1052814,-56.03894,3.932458,11.5397
11.510279179,-6.082557,-0.85882,0.867544,0.9921839,0.0005831195,0.1052823,-56.03894,3.932458,11.5397
11.52016592,-6.579903,-0.9176625,0.5009956,0.9887844,0.002093824,0.1081563,-56.03894,3.932458,11.5397
11.530052662,-7.139416,-1.035347,0.1344473,0.9975243,-0.004411965,0.09761888,-56.03091,4.681417,11.13998
11.539939404,-7.512425,-1.035347,-0.1710097,0.9965155,-0.01063967,0.1043821,-56.03091,4.681417,11.13998
11.549825668,-7.512425,-1.09419,-0.2321011,1.001828,-0.01794723,0.104906,-56.03091,4.681417,11.13998
11.55971241,-7.201584,-0.6822926,-0.4764667,1.003301,-0.01656119,0.1000914,-56.03091,4.681417,11.13998
11.569599152,-6.828576,-0.6234501,-0.4153753,1.001351,-0.01998755,0.09866379,-56.03091,4.681417,11.13998
11.579484939,-6.020389,-0.5646076,-0.4764667,1.00329,-0.02047114,0.09914935,-55.64685,4.289478,10.69989
11.589371681,-5.274371,-0.6822926,-0.2321011,1.001827,-0.02142059,0.1005953,-55.64685,4.289478,10.69989
11.599258423,-5.274371,-0.3292377,0.01226447,0.9989097,-0.01939513,0.1053909,-55.64685,4.289478,10.69989
11.609144688,-5.398708,-0.3880802,-0.1099183,1.001322,-0.0203019,0.1102074,-55.64685,4.289478,10.69989
11.619031429,-5.771717,-0.03502529,0.07335586,0.998418,-0.01985235,0.1073163,-55.64685,4.289478,10.69989
11.631389618,-6.144726,0.3180296,0.01226447,0.996962,-0.02283588,0.1030015,-55.64753,3.911419,10.7052
11.641275883,-6.455566,0.612242,-0.1710097,0.9969835,-0.01998611,0.09817789,-55.64753,3.911419,10.7052
11.651162624,-6.393398,0.965297,0.01226447,1.00087,-0.01952122,0.09721813,-55.64753,3.911419,10.7052
11.661049366,-6.082557,0.965297,-0.3542839,1.000893,-0.01617732,0.09287296,-55.64753,3.911419,10.7052
11.670936108,-6.206894,1.024139,-0.3542839,0.9989358,-0.01856507,0.09576833,-55.64753,3.911419,10.7052
11.680822372,-6.206894,1.082982,-0.4764667,1.002336,-0.01958163,0.09337272,-55.65668,3.163653,11.16978
11.690708637,-6.33123,0.847612,-0.6597409,1.000407,-0.01567503,0.09383171,-55.65668,3.163653,11.16978
11.700594902,-6.144726,0.6710845,-0.5986494,0.9965096,-0.02105254,0.09193077,-55.65668,3.163653,11.16978
11.710481644,-6.455566,0.2591871,-0.9041064,0.999424,-0.02007721,0.09241008,-55.65668,3.163653,11.16978
11.720368385,-6.517735,0.3180296,-0.7208322,1.007663,-0.02001441,0.09770925,-55.65668,3.163653,11.16978
11.730255127,-6.517735,0.02381719,-0.843015,1.000374,-0.02393155,0.09531616,-56.03159,4.303358,11.14528
11.740141392,-6.33123,0.3180296,-0.7819237,1.006207,-0.01951739,0.09818602,-56.03159,4.303358,11.14528
11.750028133,-6.206894,0.3768721,-0.9651978,1.006682,-0.02392964,0.09628516,-56.03159,4.303358,11.14528
11.759914398,-5.958221,0.1415022,-0.9041064,1.003291,-0.02496154,0.09195824,-56.03159,4.303358,11.14528
11.769800663,-5.709548,0.2591871,-0.9651978,1.005207,-0.02977731,0.09583212,-56.03159,4.303358,11.14528
11.779687405,-5.398708,0.3768721,-0.843015,1.00472,-0.03125877,0.09439629,-56.04031,3.17634,11.55031
11.789574146,-5.274371,0.4357146,-0.7819237,1.005693,-0.0272932,0.09918656,-56.04031,3.17634,11.55031
11.799460888,-5.64738,0.3180296,-0.7208322,1.004237,-0.02729032,0.09918489,-56.04031,3.17634,11.55031
11.809347153,-6.082557,0.2591871,-0.5986494,0.9906392,-0.02821578,0.1006169,-56.04031,3.17634,11.55031
11.819233894,-6.144726,0.02381719,-0.2931925,0.9964592,-0.029194,0.1011094,-56.04031,3.17634,11.55031
11.829119682,-6.269062,0.08265968,-0.1099183,0.9969344,-0.03112117,0.1025624,-56.40923,3.930824,11.14201
11.839006424,-6.144726,0.4945571,0.07335586,0.9945176,-0.03018563,0.0996694,-56.40923,3.930824,11.14201
11.851365089,-6.082557,0.7887695,0.01226447,0.9969633,-0.02782041,0.09533193,-56.40923,3.930824,11.14201
11.861250877,-5.958221,0.847612,-0.2321011,0.9955072,-0.03080394,0.09101706,-56.40923,3.930824,11.14201
11.871137619,-5.958221,0.847612,-0.4153753,0.9945477,-0.02689206,0.09195805,-56.40923,3.930824,11.14201
11.881024361,-5.771717,0.7887695,-0.6597409,0.9964696,-0.03423606,0.08959274,-55.6489,3.1553,10.71581
11.890911102,-5.460876,0.4945571,-0.9041064,0.9983941,-0.03910937,0.08961955,-55.6489,3.1553,10.71581
11.900797367,-5.150035,0.3180296,-0.7819237,0.9930263,-0.04538598,0.0925307,-55.6489,3.1553,10.71581
11.910684109,-4.590521,0.08265968,-0.843015,0.9925364,-0.04635172,0.09301594,-55.6489,3.1553,10.71581
11.92057085,-4.031008,0.2003446,-1.148472,0.9949523,-0.04579046,0.09830599,-55.6489,3.1553,10.71581
