Time (s),Gyroscope X (deg/s),Gyroscope Y (deg/s),Gyroscope Z (deg/s),Accelerometer X (g),Accelerometer Y (g),Accelerometer Z (g),Magnetometer X (uT),Magnetometer Y (uT),Magnetometer Z (uT)
10.83102417,0.618294100000002,3.089098,-11.93487,-0.19157,-0.7348272,0.438542,-3.511019,39.96528,-46.31532
10.840936184,-2.168918,-0.639027300000002,-15.98482,-0.1948064,-0.7111189,0.4368093,-2.394472,40.33839,-46.70778
10.850847244,-6.194891,-3.842885,-19.42115,-0.1933782,-0.7062426,0.4387492,-2.394472,40.33839,-46.70778
10.860759258,-10.96412,-6.81373500000001,-22.18248,-0.1906133,-0.7260454,0.4467544,-2.394472,40.33839,-46.70778
10.870671272,-13.99909,-8.67779800000001,-25.06653,-0.1770399,-0.7534917,0.4507675,-2.394472,40.33839,-46.70778
10.880583286,-15.73335,-10.77487,-27.09151,-0.1704789,-0.7694033,0.4520412,-2.394472,40.33839,-46.70778
10.890494347,-17.09599,-12.63893,-29.17785,-0.1434761,-0.7758386,0.4551097,-2.388245,39.96537,-46.32116
10.900406361,-18.21087,-14.6195,-31.63236,-0.1324054,-0.7901749,0.4688365,-2.388245,39.96537,-46.32116
10.912796497,-19.20188,-15.37677,-33.78007,-0.1162248,-0.8209207,0.4848074,-2.388245,39.96537,-46.32116
10.922707558,-19.07801,-15.84279,-35.19141,-0.1124826,-0.8431506,0.4899064,-2.388245,39.96537,-46.32116
10.932619572,-18.21087,-15.78454,-37.09366,-0.1072997,-0.867327,0.4901776,-2.388245,39.96537,-46.32116
10.942531586,-17.34374,-16.36706,-39.24137,-0.08966359,-0.8739185,0.4856491,-3.133545,39.96897,-45.41784
10.9524436,-16.60048,-17.41559,-41.38907,-0.06935569,-0.8635362,0.4754471,-3.133545,39.96897,-45.41784
10.96235466,-16.72436,-18.9884,-43.72086,-0.06815176,-0.8538986,0.4610955,-3.133545,39.96897,-45.41784
10.972266674,-18.33475,-21.20197,-46.72764,-0.06783299,-0.8412981,0.4592558,-3.133545,39.96897,-45.41784
10.982178688,-19.32576,-22.36701,-48.38444,-0.0560811,-0.8435814,0.4581716,-3.133545,39.96897,-45.41784
10.992090225,-20.75033,-23.29904,-50.04124,-0.0323232,-0.8189958,0.4672387,-5.013156,40.71957,-45.02495
11.002002239,-22.23685,-22.89128,-53.04802,-0.02935611,-0.8321125,0.4551199,-5.013156,40.71957,-45.02495
11.011914253,-21.9891,-22.54177,-55.62526,-0.02761073,-0.8612174,0.4481876,-5.013156,40.71957,-45.02495
11.02182579,-19.82126,-23.00778,-58.2025,-0.004570442,-0.8662648,0.4479409,-5.013156,40.71957,-45.02495
11.031737328,-17.40568,-23.76506,-59.8592999999999,0.022598,-0.8513988,0.4444276,-5.013156,40.71957,-45.02495
11.041649342,-17.40568,-25.1631,-62.49791,0.04811506,-0.8239642,0.4376522,-7.94834,41.47559,-43.2774
11.051561356,-18.27281,-26.91066,-64.8297000000001,0.06288337,-0.8000746,0.4275914,-7.94834,41.47559,-43.2774
11.061472416,-19.8832,-27.31843,-67.0387599999998,0.07268911,-0.7679915,0.420032,-7.94834,41.47559,-43.2774
11.07138443,-22.73235,-27.31843,-70.6591699999999,0.07382671,-0.756925,0.4008889,-7.94834,41.47559,-43.2774
11.081296444,-25.086,-27.90095,-75.6295599999999,0.1006751,-0.7305182,0.3796895,-7.94834,41.47559,-43.2774
11.091208458,-28.24484,-28.65822,-83.29993,0.08896639,-0.7069973,0.3621886,-10.92972,40.72956,-42.42435
11.101119518,-31.15593,-28.89123,-89.8044000000002,0.06042792,-0.6923234,0.3620702,-10.92972,40.72956,-42.42435
11.111031532,-34.12895,-29.29899,-94.5907100000003,0.06481514,-0.6747143,0.3813532,-10.92972,40.72956,-42.42435
11.120943546,-37.84523,-28.30871,-98.7020199999998,0.1012141,-0.6809782,0.3948995,-10.92972,40.72956,-42.42435
11.130855083,-42.1809,-25.68737,-101.0952,0.1447412,-0.697741,0.4236749,-10.92972,40.72956,-42.42435
11.140767098,-48.18889,-23.99806,-103.3042,0.204191,-0.6988026,0.4500068,-14.29345,40.73452,-41.12194
11.150678635,-52.02905,-22.0175,-107.1701,0.266658,-0.7141789,0.4200371,-14.29345,40.73452,-41.12194
11.160590649,-52.02905,-19.57092,-112.0178,0.2934788,-0.694128,0.3887123,-14.29345,40.73452,-41.12194
11.170502186,-51.03804,-16.54181,-122.8176,0.2985237,-0.6864293,0.3651892,-14.29345,40.73452,-41.12194
11.1804142,-47.38369,-14.6195,-134.3539,0.2668255,-0.6370362,0.3360416,-14.29345,40.73452,-41.12194
11.19280386,-45.58749,-15.49328,-153.6832,0.2452717,-0.5344082,0.3570913,-18.39924,40.36665,-39.36477
11.202715397,-48.56052,-17.47384,-169.5148,0.2586324,-0.4497787,0.3762577,-18.39924,40.36665,-39.36477
11.212627411,-52.09098,-18.05636,-179.0874,0.3288014,-0.4458563,0.3093731,-18.39924,40.36665,-39.36477
11.222539425,-56.1789,-15.43503,-181.051,0.4573343,-0.5791441,0.2895305,-18.39924,40.36665,-39.36477
11.232451439,-63.11596,-11.76515,-175.0988,0.53519,-0.7441972,0.2497784,-18.39924,40.36665,-39.36477
11.242362499,-68.3187599999999,-10.2506,-172.4602,0.5759242,-0.8428747,0.1964071,-23.25216,40.00029,-37.21825
11.252274513,-69.3717,-12.28942,-171.6012,0.6139297,-0.8619787,0.1608768,-23.25216,40.00029,-37.21825
11.262186527,-68.3187599999999,-16.60007,-175.8966,0.6475523,-0.8267429,0.1430347,-23.25216,40.00029,-37.21825
11.272098541,-68.5045699999999,-20.5612,-183.8737,0.6929355,-0.7457413,0.1335515,-23.25216,40.00029,-37.21825
11.282009602,-71.8492300000003,-20.03693,-193.6918,0.7636104,-0.6842428,0.1357083,-23.25216,40.00029,-37.21825
11.291921616,-73.7693100000001,-20.38644,-200.9326,0.8182383,-0.6475301,0.1652175,-29.49797,36.64046,-34.21984
11.30183363,-73.3357400000002,-19.39616,-203.2644,0.8765115,-0.6282197,0.1960175,-29.49797,36.64046,-34.21984
11.311745167,-73.08799,-13.2797,-203.4485,0.9131277,-0.6775368,0.2280011,-29.49797,36.64046,-34.21984
11.321656704,-72.3447300000002,-5.532192,-200.8099,0.9383519,-0.729022,0.24327,-29.49797,36.64046,-34.21984
11.331568718,-68.6284499999999,1.749303,-193.4464,0.917018,-0.8060223,0.2184663,-29.49797,36.64046,-34.21984
11.341480732,-60.9481299999999,6.00169699999999,-189.7032,0.8972779,-0.8568453,0.1890206,-35.4395,33.6521,-31.99516
11.351392269,-50.85223,7.69100299999997,-189.9487,0.9234604,-0.8883372,0.1304695,-35.4395,33.6521,-31.99516
11.361304283,-38.52655,5.419177,-189.151,0.9590341,-0.8828353,0.07735979,-35.4395,33.6521,-31.99516
11.371216297,-26.13894,1.05028,-190.0714,0.9868406,-0.8249676,0.04339691,-35.4395,33.6521,-31.99516
11.381127358,-15.73335,-4.658412,-194.1214,1.009886,-0.7724602,0.01568441,-35.4395,33.6521,-31.99516
11.391039372,-7.557528,-11.18263,-197.619,1.049115,-0.6943597,0.02256412,-40.98921,29.16331,-30.28176
11.400951386,-2.10698,-16.1923,-197.435,1.076304,-0.6192434,0.04394006,-40.98921,29.16331,-30.28176
11.4108634,0.2466658,-18.63888,-192.8941,1.089707,-0.5228847,0.08095007,-40.98921,29.16331,-30.28176
11.42077446,-3.221865,-18.93014,-186.5123,1.096477,-0.3901639,0.1336288,-40.98921,29.16331,-30.28176
11.430686474,-17.52956,-15.66803,-181.8488,1.125969,-0.2989935,0.1598919,-40.98921,29.16331,-30.28176
11.440598488,-38.03105,-11.47389,-179.0874,1.16053,-0.2605906,0.1895979,-44.64961,23.17471,-28.95894
11.450510502,-63.11596,-7.454507,-175.1602,1.170289,-0.3221815,0.1631688,-44.64961,23.17471,-28.95894
11.460421562,-83.2458299999999,-5.124428,-170.8034,1.157281,-0.4098027,0.1271737,-44.64961,23.17471,-28.95894
11.472811699,-98.8542200000001,-7.51275900000002,-164.7899,1.153468,-0.534918,0.03802631,-44.64961,23.17471,-28.95894
11.482723713,-102.6324,-13.45446,-162.274,1.171758,-0.6309252,-0.007437154,-48.58552,14.24992,-28.07517
11.492634773,-100.2169,-20.96896,-159.574,1.198411,-0.6680258,-0.02665699,-48.58552,14.24992,-28.07517
11.502546787,-95.44762,-26.73591,-158.224,1.18053,-0.6925334,-0.03481757,-48.58552,14.24992,-28.07517
11.512458801,-87.2718000000002,-31.04655,-156.9354,1.177876,-0.6770632,-0.03709075,-48.58552,14.24992,-28.07517
11.522370815,-78.04303,-34.94943,-153.4377,1.144097,-0.6260473,-0.02875597,-48.58552,14.24992,-28.07517
11.532282353,-66.89418,-36.11447,-148.4673,1.097644,-0.5917563,-0.0362606,-50.01331,9.387124,-26.31778
11.542194367,-56.42665,-34.48342,-143.3742,1.045343,-0.5326507,-0.0128157,-50.01331,9.387124,-26.31778
11.552105904,-28.36871,-30.23102,-138.3425,1.029383,-0.536912,-0.0482282,-50.01331,9.387124,-26.31778
11.562017441,-10.53056,-22.134,-134.5993,0.990397,-0.4427083,-0.02035121,-50.01331,9.387124,-26.31778
11.571929455,2.848064,-14.15348,-130.488,0.987529,-0.4214869,0.05856264,-50.01331,9.387124,-26.31778
11.581841469,7.98892199999997,-8.15353100000001,-125.8858,1.006672,-0.2987797,0.1139411,-50.68796,4.149527,-24.62737
11.591753483,8.17473599999999,-2.095326,-120.0563,1.034751,-0.2295502,0.1199045,-50.68796,4.149527,-24.62737
11.601664543,4.210701,2.681334,-113.3064,1.047017,-0.1747499,0.09278716,-50.68796,4.149527,-24.62737
11.611576557,-0.806281,6.351208,-107.5383,1.042955,-0.1380526,0.07338272,-50.68796,4.149527,-24.62737
11.621488571,-6.44264400000003,9.38030999999998,-103.7951,1.021748,-0.1123174,0.03821859,-50.68796,4.149527,-24.62737
11.631399631,-9.72536099999999,11.24437,-101.5247,1.037161,-0.1176086,0.009231301,-51.7372,-1.405231,-24.15471
11.641311645,-11.64544,13.45795,-97.9656699999998,1.03393,-0.1307227,0.01253493,-51.7372,-1.405231,-24.15471
11.651223659,-13.00808,13.80746,-93.4861799999998,1.042719,-0.1247653,0.01825524,-51.7372,-1.405231,-24.15471
11.661135673,-11.70738,13.69096,-89.1293999999998,1.065028,-0.1360379,0.03477935,-51.7372,-1.405231,-24.15471
11.671047211,-9.35373199999999,11.65214,-84.5271900000002,1.101243,-0.1248365,0.05084443,-51.7372,-1.405231,-24.15471
11.680959225,-7.49559099999998,8.39002600000001,-80.1090499999998,1.107673,-0.1095965,0.07585473,-50.91409,-7.402097,-24.97532
11.690870762,-4.33675,3.962878,-75.6909299999999,1.115014,-0.08998881,0.0994452,-50.91409,-7.402097,-24.97532
11.700782776,-1.549538,-2.79435,-73.29778,1.098086,-0.05376957,0.1123272,-50.91409,-7.402097,-24.97532
11.710694313,0.989922399999999,-11.35739,-70.72054,1.047868,0.009568997,0.105531,-50.91409,-7.402097,-24.97532
11.720606327,0.804108299999999,-21.02721,-69.8614499999999,1.016459,0.1120348,0.1189883,-50.91409,-7.402097,-24.97532
11.730518341,-1.735352,-29.24074,-68.6955600000002,1.049778,0.1924788,0.1244978,-49.36532,-11.52436,-25.42012
11.740429401,-10.71637,-35.3572,-61.8229100000001,1.064419,0.2616681,0.1550733,-49.36532,-11.52436,-25.42012
11.752819538,-30.28879,-36.98825,-48.75262,1.079179,0.2543423,0.2029038,-49.36532,-11.52436,-25.42012
11.762731552,-48.80827,-31.45431,-38.01411,1.09447,0.2499721,0.2584316,-49.36532,-11.52436,-25.42012
11.772643566,-62.6823900000001,-19.45441,-29.30058,1.106918,0.199758,0.2690256,-49.36532,-11.52436,-25.42012
11.782554626,-64.5405300000002,-2.270082,-24.63699,1.143781,0.1120327,0.2801042,-48.94607,-14.51403,-23.67823
11.79246664,-53.76331,18.70062,-18.93024,1.13784,-0.04269556,0.2824895,-48.94607,-14.51403,-23.67823
11.802378654,-35.24384,32.73935,-9.17354000000002,1.039458,-0.161531,0.2293101,-48.94607,-14.51403,-23.67823
11.812290668,-14.30878,31.28305,-2.484983,0.9279698,-0.2075683,0.1277608,-48.94607,-14.51403,-23.67823
11.822201729,5.015896,19.69091,-0.09183015,0.8667353,-0.2442514,0.02628912,-48.94607,-14.51403,-23.67823
11.832113743,22.23467,7.51624699999999,1.319517,0.8758004,-0.1830459,-0.06701782,-48.93958,-15.26688,-24.57535
11.842025757,32.2067,-1.687563,3.467218,0.9031382,-0.05664144,-0.06642853,-48.93958,-15.26688,-24.57535
11.851937294,30.59631,-4.134145,8.13079899999997,0.9504322,0.05948313,-0.03920344,-48.93958,-15.26688,-24.57535
11.861848831,23.28762,-3.493374,13.28528,0.9854311,0.1439587,-0.008234211,-48.93958,-15.26688,-24.57535
11.871760845,14.67823,-2.736098,17.58069,0.9991777,0.1717245,0.07729179,-48.93958,-15.26688,-24.57535
11.881672859,8.732179,-3.901137,18.43977,1.004918,0.1322284,0.1139478,-48.56185,-15.64302,-24.96161
11.891584396,8.67023999999999,-4.833169,17.76477,1.035437,0.08320605,0.1239024,-48.56185,-15.64302,-24.96161
11.90149641,13.68722,-4.425405,16.29206,1.068546,0.05013927,0.1190545,-48.56185,-15.64302,-24.96161
11.911408424,21.80111,-2.153579,15.12617,1.102896,0.08355418,0.1223206,-48.56185,-15.64302,-24.96161
11.921319962,28.80011,0.759019800000003,14.38982,1.113022,0.1355555,0.121613,-48.56185,-15.64302,-24.96161
11.931231499,31.83507,3.030846,13.89891,1.115891,0.1914078,0.1330022,-49.32354,-14.51772,-24.57571
11.941143513,30.78213,3.788122,14.02164,1.09388,0.2318556,0.1320348,-49.32354,-14.51772,-24.57571
11.951055527,26.57034,4.137634,14.20573,1.086307,0.2452979,0.1245118,-49.32354,-14.51772,-24.57571
11.960966587,20.8101,4.778405,15.49435,1.051512,0.2433589,0.1147374,-49.32354,-14.51772,-24.57571
11.970878601,15.17374,5.360925,16.16934,1.015267,0.2350687,0.09917212,-49.32354,-14.51772,-24.57571
11.980790615,10.59032,6.1182,15.86252,0.9871123,0.2060399,0.08531453,-48.57181,-14.514,-23.68018
11.990702629,7.49341799999997,6.81722400000001,15.92389,0.9680334,0.1601908,0.07846331,-48.57181,-14.514,-23.68018
12.000613689,7.865046,6.70071999999997,16.10798,0.9468752,0.1230334,0.06976859,-48.57181,-14.514,-23.68018
12.010525703,9.28962000000002,6.52596399999999,16.47615,0.9453899,0.1278835,0.0736559,-48.57181,-14.514,-23.68018
12.020437717,10.46644,6.351208,16.96706,0.9623201,0.1460512,0.07698147,-48.57181,-14.514,-23.68018
12.032827854,9.72318700000001,6.99197999999999,18.01023,1.002819,0.1670032,0.09307189,-48.94767,-14.51586,-24.12795
12.042738914,8.17473599999999,7.28324000000001,19.0534,1.031357,0.1896416,0.08911751,-48.94767,-14.51586,-24.12795
12.052650929,5.697214,6.46771199999997,19.5443,1.070808,0.2085938,0.0960813,-48.94767,-14.51586,-24.12795
12.062562943,2.228683,6.1182,19.5443,1.123008,0.2233332,0.1014586,-48.94767,-14.51586,-24.12795
12.07247448,-0.8682191,4.894909,19.85111,1.180597,0.2283899,0.09663829,-48.94767,-14.51586,-24.12795
12.082386494,-3.965122,3.496862,20.15793,1.238148,0.2334263,0.08797692,-49.34293,-13.01934,-24.58033
12.092298031,-6.87620999999998,2.157067,19.91248,1.295673,0.2418639,0.08077891,-49.34293,-13.01934,-24.58033
12.102210045,-8.548538,1.458043,19.23748,1.328884,0.2378704,0.07228247,-49.34293,-13.01934,-24.58033
12.112121582,-9.663423,0.5842639,18.43977,1.348471,0.2391058,0.07643098,-49.34293,-13.01934,-24.58033
12.122033596,-11.14994,-1.279799,18.07159,1.343784,0.2284178,0.0836055,-49.34293,-13.01934,-24.58033
12.13194561,-12.14094,-3.318618,16.96706,1.317799,0.1946468,0.0850613,-48.9749,-12.64628,-24.96889
12.141857624,-11.52156,-4.250649,16.41479,1.279247,0.1549387,0.09379616,-48.9749,-12.64628,-24.96889
12.151768684,-9.84923700000002,-4.367153,15.55571,1.208594,0.126374,0.0846561,-48.9749,-12.64628,-24.96889
12.161680698,-7.681405,-4.308901,14.38982,1.137392,0.1167968,0.09197301,-48.9749,-12.64628,-24.96889
12.171592712,-5.88520100000001,-3.202114,12.79438,1.058565,0.1225858,0.08889932,-48.9749,-12.64628,-24.96889
12.181503773,-5.265821,-2.037075,11.07622,0.9835995,0.1337638,0.0872663,-49.72528,-12.26835,-24.13098
12.191415787,-6.56652,-1.338051,10.33986,0.9204533,0.1300105,0.07630148,-49.72528,-12.26835,-24.13098
12.201327801,-8.98210400000001,-0.6972793,10.2785,0.8475508,0.1227321,0.06348278,-49.72528,-12.26835,-24.13098
12.211239815,-11.83125,-0.05650773,10.64668,0.7856093,0.1074018,0.06107256,-49.72528,-12.26835,-24.13098
12.221151352,-14.55653,1.691051,11.87394,0.704568,0.07571928,0.03664274,-49.72528,-12.26835,-24.13098
12.231062889,-16.91018,3.089098,13.1012,0.6272421,0.04179293,0.03809217,-49.37341,-10.77333,-24.97272
12.240974903,-17.77731,4.60365,13.71482,0.555641,0.02103649,0.04101686,-49.37341,-10.77333,-24.97272
12.250886917,-18.33475,6.23470400000003,13.5921,0.5004778,-0.0164338,0.05376151,-49.37341,-10.77333,-24.97272
12.260798454,-17.52956,8.39002600000001,13.65346,0.4718917,-0.0366584,0.05581178,-49.37341,-10.77333,-24.97272
12.270710468,-16.53855,10.42885,13.16256,0.4560241,-0.05037949,0.06595044,-49.37341,-10.77333,-24.97272
12.280622482,-13.99909,12.35116,12.61029,0.4385172,-0.07152572,0.0506064,-49.37986,-10.40057,-25.42358
12.29053402,-9.72536099999999,13.92396,12.36484,0.441698,-0.06282829,0.0371905,-49.37986,-10.40057,-25.42358
12.300445557,-5.513573,14.91425,12.36484,0.4603643,-0.04523828,0.01840889,-49.37986,-10.40057,-25.42358
12.310357571,-2.974113,14.9725,12.24211,0.4997815,-0.02630389,0.02201176,-49.37986,-10.40057,-25.42358
12.322747231,-2.478608,12.81718,12.36484,0.5784529,-0.01119842,0.03434909,-49.02799,-8.905557,-26.26533
12.332658768,-1.983104,10.54535,13.46937,0.6748735,0.01517497,0.0264307,-49.02799,-8.905557,-26.26533
12.342570782,-2.540546,9.14730199999998,15.12617,0.7730078,0.05315417,0.008490451,-49.02799,-8.905557,-26.26533
12.352482796,-3.841246,7.34149200000003,16.90569,0.8750725,0.09655798,-0.001287316,-49.02799,-8.905557,-26.26533
12.36239481,-6.194891,4.720153,18.25568,0.9799008,0.1289387,0.007081935,-49.02799,-8.905557,-26.26533
12.37230587,-9.84923700000002,0.1182482,18.99203,1.066931,0.1446603,0.02462781,-50.16207,-8.158286,-26.71151
12.382217884,-14.1849,-5.299184,18.68522,1.132252,0.143674,0.05138615,-50.16207,-8.158286,-26.71151
12.392129898,-18.27281,-10.71662,17.33524,1.166136,0.1234446,0.08935069,-50.16207,-8.158286,-26.71151
12.402041912,-20.93615,-14.09523,15.18753,1.18727,0.1025497,0.1231073,-50.16207,-8.158286,-26.71151
12.411952973,-21.86522,-15.66803,12.97847,1.20495,0.06744881,0.1371146,-50.16207,-8.158286,-26.71151
12.421864987,-21.86522,-15.02726,10.89213,1.206853,0.04037722,0.1479603,-50.16531,-7.78186,-26.26295
12.431777001,-20.50258,-13.97873,9.11260599999998,1.188013,0.01879422,0.1451098,-50.16531,-7.78186,-26.26295
12.441689015,-18.89219,-12.05641,7.45580799999998,1.173603,-0.0007669334,0.1475136,-50.16531,-7.78186,-26.26295
12.451600552,-16.60048,-9.78458600000001,5.79900900000001,1.135864,-0.004699413,0.134392,-50.16531,-7.78186,-26.26295
12.461512089,-14.6804,-7.862271,4.326299,1.085422,-0.007810003,0.1233139,-50.16531,-7.78186,-26.26295
12.471424103,-13.00808,-5.47394,3.221767,1.02831,0.003470361,0.0984689,-50.17848,-6.656506,-25.88094
12.48133564,-12.45063,-3.08561,1.749057,0.9605123,0.01660471,0.08285803,-50.17848,-6.656506,-25.88094
12.491247654,-12.63645,-0.8720351,0.767250500000003,0.8889828,0.01758849,0.07056183,-50.17848,-6.656506,-25.88094
12.501159668,-12.94614,1.516295,0.0922585699999997,0.8134329,-0.001285002,0.07209512,-50.17848,-6.656506,-25.88094
12.511071682,-13.00808,3.380358,0.5217989,0.752418,-0.02345904,0.05666645,-50.17848,-6.656506,-25.88094
12.520982742,-12.26482,4.836657,0.828613499999998,0.6976477,-0.04122158,0.03544752,-50.17202,-7.029271,-25.43008
12.530894756,-11.21187,5.302673,1.503605,0.6672945,-0.05527928,0.01546794,-50.17202,-7.029271,-25.43008
12.54080677,-10.09699,5.535681,1.933146,0.6354694,-0.06106533,0.004680081,-50.17202,-7.029271,-25.43008
12.550718784,-9.04404300000003,5.76868899999999,1.871783,0.6063277,-0.0454815,-0.005510071,-50.17202,-7.029271,-25.43008
12.560629845,-9.04404300000003,5.82694100000001,1.564968,0.6042039,-0.0285202,-0.002016325,-50.17202,-7.029271,-25.43008
12.570541859,-10.46862,6.40946000000002,1.81042,0.6211806,-0.01959668,-0.004994831,-50.56221,-5.907084,-25.81706
12.580453873,-12.8842,6.00169699999999,1.994509,0.6559313,-0.01768057,0.0004584505,-50.56221,-5.907084,-25.81706
12.590365887,-15.67141,4.661901,2.301323,0.7209996,-0.01977403,0.001283212,-50.56221,-5.907084,-25.81706
12.60275507,-17.40568,1.108532,2.546775,0.8498749,-0.04240894,0.001381026,-50.56221,-5.907084,-25.81706
12.612667084,-16.41467,-2.444838,3.589944,0.9748399,-0.05728733,0.01068968,-50.56221,-5.907084,-25.81706
12.622579098,-14.30878,-6.63897900000002,4.817203,1.104858,-0.05031637,0.01385511,-50.20086,-5.161523,-26.72074
12.632490158,-12.01707,-10.89137,6.22854899999998,1.217969,-0.04491552,0.03541245,-50.20086,-5.161523,-26.72074
12.642402172,-9.663423,-15.14377,7.39444499999999,1.282809,-0.04444076,0.06458577,-50.20086,-5.161523,-26.72074
12.652314186,-6.75233400000001,-18.69714,6.78081600000001,1.306576,-0.03765078,0.1013834,-50.20086,-5.161523,-26.72074
12.6622262,-3.531555,-19.97868,4.326299,1.275181,-0.04028602,0.1362276,-50.20086,-5.161523,-26.72074
12.672137737,0.3705419,-19.74567,0.6445247,1.225979,-0.06251217,0.1759075,-50.20272,-4.783528,-25.88671
12.682049274,6.502409,-17.7651,-3.159976,1.172363,-0.106264,0.1890762,-50.20272,-4.783528,-25.88671
12.691961288,13.87304,-13.97873,-5.92130599999998,1.115528,-0.1306886,0.1971216,-50.20272,-4.783528,-25.88671
12.701873302,21.49142,-9.66808199999998,-7.45537899999998,1.078892,-0.1364946,0.1940606,-50.20272,-4.783528,-25.88671
12.71178484,28.05685,-5.706948,-8.55991099999998,1.061213,-0.13334,0.1904039,-50.20272,-4.783528,-25.88671
12.721696854,32.14476,-2.444838,-9.11217699999998,1.072503,-0.1163514,0.1668849,-51.32713,-4.405363,-24.9826
12.731608868,33.81709,-0.2895156,-9.35762899999997,1.075871,-0.1058539,0.1261102,-51.32713,-4.405363,-24.9826
12.741520405,35.24166,0.001744238,-8.31446000000002,1.068067,-0.1027757,0.08394898,-51.32713,-4.405363,-24.9826
12.751431942,37.34756,-0.1730116,-6.71902399999997,1.036349,-0.09558345,0.05115931,-51.32713,-4.405363,-24.9826
12.761343956,40.19671,-0.2895156,-4.203145,0.9879599,-0.08276998,0.0204819,-51.32713,-4.405363,-24.9826
12.77125597,42.42648,-0.930287099999998,-1.687266,0.9712954,-0.06812523,-0.01383781,-50.57053,-5.156323,-25.4339
12.781167984,44.78012,-1.571059,1.749057,1.032469,-0.04514114,-0.0296155,-50.57053,-5.156323,-25.4339
12.791079044,44.78012,-1.978823,6.596727,1.16167,-0.001522108,-0.06317055,-50.57053,-5.156323,-25.4339
12.800991058,40.93997,-3.609878,12.24211,1.30732,0.03075402,-0.07966758,-50.57053,-5.156323,-25.4339
12.810903072,35.36554,-7.62926299999999,17.02842,1.46635,0.03060597,-0.116671,-50.57053,-5.156323,-25.4339
12.820815086,29.41949,-9.95934199999999,19.78975,1.548616,0.0346241,-0.1005995,-51.29181,-7.025962,-24.58906
12.830726147,22.35855,-11.00788,17.94886,1.440199,0.06187454,-0.007705106,-51.29181,-7.025962,-24.58906
12.840638161,15.42149,-15.20202,11.9353,1.20812,0.0688234,0.1140469,-51.29181,-7.025962,-24.58906
12.850550175,11.95296,-21.78449,5.492195,1.024636,0.03550052,0.2067519,-51.29181,-7.025962,-24.58906
12.860461712,9.90900100000002,-24.46408,0.889976299999999,0.9552349,0.02270086,0.2428401,-51.29181,-7.025962,-24.58906
12.870373726,7.18372799999999,-19.57092,-0.889547900000002,0.9208535,-0.03365728,0.2096517,-51.28375,-7.396897,-23.68848
12.882763386,5.635276,-6.75548299999999,0.03089567,0.8831341,-0.04904732,0.1373942,-51.28375,-7.396897,-23.68848
12.8926754,5.387524,2.681334,2.23996,0.8485221,-0.06040791,0.08674179,-51.28375,-7.396897,-23.68848
12.902586937,6.006905,8.62303400000002,4.080848,0.8413875,-0.08649779,0.02805466,-51.28375,-7.396897,-23.68848
12.912498474,8.17473599999999,11.18612,5.553557,0.8616543,-0.1151615,-0.03186335,-51.28375,-7.396897,-23.68848
12.922410488,16.59831,10.19584,9.97168700000001,0.8909973,-0.09747862,-0.05842562,-52.04382,-6.269773,-22.85287
12.932322502,13.25366,8.27352199999998,8.37625100000002,0.9248862,-0.1320997,-0.08441807,-52.04382,-6.269773,-22.85287
12.942234039,14.43048,3.904626,8.06943700000002,0.9598044,-0.1205887,-0.09906905,-52.04382,-6.269773,-22.85287
12.952146053,14.12079,-0.3477675,6.65808999999999,0.9950345,-0.1001348,-0.07284991,-52.04382,-6.269773,-22.85287
12.962058067,10.96195,-3.901137,4.633114,1.02128,-0.05891106,-0.04016723,-52.04382,-6.269773,-22.85287
12.971969604,6.44047100000002,-7.221499,1.933146,1.042303,-0.03572199,-0.01331832,-51.2886,-7.022302,-23.68963
12.981881142,0.866046300000002,-9.72633399999999,-0.889547900000002,1.057242,-0.0349098,0.01391795,-51.2886,-7.022302,-23.68963
12.991793156,-3.036051,-10.07585,-3.282701,1.054633,-0.04843635,0.02969719,-51.2886,-7.022302,-23.68963
13.00170517,-4.398688,-9.49332599999999,-4.755411,1.040842,-0.07475306,0.03685179,-51.2886,-7.022302,-23.68963
13.011617184,-4.460626,-7.80401899999998,-5.491766,1.030364,-0.09523012,0.04017337,-51.2886,-7.022302,-23.68963
13.021528244,-2.912175,-5.357436,-6.044032,1.019807,-0.1069682,0.04595471,-51.66957,-6.269742,-22.85481
13.031440258,-1.239847,-2.677846,-6.41221000000002,1.006591,-0.1007993,0.05187993,-51.66957,-6.269742,-22.85481
13.041352272,0.494418,-0.639027300000002,-6.35084600000001,0.998746,-0.1043231,0.04568695,-51.66957,-6.269742,-22.85481
13.051264286,1.547365,0.642515800000001,-5.73721700000003,0.9854051,-0.09675584,0.04105916,-51.66957,-6.269742,-22.85481
13.061175346,2.104807,1.225035,-5.123589,0.9813045,-0.08422019,0.03733933,-51.66957,-6.269742,-22.85481
13.07108736,1.671241,1.458043,-4.080419,0.9728286,-0.07172645,0.03606047,-51.28237,-7.395329,-23.30301
13.080999374,0.680232200000002,1.225035,-3.282701,0.9693002,-0.0698731,0.02794276,-51.28237,-7.395329,-23.30301
13.090910912,-0.806281,1.166783,-2.362258,0.9748461,-0.04996703,0.0198614,-51.28237,-7.395329,-23.30301
13.100822926,-2.726361,0.9920276,-1.625903,0.9728354,-0.04660542,0.01846192,-51.28237,-7.395329,-23.30301
13.110734463,-4.64644,0.5842639,-1.135,0.9827724,-0.0561569,0.02262781,-51.28237,-7.395329,-23.30301
13.120646477,-6.00907800000001,-0.4060195,-0.4600076,0.9778594,-0.0615962,0.01399416,-52.40678,-7.017163,-22.3989
13.130558014,-6.44264400000003,-1.105043,-0.214556,0.9837168,-0.06201576,0.01249672,-52.40678,-7.017163,-22.3989
13.140470028,-6.38070599999998,-2.095326,0.2763473,0.9872912,-0.07555256,0.01141316,-52.40678,-7.017163,-22.3989
13.150382042,-6.00907800000001,-3.08561,0.889976299999999,0.9936886,-0.07984184,0.01036511,-52.40678,-7.017163,-22.3989
13.162771702,-5.575511,-4.075893,1.319517,1.001605,-0.08067095,0.01844906,-52.02928,-7.393559,-22.84941
13.172683239,-5.141944,-4.483657,1.38088,1.012376,-0.07565121,0.02558526,-52.02928,-7.393559,-22.84941
13.182595253,-4.956131,-4.658412,1.442243,1.021789,-0.07693415,0.03605314,-52.02928,-7.393559,-22.84941
13.192507267,-5.080007,-4.425405,1.196791,1.026091,-0.07156461,0.03268802,-52.02928,-7.393559,-22.84941
13.202418804,-5.265821,-3.959389,0.828613499999998,1.033015,-0.06412107,0.04899895,-52.02928,-7.393559,-22.84941
13.212330341,-5.637449,-3.143862,0.3990731,1.033989,-0.06459882,0.04802645,-51.66311,-6.642509,-22.40395
13.222242355,-5.575511,-2.677846,0.2149844,1.028151,-0.06709567,0.0480638,-51.66311,-6.642509,-22.40395
13.232154369,-5.265821,-2.328334,0.2763473,1.02618,-0.0690795,0.04422755,-51.66311,-6.642509,-22.40395
13.242066383,-4.956131,-1.221547,0.1536215,1.027633,-0.07004361,0.0418069,-51.66311,-6.642509,-22.40395
13.251977444,-4.770316,-0.580775400000001,0.583161800000002,1.018336,-0.07601728,0.03417055,-51.66311,-6.642509,-22.40395
13.261889458,-4.274812,0.001744238,0.889976299999999,1.006055,-0.07327307,0.03190162,-52.03413,-7.018964,-22.85056
13.271801472,-3.71737,0.1765001,1.38088,1.008494,-0.0756845,0.02850189,-52.03413,-7.018964,-22.85056
13.281713486,-3.159927,0.5842639,1.687694,1.013255,-0.06739759,0.02563212,-52.03413,-7.018964,-22.85056
13.291624546,-2.912175,1.05028,2.178597,1.02157,-0.06680446,0.02651949,-52.03413,-7.018964,-22.85056
13.30153656,-3.221865,1.691051,2.546775,1.029867,-0.06183037,0.03079732,-52.03413,-7.018964,-22.85056
13.311448574,-3.097989,2.390074,3.099041,1.035646,-0.05448561,0.0307928,-51.66311,-6.642509,-22.40395
13.321360588,-3.159927,3.205602,3.28313,1.039434,-0.04328169,0.03179273,-51.66311,-6.642509,-22.40395
13.331272125,-3.531555,3.496862,3.71267,1.045824,-0.04074566,0.03799258,-51.66311,-6.642509,-22.40395
13.341183662,-4.150936,3.555114,4.449025,1.061809,-0.03476851,0.03020204,-51.66311,-6.642509,-22.40395
13.351095677,-4.584502,3.846374,5.001291,1.066324,-0.04440972,0.03009605,-51.66311,-6.642509,-22.40395
13.361007691,-4.64644,3.555114,5.308106,1.074565,-0.04385482,0.02378147,-52.41808,-6.269802,-22.85092
13.370919228,-4.02706,3.671618,5.369469,1.083389,-0.04080618,0.02948208,-52.41808,-6.269802,-22.85092
13.380831242,-3.159927,3.671618,5.369469,1.096071,-0.03871167,0.02889859,-52.41808,-6.269802,-22.85092
13.390743256,-2.292794,4.137634,5.246743,1.122901,-0.03109049,0.03158218,-52.41808,-6.269802,-22.85092
13.400654793,-1.611476,5.127917,4.939929,1.163374,-0.02527413,0.02740536,-52.41808,-6.269802,-22.85092
13.41056633,-0.6204669,6.17645200000001,4.939929,1.190494,-0.01336019,0.01571012,-50.92105,-6.269682,-22.85871
13.420478344,-0.4346527,7.224988,4.878565,1.235618,0.004588316,0.002448109,-50.92105,-6.269682,-22.85871
13.430390358,-1.054033,8.564782,5.001291,1.270782,0.03646671,-0.01206947,-50.92105,-6.269682,-22.85871
13.442779541,-3.345741,9.43856100000003,4.571751,1.317818,0.07246602,-0.008423378,-50.92105,-6.269682,-22.85871
13.452691555,-7.37171500000001,8.564782,3.467218,1.334059,0.1012549,-0.01222305,-50.92105,-6.269682,-22.85871
13.462603569,-11.52156,6.23470400000003,1.749057,1.330306,0.105679,0.008487931,-51.67602,-5.896977,-23.30568
13.472515583,-15.42366,3.322106,0.3990731,1.300379,0.09476954,0.03366026,-51.67602,-5.896977,-23.30568
13.482426643,-17.71537,0.642515800000001,-0.889547900000002,1.248067,0.08070767,0.06574081,-51.67602,-5.896977,-23.30568
13.492338657,-19.01607,-0.930287099999998,-1.99408,1.187716,0.04668387,0.1011238,-51.67602,-5.896977,-23.30568
13.502250672,-18.5825,-1.279799,-2.178169,1.127075,0.0208022,0.1178376,-51.67602,-5.896977,-23.30568
13.512162686,-17.46762,-1.163295,-2.178169,1.076151,-0.001087324,0.1330477,-51.67117,-6.271572,-23.30453
13.522073746,-15.36172,-0.4642715,-2.239532,1.044804,-0.03003896,0.1417875,-51.67117,-6.271572,-23.30453
13.53198576,-12.32676,1.05028,-2.055443,1.012289,-0.05617551,0.1351919,-51.67117,-6.271572,-23.30453
13.541897774,-9.10597999999999,2.215319,-1.625903,0.9869354,-0.06669997,0.1300745,-51.67117,-6.271572,-23.30453
13.551809788,-5.76132499999998,3.43861,-1.135,0.9750803,-0.05617773,0.1307344,-51.67117,-6.271572,-23.30453
13.561721325,-3.407679,4.60365,-0.582733500000001,0.964043,-0.04133625,0.120852,-51.68087,-5.522382,-23.30684
13.571632862,-1.921166,5.710437,0.0922585699999997,0.9584032,-0.02397853,0.1157381,-51.68087,-5.522382,-23.30684
13.581544876,-0.682404900000003,6.87547600000002,0.3990731,0.9439573,-0.01648967,0.09863588,-51.68087,-5.522382,-23.30684
13.59145689,-0.001086392,7.224988,0.5217989,0.9324592,0.001774957,0.09550279,-51.68087,-5.522382,-23.30684
13.601368427,-0.4965908,7.10848400000002,0.460436,0.915828,-0.003802451,0.08841707,-51.68087,-5.522382,-23.30684
13.611280441,-1.239847,6.64246800000002,0.3990731,0.908366,-0.002985103,0.07696772,-51.3193,-4.77656,-24.14627
13.621192455,-1.177909,6.87547600000002,0.767250500000003,0.9065994,-0.02583797,0.06866913,-51.3193,-4.77656,-24.14627
13.631103992,0.2466658,7.10848400000002,1.319517,0.9046355,-0.04537883,0.04502936,-51.3193,-4.77656,-24.14627
13.64101553,2.228683,7.86575900000002,2.055871,0.9067029,-0.0401788,0.01431475,-51.3193,-4.77656,-24.14627
13.650927544,3.591321,8.85604200000002,2.669501,0.8911586,-0.02300878,-0.003192955,-51.3193,-4.77656,-24.14627
13.660839558,3.962949,9.26380600000001,3.037678,0.8713167,0.002452532,-0.0009191982,-51.31259,-5.529149,-24.97914
13.670751572,3.157754,9.49681400000001,2.792227,0.8422177,0.02147322,-0.002924158,-51.31259,-5.529149,-24.97914
13.680662632,2.166745,9.205554,3.221767,0.7946452,0.03202423,-0.004334539,-51.31259,-5.529149,-24.97914
13.690574646,1.299613,8.15701899999998,3.958122,0.7545424,0.03493257,-0.001543492,-51.31259,-5.529149,-24.97914
13.70048666,0.866046300000002,7.45799500000003,4.817203,0.7172912,0.04222519,-0.001630559,-51.31259,-5.529149,-24.97914
13.710398674,-0.06302445,6.584216,5.86037199999999,0.6905469,0.04928284,0.02123123,-50.55922,-5.903685,-24.98188
13.722787857,-2.354732,5.186169,7.21035599999999,0.6636688,0.04651469,0.01954073,-50.55922,-5.903685,-24.98188
13.732699871,-4.894192,3.962878,7.76262199999999,0.6634136,0.03931316,0.03389986,-50.55922,-5.903685,-24.98188
13.742611885,-7.681405,2.681334,7.701259,0.6689991,0.02485401,0.03711298,-50.55922,-5.903685,-24.98188
13.752523899,-9.911175,1.225035,7.21035599999999,0.673142,0.007950124,0.039843,-50.55922,-5.903685,-24.98188
13.762434959,-11.64544,-0.755531299999998,6.28991200000003,0.707082,-0.009083411,0.03941564,-51.32713,-4.405363,-24.9826
13.772346973,-12.32676,-2.386586,5.308106,0.7337869,-0.03152292,0.04238029,-51.32713,-4.405363,-24.9826
13.782258987,-12.20288,-3.609878,4.387662,0.7711598,-0.04363035,0.04867621,-51.32713,-4.405363,-24.9826
13.792171001,-10.96412,-4.541909,3.221767,0.805716,-0.07132325,0.04817213,-51.32713,-4.405363,-24.9826
13.802082062,-9.29179500000003,-5.998208,2.792227,0.8390616,-0.07622267,0.05167237,-51.32713,-4.405363,-24.9826
13.811994076,-7.74334299999998,-7.16324699999999,1.871783,0.8704325,-0.07871728,0.05616722,-50.95102,-4.783327,-25.81858
13.82190609,-6.13295399999998,-7.74576700000002,0.6445247,0.904173,-0.06707416,0.06985733,-50.95102,-4.783327,-25.81858
13.831818104,-5.018068,-8.15353100000001,-1.073637,0.9413466,-0.06416319,0.07433451,-50.95102,-4.783327,-25.81858
13.841729641,-3.71737,-8.50304200000002,-2.975887,0.9706651,-0.06185458,0.07503906,-50.95102,-4.783327,-25.81858
13.851641655,-1.239847,-8.73605099999999,-4.448596,1.002461,-0.06144967,0.07666834,-50.95102,-4.783327,-25.81858
13.861553192,2.042869,-8.85255399999999,-5.79858000000001,1.020973,-0.06076469,0.0707398,-50.58209,-4.029139,-24.60218
13.871465206,5.94496599999999,-8.50304200000002,-6.22812100000001,1.038327,-0.03872275,0.07216664,-50.58209,-4.029139,-24.60218
13.881376743,8.48442599999998,-7.862271,-5.92130599999998,1.041663,-0.0240906,0.0808761,-50.58209,-4.029139,-24.60218
13.891288757,10.09482,-7.10499500000003,-5.73721700000003,1.03699,0.002053949,0.08493476,-50.58209,-4.029139,-24.60218
13.901200771,9.78512499999999,-6.40597199999999,-5.675855,1.026642,0.01407937,0.09135263,-50.58209,-4.029139,-24.60218
13.911112308,8.79411600000002,-5.648696,-6.044032,1.008487,0.02406336,0.09686878,-51.33384,-3.652774,-24.14973
13.921023846,7.67923199999999,-4.483657,-6.41221000000002,0.9894239,0.02236451,0.0955933,-51.33384,-3.652774,-24.14973
13.93093586,6.44047100000002,-2.736098,-6.596298,0.9600675,0.02198741,0.09346148,-51.33384,-3.652774,-24.14973
13.940847874,5.573338,-1.163295,-6.22812100000001,0.921832,0.01950833,0.08131447,-51.33384,-3.652774,-24.14973
13.950759888,5.015896,0.5260119,-5.430403,0.8921422,0.0065231,0.0795819,-51.33384,-3.652774,-24.14973
13.960670948,4.644268,1.807555,-4.325871,0.8628758,-0.00014866,0.07884781,-50.94019,-5.151125,-24.14706
13.970582962,3.901011,2.914342,-2.730435,0.8287421,0.002886054,0.09166781,-50.94019,-5.151125,-24.14706
13.980494976,2.166745,3.962878,-1.135,0.796519,-0.00432222,0.08807652,-50.94019,-5.151125,-24.14706
13.99040699,0.1847278,4.953161,0.705887599999999,0.7667214,-0.006631819,0.08833671,-50.94019,-5.151125,-24.14706
14.002796173,-1.79729,6.17645200000001,1.933146,0.7455462,-0.00307065,0.07799279,-50.94504,-4.77653,-24.14822
14.012708187,-3.159927,7.39974399999998,2.792227,0.7506905,-0.00410083,0.05393044,-50.94504,-4.77653,-24.14822
14.022620201,-3.593493,8.04051500000001,3.099041,0.772128,-0.004359196,0.04604793,-50.94504,-4.77653,-24.14822
14.032532215,-3.407679,8.15701899999998,3.405856,0.8113502,0.01398594,0.02996219,-50.94504,-4.77653,-24.14822
14.042443275,-3.221865,6.87547600000002,4.080848,0.870697,0.02579295,0.01364677,-50.94504,-4.77653,-24.14822
14.052355289,-3.097989,4.778405,4.510388,0.9364398,0.0474563,0.01270294,-50.93833,-5.529119,-24.98109
14.062267303,-3.965122,3.030846,4.817203,0.9998571,0.07110234,0.0257184,-50.93833,-5.529119,-24.98109
14.072179317,-6.93814800000003,0.293004,4.510388,1.037473,0.08326356,0.03649517,-50.93833,-5.529119,-24.98109
14.082090378,-11.02606,-4.075893,2.976315,1.058428,0.0725187,0.06455913,-50.93833,-5.529119,-24.98109
14.092002392,-14.61847,-8.73605099999999,0.03089567,1.076793,0.02338016,0.08134761,-50.93833,-5.529119,-24.98109
14.101914406,-15.67141,-12.87194,-3.159976,1.091379,-0.02769008,0.1087217,-51.69841,-4.401995,-24.14548
14.11182642,-14.30878,-15.37677,-6.044032,1.117013,-0.07579596,0.1201681,-51.69841,-4.401995,-24.14548
14.121737957,-11.83125,-15.90104,-8.55991099999998,1.139876,-0.1065408,0.120232,-51.69841,-4.401995,-24.14548
14.131649971,-7.86721900000001,-15.43503,-10.33944,1.139193,-0.1337167,0.1171763,-51.69841,-4.401995,-24.14548
14.141561508,-2.664423,-13.57096,-12.42577,1.132506,-0.150305,0.1132864,-51.69841,-4.401995,-24.14548
14.151473522,3.467444,-10.94963,-14.57348,1.084275,-0.1639905,0.1146016,-51.3193,-4.77656,-24.14627
14.161385536,10.46644,-7.92052300000001,-17.27345,1.020018,-0.1619715,0.09744342,-51.3193,-4.77656,-24.14627
14.171297073,16.78412,-5.18268,-19.35978,0.9620887,-0.1423268,0.09811003,-51.3193,-4.77656,-24.14627
14.181209087,22.48243,-2.736098,-21.01658,0.8840405,-0.1244338,0.08982803,-51.3193,-4.77656,-24.14627
14.191121101,26.94197,-1.046791,-22.73474,0.8146913,-0.09965464,0.07959083,-51.3193,-4.77656,-24.14627
14.201032639,29.23367,-0.05650773,-24.08473,0.749025,-0.08347769,0.08462732,-50.93236,-5.522322,-23.31073
14.210944176,30.03887,1.166783,-24.82108,0.7164012,-0.07528469,0.06001538,-50.93236,-5.522322,-23.31073
14.22085619,31.21569,2.506578,-24.14609,0.7594845,-0.06716081,0.02702031,-50.93236,-5.522322,-23.31073
14.230768204,32.33058,4.428894,-20.03478,0.9605596,-0.03922888,-0.02554997,-50.93236,-5.522322,-23.31073
14.240680218,31.4015,6.64246800000002,-11.56669,1.243866,-0.004370063,-0.06202905,-50.93236,-5.522322,-23.31073
14.250591278,28.11879,0.642515800000001,-0.644096300000003,1.567263,-0.009010912,-0.1452372,-51.29345,-6.647706,-23.69079
14.260503292,33.44546,-15.55153,12.11939,1.963822,-0.08087273,-0.2775857,-51.29345,-6.647706,-23.69079
14.270415306,42.11679,-27.20192,23.28744,2.161385,-0.05302163,-0.2436955,-51.29345,-6.647706,-23.69079
14.282805443,35.79911,-28.13395,20.21929,1.783424,0.1217607,-0.03688907,-51.29345,-6.647706,-23.69079
14.292716503,17.96095,-30.28927,4.694477,1.283519,0.1310245,0.05326404,-51.29345,-6.647706,-23.69079
14.302628517,8.91799300000002,-46.77458,-8.68263700000001,0.9451218,0.1189813,0.2277299,-50.8952,-8.14083,-22.40322
14.312540531,3.839073,-58.2502199999999,-17.88707,0.8584931,0.08274133,0.2729443,-50.8952,-8.14083,-22.40322
14.322452545,2.786126,-55.80363,-22.3052,0.8853278,-0.007187282,0.2572121,-50.8952,-8.14083,-22.40322
14.332363606,-0.1249625,-37.57077,-22.36657,0.9099535,0.010524,0.2474992,-50.8952,-8.14083,-22.40322
14.34227562,-1.79729,-11.64865,-19.72796,0.9064854,0.002892098,0.1865004,-50.8952,-8.14083,-22.40322
14.352187634,-2.478608,9.205554,-14.2053,0.8296079,0.04527901,0.1303549,-52.3895,-7.757726,-20.27652
14.362099648,-1.859228,21.90448,-8.74399900000002,0.7927746,0.03717047,0.05765746,-52.3895,-7.757726,-20.27652
14.372010708,1.175737,29.12773,-3.159976,0.8110417,0.02455711,0.01226961,-52.3895,-7.757726,-20.27652
14.381922722,4.210701,33.43837,2.301323,0.8506038,-0.0008233817,-0.02187642,-52.3895,-7.757726,-20.27652
14.391834736,5.5114,34.77817,7.45580799999998,0.899002,-0.02997801,-0.05708965,-52.3895,-7.757726,-20.27652
14.40174675,4.706205,33.38012,13.03983,0.9752061,-0.03979294,-0.0761058,-52.37794,-8.884912,-21.10824
14.411658287,2.476436,30.17626,17.51932,1.029529,-0.07128337,-0.1085084,-52.37794,-8.884912,-21.10824
14.421570301,-1.301785,25.92387,20.21929,1.060723,-0.07094314,-0.1179176,-52.37794,-8.884912,-21.10824
14.431481838,-6.44264400000003,20.15692,20.40338,1.06555,-0.06896363,-0.1217904,-52.37794,-8.884912,-21.10824
14.441393852,-11.83125,12.99193,18.99203,1.05851,-0.06597525,-0.08953474,-52.37794,-8.884912,-21.10824
14.45130539,-16.04304,5.419177,16.2307,1.039749,-0.06946804,-0.06345597,-52.01013,-8.512116,-21.56105
14.461217404,-17.77731,0.001744238,13.16256,1.033951,-0.09023257,-0.03329071,-52.01013,-8.512116,-21.56105
14.471129418,-16.29079,-3.726381,10.52395,1.029953,-0.1086151,-0.01561034,-52.01013,-8.512116,-21.56105
14.481041432,-12.3887,-5.532192,9.17396900000002,1.023258,-0.1100857,-0.002593956,-52.01013,-8.512116,-21.56105
14.490952492,-7.309776,-6.52247499999999,8.49897699999999,1.012448,-0.1014675,0.002365017,-52.01013,-8.512116,-21.56105
14.500864506,-3.097989,-6.17296399999999,8.19216299999999,0.992333,-0.07882678,0.02238836,-52.39708,-7.766354,-22.3966
14.51077652,-0.06302445,-5.648696,7.88534800000001,0.9705183,-0.05193538,0.02468989,-52.39708,-7.766354,-22.3966
14.520688534,1.361551,-4.89142,7.39444499999999,0.9483377,-0.03327879,0.02934074,-52.39708,-7.766354,-22.3966
14.530600548,1.547365,-3.842885,6.84217800000002,0.9393133,-0.01496852,0.02906602,-52.39708,-7.766354,-22.3966
14.540511608,0.618294100000002,-3.260366,6.22854899999998,0.9387301,-0.006243222,0.03008986,-52.39708,-7.766354,-22.3966
14.550423622,-0.5585288,-2.328334,6.16718700000003,0.9513315,-0.002727455,0.02327453,-52.41162,-6.642568,-22.40005
14.562813759,-1.859228,-1.512807,6.28991200000003,0.9724586,-0.01216729,0.02205593,-52.41162,-6.642568,-22.40005
14.572725773,-2.788299,-1.396303,6.35127500000001,0.9828432,-0.02856348,0.01416813,-52.41162,-6.642568,-22.40005
14.582636833,-3.655432,-1.629311,6.71945300000003,1.003116,-0.0462442,0.01530334,-52.41162,-6.642568,-22.40005
14.592548847,-3.779308,-2.852602,6.78081600000001,1.015831,-0.05144961,0.009389164,-52.41162,-6.642568,-22.40005
14.602460861,-4.212874,-4.600161,6.47400099999998,1.026542,-0.05426554,0.00158881,-51.65826,-7.017104,-22.40279
14.612372875,-4.460626,-5.88170400000003,5.79900900000001,1.025672,-0.05958748,0.005882824,-51.65826,-7.017104,-22.40279
14.622283935,-4.088998,-7.33800299999997,5.001291,1.01926,-0.06067167,-0.0007873112,-51.65826,-7.017104,-22.40279
14.632195949,-3.531555,-8.15353100000001,4.14221,1.015395,-0.06411126,-0.0002943184,-51.65826,-7.017104,-22.40279
14.642107963,-2.726361,-8.32828599999997,3.221767,1.010508,-0.06270742,0.001680857,-51.65826,-7.017104,-22.40279
14.652019977,-1.363724,-8.03702600000001,1.994509,1.004133,-0.05694336,0.006579803,-51.67467,-5.515323,-21.57223
14.661931038,-0.3727147,-7.33800299999997,1.135428,0.997243,-0.05363738,0.006185386,-51.67467,-5.515323,-21.57223
14.671843052,0.2466658,-6.46422299999998,0.2763473,0.9893379,-0.04841201,0.004372672,-51.67467,-5.515323,-21.57223
14.681755066,0.742170199999999,-5.590444,0.1536215,0.9867617,-0.04070607,0.0006065685,-51.67467,-5.515323,-21.57223
14.69166708,0.3705419,-5.299184,-0.3372818,0.9862226,-0.03195784,0.005951576,-51.67467,-5.515323,-21.57223
14.701578617,-0.9301572,-4.658412,-0.3372818,0.9885182,-0.02029755,0.005047711,-52.41994,-5.891809,-22.0169
14.711490631,-2.850237,-4.308901,-0.09183015,0.9977059,-0.0187711,-0.003189781,-52.41994,-5.891809,-22.0169
14.721402168,-4.894192,-3.784633,0.705887599999999,1.009544,-0.02247312,0.002437976,-52.41994,-5.891809,-22.0169
14.731314182,-6.87620999999998,-3.435122,1.258154,1.014036,-0.03017516,0.002345119,-52.41994,-5.891809,-22.0169
14.741226196,-8.11497100000001,-3.08561,1.933146,1.020075,-0.04952458,-0.003601538,-52.41994,-5.891809,-22.0169
14.751137733,-9.04404300000003,-2.561342,2.853589,1.018731,-0.05191835,0.005517956,-52.04247,-5.888119,-21.11942
14.761049747,-9.47760899999999,-1.920571,3.651307,1.023411,-0.06293751,0.01980601,-52.04247,-5.888119,-21.11942
14.770961761,-9.663423,-0.8720351,4.264936,1.02786,-0.0711498,0.01490857,-52.04247,-5.888119,-21.11942
14.780873299,-9.22985600000001,0.5260119,5.062654,1.019113,-0.07074375,0.02075407,-52.04247,-5.888119,-21.11942
14.790784836,-8.548538,1.691051,5.492195,1.02212,-0.07896153,0.01827072,-52.04247,-5.888119,-21.11942
14.80069685,-8.176909,2.85609,5.73764600000002,1.024989,-0.07603162,0.01538276,-52.41673,-5.888148,-21.11747
14.810608864,-7.43365200000003,3.43861,5.79900900000001,1.024063,-0.0852854,0.009567775,-52.41673,-5.888148,-21.11747
14.820520878,-6.56652,3.555114,5.430832,1.011824,-0.09178793,0.0005146423,-52.41673,-5.888148,-21.11747
14.830431938,-5.265821,3.613366,4.939929,1.006431,-0.09186237,-0.0008764602,-52.41673,-5.888148,-21.11747
14.842822075,-3.159927,3.72987,4.203574,1.003536,-0.09090374,0.00395829,-52.78614,-6.262774,-21.11437
14.852734089,-1.735352,3.962878,3.774033,0.9994825,-0.08029453,0.002625978,-52.78614,-6.262774,-21.11437
14.862646103,-0.9301572,4.02113,3.344493,0.9911242,-0.07847133,0.0003146306,-52.78614,-6.262774,-21.11437
14.872557163,-0.5585288,3.846374,3.28313,0.9897062,-0.08090332,0.002232177,-52.78614,-6.262774,-21.11437
14.882469177,-0.3727147,3.263854,3.28313,0.9837498,-0.07468154,0.0008882368,-52.78614,-6.262774,-21.11437
14.892381191,-0.2488386,2.797838,3.099041,0.9772789,-0.07043047,-0.005265655,-52.42643,-5.138958,-21.11978
14.902293205,-0.001086392,1.749303,3.037678,0.9742211,-0.07199516,-0.01917239,-52.42643,-5.138958,-21.11978
14.912204266,0.0608516599999998,0.5260119,2.792227,0.9751956,-0.06759441,-0.0143505,-52.42643,-5.138958,-21.11978
14.92211628,-0.1249625,-0.988539100000001,2.792227,0.9750603,-0.06327458,-0.02248316,-52.42643,-5.138958,-21.11978
14.932028294,-0.3107767,-2.969106,3.099041,0.9744736,-0.06333161,-0.03208128,-52.42643,-5.138958,-21.11978
14.941940308,0.2466658,-4.658412,3.099041,0.9703364,-0.05227837,-0.04109239,-52.80714,-4.766223,-21.5687
14.951852322,0.618294100000002,-6.23121499999997,2.976315,0.9765082,-0.05302221,-0.01234493,-52.80714,-4.766223,-21.5687
14.961763382,-1.115971,-8.211782,2.853589,0.9691712,-0.05896902,-0.01951906,-52.80714,-4.766223,-21.5687
14.971675396,-2.045042,-11.35739,3.28313,0.9617581,-0.06349204,-0.03244491,-52.80714,-4.766223,-21.5687
14.98158741,-2.664423,-14.32824,3.651307,0.9595664,-0.05485886,-0.0453314,-52.80714,-4.766223,-21.5687
14.991499424,-3.407679,-16.1923,3.958122,0.9754834,-0.03867304,-0.04777157,-52.80229,-5.140818,-21.56755
15.001410961,-5.389697,-16.83307,4.387662,0.9826836,-0.0303583,-0.05114387,-52.80229,-5.140818,-21.56755
15.011322498,-6.87620999999998,-17.12433,5.553557,0.9964902,-0.03061446,-0.04022962,-52.80229,-5.140818,-21.56755
15.021234512,-8.23884800000001,-16.01755,8.06943700000002,1.023335,-0.04663956,-0.01609658,-52.80229,-5.140818,-21.56755
15.031146526,-10.65443,-14.736,11.32167,1.038321,-0.05214496,0.008216225,-52.80229,-5.140818,-21.56755
15.041058064,-13.62746,-12.75544,14.69663,1.04471,-0.07814134,0.02863075,-52.79584,-5.513583,-21.11668
15.050970078,-16.47661,-9.60983000000002,17.27387,1.052892,-0.09541774,0.04332489,-52.79584,-5.513583,-21.11668
15.060881615,-17.96312,-5.240932,19.11476,1.067919,-0.1238282,0.04491728,-52.79584,-5.513583,-21.11668
15.070793629,-18.27281,0.001744238,20.7102,1.074947,-0.1334033,0.0515107,-52.79584,-5.513583,-21.11668
15.080705166,-18.39669,5.419177,22.55108,1.071573,-0.1431774,0.04475458,-52.79584,-5.513583,-21.11668
15.09061718,-16.66242,9.90457699999998,24.63742,1.072396,-0.1600702,0.0575987,-52.43314,-4.386368,-20.28691
15.100529194,-16.53855,14.15697,27.70557,1.063127,-0.1572488,0.06298496,-52.43314,-4.386368,-20.28691
15.110441208,-16.97211,18.1181,31.01916,1.057732,-0.1612271,0.0567663,-52.43314,-4.386368,-20.28691
15.122830391,-18.64444,23.71029,35.37593,1.059277,-0.1689732,0.05525992,-52.43314,-4.386368,-20.28691
15.132742405,-20.81227,27.84618,39.24179,1.045419,-0.1784995,0.0279556,-52.43314,-4.386368,-20.28691
15.142654419,-23.16592,30.11801,42.98493,1.037075,-0.1761814,0.02756806,-53.20266,-2.889877,-20.73734
15.152566433,-26.07701,31.63256,46.48262,1.034177,-0.187419,0.01791683,-53.20266,-2.889877,-20.73734
15.16247797,-28.74034,32.27333,50.4712,1.035333,-0.1990215,0.02167011,-53.20266,-2.889877,-20.73734
15.172389507,-32.89019,34.19565,53.96889,1.032278,-0.2257021,0.02632219,-53.20266,-2.889877,-20.73734
15.182301521,-34.87221,35.24418,56.97567,1.0262,-0.2171048,0.01587221,-53.20266,-2.889877,-20.73734
15.192213535,-36.4826,36.00146,59.0006499999999,1.022977,-0.2350923,0.0143417,-52.86668,-0.6527321,-23.316
15.202125549,-36.1729,36.23447,62.4369699999998,1.036559,-0.2591195,0.02317903,-52.86668,-0.6527321,-23.316
15.21203661,-35.73934,35.47719,65.3210299999999,1.010762,-0.2647487,0.02818169,-52.86668,-0.6527321,-23.316
15.221948624,-33.8812,33.49662,67.2846499999999,1.0046,-0.2769219,0.03295915,-52.86668,-0.6527321,-23.316
15.231860638,-31.2798,31.74907,71.0891399999999,1.032859,-0.3012493,0.04213891,-52.86668,-0.6527321,-23.316
15.241772652,-29.05003,31.63256,74.6481900000002,1.035122,-0.3088695,0.06319418,-51.78973,2.652885,-24.16721
15.251684666,-29.05003,31.39955,79.00496,1.017619,-0.3134284,0.0676471,-51.78973,2.652885,-24.16721
15.261595726,-29.66941,30.70053,81.5208399999998,1.007592,-0.3029481,0.05580569,-51.78973,2.652885,-24.16721
15.27150774,-30.35073,29.47724,85.3866999999999,1.000802,-0.316176,0.04569705,-51.78973,2.652885,-24.16721
15.281419754,-30.90817,26.68114,87.96394,1.004894,-0.3374965,0.03831479,-51.78973,2.652885,-24.16721
15.291331768,-30.22686,25.10834,91.6457200000001,1.00787,-0.3762139,0.04475155,-51.09915,6.768266,-25.46869
15.301242828,-28.49259,23.88505,95.32749,1.014514,-0.397448,0.04790974,-51.09915,6.768266,-25.46869
15.311154842,-26.57251,24.23456,97.4138300000001,1.005615,-0.4095559,0.07191929,-51.09915,6.768266,-25.46869
15.321066856,-25.20987,23.76855,99.6228899999998,0.9831987,-0.4219932,0.06484137,-51.09915,6.768266,-25.46869
15.33097887,-24.15693,22.31225,100.1752,0.9633738,-0.4265187,0.08131995,-51.09915,6.768266,-25.46869
15.340890408,-23.53755,20.27343,102.0774,0.9285206,-0.4206832,0.07495895,-50.03755,11.2601,-26.32355
15.350801945,-23.59948,18.46762,103.7956,0.9357802,-0.4520894,0.07852384,-50.03755,11.2601,-26.32355
15.360713959,-23.10398,17.8851,105.8205,0.9273947,-0.4802759,0.08609615,-50.03755,11.2601,-26.32355
15.370625973,-21.55553,19.16664,107.4773,0.9302068,-0.4990785,0.09986947,-50.03755,11.2601,-26.32355
15.38053751,-20.31677,21.84623,109.0728,0.9356386,-0.4965445,0.1079988,-50.03755,11.2601,-26.32355
15.390449524,-19.32576,23.36078,109.5023,0.936575,-0.5141148,0.08338501,-48.23229,16.12659,-27.18346
15.400361538,-17.03405,23.59379,109.9319,0.9298637,-0.5385211,0.06791943,-48.23229,16.12659,-27.18346
15.412751198,-15.29979,20.62294,109.0728,0.919973,-0.5643069,0.07456134,-48.23229,16.12659,-27.18346
15.422663212,-14.06102,18.05985,108.4592,0.9286732,-0.5922936,0.07957616,-48.23229,16.12659,-27.18346
15.432574749,-12.82226,17.12782,107.416,0.9165891,-0.584569,0.1023068,-48.23229,16.12659,-27.18346
15.442486286,-10.34474,17.41908,106.6796,0.9453163,-0.6059739,0.1129422,-46.49448,21.36741,-28.10845
15.4523983,-9.22985600000001,18.05985,109.6251,0.9521871,-0.5990457,0.1234883,-46.49448,21.36741,-28.10845
15.462310314,-8.67241400000003,19.63266,111.4659,0.9146581,-0.5945762,0.1406707,-46.49448,21.36741,-28.10845
15.472221851,-9.22985600000001,19.28314,112.325,0.9009645,-0.5918222,0.1436966,-46.49448,21.36741,-28.10845
15.482133865,-9.84923700000002,18.93363,113.3682,0.8855992,-0.6128473,0.1465796,-46.49448,21.36741,-28.10845
15.492045879,-10.2828,18.29286,112.7546,0.8768722,-0.6231627,0.14179,-43.55917,25.7988,-28.52314
15.501957417,-9.72536099999999,17.65209,111.4659,0.8685855,-0.6256925,0.1413696,-43.55917,25.7988,-28.52314
15.511868954,-8.42466199999997,17.82685,109.7478,0.8455716,-0.6216071,0.1430501,-43.55917,25.7988,-28.52314
15.521780968,-7.74334299999998,17.71034,107.3546,0.8288878,-0.614529,0.1456524,-43.55917,25.7988,-28.52314
15.531692982,-6.38070599999998,18.23461,104.9615,0.7980934,-0.6090558,0.153176,-43.55917,25.7988,-28.52314
15.541604996,-4.33675,18.29286,101.157,0.7750103,-0.6020795,0.1515153,-40.62005,29.91775,-29.00112
15.55151701,-1.611476,18.46762,98.2115500000002,0.766148,-0.5973434,0.1511487,-40.62005,29.91775,-29.00112
15.56142807,0.989922399999999,19.28314,95.3888499999998,0.7337289,-0.5831903,0.1534634,-40.62005,29.91775,-29.00112
15.571340084,2.848064,21.26371,90.7866399999997,0.6988657,-0.616624,0.1478012,-40.62005,29.91775,-29.00112
15.581252098,7.617294,21.49672,85.8162499999998,0.6785765,-0.6111471,0.1307397,-40.62005,29.91775,-29.00112
15.591164112,11.02389,20.15692,80.7844800000001,0.6652079,-0.599204,0.1285421,-37.69201,34.78434,-29.86687
15.601075172,13.62528,19.05013,75.44592,0.6592067,-0.5925179,0.1233604,-37.69201,34.78434,-29.86687
15.610987186,15.1118,18.64237,69.2482600000001,0.6547378,-0.5735841,0.1388929,-37.69201,34.78434,-29.86687
15.6208992,15.48343,19.4579,62.8665200000003,0.6419917,-0.56498,0.1457903,-37.69201,34.78434,-29.86687
15.630811214,14.49242,20.33168,56.30068,0.6264561,-0.562679,0.1593938,-37.69201,34.78434,-29.86687
15.640723228,13.25366,20.50644,50.28712,0.6112511,-0.5648446,0.1523176,-34.35924,37.40495,-30.34217
15.650634289,11.08582,20.33168,44.45764,0.6098869,-0.5726144,0.1532387,-34.35924,37.40495,-30.34217
15.660546303,9.41349700000002,19.5744,38.68953,0.6094106,-0.5848091,0.1401976,-34.35924,37.40495,-30.34217
15.670458317,8.42248799999999,18.40936,33.04414,0.5938475,-0.5942298,0.1373979,-34.35924,37.40495,-30.34217
15.682848453,8.05085899999999,17.18607,25.92604,0.5704913,-0.6086108,0.1317561,-31.39562,39.2711,-32.09811
15.692759514,8.60830200000001,16.31229,20.83292,0.560913,-0.6237507,0.1336645,-31.39562,39.2711,-32.09811
15.702671528,8.60830200000001,15.72977,16.16934,0.5601445,-0.6363369,0.1393496,-31.39562,39.2711,-32.09811
15.712583542,8.36055000000001,14.79774,11.4444,0.5588435,-0.6465128,0.1436153,-31.39562,39.2711,-32.09811
15.722495556,7.865046,13.34144,6.84217800000002,0.5622745,-0.6513438,0.1387498,-31.39562,39.2711,-32.09811
15.732406616,7.18372799999999,11.65214,1.687694,0.5661806,-0.6566635,0.131956,-30.28877,40.39341,-32.49288
15.74231863,5.82109000000002,9.26380600000001,-2.914524,0.5637175,-0.6518255,0.1358523,-30.28877,40.39341,-32.49288
15.752230644,3.467444,7.28324000000001,-7.27128999999997,0.5636175,-0.6479752,0.1305971,-30.28877,40.39341,-32.49288
15.762142658,1.05186,4.953161,-11.3826,0.5474421,-0.6408808,0.1351154,-30.28877,40.39341,-32.49288
15.772054672,-0.9301572,2.506578,-16.10755,0.5420989,-0.6462956,0.1322478,-30.28877,40.39341,-32.49288
15.781966209,-2.974113,0.351256,-20.52568,0.5426519,-0.649183,0.1351044,-29.91288,40.01518,-33.3931
15.791877747,-4.522564,-1.338051,-24.57563,0.5418193,-0.6535099,0.1442063,-29.91288,40.01518,-33.3931
15.801789761,-5.513573,-2.270082,-28.62558,0.5418838,-0.6539641,0.1499646,-29.91288,40.01518,-33.3931
15.811701775,-6.13295399999998,-3.08561,-33.04371,0.5453281,-0.6553735,0.1504035,-29.91288,40.01518,-33.3931
15.821613312,-6.194891,-4.600161,-37.33912,0.5575497,-0.6552216,0.1502915,-29.91288,40.01518,-33.3931
15.831525326,-6.07101500000003,-5.998208,-42.06406,0.5702998,-0.65797,0.1506354,-30.28068,39.64239,-32.94029
15.84143734,-5.389697,-7.27975100000002,-46.789,0.5922087,-0.6460361,0.1553139,-30.28068,39.64239,-32.94029
15.851348877,-5.080007,-8.15353100000001,-51.51395,0.612631,-0.63657,0.1551881,-30.28068,39.64239,-32.94029
15.861260891,-4.770316,-8.91080699999998,-56.30025,0.629198,-0.6227333,0.1656905,-30.28068,39.64239,-32.94029
15.871172428,-4.894192,-9.31857,-61.7615499999998,0.6370131,-0.6109324,0.1786611,-30.28068,39.64239,-32.94029
15.881084442,-5.141944,-9.31857,-67.1614799999999,0.6477093,-0.5947319,0.1916344,-31.39215,38.89494,-32.48243
15.890996456,-5.451635,-8.561295,-73.1136899999998,0.6535118,-0.5785944,0.2041724,-31.39215,38.89494,-32.48243
15.90090847,-5.141944,-7.39625499999999,-78.5136300000003,0.667196,-0.5681826,0.215639,-31.39215,38.89494,-32.48243
15.91081953,-4.956131,-5.299184,-83.29993,0.6765285,-0.5626785,0.2261528,-31.39215,38.89494,-32.48243
15.920731544,-3.965122,-2.386586,-88.33169,0.6927999,-0.5741132,0.2259262,-31.39215,38.89494,-32.48243
15.930643558,-2.354732,-0.1730116,-93.4861799999998,0.7115433,-0.5898933,0.2232469,-33.24106,37.3998,-31.6329
15.940555572,0.1227897,0.409508,-98.57929,0.7460581,-0.6137053,0.2232492,-33.24106,37.3998,-31.6329
15.950467587,2.35256,0.817271699999998,-102.6292,0.7868755,-0.6247828,0.2328813,-33.24106,37.3998,-31.6329
15.960378647,3.777135,1.341539,-105.3906,0.8117279,-0.6103683,0.2413903,-33.24106,37.3998,-31.6329
15.972768784,3.591321,2.506578,-109.1951,0.8102006,-0.5672517,0.2383306,-33.24106,37.3998,-31.6329
15.982680798,3.467444,2.331823,-112.3246,0.7922364,-0.5393677,0.2358015,-35.43972,33.65184,-32.0594
15.992592812,3.343568,0.46776,-114.1041,0.7831991,-0.5327713,0.220564,-35.43972,33.65184,-32.0594
16.002503872,3.901011,-0.930287099999998,-114.1041,0.8189334,-0.5474254,0.2071716,-35.43972,33.65184,-32.0594
16.012415886,4.272639,-0.3477675,-113.8587,0.8590881,-0.562502,0.195176,-35.43972,33.65184,-32.0594
16.0223279,4.89202,2.040563,-113.6746,0.8955045,-0.5916836,0.1836012,-35.43972,33.65184,-32.0594
16.032239914,5.75915199999997,4.836657,-113.7359,0.9074274,-0.6177803,0.1713131,-39.5143,30.27858,-32.41307
16.042150974,7.617294,6.351208,-113.7973,0.9057819,-0.6425214,0.1726039,-39.5143,30.27858,-32.41307
16.052062988,10.83807,5.011413,-114.2882,0.8805413,-0.6268941,0.1614177,-39.5143,30.27858,-32.41307
16.061975002,13.19172,2.273571,-115.3927,0.8545259,-0.5782509,0.161022,-39.5143,30.27858,-32.41307
16.071887016,16.53637,-1.046791,-115.8223,0.8598523,-0.5428492,0.1496848,-39.5143,30.27858,-32.41307
16.08179903,19.19971,-6.34771999999997,-115.2086,0.8873372,-0.5168474,0.1424015,-41.70514,26.15942,-32.00323
16.091710091,19.88103,-10.36711,-113.1223,0.9207651,-0.4951229,0.1374355,-41.70514,26.15942,-32.00323
16.101622105,19.57134,-12.28942,-109.5019,0.9600559,-0.513567,0.1326278,-41.70514,26.15942,-32.00323
16.111534119,19.88103,-13.1632,-103.9792,0.9717202,-0.5241886,0.1132428,-41.70514,26.15942,-32.00323
16.121446133,21.05785,-13.62922,-97.1065800000003,0.9669176,-0.5417655,0.1011662,-41.70514,26.15942,-32.00323
16.13135767,23.78312,-14.67775,-91.3384700000003,0.9325939,-0.5446833,0.08849993,-44.25787,20.97731,-31.97365
16.141269207,27.43747,-15.14377,-87.1044299999998,0.9012878,-0.5509354,0.08010495,-44.25787,20.97731,-31.97365
16.151181221,31.89701,-16.65832,-84.58855,0.8919041,-0.5311004,0.09424847,-44.25787,20.97731,-31.97365
16.161093235,36.6043,-20.6777,-83.1772000000001,0.8978211,-0.5005177,0.08719511,-44.25787,20.97731,-31.97365
16.171005249,40.19671,-25.68737,-82.56358,0.943751,-0.4450853,0.1010642,-44.25787,20.97731,-31.97365
16.180916786,41.24966,-29.76501,-80.2317800000002,0.9819955,-0.4106548,0.1038209,-45.70156,16.85664,-31.95317
16.1908288,41.43547,-34.77468,-76.1818299999999,1.007187,-0.3733853,0.124483,-45.70156,16.85664,-31.95317
16.200740337,38.83407,-38.32804,-69.5546400000001,1.002952,-0.3409196,0.1309805,-45.70156,16.85664,-31.95317
16.210652351,34.68422,-41.2989,-62.8047199999998,0.986728,-0.3260455,0.1398725,-45.70156,16.85664,-31.95317
16.220564365,30.96794,-42.52219,-55.74799,0.9804686,-0.3382698,0.1350473,-45.70156,16.85664,-31.95317
16.230475903,29.97693,-43.80373,-49.91851,0.9677925,-0.3545074,0.1196913,-47.06511,11.61585,-31.03013
16.240387917,32.45445,-43.68723,-46.42083,0.9604567,-0.3531364,0.1212088,-47.06511,11.61585,-31.03013
16.252777577,39.14376,-41.99792,-44.82539,0.9510792,-0.3367128,0.1319684,-47.06511,11.61585,-31.03013
16.262689591,46.82408,-41.18239,-47.464,0.9568663,-0.2886368,0.1327153,-47.06511,11.61585,-31.03013
16.272601128,55.68122,-41.82316,-52.67984,0.9671039,-0.252187,0.1247008,-47.06511,11.61585,-31.03013
16.282513142,64.1047999999999,-42.11442,-58.5093200000001,0.99516,-0.1941894,0.1152245,-48.14796,9.000391,-29.34586
16.292424679,73.0238699999999,-43.10471,-64.8910599999999,1.01077,-0.1469437,0.1192362,-48.14796,9.000391,-29.34586
16.302336693,80.1467500000003,-44.96877,-70.4137199999999,1.035926,-0.08798993,0.1141145,-48.14796,9.000391,-29.34586
16.31224823,83.9249700000003,-45.66779,-77.5931799999998,1.026553,-0.01571477,0.1430121,-48.14796,9.000391,-29.34586
16.322160244,86.5263700000002,-47.59011,-89.2521300000002,1.076544,0.02716158,0.15676,-48.14796,9.000391,-29.34586
16.332072258,86.7741199999999,-44.561,-95.0816,1.12212,0.08899975,0.1913218,-49.58545,4.886781,-27.59077
16.341984272,85.16373,-43.62897,-102.8133,1.122868,0.1106042,0.2418754,-49.58545,4.886781,-27.59077
16.351895809,78.4124799999998,-44.328,-109.3178,1.099923,0.1378918,0.2297853,-49.58545,4.886781,-27.59077
16.361807346,64.1047999999999,-41.82316,-111.2814,1.142364,0.2695661,0.0881432,-49.58545,4.886781,-27.59077
16.37171936,44.09881,-55.74538,-115.0859,0.9595013,0.468966,0.0849207,-49.58545,4.886781,-27.59077
16.381631374,7.617294,-69.5511000000001,-113.3064,0.9792231,0.5317262,0.07891436,-50.63196,-0.284754,-24.99919
16.391543388,-35.55353,-78.3471500000003,-99.3156500000002,1.066845,0.5392149,0.09688006,-50.63196,-0.284754,-24.99919
16.401454926,-97.9251500000003,-75.5510600000002,-72.99096,1.159413,0.4592457,0.1607928,-50.63196,-0.284754,-24.99919
16.411366463,-166.6764,-57.5511900000003,-38.56637,1.27764,0.2928965,0.2416585,-50.63196,-0.284754,-24.99919
16.421278477,-216.3507,-26.5029,-5.307677,1.364416,0.002170249,0.1616137,-50.63196,-0.284754,-24.99919
16.431190491,-228.7383,7.34149200000003,16.90569,1.285349,-0.2206887,0.01057071,-51.67281,-5.893317,-22.40626
16.441102505,-208.7943,29.30248,27.03057,1.095532,-0.5565094,-0.1531648,-51.67281,-5.893317,-22.40626
16.451013565,-155.4656,38.50629,28.56465,0.9346255,-0.8209569,-0.1798472,-51.67281,-5.893317,-22.40626
16.460925579,-88.3247499999999,39.20531,22.55108,0.8994514,-0.9035546,-0.0350644,-51.67281,-5.893317,-22.40626
16.470837593,-27.43964,40.25385,18.3784,0.8807694,-0.7587224,0.0769898,-51.67281,-5.893317,-22.40626
16.480749607,16.16475,42.75869,16.53752,0.948589,-0.5123593,0.1125753,-52.05513,-5.522411,-23.30489
16.490661621,42.61229,41.59365,17.33524,0.9604706,-0.3319141,0.09974291,-52.05513,-5.522411,-23.30489
16.500572682,52.46045,35.94321,20.40338,0.9194021,-0.2285414,0.03070829,-52.05513,-5.522411,-23.30489
16.510484696,53.88502,28.89472,23.96243,0.9864976,-0.09913187,-0.04587542,-52.05513,-5.522411,-23.30489
16.52039671,49.05385,23.8268,25.86468,1.015879,-0.05192156,-0.08184449,-52.05513,-5.522411,-23.30489
16.532786846,38.21469,20.85595,27.21466,1.027318,-0.01803043,-0.1186967,-50.97227,-2.906951,-24.98917
16.542697907,26.13677,17.82685,28.07374,0.9989132,0.006469189,-0.09426286,-50.97227,-2.906951,-24.98917
16.55260992,11.89102,11.76864,29.17828,0.9591968,0.02250103,-0.08610622,-50.97227,-2.906951,-24.98917
16.562521934,-1.425662,3.089098,29.66918,0.9202145,0.01964222,-0.07616158,-50.97227,-2.906951,-24.98917
16.572433948,-11.52156,-6.23121499999997,29.17828,0.906594,-0.01682966,-0.06427464,-50.97227,-2.906951,-24.98917
16.582345962,-17.59149,-12.93019,28.13511,0.9230164,-0.06452283,-0.0445776,-51.35598,-2.537615,-26.27327
16.592257023,-19.75933,-17.18258,28.38056,0.9414988,-0.107747,-0.00950478,-51.35598,-2.537615,-26.27327
16.602169037,-18.14894,-19.68742,29.7919,0.965336,-0.146526,0.02842908,-51.35598,-2.537615,-26.27327
16.612081051,-14.06102,-20.32819,32.49187,0.9898495,-0.1732545,0.0510719,-51.35598,-2.537615,-26.27327
16.621993065,-8.92016599999997,-19.39616,35.74411,1.000287,-0.1837695,0.05522674,-51.35598,-2.537615,-26.27327
16.631904125,-4.02706,-18.40588,38.75089,0.991122,-0.1950403,0.05427611,-50.99004,-1.786825,-25.89205
16.641816139,1.113798,-18.46413,41.20541,0.9921216,-0.1881875,0.06439584,-50.99004,-1.786825,-25.89205
16.651728153,5.573338,-17.7651,43.10765,1.00534,-0.1743551,0.0821316,-50.99004,-1.786825,-25.89205
16.661640167,6.93597599999999,-14.15348,44.58036,1.04542,-0.1328848,0.1290927,-50.99004,-1.786825,-25.89205
16.671552181,8.23667399999998,-10.19235,47.52578,1.060297,-0.1564957,0.1215955,-51.76144,0.4677454,-24.16048
16.681463718,6.81209899999999,-6.58072700000001,48.38486,1.063864,-0.1185772,0.1323786,-51.76144,0.4677454,-24.16048
16.691375256,2.724188,-1.163295,50.04166,1.070139,-0.1097593,0.1347801,-51.76144,0.4677454,-24.16048
16.70128727,-0.992095199999997,2.972594,52.31209,1.073875,-0.1524805,0.1152546,-51.76144,0.4677454,-24.16048
16.711199284,-4.212874,4.778405,55.80978,1.074997,-0.1753198,0.1026079,-51.76144,0.4677454,-24.16048
16.721111298,-6.38070599999998,6.29295599999999,59.6756400000001,1.07195,-0.2195575,0.08745649,-51.78164,1.901864,-24.61461
16.731022835,-8.053034,7.28324000000001,63.7869599999999,1.060867,-0.25376,0.06332322,-51.78164,1.901864,-24.61461
16.740934849,-8.300786,7.28324000000001,67.9596400000001,1.049902,-0.2859495,0.05312686,-51.78164,1.901864,-24.61461
16.750846386,-8.548538,7.34149200000003,71.8255000000002,1.034985,-0.3113801,0.04685334,-51.78164,1.901864,-24.61461
16.7607584,-8.85822799999998,7.39974399999998,74.7709200000001,1.01312,-0.3286568,0.04021823,-51.78164,1.901864,-24.61461
16.770669937,-8.92016599999997,7.34149200000003,77.1027100000002,1.009684,-0.3262677,0.04170641,-51.07031,4.900517,-24.17802
16.780581951,-10.77831,9.61331700000002,79.3731399999999,0.9963298,-0.3357803,0.01583799,-51.07031,4.900517,-24.17802
16.790493965,-8.42466199999997,7.92401099999998,82.8094599999998,0.9980025,-0.3493134,0.02005378,-51.07031,4.900517,-24.17802
16.800405979,-8.053034,6.351208,84.7117100000003,0.9856108,-0.3368708,0.01833065,-51.07031,4.900517,-24.17802
16.812795639,-8.79629,4.60365,86.73669,0.9839947,-0.3301376,0.01166824,-51.07031,4.900517,-24.17802
16.822707176,-10.03505,2.739586,88.51621,0.9822552,-0.343708,0.01687566,-50.74753,8.643103,-25.02669
16.83261919,-11.39769,1.166783,90.2957399999997,0.9818986,-0.3490112,0.02356584,-50.74753,8.643103,-25.02669
16.842530727,-11.89319,0.351256,91.5229899999997,0.9777584,-0.3650283,0.03021964,-50.74753,8.643103,-25.02669
16.852442741,-13.31777,-0.930287099999998,92.75025,0.977111,-0.3848686,0.03921646,-50.74753,8.643103,-25.02669
16.862354755,-14.61847,-2.328334,94.28432,0.9696881,-0.3840308,0.03160815,-50.74753,8.643103,-25.02669
16.872266293,-14.74234,-3.260366,95.2661300000003,0.9787295,-0.4008689,0.03525363,-50.04266,12.01452,-25.04097
16.882178307,-14.43265,-2.736098,95.8183999999997,1.006389,-0.413552,0.04739744,-50.04266,12.01452,-25.04097
16.892090321,-14.37072,-1.046791,97.1683800000001,1.010191,-0.4333121,0.06115523,-50.04266,12.01452,-25.04097
16.902001858,-14.24684,0.642515800000001,98.7638200000002,0.9832669,-0.4612217,0.07322225,-50.04266,12.01452,-25.04097
16.911913395,-12.76033,1.458043,100.1138,0.9662146,-0.4877455,0.04823503,-50.04266,12.01452,-25.04097
16.921825409,-10.71637,1.225035,101.0342,0.9414206,-0.4731097,0.03175629,-49.36065,17.26048,-24.67554
16.931737423,-9.22985600000001,-0.755531299999998,101.5251,0.9153894,-0.4739826,0.0195071,-49.36065,17.26048,-24.67554
16.941649437,-8.176909,-2.619594,99.6228899999998,0.8962145,-0.4601299,0.02553862,-49.36065,17.26048,-24.67554
16.951561451,-9.16791799999997,-4.192397,96.6161100000001,0.9035122,-0.4434717,0.04142733,-49.36065,17.26048,-24.67554
16.961472511,-11.64544,-4.075893,93.6706900000002,0.9278658,-0.4605274,0.05981465,-49.36065,17.26048,-24.67554
16.971384525,-13.87521,-1.804067,91.5843599999998,0.9394904,-0.4836043,0.06963673,-47.99525,22.50337,-25.08463
16.981296539,-13.93715,1.924059,89.80483,0.9339224,-0.5127902,0.0646922,-47.99525,22.50337,-25.08463
16.991208553,-12.57451,4.428894,87.0434999999998,0.9126466,-0.5285453,0.06958559,-47.99525,22.50337,-25.08463
17.001120567,-11.02606,5.535681,83.7299,0.8830138,-0.5458911,0.06830361,-47.99525,22.50337,-25.08463
17.011031628,-7.43365200000003,5.593933,80.2935800000001,0.8651642,-0.5664796,0.06785136,-47.99525,22.50337,-25.08463
17.020943642,-3.779308,5.477429,77.2254299999997,0.8432735,-0.585721,0.05640183,-45.42014,26.1905,-24.27442
17.030855656,1.05186,6.23470400000003,73.4823,0.8170405,-0.5962065,0.06089601,-45.42014,26.1905,-24.27442
17.04076767,4.953958,7.34149200000003,69.4323499999997,0.8111528,-0.5899491,0.06627388,-45.42014,26.1905,-24.27442
17.050679684,7.24566599999997,9.03079800000001,65.6892099999997,0.8047146,-0.5661687,0.08617834,-45.42014,26.1905,-24.27442
17.060590744,7.18372799999999,10.6036,61.5165300000002,0.7952284,-0.5546797,0.0805807,-45.42014,26.1905,-24.27442
17.070502758,5.325586,12.23466,57.5279400000002,0.7940806,-0.5420974,0.07875451,-43.59895,29.93477,-24.7454
17.080414772,6.44047100000002,11.76864,54.76661,0.8133525,-0.5346845,0.05941934,-43.59895,29.93477,-24.7454
17.092804909,4.768144,11.12787,51.33028,0.7957266,-0.5256488,0.06780524,-43.59895,29.93477,-24.7454
17.102715969,2.538374,11.30262,47.58715,0.7707145,-0.5303904,0.05504069,-43.59895,29.93477,-24.7454
17.112627983,0.927984400000002,10.83661,43.16902,0.751875,-0.5524607,0.05170678,-43.59895,29.93477,-24.7454
17.122539997,0.804108299999999,9.90457699999998,39.0577,0.7270267,-0.5663854,0.04416129,-42.12915,31.80447,-25.59414
17.132452011,1.237675,8.564782,35.31457,0.7150171,-0.5805733,0.04849926,-42.12915,31.80447,-25.59414
17.142364025,2.35256,7.574499,32.06233,0.7169801,-0.5820085,0.04751123,-42.12915,31.80447,-25.59414
17.152275085,3.467444,6.40946000000002,28.62601,0.7234752,-0.588686,0.05316858,-42.12915,31.80447,-25.59414
17.162187099,4.148763,6.351208,25.12832,0.7244533,-0.5862346,0.0560568,-42.12915,31.80447,-25.59414
17.172099114,4.086825,6.64246800000002,21.26246,0.7156925,-0.583397,0.06335911,-39.91431,34.05039,-26.06245
17.182011128,4.148763,6.584216,16.84433,0.7038831,-0.5791923,0.06109554,-39.91431,34.05039,-26.06245
17.191923142,3.962949,5.94344499999998,12.48757,0.6852747,-0.5809029,0.05645466,-39.91431,34.05039,-26.06245
17.201834202,3.962949,4.487145,8.06943700000002,0.6798927,-0.5785331,0.05892101,-39.91431,34.05039,-26.06245
17.211746216,3.653259,3.14735,3.896759,0.6892208,-0.5813239,0.05929631,-39.91431,34.05039,-26.06245
17.22165823,3.901011,2.390074,0.1536215,0.6967261,-0.5923626,0.06299462,-38.79776,34.4235,-26.45491
17.231570244,3.653259,1.807555,-3.528153,0.7104872,-0.5945936,0.06717392,-38.79776,34.4235,-26.45491
17.241481781,3.28163,1.341539,-6.71902399999997,0.7148755,-0.5935693,0.06714016,-38.79776,34.4235,-26.45491
17.251393318,2.724188,0.9920276,-10.33944,0.7101266,-0.6003866,0.07290056,-38.79776,34.4235,-26.45491
17.261305332,2.476436,0.293004,-13.95985,0.7124961,-0.5916148,0.07581805,-38.79776,34.4235,-26.45491
17.271217346,2.166745,-0.2895156,-17.39617,0.7114726,-0.5853093,0.07875046,-38.81231,35.54729,-26.45837
17.28112936,1.175737,-0.930287099999998,-20.83249,0.7173139,-0.5769567,0.08595446,-38.81231,35.54729,-26.45837
17.291040897,0.3705419,-1.804067,-24.08473,0.720126,-0.5696662,0.08261591,-38.81231,35.54729,-26.45837
17.300952911,-0.06302445,-2.619594,-27.2756,0.7122426,-0.562966,0.08465409,-38.81231,35.54729,-26.45837
17.310864449,-0.06302445,-3.318618,-29.97557,0.7190235,-0.5604749,0.08124686,-38.81231,35.54729,-26.45837
17.320776463,0.1227897,-3.551625,-32.7369,0.7282305,-0.5560117,0.0783105,-38.78967,33.67248,-26.90231
17.330688477,0.742170199999999,-3.726381,-35.06869,0.7394958,-0.5514707,0.08543894,-38.78967,33.67248,-26.90231
17.340600014,1.485427,-3.842885,-37.58457,0.7466438,-0.5387928,0.08209619,-38.78967,33.67248,-26.90231
17.350512028,1.547365,-3.551625,-40.3459,0.7608476,-0.5317736,0.09257507,-38.78967,33.67248,-26.90231
17.360424042,0.927984400000002,-2.677846,-43.22995,0.7828549,-0.5280812,0.09719773,-38.78967,33.67248,-26.90231
17.370335579,-0.1249625,-1.279799,-46.35946,0.8023609,-0.5200588,0.1013922,-40.28025,33.2996,-26.44366
17.382725716,-1.983104,0.0599961999999999,-50.5935,0.8150828,-0.5101388,0.1138247,-40.28025,33.2996,-26.44366
17.392637253,-3.779308,0.933775699999999,-54.21392,0.8077925,-0.5014271,0.128355,-40.28025,33.2996,-26.44366
17.40254879,-4.832254,0.759019800000003,-57.46615,0.8096083,-0.5000122,0.1163436,-40.28025,33.2996,-26.44366
17.412460804,-5.451635,0.9920276,-60.5956600000002,0.8193638,-0.5013654,0.1124031,-40.28025,33.2996,-26.44366
17.422372818,-5.327759,1.225035,-63.1729000000002,0.833527,-0.5070502,0.1040716,-41.75304,31.4265,-26.43011
17.432284832,-4.522564,1.982311,-65.3819599999999,0.8487745,-0.5199845,0.09760235,-41.75304,31.4265,-26.43011
17.442196369,-3.097989,2.972594,-67.22285,0.8605291,-0.5344615,0.08251229,-41.75304,31.4265,-26.43011
17.452108383,-0.9301572,4.370642,-68.8796499999999,0.8777797,-0.5492979,0.07841264,-41.75304,31.4265,-26.43011
17.46201992,1.671241,5.419177,-69.8614499999999,0.8862636,-0.5661777,0.07534078,-41.75304,31.4265,-26.43011
17.471931934,3.777135,7.28324000000001,-71.1500699999999,0.8957318,-0.5679199,0.09060666,-42.84533,29.18041,-26.03188
17.481843472,4.520391,8.33177500000003,-71.9477899999999,0.8932483,-0.5518732,0.1056214,-42.84533,29.18041,-26.03188
17.491755486,3.901011,9.78807399999997,-73.0523199999998,0.8891729,-0.5290805,0.1163745,-42.84533,29.18041,-26.03188
17.5016675,3.157754,9.55506599999997,-74.4023099999999,0.8910781,-0.514936,0.1279749,-42.84533,29.18041,-26.03188
17.511579037,1.175737,10.54535,-75.9363799999999,0.8989734,-0.504805,0.09915985,-42.84533,29.18041,-26.03188
17.521491051,0.927984400000002,10.02108,-76.4272799999999,0.9090263,-0.503325,0.0798704,-44.69537,27.30388,-26.85156
17.531402588,1.361551,9.78807399999997,-76.2431900000003,0.9320907,-0.5161647,0.07284935,-44.69537,27.30388,-26.85156
17.541314602,2.910002,9.84632599999999,-75.1386599999999,0.9407777,-0.5214798,0.05544791,-44.69537,27.30388,-26.85156
17.551226616,4.458453,10.95311,-73.4205000000002,0.9373632,-0.5283477,0.04823136,-44.69537,27.30388,-26.85156
17.56113863,7.12178899999997,11.53563,-71.5796100000001,0.9221096,-0.5173678,0.05180668,-44.69537,27.30388,-26.85156
17.571050167,9.90900100000002,12.52592,-70.3523600000001,0.8961005,-0.5089609,0.05258339,-45.40024,23.93247,-26.83728
17.580961704,12.63428,11.9434,-69.6159999999999,0.886085,-0.4833526,0.05956883,-45.40024,23.93247,-26.83728
17.590873718,14.55436,10.77836,-69.2478299999997,0.8887803,-0.4658789,0.05677937,-45.40024,23.93247,-26.83728
17.600785732,16.22668,8.97254599999999,-68.8796499999999,0.9085019,-0.4423828,0.05243208,-45.40024,23.93247,-26.83728
17.610697746,17.52738,7.224988,-68.2660099999998,0.9414805,-0.4235707,0.04793099,-45.40024,23.93247,-26.83728
17.62060976,17.96095,5.710437,-66.7319399999997,0.9688818,-0.4207786,0.05297792,-46.48018,20.62345,-26.82125
17.630520821,18.08482,4.370642,-64.7683300000001,0.9652283,-0.4067953,0.04686281,-46.48018,20.62345,-26.82125
17.640432835,18.64227,3.030846,-64.2774300000001,0.9518824,-0.3884989,0.05431049,-46.48018,20.62345,-26.82125
17.652822971,19.81909,1.399791,-63.5410699999998,0.9165136,-0.3734151,0.05617855,-46.48018,20.62345,-26.82125
17.662734508,20.87204,-0.05650773,-62.8047199999998,0.9095774,-0.36867,0.05291321,-47.56876,17.62137,-28.09107
17.672646522,22.79212,-2.677846,-61.3320100000002,0.9167029,-0.3516137,0.05248078,-47.56876,17.62137,-28.09107
17.68255806,25.26964,-5.648696,-60.1047600000002,0.9321977,-0.3451553,0.04517813,-47.56876,17.62137,-28.09107
17.692470074,28.67623,-9.49332599999999,-59.1229499999999,0.9437226,-0.3412153,0.02925258,-47.56876,17.62137,-28.09107
17.702382088,30.78213,-14.03698,-58.6320499999999,0.9487662,-0.3140052,0.02842689,-47.56876,17.62137,-28.09107
17.712294102,30.59631,-16.48356,-56.79116,0.9598113,-0.2856762,0.0419579,-48.95977,14.24989,-28.07323
17.722205639,29.91499,-19.1049,-55.44117,0.9396099,-0.2879587,0.02436366,-48.95977,14.24989,-28.07323
17.732117176,30.28662,-23.00778,-53.53892,0.9346527,-0.2826892,0.02396446,-48.95977,14.24989,-28.07323
17.74202919,29.66724,-27.37668,-53.66165,0.9296528,-0.2754908,0.02165787,-48.95977,14.24989,-28.07323
17.751941204,29.85305,-31.80383,-55.31845,0.9181975,-0.2698868,0.007876553,-48.95977,14.24989,-28.07323
17.761853218,31.71119,-35.12419,-56.36162,0.9107056,-0.271524,-0.009350764,-50.03891,10.87845,-28.057
17.771765232,34.74616,-39.9591,-59.0615799999999,0.9129829,-0.2632878,-0.01603917,-50.03891,10.87845,-28.057
17.781676292,38.77214,-44.79401,-61.20929,0.9309186,-0.2548497,-0.02143057,-50.03891,10.87845,-28.057
17.791588306,42.67423,-48.63864,-61.8842800000002,0.9368659,-0.2140074,-0.01353095,-50.03891,10.87845,-28.057
17.80150032,45.27563,-51.49299,-65.0751500000001,0.9355494,-0.1868787,-0.01477852,-50.03891,10.87845,-28.057
17.811412334,46.70021,-57.7842000000002,-72.8068699999998,0.9635105,-0.1640436,0.02064673,-51.11669,7.888653,-26.30733
17.821324348,46.76214,-59.6482599999998,-73.1136899999998,1.022433,-0.115872,0.005537815,-51.11669,7.888653,-26.30733
17.831235409,45.15175,-63.08513,-75.0773000000001,1.049998,-0.07177987,0.02718375,-51.11669,7.888653,-26.30733
17.841147423,41.8071,-67.74529,-78.1454499999999,1.081184,-0.006326096,0.0455774,-51.11669,7.888653,-26.30733
17.851059437,31.58732,-77.2986099999998,-78.75907,1.05231,0.1308427,0.01314718,-51.11669,7.888653,-26.30733
17.860971451,3.343568,-82.54129,-68.02057,1.153581,0.2350662,0.1401469,-52.1901,4.903826,-23.33701
17.870883465,-37.53555,-77.0656100000002,-47.64808,1.337935,0.2478842,0.2989002,-52.1901,4.903826,-23.33701
17.880794525,-91.2358399999998,-57.8424499999998,-20.58704,1.515006,0.1316253,0.4544601,-52.1901,4.903826,-23.33701
17.890706539,-139.9191,-27.43493,8.00807399999998,1.50879,-0.06007051,0.4345144,-52.1901,4.903826,-23.33701
17.900618553,-168.4726,3.904626,25.25105,1.335312,-0.1775613,0.2600783,-52.1901,4.903826,-23.33701
17.910530567,-166.9861,20.73944,27.46012,1.104126,-0.2955402,0.03671627,-53.23362,-0.2643105,-19.91024
17.920441627,-134.5925,21.67147,20.64883,0.9107175,-0.5288307,-0.2617076,-53.23362,-0.2643105,-19.91024
17.930353641,-73.8312499999998,15.61327,8.98988099999998,0.8707877,-0.7333803,-0.3419272,-53.23362,-0.2643105,-19.91024
17.942743778,0.3705419,16.13754,-5.307677,0.864962,-0.6607401,-0.1574888,-53.23362,-0.2643105,-19.91024
17.952655792,33.07383,18.05985,-11.07579,0.9226876,-0.4924461,-0.00565162,-53.23362,-0.2643105,-19.91024
17.962567806,44.65625,17.76859,-8.68263700000001,0.9620043,-0.2808897,0.1183147,-52.51637,1.91749,-20.75604
17.972478867,37.96694,19.69091,-0.3372818,1.053248,-0.048155,0.1809617,-52.51637,1.91749,-20.75604
17.982390881,15.79312,28.54521,11.68985,1.105441,0.009259821,0.1880639,-52.51637,1.91749,-20.75604
17.992302895,-11.52156,43.16645,22.73517,1.119513,0.01328369,0.1821987,-52.51637,1.91749,-20.75604
18.002214909,-36.1729,58.2537100000002,31.87824,1.100074,-0.07055349,0.1434073,-52.51637,1.91749,-20.75604
18.012126923,-53.32975,68.8555600000002,40.46905,1.074499,-0.1806968,0.09537434,-52.89362,1.914062,-21.58928
18.022037983,-64.4786000000002,78.7583900000002,48.56895,1.084155,-0.2745363,0.02119567,-52.89362,1.914062,-21.58928
18.031949997,-60.9481299999999,77.88461,56.30068,1.093364,-0.3729812,0.08863713,-52.89362,1.914062,-21.58928
18.041862011,-54.63045,79.1079100000001,60.2279100000001,1.113171,-0.4133345,0.1131534,-52.89362,1.914062,-21.58928
18.051774025,-49.61346,81.6127400000002,62.8051500000002,1.152207,-0.3360618,0.1478785,-52.89362,1.914062,-21.58928
18.061686039,-44.47261,82.6612800000001,67.16192,1.177128,-0.3030748,0.18484,-51.80589,3.774841,-24.62038
18.071597099,-47.01207,84.9331099999999,70.2300600000001,1.162351,-0.2323438,0.2094558,-51.80589,3.774841,-24.62038
18.081509113,-54.32076,85.8068799999999,73.23685,1.124094,-0.1784968,0.2135294,-51.80589,3.774841,-24.62038
18.091421127,-65.65543,86.8554199999998,75.7527200000001,1.080022,-0.1600574,0.2289448,-51.80589,3.774841,-24.62038
18.101333141,-76.4326400000001,87.6709400000002,79.5572300000001,1.050154,-0.1721597,0.2108943,-51.80589,3.774841,-24.62038
18.111245155,-84.6704000000002,87.5544399999998,84.1594499999999,1.026863,-0.2084583,0.1858997,-50.36628,7.130633,-28.49323
18.121156693,-89.6873900000002,88.0204499999998,89.1298399999998,1.021443,-0.2492741,0.1818366,-50.36628,7.130633,-28.49323
18.13106823,-92.9701,88.6612299999999,92.25935,1.022195,-0.306444,0.188171,-50.36628,7.130633,-28.49323
18.140980244,-93.4656100000002,90.0592699999998,95.3888499999998,1.02406,-0.3471943,0.1792395,-50.36628,7.130633,-28.49323
18.150892258,-92.4746000000001,90.93305,98.27291,1.025677,-0.3651465,0.1728628,-50.36628,7.130633,-28.49323
18.160804272,-90.2448299999998,91.45732,99.7456200000002,0.9980775,-0.4009641,0.1575144,-48.19919,12.36312,-31.47631
18.170715809,-86.3427400000001,89.4185,101.0956,0.9631656,-0.4266182,0.1562259,-48.19919,12.36312,-31.47631
18.180627823,-81.63544,87.2631800000003,101.2797,0.9439682,-0.4666752,0.1446128,-48.19919,12.36312,-31.47631
18.19053936,-75.2558200000001,83.18555,103.5501,0.9360635,-0.4690062,0.1816425,-48.19919,12.36312,-31.47631
18.200451374,-71.9111600000003,79.8651799999997,104.6547,0.9414539,-0.4625913,0.1902783,-48.19919,12.36312,-31.47631
18.210363388,-70.1769000000001,77.9428699999998,106.2501,0.9351738,-0.4582408,0.2028494,-43.85239,17.97195,-34.08644
18.222752571,-68.1329400000003,75.9623000000001,106.2501,0.8782791,-0.4453838,0.2010605,-43.85239,17.97195,-34.08644
18.232664585,-67.4516299999999,72.3506799999999,106.066,0.8903899,-0.488456,0.1872171,-43.85239,17.97195,-34.08644
18.242576599,-65.40767,69.9041000000001,107.2319,0.8979562,-0.5087313,0.1860517,-43.85239,17.97195,-34.08644
18.252488613,-62.0630100000002,66.75849,109.1955,0.8761764,-0.5215734,0.1928898,-43.85239,17.97195,-34.08644
18.262400627,-59.33774,63.6711300000002,110.7909,0.8601823,-0.5143848,0.2151729,-39.45237,24.64737,-35.41526
18.272312164,-57.23185,61.3410599999998,111.2819,0.8336573,-0.5099005,0.2087259,-39.45237,24.64737,-35.41526
18.282223702,-55.80727,59.3022399999999,109.2569,0.7954234,-0.5079884,0.2018899,-39.45237,24.64737,-35.41526
18.292135716,-54.38269,58.89448,104.1637,0.7579812,-0.5161566,0.2127452,-39.45237,24.64737,-35.41526
18.30204773,-47.56951,56.04013,102.1388,0.7764563,-0.5640233,0.1940094,-39.45237,24.64737,-35.41526
18.311959744,-40.38469,52.079,102.0161,0.7794104,-0.582752,0.2217065,-35.77742,29.51218,-36.73462
18.321871281,-34.00507,50.91396,99.5001700000002,0.7761649,-0.5748977,0.2481976,-35.77742,29.51218,-36.73462
18.331783295,-29.9791,49.28291,95.6956699999999,0.7586864,-0.5687121,0.2676067,-35.77742,29.51218,-36.73462
18.341694832,-26.75833,47.88486,89.4980200000003,0.732818,-0.5675489,0.2736156,-35.77742,29.51218,-36.73462
18.351606846,-22.85623,45.14701,83.6685400000002,0.7096643,-0.5674388,0.2570249,-35.77742,29.51218,-36.73462
18.36151886,-17.65343,43.04995,77.5936100000002,0.6834855,-0.549364,0.2525859,-30.61699,35.50429,-37.23004
18.371430874,-11.70738,40.3121,71.3345899999999,0.6573145,-0.5434803,0.2346211,-30.61699,35.50429,-37.23004
18.381342411,-5.575511,38.56454,65.3823900000003,0.6558399,-0.5444784,0.2327075,-30.61699,35.50429,-37.23004
18.391254425,0.494418,38.56454,59.0006499999999,0.6412724,-0.5529019,0.2327861,-30.61699,35.50429,-37.23004
18.401165962,5.635276,38.09853,52.49618,0.6255262,-0.5453447,0.2320217,-30.61699,35.50429,-37.23004
18.411077976,9.47543500000001,37.98203,46.48262,0.6137565,-0.5386804,0.2364964,-26.60132,38.50138,-37.26035
18.42098999,11.45745,37.283,41.08268,0.6030306,-0.541238,0.2365785,-26.60132,38.50138,-37.26035
18.430901528,11.95296,35.7102,34.45549,0.5971757,-0.5369145,0.2429036,-26.60132,38.50138,-37.26035
18.440813542,11.95296,34.2539,29.05555,0.5904759,-0.5461928,0.2462648,-26.60132,38.50138,-37.26035
18.450725556,11.51939,32.33158,23.53289,0.5761194,-0.5420721,0.2339409,-26.60132,38.50138,-37.26035
18.460637093,11.89102,29.12773,18.19431,0.5570262,-0.5486647,0.2239903,-22.8922,40.74429,-38.50739
18.470549107,13.0059,24.99184,13.03983,0.5429497,-0.5609835,0.2197169,-22.8922,40.74429,-38.50739
18.480460644,14.18273,20.7977,7.88534800000001,0.5405775,-0.5629276,0.2245275,-22.8922,40.74429,-38.50739
18.490372658,14.74017,16.77831,3.099041,0.5508049,-0.5496496,0.2360452,-22.8922,40.74429,-38.50739
18.502762318,14.55436,12.87543,-3.098613,0.5450742,-0.551603,0.2471288,-21.03035,41.1138,-39.80317
18.512674332,13.25366,9.67157,-8.00764499999998,0.5460488,-0.5472022,0.2519507,-21.03035,41.1138,-39.80317
18.522586346,11.2097,5.652184,-12.73259,0.54354,-0.5467783,0.2462148,-21.03035,41.1138,-39.80317
18.532497883,9.04186800000002,1.458043,-16.96663,0.5484078,-0.5486798,0.2418357,-21.03035,41.1138,-39.80317
18.542409897,6.31659499999999,-3.435122,-21.26203,0.5542479,-0.5530108,0.2340703,-21.03035,41.1138,-39.80317
18.552321434,4.272639,-9.20206600000003,-25.55744,0.5572453,-0.5612336,0.2306267,-20.64476,39.98639,-40.70108
18.562233448,2.290622,-15.02726,-29.4233,0.5723671,-0.5644771,0.2232629,-20.64476,39.98639,-40.70108
18.572145462,0.0608516599999998,-20.03693,-32.55281,0.593894,-0.5627378,0.2264365,-20.64476,39.98639,-40.70108
18.582056999,-2.602484,-23.64855,-35.80504,0.604226,-0.5611125,0.2345144,-20.64476,39.98639,-40.70108
18.591969013,-5.327759,-26.09513,-40.28453,0.5999927,-0.5610806,0.2508792,-20.64476,39.98639,-40.70108
18.601881027,-6.814272,-27.78444,-44.94812,0.6017166,-0.5731236,0.2618267,-21.38682,39.61356,-40.24632
18.611792564,-6.44264400000003,-28.30871,-49.30488,0.6018711,-0.5798724,0.2689826,-21.38682,39.61356,-40.24632
18.621704578,-4.088998,-29.29899,-53.29347,0.5890965,-0.5771369,0.2662381,-21.38682,39.61356,-40.24632
18.631616115,-0.6204669,-31.51257,-57.03661,0.5953463,-0.5756494,0.2575473,-21.38682,39.61356,-40.24632
18.641528129,3.962949,-33.31838,-60.4729299999997,0.61303,-0.5895331,0.2491286,-21.38682,39.61356,-40.24632
18.651440144,8.85605400000001,-35.88146,-63.6638000000002,0.6380498,-0.6023484,0.2420896,-23.61808,38.86942,-38.94744
18.661351681,13.62528,-39.55134,-66.4865,0.6660379,-0.6102311,0.244179,-23.61808,38.86942,-38.94744
18.671263695,17.77513,-43.74548,-68.6955600000002,0.7194604,-0.6197422,0.2450621,-23.61808,38.86942,-38.94744
18.681175232,21.24366,-46.71633,-70.4137199999999,0.7571273,-0.6085301,0.2596734,-23.61808,38.86942,-38.94744
18.691087246,23.84506,-46.71633,-73.3591399999998,0.7741329,-0.5859331,0.2755118,-23.61808,38.86942,-38.94744
18.70099926,25.70321,-45.02702,-77.2249999999999,0.7542959,-0.565835,0.2719879,-26.59114,37.37263,-38.47754
18.710911274,28.61429,-44.61926,-80.9681399999999,0.7266884,-0.54971,0.2689896,-26.59114,37.37263,-38.47754
18.720822811,31.95895,-45.72604,-83.29993,0.7338794,-0.5496929,0.2549986,-26.59114,37.37263,-38.47754
18.730734825,35.86105,-46.59982,-84.7112700000002,0.780225,-0.5525808,0.2411063,-26.59114,37.37263,-38.47754
18.740646362,40.5064,-48.9299,-85.07945,0.8280015,-0.5627862,0.2151481,-26.59114,37.37263,-38.47754
18.750558376,46.01889,-51.55124,-85.5703599999997,0.8355517,-0.553562,0.1992945,-30.61998,35.50089,-38.06522
18.76047039,49.85905,-54.6386,-86.4907999999999,0.8354862,-0.5418887,0.2065752,-30.61998,35.50089,-38.06522
18.770382404,52.27463,-57.3764400000003,-87.04307,0.8310723,-0.5395117,0.2080724,-30.61998,35.50089,-38.06522
18.782771587,54.0089,-60.6967999999998,-85.8771700000001,0.8523751,-0.5352015,0.2400746,-30.61998,35.50089,-38.06522
18.792683601,54.62828,-62.6773700000001,-83.9135599999998,0.8867095,-0.5220343,0.2657734,-30.61998,35.50089,-38.06522
18.802595615,54.69022,-63.2598900000002,-81.52041,0.9416447,-0.5139422,0.291728,-33.54455,30.25815,-37.58379
18.812507153,54.81409,-61.7453400000002,-79.9863399999999,0.9858209,-0.5064735,0.3168176,-33.54455,30.25815,-37.58379
18.822419167,55.68122,-59.5900100000002,-78.75907,0.9903671,-0.4987861,0.2923387,-33.54455,30.25815,-37.58379
18.832331181,57.4154900000001,-57.20168,-78.8204299999998,0.9445022,-0.4893154,0.2654569,-33.54455,30.25815,-37.58379
18.842242718,59.7072000000001,-57.6094399999999,-78.75907,0.9054008,-0.4919967,0.2163443,-33.54455,30.25815,-37.58379
18.852154732,64.2286700000002,-62.8521200000001,-77.8386299999998,0.8564068,-0.4933961,0.1577287,-37.618,27.26628,-36.26825
18.862066746,70.2986000000002,-71.29866,-76.48865,0.8477196,-0.4858904,0.1300098,-37.618,27.26628,-36.26825
18.871978283,75.3155799999999,-77.0073500000003,-74.4023099999999,0.8936581,-0.4538682,0.1173142,-37.618,27.26628,-36.26825
18.881890297,80.8900100000001,-80.2694600000001,-72.1932399999999,0.9637984,-0.4228831,0.1269553,-37.618,27.26628,-36.26825
18.891801834,84.8540400000001,-79.9782000000001,-70.6591699999999,1.035633,-0.3824929,0.1697743,-37.618,27.26628,-36.26825
18.901713848,85.7831099999999,-75.14329,-70.5364499999997,1.083545,-0.3194571,0.2427352,-40.92111,22.46211,-35.40075
18.911625862,81.1377599999998,-68.6773199999999,-70.4137199999999,1.069424,-0.256677,0.3220299,-40.92111,22.46211,-35.40075
18.921537876,72.8999899999999,-64.3084300000002,-71.4568899999999,1.014059,-0.2032811,0.3737945,-40.92111,22.46211,-35.40075
18.931449413,60.2027,-60.05603,-72.8682300000001,0.9731595,-0.1795633,0.3709696,-40.92111,22.46211,-35.40075
18.94136095,52.52238,-63.2016400000001,-72.74551,0.91755,-0.2121484,0.2982828,-40.92111,22.46211,-35.40075
18.951272964,50.72618,-68.0365500000001,-71.2114300000002,0.8590254,-0.2467115,0.2251295,-44.20266,16.47877,-32.79498
18.961184978,56.79611,-73.5704899999998,-70.4750800000003,0.8283356,-0.2936274,0.1338708,-44.20266,16.47877,-32.79498
18.971096992,61.4414600000003,-73.3957300000001,-72.00916,0.8737452,-0.2611444,0.117822,-44.20266,16.47877,-32.79498
18.981009006,69.9889099999997,-69.7258500000001,-73.29778,0.97142,-0.254615,0.113601,-44.20266,16.47877,-32.79498
18.990920544,76.8020899999999,-66.3472399999999,-72.8068699999998,1.03497,-0.2023677,0.1253653,-44.20266,16.47877,-32.79498
19.000832081,77.3595399999998,-64.25018,-72.00916,1.086782,-0.1573378,0.176083,-47.1358,12.36661,-30.64665
19.010744095,69.1837199999999,-61.1045600000002,-70.2909900000001,1.120874,-0.09210148,0.239103,-47.1358,12.36661,-30.64665
19.020656109,55.18572,-62.0948499999999,-66.1796799999999,1.132913,-0.07472301,0.2890439,-47.1358,12.36661,-30.64665
19.030568123,40.81609,-62.2695999999999,-67.1001200000001,1.140031,-0.03400782,0.3631937,-47.1358,12.36661,-30.64665
19.040480137,26.38452,-55.39587,-60.7183799999997,1.141477,-0.09327278,0.2441864,-47.1358,12.36661,-30.64665
19.050391197,20.62428,-51.66774,-59.5524900000001,1.128924,-0.1553,0.1872306,-49.24836,7.505319,-28.50022
19.062781334,22.73018,-49.39592,-57.46615,1.108411,-0.177257,0.1162106,-49.24836,7.505319,-28.50022
19.072693348,32.26864,-48.28913,-57.5275099999998,1.112876,-0.2235099,0.0683255,-49.24836,7.505319,-28.50022
19.082604885,39.57733,-47.06584,-58.6934099999997,1.074046,-0.1270342,0.06644637,-49.24836,7.505319,-28.50022
19.092516899,40.25865,-45.60954,-58.8774900000002,0.9307586,-0.04640944,0.06398723,-49.24836,7.505319,-28.50022
19.102428436,33.87903,-55.33762,-57.8343299999999,0.8154709,0.08217923,-0.01283585,-50.67801,3.020512,-25.90881
19.11234045,18.7042,-65.5899700000003,-60.2274799999998,0.8516601,0.1636112,0.08292345,-50.67801,3.020512,-25.90881
19.122252464,-15.29979,-61.3958199999997,-44.6413,1.178227,0.2369389,0.1615385,-50.67801,3.020512,-25.90881
19.132164478,-53.51556,-44.73576,-15.61665,1.367889,-0.05603991,0.2413802,-50.67801,3.020512,-25.90881
19.142076016,-79.03404,-17.41559,17.45796,1.440232,-0.4065612,0.3526537,-50.67801,3.020512,-25.90881
19.151987553,-88.8821900000001,18.99188,42.30994,1.357811,-0.5811168,0.455487,-52.12302,-0.2780766,-23.32104
19.161899567,-83.3077700000002,47.06933,48.13942,1.132421,-0.5807713,0.3159271,-52.12302,-0.2780766,-23.32104
19.171811581,-55.00208,55.57412,39.48724,0.9138474,-0.5513439,0.06462102,-52.12302,-0.2780766,-23.32104
19.181723595,-14.86622,51.55473,29.42373,0.8515124,-0.5068967,-0.09679987,-52.12302,-0.2780766,-23.32104
19.191635609,27.62328,47.41884,21.87609,0.9301242,-0.4076891,-0.1347985,-52.12302,-0.2780766,-23.32104
19.201546669,55.92897,45.61303,17.08978,0.9461693,-0.2199863,-0.06695438,-53.2361,-1.027357,-23.3129
19.211458683,66.0248700000001,45.43827,18.25568,1.023342,-0.06223712,0.06158508,-53.2361,-1.027357,-23.3129
19.221370697,53.63727,46.37031,22.48972,1.050942,0.08503976,0.1597831,-53.2361,-1.027357,-23.3129
19.231282711,25.95096,47.41884,27.46012,1.065688,0.161113,0.2086495,-53.2361,-1.027357,-23.3129
19.241194725,-7.557528,48.52563,31.75552,1.069267,0.1761112,0.1938314,-53.2361,-1.027357,-23.3129
19.251106739,-37.78329,49.51591,33.84186,1.075122,0.121056,0.128109,-51.03287,1.5221,-25.90224
19.261017799,-58.03704,50.04018,35.56002,1.034907,0.01195905,0.03652403,-51.03287,1.5221,-25.90224
19.270929813,-65.7793000000002,50.21494,36.4191,0.9898599,-0.1193599,-0.02779526,-51.03287,1.5221,-25.90224
19.280841827,-64.0450400000001,48.99165,37.27818,0.9668056,-0.2169897,-0.006145173,-51.03287,1.5221,-25.90224
19.290753841,-53.51556,45.96254,38.44408,0.9661544,-0.332433,-0.01411061,-51.03287,1.5221,-25.90224
19.300665855,-43.17191,39.72958,38.87362,0.9476583,-0.3118855,0.0659036,-50.30163,2.262723,-28.02852
19.310576916,-35.42965,34.95292,38.99634,0.9541375,-0.2858883,0.1082708,-50.30163,2.262723,-28.02852
19.32048893,-31.83724,31.80732,41.02132,0.9652575,-0.2502034,0.1376953,-50.30163,2.262723,-28.02852
19.330400944,-32.27081,29.94325,43.41447,0.9750832,-0.2156708,0.1349536,-50.30163,2.262723,-28.02852
19.342791081,-33.81926,27.49667,45.99171,0.9574718,-0.2044369,0.09965958,-48.84475,4.877953,-29.77898
19.352702618,-35.42965,24.17631,50.34848,0.959039,-0.1904683,0.07813103,-48.84475,4.877953,-29.77898
19.362614155,-38.21686,22.89477,54.15298,0.961836,-0.2117178,0.08756676,-48.84475,4.877953,-29.77898
19.372526169,-47.69339,28.77821,57.65067,0.9498838,-0.2900266,-0.02520142,-48.84475,4.877953,-29.77898
19.382438183,-45.15392,22.95302,62.7437899999998,0.9552813,-0.2567698,0.110855,-48.84475,4.877953,-29.77898
19.392350197,-48.49858,23.65204,64.3392299999999,0.9953076,-0.2706892,0.1353603,-48.20823,8.242568,-31.4633
19.402262211,-50.60447,30.58403,70.0459699999999,1.017399,-0.3464565,0.1504965,-48.20823,8.242568,-31.4633
19.412173748,-50.41866,33.61313,75.5686299999999,1.035773,-0.3870589,0.1303696,-48.20823,8.242568,-31.4633
19.422085285,-47.63145,32.85585,81.21403,0.9721228,-0.3800942,0.1305245,-48.20823,8.242568,-31.4633
19.431997299,-47.81726,26.91415,82.8708299999999,0.9559649,-0.4166449,0.1333113,-48.20823,8.242568,-31.4633
19.441909313,-47.75532,22.13749,85.8162499999998,0.9993367,-0.4629962,0.1599704,-47.51466,12.36135,-31.92959
19.451821327,-47.94114,20.56469,88.3934899999999,1.048649,-0.4889965,0.1699047,-47.51466,12.36135,-31.92959
19.461733341,-46.76431,22.487,92.3207099999998,1.058031,-0.5071208,0.2052289,-47.51466,12.36135,-31.92959
19.471644402,-46.76431,24.99184,95.57294,1.039104,-0.5028952,0.2241582,-47.51466,12.36135,-31.92959
19.481556416,-47.25982,25.92387,98.51836,1.008677,-0.4872352,0.2317463,-47.51466,12.36135,-31.92959
19.49146843,-47.32175,24.64232,101.0342,0.9722496,-0.4761082,0.2211137,-46.07257,16.48019,-32.39978
19.501380444,-48.99408,23.30253,101.2183,0.9131867,-0.466304,0.2903879,-46.07257,16.48019,-32.39978
19.511292458,-45.03005,18.87538,100.8502,0.9652739,-0.5113837,0.1671655,-46.07257,16.48019,-32.39978
19.521204472,-39.45562,13.98221,105.2069,0.9261082,-0.4943379,0.1825262,-46.07257,16.48019,-32.39978
19.531115532,-34.87221,12.11815,106.6796,0.9266424,-0.4816253,0.2018123,-46.07257,16.48019,-32.39978
19.541027546,-30.90817,11.30262,107.1705,0.9169024,-0.47002,0.2192653,-43.14293,21.3486,-32.81582
19.55093956,-27.93515,11.01136,106.066,0.9059323,-0.4517289,0.2199688,-43.14293,21.3486,-32.81582
19.560851574,-25.20987,11.01136,103.9797,0.8876146,-0.4335366,0.2192991,-43.14293,21.3486,-32.81582
19.570763588,-23.10398,11.06962,101.2183,0.8585632,-0.4218082,0.2134039,-43.14293,21.3486,-32.81582
19.580674648,-20.93615,10.89486,97.53656,0.8378818,-0.4182384,0.2035356,-43.14293,21.3486,-32.81582
19.590586662,-18.087,10.89486,92.3820700000001,0.8180366,-0.412291,0.1826318,-41.71159,26.53219,-32.4541
19.600498676,-14.80428,11.59388,86.2457799999997,0.7984127,-0.422814,0.164017,-41.71159,26.53219,-32.4541
19.61041069,-10.03505,11.9434,79.8640399999999,0.7881501,-0.4302568,0.1558996,-41.71159,26.53219,-32.4541
19.62280035,-3.097989,13.3997,70.7209699999998,0.7893443,-0.4467173,0.1576995,-41.71159,26.53219,-32.4541
19.632711887,2.290622,14.62299,63.0506099999999,0.7859582,-0.4477167,0.160125,-41.71159,26.53219,-32.4541
19.642623901,6.19271900000002,15.67152,55.4416,0.7820892,-0.4438411,0.1688294,-38.02235,30.65304,-32.48626
19.652535915,7.92698399999999,16.25404,48.07805,0.7747095,-0.4317614,0.1785813,-38.02235,30.65304,-32.48626
19.662447929,8.11279800000001,16.60355,40.7145,0.7594178,-0.4188501,0.1807294,-38.02235,30.65304,-32.48626
19.672359943,7.05985200000002,16.31229,33.90322,0.746093,-0.4146891,0.173678,-38.02235,30.65304,-32.48626
19.68227148,5.015896,15.61327,26.90785,0.7426974,-0.4264252,0.1625876,-38.02235,30.65304,-32.48626
19.692183018,3.839073,15.20551,20.28065,0.7452392,-0.4448807,0.1504371,-35.81697,33.64841,-32.89263
19.702095032,3.715197,14.62299,13.89891,0.7405532,-0.467275,0.1440892,-35.81697,33.64841,-32.89263
19.712007046,4.644268,13.98221,8.13079899999997,0.7465572,-0.4754232,0.1478207,-35.81697,33.64841,-32.89263
19.72191906,5.635276,12.0599,2.301323,0.7401578,-0.4755251,0.1435578,-35.81697,33.64841,-32.89263
19.731831074,6.44047100000002,9.90457699999998,-3.282701,0.7387326,-0.4740584,0.1493426,-35.81697,33.64841,-32.89263
19.741742611,6.31659499999999,7.224988,-9.48035400000003,0.730405,-0.470268,0.1523258,-35.0876,34.76703,-34.18488
19.751654148,5.94496599999999,3.496862,-14.63484,0.7221331,-0.4727901,0.1533459,-35.0876,34.76703,-34.18488
19.761566162,5.573338,-0.05650773,-19.48251,0.713001,-0.480629,0.1596201,-35.0876,34.76703,-34.18488
19.771478176,5.263648,-3.08561,-23.962,0.7099828,-0.4797341,0.1524516,-35.0876,34.76703,-34.18488
19.78139019,5.635276,-5.590444,-28.07332,0.6919193,-0.4853119,0.1487403,-35.0876,34.76703,-34.18488
19.791301727,6.31659499999999,-7.74576700000002,-32.24599,0.6857181,-0.4999448,0.1467795,-34.33423,34.39249,-34.18762
19.801213264,7.865046,-9.78458600000001,-36.60276,0.6986344,-0.5211433,0.1417173,-34.33423,34.39249,-34.18762
19.811125278,10.52838,-11.99816,-40.03909,0.733061,-0.5396353,0.139355,-34.33423,34.39249,-34.18762
19.821037292,13.62528,-14.09523,-42.80042,0.7674159,-0.5484086,0.1413797,-34.33423,34.39249,-34.18762
19.830949306,16.4125,-15.72629,-45.13221,0.8023701,-0.5532159,0.1587902,-34.33423,34.39249,-34.18762
19.84086132,18.27064,-17.00783,-47.58672,0.8127356,-0.5457196,0.1769903,-35.0682,33.26865,-34.18027
19.850772858,18.08482,-16.89132,-50.5935,0.8086588,-0.5348744,0.2212748,-35.0682,33.26865,-34.18027
19.860684395,16.35056,-15.90104,-53.84574,0.8052346,-0.5256498,0.2319314,-35.0682,33.26865,-34.18027
19.870596409,15.17374,-15.66803,-57.6502400000002,0.79519,-0.5137151,0.2200999,-35.0682,33.26865,-34.18027
19.880508423,14.86405,-16.89132,-60.5342900000001,0.7819133,-0.5144072,0.2120553,-35.0682,33.26865,-34.18027
19.890420437,15.97893,-18.69714,-62.1297300000002,0.7631376,-0.5157171,0.1915735,-36.9201,31.77012,-34.16592
19.902810097,19.19971,-20.73595,-63.47971,0.7766899,-0.5136665,0.1804182,-36.9201,31.77012,-34.16592
19.912721634,22.66824,-21.78449,-63.9092500000002,0.7957441,-0.5231918,0.1676944,-36.9201,31.77012,-34.16592
19.922633648,26.38452,-22.36701,-64.0319699999998,0.8176055,-0.5146974,0.1637075,-36.9201,31.77012,-34.16592
19.932545662,29.66724,-23.00778,-64.21606,0.8429021,-0.502739,0.1649937,-36.9201,31.77012,-34.16592
19.942457199,31.77314,-23.82331,-64.4615199999997,0.8726475,-0.4907004,0.1710409,-38.39128,29.89885,-33.70265
19.952369213,32.76414,-24.34758,-64.9524200000003,0.8950769,-0.4772807,0.180526,-38.39128,29.89885,-33.70265
19.962281227,32.02089,-24.69709,-65.3819599999999,0.9048331,-0.4630238,0.1949355,-38.39128,29.89885,-33.70265
19.972192764,30.28662,-24.23107,-66.1796799999999,0.9107702,-0.4560848,0.2098117,-38.39128,29.89885,-33.70265
19.982104778,27.49941,-23.99806,-66.9160299999999,0.9145689,-0.4482898,0.2079079,-38.39128,29.89885,-33.70265
19.992016792,25.45545,-24.87184,-67.8364799999998,0.9074168,-0.4407302,0.1868974,-40.96121,26.15425,-33.29202
20.001928329,24.40251,-24.58058,-67.5296599999998,0.9138215,-0.4489182,0.1819821,-40.96121,26.15425,-33.29202
20.011840343,24.52638,-23.5903,-66.6092200000001,0.9168514,-0.4615144,0.1765884,-40.96121,26.15425,-33.29202
20.021751881,26.63227,-23.64855,-65.5660500000001,0.9255641,-0.4648649,0.1640014,-40.96121,26.15425,-33.29202
20.031663895,29.79111,-23.4738,-64.5842399999999,0.9423199,-0.4684909,0.1724651,-40.96121,26.15425,-33.29202
20.041575909,32.82608,-22.71652,-63.72516,0.9696481,-0.4525661,0.1857629,-42.79072,23.16074,-32.43788
20.051487923,35.48942,-21.72624,-62.4365500000003,0.9960895,-0.4380697,0.2062617,-42.79072,23.16074,-32.43788
20.06139946,36.97593,-20.50295,-61.8229100000001,1.009547,-0.4136294,0.212062,-42.79072,23.16074,-32.43788
20.071311474,37.84306,-18.93014,-61.2706499999998,1.01829,-0.3989152,0.223603,-42.79072,23.16074,-32.43788
20.081223011,38.15276,-17.47384,-60.41157,1.007348,-0.385,0.2218762,-42.79072,23.16074,-32.43788
20.091135025,38.52438,-17.6486,-58.7547700000001,0.9783009,-0.3649766,0.2261195,-44.61571,19.4755,-32.80227
20.101047039,37.71919,-16.71657,-56.5457,0.9340141,-0.3388442,0.2295841,-44.61571,19.4755,-32.80227
20.110959053,37.71919,-14.32824,-54.27528,0.89763,-0.3594019,0.1860893,-44.61571,19.4755,-32.80227
20.12087059,40.44446,-13.57096,-51.51395,0.8858685,-0.383953,0.1548242,-44.61571,19.4755,-32.80227
20.130782127,45.58532,-13.2797,-47.40263,0.9177721,-0.4049554,0.1419051,-44.61571,19.4755,-32.80227
20.140694141,51.96494,-11.93991,-43.29132,0.9408409,-0.4202317,0.132467,-46.80978,15.73277,-31.94387
20.150606155,59.3975100000002,-11.5904,-39.60954,0.9632917,-0.4238741,0.1240724,-46.80978,15.73277,-31.94387
20.160518169,66.7681299999999,-11.7069,-37.09366,0.9744424,-0.4076853,0.1336803,-46.80978,15.73277,-31.94387
20.170430183,74.2007000000002,-13.57096,-36.23458,0.9689152,-0.3795372,0.152165,-46.80978,15.73277,-31.94387
20.182819843,78.4124799999998,-13.68747,-34.94596,0.9585159,-0.3263238,0.1540561,-46.77584,13.1106,-31.93579
20.192731381,82.0048899999998,-15.78454,-33.65734,0.957364,-0.3088656,0.1575442,-46.77584,13.1106,-31.93579
20.202643395,84.6062899999998,-18.28937,-32.30736,0.9437359,-0.2755941,0.1550109,-46.77584,13.1106,-31.93579
20.212554932,88.63226,-20.5612,-31.93918,0.9145167,-0.2659043,0.1303775,-46.77584,13.1106,-31.93579
20.222466946,96.8700299999999,-26.96891,-33.28917,0.8768035,-0.2732379,0.1157925,-46.77584,13.1106,-31.93579
20.23237896,100.8341,-31.04655,-35.92777,0.9081795,-0.2289095,0.08026592,-47.84851,9.366385,-31.4687
20.242290497,108.2047,-32.38634,-33.7187,0.9289994,-0.2258263,0.06376854,-47.84851,9.366385,-31.4687
20.252202511,113.841,-36.40573,-30.52783,0.9810575,-0.2009165,0.06729431,-47.84851,9.366385,-31.4687
20.262114525,120.0968,-38.32804,-31.50964,0.9815444,-0.1784724,0.09336787,-47.84851,9.366385,-31.4687
20.272026062,124.928,-39.14357,-31.0801,1.02195,-0.1807354,0.1208283,-47.84851,9.366385,-31.4687
20.281938076,128.3345,-41.12414,-29.73012,0.9941877,-0.2178529,0.1357227,-48.18099,6.37299,-30.62235
20.29185009,133.909,-45.31828,-27.15287,0.9875244,-0.1895599,0.09131807,-48.18099,6.37299,-30.62235
20.301761627,124.6183,-48.63864,-29.11649,0.9919972,0.03148206,0.07114217,-48.18099,6.37299,-30.62235
20.311673641,106.904,-59.7065199999997,-26.78469,0.991961,0.2312062,0.1584214,-48.18099,6.37299,-30.62235
20.321585655,70.5463499999999,-66.3472399999999,-22.36657,1.118227,0.3669828,0.2325827,-48.18099,6.37299,-30.62235
20.331497192,18.33258,-62.56086,-7.27128999999997,1.270378,0.4008865,0.3274331,-49.23048,1.198056,-28.86594
20.341409206,-35.86322,-43.27946,14.26709,1.287084,0.2089683,0.3965833,-49.23048,1.198056,-28.86594
20.35132122,-76.6804,-14.44474,35.74411,1.31189,-0.133431,0.4118387,-49.23048,1.198056,-28.86594
20.361232758,-95.3237499999997,21.26371,55.74841,1.313402,-0.4477488,0.3818815,-49.23048,1.198056,-28.86594
20.371144772,-87.1479299999999,53.01103,64.8301299999999,1.204825,-0.7468966,0.3631269,-49.23048,1.198056,-28.86594
20.381056786,-56.6744,73.3409700000003,64.4005899999997,1.054975,-0.866441,0.2969743,-50.62523,-1.417429,-27.18004
20.390968323,-12.14094,77.5351000000003,59.4301900000001,0.9343639,-0.9666452,0.2436445,-50.62523,-1.417429,-27.18004
20.400880337,36.17074,66.46723,56.42341,0.8877992,-0.8146206,0.2201197,-50.62523,-1.417429,-27.18004
20.410792351,74.6962000000001,49.1664,55.01206,0.9132749,-0.5860099,0.2065222,-50.62523,-1.417429,-27.18004
20.420703888,97.7991000000002,33.43837,58.0188400000002,0.9696921,-0.3788935,0.1809715,-50.62523,-1.417429,-27.18004
20.430615902,105.0458,24.58407,64.0324099999999,0.9966809,-0.2438902,0.1576134,-49.92388,1.506504,-29.76276
20.440527916,101.7631,24.99184,69.7391600000001,1.075479,-0.1760448,0.1486938,-49.92388,1.506504,-29.76276
20.450439453,92.5963000000003,31.63256,74.1572900000002,1.069841,-0.1572225,0.1455103,-49.92388,1.506504,-29.76276
20.460351467,80.3325699999999,39.14706,76.5504499999998,1.046004,-0.1367316,0.1338633,-49.92388,1.506504,-29.76276
20.472741127,63.6712300000001,46.19555,75.44592,0.982652,-0.1215678,0.124947,-49.92388,1.506504,-29.76276
20.482652664,46.2047,50.15668,73.4209400000003,0.9742224,-0.07076168,0.1253634,-48.13549,2.623638,-31.44599
20.492564678,27.12778,51.26347,73.4209400000003,0.9727317,-0.06298754,0.1321512,-48.13549,2.623638,-31.44599
20.502476692,7.12178899999997,49.63242,73.6050299999999,0.9721609,-0.05035333,0.1389629,-48.13549,2.623638,-31.44599
20.512388706,-11.89319,47.76836,74.2800099999998,0.9628521,-0.08145057,0.148445,-48.13549,2.623638,-31.44599
20.52230072,-30.04104,45.38002,73.17548,0.9221357,-0.1008039,0.1606966,-48.13549,2.623638,-31.44599
20.532212258,-46.88819,41.88491,71.4573199999997,0.8827683,-0.1516592,0.1722457,-47.41257,4.11502,-33.1891
20.542123795,-60.4526199999997,36.64223,70.7823300000001,0.8590224,-0.1801409,0.1597914,-47.41257,4.11502,-33.1891
20.552035808,-67.6374399999998,30.64228,70.7209699999998,0.8631862,-0.2319076,0.171412,-47.41257,4.11502,-33.1891
20.561947822,-68.1948900000002,25.45785,71.2118699999997,0.8725381,-0.3185797,0.1712282,-47.41257,4.11502,-33.1891
20.571859836,-62.7443299999998,20.73944,73.1141200000002,0.8682907,-0.4112293,0.1730511,-47.41257,4.11502,-33.1891
20.58177185,-55.18789,15.55502,74.1572900000002,0.8734627,-0.4634558,0.1870601,-45.97646,8.227062,-35.32965
20.591683388,-48.00307,11.65214,74.21865,0.8893333,-0.4748506,0.1954802,-45.97646,8.227062,-35.32965
20.601594925,-40.63245,8.79779099999998,73.6663900000002,0.8868414,-0.4675887,0.1993929,-45.97646,8.227062,-35.32965
20.611506939,-35.36771,6.93372799999998,72.7459399999998,0.8846646,-0.4457769,0.2033996,-45.97646,8.227062,-35.32965
20.621418953,-31.58949,5.186169,71.39596,0.8615936,-0.4480626,0.192074,-45.97646,8.227062,-35.32965
20.631330967,-29.29778,1.225035,69.8005199999999,0.8472919,-0.4704943,0.2016599,-44.16497,12.72053,-35.80294
20.641242981,-26.13894,-2.095326,69.4323499999997,0.8540679,-0.4940989,0.2148845,-44.16497,12.72053,-35.80294
20.651154518,-22.79429,-3.609878,69.4937100000001,0.8641613,-0.5060081,0.2315173,-44.16497,12.72053,-35.80294
20.661066055,-20.19289,-3.784633,68.45054,0.872003,-0.4927298,0.248819,-44.16497,12.72053,-35.80294
20.670978069,-18.95413,-3.726381,66.1801099999997,0.8748506,-0.4781037,0.2575329,-44.16497,12.72053,-35.80294
20.680890083,-18.76832,-3.37687,63.17333,0.855553,-0.466754,0.248664,-43.83598,16.47017,-34.917
20.690802097,-17.77731,-4.308901,59.7369999999999,0.8404806,-0.4717774,0.2511707,-43.83598,16.47017,-34.917
20.700713634,-14.61847,-6.81373500000001,59.8597300000003,0.8248887,-0.5002375,0.2232761,-43.83598,16.47017,-34.917
20.710625648,-11.27381,-8.96905800000002,58.63247,0.8074095,-0.5150279,0.2180575,-43.83598,16.47017,-34.917
20.720537186,-7.37171500000001,-9.49332599999999,56.48477,0.785359,-0.5245963,0.2023524,-43.83598,16.47017,-34.917
20.7304492,-3.469617,-10.01759,54.9507,0.7854757,-0.5401453,0.1955256,-42.3842,19.83982,-35.38489
20.740361214,-0.001086392,-10.42536,53.66208,0.7792442,-0.5435745,0.203723,-42.3842,19.83982,-35.38489
20.75275135,2.104807,-8.91080699999998,50.90075,0.7566411,-0.5263529,0.2131698,-42.3842,19.83982,-35.38489
20.762662411,-0.2488386,-5.007925,47.40306,0.7537752,-0.5075783,0.1941151,-42.3842,19.83982,-35.38489
20.772574425,1.237675,-7.862271,45.194,0.7476393,-0.4963236,0.2288182,-42.3842,19.83982,-35.38489
20.782486439,-1.425662,-9.14381400000001,41.51222,0.7655905,-0.4776334,0.2369394,-41.67149,22.84004,-34.56283
20.792398453,-5.141944,-8.03702600000001,38.87362,0.7939339,-0.4714331,0.2424804,-41.67149,22.84004,-34.56283
20.802310467,-9.35373199999999,-6.69723099999998,37.03273,0.8155801,-0.4759731,0.2499325,-41.67149,22.84004,-34.56283
20.812222481,-13.62746,-5.124428,34.94639,0.8388373,-0.4896881,0.2606697,-41.67149,22.84004,-34.56283
20.822133541,-17.2818,-2.79435,33.71913,0.840624,-0.5119423,0.2657867,-41.67149,22.84004,-34.56283
20.832045555,-18.76832,-1.745815,31.08053,0.8143536,-0.523423,0.265473,-40.94828,25.02864,-33.73827
20.841957569,-18.27281,-0.988539100000001,28.50328,0.7984812,-0.5478783,0.2625759,-40.94828,25.02864,-33.73827
20.851869583,-15.73335,-0.2895156,25.80332,0.7796426,-0.5704361,0.2587586,-40.94828,25.02864,-33.73827
20.861781597,-11.76932,0.1182482,23.28744,0.7748292,-0.5821648,0.2524829,-40.94828,25.02864,-33.73827
20.871693611,-7.99109600000001,1.399791,20.15793,0.7679682,-0.5837221,0.2491749,-40.94828,25.02864,-33.73827
20.881604671,-4.584502,2.215319,17.15115,0.7761658,-0.5807509,0.2414363,-40.57864,25.40352,-33.67713
20.891516685,-2.292794,3.43861,14.20573,0.7781284,-0.5846253,0.2375511,-40.57864,25.40352,-33.67713
20.901428699,-1.4876,4.60365,11.75121,0.780018,-0.5753671,0.2419167,-40.57864,25.40352,-33.67713
20.911340713,-2.540546,5.652184,9.66487199999998,0.7762927,-0.5516649,0.2401884,-40.57864,25.40352,-33.67713
20.921252727,-4.33675,6.70071999999997,7.148993,0.7684276,-0.5361747,0.254289,-40.57864,25.40352,-33.67713
20.931164742,-6.194891,7.807507,4.817203,0.7604023,-0.5295485,0.2424034,-39.84328,26.52894,-33.29901
20.941075802,-7.61946700000001,9.03079800000001,2.301323,0.7452587,-0.5331455,0.2396385,-39.84328,26.52894,-33.29901
20.950987816,-7.86721900000001,10.02108,-0.214556,0.7330216,-0.5435495,0.2262379,-39.84328,26.52894,-33.29901
20.96089983,-6.69039600000003,10.66185,-2.791798,0.7320622,-0.5616008,0.2069202,-39.84328,26.52894,-33.29901
20.970811844,-5.141944,10.25409,-5.36904,0.7321224,-0.57035,0.20254,-39.84328,26.52894,-33.29901
20.980723858,-3.903184,9.49681400000001,-7.82355600000003,0.7426499,-0.5664323,0.1847029,-39.10746,27.27479,-34.1404
20.990635872,-4.088998,8.50653100000001,-10.15535,0.7436529,-0.561529,0.1928889,-39.10746,27.27479,-34.1404
21.000546932,-5.203883,8.098766,-12.73259,0.7474472,-0.5512972,0.1934022,-39.10746,27.27479,-34.1404
21.010458946,-6.814272,7.34149200000003,-15.61665,0.7435313,-0.5459825,0.1992357,-39.10746,27.27479,-34.1404
21.02037096,-8.300786,6.52596399999999,-18.19389,0.7362999,-0.5533378,0.200694,-39.10746,27.27479,-34.1404
21.032761097,-9.663423,4.60365,-21.50749,0.7353141,-0.5543298,0.1987759,-39.49141,28.02395,-34.14075
21.042673111,-9.97311299999999,3.380358,-24.39154,0.7303547,-0.5505249,0.1964463,-39.49141,28.02395,-34.14075
21.052584171,-9.663423,2.564831,-27.64378,0.7410831,-0.5465028,0.1982946,-39.49141,28.02395,-34.14075
21.062496185,-8.61047599999998,1.574547,-30.89601,0.7419917,-0.5382338,0.2012222,-39.49141,28.02395,-34.14075
21.072408199,-7.43365200000003,0.5260119,-34.20961,0.7482102,-0.5304211,0.1968953,-39.101,26.90203,-33.68953
21.082320213,-6.87620999999998,-0.2895156,-37.46184,0.7677296,-0.518977,0.2063942,-39.101,26.90203,-33.68953
21.092232227,-6.75233400000001,-0.1147597,-40.28453,0.7813768,-0.507121,0.2159501,-39.101,26.90203,-33.68953
21.102144241,-7.37171500000001,0.5842639,-42.9845,0.7930672,-0.502607,0.2168324,-39.101,26.90203,-33.68953
21.112055779,-8.92016599999997,0.700767799999999,-45.62311,0.8000074,-0.5014964,0.2273391,-39.101,26.90203,-33.68953
21.121967316,-10.71637,1.05028,-48.20035,0.8098479,-0.5091469,0.2243162,-40.21407,26.15275,-33.68138
21.13187933,-12.20288,1.225035,-50.53214,0.8084019,-0.5150081,0.2194889,-40.21407,26.15275,-33.68138
21.141791344,-12.8842,1.225035,-53.23211,0.8134668,-0.5255874,0.2241732,-40.21407,26.15275,-33.68138
21.151703358,-13.25583,1.108532,-55.93208,0.8162651,-0.5295235,0.2063552,-40.21407,26.15275,-33.68138
21.161615372,-13.25583,0.875523700000001,-58.4479599999997,0.8137585,-0.5330009,0.1962719,-40.21407,26.15275,-33.68138
21.171526909,-12.07901,-0.2312636,-59.92067,0.8209594,-0.5383445,0.1769634,-41.31746,24.65427,-33.67093
21.181438446,-10.22087,-1.920571,-60.7183799999997,0.8224109,-0.546139,0.1663346,-41.31746,24.65427,-33.67093
21.19135046,-8.36272300000002,-3.493374,-61.3933800000002,0.8278623,-0.5543264,0.1638288,-41.31746,24.65427,-33.67093
21.201262474,-6.38070599999998,-5.066176,-62.25246,0.8298454,-0.558678,0.1613807,-41.31746,24.65427,-33.67093
21.211174488,-4.150936,-5.299184,-63.23426,0.8244461,-0.5494879,0.1701347,-41.31746,24.65427,-33.67093
21.221086502,-2.602484,-5.415688,-64.0319699999998,0.8077092,-0.5375593,0.1732499,-41.67418,23.53386,-32.83034
21.230998039,-1.921166,-6.52247499999999,-64.5842399999999,0.8042654,-0.5283449,0.181986,-41.67418,23.53386,-32.83034
21.240909576,-1.4876,-8.211782,-64.5842399999999,0.8256071,-0.5218237,0.172709,-41.67418,23.53386,-32.83034
21.25082159,-1.301785,-9.90108999999998,-63.72516,0.866994,-0.5160283,0.1622816,-41.67418,23.53386,-32.83034
21.260733604,-0.806281,-11.18263,-62.0683699999998,0.8951023,-0.5045845,0.1510542,-41.67418,23.53386,-32.83034
21.270645619,-0.2488386,-13.0467,-60.5342900000001,0.9120781,-0.4951736,0.1485591,-43.89006,21.35011,-32.42646
21.280557633,0.1847278,-15.14377,-59.3683999999999,0.9146996,-0.4748116,0.1419483,-43.89006,21.35011,-32.42646
21.29046917,0.3086039,-17.41559,-58.5706799999999,0.9086627,-0.4593634,0.1435475,-43.89006,21.35011,-32.42646
21.300380707,0.5563561,-19.39616,-56.5457,0.8882893,-0.4373451,0.1376406,-43.89006,21.35011,-32.42646
21.312770844,0.43248,-21.66799,-55.13436,0.8607287,-0.4226591,0.1375131,-43.89006,21.35011,-32.42646
21.322682381,0.680232200000002,-22.83302,-55.07299,0.8615065,-0.4125071,0.1298911,-45.34669,18.35505,-31.95973
21.332594395,0.2466658,-24.34758,-54.58209,0.863632,-0.4250772,0.1317083,-45.34669,18.35505,-31.95973
21.342506409,1.980931,-25.62912,-53.84574,0.8767927,-0.433226,0.1180879,-45.34669,18.35505,-31.95973
21.352417946,4.272639,-27.66794,-53.66165,0.9036281,-0.4285289,0.117871,-45.34669,18.35505,-31.95973
21.36232996,5.75915199999997,-29.93976,-53.53892,0.9151012,-0.4070548,0.1174278,-45.34669,18.35505,-31.95973
21.372241974,6.44047100000002,-32.50285,-54.82755,0.9181444,-0.3794046,0.1127822,-46.06637,16.48725,-30.66518
21.382153511,6.93597599999999,-37.0465,-56.17753,0.9122903,-0.3494754,0.101512,-46.06637,16.48725,-30.66518
21.392065525,5.077834,-40.71638,-57.5275099999998,0.9153085,-0.3081796,0.110402,-46.06637,16.48725,-30.66518
21.401977539,2.35256,-42.69694,-59.0615799999999,0.9179465,-0.2780529,0.1168204,-46.06637,16.48725,-30.66518
21.411889553,-1.859228,-43.57072,-60.4729299999997,0.9298724,-0.2502501,0.1202564,-46.06637,16.48725,-30.66518
21.42180109,-5.141944,-44.38625,-62.74336,0.9355896,-0.2409865,0.116424,-47.89427,13.49556,-29.36133
21.431713104,-7.49559099999998,-43.86198,-64.21606,0.9387725,-0.2254587,0.1112163,-47.89427,13.49556,-29.36133
21.441624642,-8.85822799999998,-42.69694,-65.6274099999999,0.9667313,-0.2333566,0.1104249,-47.89427,13.49556,-29.36133
21.451536656,-9.16791799999997,-40.48337,-65.6274099999999,1.011339,-0.2346922,0.1196067,-47.89427,13.49556,-29.36133
21.46144867,-9.663423,-38.15329,-66.4865,1.029539,-0.2339215,0.1309673,-47.89427,13.49556,-29.36133
21.471360684,-10.59249,-36.23098,-67.77512,1.046623,-0.2273812,0.1356544,-48.60749,11.25499,-27.6159
21.481272221,-10.90218,-34.07565,-67.71375,1.063306,-0.2368987,0.130155,-48.60749,11.25499,-27.6159
21.491184235,-9.16791799999997,-33.66789,-66.3637700000002,1.083774,-0.239116,0.1208279,-48.60749,11.25499,-27.6159
21.501095772,-9.35373199999999,-31.16305,-67.22285,1.057248,-0.2126809,0.1399755,-48.60749,11.25499,-27.6159
21.511007786,-9.04404300000003,-28.0757,-69.4319199999999,1.061967,-0.2029524,0.1347149,-48.60749,11.25499,-27.6159
21.5209198,-8.548538,-26.44465,-70.7818999999998,1.067207,-0.1975911,0.1274998,-50.37327,8.643132,-25.02864
21.530831814,-6.93814800000003,-23.7068,-71.5182499999997,1.076274,-0.1834447,0.1222285,-50.37327,8.643132,-25.02864
21.540743351,-5.389697,-20.96896,-71.7023399999999,1.08785,-0.1804539,0.1101374,-50.37327,8.643132,-25.02864
21.550655365,-2.726361,-19.2214,-72.00916,1.095625,-0.1711126,0.1163698,-50.37327,8.643132,-25.02864
21.560566902,-1.177909,-15.95929,-70.7818999999998,1.092992,-0.1644119,0.1058753,-50.37327,8.643132,-25.02864
21.570478916,-0.4346527,-13.10495,-68.9410100000002,1.090587,-0.1619826,0.1126359,-50.69766,4.898717,-24.62968
21.58039093,0.989922399999999,-9.72633399999999,-67.0387599999998,1.08955,-0.1669038,0.1010889,-50.69766,4.898717,-24.62968
21.592781067,3.777135,-7.57101099999998,-64.7069700000003,1.065033,-0.17749,0.08203882,-50.69766,4.898717,-24.62968
21.602692127,6.06884200000002,-5.82345200000001,-63.6638000000002,1.028237,-0.1731357,0.07520576,-50.69766,4.898717,-24.62968
21.612604141,8.979931,-7.33800299999997,-63.0501699999998,0.9602265,-0.1537704,0.04619392,-50.69766,4.898717,-24.62968
21.622516155,4.953958,-11.76515,-61.5160999999998,0.850941,-0.09527332,-0.004262757,-51.7835,2.279858,-23.78059
21.632428169,-3.469617,-20.09518,-56.30025,0.8926214,-0.09250036,-0.03728051,-51.7835,2.279858,-23.78059
21.642340183,-14.43265,-24.58058,-43.90495,1.015551,-0.07476142,0.002514231,-51.7835,2.279858,-23.78059
21.652252197,-34.62445,-21.84274,-27.2756,1.098632,-0.09812424,0.06593144,-51.7835,2.279858,-23.78059
21.662163258,-59.9571199999999,-14.79425,-8.37582199999997,1.147069,-0.1501763,0.1030692,-51.7835,2.279858,-23.78059
21.672075272,-75.1319400000001,-3.37687,8.49897699999999,1.163549,-0.2658842,0.09638406,-52.49243,-0.6527021,-23.31794
21.681987286,-74.0789899999997,9.49681400000001,18.13295,1.108366,-0.3540965,0.04781075,-52.49243,-0.6527021,-23.31794
21.6918993,-59.0899800000001,18.1181,20.40338,1.011121,-0.4399146,0.001082869,-52.49243,-0.6527021,-23.31794
21.701811314,-31.40368,20.97245,18.07159,0.9222215,-0.5021965,-0.01483527,-52.49243,-0.6527021,-23.31794
21.711723328,-0.6204669,19.74916,14.63527,0.8847801,-0.4579297,0.009813811,-52.49243,-0.6527021,-23.31794
21.721634388,23.28762,17.06957,13.22392,0.90621,-0.3377128,0.04690853,-52.48758,-1.027297,-23.31679
21.731546402,36.35655,15.03075,15.2489,0.9289635,-0.240967,0.04254104,-52.48758,-1.027297,-23.31679
21.741458416,40.07283,13.6327,19.29885,0.9805811,-0.1448273,0.03886289,-52.48758,-1.027297,-23.31679
21.75137043,37.34756,13.34144,24.39197,1.003215,-0.09472446,0.01593975,-52.48758,-1.027297,-23.31679
21.761282444,30.96794,14.56473,29.23964,1.027107,-0.05812252,0.004438844,-52.48758,-1.027297,-23.31679
21.771194458,22.85405,17.76859,33.35095,1.036224,-0.03907219,0.009763185,-52.50351,0.09492016,-23.70572
21.781105518,13.68722,21.84623,36.66455,1.035845,-0.04048423,0.01888029,-52.50351,0.09492016,-23.70572
21.791017532,5.5114,24.46757,38.13726,1.028394,-0.06672964,0.02453624,-52.50351,0.09492016,-23.70572
21.800929546,-1.363724,23.8268,37.95317,1.008536,-0.07712614,0.03089269,-52.50351,0.09492016,-23.70572
21.81084156,-6.44264400000003,21.14721,36.60319,0.9888148,-0.1113539,0.02268436,-52.50351,0.09492016,-23.70572
21.820753574,-8.85822799999998,17.18607,34.51685,0.9934683,-0.1321428,0.02298298,-51.75336,-0.2832754,-24.60788
21.830665588,-8.48660000000001,14.56473,31.87824,0.9945387,-0.1713464,0.03375555,-51.75336,-0.2832754,-24.60788
21.840577602,-6.87620999999998,12.58417,29.85327,1.015956,-0.178684,0.06327841,-51.75336,-0.2832754,-24.60788
21.850488663,-5.947139,11.41913,29.11691,1.026588,-0.1749514,0.1030581,-51.75336,-0.2832754,-24.60788
21.860400677,-6.00907800000001,12.58417,30.16008,1.03494,-0.1626316,0.1213089,-51.75336,-0.2832754,-24.60788
21.872790813,-8.92016599999997,16.83656,32.06233,1.030493,-0.1392964,0.144073,-51.41522,2.273091,-25.45289
21.882702827,-13.56552,21.90448,32.92141,1.044512,-0.1172511,0.1541735,-51.41522,2.273091,-25.45289
21.892614841,-18.5825,24.99184,33.96458,1.028805,-0.09723858,0.1242021,-51.41522,2.273091,-25.45289
21.902526379,-23.10398,25.22484,34.88503,1.009733,-0.0782152,0.09857668,-51.41522,2.273091,-25.45289
21.912437916,-26.94414,23.71029,36.72591,1.008335,-0.09185603,0.08937572,-49.93733,3.391768,-26.74903
21.92234993,-33.13794,24.58407,38.68953,1.000644,-0.09627557,0.09709994,-49.93733,3.391768,-26.74903
21.932261944,-35.1819,22.07924,42.49403,0.9938207,-0.1412189,0.1419985,-49.93733,3.391768,-26.74903
21.942173958,-41.80927,21.72972,44.88718,0.9963932,-0.1577072,0.1351427,-49.93733,3.391768,-26.74903
21.952085495,-46.64044,23.30253,48.81441,1.002691,-0.1871659,0.1425707,-49.93733,3.391768,-26.74903
21.961997509,-49.61346,24.70058,52.128,1.027731,-0.2421618,0.1357307,-50.34367,5.635912,-27.58919
21.971909046,-50.79029,25.16659,58.7551999999999,1.04441,-0.2919205,0.1304433,-50.34367,5.635912,-27.58919
21.98182106,-50.4806,25.22484,63.7869599999999,1.017482,-0.3388568,0.1198162,-50.34367,5.635912,-27.58919
