Time (s),Gyroscope X (deg/s),Gyroscope Y (deg/s),Gyroscope Z (deg/s),Accelerometer X (g),Accelerometer Y (g),Accelerometer Z (g),Magnetometer X (uT),Magnetometer Y (uT),Magnetometer Z (uT)
62.928113937,0.693772100000003,1.024139,-0.843015,0.9631144,-0.07242844,-0.221889,-23.06938,12.81479,21.3085
62.938000202,-1.730786,0.612241999999999,-1.148472,0.9529628,-0.0642093,-0.2272322,-23.06938,12.81479,21.3085
62.947886467,-3.906672,0.4357146,-1.51502,0.9486147,-0.05835731,-0.2272668,-23.06938,12.81479,21.3085
62.957772732,-4.093176,-0.917662500000002,-1.51502,0.9602747,-0.06292826,-0.2382916,-23.06938,12.81479,21.3085
62.967659473,-2.787645,-1.388402,-2.309208,0.9714332,-0.06341569,-0.2368337,-22.69311,12.4312,21.32238
62.977546215,-0.984768300000001,-1.035347,-2.248117,0.9801802,-0.06051128,-0.2368384,-22.69311,12.4312,21.32238
62.987432957,0.693772100000003,-0.799977499999998,-1.94266,1.000535,-0.0648334,-0.2300605,-22.69311,12.4312,21.32238
62.997318745,1.377622,-0.2703952,-1.209563,1.000047,-0.06183165,-0.2247861,-22.69311,12.4312,21.32238
63.007205486,1.128949,0.612241999999999,-0.843015,1.001956,-0.0641192,-0.214673,-22.69311,12.4312,21.32238
63.017091751,0.0720904500000002,1.436037,-0.4153753,0.9970621,-0.06833391,-0.204077,-23.06938,12.81479,21.3085
63.026978493,-1.855123,2.083304,-0.1099183,0.9912206,-0.07020546,-0.1997459,-23.06938,12.81479,21.3085
63.036865234,-4.279681,2.612886,0.5009956,0.984409,-0.07456736,-0.1992507,-23.06938,12.81479,21.3085
63.046751022,-6.45556599999999,2.848256,1.050818,0.9839012,-0.0863682,-0.2068864,-23.06938,12.81479,21.3085
63.056637764,-8.63145299999999,3.024784,1.478458,0.9761547,-0.08846605,-0.2179458,-23.06938,12.81479,21.3085
63.066524506,-10.12349,2.789414,1.845006,0.9727633,-0.09198302,-0.2256266,-23.44634,12.82032,21.29992
63.07641077,-10.74517,2.907099,2.333737,0.9669583,-0.09508018,-0.2381215,-23.44634,12.82032,21.29992
63.086297512,-10.37216,2.907099,2.639194,0.9674511,-0.09562561,-0.2419656,-23.44634,12.82032,21.29992
63.098655701,-9.12879799999998,2.495202,2.822469,0.9626694,-0.08761121,-0.2602865,-23.44634,12.82032,21.29992
63.108541966,-8.13410699999998,2.259832,3.066834,0.9622026,-0.08324931,-0.2617519,-23.44634,12.82032,21.29992
63.118428707,-7.01508000000001,2.024462,3.066834,0.9592852,-0.08072252,-0.2559969,-22.30879,12.79658,20.93654
63.128314972,-6.144726,1.377194,3.127926,0.964156,-0.07984452,-0.2617669,-22.30879,12.79658,20.93654
63.138201237,-5.274371,0.847612000000001,2.944651,0.9675841,-0.07307712,-0.2646827,-22.30879,12.79658,20.93654
63.148087978,-5.087867,0.612241999999999,2.394829,0.970486,-0.06903628,-0.2546004,-22.30879,12.79658,20.93654
63.15797472,-4.963531,0.3180296,1.722824,0.9743661,-0.06952371,-0.2541126,-22.30879,12.79658,20.93654
63.167861462,-4.839194,-0.2703952,1.417367,0.978725,-0.07195988,-0.2536145,-22.68701,12.109,20.93769
63.17774725,-4.963531,-0.2703952,0.806452599999999,0.9753439,-0.07355066,-0.2627478,-22.68701,12.109,20.93769
63.187633991,-4.901362,-0.0938677799999998,0.1955387,0.984518,-0.08570659,-0.2602713,-22.68701,12.109,20.93769
63.197520256,-4.466185,-0.2115527,-0.2321011,0.9801356,-0.0920786,-0.2636105,-22.68701,12.109,20.93769
63.207406998,-3.906672,0.1415022,-0.659740900000002,0.9849583,-0.0973655,-0.2582882,-22.68701,12.109,20.93769
63.217293739,-3.409327,0.0826596800000002,-0.843015,0.9854227,-0.1046994,-0.2601743,-22.69367,12.11616,21.3268
63.227179527,-2.663309,0.4945571,-0.781923700000001,0.9843897,-0.1122657,-0.2452287,-22.69367,12.11616,21.3268
63.237066269,-2.041627,0.2003446,-0.843015,0.9877756,-0.1186675,-0.2495208,-22.69367,12.11616,21.3268
63.246953011,-1.482114,0.1415022,-0.4764667,0.9853075,-0.1298481,-0.2485052,-22.69367,12.11616,21.3268
63.256839275,-0.798263799999999,0.612241999999999,-0.2931925,0.9818591,-0.1444498,-0.2484354,-22.69367,12.11616,21.3268
63.266726017,0.3207631,0.906454499999998,0.1344473,0.9784434,-0.1493053,-0.2479338,-23.44828,11.74915,21.31495
63.276612282,1.812799,1.082982,0.6842698,0.9721437,-0.1453757,-0.2465181,-23.44828,11.74915,21.31495
63.286498547,3.304835,1.377194,0.806452599999999,0.9711853,-0.1404756,-0.2446202,-23.44828,11.74915,21.31495
63.296385288,4.548198,1.082982,1.11191,0.9624671,-0.1321155,-0.2403441,-23.44828,11.74915,21.31495
63.308743,5.232048,0.4945571,1.173001,0.9615255,-0.1203549,-0.2355953,-23.44828,11.74915,21.31495
63.318629742,5.356384,0.2591871,1.11191,0.9615174,-0.1153272,-0.2250405,-23.44703,12.44226,21.30522
63.328516483,5.356384,-0.03502529,0.928635399999997,0.9639924,-0.1071762,-0.2332545,-23.44703,12.44226,21.30522
63.338403225,5.232048,-0.6234501,0.867544000000001,0.9669722,-0.0867086,-0.2319118,-23.44703,12.44226,21.30522
63.348289013,5.232048,-1.035347,0.5009956,0.9728278,-0.07845638,-0.2329087,-23.44703,12.44226,21.30522
63.358175755,5.294216,-1.270717,-0.04882693,0.97531,-0.06587248,-0.2377787,-23.44703,12.44226,21.30522
63.368062496,5.480721,-1.211875,-0.598649399999998,0.9724526,-0.05377216,-0.2431332,-23.07784,12.44508,21.76777
63.377948761,6.22673899999999,-1.09419,-1.148472,0.9690458,-0.05470339,-0.2407278,-23.07784,12.44508,21.76777
63.387835503,7.28359699999998,-1.09419,-1.637203,0.9705054,-0.05373237,-0.240731,-23.07784,12.44508,21.76777
63.397721291,8.775634,-1.153032,-1.94266,0.9700094,-0.05913817,-0.2440707,-23.07784,12.44508,21.76777
63.407608032,10.32984,-1.741457,-2.309208,0.9792123,-0.06202054,-0.2401983,-23.07784,12.44508,21.76777
63.417494774,11.44886,-1.506087,-2.003752,0.9796568,-0.06574447,-0.2286369,-23.45537,12.13556,21.76361
63.427381516,12.19488,-1.682615,-2.248117,0.9898424,-0.07019748,-0.2319693,-23.45537,12.13556,21.76361
63.43726778,11.63537,-1.917985,-2.248117,1.000449,-0.07822339,-0.2136416,-23.45537,12.13556,21.76361
63.447154522,10.08116,-1.741457,-1.94266,1.003369,-0.07429761,-0.2112536,-23.45537,12.13556,21.76361
63.45704031,8.34045599999999,-1.447245,-1.94266,0.9970442,-0.07916901,-0.212198,-23.45537,12.13556,21.76361
63.466927052,6.59974800000002,-1.32956,-1.392838,0.9985103,-0.07326379,-0.2078979,-23.0791,11.75198,21.7775
63.476813793,5.16988,-1.447245,-1.270655,0.9970452,-0.07519431,-0.2069279,-23.0791,11.75198,21.7775
63.486700535,4.050853,-0.799977499999998,-0.965197799999999,0.9985131,-0.07079308,-0.2055057,-23.0791,11.75198,21.7775
63.4965868,2.620985,-0.03502529,-0.659740900000002,0.994646,-0.0678997,-0.2079294,-23.0791,11.75198,21.7775
63.506473065,2.247976,1.141824,-0.4764667,0.9878647,-0.07494085,-0.2237719,-23.0791,11.75198,21.7775
63.516359806,2.869658,1.789092,-0.04882693,0.9776632,-0.07536451,-0.2208958,-22.69174,13.18732,21.31177
63.526246071,3.80218,2.200989,0.01226447,0.9718361,-0.0837965,-0.231921,-22.69174,13.18732,21.31177
63.538604259,5.232048,2.554044,0.0733558600000001,0.9650523,-0.0868414,-0.2410508,-22.69174,13.18732,21.31177
63.548491001,5.91589799999997,2.554044,0.01226447,0.9592432,-0.08543377,-0.2453929,-22.69174,13.18732,21.31177
63.558377266,6.288907,2.083304,-0.04882693,0.9568264,-0.08151183,-0.2439727,-22.69174,13.18732,21.31177
63.568264007,6.47541100000003,1.377194,0.0733558600000001,0.9572964,-0.08390437,-0.2410745,-22.31614,12.42568,21.33096
63.578149795,6.04023399999999,-0.03502529,0.0733558600000001,0.9592538,-0.08002701,-0.2420537,-22.31614,12.42568,21.33096
63.588036537,5.16988,-0.799977499999998,0.1344473,0.9670185,-0.07406235,-0.2329375,-22.31614,12.42568,21.33096
63.597923279,4.175189,-1.270717,0.1344473,0.9704197,-0.07707705,-0.2386895,-22.31614,12.42568,21.33096
63.60781002,3.242667,-1.8003,-0.1099183,0.9713989,-0.0756397,-0.2401384,-22.31614,12.42568,21.33096
63.617696285,2.931826,-1.917985,-0.1710097,0.974761,-0.08587229,-0.2400829,-23.44161,11.74199,20.92583
63.627583027,3.11833,-1.506087,-0.1099183,0.9810653,-0.08684429,-0.2391089,-23.44161,11.74199,20.92583
63.637468815,3.615676,-1.388402,-0.1710097,0.9864135,-0.08691237,-0.2429499,-23.44161,11.74199,20.92583
63.647355556,3.926517,-1.09419,-0.2931925,0.9887968,-0.09311083,-0.2337783,-23.44161,11.74199,20.92583
63.657242298,4.050853,-0.85882,-0.1099183,0.9897572,-0.09404349,-0.230887,-23.44161,11.74199,20.92583
63.66712904,4.113021,-0.5057651,-0.1099183,0.9902008,-0.1027376,-0.2260334,-23.0634,12.42957,20.92468
63.677015304,4.113021,-0.3292377,0.01226447,0.9858384,-0.09530248,-0.2179002,-23.0634,12.42957,20.92468
63.686901569,3.491339,-0.682292600000002,0.1955387,0.9863216,-0.09827547,-0.2212511,-23.0634,12.42957,20.92468
63.696787834,3.180499,-0.85882,0.25663,0.984861,-0.09724836,-0.2178915,-23.0634,12.42957,20.92468
63.706674576,2.683153,-1.035347,0.745361200000002,0.9814926,-0.08846941,-0.2174588,-23.0634,12.42957,20.92468
63.716561317,1.750631,-0.917662500000002,1.050818,0.9819773,-0.08796903,-0.2164989,-23.06938,12.81479,21.3085
63.726448059,0.693772100000003,-0.682292600000002,1.295184,0.9785944,-0.08307847,-0.2155656,-23.06938,12.81479,21.3085
63.736333847,-0.2387504,-0.2115527,1.295184,0.9776739,-0.07095321,-0.2189944,-23.06938,12.81479,21.3085
63.748692512,-1.855123,0.4357146,1.050818,0.9766726,-0.07573446,-0.2132003,-23.06938,12.81479,21.3085
63.7585783,-2.2903,0.612241999999999,0.867544000000001,0.9752539,-0.07397798,-0.2261957,-23.83108,12.8342,21.74531
63.768465042,-2.60114,1.082982,0.5009956,0.9742951,-0.07156291,-0.2276517,-23.83108,12.8342,21.74531
63.778351784,-2.2903,1.082982,0.25663,0.9718615,-0.07450137,-0.2290824,-23.83108,12.8342,21.74531
63.788238525,-1.792954,0.729926999999997,0.1955387,0.9665088,-0.07739092,-0.2276312,-23.83108,12.8342,21.74531
63.79812479,-1.792954,-0.1527103,0.1955387,0.9684441,-0.08083934,-0.2300161,-23.83108,12.8342,21.74531
63.808011532,-1.295609,-0.741135099999998,0.25663,0.9742303,-0.0945429,-0.2337877,-23.06271,12.80763,20.91938
63.81789732,0.3829313,-0.799977499999998,0.3177214,0.9776272,-0.1054926,-0.249118,-23.06271,12.80763,20.91938
63.827784061,2.80749,-0.1527103,0.745361200000002,0.9805594,-0.1061219,-0.258249,-23.06271,12.80763,20.91938
63.837670803,4.48603,0.2591871,0.989726799999999,0.9747484,-0.1002239,-0.2553999,-23.06271,12.80763,20.91938
63.847557545,4.175189,0.612241999999999,0.928635399999997,0.9737425,-0.1049764,-0.2476822,-23.06271,12.80763,20.91938
63.857443809,3.304835,0.3180296,0.6842698,0.9698018,-0.1185385,-0.2432899,-23.06938,12.81479,21.3085
63.867330074,2.931826,0.0826596800000002,0.745361200000002,0.96784,-0.1194007,-0.2360739,-23.06938,12.81479,21.3085
63.877216339,2.683153,-0.0938677799999998,0.745361200000002,0.9760919,-0.1189228,-0.235586,-23.06938,12.81479,21.3085
63.887103081,1.253286,-0.1527103,0.745361200000002,0.9804414,-0.1183151,-0.2269276,-23.06938,12.81479,21.3085
63.896989822,-0.4252549,0.02381719,0.6842698,0.9809318,-0.1128733,-0.2211835,-23.06938,12.81479,21.3085
63.906876564,-1.917291,-0.2703952,0.867544000000001,0.9731697,-0.1133809,-0.2235943,-23.0687,13.19285,21.30319
63.916762352,-2.849813,-0.5057651,0.867544000000001,0.9731769,-0.1069571,-0.2173748,-23.0687,13.19285,21.30319
63.926649094,-3.347158,-1.153032,0.806452599999999,0.9741838,-0.09822991,-0.2198224,-23.0687,13.19285,21.30319
63.936535358,-2.911981,-1.623772,0.928635399999997,0.9703428,-0.09152006,-0.2275554,-23.0687,13.19285,21.30319
63.9464221,-1.357777,-1.859142,0.989726799999999,0.9766882,-0.08429304,-0.231913,-23.0687,13.19285,21.30319
63.956308842,0.4450994,-1.211875,0.6842698,0.9796498,-0.07714562,-0.2420451,-23.44566,13.19838,21.29461
63.968666553,1.564126,-0.682292600000002,0.745361200000002,0.9840356,-0.07079517,-0.2401485,-23.44566,13.19838,21.29461
63.978553295,1.191117,-0.3880802,0.745361200000002,0.9806193,-0.072163,-0.2343744,-23.44566,13.19838,21.29461
63.988440037,-0.2387504,0.0826596800000002,0.562087,0.985944,-0.06959499,-0.2247629,-23.44566,13.19838,21.29461
63.998325825,-2.228132,0.612241999999999,0.6842698,0.9800879,-0.07535492,-0.2199313,-23.44566,13.19838,21.29461
64.008212566,-4.031008,1.024139,0.745361200000002,0.9791058,-0.08025843,-0.2223122,-22.30743,13.5527,20.92593
64.018099308,-5.523044,1.318352,1.234092,0.9776289,-0.08659305,-0.2227628,-22.30743,13.5527,20.92593
64.02798605,-6.45556599999999,1.082982,1.661732,0.9795896,-0.08373274,-0.2266224,-22.30743,13.5527,20.92593
64.037872314,-7.20158399999998,0.788769499999999,2.089372,0.9688971,-0.08411948,-0.2213425,-22.30743,13.5527,20.92593
64.047759056,-7.69893,0.4357146,2.333737,0.9766774,-0.08372698,-0.2266257,-22.30743,13.5527,20.92593
64.057644844,-7.88543400000003,0.3180296,2.639194,0.9810312,-0.09160588,-0.2318711,-23.45344,13.20673,21.74858
64.067531586,-8.32061100000001,0.4357146,2.822469,0.9825004,-0.08820731,-0.2323675,-23.45344,13.20673,21.74858
64.077418327,-9.12879799999998,0.671084500000001,2.88356,0.9873778,-0.08040418,-0.2309586,-23.45344,13.20673,21.74858
64.087305069,-10.62083,0.788769499999999,2.700286,0.9835417,-0.06924707,-0.2343858,-23.45344,13.20673,21.74858
64.097191334,-12.0507,1.024139,2.578103,0.9796328,-0.07902868,-0.2377073,-23.45344,13.20673,21.74858
64.107077599,-12.61021,0.729926999999997,2.45592,0.9786662,-0.08651794,-0.2501745,-23.07648,13.2012,21.75716
64.116963863,-12.92105,0.671084500000001,2.089372,0.9844979,-0.08010565,-0.2439483,-23.07648,13.2012,21.75716
64.126850605,-12.79672,1.082982,1.722824,0.985936,-0.08596627,-0.2448789,-23.07648,13.2012,21.75716
64.136737347,-12.54805,1.671407,1.906098,0.9854462,-0.08892296,-0.2472691,-23.07648,13.2012,21.75716
64.146624088,-11.67769,1.789092,1.722824,0.9796274,-0.08894741,-0.2496802,-23.07648,13.2012,21.75716
64.156509876,-11.05601,1.847934,1.478458,0.9766699,-0.09761321,-0.2433878,-23.06938,12.81479,21.3085
64.166396618,-10.55867,2.259832,1.539549,0.9785928,-0.1029735,-0.2433585,-23.06938,12.81479,21.3085
64.176282883,-9.812647,2.024462,1.356275,0.9712858,-0.1132425,-0.2471623,-23.06938,12.81479,21.3085
64.188641071,-7.76109800000001,1.965619,1.295184,0.9698078,-0.1255427,-0.2557584,-23.06938,12.81479,21.3085
64.198527813,-5.77171700000003,1.730249,1.234092,0.9698139,-0.1211027,-0.2519335,-23.06938,12.81479,21.3085
64.208414078,-3.533663,1.612564,1.11191,0.966417,-0.1265746,-0.2600853,-23.07716,12.82314,21.76247
64.218300819,-1.730786,1.494879,0.928635399999997,0.9664136,-0.1245621,-0.2557672,-23.07716,12.82314,21.76247
64.228187561,-1.109105,0.965297,1.11191,0.961086,-0.1131792,-0.2442887,-23.07716,12.82314,21.76247
64.238073349,-1.171273,0.4357146,0.928635399999997,0.957686,-0.1111672,-0.2404554,-23.07716,12.82314,21.76247
64.247960091,-1.979459,0.02381719,0.806452599999999,0.9606004,-0.1052145,-0.2327874,-23.07716,12.82314,21.76247
64.257846832,-2.787645,-0.2115527,0.6842698,0.9722626,-0.1078089,-0.2418985,-23.45412,12.82867,21.75389
64.267733574,-2.849813,-0.1527103,1.050818,0.9688892,-0.1014863,-0.2428961,-23.45412,12.82867,21.75389
64.277619839,-2.974149,-0.2115527,0.5009956,0.9757197,-0.09973168,-0.2549203,-23.45412,12.82867,21.75389
64.28750658,-1.917291,-0.4469227,0.1344473,0.9728135,-0.09827226,-0.2554119,-23.45412,12.82867,21.75389
64.297392368,-0.673927500000001,-0.1527103,-0.2931925,0.9829782,-0.10309,-0.2505668,-23.45412,12.82867,21.75389
64.30727911,0.3207631,0.4945571,-0.659740900000002,0.9863344,-0.1073138,-0.2394804,-22.70812,12.13167,22.16989
64.317165852,0.9424447,0.847612000000001,-0.843015,0.9838798,-0.1106169,-0.2327336,-22.70812,12.13167,22.16989
64.327052593,1.688463,1.259509,-0.904106400000002,0.9819002,-0.1138563,-0.2216583,-22.70812,12.13167,22.16989
64.336938858,2.558817,1.259509,-0.965197799999999,0.9818993,-0.1198219,-0.2298038,-22.70812,12.13167,22.16989
64.346825123,3.615676,1.318352,-0.843015,0.9770179,-0.1271022,-0.2288107,-22.70812,12.13167,22.16989
64.356711388,4.983376,1.436037,-0.659740900000002,0.9745842,-0.1270542,-0.2259282,-23.46204,12.14272,22.15273
64.366598129,6.59974800000002,1.730249,-0.3542839,0.972167,-0.1276083,-0.2307374,-23.46204,12.14272,22.15273
64.376484871,7.78094299999999,1.612564,-0.2321011,0.9775445,-0.1189041,-0.2341417,-23.46204,12.14272,22.15273
64.386371613,8.21611999999997,1.553722,-0.2321011,0.9746787,-0.1092386,-0.2394839,-23.46204,12.14272,22.15273
64.398729324,7.78094299999999,1.671407,-0.3542839,0.9674077,-0.1087876,-0.2428609,-23.46204,12.14272,22.15273
64.408616066,6.78625199999999,1.494879,-0.5375581,0.9674585,-0.09716556,-0.2472479,-22.70089,12.43956,21.77635
64.418502808,6.22673899999999,1.259509,-0.659740900000002,0.9679638,-0.09380824,-0.2506308,-22.70089,12.43956,21.77635
64.428388596,5.667225,0.671084500000001,-0.720832200000002,0.9723481,-0.09292209,-0.2559204,-22.70089,12.43956,21.77635
64.438275337,5.107712,0.5533996,-0.843015,0.9771989,-0.0914205,-0.252556,-22.70089,12.43956,21.77635
64.448161602,4.983376,0.5533996,-0.904106400000002,0.9820538,-0.09442368,-0.2573445,-22.70089,12.43956,21.77635
64.458048344,5.045544,0.612241999999999,-1.026289,0.981526,-0.1016191,-0.250095,-22.7002,12.81762,21.77105
64.467935085,5.480721,0.3768721,-1.392838,0.9790781,-0.09899254,-0.237607,-22.7002,12.81762,21.77105
64.477821827,5.91589799999997,0.4945571,-1.453929,0.9829186,-0.1081875,-0.2332279,-22.7002,12.81762,21.77105
64.487707615,6.22673899999999,0.3768721,-1.331746,0.9790185,-0.1080719,-0.2260191,-22.7002,12.81762,21.77105
64.497594357,6.04023399999999,0.671084500000001,-1.392838,0.980947,-0.1084908,-0.2212056,-22.7002,12.81762,21.77105
64.507481098,6.04023399999999,0.965297,-1.087381,0.9794744,-0.1098768,-0.2163911,-22.70089,12.43956,21.77635
64.517367363,5.97806599999998,1.318352,-1.087381,0.9765764,-0.1114542,-0.224562,-22.70089,12.43956,21.77635
64.527254105,6.288907,1.200667,-0.965197799999999,0.9814308,-0.113956,-0.2283912,-22.70089,12.43956,21.77635
64.537139893,6.84842,1.141824,-0.5375581,0.9814755,-0.1047832,-0.2337277,-22.70089,12.43956,21.77635
64.547026634,7.71877499999998,1.082982,-0.5375581,0.980529,-0.09946079,-0.2361603,-22.70089,12.43956,21.77635
64.556913376,8.15395200000002,0.965297,-0.598649399999998,0.9800624,-0.09708981,-0.2405011,-22.70089,12.43956,21.77635
64.566800117,8.83780200000001,0.729926999999997,-0.4764667,0.9810641,-0.08783256,-0.2400658,-22.70089,12.43956,21.77635
64.576686382,8.96213800000002,0.671084500000001,-0.4153753,0.9839752,-0.08584017,-0.2367061,-22.70089,12.43956,21.77635
64.586573124,8.58912800000003,0.729926999999997,-0.5375581,0.9796175,-0.0804248,-0.233372,-22.70089,12.43956,21.77635
64.596458912,8.15395200000002,0.847612000000001,-0.598649399999998,0.9771837,-0.08137232,-0.2319272,-22.70089,12.43956,21.77635
64.606345653,7.40793400000002,0.906454499999998,-0.843015,0.9742374,-0.08612816,-0.2246927,-23.07716,12.82314,21.76247
64.618703842,5.97806599999998,0.906454499999998,-0.781923700000001,0.969848,-0.08648422,-0.2165202,-23.07716,12.82314,21.76247
64.628590107,4.796871,0.729926999999997,-1.026289,0.9746916,-0.08642908,-0.2121867,-23.07716,12.82314,21.76247
64.638476849,3.677844,0.4945571,-0.904106400000002,0.9727104,-0.09413728,-0.2068599,-23.07716,12.82314,21.76247
64.64836359,2.869658,0.2003446,-0.843015,0.9697875,-0.09555642,-0.2044514,-23.05673,12.42241,20.53557
64.658250332,2.185808,0.2003446,-0.781923700000001,0.9785379,-0.09665544,-0.2116497,-23.05673,12.42241,20.53557
64.668136597,2.061472,0.4357146,-0.4153753,0.9824203,-0.09516631,-0.2092482,-23.05673,12.42241,20.53557
64.678022861,2.310144,0.729926999999997,-0.2931925,0.9887151,-0.1015522,-0.2120943,-23.05673,12.42241,20.53557
64.687909126,2.993994,1.082982,0.01226447,0.9877851,-0.09683188,-0.2222186,-23.05673,12.42241,20.53557
64.697795868,3.80218,1.141824,0.1955387,0.9834259,-0.09688079,-0.2260707,-22.68575,12.8021,20.92796
64.707682609,4.734703,1.082982,0.3788128,0.9824731,-0.09102113,-0.2251395,-22.68575,12.8021,20.92796
64.717569351,4.921207,1.318352,0.5009956,0.9814905,-0.0954233,-0.2265611,-22.68575,12.8021,20.92796
64.727455616,4.796871,0.906454499999998,0.562087,0.9751833,-0.08895826,-0.2184253,-22.68575,12.8021,20.92796
64.737341881,4.237358,0.729926999999997,0.562087,0.9751849,-0.08548491,-0.2141146,-22.68575,12.8021,20.92796
64.747228622,3.304835,0.2591871,0.6842698,0.9790882,-0.08064469,-0.2155774,-22.70089,12.43956,21.77635
64.757114887,2.496649,0.2591871,0.6842698,0.9800611,-0.07369271,-0.2064739,-22.70089,12.43956,21.77635
64.767001629,1.377622,0.0826596800000002,0.1955387,0.9805436,-0.07417344,-0.20599,-22.70089,12.43956,21.77635
64.77688837,0.5072676,0.0826596800000002,0.1955387,0.9844418,-0.07079404,-0.2074454,-22.70089,12.43956,21.77635
64.786774158,-0.4252549,0.2003446,-0.1099183,0.9820015,-0.07667577,-0.210304,-22.70089,12.43956,21.77635
64.7966609,-0.860432000000003,0.788769499999999,-0.2931925,0.9844319,-0.07869307,-0.2146193,-23.0634,12.42957,20.92468
64.806547642,-0.984768300000001,0.965297,-0.4764667,0.9839578,-0.07677309,-0.2165532,-23.0634,12.42957,20.92468
64.816433907,-0.860432000000003,1.024139,-0.4153753,0.9795657,-0.08358172,-0.2165238,-23.0634,12.42957,20.92468
64.826320648,-0.611759299999997,1.082982,-0.3542839,0.9795579,-0.08751325,-0.2189086,-23.0634,12.42957,20.92468
64.838678837,-0.3630867,1.141824,-0.2321011,0.9819651,-0.09485821,-0.2212733,-23.0634,12.42957,20.92468
64.848565102,-0.05224587,0.788769499999999,0.1344473,0.981464,-0.1007294,-0.2231679,-22.68575,12.8021,20.92796
64.858451843,0.1964268,0.671084500000001,0.5009956,0.9799964,-0.09965911,-0.216923,-22.68575,12.8021,20.92796
64.868338585,-0.05224587,0.5533996,0.4399042,0.97607,-0.1118179,-0.2163851,-22.68575,12.8021,20.92796
64.878224373,0.00992228700000002,0.612241999999999,0.6842698,0.9722062,-0.1069552,-0.2173759,-22.68575,12.8021,20.92796
64.888111114,-0.1765822,0.5533996,0.5009956,0.9775577,-0.1040584,-0.2183463,-22.68575,12.8021,20.92796
64.897997856,-0.5495912,0.671084500000001,0.867544000000001,0.9794968,-0.100066,-0.2116314,-22.69285,13.18852,21.37663
64.907884121,-0.611759299999997,0.3768721,0.806452599999999,0.9824262,-0.1001796,-0.2188413,-22.69285,13.18852,21.37663
64.917770863,-0.736095699999999,0.3180296,0.989726799999999,0.9809797,-0.09874467,-0.2207739,-22.69285,13.18852,21.37663
64.927656651,-0.673927500000001,0.847612000000001,1.050818,0.9843966,-0.09588724,-0.2246318,-22.69285,13.18852,21.37663
64.937543392,-0.984768300000001,0.906454499999998,1.11191,0.9785687,-0.09585416,-0.2231959,-22.69285,13.18852,21.37663
64.947430134,-0.984768300000001,0.847612000000001,1.173001,0.9790568,-0.09338441,-0.2208032,-23.0687,13.19285,21.30319
64.957316875,-1.357777,0.671084500000001,1.050818,0.9756581,-0.09337051,-0.2203262,-23.0687,13.19285,21.30319
64.96720314,-1.917291,0.5533996,0.928635399999997,0.9775965,-0.08987223,-0.2140897,-23.0687,13.19285,21.30319
64.977089882,-2.725477,0.3180296,0.623178399999998,0.97224,-0.09422982,-0.2131119,-23.0687,13.19285,21.30319
64.986976147,-3.409327,-0.03502529,0.4399042,0.9746453,-0.09807985,-0.2097233,-23.0687,13.19285,21.30319
64.996862411,-3.96884,-0.2703952,0.25663,0.975615,-0.09907004,-0.210679,-23.0687,13.19285,21.30319
65.006749153,-4.341849,-0.03502529,0.1344473,0.9731898,-0.1005692,-0.2135597,-23.0687,13.19285,21.30319
65.016635895,-3.96884,0.0826596800000002,0.1344473,0.9780583,-0.09868138,-0.2169302,-23.0687,13.19285,21.30319
65.026522636,-3.28499,0.2591871,0.3177214,0.9819556,-0.1012676,-0.2265311,-23.0687,13.19285,21.30319
65.036408901,-2.352468,0.4945571,0.5009956,0.9794965,-0.1075284,-0.2221739,-23.0687,13.19285,21.30319
65.046295166,-1.544282,0.788769499999999,0.562087,0.9848698,-0.1047683,-0.2322811,-23.8304,13.21225,21.74
65.058653355,-1.109105,1.259509,0.867544000000001,0.9858341,-0.1042329,-0.2289163,-23.8304,13.21225,21.74
65.068539619,-1.046937,1.494879,0.806452599999999,0.9809522,-0.1110118,-0.2269639,-23.8304,13.21225,21.74
65.078426361,-1.357777,1.318352,0.806452599999999,0.9790061,-0.1089883,-0.2221671,-23.8304,13.21225,21.74
65.088312626,-1.730786,1.024139,0.6842698,0.9775544,-0.1060278,-0.2197791,-23.8304,13.21225,21.74
65.098199368,-1.979459,0.847612000000001,0.928635399999997,0.9760904,-0.1099564,-0.2221655,-22.69106,13.56538,21.30647
65.108086109,-2.103795,0.4945571,0.867544000000001,0.9746416,-0.1065162,-0.2202609,-22.69106,13.56538,21.30647
65.117972851,-2.103795,0.671084500000001,0.6842698,0.9746302,-0.1074397,-0.2168898,-22.69106,13.56538,21.30647
65.127858639,-1.855123,0.3768721,0.562087,0.9756253,-0.1041121,-0.2221956,-22.69106,13.56538,21.30647
65.13774538,-1.730786,0.3180296,0.4399042,0.9824042,-0.1065099,-0.2188094,-22.69106,13.56538,21.30647
65.147631645,-1.171273,0.612241999999999,0.3177214,0.9795045,-0.1055878,-0.2226647,-23.06271,12.80763,20.91938
65.157518387,-0.798263799999999,0.4945571,0.1344473,0.9804929,-0.1071944,-0.2322738,-23.06271,12.80763,20.91938
65.167405129,-0.114414,0.612241999999999,0.01226447,0.9795148,-0.1096344,-0.2327436,-23.06271,12.80763,20.91938
65.17729187,0.2585949,0.4945571,-0.1099183,0.9785345,-0.11206,-0.2322515,-23.06271,12.80763,20.91938
65.187177658,0.4450994,0.4357146,-0.2321011,0.9785197,-0.1139575,-0.2288755,-23.06271,12.80763,20.91938
65.1970644,0.818108400000001,0.2591871,-0.1710097,0.9755831,-0.1182767,-0.2250096,-23.45481,12.45061,21.75919
65.206950665,1.253286,0.0826596800000002,-0.04882693,0.9785016,-0.1168288,-0.2254945,-23.45481,12.45061,21.75919
65.216837406,1.315454,0.2591871,0.1344473,0.9799555,-0.1178128,-0.2259688,-23.45481,12.45061,21.75919
65.226724148,1.626294,0.5533996,0.25663,0.9813917,-0.1181875,-0.2182706,-23.45481,12.45061,21.75919
65.236610889,1.750631,0.612241999999999,0.25663,0.9784999,-0.1163203,-0.2240544,-23.45481,12.45061,21.75919
65.246496677,1.750631,0.788769499999999,0.1344473,0.9741438,-0.1114134,-0.2221604,-23.44634,12.82032,21.29992
65.256383419,1.564126,0.612241999999999,0.25663,0.9775573,-0.107539,-0.2231379,-23.44634,12.82032,21.29992
65.266270161,1.315454,0.4945571,0.1955387,0.9775645,-0.1041016,-0.2212316,-23.44634,12.82032,21.29992
65.278627873,0.818108400000001,0.3180296,0.3177214,0.9780685,-0.09775063,-0.2198204,-23.44634,12.82032,21.29992
65.288514614,0.631603899999999,0.2003446,0.0733558600000001,0.9853656,-0.0963761,-0.2246283,-23.44634,12.82032,21.29992
65.298401356,0.880276599999999,0.3768721,0.1955387,0.9809797,-0.09874467,-0.2207739,-23.43899,13.19122,20.9055
65.308287621,1.377622,0.5533996,0.1955387,0.9829366,-0.1003388,-0.2294202,-23.43899,13.19122,20.9055
65.318174362,2.061472,0.671084500000001,0.3177214,0.9848855,-0.09889618,-0.2303871,-23.43899,13.19122,20.9055
65.328061104,2.745321,0.788769499999999,0.25663,0.9804968,-0.1047309,-0.2303626,-23.43899,13.19122,20.9055
65.337946892,3.11833,0.906454499999998,0.1344473,0.9727278,-0.1041998,-0.2284504,-23.43899,13.19122,20.9055
65.347833634,3.429171,0.5533996,-0.04882693,0.9707897,-0.09924024,-0.2227067,-23.06938,12.81479,21.3085
65.357720375,3.553508,0.1415022,0.25663,0.97415,-0.1089643,-0.2212109,-23.06938,12.81479,21.3085
65.36760664,3.304835,-0.1527103,0.0733558600000001,0.9770575,-0.103964,-0.2120954,-23.06938,12.81479,21.3085
65.377493382,2.434481,0.02381719,0.0733558600000001,0.9770694,-0.09955987,-0.2106749,-23.06938,12.81479,21.3085
65.38737917,1.564126,0.1415022,0.01226447,0.9809427,-0.1000041,-0.2073018,-23.06938,12.81479,21.3085
65.397265911,1.004613,0.0826596800000002,-0.04882693,0.9804552,-0.1029752,-0.2106538,-23.44677,13.19957,21.35947
65.407152653,0.2585949,0.671084500000001,-0.1099183,0.9804517,-0.1019582,-0.2077734,-23.44677,13.19957,21.35947
65.417039394,0.1342586,1.082982,-0.1710097,0.9809665,-0.0961733,-0.2116494,-23.44677,13.19957,21.35947
65.426925659,0.2585949,1.318352,-0.3542839,0.9814249,-0.1069518,-0.2159227,-23.44677,13.19957,21.35947
65.436812401,0.5072676,1.141824,-0.3542839,0.9833817,-0.1035686,-0.2173803,-23.44677,13.19957,21.35947
65.446699143,0.1342586,1.024139,-0.4153753,0.9892113,-0.1031147,-0.2188188,-22.68507,13.18016,20.92266
65.456584931,-0.3009185,0.671084500000001,-0.5375581,0.997452,-0.1075423,-0.2207107,-22.68507,13.18016,20.92266
65.466471672,-0.673927500000001,1.259509,-0.5375581,0.9969835,-0.100681,-0.2178604,-22.68507,13.18016,20.92266
65.476358414,-0.611759299999997,2.259832,-0.5375581,0.9994171,-0.1007289,-0.2207429,-22.68507,13.18016,20.92266
65.486244679,-0.798263799999999,2.730572,-0.659740900000002,0.997445,-0.1055082,-0.2149499,-22.68507,13.18016,20.92266
65.498602867,-0.4252549,2.907099,-1.209563,0.9978834,-0.1086949,-0.2000248,-23.45344,13.20673,21.74858
65.508489609,-0.673927500000001,3.142469,-0.781923700000001,0.9911162,-0.09890656,-0.1976773,-23.45344,13.20673,21.74858
65.518375874,-0.860432000000003,3.966264,-0.843015,0.9949426,-0.1114957,-0.1923192,-23.45344,13.20673,21.74858
65.528262615,-0.922600200000001,5.025428,0.1344473,0.9842731,-0.1140173,-0.1995324,-23.45344,13.20673,21.74858
65.538149357,-1.109105,5.084271,0.5009956,0.9857309,-0.1135332,-0.1995332,-23.45344,13.20673,21.74858
65.548035145,-1.792954,6.02575100000001,1.356275,0.9813563,-0.1159737,-0.2004877,-23.44814,12.44345,21.37008
65.557921886,-2.538972,6.73185999999997,1.661732,0.9857549,-0.1176661,-0.2153827,-23.44814,12.44345,21.37008
65.567808628,-3.844504,6.20227800000001,1.722824,0.9949639,-0.1190948,-0.2119986,-23.44814,12.44345,21.37008
65.577694893,-5.585212,6.08459299999998,1.539549,1.004695,-0.108809,-0.2067494,-23.44814,12.44345,21.37008
65.587581634,-7.01508000000001,6.73185999999997,1.661732,1.01634,-0.1108014,-0.2081688,-23.44814,12.44345,21.37008
65.597467899,-8.38277900000002,7.26144300000002,1.234092,1.020224,-0.1093194,-0.2062482,-23.43899,13.19122,20.9055
65.607354164,-8.63145299999999,7.90871000000001,1.11191,1.010532,-0.1143783,-0.2201804,-23.43899,13.19122,20.9055
65.617240906,-6.39339799999998,8.37945000000001,1.295184,1.007186,-0.1112147,-0.2370324,-23.43899,13.19122,20.9055
65.627127647,-3.471495,9.61514200000002,1.173001,1.009564,-0.127826,-0.2403122,-23.43899,13.19122,20.9055
65.637014389,0.9424447,10.96852,0.867544000000001,1.011977,-0.1381933,-0.2493946,-23.43899,13.19122,20.9055
65.646900654,5.542889,9.497457,1.722824,1.013867,-0.138869,-0.2291903,-23.43899,13.19122,20.9055
65.656787395,7.78094299999999,11.0862,3.3112,1.002105,-0.1520634,-0.2012436,-23.43899,13.19122,20.9055
65.666673183,8.27828799999998,13.38106,4.716302,0.9879578,-0.161043,-0.184863,-23.43899,13.19122,20.9055
65.676559925,8.58912800000003,15.61707,6.304678,0.989819,-0.1744728,-0.1708463,-23.43899,13.19122,20.9055
65.686446667,9.64598800000001,15.61707,7.037775,1.006699,-0.205671,-0.1706695,-23.43899,13.19122,20.9055
65.696333408,10.45417,15.7936,8.74833400000002,1.01442,-0.2108773,-0.1595732,-23.433,12.806,20.52168
65.70869112,9.70815600000002,18.20614,9.54252199999998,0.9755818,-0.2027865,-0.1447497,-23.433,12.806,20.52168
65.718577862,10.88935,19.44184,8.44287699999998,0.957212,-0.1853063,-0.1506299,-23.433,12.806,20.52168
65.728464603,14.24643,17.61772,8.80942499999997,0.9592282,-0.1708527,-0.1608,-23.433,12.806,20.52168
65.738350868,16.85749,16.2055,8.320694,0.9655528,-0.1525461,-0.1406866,-23.8015,13.18123,20.05383
65.748237133,18.4117,18.32383,8.9927,0.9840746,-0.13665,-0.1498834,-23.8015,13.18123,20.05383
65.758123398,19.28205,20.73637,9.053791,1.008403,-0.1345868,-0.1715076,-23.8015,13.18123,20.05383
65.768010139,22.26612,23.44312,8.56506000000003,1.008062,-0.1225581,-0.2138899,-23.8015,13.18123,20.05383
65.777896881,25.12586,24.97303,8.50396799999999,1.013933,-0.1243541,-0.2355155,-23.8015,13.18123,20.05383
65.787783623,27.36391,26.32641,8.38178500000001,0.9800119,-0.119662,-0.2519292,-23.78705,13.16572,19.21074
65.797669887,30.16148,25.2084,9.42034000000002,0.9643803,-0.1399033,-0.2398216,-23.78705,13.16572,19.21074
65.807556629,31.84002,24.14923,10.27562,0.9395118,-0.1590374,-0.2200354,-23.78705,13.16572,19.21074
65.817442417,33.45639,22.79586,11.06981,0.9287943,-0.1582704,-0.2027383,-23.78705,13.16572,19.21074
65.827329159,34.69976,20.55984,11.55854,0.9354714,-0.1859032,-0.1934536,-23.78705,13.16572,19.21074
65.8372159,37.37299,17.97077,12.536,0.9456233,-0.182678,-0.1718169,-24.14153,13.90469,17.95935
65.847102642,38.80286,15.49939,12.536,0.9495073,-0.178711,-0.1665424,-24.14153,13.90469,17.95935
65.856988907,41.35175,14.2637,12.536,0.9436902,-0.1648133,-0.149787,-24.14153,13.90469,17.95935
65.866875648,41.91126,14.38138,11.1309,0.9224012,-0.1393204,-0.1412835,-24.14153,13.90469,17.95935
65.876761913,41.28958,11.61579,9.97016099999998,0.9151697,-0.12618,-0.1428009,-24.14153,13.90469,17.95935
65.886648178,41.04091,7.43797000000002,8.13742,0.9033056,-0.07312406,-0.1786706,-24.43318,14.64274,16.70939
65.89653492,38.67852,1.789092,4.288662,0.9271628,-0.05223953,-0.17923,-24.43318,14.64274,16.70939
65.906421661,36.25396,-1.917985,1.783915,0.9544746,-0.02574849,-0.1952032,-24.43318,14.64274,16.70939
65.916308403,32.0887,-4.036314,-0.781923700000001,0.9821991,-0.00875283,-0.1947766,-24.43318,14.64274,16.70939
65.928666115,26.49356,-4.271684,-2.492483,1.020002,-0.03136384,-0.2037569,-24.43318,14.64274,16.70939
65.938552856,24.75285,-3.153677,-2.187026,1.02432,-0.04548673,-0.2031997,-25.18641,15.03185,16.68693
65.948439598,25.06369,-0.3292377,-4.14195,1.024224,-0.06428349,-0.1901199,-25.18641,15.03185,16.68693
65.958325863,25.12586,2.612886,-5.180504,1.011951,-0.08975845,-0.1693255,-25.18641,15.03185,16.68693
65.968212128,25.00152,5.084271,-5.363778,0.9929207,-0.1015279,-0.1447607,-25.18641,15.03185,16.68693
65.978098392,23.57166,6.26111999999998,-5.48596,0.9796702,-0.1145181,-0.1033509,-25.18641,15.03185,16.68693
65.987985134,20.33891,6.49648999999998,-5.302687,0.9815242,-0.1189455,-0.07350935,-24.11044,15.70214,16.3124
65.997871876,15.61413,5.496168,-4.875047,0.9872519,-0.1163548,-0.02975211,-24.11044,15.70214,16.3124
66.007758617,9.70815600000002,5.084271,-4.019767,0.9940042,-0.1136099,-0.008116856,-24.11044,15.70214,16.3124
66.017644882,3.926517,4.731216,-3.103397,1.006098,-0.1228283,-0.004209155,-24.11044,15.70214,16.3124
66.027531147,-0.3630867,4.966586,-2.125934,1.011449,-0.1263985,-0.01428437,-24.11044,15.70214,16.3124
66.037417412,-3.595831,5.96690800000001,-1.51502,1.008509,-0.1406508,-0.02335319,-24.41747,15.32033,15.85658
66.047304153,-5.212203,5.96690800000001,-0.965197799999999,1.007526,-0.1555018,-0.03963058,-24.41747,15.32033,15.85658
66.057190895,-4.093176,4.731216,-0.1099183,1.002191,-0.1694494,-0.0612076,-24.41747,15.32033,15.85658
66.067077637,-1.046937,3.613209,0.806452599999999,0.9997745,-0.1764776,-0.07560247,-24.41747,15.32033,15.85658
66.076963902,2.620985,3.318996,2.211555,1.009952,-0.195311,-0.09617534,-24.41747,15.32033,15.85658
66.086850166,7.40793400000002,3.848579,3.005743,1.006046,-0.2115811,-0.1100443,-24.41747,15.32033,15.85658
66.096736431,11.5732,4.907743,3.677748,0.9890731,-0.2176139,-0.1249416,-24.41747,15.32033,15.85658
66.106623173,16.67099,4.848901,4.65521,0.9716707,-0.1971276,-0.1250649,-24.41747,15.32033,15.85658
66.116509914,21.39577,3.318996,5.327216,0.9581529,-0.1751665,-0.1237485,-24.41747,15.32033,15.85658
66.126396656,25.56104,0.671084500000001,5.81594700000002,0.9465466,-0.1584938,-0.117594,-24.41747,15.32033,15.85658
66.136282921,27.11524,-0.976504999999998,5.693764,0.9620562,-0.1519137,-0.0988537,-24.41081,15.31317,15.46746
66.14864111,26.86657,-1.56493,5.327216,0.9810042,-0.1376355,-0.08591944,-24.41081,15.31317,15.46746
66.158527851,25.12586,-1.623772,4.960668,0.9868574,-0.1283735,-0.08451683,-24.41081,15.31317,15.46746
66.168414116,23.8825,-0.6234501,4.533028,0.9931649,-0.1243897,-0.07779689,-24.41081,15.31317,15.46746
66.178300381,22.45263,-0.2115527,3.616657,0.9888537,-0.1152873,-0.08842805,-24.41081,15.31317,15.46746
66.188187122,23.19865,0.3180296,3.433383,0.9839656,-0.1275017,-0.09173833,-24.78708,15.69676,15.45358
66.198073387,20.09024,-1.623772,2.02828,0.9704174,-0.1143057,-0.09037766,-24.78708,15.69676,15.45358
66.207960129,18.5982,-2.27104,0.6842698,0.9805766,-0.1106295,-0.07114784,-24.78708,15.69676,15.45358
66.21784687,16.54665,-2.74178,0.01226447,0.9844543,-0.1081162,-0.06538509,-24.78708,15.69676,15.45358
66.227733135,13.50041,-2.918307,-0.843015,0.9902878,-0.1061943,-0.06635001,-24.78708,15.69676,15.45358
66.237619877,10.51634,-2.565252,-1.51502,0.9907414,-0.1069893,-0.05432244,-24.40166,16.06094,15.00288
66.247506142,7.28359699999998,-1.506087,-1.881569,0.9970042,-0.1121784,-0.04226607,-24.40166,16.06094,15.00288
66.257392407,4.921207,-0.5646076,-2.248117,0.9873093,-0.1152248,-0.05188013,-24.40166,16.06094,15.00288
66.267279148,3.180499,0.2003446,-2.3703,0.9839333,-0.1133638,-0.05814534,-24.40166,16.06094,15.00288
66.27716589,2.310144,0.1415022,-2.431391,0.9896967,-0.1249325,-0.04942375,-24.40166,16.06094,15.00288
66.287052631,1.688463,0.2591871,-1.94266,0.992072,-0.1310806,-0.03688603,-24.40944,16.06929,15.45685
66.296938896,1.128949,0.671084500000001,-1.51502,0.9925704,-0.1296711,-0.04025904,-24.40944,16.06929,15.45685
66.306825638,0.9424447,0.612241999999999,-0.781923700000001,0.988732,-0.1165087,-0.03984899,-24.40944,16.06929,15.45685
66.316711426,0.3829313,0.4357146,-0.1099183,0.9829504,-0.1068158,-0.04375192,-24.40944,16.06929,15.45685
66.326598167,-0.673927500000001,0.02381719,0.623178399999998,0.9805375,-0.0984394,-0.03754502,-24.40944,16.06929,15.45685
66.336484909,-2.041627,-0.3880802,1.539549,0.9839509,-0.09556038,-0.03996029,-24.08017,16.42723,14.61561
66.346371651,-3.906672,-1.270717,2.333737,0.9873548,-0.09411344,-0.04044465,-24.08017,16.42723,14.61561
66.356257916,-6.144726,-1.976827,3.066834,0.9908016,-0.08796244,-0.05201392,-24.08017,16.42723,14.61561
66.368616104,-9.87481500000001,-2.859464,3.738839,1.000971,-0.09828759,-0.05724031,-24.08017,16.42723,14.61561
66.378502846,-13.48057,-2.918307,4.288662,1.0073,-0.1004061,-0.06780268,-24.08017,16.42723,14.61561
66.388389111,-17.21066,-2.447567,4.288662,1.006324,-0.1078378,-0.07642281,-24.40166,16.06094,15.00288
66.398275852,-21.00292,-1.741457,4.227571,0.9995531,-0.1044948,-0.08173753,-24.40166,16.06094,15.00288
66.40816164,-23.1788,-1.859142,3.555565,0.996127,-0.118739,-0.09032602,-24.40166,16.06094,15.00288
66.418048382,-24.04916,-2.27104,2.700286,0.9869148,-0.124257,-0.1023316,-24.40166,16.06094,15.00288
66.427935124,-24.36,-3.977472,1.356275,0.9888117,-0.1364201,-0.1013062,-24.40166,16.06094,15.00288
66.437821865,-23.67615,-5.272007,0.989726799999999,0.9887915,-0.1462454,-0.1070276,-24.08684,16.43439,15.00473
66.44770813,-23.36531,-6.09580100000001,0.3788128,0.9912049,-0.1521367,-0.1098806,-24.08684,16.43439,15.00473
66.457594872,-22.12194,-7.50802099999999,-0.4764667,0.9906974,-0.1564751,-0.1069737,-24.08684,16.43439,15.00473
66.467481136,-20.62991,-6.860754,-0.5375581,0.9920632,-0.1748165,-0.09581832,-24.08684,16.43439,15.00473
66.477367401,-18.51619,-6.68422599999997,-1.759386,0.9925784,-0.1829682,-0.1198226,-24.08684,16.43439,15.00473
66.487254143,-15.46995,-5.683904,-1.881569,0.9992618,-0.2111383,-0.1139016,-24.41543,16.45451,15.84067
66.497140885,-12.85889,-3.212519,-2.248117,0.9933898,-0.2352101,-0.1286952,-24.41543,16.45451,15.84067
66.507027149,-9.68831099999998,-1.153032,-1.637203,0.9836065,-0.2680537,-0.1444107,-24.41543,16.45451,15.84067
66.516913891,-5.523044,0.3768721,-0.965197799999999,0.976274,-0.2856269,-0.1481776,-24.41543,16.45451,15.84067
66.526800633,-2.2903,1.318352,-0.598649399999998,0.9641138,-0.2953922,-0.1515086,-24.41543,16.45451,15.84067
66.536686421,-0.05224587,1.906777,0.562087,0.9563041,-0.3015706,-0.1423487,-24.10197,16.07184,15.85312
66.546573162,1.128949,2.612886,1.539549,0.9499473,-0.3087257,-0.1331823,-24.10197,16.07184,15.85312
66.556459904,2.185808,2.436359,3.433383,0.9553668,-0.2808796,-0.1265839,-24.10197,16.07184,15.85312
66.566346645,3.615676,1.671407,4.777393,0.9549385,-0.2513813,-0.1079776,-24.10197,16.07184,15.85312
66.578704357,5.294216,1.789092,5.571581,0.9778436,-0.2191656,-0.09993867,-24.10197,16.07184,15.85312
66.588591099,5.356384,2.200989,5.51049,0.9982566,-0.2019614,-0.08653661,-24.10197,16.07184,15.85312
66.59847784,3.615676,2.730572,6.42686099999998,0.9988545,-0.1802799,-0.102035,-24.10197,16.07184,15.85312
66.608364105,1.253286,3.024784,6.48795199999999,1.012542,-0.1560385,-0.107432,-24.10197,16.07184,15.85312
66.618250847,-1.419945,4.142791,6.48795199999999,1.013085,-0.1449547,-0.1151822,-24.10197,16.07184,15.85312
66.628137588,-4.093176,3.318996,6.54904400000003,1.012698,-0.1306474,-0.1354536,-24.09531,16.06468,15.464
66.638023376,-6.33123000000002,1.847934,5.632673,1.010836,-0.1132286,-0.1432385,-24.09531,16.06468,15.464
66.647910118,-7.512425,-0.2703952,3.494474,1.011358,-0.1040063,-0.1452082,-24.09531,16.06468,15.464
66.65779686,-8.13410699999998,-1.976827,2.333737,1.010926,-0.08792172,-0.1443281,-24.09531,16.06468,15.464
66.667683124,-8.258443,-2.74178,0.4399042,1.007018,-0.09323451,-0.1419011,-24.09531,16.06468,15.464
66.677569866,-7.20158399999998,-3.094834,-0.598649399999998,0.9904715,-0.1008852,-0.1346674,-24.10129,16.4499,15.84782
66.687456608,-6.45556599999999,-3.683259,-1.881569,0.9807256,-0.1105762,-0.1327058,-24.10129,16.4499,15.84782
66.697342396,-5.64738,-4.330527,-2.492483,0.9685569,-0.1227762,-0.1360245,-24.10129,16.4499,15.84782
66.707229137,-3.782336,-4.742424,-2.614666,0.9578605,-0.124631,-0.1312181,-24.10129,16.4499,15.84782
66.717115879,-1.233441,-4.271684,-3.225579,0.9675067,-0.1456608,-0.13591,-24.10129,16.4499,15.84782
66.727002144,1.750631,-2.682937,-2.981214,0.9626349,-0.1515089,-0.1368479,-23.72365,16.82244,15.85109
66.736888885,3.926517,-1.8003,-2.492483,0.9640319,-0.1725368,-0.1425111,-23.72365,16.82244,15.85109
66.746775627,5.85373000000002,-1.506087,-1.759386,0.96832,-0.1899533,-0.1342425,-23.72365,16.82244,15.85109
66.756662369,7.53226999999998,-1.09419,-0.781923700000001,0.9750606,-0.2020613,-0.1288835,-23.72365,16.82244,15.85109
66.766548157,8.46479200000001,-0.3292377,0.1955387,0.9842772,-0.2090118,-0.1365327,-23.72365,16.82244,15.85109
66.776434898,8.71346500000002,0.1415022,0.989726799999999,0.9910623,-0.2119469,-0.1365101,-24.10129,16.4499,15.84782
66.786321163,7.47010199999997,1.377194,1.722824,0.9983252,-0.2123476,-0.1297669,-24.10129,16.4499,15.84782
66.798679352,4.48603,3.024784,2.02828,1.00853,-0.2094604,-0.1307318,-24.10129,16.4499,15.84782
66.808566093,1.501958,4.083949,2.272646,1.004632,-0.2168217,-0.1350273,-24.10129,16.4499,15.84782
66.818452358,-1.109105,4.319319,2.639194,0.9983753,-0.212664,-0.1509258,-24.10129,16.4499,15.84782
66.8283391,-2.228132,4.378161,2.578103,0.9949787,-0.2076872,-0.1442219,-24.41474,16.83257,15.83536
66.838225841,-2.849813,4.319319,3.005743,0.9886733,-0.2037216,-0.1404018,-24.41474,16.83257,15.83536
66.848112583,-2.165963,4.260476,3.250108,0.9892004,-0.1930385,-0.1423788,-24.41474,16.83257,15.83536
66.857998848,-0.05224587,5.378483,3.555565,0.9949705,-0.201664,-0.1322293,-24.41474,16.83257,15.83536
66.867885113,2.185808,8.55597700000001,3.738839,1.007607,-0.1963181,-0.1312802,-24.41474,16.83257,15.83536
66.877771854,5.16988,11.14505,3.494474,1.005147,-0.2110368,-0.1389033,-24.40876,16.44735,15.45155
66.887658119,8.775634,12.91032,3.983205,1.00124,-0.2233179,-0.1465404,-24.40876,16.44735,15.45155
66.897544861,13.56258,13.96949,5.87703800000003,1.003612,-0.2344218,-0.1397487,-24.40876,16.44735,15.45155
66.907431602,17.10617,14.6756,6.54904400000003,0.9923814,-0.2513925,-0.1363093,-24.40876,16.44735,15.45155
66.917317867,18.97121,15.44055,7.037775,0.984544,-0.2638652,-0.1247131,-24.40876,16.44735,15.45155
66.927204132,19.65506,15.08749,7.46541499999997,0.9728455,-0.2814442,-0.1294467,-23.7092,16.80692,15.00801
66.937090874,22.07962,13.73412,7.83196300000002,0.9553908,-0.2810306,-0.1366825,-23.7092,16.80692,15.00801
66.946977139,26.30705,12.08653,8.320694,0.9462078,-0.2787718,-0.1496892,-23.7092,16.80692,15.00801
66.95686388,30.09931,8.90903199999997,9.78688699999998,0.939984,-0.2459613,-0.13832,-23.7092,16.80692,15.00801
66.966750622,33.45639,6.02575100000001,10.15344,0.9434618,-0.2265692,-0.1437042,-23.7092,16.80692,15.00801
66.976637363,37.31082,3.672051,9.42034000000002,0.9512503,-0.221751,-0.1461243,-24.07881,17.18335,14.60501
66.986523628,42.47078,4.437004,8.38178500000001,0.9758885,-0.239479,-0.1234034,-24.07881,17.18335,14.60501
66.996409893,45.26834,3.260154,9.48143099999997,0.9687188,-0.22026,-0.1417836,-24.07881,17.18335,14.60501
67.006296158,43.27896,1.200667,7.89305399999997,0.9771337,-0.1909537,-0.167411,-24.07881,17.18335,14.60501
67.018654823,46.07653,0.2591871,5.449399,1.001427,-0.1742369,-0.1535211,-24.07881,17.18335,14.60501
67.028541088,47.38206,2.965941,3.738839,1.005278,-0.1635944,-0.1251962,-24.75545,17.17797,13.74619
67.038427353,46.69821,4.790059,2.944651,1.000425,-0.1606056,-0.1213695,-24.75545,17.17797,13.74619
67.048314095,45.64135,5.672696,2.272646,0.9896969,-0.1657396,-0.1078899,-24.75545,17.17797,13.74619
67.058200836,44.52233,4.613531,2.089372,0.9944906,-0.1773136,-0.09965031,-24.75545,17.17797,13.74619
67.068087578,44.08715,2.436359,0.745361200000002,0.9871551,-0.183421,-0.08568108,-24.75545,17.17797,13.74619
67.077973843,43.52764,-0.0938677799999998,1.478458,0.984711,-0.1823128,-0.07703288,-24.37114,17.54334,13.36035
67.087860584,42.90596,-1.211875,1.600641,0.98033,-0.1752568,-0.06168404,-24.37114,17.54334,13.36035
67.097746372,42.09777,-2.153355,0.3788128,0.9881089,-0.1708753,-0.0607355,-24.37114,17.54334,13.36035
67.107633114,40.04622,-2.212197,-0.2931925,0.9846967,-0.1623172,-0.04250762,-24.37114,17.54334,13.36035
67.117519856,36.87564,-0.85882,-1.209563,0.9725893,-0.1515156,-0.03824768,-24.37114,17.54334,13.36035
67.127406597,33.6429,-1.035347,-1.94266,0.9672484,-0.1480101,-0.03250042,-24.35544,18.22094,12.50754
67.137292862,30.03715,-2.329882,-2.675757,0.9604738,-0.1376774,-0.02630836,-24.35544,18.22094,12.50754
67.147179604,26.92874,-4.918952,-3.225579,0.9561121,-0.1347255,-0.02488547,-24.35544,18.22094,12.50754
67.157066345,24.62852,-8.09644600000001,-4.080859,0.959542,-0.1274711,-0.02780376,-24.35544,18.22094,12.50754
67.166952133,25.56104,-9.62634999999999,-5.608143,0.9823374,-0.1378571,-0.03542009,-24.35544,18.22094,12.50754
67.176838875,25.87188,-11.27394,-5.424869,0.9716626,-0.1254179,-0.01914378,-24.03352,18.20798,12.06072
67.186725616,20.77409,-13.50995,-6.64669700000003,0.9741567,-0.0930037,-0.0005488172,-24.03352,18.20798,12.06072
67.196611881,17.79002,-14.51028,-7.25761099999999,0.98923,-0.07031025,0.02099509,-24.03352,18.20798,12.06072
67.206498623,15.48979,-14.39259,-8.35725599999999,1.003813,-0.05604497,0.03248169,-24.03352,18.20798,12.06072
67.216385365,11.75971,-13.45111,-8.78489600000001,1.00768,-0.05843703,0.03586463,-24.03352,18.20798,12.06072
67.226272106,8.71346500000002,-11.86236,-8.78489600000001,1.013448,-0.07352232,0.03739018,-24.0413,18.21633,12.51469
67.238629818,6.59974800000002,-10.62667,-9.02926199999999,1.025541,-0.0862213,0.03650626,-24.0413,18.21633,12.51469
67.24851656,5.107712,-8.03760300000001,-7.92961600000002,1.033279,-0.08954459,0.04326474,-24.0413,18.21633,12.51469
67.258403301,1.937135,-6.03695899999998,-7.37979399999998,1.024062,-0.09254155,0.03701743,-24.0413,18.21633,12.51469
67.268289089,-1.233441,-4.153999,-6.28014899999998,1.004062,-0.11228,0.04959838,-24.0413,18.21633,12.51469
67.278175831,-3.96884,-3.330204,-5.241595,0.9861109,-0.1157755,0.04141998,-24.0413,18.21633,12.51469
67.288062096,-7.01508000000001,-5.272007,-4.080859,0.9778373,-0.1325383,0.02658673,-24.0413,18.21633,12.51469
67.297948837,-9.62614300000003,-6.331171,-2.553574,0.9565366,-0.1164268,0.02648109,-24.0413,18.21633,12.51469
67.307835579,-12.54805,-7.39033600000002,-2.675757,0.9705691,-0.1306121,0.02416412,-24.0413,18.21633,12.51469
67.317722321,-15.53212,-7.80223399999999,-1.820477,0.9894882,-0.1390426,0.0165335,-24.0413,18.21633,12.51469
67.327608585,-17.83234,-6.801911,-0.965197799999999,0.9866533,-0.1345486,-0.008981247,-24.04797,18.22349,12.9038
67.337495327,-20.75424,-6.44885599999998,-0.598649399999998,1.003135,-0.1493766,-0.02139152,-24.04797,18.22349,12.9038
67.347381592,-23.48964,-4.801267,0.25663,1.008507,-0.1540717,-0.04156038,-24.04797,18.22349,12.9038
67.357267857,-25.85203,-3.565574,1.356275,1.02016,-0.1665632,-0.06120176,-24.04797,18.22349,12.9038
67.367154598,-26.90889,-1.623772,1.783915,1.016697,-0.1785863,-0.05152652,-24.04797,18.22349,12.9038
67.37704134,-27.77925,1.259509,2.822469,1.01281,-0.1939761,-0.07165186,-24.73907,18.23362,12.88807
67.386928082,-27.2819,3.377839,4.105388,0.9963129,-0.2029386,-0.08701481,-24.73907,18.23362,12.88807
67.396814346,-25.9142,4.201633,4.960668,0.9822628,-0.2095432,-0.1071961,-24.73907,18.23362,12.88807
67.406700611,-24.5465,3.495524,4.838485,0.9740532,-0.1978473,-0.1077454,-24.73907,18.23362,12.88807
67.416586876,-23.61398,3.730894,4.777393,0.9731365,-0.1822631,-0.1078252,-24.73907,18.23362,12.88807
67.426473618,-24.67084,4.613531,4.533028,0.9775474,-0.1760709,-0.1165081,-24.04199,17.83827,12.51999
67.436360359,-27.0954,5.143113,3.738839,0.9771162,-0.1594922,-0.1151496,-24.04199,17.83827,12.51999
67.448718071,-31.1985,5.496168,2.45592,0.9766801,-0.1533335,-0.1267233,-24.04199,17.83827,12.51999
67.458604813,-33.87173,5.025428,1.356275,0.9810656,-0.155441,-0.136807,-24.04199,17.83827,12.51999
67.468491554,-35.6746,4.495846,0.5009956,0.9824806,-0.1686202,-0.1386625,-23.30183,18.22079,13.37494
67.478378296,-36.66929,4.966586,-0.1099183,0.9843554,-0.1831317,-0.1318541,-23.30183,18.22079,13.37494
67.488264561,-37.22881,4.613531,-0.5375581,0.9863099,-0.1787386,-0.1309123,-23.30183,18.22079,13.37494
67.498151302,-37.97482,2.907099,-0.3542839,0.9790302,-0.1727587,-0.1227751,-23.30183,18.22079,13.37494
67.508038044,-37.97482,0.788769499999999,0.1955387,0.9848853,-0.1699779,-0.1314391,-23.30183,18.22079,13.37494
67.517923832,-37.22881,-0.5646076,0.3177214,0.9921978,-0.1652163,-0.1377068,-24.05701,17.53874,13.3675
67.527810574,-35.98544,-0.4469227,-0.1710097,1.008228,-0.167318,-0.1458536,-24.05701,17.53874,13.3675
67.537697315,-34.1204,1.553722,-0.4764667,1.017398,-0.1734796,-0.1333081,-24.05701,17.53874,13.3675
67.54758358,-32.37969,4.848901,-1.51502,1.013432,-0.1963368,-0.1317544,-24.05701,17.53874,13.3675
67.557470322,-30.82549,7.49681300000002,-1.759386,0.9943875,-0.2274209,-0.1287334,-24.05701,17.53874,13.3675
67.567357063,-28.89827,7.26144300000002,-1.637203,0.9793558,-0.230471,-0.1393154,-24.05701,17.53874,13.3675
67.577243805,-26.78456,6.14343500000001,-1.576112,0.97594,-0.2313447,-0.1330628,-24.05701,17.53874,13.3675
67.587129593,-25.41686,5.90806599999998,-1.392838,0.9803163,-0.2294128,-0.1335485,-24.05701,17.53874,13.3675
67.597016334,-24.23566,5.96690800000001,-0.843015,0.9802821,-0.2416368,-0.1368533,-24.05701,17.53874,13.3675
67.606902599,-21.43809,6.08459299999998,-0.04882693,0.9793213,-0.2521484,-0.1560381,-24.05701,17.53874,13.3675
67.616789341,-17.45933,6.14343500000001,1.050818,0.9662039,-0.2600072,-0.1622653,-24.07214,17.17619,14.21589
67.626676083,-14.28875,5.73153800000001,1.661732,0.956953,-0.2722489,-0.167985,-24.07214,17.17619,14.21589
67.636562824,-11.30468,4.907743,2.822469,0.9525612,-0.2840349,-0.1751442,-24.07214,17.17619,14.21589
67.646449089,-7.88543400000003,5.084271,3.3112,0.9549847,-0.2889954,-0.1808874,-24.07214,17.17619,14.21589
67.656335354,-4.777026,5.437326,3.555565,0.9564019,-0.2972117,-0.176516,-24.07214,17.17619,14.21589
67.668694019,-0.611759299999997,6.08459299999998,3.189017,0.9593394,-0.2859314,-0.1707986,-24.06436,17.16784,13.76192
67.678580284,1.43979,4.966586,2.822469,0.9666349,-0.2706131,-0.1549973,-24.06436,17.16784,13.76192
67.688467026,1.626294,3.201311,3.250108,0.9744853,-0.2413037,-0.1479227,-24.06436,17.16784,13.76192
67.698352814,1.128949,2.848256,2.822469,0.9857036,-0.2212675,-0.1417592,-24.06436,17.16784,13.76192
67.708239555,0.5072676,3.377839,1.478458,0.9900756,-0.2138353,-0.1326543,-24.06436,17.16784,13.76192
67.718126297,0.3829313,4.260476,0.3788128,0.9930501,-0.1993045,-0.1375336,-24.38653,16.42348,14.15449
67.728013039,0.818108400000001,4.201633,-1.209563,0.988108,-0.2126706,-0.1201585,-24.38653,16.42348,14.15449
67.737899303,2.310144,4.378161,-1.270655,0.9788417,-0.2213311,-0.1143542,-24.38653,16.42348,14.15449
67.747786045,5.480721,3.848579,-1.637203,0.9729465,-0.2353044,-0.1051528,-24.38653,16.42348,14.15449
67.757672787,8.71346500000002,2.730572,0.3788128,0.981088,-0.2525415,-0.08437684,-24.38653,16.42348,14.15449
67.767558575,11.94621,1.436037,0.989726799999999,0.9970781,-0.2514051,-0.07137954,-24.37849,17.17244,13.75477
67.777445316,16.60882,1.494879,1.845006,1.01109,-0.2550121,-0.05018485,-24.37849,17.17244,13.75477
67.787332058,21.76878,2.436359,2.761377,1.015427,-0.2553207,-0.03767442,-24.37849,17.17244,13.75477
67.7972188,27.17741,3.672051,3.799931,1.019752,-0.2650035,-0.03329228,-24.37849,17.17244,13.75477
67.807105064,31.71568,5.613853,4.716302,1.010017,-0.2697891,-0.02895087,-24.37849,17.17244,13.75477
67.816991806,36.62697,7.32028499999999,4.838485,0.980907,-0.2698106,-0.03427399,-24.75613,16.79991,13.75149
67.826878548,41.10308,8.14407899999999,4.960668,0.9620485,-0.269725,-0.06363206,-24.75613,16.79991,13.75149
67.836764336,45.64135,7.84986700000002,5.388307,0.9470238,-0.2643604,-0.06511901,-24.75613,16.79991,13.75149
67.846651077,48.6876,8.49713400000001,6.18249599999998,0.9465605,-0.2590246,-0.06658927,-24.75613,16.79991,13.75149
67.856537819,49.37144,8.96787499999997,6.85450100000001,0.9611679,-0.2414298,-0.06040959,-24.75613,16.79991,13.75149
67.866424084,47.75507,11.32157,7.95414600000001,0.9762291,-0.2325938,-0.05370422,-24.04392,16.76711,12.53502
67.876310825,44.14932,15.73476,8.80942499999997,0.9888523,-0.2182096,-0.03452571,-24.04392,16.76711,12.53502
67.888669014,40.6679,22.79586,9.35924799999999,0.9883893,-0.2208376,-0.04749783,-24.04392,16.76711,12.53502
67.898555279,40.23272,28.20937,10.88653,0.9830077,-0.2280233,-0.04025383,-24.04392,16.76711,12.53502
67.90844202,40.97874,35.91773,12.536,0.9664136,-0.2368688,-0.0152201,-24.04392,16.76711,12.53502
67.918328762,44.5845,42.15504,13.75783,0.9547956,-0.230573,-0.01911249,-24.34224,17.51231,11.67418
67.928215504,47.56857,49.03961,15.10184,0.9435581,-0.2330699,0.007818928,-24.34224,17.51231,11.67418
67.938101768,49.74445,54.9827,16.87349,0.9333516,-0.2215191,0.02987132,-24.34224,17.51231,11.67418
67.947988033,51.796,60.1608400000003,17.91204,0.9376543,-0.2290744,0.04626571,-24.34224,17.51231,11.67418
67.957874298,52.66636,61.6907400000002,19.50042,0.9386713,-0.2154346,0.04667886,-24.34224,17.51231,11.67418
67.96776104,53.22587,61.3965299999998,20.84443,0.9571403,-0.2056746,0.05049791,-25.06726,17.49234,9.970843
67.977647781,52.91503,61.98495,19.56151,0.9795952,-0.1756718,0.04075341,-25.06726,17.49234,9.970843
67.987534523,49.37144,65.5154999999997,18.03423,0.978795,-0.1135472,0.05919448,-25.06726,17.49234,9.970843
67.997420788,53.84755,79.8730700000002,14.24656,1.005791,-0.1268665,0.1165221,-25.06726,17.49234,9.970843
68.007307529,47.56857,80.5203399999999,12.35273,0.9469886,-0.06814957,0.02959272,-25.06726,17.49234,9.970843
68.017194271,46.1387,79.5200100000002,9.17597399999999,0.9430093,-0.1008752,0.02253975,-25.02976,18.52532,7.880525
68.027080059,49.62012,74.0476599999998,6.36576900000001,0.9328651,-0.09220509,0.01478967,-25.02976,18.52532,7.880525
68.036966801,50.86348,71.8116500000002,7.77087200000001,0.9318523,-0.1307531,-0.02300945,-25.02976,18.52532,7.880525
68.046853542,54.78008,66.6335100000002,9.237065,0.9424573,-0.1337945,0.002987716,-25.02976,18.52532,7.880525
68.056739807,51.73383,70.10522,7.70977999999998,0.9523762,-0.1430317,0.1030773,-25.02976,18.52532,7.880525
68.066626549,42.53294,79.2257999999998,4.349754,0.9464125,-0.1535871,0.1454449,-24.97906,18.84968,4.956844
68.07651329,33.8294,84.6981499999997,2.150463,0.9192199,-0.1803319,0.1118846,-24.97906,18.84968,4.956844
68.086400032,30.28582,85.6396299999999,2.761377,0.9172622,-0.1916717,0.1023213,-24.97906,18.84968,4.956844
68.09628582,29.85064,87.2872199999997,5.327216,0.8943952,-0.183819,0.1359201,-24.97906,18.84968,4.956844
68.108644485,28.79378,91.4650399999998,7.221049,0.8578048,-0.1880391,0.2070761,-24.97906,18.84968,4.956844
68.118531227,27.30175,97.5258200000002,8.50396799999999,0.8352638,-0.2150102,0.2567216,-25.31977,19.19508,2.86767
68.128417492,31.90219,101.7036,14.55202,0.8144148,-0.2300376,0.2259949,-25.31977,19.19508,2.86767
68.138303757,39.17587,96.1135900000002,20.05024,0.8155116,-0.2014751,0.2147907,-25.31977,19.19508,2.86767
68.148190022,46.20087,87.9344900000001,20.41679,0.8354928,-0.1701772,0.2261973,-25.31977,19.19508,2.86767
68.158076763,47.31989,77.0486300000001,13.02473,0.8785368,-0.1454005,0.3256717,-25.31977,19.19508,2.86767
68.167963505,42.53294,85.5807900000001,2.822469,0.8940182,-0.1262008,0.3741653,-25.28001,18.39481,0.4787242
68.177850246,38.36768,92.64189,-6.21905800000003,0.8942102,-0.09606254,0.3379441,-25.28001,18.39481,0.4787242
68.187736511,32.83471,94.1717899999999,-11.53401,0.885585,-0.04051687,0.3713181,-25.28001,18.39481,0.4787242
68.197623253,29.66413,96.5254899999999,-14.09985,0.8686578,-0.04534766,0.3391016,-25.28001,18.39481,0.4787242
68.207509518,25.00152,96.76086,-13.91657,0.8126494,0.04645343,0.3481924,-25.28001,18.39481,0.4787242
68.217395783,25.00152,93.2891500000001,-14.71076,0.7717102,0.003303602,0.3555777,-25.23598,18.72633,-2.055839
68.227282524,27.36391,88.2286999999999,-14.34421,0.7463023,-0.05281082,0.3447712,-25.23598,18.72633,-2.055839
68.237169266,26.8044,78.5196900000002,-12.87802,0.7656508,-0.07233425,0.344411,-25.23598,18.72633,-2.055839
68.247056007,22.7013,71.9293400000001,-13.06129,0.8087313,-0.08162637,0.380095,-25.23598,18.72633,-2.055839
68.256942272,14.4951,68.8106799999999,-15.62713,0.8382128,-0.1167163,0.3822296,-25.23598,18.72633,-2.055839
68.266829014,6.22673899999999,70.3405799999998,-15.38277,0.8400435,-0.1399066,0.3948528,-25.56292,18.67816,-4.982796
68.276715756,-0.114414,73.7534499999999,-15.8715,0.846309,-0.1416295,0.410739,-25.56292,18.67816,-4.982796
68.286601543,-3.533663,75.22451,-12.69475,0.8335343,-0.1734698,0.4291604,-25.56292,18.67816,-4.982796
68.296488285,-4.839194,77.6370499999998,-12.45038,0.8085682,-0.2193572,0.4510053,-25.56292,18.67816,-4.982796
68.306375027,-4.839194,76.8720999999998,-11.83947,0.779358,-0.2013288,0.5129198,-25.56292,18.67816,-4.982796
68.316261292,-8.38277900000002,76.5190500000002,-10.92309,0.7628931,-0.1786449,0.5296187,-25.90499,18.26744,-7.061362
68.32861948,-13.54274,69.04605,-12.02274,0.7709893,-0.1647421,0.6137189,-25.90499,18.26744,-7.061362
68.338506222,-15.15911,60.74926,-7.01324599999999,0.7735129,-0.1449546,0.6020796,-25.90499,18.26744,-7.061362
68.348392487,-14.7861,61.2788399999999,-8.54052999999998,0.7882001,-0.1154235,0.5923287,-25.90499,18.26744,-7.061362
68.358279228,-14.9726,61.4553700000001,-9.76235899999999,0.8061742,-0.1110765,0.5923272,-25.90499,18.26744,-7.061362
68.36816597,-15.71862,60.2785199999999,-10.862,0.8255801,-0.1234971,0.5784653,-25.5129,18.62446,-7.901173
68.378052712,-19.26221,68.10458,-10.73982,0.8066443,-0.1865417,0.6912978,-25.5129,18.62446,-7.901173
68.387938976,-32.7527,87.7579700000001,6.91559200000002,0.6800338,-0.2310392,0.5971183,-25.5129,18.62446,-7.901173
68.397825718,-32.81487,80.2261300000001,6.91559200000002,0.6581556,-0.1790922,0.4857381,-25.5129,18.62446,-7.901173
68.407711506,-29.02261,76.3425199999999,4.105388,0.8134638,-0.231495,0.61699,-25.5129,18.62446,-7.901173
68.417598248,-26.16287,76.4013599999997,8.19851100000001,0.7375471,-0.1197784,0.4571543,-24.73855,18.21268,-9.110911
68.427484989,-24.5465,56.9245,1.661732,0.8408797,-0.1558994,0.6281813,-24.73855,18.21268,-9.110911
68.437371731,-27.34407,67.2219299999999,-2.675757,0.8730961,-0.156612,0.552236,-24.73855,18.21268,-9.110911
68.447257996,-19.75955,60.6315799999998,-9.94563200000002,0.9542289,-0.1556738,0.7235314,-24.73855,18.21268,-9.110911
68.457144737,-21.93544,40.4486,-5.363778,0.7567306,-0.1939146,0.6475146,-24.73855,18.21268,-9.110911
68.467031479,-23.98699,48.3335,-7.74634200000002,0.7539878,-0.2332189,0.7217719,-23.95504,18.54866,-10.78523
68.476918221,-17.95668,39.86018,-7.074337,0.6888304,-0.2155101,0.5946452,-23.95504,18.54866,-10.78523
68.486804009,-14.72393,40.15439,-7.135428,0.7995424,-0.2443075,0.7353455,-23.95504,18.54866,-10.78523
68.49669075,-19.44871,60.3373600000003,-10.862,0.8548799,-0.2648491,0.7042524,-23.95504,18.54866,-10.78523
68.506577015,-19.32438,50.33414,-6.64669700000003,0.7267256,-0.2545477,0.7247342,-23.95504,18.54866,-10.78523
68.516463757,-21.6246,53.33511,-5.669235,0.7259794,-0.229092,0.6683369,-23.95573,18.1706,-10.77993
68.526350498,-24.04916,54.92385,-3.653219,0.7568269,-0.2576439,0.7170893,-23.95573,18.1706,-10.77993
68.53870821,-26.72239,60.1019900000002,-1.026289,0.6881248,-0.2350188,0.6577436,-23.95573,18.1706,-10.77993
68.548594952,-23.86265,52.2171,0.989726799999999,0.6243258,-0.2444841,0.7327425,-23.95573,18.1706,-10.77993
68.558481693,-22.86796,63.2206499999998,3.066834,0.6718821,-0.2743702,0.694474,-22.50866,19.28359,-10.76295
68.568368435,-22.43279,60.6904200000002,6.18249599999998,0.7364073,-0.2479345,0.7449105,-22.50866,19.28359,-10.76295
68.5782547,-24.04916,58.7486199999999,11.31417,0.5965624,-0.2766614,0.7266216,-22.50866,19.28359,-10.76295
68.588141441,-22.18411,55.10038,16.0793,0.6571634,-0.2614034,0.778072,-22.50866,19.28359,-10.76295
68.598027229,-19.0757,52.92321,17.91204,0.5465582,-0.2685342,0.7423941,-22.50866,19.28359,-10.76295
68.607913971,-15.15911,50.03993,19.86697,0.5963667,-0.2784109,0.8050205,-22.502,19.27643,-11.15206
68.617800712,-12.29937,49.80456,21.0277,0.5792658,-0.2756744,0.8554838,-22.502,19.27643,-11.15206
68.627687454,-11.42902,51.56984,20.66115,0.5424225,-0.2689209,0.8462703,-22.502,19.27643,-11.15206
68.637573719,-8.693621,48.45118,20.84443,0.5418821,-0.2009735,0.7656125,-22.502,19.27643,-11.15206
68.647460461,-6.766407,40.97819,17.72877,0.5970153,-0.2052958,0.8421634,-22.502,19.27643,-11.15206
68.657347202,-6.45556599999999,37.38879,17.11785,0.5243039,-0.2022683,0.8069583,-20.66489,19.61227,-11.95898
68.667233944,-5.336539,30.09233,15.52948,0.5330795,-0.1900903,0.8083494,-20.66489,19.61227,-11.95898
68.677119732,-6.51773500000002,23.79618,14.06328,0.5620461,-0.2065797,0.8493441,-20.66489,19.61227,-11.95898
68.687006473,-7.01508000000001,21.79554,11.55854,0.5542987,-0.2022034,0.8478703,-20.66489,19.61227,-11.95898
68.696892738,-6.766407,17.44119,9.29815699999998,0.5527976,-0.2208268,0.8397871,-20.66489,19.61227,-11.95898
68.70677948,-5.83388499999998,13.4399,7.09886600000001,0.529548,-0.2051625,0.8420861,-20.6556,21.05434,-12.36843
68.716666222,-4.839194,8.96787499999997,4.16648,0.5552092,-0.2212322,0.8455629,-20.6556,21.05434,-12.36843
68.726552963,-3.720167,3.024784,2.02828,0.5953844,-0.2385255,0.8668566,-20.6556,21.05434,-12.36843
68.736439228,-0.611759299999997,-1.506087,0.0733558600000001,0.573018,-0.2611254,0.850594,-20.6556,21.05434,-12.36843
68.74632597,2.620985,-5.91927400000001,-1.148472,0.5995519,-0.2920048,0.8733835,-20.6556,21.05434,-12.36843
68.758684158,3.740012,-9.92056299999999,-0.843015,0.6092089,-0.3136006,0.8634042,-20.66364,20.30538,-11.96871
68.768570423,3.11833,-13.03922,-0.1099183,0.6324882,-0.3140258,0.8706467,-20.66364,20.30538,-11.96871
68.778457165,3.304835,-17.15819,0.3177214,0.6194263,-0.3152686,0.8509203,-20.66364,20.30538,-11.96871
68.788343906,5.107712,-21.7479,0.3177214,0.6389217,-0.3008856,0.8383659,-20.66364,20.30538,-11.96871
68.798229694,6.22673899999999,-26.10225,0.6842698,0.6481376,-0.3003665,0.8417402,-20.66364,20.30538,-11.96871
68.808116436,4.734703,-30.7508,1.234092,0.6564304,-0.2931793,0.8349804,-21.04128,19.93284,-11.97198
68.818003178,3.740012,-35.63473,1.539549,0.6685485,-0.2851388,0.8532286,-21.04128,19.93284,-11.97198
68.827889919,2.620985,-39.57717,0.928635399999997,0.6715233,-0.2835492,0.8296587,-21.04128,19.93284,-11.97198
68.837776184,1.937135,-43.99036,0.3177214,0.6671726,-0.2841497,0.8214812,-21.04128,19.93284,-11.97198
68.847662926,2.745321,-48.3447,0.1955387,0.6637995,-0.2857909,0.8089817,-21.04128,19.93284,-11.97198
68.857549667,3.553508,-52.52252,-1.026289,0.6783518,-0.2917349,0.8042191,-20.65629,20.67628,-12.36313
68.867435932,6.04023399999999,-56.64149,-1.94266,0.6803096,-0.3017941,0.7831116,-20.65629,20.67628,-12.36313
68.877322197,7.03492499999999,-60.4074100000001,-1.94266,0.7069699,-0.3170501,0.7760052,-20.65629,20.67628,-12.36313
68.887208939,8.02961499999997,-64.11449,-1.087381,0.7220063,-0.3140287,0.7846636,-20.65629,20.67628,-12.36313
68.897095203,9.397315,-66.1151399999998,-0.3542839,0.7022181,-0.2997693,0.7585993,-20.65629,20.67628,-12.36313
68.906981945,12.69223,-68.1746200000002,0.3788128,0.6999261,-0.2807109,0.7301261,-21.3614,20.32267,-11.59532
68.916868687,15.42763,-67.9980899999999,-2.614666,0.6975209,-0.2838292,0.7166733,-21.3614,20.32267,-11.59532
68.926755428,16.79533,-70.9402199999999,-4.019767,0.7178624,-0.2865754,0.7311379,-21.3614,20.32267,-11.59532
68.936641693,16.98183,-73.5881299999997,-3.103397,0.7117451,-0.258917,0.6910748,-21.3614,20.32267,-11.59532
68.946528435,15.80064,-78.9427899999997,-2.3703,0.7316147,-0.2751837,0.6805993,-21.3614,20.32267,-11.59532
68.956414223,14.74378,-72.9996999999997,-3.408854,0.7433137,-0.2541242,0.6901246,-22.1231,20.34207,-11.15851
68.966300964,16.67099,-81.5318599999998,-4.630681,0.7020842,-0.2601881,0.6699097,-22.1231,20.34207,-11.15851
68.97865963,19.9659,-96.8309099999999,-5.302687,0.6804077,-0.2497434,0.61645,-22.1231,20.34207,-11.15851
68.988546371,21.83095,-96.2424900000001,-5.791418,0.7609309,-0.2242125,0.6736422,-22.1231,20.34207,-11.15851
68.998432159,21.83095,-99.0080800000002,-5.91360000000002,0.8016717,-0.2445025,0.6574396,-22.1231,20.34207,-11.15851
69.008318901,24.13117,-95.53638,-5.302687,0.78005,-0.2219632,0.5986288,-22.53021,19.68552,-9.471195
69.018205643,26.6179,-104.3627,-4.56959,0.7726574,-0.227711,0.6366422,-22.53021,19.68552,-9.471195
69.028091908,29.47763,-104.0685,-0.2931925,0.7432485,-0.2065166,0.5845622,-22.53021,19.68552,-9.471195
69.037978649,25.06369,-110.5412,0.25663,0.7750472,-0.2269843,0.6529927,-22.53021,19.68552,-9.471195
69.047865391,19.09555,-100.0672,6.06031299999999,0.7782117,-0.2106682,0.5721191,-22.53021,19.68552,-9.471195
69.057752132,21.45794,-108.7171,3.494474,0.756772,-0.1534499,0.4876443,-23.30468,20.03429,-8.260571
69.067638397,24.69068,-123.0747,-2.064843,0.8275786,-0.163672,0.4973949,-23.30468,20.03429,-8.260571
69.077524662,23.26081,-128.1351,-0.4153753,0.8582576,-0.1509301,0.4742812,-23.30468,20.03429,-8.260571
69.087410927,19.09555,-129.8415,3.677748,0.9139287,-0.1944002,0.4731214,-23.30468,20.03429,-8.260571
69.097297668,13.25174,-121.8978,10.94762,0.8924166,-0.1158241,0.4491347,-23.30468,20.03429,-8.260571
69.10718441,10.019,-123.2512,9.60361400000002,0.8347826,-0.1652718,0.3262033,-24.79387,19.02965,-5.814027
69.117071152,-17.58367,-71.0579000000001,36.6671,0.9443678,-0.09861026,0.4673818,-24.79387,19.02965,-5.814027
69.126957417,-4.093176,-82.5910299999999,10.58108,0.841917,-0.1828545,0.1608634,-24.79387,19.02965,-5.814027
69.136844158,-2.974149,-119.603,16.44585,0.8360063,-0.174834,0.2079464,-24.79387,19.02965,-5.814027
69.1467309,-3.036318,-126.0756,9.053791,0.9023391,-0.1266558,0.3448409,-24.79387,19.02965,-5.814027
69.156617641,-6.766407,-115.0132,7.83196300000002,0.9005891,-0.1348284,0.2539861,-24.82807,19.82396,-3.749345
69.166503429,-10.55867,-111.1885,8.13742,0.8947923,-0.131509,0.2472299,-24.82807,19.82396,-3.749345
69.176390171,-16.1538,-112.0711,6.06031299999999,0.869749,-0.1292155,0.1692806,-24.82807,19.82396,-3.749345
69.186276436,-20.07039,-113.1303,4.65521,0.8750339,-0.1388356,0.1779918,-24.82807,19.82396,-3.749345
69.198635101,-21.37593,-110.4824,1.11191,0.8625526,-0.1431686,0.1145179,-24.82807,19.82396,-3.749345
69.208521366,-20.81641,-114.0718,-2.859031,0.8616492,-0.1341376,0.0995627,-24.87085,20.18554,-1.224505
69.218407631,-21.74893,-119.7795,-7.50197599999999,0.8535023,-0.1248282,0.06968929,-24.87085,20.18554,-1.224505
69.228294373,-21.74893,-118.5438,-10.00672,0.8406186,-0.1072908,0.003218912,-24.87085,20.18554,-1.224505
69.238181114,-12.92105,-139.7271,-10.43436,0.8802131,-0.1533418,0.02273348,-24.87085,20.18554,-1.224505
69.248067856,3.180499,-168.0303,-7.19651999999998,0.8155211,-0.1185887,-0.07177621,-24.87085,20.18554,-1.224505
69.257954121,24.69068,-205.866,-8.72380399999998,0.8182241,-0.04917586,-0.08655154,-24.92768,19.5521,2.02786
69.267840862,33.33206,-233.4043,-15.93259,0.9074075,-0.01322572,0.01724714,-24.92768,19.5521,2.02786
69.277727604,29.16679,-236.2288,-26.86795,0.9787624,0.01546592,0.05661882,-24.92768,19.5521,2.02786
69.287614346,11.94621,-217.0461,-38.29204,1.0519,-0.01306357,0.07993035,-24.92768,19.5521,2.02786
69.297500134,-13.4184,-166.7946,-44.76773,1.084489,-0.08613788,0.1476656,-24.92768,19.5521,2.02786
69.307386875,-44.93766,-114.8956,-39.63605,0.982291,-0.07784856,0.06959832,-24.25142,20.31888,6.639846
69.31727314,-68.6237300000001,-116.602,-37.98658,0.8014603,-0.03911475,-0.1650116,-24.25142,20.31888,6.639846
69.327159882,-67.1317000000002,-126.664,-43.85136,0.7077678,-0.1407703,-0.1040084,-24.25142,20.31888,6.639846
69.337046623,-45.49717,-133.9017,-48.92194,0.5883745,-0.2156555,-0.0147953,-24.25142,20.31888,6.639846
69.346933365,-22.12194,-132.9602,-45.86737,0.505569,-0.2659027,0.03345657,-24.25142,20.31888,6.639846
69.35681963,0.5694358,-125.193,-38.23095,0.4730553,-0.273344,0.01999142,-23.63146,20.38512,10.80616
69.366706371,21.02276,-117.3669,-32.73272,0.4822313,-0.2705823,0.0430721,-23.63146,20.38512,10.80616
69.376592636,28.1721,-107.4226,-27.2345,0.5817413,-0.2718247,0.03838232,-23.63146,20.38512,10.80616
69.386478901,24.75285,-91.6527699999998,-21.24754,0.7366629,-0.2562556,0.02549493,-23.63146,20.38512,10.80616
69.396365643,14.99245,-72.6466500000001,-24.85193,0.9236357,-0.2567779,-0.01709181,-23.63146,20.38512,10.80616
69.406252384,2.869658,-52.11062,-27.60105,1.114596,-0.3370151,-0.01646922,-23.68341,19.36765,13.73956
69.418610096,-15.22128,-30.3389,-15.38277,1.310874,-0.4211009,-0.01197377,-23.68341,19.36765,13.73956
69.428496838,-30.32814,-13.74532,-0.5375581,1.41577,-0.4475355,-0.07231697,-23.68341,19.36765,13.73956
69.438383579,-49.66244,-3.330204,8.93160800000002,1.500389,-0.4651596,-0.1649494,-23.68341,19.36765,13.73956
69.448269844,-63.2772699999999,12.38074,19.98915,1.519455,-0.4839712,-0.2480321,-22.94326,19.75018,14.5945
69.458156586,-46.49186,23.61965,22.55499,1.400217,-0.474322,-0.3025605,-22.94326,19.75018,14.5945
69.468043327,-10.86951,25.50261,23.77682,1.263019,-0.5277553,-0.2466597,-22.94326,19.75018,14.5945
69.477930069,29.60197,22.38396,23.22699,1.111997,-0.4742658,-0.1417799,-22.94326,19.75018,14.5945
69.487816334,60.0021999999999,17.85309,20.17242,1.039671,-0.4103913,-0.04840533,-22.94326,19.75018,14.5945
69.497703076,81.8232199999997,24.32576,18.27859,1.019012,-0.3186366,-0.005128673,-23.3209,19.37764,14.59123
69.50758934,75.1090599999999,27.32673,18.64514,0.9842263,-0.1509654,-0.03246618,-23.3209,19.37764,14.59123
69.517475605,61.4942400000001,34.85857,14.61311,0.9928311,-0.0402506,-0.02003101,-23.3209,19.37764,14.59123
69.527362347,45.95219,40.50745,11.19199,1.011527,-0.00903313,-0.07932079,-23.3209,19.37764,14.59123
69.537249088,29.16679,42.15504,10.15344,0.9738428,-0.004093021,-0.1447939,-23.3209,19.37764,14.59123
69.54713583,8.65129700000001,44.92064,6.54904400000003,0.9491266,-0.03463962,-0.2043018,-23.2991,19.73303,13.35372
69.557022095,-8.63145299999999,48.3335,3.372291,0.9297026,-0.07236435,-0.25463,-23.2991,19.73303,13.35372
69.566908836,-23.11663,48.7454,1.722824,0.9038874,-0.114042,-0.277052,-23.2991,19.73303,13.35372
69.576795578,-32.31752,51.92289,1.478458,0.880944,-0.1549724,-0.2816805,-23.2991,19.73303,13.35372
69.58668232,-35.30159,53.68816,2.88356,0.8482858,-0.199321,-0.2882264,-23.2991,19.73303,13.35372
69.596568108,-34.80425,50.45183,5.449399,0.8283868,-0.2112344,-0.3059829,-22.5217,20.39122,12.0641
69.606454849,-27.77925,43.80263,8.80942499999997,0.8239882,-0.2065556,-0.2867747,-22.5217,20.39122,12.0641
69.616341114,-16.58898,37.32995,12.41382,0.8578765,-0.2115405,-0.2573748,-22.5217,20.39122,12.0641
69.628699779,-5.64738,24.44345,15.16293,0.9070874,-0.16555,-0.2690934,-22.5217,20.39122,12.0641
69.638586044,4.050853,18.08846,14.61311,0.9416041,-0.1380974,-0.2523606,-22.5217,20.39122,12.0641
69.648472309,13.56258,14.96981,12.78037,0.9658573,-0.1325732,-0.2379333,-24.01745,19.70589,11.26127
69.658359051,23.01214,14.38138,13.14691,0.9831858,-0.152592,-0.2065526,-24.01745,19.70589,11.26127
69.668245792,31.52918,16.14666,14.73529,0.9748708,-0.1407287,-0.1633391,-24.01745,19.70589,11.26127
69.678132534,35.50794,16.44087,12.16945,0.9843971,-0.1490577,-0.1002855,-24.01745,19.70589,11.26127
69.688018799,35.07277,16.85277,9.48143099999997,0.9944239,-0.1559917,-0.04156669,-24.01745,19.70589,11.26127
69.69790554,29.97498,17.32351,7.09886600000001,1.003038,-0.1776267,-0.0217298,-23.63981,20.07843,11.26455
69.707792282,21.1471,18.44151,4.777393,1.001117,-0.1807387,-0.03470112,-23.63981,20.07843,11.26455
69.717679024,11.69754,20.26563,3.005743,1.010272,-0.2032212,-0.03890539,-23.63981,20.07843,11.26455
69.727564812,1.937135,23.03123,2.88356,1.019965,-0.2175848,-0.05373034,-23.63981,20.07843,11.26455
69.737451553,-7.94760199999998,27.79747,3.433383,1.024703,-0.2432371,-0.04253414,-23.63981,20.07843,11.26455
69.747337818,-17.335,35.21162,5.449399,1.010079,-0.2607241,-0.04150056,-23.61633,20.74767,9.957765
69.75722456,-22.49495,41.39008,9.29815699999998,0.9852253,-0.28692,-0.03802999,-23.61633,20.74767,9.957765
69.767111301,-24.67084,48.09813,13.69674,0.9375588,-0.2886854,0.0003984123,-23.61633,20.74767,9.957765
69.776998043,-25.47902,56.63029,19.31714,0.9107209,-0.3205769,0.01351392,-23.61633,20.74767,9.957765
69.786884308,-25.29252,65.9274,25.79283,0.9114675,-0.342552,0.07470279,-23.61633,20.74767,9.957765
69.796771049,-23.55181,79.16696,34.58999,0.923864,-0.3536071,0.1512392,-24.30144,20.37258,9.558222
69.806657791,-18.76486,94.8779000000001,42.59296,0.92085,-0.3410157,0.2112873,-24.30144,20.37258,9.558222
69.816543579,-12.54805,107.6467,48.51883,0.9222821,-0.3378812,0.2257007,-24.30144,20.37258,9.558222
69.826430321,-4.031008,116.4731,53.52832,0.9064193,-0.3298684,0.1732218,-24.30144,20.37258,9.558222
69.836317062,13.50041,123.2988,55.1167,0.9010115,-0.3533104,0.168044,-24.30144,20.37258,9.558222
69.848675728,41.60042,138.539,51.45122,0.9141975,-0.3384207,0.1559607,-23.9584,20.33695,7.879199
69.858561993,53.53671,138.0094,44.12025,0.9311341,-0.3063591,0.02260279,-23.9584,20.33695,7.879199
69.868448257,78.6526399999998,148.248,36.91146,0.9481606,-0.295687,0.02208729,-23.9584,20.33695,7.879199
69.878334522,89.6564100000001,136.7738,21.14989,0.9052689,-0.2437953,-0.03064409,-23.9584,20.33695,7.879199
69.888221264,91.7701299999998,121.2982,6.304678,0.8622113,-0.2182254,-0.05246371,-23.9584,20.33695,7.879199
69.898108005,84.7451200000002,112.8837,-5.608143,0.8213615,-0.1937645,0.01469518,-23.52938,21.4119,4.95349
69.907994747,78.21747,111.648,-16.29914,0.7815332,-0.1691279,0.06117474,-23.52938,21.4119,4.95349
69.917881012,68.8922400000001,107.8232,-25.27957,0.7451666,-0.1210167,0.1147534,-23.52938,21.4119,4.95349
69.927767754,56.39645,94.5836900000003,-28.57851,0.7294225,-0.05702446,0.09325162,-23.52938,21.4119,4.95349
69.937654495,41.10308,76.5190500000002,-28.76178,0.7790558,-0.01411995,0.1031906,-23.52938,21.4119,4.95349
69.947541237,22.07962,66.2216099999999,-25.8294,0.8567517,0.06263449,0.1985944,-23.45064,22.46374,0.4627342
69.957427025,-2.041627,64.8093900000001,-27.29559,0.950902,0.1137834,0.277314,-23.45064,22.46374,0.4627342
69.967313766,-23.05447,64.2209699999998,-32.97709,1.016819,0.1356488,0.3479738,-23.45064,22.46374,0.4627342
69.977200031,-39.09385,65.33897,-40.0026,1.009681,0.1427208,0.298876,-23.45064,22.46374,0.4627342
69.987086773,-48.91642,67.3396199999998,-44.88991,1.013874,0.1030127,0.3144709,-23.45064,22.46374,0.4627342
69.996973515,-51.27881,77.57821,-50.02159,1.053841,-0.0005441834,0.2986884,-24.10043,21.29316,-2.066344
70.006860256,-52.89518,88.46407,-48.37212,1.071724,-0.1463267,0.3220487,-24.10043,21.29316,-2.066344
70.016746521,-57.6199599999999,106.2933,-43.85136,1.042463,-0.2841582,0.3823461,-24.10043,21.29316,-2.066344
70.026633263,-59.98235,118.3561,-39.14732,0.9577615,-0.3864392,0.3375601,-24.10043,21.29316,-2.066344
70.036520004,-58.7389899999998,115.2374,-32.79382,0.8392635,-0.4320666,0.2991822,-24.10043,21.29316,-2.066344
70.046405792,-51.96266,104.0573,-26.68468,0.740652,-0.4512706,0.3044573,-25.21754,20.91616,-2.929866
70.056292534,-38.34784,93.3480000000002,-20.39226,0.6847945,-0.4504145,0.3217026,-25.21754,20.91616,-2.929866
70.068651199,-17.77017,86.3457400000001,-11.28964,0.6607761,-0.4523666,0.4159457,-25.21754,20.91616,-2.929866
70.078537941,-6.57990299999997,79.3434900000003,-8.11289000000001,0.6797507,-0.4183516,0.4460934,-25.21754,20.91616,-2.929866
70.088424206,4.548198,70.3994299999999,-7.807434,0.6842419,-0.3753434,0.4569424,-25.21754,20.91616,-2.929866
70.098310471,13.00307,63.8679099999999,-5.302687,0.7007811,-0.3427629,0.4885373,-25.94504,20.14126,-4.557738
70.108196735,21.1471,63.1617999999997,-2.675757,0.7284108,-0.3336283,0.5168969,-25.94504,20.14126,-4.557738
70.118083477,29.60197,61.8084300000001,0.745361200000002,0.7256113,-0.3179128,0.4927683,-25.94504,20.14126,-4.557738
70.127970219,35.07277,59.9254700000002,5.693764,0.7378016,-0.2710152,0.5367898,-25.94504,20.14126,-4.557738
70.13785696,35.63228,59.6312599999998,7.221049,0.7637028,-0.2119657,0.548544,-25.94504,20.14126,-4.557738
70.147743225,33.45639,60.6904200000002,8.68724300000001,0.7963656,-0.1502288,0.5780862,-25.16279,19.78414,-6.222331
70.157629967,26.6179,62.3968499999998,6.73231800000002,0.8175732,-0.06580736,0.5598896,-25.16279,19.78414,-6.222331
70.167516708,20.77409,62.7499,3.250108,0.8366517,-0.04140601,0.5333374,-25.16279,19.78414,-6.222331
70.17740345,14.37077,64.1032900000002,-0.720832200000002,0.7993342,-0.02476877,0.5336918,-25.16279,19.78414,-6.222331
70.187289238,8.83780200000001,63.6913899999999,-2.064843,0.7958286,-0.03303807,0.5664323,-25.16279,19.78414,-6.222331
70.19717598,3.429171,62.6910600000002,-3.103397,0.7826093,-0.07558511,0.5526855,-25.13458,19.37505,-7.9032
70.207062244,-2.476804,53.80585,-0.4153753,0.7475659,-0.07042874,0.5997499,-25.13458,19.37505,-7.9032
70.216948986,-13.16973,60.74926,1.417367,0.7592278,-0.1371366,0.6996508,-25.13458,19.37505,-7.9032
70.226835728,-20.38124,68.3399399999998,8.01523700000002,0.7347388,-0.1173644,0.6182474,-25.13458,19.37505,-7.9032
70.236722469,-18.08101,61.33769,2.822469,0.7716253,-0.1224002,0.6120629,-25.13458,19.37505,-7.9032
70.246608734,-18.82703,64.2209699999998,1.967189,0.7999066,-0.0784868,0.6214916,-23.96745,19.69835,-9.958055
70.256495476,-20.31907,66.8688800000002,5.51049,0.7152585,-0.1582173,0.5866909,-23.96745,19.69835,-9.958055
70.266382217,-19.26221,47.09781,-2.675757,0.7155421,-0.1519679,0.6789965,-23.96745,19.69835,-9.958055
70.276268959,-22.49495,52.80553,-2.309208,0.7820321,-0.158029,0.6733317,-23.96745,19.69835,-9.958055
70.288626671,-26.10071,61.8084300000001,-2.79794,0.7755325,-0.1921511,0.7028329,-23.26968,19.68106,-10.33144
70.298513413,-23.98699,56.15955,-4.508498,0.6569334,-0.149635,0.6317878,-23.26968,19.68106,-10.33144
70.308400154,-11.80203,40.8605,-14.95513,0.7426367,-0.1678967,0.6920927,-23.26968,19.68106,-10.33144
70.318286419,-14.22659,46.92128,-11.35073,0.7119079,-0.2057031,0.6999435,-23.26968,19.68106,-10.33144
70.328172684,-12.23721,42.74346,-11.22855,0.6963328,-0.2462061,0.6597331,-23.26968,19.68106,-10.33144
70.338058949,-8.44494700000003,38.15375,-10.862,0.7045553,-0.234097,0.6890175,-23.64664,19.68658,-10.34002
70.34794569,-5.523044,32.74024,-9.27362699999999,0.7254581,-0.2457839,0.6592833,-23.64664,19.68658,-10.34002
70.357832432,-5.83388499999998,27.26789,-9.45690200000001,0.7529365,-0.2426611,0.7415361,-23.64664,19.68658,-10.34002
70.367719174,-8.07193900000002,30.03348,-6.52451399999998,0.7729087,-0.242158,0.712701,-23.64664,19.68658,-10.34002
70.377605438,-6.70423899999999,26.79715,-4.691772,0.7757776,-0.2379086,0.7367289,-23.64664,19.68658,-10.34002
70.38749218,-5.958221,31.62223,-3.775402,0.765524,-0.2459652,0.7502238,-23.24882,18.90107,-11.61789
70.397378922,-3.844504,30.56307,-3.775402,0.7422076,-0.2582438,0.74016,-23.24882,18.90107,-11.61789
70.407265663,-4.901362,29.20969,-1.453929,0.7237625,-0.2497423,0.7525999,-23.24882,18.90107,-11.61789
70.417151928,-5.398708,26.85599,-0.1710097,0.6912187,-0.2420646,0.7732038,-23.24882,18.90107,-11.61789
70.427038193,-7.45025699999999,35.85889,0.623178399999998,0.6812503,-0.2514249,0.6669562,-23.24882,18.90107,-11.61789
70.436924934,-5.523044,23.44312,1.845006,0.7063634,-0.210865,0.7773916,-22.87186,18.89554,-11.60931
70.446811199,-4.901362,20.38332,1.234092,0.7122835,-0.2094897,0.7398795,-22.87186,18.89554,-11.60931
70.456697941,-4.528353,17.26466,1.173001,0.6995739,-0.2293001,0.7486218,-22.87186,18.89554,-11.60931
70.466584683,-3.160654,13.79296,2.089372,0.7199407,-0.2237466,0.7644873,-22.87186,18.89554,-11.60931
70.476471424,-2.663309,14.14601,2.517012,0.7252912,-0.2238291,0.7596846,-22.87186,18.89554,-11.60931
70.486357689,-1.357777,8.26176499999998,2.394829,0.7247815,-0.2251667,0.7678664,-22.48755,19.26092,-11.99515
70.496244431,-0.487423,7.49681300000002,3.127926,0.7305639,-0.2298895,0.7784771,-22.48755,19.26092,-11.99515
70.508602142,2.310144,3.201311,2.944651,0.718944,-0.2131305,0.7904022,-22.48755,19.26092,-11.99515
70.518488884,3.11833,0.4945571,2.700286,0.7276419,-0.2089214,0.8125132,-22.48755,19.26092,-11.99515
70.528375626,2.745321,-2.74178,2.517012,0.6962184,-0.1957207,0.7792272,-22.48755,19.26092,-11.99515
70.538262367,1.874967,-6.27232800000001,1.295184,0.7233263,-0.2037721,0.7980547,-22.47309,19.24541,-12.83824
70.548148632,1.937135,-9.80287800000002,0.3788128,0.6952094,-0.2094109,0.7754479,-22.47309,19.24541,-12.83824
70.558035374,3.11833,-13.5688,0.01226447,0.7218416,-0.2170246,0.7909061,-22.47309,19.24541,-12.83824
70.567922115,2.683153,-16.80513,-0.659740900000002,0.7116588,-0.2130873,0.7923175,-22.47309,19.24541,-12.83824
70.577807903,3.180499,-19.86494,-0.965197799999999,0.7228818,-0.2000481,0.7864932,-22.47309,19.24541,-12.83824
70.587694645,2.993994,-22.98359,-2.187026,0.7170483,-0.2059519,0.7817072,-22.1099,19.63345,-11.99187
70.597581386,3.491339,-26.92604,-2.859031,0.716095,-0.217008,0.7586778,-22.1099,19.63345,-11.99187
70.607468128,4.983376,-30.16238,-3.71431,0.7204598,-0.2130132,0.7658764,-22.1099,19.63345,-11.99187
70.617354393,5.542889,-33.16334,-4.630681,0.7301704,-0.2195209,0.75534,-22.1099,19.63345,-11.99187
70.627241135,6.288907,-36.63505,-5.302687,0.7317051,-0.2035984,0.7456429,-22.1099,19.63345,-11.99187
70.637127876,6.16457000000001,-38.45917,-6.95215400000001,0.7434013,-0.1830186,0.7556516,-22.87964,18.9039,-11.15534
70.647014141,6.04023399999999,-42.16624,-8.11289000000001,0.7303873,-0.1845635,0.7157281,-22.87964,18.9039,-11.15534
70.656900883,6.66191600000002,-47.2267,-9.39580999999998,0.7430078,-0.17265,0.7325145,-22.87964,18.9039,-11.15534
70.666787624,5.79156200000001,-47.46207,-10.19,0.7391464,-0.1892006,0.6998911,-22.87964,18.9039,-11.15534
70.676673412,7.47010199999997,-52.05178,-10.80091,0.7468693,-0.1959109,0.7081094,-22.87964,18.9039,-11.15534
70.686560154,7.78094299999999,-54.22895,-10.67873,0.7434465,-0.2061948,0.7038293,-22.88631,18.91106,-10.76622
70.696446896,8.65129700000001,-57.5241300000002,-9.39580999999998,0.7473248,-0.2002009,0.7143836,-22.88631,18.91106,-10.76622
70.706333637,8.02961499999997,-60.9958400000001,-10.12891,0.7657609,-0.1952097,0.7249596,-22.88631,18.91106,-10.76622
70.718691826,9.64598800000001,-63.1730099999998,-7.990708,0.7702033,-0.1986722,0.6893941,-22.88631,18.91106,-10.76622
70.728578091,10.39201,-63.9379599999998,-8.05179900000001,0.7794983,-0.1991507,0.658628,-22.88631,18.91106,-10.76622
70.738464832,10.14333,-60.9958400000001,-7.074337,0.7847987,-0.2153383,0.6515021,-23.65536,18.55956,-9.934993
70.748351097,13.25174,-70.05758,-7.807434,0.7690526,-0.1563091,0.6237733,-23.65536,18.55956,-9.934993
70.758237839,9.89465999999999,-68.2922999999998,-0.5375581,0.7771059,-0.1889128,0.6590546,-23.65536,18.55956,-9.934993
70.76812458,8.402624,-74.5296099999999,-1.148472,0.7727134,-0.1847713,0.674899,-23.65536,18.55956,-9.934993
70.778011322,3.80218,-67.0566099999997,-1.087381,0.7756789,-0.2099946,0.6168384,-23.65536,18.55956,-9.934993
70.787897587,5.97806599999998,-74.8826600000002,1.661732,0.7787358,-0.1915056,0.5835649,-24.36022,18.96327,-9.11294
70.797784328,7.22142900000002,-81.11996,2.272646,0.7962916,-0.1711603,0.5786728,-24.36022,18.96327,-9.11294
70.80767107,7.843111,-86.0038900000002,0.867544000000001,0.8380117,-0.1850355,0.5682101,-24.36022,18.96327,-9.11294
70.817557335,7.53226999999998,-87.65148,4.960668,0.8318646,-0.1512172,0.5492763,-24.36022,18.96327,-9.11294
70.8274436,4.299526,-87.7691699999999,4.471936,0.856141,-0.1547961,0.5411463,-24.36022,18.96327,-9.11294
70.837330341,0.693772100000003,-81.9437600000001,7.89305399999997,0.8110952,-0.1289275,0.5390407,-25.15176,17.87833,-7.038898
70.847216606,-0.736095699999999,-85.0624200000003,5.205033,0.8163027,-0.1202235,0.4053066,-25.15176,17.87833,-7.038898
70.857103348,-17.83234,-40.45981,25.18192,0.8552829,-0.06202993,0.4266983,-25.15176,17.87833,-7.038898
70.866990089,-7.57459399999998,-68.4688300000001,7.77087200000001,0.8337619,-0.204765,0.2903326,-25.15176,17.87833,-7.038898
70.876876831,-1.482114,-92.8884700000002,10.03125,0.8313215,-0.1389873,0.390029,-25.15176,17.87833,-7.038898
70.886763096,-0.487423,-99.1846099999998,6.91559200000002,0.8590569,-0.108127,0.405775,-25.5636,18.3001,-4.977492
70.896649837,-2.849813,-95.3598499999997,5.81594700000002,0.8969784,-0.110087,0.3774537,-25.5636,18.3001,-4.977492
70.906536579,-5.585212,-93.4768899999999,4.349754,0.9028687,-0.1055383,0.3567578,-25.5636,18.3001,-4.977492
70.916423321,-7.45025699999999,-91.59393,2.45592,0.902422,-0.1027954,0.3447204,-25.5636,18.3001,-4.977492
70.926309586,-9.56397399999999,-85.0035700000002,2.333737,0.8952412,-0.1118718,0.290414,-25.5636,18.3001,-4.977492
70.938667774,-9.62614300000003,-92.35888,0.1344473,0.8981308,-0.1157156,0.2942841,-25.97083,17.58053,-3.289291
70.948554516,-10.24782,-96.1248000000003,-1.209563,0.9040153,-0.1205843,0.2625746,-25.97083,17.58053,-3.289291
70.958440781,-11.42902,-95.94827,-1.576112,0.8978046,-0.1271703,0.2121041,-25.97083,17.58053,-3.289291
70.968327522,-11.98853,-101.4206,-2.431391,0.891973,-0.136569,0.2015647,-25.97083,17.58053,-3.289291
70.978214264,-12.11287,-102.1267,-2.064843,0.8866561,-0.1381919,0.1900248,-25.97083,17.58053,-3.289291
70.988100052,-10.62083,-104.0685,-2.79794,0.8852503,-0.1454737,0.1588001,-26.0064,17.61872,-1.214001
70.997986794,-9.00446099999999,-100.9499,-0.843015,0.8795836,-0.1305343,0.1149544,-26.0064,17.61872,-1.214001
71.007873535,-6.26906200000001,-113.248,-1.820477,0.8975532,-0.1445711,0.09051874,-26.0064,17.61872,-1.214001
71.0177598,-3.28499,-116.0136,0.989726799999999,0.902386,-0.09568047,0.1691482,-26.0064,17.61872,-1.214001
71.027646542,6.16457000000001,-129.312,2.272646,0.8773136,-0.1399799,0.03660938,-26.0064,17.61872,-1.214001
71.037533283,16.48449,-151.7309,5.632673,0.8498548,-0.1049103,0.0008127787,-26.44534,18.44838,2.463421
71.047420025,22.82564,-175.3856,4.16648,0.8843772,-0.06505382,0.03287233,-26.44534,18.44838,2.463421
71.05730629,24.81502,-184.0943,-2.79794,0.9469938,-0.05524444,0.04587883,-26.44534,18.44838,2.463421
71.067193031,19.9659,-181.5052,-10.55655,1.012084,-0.03378908,0.05642468,-26.44534,18.44838,2.463421
71.077079773,8.96213800000002,-165.2647,-20.20899,1.033788,-0.03346338,0.1136773,-26.44534,18.44838,2.463421
71.086965561,-6.64207099999998,-136.1965,-34.68765,1.027943,-0.0502382,0.09836597,-26.48827,18.11567,4.933132
71.096852303,-22.49495,-110.3058,-41.77425,0.9528672,-0.04760144,0.03670939,-26.48827,18.11567,4.933132
71.106739044,-38.16133,-102.009,-43.11826,0.8277127,-0.07468472,-0.03254869,-26.48827,18.11567,4.933132
71.116625309,-45.74585,-111.4238,-40.61351,0.711762,-0.09569833,-0.08547565,-26.48827,18.11567,4.933132
71.126512051,-44.56465,-119.0145,-37.43676,0.6243271,-0.09410592,-0.05576602,-26.48827,18.11567,4.933132
71.136398792,-34.99075,-122.6628,-34.3211,0.5839579,-0.1303265,-0.07342296,-25.03686,18.91174,8.32919
71.146285534,-21.6246,-124.6634,-27.66214,0.5709948,-0.1048232,-0.09568894,-25.03686,18.91174,8.32919
71.158643246,-3.471495,-119.5441,-24.97412,0.6273801,-0.09947944,-0.1216216,-25.03686,18.91174,8.32919
71.168529987,9.956828,-112.6595,-20.75881,0.723228,-0.1537831,-0.09286384,-25.03686,18.91174,8.32919
71.178416729,14.86811,-108.7171,-19.04825,0.7850227,-0.140932,-0.1371032,-24.73308,17.8484,12.50426
71.188302994,19.9659,-105.9515,-24.11884,0.8828684,-0.1776807,-0.1065083,-24.73308,17.8484,12.50426
71.198189735,25.06369,-93.3003600000002,-20.45335,0.9913668,-0.2331989,-0.09215764,-24.73308,17.8484,12.50426
71.208076477,27.73692,-83.8267199999999,-17.39878,1.065537,-0.2840189,-0.1264428,-24.73308,17.8484,12.50426
71.217963219,22.76347,-80.1784900000001,-13.30566,1.143167,-0.3058785,-0.145,-24.73308,17.8484,12.50426
71.227849484,21.70661,-70.82253,-12.08383,1.223042,-0.3609323,-0.1359744,-24.07813,17.56141,14.5997
71.237736225,19.09555,-54.52316,-8.35725599999999,1.257879,-0.3727436,-0.1070198,-24.07813,17.56141,14.5997
71.247622013,15.42763,-34.98746,-2.125934,1.237954,-0.3705623,-0.09406865,-24.07813,17.56141,14.5997
71.257508755,7.78094299999999,-21.27716,1.234092,1.212743,-0.3627285,-0.09461781,-24.07813,17.56141,14.5997
71.267395496,11.5732,-6.21348599999998,4.716302,1.207791,-0.3864786,-0.08777054,-24.07813,17.56141,14.5997
71.277282238,11.3867,2.671729,5.693764,1.199135,-0.3541287,-0.07495899,-22.95334,17.86704,15.01014
71.287168503,14.3086,12.79264,7.037775,1.177417,-0.2911738,-0.03634721,-22.95334,17.86704,15.01014
71.297055245,18.10086,23.32544,6.48795199999999,1.139604,-0.2515823,0.0009215714,-22.95334,17.86704,15.01014
71.306941986,16.54665,28.56242,5.93813000000001,1.050627,-0.1783586,-0.03177133,-22.95334,17.86704,15.01014
71.316828728,14.99245,29.44506,5.205033,0.9863905,-0.1210251,-0.08166897,-22.95334,17.86704,15.01014
71.326714993,15.6763,27.09136,4.471936,0.9536374,-0.07478116,-0.1199327,-22.58143,19.3821,15.45147
71.336601734,15.17895,23.2666,3.983205,0.924773,-0.0355491,-0.1706604,-22.58143,19.3821,15.45147
71.346488476,13.74909,20.61869,3.433383,0.9065232,-0.01235704,-0.2179286,-22.58143,19.3821,15.45147
71.356374264,13.31391,17.20582,1.173001,0.903793,0.008892504,-0.2627648,-22.58143,19.3821,15.45147
71.366261005,12.9409,14.6756,0.562087,0.9097404,0.02751234,-0.2868982,-22.58143,19.3821,15.45147
71.378619671,9.64598800000001,13.49875,0.3788128,0.9383538,0.02561584,-0.2796423,-23.32227,18.62152,14.60183
71.388506413,4.921207,16.67624,-0.1099183,0.9707369,0.00253052,-0.2559237,-23.32227,18.62152,14.60183
71.398392677,-1.792954,21.85438,1.722824,0.9938339,-0.02759626,-0.2158287,-23.32227,18.62152,14.60183
71.408279419,-8.50711499999998,25.50261,2.700286,1.017032,-0.04691881,-0.2022389,-23.32227,18.62152,14.60183
71.418165207,-14.35092,29.03316,4.349754,1.041096,-0.08100061,-0.1659702,-23.32227,18.62152,14.60183
71.428051949,-19.57305,33.7994,5.51049,1.057529,-0.1000026,-0.1644127,-23.31492,18.99242,14.20741
71.43793869,-23.61398,35.68237,6.79340899999997,1.064651,-0.1333502,-0.146442,-23.31492,18.99242,14.20741
71.447825432,-25.7277,35.91773,7.64868900000003,1.046136,-0.1522759,-0.1444438,-23.31492,18.99242,14.20741
71.457711697,-24.48433,35.50584,9.11488200000001,1.00482,-0.1612738,-0.1329032,-23.31492,18.99242,14.20741
71.467598438,-21.93544,36.27079,10.09234,0.9837785,-0.2004667,-0.1187823,-23.31492,18.99242,14.20741
71.47748518,-17.83234,37.50648,12.65818,0.977344,-0.2215634,-0.09752251,-22.92419,18.59333,13.37821
71.487371922,-13.54274,41.56661,16.14039,0.9887679,-0.2495252,-0.04446691,-22.92419,18.59333,13.37821
71.497258186,-10.37216,46.62707,19.56151,1.007036,-0.2773084,-0.01112219,-22.92419,18.59333,13.37821
71.507144928,-8.693621,52.86437,23.1659,1.031112,-0.3025173,0.03231547,-22.92419,18.59333,13.37821
71.51703167,-8.50711499999998,62.7499,27.13684,1.040713,-0.3148015,0.05883912,-22.92419,18.59333,13.37821
71.526917458,-8.81795700000002,73.7534499999999,31.22997,1.043163,-0.2985286,0.07270639,-24.7324,18.22646,12.49896
71.536804199,-8.75578900000001,83.7566799999998,35.38418,1.053338,-0.3029169,0.07370198,-24.7324,18.22646,12.49896
71.546690941,-6.45556599999999,95.2897999999998,38.49984,1.040556,-0.3322217,0.09884343,-24.7324,18.22646,12.49896
71.556577206,-2.60114,106.9406,40.76022,1.000831,-0.3435678,0.05124441,-24.7324,18.22646,12.49896
71.566463947,5.107712,118.1207,47.60246,0.9618844,-0.3900315,0.032679,-24.7324,18.22646,12.49896
71.576350689,21.45794,124.5934,52.61195,0.8911415,-0.3966338,-0.02748321,-24.69546,18.9444,10.41306
71.588708401,37.99467,129.4773,54.50579,0.8196337,-0.4019673,0.02969204,-24.69546,18.9444,10.41306
71.598595142,46.38737,132.2429,55.29998,0.7576049,-0.3726134,0.03043502,-24.69546,18.9444,10.41306
71.608481884,47.5064,131.4191,50.65703,0.712212,-0.293873,0.04681774,-24.69546,18.9444,10.41306
71.618368626,36.19179,126.2409,40.57695,0.7013851,-0.199935,0.04200245,-24.69546,18.9444,10.41306
71.62825489,20.02807,122.0043,28.8474,0.7686203,-0.1479229,0.01199895,-24.64408,19.64681,7.484076
71.638141632,13.25174,134.4201,17.42331,0.8863945,-0.1739405,0.04640974,-24.64408,19.64681,7.484076
71.648028374,35.32144,164.1355,17.66768,0.9338056,-0.2168427,0.04956597,-24.64408,19.64681,7.484076
71.657915115,48.74976,152.1316,19.19496,0.8333595,-0.1268211,-0.03372157,-24.64408,19.64681,7.484076
71.66780138,52.29335,138.4802,9.11488200000001,0.7591536,-0.07826317,0.0121171,-24.64408,19.64681,7.484076
71.677688122,53.3502,121.4747,-4.56959,0.745562,-0.06379844,0.03318908,-24.21517,20.65876,4.559252
71.687574863,62.9240999999998,87.5225899999998,-7.62415899999998,0.7839187,-0.08186454,0.002545034,-24.21517,20.65876,4.559252
71.697461605,69.2030899999998,43.86147,-1.94266,0.889568,-0.1064261,0.03501099,-24.21517,20.65876,4.559252
71.707347393,59.00751,27.32673,8.19851100000001,1.001853,-0.1444249,0.1142017,-24.21517,20.65876,4.559252
71.717234135,38.24334,48.7454,11.49745,1.054417,-0.1378888,0.2652377,-24.21517,20.65876,4.559252
71.727120399,18.16303,92.1122999999998,4.288662,1.063178,-0.1235501,0.4762995,-25.27603,20.60016,0.4477843
71.737007141,12.00838,130.0657,-3.164488,1.02721,-0.1609833,0.4432642,-25.27603,20.60016,0.4477843
71.746893883,11.3867,140.0689,-1.026289,0.8592698,-0.1239026,0.2952431,-25.27603,20.60016,0.4477843
71.756780624,13.99776,128.6535,0.1955387,0.7560488,-0.07945084,0.2905729,-25.27603,20.60016,0.4477843
71.766666889,21.45794,124.711,1.050818,0.6959924,-0.0562677,0.2697078,-25.27603,20.60016,0.4477843
71.776553631,20.96059,117.9442,-2.125934,0.6604002,-0.06265327,0.3264483,-24.48585,20.92898,-1.61565
71.786440372,18.10086,106.058,-7.44088499999998,0.7116817,-0.0850805,0.3641318,-24.48585,20.92898,-1.61565
71.796327114,14.1221,93.0537899999998,-6.70778799999998,0.7719814,-0.06103187,0.3520558,-24.48585,20.92898,-1.61565
71.808684826,4.610366,80.1084400000002,-7.37979399999998,0.8291904,-0.0632202,0.3761779,-24.48585,20.92898,-1.61565
71.818571567,-6.51773500000002,83.0505599999999,-8.47943899999997,0.8496438,-0.04179167,0.3789784,-24.48585,20.92898,-1.61565
71.828458309,-12.73455,81.8148699999998,-12.93911,0.870935,-0.06431253,0.3738263,-24.0511,20.8614,-4.979416
71.838344574,-14.53743,79.3434900000003,-16.36023,0.8538617,-0.1085285,0.345656,-24.0511,20.8614,-4.979416
71.848231316,-16.27814,76.5190500000002,-20.45335,0.8254533,-0.1625866,0.3742712,-24.0511,20.8614,-4.979416
71.858118057,-17.02415,76.5190500000002,-20.45335,0.8130631,-0.1873208,0.4445966,-24.0511,20.8614,-4.979416
71.868004799,-19.20004,85.69848,-17.03223,0.7888631,-0.2254487,0.5621065,-24.0511,20.8614,-4.979416
71.877890587,-16.96199,84.9923600000001,-16.84896,0.7849869,-0.2429013,0.5342969,-24.02288,20.45231,-6.660285
71.887777328,-10.74517,70.9878500000002,-20.94208,0.8377802,-0.2238813,0.6083226,-24.02288,20.45231,-6.660285
71.897663593,-8.19627499999999,70.87017,-21.91955,0.8799616,-0.1833642,0.6855941,-24.02288,20.45231,-6.660285
71.907550335,-6.766407,80.4026500000001,-22.89701,0.8529554,-0.188894,0.6052775,-24.02288,20.45231,-6.660285
71.917437077,-1.046937,81.8148699999998,-22.59155,0.8492653,-0.151787,0.5786352,-24.02288,20.45231,-6.660285
71.927323818,3.988685,77.4605299999998,-22.04173,0.7735075,-0.2235463,0.4918649,-24.37273,20.04995,-8.284882
71.937210083,6.102402,67.1042499999997,-21.98064,0.7236793,-0.1523368,0.5251129,-24.37273,20.04995,-8.284882
71.947096825,1.43979,72.63544,-19.59807,0.7352675,-0.2449536,0.6184119,-24.37273,20.04995,-8.284882
71.956983566,-13.72924,84.5804700000001,-5.669235,0.7379991,-0.254766,0.6790606,-24.37273,20.04995,-8.284882
71.966870308,-16.58898,75.04799,-7.50197599999999,0.7403175,-0.07857948,0.5747749,-24.37273,20.04995,-8.284882
71.976756573,-13.60491,57.8071399999997,-13.36675,0.7704046,-0.08208352,0.5724222,-23.96745,19.69835,-9.958055
71.986643314,-16.52681,53.86469,-11.41183,0.8043439,-0.1226441,0.7304079,-23.96745,19.69835,-9.958055
71.996529102,-23.1788,66.5158199999997,-18.80388,0.794707,-0.1559141,0.6536176,-23.96745,19.69835,-9.958055
72.006415844,-13.48057,52.33479,-26.80686,0.8764539,-0.08570314,0.670188,-23.96745,19.69835,-9.958055
72.016302586,-20.69208,60.6904200000002,-20.94208,0.721131,-0.148082,0.5813563,-23.96745,19.69835,-9.958055
72.028661251,-21.43809,48.56887,-19.4148,0.7693535,-0.1347415,0.7309101,-23.63162,19.98612,-11.18753
72.038547993,-26.22504,55.33575,-19.35371,0.7621695,-0.15176,0.6665446,-23.63162,19.98612,-11.18753
72.048434258,-30.70115,48.92192,-19.35371,0.8023145,-0.1808048,0.6835692,-23.63162,19.98612,-11.18753
72.058320522,-31.94451,41.91967,-15.74932,0.767746,-0.2074324,0.6894355,-23.63162,19.98612,-11.18753
72.068206787,-32.19318,53.0409,-12.02274,0.749929,-0.2858446,0.7191477,-23.63162,19.98612,-11.18753
72.078093529,-28.96044,48.98077,-14.03876,0.7883315,-0.277328,0.7076062,-23.63162,19.98612,-11.18753
72.08798027,-28.71177,52.80553,-13.30566,0.7398618,-0.2985612,0.648986,-23.63162,19.98612,-11.18753
72.097867012,-26.59805,49.15729,-12.51147,0.7453339,-0.3316788,0.7472675,-23.63162,19.98612,-11.18753
72.107753277,-28.33876,65.5743499999998,-15.81041,0.8275518,-0.3091506,0.7015596,-23.63162,19.98612,-11.18753
72.117640018,-23.80048,43.56726,-11.96165,0.6872407,-0.2952009,0.7364368,-23.63162,19.98612,-11.18753
72.12752676,-21.43809,48.45118,-13.55002,0.7276261,-0.2854574,0.7095019,-23.24147,19.27197,-12.01231
72.137413502,-19.69739,53.98238,-13.85548,0.7141928,-0.2680104,0.6694821,-23.24147,19.27197,-12.01231
72.147299767,-18.39185,49.92225,-12.38929,0.7087938,-0.2322903,0.745281,-23.24147,19.27197,-12.01231
72.157186508,-19.38654,53.57048,-10.43436,0.7252355,-0.2418893,0.7568902,-23.24147,19.27197,-12.01231
72.16707325,-20.2569,52.09942,-7.25761099999999,0.6859343,-0.2453856,0.745802,-23.24147,19.27197,-12.01231
72.176959991,-21.06508,52.68784,-6.891063,0.8648272,-0.2016111,0.8963125,-22.10087,20.31821,-12.45557
72.186845779,-23.67615,51.86405,-4.080859,0.5484493,-0.2940966,0.726655,-22.10087,20.31821,-12.45557
72.196732521,-23.61398,46.92128,-1.148472,0.6201563,-0.2924303,0.7825149,-22.10087,20.31821,-12.45557
72.206618786,-21.56243,42.21388,1.234092,0.5782603,-0.3107851,0.819591,-22.10087,20.31821,-12.45557
72.216505528,-19.51088,41.6843,2.700286,0.5218965,-0.3491088,0.7894226,-22.10087,20.31821,-12.45557
72.226392269,-13.91575,33.68172,4.960668,0.6324704,-0.3084392,0.8860079,-21.34097,19.92194,-12.82222
72.236279011,-11.8642,30.97497,7.221049,0.4952037,-0.3321546,0.8123907,-21.34097,19.92194,-12.82222
72.248636723,-6.64207099999998,26.56178,9.053791,0.5442421,-0.3029894,0.8478873,-21.34097,19.92194,-12.82222
72.258523464,-2.165963,20.61869,8.25960299999999,0.5297862,-0.2653075,0.8582607,-21.34097,19.92194,-12.82222
72.268410206,-1.233441,13.14569,9.11488200000001,0.5186767,-0.2720976,0.8260607,-21.34028,20.3,-12.82753
72.278296471,-0.922600200000001,4.790059,9.35924799999999,0.5594121,-0.2440821,0.8812714,-21.34028,20.3,-12.82753
72.288183212,-1.792954,0.906454499999998,8.9927,0.5269876,-0.2301912,0.8614464,-21.34028,20.3,-12.82753
72.298069954,-0.922600200000001,-4.624739,7.64868900000003,0.5323529,-0.2109592,0.8781877,-21.34028,20.3,-12.82753
72.307956696,-1.171273,-8.44950099999998,5.388307,0.5401314,-0.2110536,0.8729069,-21.34028,20.3,-12.82753
72.31784296,-1.109105,-12.92153,3.861022,0.5555814,-0.2240017,0.8883793,-20.64851,20.66792,-12.8171
72.327729702,-1.046937,-16.45208,2.394829,0.5541672,-0.2347138,0.8557292,-20.64851,20.66792,-12.8171
72.337616444,0.00992228700000002,-20.51221,0.6842698,0.5561124,-0.2427029,0.842787,-20.64851,20.66792,-12.8171
72.347503185,1.874967,-24.98424,-0.965197799999999,0.5580477,-0.2451559,0.8418397,-20.64851,20.66792,-12.8171
72.35738945,3.491339,-28.75016,-2.248117,0.5832379,-0.2533544,0.8505663,-20.64851,20.66792,-12.8171
72.367276192,4.548198,-32.57492,-2.920122,0.5837404,-0.2504769,0.8476669,-20.27018,21.41852,-12.81913
72.37716198,4.921207,-35.39936,-3.531036,0.5949261,-0.247155,0.8433345,-20.27018,21.41852,-12.81913
72.387048721,6.288907,-38.63569,-4.325224,0.5940057,-0.2380162,0.8355925,-20.27018,21.41852,-12.81913
72.396935463,6.78625199999999,-42.28393,-5.180504,0.612936,-0.2405459,0.8317795,-20.27018,21.41852,-12.81913
72.406822205,7.22142900000002,-46.4029,-5.669235,0.6168854,-0.2354991,0.8115598,-20.27018,21.41852,-12.81913
72.416708469,6.84842,-50.34535,-6.402331,0.6246408,-0.2409212,0.8082296,-21.03992,20.68896,-11.98259
72.426595211,6.41324300000002,-52.87558,-6.95215400000001,0.6358386,-0.2401636,0.7952535,-21.03992,20.68896,-11.98259
72.436481953,6.59974800000002,-55.93538,-7.37979399999998,0.6460344,-0.239704,0.7947819,-21.03992,20.68896,-11.98259
72.446368694,7.40793400000002,-59.4070900000001,-7.074337,0.6654871,-0.244957,0.7717464,-21.03992,20.68896,-11.98259
72.456254959,7.71877499999998,-61.8196299999999,-6.70778799999998,0.6873431,-0.2416059,0.7707924,-21.03992,20.68896,-11.98259
72.468613148,8.96213800000002,-65.5855500000002,-7.990708,0.6829926,-0.2501703,0.7511131,-21.3614,20.32267,-11.59532
72.478499889,10.39201,-65.7620799999998,-9.70126700000002,0.6990139,-0.2631646,0.7309982,-21.3614,20.32267,-11.59532
72.488386154,11.69754,-68.99841,-9.33471900000003,0.6908127,-0.2654556,0.7069544,-21.3614,20.32267,-11.59532
72.498272896,13.37608,-69.2337900000003,-9.151444,0.7237497,-0.2755381,0.7209895,-21.3614,20.32267,-11.59532
72.508159638,16.48449,-73.94118,-8.47943899999997,0.7160724,-0.2566757,0.711267,-21.3614,20.32267,-11.59532
72.518046379,18.34953,-76.7067800000002,-8.418347,0.7582915,-0.2367994,0.7434363,-22.87896,19.28196,-11.16064
72.527932644,19.28205,-77.5305800000003,-7.807434,0.747308,-0.2264694,0.6837374,-22.87896,19.28196,-11.16064
72.537819385,19.90373,-76.6479399999998,-8.11289000000001,0.7910489,-0.1990494,0.699519,-22.87896,19.28196,-11.16064
72.547706127,20.71192,-79.5312199999997,-7.92961600000002,0.7857707,-0.2153475,0.6510223,-22.87896,19.28196,-11.16064
72.557592869,22.20396,-86.41579,-7.25761099999999,0.7601961,-0.2018152,0.6081229,-22.87896,19.28196,-11.16064
72.567478657,23.50949,-93.5945700000001,-8.05179900000001,0.8173892,-0.1894722,0.6595841,-23.96745,19.69835,-9.958055
72.577365398,22.20396,-88.23991,-7.68525100000001,0.8138393,-0.1736532,0.54456,-23.96745,19.69835,-9.958055
72.587251663,23.44732,-92.7119399999999,-8.418347,0.8286306,-0.1989425,0.6139572,-23.96745,19.69835,-9.958055
72.597138405,23.63382,-98.5961799999998,-7.44088499999998,0.791594,-0.1412836,0.5568751,-23.96745,19.69835,-9.958055
72.607025146,24.19334,-99.5964999999999,-5.363778,0.8230023,-0.1618532,0.58587,-23.96745,19.69835,-9.958055
72.616911888,25.4367,-107.3637,1.356275,0.7829027,-0.1549892,0.5184608,-25.12859,18.98983,-8.287013
72.626798153,18.47387,-104.3627,5.571581,0.789201,-0.09670568,0.6066629,-25.12859,18.98983,-8.287013
72.636684894,12.7544,-97.8900799999999,3.861022,0.8557723,-0.1396083,0.5146185,-25.12859,18.98983,-8.287013
72.646571636,12.38139,-104.0097,-2.309208,0.8370657,-0.120577,0.4495767,-25.12859,18.98983,-8.287013
72.656458378,17.72785,-119.4853,-8.17398199999999,0.8915388,-0.1198924,0.4049095,-25.12859,18.98983,-8.287013
72.666344643,14.55727,-118.1907,10.88653,0.9241972,-0.1401586,0.5195083,-25.53402,18.64713,-6.668969
72.676231384,6.53758000000001,-103.0682,14.85747,0.8406901,-0.05831924,0.4449379,-25.53402,18.64713,-6.668969
72.688589573,-0.2387504,-96.0659599999999,17.66768,0.7222399,-0.1404962,0.5351508,-25.53402,18.64713,-6.668969
72.698475838,-18.64053,-49.10966,23.96009,0.7549828,-0.03413939,0.1941585,-25.53402,18.64713,-6.668969
72.708362579,-7.01508000000001,-100.4791,1.417367,0.829886,-0.1561131,0.1563863,-25.53402,18.64713,-6.668969
72.718249321,-2.165963,-124.8399,2.333737,0.867608,-0.0821688,0.3190877,-26.33129,18.70472,-4.156869
72.728136063,-7.57459399999998,-120.1914,0.25663,0.933583,-0.07361122,0.346532,-26.33129,18.70472,-4.156869
72.738022327,-18.45402,-117.7788,0.3177214,0.9411163,-0.07323122,0.2426597,-26.33129,18.70472,-4.156869
72.747909069,-25.85203,-113.0714,1.417367,0.9329147,-0.07800736,0.2152621,-26.33129,18.70472,-4.156869
72.757795811,-29.70646,-108.6582,2.150463,0.9150379,-0.08545796,0.1705537,-26.33129,18.70472,-4.156869
72.767682075,-29.58212,-106.8341,3.494474,0.9023854,-0.1106053,0.1480631,-26.38199,18.38036,-1.233189
72.77756834,-28.77394,-105.4808,3.372291,0.8824919,-0.1165819,0.1365286,-26.38199,18.38036,-1.233189
72.787455082,-29.76863,-92.77077,5.632673,0.8526425,-0.1240343,0.02495864,-26.38199,18.38036,-1.233189
72.797341347,-27.77925,-112.3065,5.327216,0.8371176,-0.152414,-0.01867942,-26.38199,18.38036,-1.233189
72.807228088,-25.60336,-122.6628,4.899576,0.8518901,-0.1741005,0.06368447,-26.38199,18.38036,-1.233189
72.81711483,-20.13256,-120.2502,6.42686099999998,0.8827935,-0.1875785,0.110918,-26.43688,18.81809,2.004148
72.827001572,-11.55336,-120.5444,7.58759699999999,0.8565555,-0.1535917,-0.02971255,-26.43688,18.81809,2.004148
72.836887836,-0.860432000000003,-139.1387,7.64868900000003,0.8425792,-0.1372738,-0.04760498,-26.43688,18.81809,2.004148
72.846774578,13.56258,-163.7348,8.13742,0.8212438,-0.1184543,-0.02944934,-26.43688,18.81809,2.004148
72.85666132,29.04245,-191.0966,4.410845,0.8244694,-0.06271496,-0.07926221,-26.43688,18.81809,2.004148
72.866548061,27.79909,-208.1609,1.417367,0.937847,-0.05968274,0.008379016,-25.35602,18.85521,4.948264
72.876434326,16.79533,-196.5101,-4.691772,1.009756,-0.01500192,0.04238039,-25.35602,18.85521,4.948264
72.886321068,-0.673927500000001,-169.3837,-17.33769,1.058282,-0.02298966,0.03574304,-25.35602,18.85521,4.948264
72.89867878,-23.42747,-131.548,-39.69714,1.008904,-0.004804967,0.007701574,-25.35602,18.85521,4.948264
72.908565521,-37.16664,-109.3055,-53.80925,0.9146024,-0.07639635,-0.03773138,-25.35602,18.85521,4.948264
72.918452263,-41.95359,-96.4778499999999,-53.56489,0.7854202,-0.1334109,-0.09001055,-25.42827,18.93278,9.163697
72.928339004,-36.98013,-98.2431300000002,-48.73867,0.6598758,-0.1913721,-0.04224921,-25.42827,18.93278,9.163697
72.938225269,-21.68677,-102.4798,-40.85788,0.5602325,-0.2405441,-0.05461797,-25.42827,18.93278,9.163697
72.948112011,-0.3009185,-102.8917,-28.51742,0.5531244,-0.2803554,0.01771328,-25.42827,18.93278,9.163697
72.957998753,14.93028,-105.2454,-19.53698,0.6187764,-0.2782968,-0.03127642,-25.42827,18.93278,9.163697
72.967885494,22.63913,-100.4203,-14.22203,0.7215613,-0.2251046,-0.1078948,-24.73035,19.36064,12.48305
72.977771759,25.06369,-90.4759200000001,-19.29262,0.8987911,-0.2049813,-0.1063522,-24.73035,19.36064,12.48305
72.987658024,20.46325,-72.5878100000003,-22.10282,1.111966,-0.2711155,-0.03892759,-24.73035,19.36064,12.48305
72.997544765,14.24643,-51.22799,-19.90353,1.241811,-0.315661,-0.004409459,-24.73035,19.36064,12.48305
73.00743103,6.22673899999999,-37.28232,-14.52749,1.299832,-0.3760712,0.001732838,-24.73035,19.36064,12.48305
73.017317772,-1.792954,-24.80771,-10.862,1.269613,-0.4259751,-0.01776711,-23.69855,19.00511,14.58795
73.027204514,-6.144726,-12.62732,-6.34123999999999,1.167857,-0.4537373,-0.1293162,-23.69855,19.00511,14.58795
73.037091255,-1.046937,-11.03857,-0.965197799999999,1.102556,-0.438603,-0.2006432,-23.69855,19.00511,14.58795
73.04697752,7.03492499999999,-14.33375,3.127926,1.091039,-0.3921402,-0.1888681,-23.69855,19.00511,14.58795
73.056864262,13.50041,-12.92153,5.266125,1.10373,-0.336385,-0.1386387,-23.69855,19.00511,14.58795
73.066751003,16.67099,-7.27265099999999,6.61013499999998,1.114053,-0.2799963,-0.1114994,-22.96044,18.25345,15.4588
73.076637268,19.71723,1.789092,6.06031299999999,1.124375,-0.2400293,-0.1078423,-22.96044,18.25345,15.4588
73.08652401,23.94467,10.61546,4.105388,1.122036,-0.212211,-0.1041382,-22.96044,18.25345,15.4588
73.096410751,30.16148,19.14762,7.037775,1.104289,-0.1587768,-0.1154895,-22.96044,18.25345,15.4588
73.106297493,33.02122,26.32641,6.36576900000001,1.076717,-0.1145301,-0.0912175,-22.96044,18.25345,15.4588
73.118655205,29.47763,37.21227,6.91559200000002,1.05341,-0.0995017,-0.06631205,-23.33535,19.39315,15.43431
73.128541946,22.94997,44.56758,7.95414600000001,1.026643,-0.1044674,-0.04371411,-23.33535,19.39315,15.43431
73.138428688,15.05462,48.86308,7.70977999999998,1.00293,-0.1028753,-0.07068069,-23.33535,19.39315,15.43431
73.148314953,7.47010199999997,52.15826,7.70977999999998,0.9946206,-0.1144378,-0.06341789,-23.33535,19.39315,15.43431
73.158201695,1.377622,53.68816,6.48795199999999,0.9849334,-0.1269879,-0.08981615,-22.92949,19.3566,13.75672
73.168088436,-2.476804,54.80617,8.19851100000001,0.9726839,-0.1560944,-0.08391194,-22.92949,19.3566,13.75672
73.177975178,-5.398708,56.74797,9.725797,0.9629135,-0.1785683,-0.09006145,-22.92949,19.3566,13.75672
73.187861443,-6.89074399999999,57.5717700000002,11.49745,0.9483998,-0.1748597,-0.1045243,-22.92949,19.3566,13.75672
73.197748184,-8.19627499999999,59.16051,13.9411,0.9507635,-0.1933756,-0.104909,-22.92949,19.3566,13.75672
73.207634449,-8.94229299999998,61.4553700000001,17.11785,0.9561267,-0.1985146,-0.1221901,-23.28602,18.9614,12.52124
73.217520714,-10.24782,63.7502299999997,19.43933,0.9528285,-0.1732585,-0.1271307,-23.28602,18.9614,12.52124
73.227407455,-12.67238,64.2798100000002,19.98915,0.9641016,-0.1451096,-0.1320693,-23.28602,18.9614,12.52124
73.237294197,-15.78079,65.5154999999997,19.31714,0.9631732,-0.1359204,-0.1364451,-23.28602,18.9614,12.52124
73.247180462,-17.64584,67.9280499999998,20.66115,0.9694062,-0.1523668,-0.1281793,-23.28602,18.9614,12.52124
73.257067204,-20.87858,70.7524899999998,23.10481,0.9499302,-0.1658767,-0.1223621,-24.01882,18.94978,11.27188
73.266953945,-22.93013,75.5187199999999,24.08227,0.9401315,-0.1807083,-0.1059469,-24.01882,18.94978,11.27188
73.276840687,-20.4434,82.8151899999998,23.65463,0.9273458,-0.1885926,-0.04869203,-24.01882,18.94978,11.27188
73.286726952,-15.34561,93.1126300000001,24.93755,0.9198326,-0.2119907,0.0139374,-24.01882,18.94978,11.27188
73.296613693,-9.19096599999999,102.1155,25.91501,0.9162837,-0.2170003,0.06926461,-24.01882,18.94978,11.27188
73.306500435,-4.341849,111.5303,25.79283,0.9177043,-0.1923948,0.1191577,-24.30811,20.37974,9.947339
73.316387177,-4.031008,119.886,20.66115,0.9197165,-0.1425842,0.1612293,-24.30811,20.37974,9.947339
73.326273441,-8.88012499999997,121.1217,13.20801,0.9443669,-0.1350103,0.2150822,-24.30811,20.37974,9.947339
73.33863163,-18.26752,124.9464,9.053791,0.9174807,-0.1596316,0.2584589,-24.30811,20.37974,9.947339
73.348518372,-21.25159,131.0072,10.70326,0.8484433,-0.2080411,0.2360218,-24.30811,20.37974,9.947339
73.358404636,-15.28345,136.8326,10.51998,0.7750264,-0.2449258,0.2346819,-23.95299,19.63668,7.499806
73.368291378,1.191117,134.9496,9.97016099999998,0.7562607,-0.3364138,0.2365657,-23.95299,19.63668,7.499806
73.37817812,17.97652,130.8307,9.29815699999998,0.6916965,-0.3670811,0.1962499,-23.95299,19.63668,7.499806
73.388064861,35.63228,115.5316,9.48143099999997,0.6545678,-0.3312342,0.1460107,-23.95299,19.63668,7.499806
73.397951126,56.08561,86.9930099999999,10.21453,0.6841815,-0.208991,0.1180142,-23.95299,19.63668,7.499806
73.407837868,68.3327299999997,68.0457299999999,7.70977999999998,0.8374072,-0.1535868,0.2612229,-25.71049,19.59418,3.696873
73.417724609,81.5123800000002,103.1159,17.85095,0.8308499,-0.08441256,0.2618277,-25.71049,19.59418,3.696873
73.427611351,59.3183500000001,99.4676100000002,3.433383,0.8252444,-0.06388873,0.2006407,-25.71049,19.59418,3.696873
73.437497139,49.86879,114.2959,-8.66271300000003,0.8390751,-0.1569183,0.1689048,-25.71049,19.59418,3.696873
73.447383881,52.16901,107.529,-13.85548,0.8456177,-0.1877606,0.02863913,-25.71049,19.59418,3.696873
73.457270146,53.22587,93.5833700000002,-13.0002,0.908768,-0.1080916,0.121607,-25.27671,20.2221,0.4530883
73.467156887,43.90065,90.7000899999998,-11.65619,0.9307633,-0.02948257,0.1707697,-25.27671,20.2221,0.4530883
73.477043629,28.66945,96.8196999999998,-10.98419,0.8942959,0.002345764,0.2427055,-25.27671,20.2221,0.4530883
73.48693037,15.6763,104.7046,-12.14492,0.8355587,-0.03432018,0.1928082,-25.27671,20.2221,0.4530883
73.496816635,7.53226999999998,103.1159,-14.03876,0.7914182,-0.06078902,0.142876,-25.27671,20.2221,0.4530883
73.506703377,4.299526,98.58498,-15.19949,0.78837,-0.07883416,0.1732617,-25.21349,19.45978,-3.298651
73.516590119,-3.347158,95.5251699999999,-13.30566,0.8146385,-0.1080379,0.3080971,-25.21349,19.45978,-3.298651
73.52647686,-13.72924,93.7010499999998,-12.57256,0.8551173,-0.1495622,0.3699108,-25.21349,19.45978,-3.298651
73.536363125,-19.82172,91.1708299999999,-12.20601,0.886009,-0.1744127,0.4056597,-25.21349,19.45978,-3.298651
73.548721313,-20.75424,90.7589300000002,-10.80091,0.8732848,-0.1981115,0.4149025,-25.21349,19.45978,-3.298651
73.558608055,-15.90513,93.2891500000001,-9.02926199999999,0.8260924,-0.2172231,0.4332204,-25.9392,19.06174,-4.99668
73.56849432,-12.61021,91.8769400000001,-7.074337,0.792467,-0.2511425,0.4400865,-25.9392,19.06174,-4.99668
73.578381061,-8.00976999999999,82.52098,-5.180504,0.778994,-0.2200086,0.4360664,-25.9392,19.06174,-4.99668
73.588267803,-5.087867,70.8113300000002,-5.48596,0.8158514,-0.193511,0.4869521,-25.9392,19.06174,-4.99668
73.598154545,-5.77171700000003,68.5753099999998,-5.180504,0.8735592,-0.1878228,0.5168061,-25.9392,19.06174,-4.99668
73.60804081,-4.777026,71.9881700000002,-8.35725599999999,0.8828126,-0.170124,0.5292311,-25.52599,19.39609,-7.068694
73.617927551,-1.419945,68.2222600000002,-7.25761099999999,0.850755,-0.1843475,0.5182053,-25.52599,19.39609,-7.068694
73.627814293,1.315454,67.8692000000003,-7.25761099999999,0.8326644,-0.1954234,0.5567145,-25.52599,19.39609,-7.068694
73.637701034,4.237358,67.7515200000001,-9.76235899999999,0.8360291,-0.2011944,0.5620375,-25.52599,19.39609,-7.068694
73.647587299,2.620985,61.1611600000003,-3.958676,0.7893713,-0.2071809,0.578847,-25.52599,19.39609,-7.068694
73.657474041,5.356384,59.6901000000002,-3.469945,0.8097064,-0.1929682,0.6201575,-25.13594,18.61893,-7.892592
73.667360783,1.812799,68.1634100000001,-2.614666,0.8037494,-0.1965985,0.6697039,-25.13594,18.61893,-7.892592
73.677246571,-4.093176,83.9331999999997,6.73231800000002,0.7410448,-0.2471553,0.6347809,-25.13594,18.61893,-7.892592
73.687133312,-5.77171700000003,76.5190500000002,12.23054,0.7174559,-0.188123,0.6387841,-25.13594,18.61893,-7.892592
73.697020054,-8.19627499999999,76.0483100000001,7.40432299999999,0.8322851,-0.117965,0.6236515,-25.13594,18.61893,-7.892592
73.706906319,-7.20158399999998,55.04154,6.36576900000001,0.7525764,-0.1315624,0.6481566,-24.34714,18.19164,-9.945419
73.71679306,-13.91575,55.68881,6.976684,0.7995167,-0.1461898,0.6857957,-24.34714,18.19164,-9.945419
73.726679802,-14.16442,48.39234,3.189017,0.8131006,-0.1377156,0.7006769,-24.34714,18.19164,-9.945419
73.736566544,-12.48588,41.09587,0.5009956,0.8589703,-0.05674247,0.7157094,-24.34714,18.19164,-9.945419
73.746452808,-10.12349,54.9827,-3.897585,0.8090717,-0.2547253,0.5935373,-24.34714,18.19164,-9.945419
73.75633955,-4.714858,34.44667,-3.103397,0.7534575,-0.2324361,0.7414851,-24.32465,18.92508,-11.18823
73.766226292,-1.792954,36.38847,-4.14195,0.7759362,-0.2150241,0.7039108,-24.32465,18.92508,-11.18823
73.778584003,-0.4252549,35.68237,-4.99723,0.8461403,-0.2439126,0.7353965,-24.32465,18.92508,-11.18823
73.788470745,2.80749,29.97464,-4.386316,0.8441738,-0.2303153,0.7651426,-24.32465,18.92508,-11.18823
73.798357487,0.9424447,35.38815,-3.103397,0.8492197,-0.2071549,0.718863,-24.32465,18.92508,-11.18823
73.808244228,0.631603899999999,30.15117,-3.958676,0.8806186,-0.1983042,0.7938776,-23.61979,18.52138,-12.01028
73.818130493,-1.730786,30.26886,-2.79794,0.8302558,-0.2029199,0.7390187,-23.61979,18.52138,-12.01028
73.828017235,-1.419945,17.61772,-2.248117,0.8009665,-0.1476463,0.6862857,-23.61979,18.52138,-12.01028
73.837903976,-1.60645,18.9711,0.3177214,0.8535528,-0.2049496,0.7366508,-23.61979,18.52138,-12.01028
73.847790718,-1.792954,17.85309,2.089372,0.8171238,-0.2012317,0.752461,-23.61979,18.52138,-12.01028
73.857676983,-1.109105,12.67495,4.227571,0.8247543,-0.214822,0.7890883,-23.22906,18.12228,-12.83949
73.867563724,-0.798263799999999,11.4981,6.06031299999999,0.7742661,-0.2320818,0.7679576,-23.22906,18.12228,-12.83949
73.877450466,-0.1765822,9.026717,7.64868900000003,0.8023918,-0.2165459,0.8010947,-23.22906,18.12228,-12.83949
73.887337208,0.1964268,3.789736,8.87051700000001,0.7514992,-0.2064494,0.7855963,-23.22906,18.12228,-12.83949
73.897223473,1.253286,1.200667,9.237065,0.7559023,-0.2061796,0.7716532,-23.22906,18.12228,-12.83949
73.907110214,2.247976,-1.623772,9.48143099999997,0.7427545,-0.2053863,0.7903901,-22.48891,18.5048,-11.98454
73.916996956,3.242667,-5.86043100000001,9.60361400000002,0.734038,-0.1995257,0.7903506,-22.48891,18.5048,-11.98454
73.926883697,4.175189,-8.802556,9.48143099999997,0.7311514,-0.1817669,0.8051662,-22.48891,18.5048,-11.98454
73.936769485,4.423862,-11.627,9.42034000000002,0.7331561,-0.1692324,0.7969295,-22.48891,18.5048,-11.98454
73.946656227,4.48603,-14.09838,8.320694,0.7371385,-0.1439908,0.7919973,-22.48891,18.5048,-11.98454
73.956542492,4.48603,-17.8643,7.09886600000001,0.721238,-0.1327542,0.7597007,-22.85673,19.25809,-12.4577
73.966429234,4.361694,-21.27716,4.899576,0.7435257,-0.1230933,0.7899752,-22.85673,19.25809,-12.4577
73.976315975,4.672534,-26.16109,2.700286,0.7057537,-0.1270528,0.7481121,-22.85673,19.25809,-12.4577
73.988674641,4.237358,-28.16173,-0.904106400000002,0.7227277,-0.1324715,0.7462351,-22.85673,19.25809,-12.4577
73.998560905,4.548198,-32.75145,-3.653219,0.7338133,-0.1324987,0.7784696,-22.48823,18.88286,-11.98985
74.008447647,4.050853,-35.75241,-6.15796599999999,0.7120216,-0.1501891,0.7323657,-22.48823,18.88286,-11.98985
74.018334389,3.242667,-39.40065,-8.54052999999998,0.725623,-0.1363513,0.7477008,-22.48823,18.88286,-11.98985
74.028220177,3.242667,-44.28457,-10.73982,0.7028192,-0.1642297,0.7040519,-22.48823,18.88286,-11.98985
74.038106918,3.429171,-49.87461,-11.41183,0.7110803,-0.1628139,0.7021305,-22.48823,18.88286,-11.98985
74.04799366,3.926517,-56.99455,-11.04528,0.7434656,-0.1645146,0.7555581,-22.88699,18.533,-10.76092
74.057880402,2.931826,-55.11159,-12.45038,0.7552633,-0.1659739,0.6920973,-22.88699,18.533,-10.76092
74.067766666,3.553508,-58.2302399999998,-11.83947,0.7552478,-0.1633881,0.7021836,-22.88699,18.533,-10.76092
74.077653408,2.993994,-53.81705,-11.5951,0.76544,-0.1589251,0.7089055,-22.88699,18.533,-10.76092
74.08754015,2.434481,-57.58297,-10.12891,0.7441397,-0.1751627,0.6623141,-22.88699,18.533,-10.76092
74.097426891,3.553508,-61.4665800000002,-9.57908399999997,0.7582853,-0.1641849,0.6492897,-23.95573,18.1706,-10.77993
74.107313156,2.372312,-65.9386100000001,-4.56959,0.7510126,-0.1632254,0.647353,-23.95573,18.1706,-10.77993
74.117199898,0.693772100000003,-60.4662600000002,-5.669235,0.7888262,-0.1774433,0.646025,-23.95573,18.1706,-10.77993
74.127086639,-0.798263799999999,-56.40612,-4.386316,0.7630749,-0.2060884,0.6158425,-23.95573,18.1706,-10.77993
74.136972904,-0.922600200000001,-64.5852300000002,0.806452599999999,0.7414463,-0.1845015,0.5584792,-23.95573,18.1706,-10.77993
74.146859646,1.128949,-73.94118,-0.598649399999998,0.8070354,-0.1526846,0.5781108,-25.12996,18.23372,-8.276405
74.156746388,-0.3630867,-76.0006700000001,0.4399042,0.8498017,-0.1605694,0.5450157,-25.12996,18.23372,-8.276405
74.166633129,0.9424447,-78.2366899999999,-1.087381,0.8821206,-0.1857371,0.5923099,-25.12996,18.23372,-8.276405
74.176519394,-1.419945,-76.9421500000003,5.327216,0.8531129,-0.1669979,0.5715026,-25.12996,18.23372,-8.276405
