Time (s),Gyroscope X (deg/s),Gyroscope Y (deg/s),Gyroscope Z (deg/s),Accelerometer X (g),Accelerometer Y (g),Accelerometer Z (g),Magnetometer X (uT),Magnetometer Y (uT),Magnetometer Z (uT)
16.323954105,-8.67241400000003,-4.425405,-0.2759189,0.09793835,0.1387461,0.6539143,-18.58952,-25.72568,-17.95435
16.33386755,-17.34374,-8.15353100000001,-0.3372818,0.0920883,0.1645354,0.6858307,-18.58952,-25.72568,-17.95435
16.343780041,-25.70538,-11.06613,-0.3986447,0.09272167,0.1638894,0.7468006,-18.58952,-25.72568,-17.95435
16.353693009,-33.8812,-13.92048,0.828613499999998,0.1038043,0.1042022,0.8039194,-18.58952,-25.72568,-17.95435
16.363605976,-38.34074,-17.93986,3.344493,0.1173853,0.01774429,0.8349083,-18.58952,-25.72568,-17.95435
16.373518944,-37.96911,-23.4738,5.92173499999998,0.1398828,-0.06561662,0.8807203,-18.2088,-26.09841,-17.50543
16.383431912,-33.32376,-28.13395,8.06943700000002,0.17115,-0.1352252,0.939507,-18.2088,-26.09841,-17.50543
16.393344879,-26.82026,-32.4446,8.80579200000003,0.1701031,-0.1369762,0.9783978,-18.2088,-26.09841,-17.50543
16.40325737,-19.3877,-34.83293,5.86037199999999,0.2548207,-0.1497487,1.023144,-18.2088,-26.09841,-17.50543
16.413170815,-13.50358,-34.07565,2.730864,0.2711592,-0.0994455,1.054058,-18.2088,-26.09841,-17.50543
16.423083305,-10.65443,-33.95915,0.1536215,0.2866363,-0.08860611,1.050146,-18.59437,-25.35108,-17.95551
16.43299675,-8.67241400000003,-34.59992,-1.073637,0.2873313,-0.06532646,1.049815,-18.59437,-25.35108,-17.95551
16.442909241,-7.557528,-35.00768,-1.687266,0.301636,-0.02582,1.060509,-18.59437,-25.35108,-17.95551
16.452821732,-6.318768,-33.55138,-1.687266,0.3233597,-0.01447039,1.046459,-18.59437,-25.35108,-17.95551
16.465213299,-2.602484,-30.9883,-1.625903,0.3362573,-0.04689809,1.026437,-19.70446,-26.09697,-17.11218
16.47512579,2.66225,-28.77472,-0.828185100000001,0.3606966,-0.08927505,1.023528,-19.70446,-26.09697,-17.11218
16.485039234,7.30760400000002,-25.74562,0.3377102,0.3558437,-0.1088294,1.004236,-19.70446,-26.09697,-17.11218
16.494951725,10.34257,-24.05632,3.037678,0.3321639,-0.1472812,0.9388979,-19.70446,-26.09697,-17.11218
16.50486517,13.19172,-26.67765,5.124017,0.3001294,-0.09830255,0.9241554,-19.70446,-26.09697,-17.11218
16.51477766,11.82908,-29.18249,6.044461,0.3300079,-0.02913034,0.9147367,-20.453,-25.71694,-15.76031
16.524690151,6.06884200000002,-29.59025,3.160404,0.3400065,0.03280039,0.8656005,-20.453,-25.71694,-15.76031
16.534603596,-1.177909,-32.6776,-2.853161,0.3593888,0.0388073,0.855378,-20.453,-25.71694,-15.76031
16.544516087,-10.40668,-33.37663,-7.27128999999997,0.3589676,0.02396276,0.8922552,-20.453,-25.71694,-15.76031
16.554428577,-17.46762,-32.21159,-9.29626599999999,0.4007535,-0.006131809,0.878704,-20.453,-25.71694,-15.76031
16.564342022,-16.66242,-31.57082,-9.90989499999997,0.4078301,-0.03129169,0.8717487,-21.57253,-26.09346,-16.20303
16.574254513,-11.088,-30.63879,-8.06900800000002,0.484987,-0.07500549,0.8582597,-21.57253,-26.09346,-16.20303
16.584167957,-2.912175,-28.65822,-4.878137,0.4520589,-0.04184444,0.8808724,-21.57253,-26.09346,-16.20303
16.594080448,3.529382,-27.9592,-2.914524,0.4408394,-0.02587384,0.9022096,-21.57253,-26.09346,-16.20303
16.603993416,3.591321,-30.23102,1.012702,0.4406252,-0.0079365,0.9023311,-21.57253,-26.09346,-16.20303
16.613906383,0.1847278,-30.87179,3.099041,0.4471856,-0.0101898,0.9195411,-21.94704,-25.71366,-14.91734
16.623819351,-3.283803,-28.25046,4.75584,0.471676,-0.008886008,0.9250851,-21.94704,-25.71366,-14.91734
16.633732319,-4.64644,-24.63884,5.430832,0.561128,-0.05240977,0.9186863,-21.94704,-25.71366,-14.91734
16.643645286,-6.00907800000001,-19.33791,5.369469,0.5151966,-0.09369653,0.9212368,-21.94704,-25.71366,-14.91734
16.653557777,-4.398688,-17.24084,6.22854899999998,0.5149077,-0.1406673,0.9334106,-21.94704,-25.71366,-14.91734
16.663471222,0.866046300000002,-18.05636,8.86715399999999,0.5203463,-0.1498371,0.9284977,-23.43762,-26.08655,-14.45869
16.673383713,7.05985200000002,-19.1049,10.09441,0.5159319,-0.1345379,0.8974301,-23.43762,-26.08655,-14.45869
16.683296204,10.59032,-19.92043,8.80579200000003,0.4990411,-0.08732796,0.8791746,-23.43762,-26.08655,-14.45869
16.693209648,11.64327,-18.75539,7.27171900000003,0.4931004,-0.03476538,0.8382862,-23.43762,-26.08655,-14.45869
16.703122139,7.30760400000002,-16.30881,5.18538,0.4971787,-0.01439019,0.8307016,-23.43762,-26.08655,-14.45869
16.713035583,0.1847278,-13.39621,2.730864,0.5038345,-0.005134877,0.8230192,-23.81997,-25.33556,-14.00934
16.722948074,-5.637449,-11.00788,0.03089567,0.492538,0.03347419,0.8156984,-23.81997,-25.33556,-14.00934
16.732861042,-8.61047599999998,-10.65837,-2.546346,0.5083469,0.05789639,0.8123538,-23.81997,-25.33556,-14.00934
16.745252132,-8.61047599999998,-10.65837,-3.589516,0.5366224,0.06430974,0.8591905,-23.81997,-25.33556,-14.00934
16.755165577,-6.93814800000003,-9.49332599999999,-2.300895,0.546742,0.06217029,0.8898128,-23.81997,-25.33556,-14.00934
16.765078068,-5.018068,-7.16324699999999,-0.644096300000003,0.5599734,0.02406266,0.8956786,-24.18292,-26.08295,-13.55537
16.774990559,-3.903184,-4.192397,1.074065,0.5608652,-0.005965494,0.8997918,-24.18292,-26.08295,-13.55537
16.784904003,-5.018068,-2.619594,2.424049,0.5304806,-0.04759623,0.8921129,-24.18292,-26.08295,-13.55537
16.794816494,-6.87620999999998,-1.920571,2.23996,0.513732,-0.0846938,0.884338,-24.18292,-26.08295,-13.55537
16.804729462,-7.557528,-0.1147597,1.012702,0.504757,-0.1114753,0.8837625,-24.18292,-26.08295,-13.55537
16.814642429,-6.56652,0.875523700000001,-0.644096300000003,0.4932099,-0.1139635,0.8992178,-24.55718,-26.08298,-13.55342
16.824555397,-5.327759,0.5842639,-1.932717,0.4741485,-0.1005395,0.9158089,-24.55718,-26.08298,-13.55342
16.834468365,-3.965122,-1.221547,-2.239532,0.4404173,-0.08778758,0.9315708,-24.55718,-26.08298,-13.55342
16.844381332,-1.79729,-3.37687,-1.99408,0.4171856,-0.06918135,0.9290287,-24.55718,-26.08298,-13.55342
16.854293823,0.2466658,-4.774917,-0.644096300000003,0.3967847,-0.05351879,0.9129963,-24.55718,-26.08298,-13.55342
16.864206791,1.361551,-5.357436,0.6445247,0.3660206,-0.0438879,0.8806943,-25.30432,-26.08147,-13.16406
16.874119759,1.547365,-6.34771999999997,1.871783,0.3488115,-0.03829821,0.8780097,-25.30432,-26.08147,-13.16406
16.884032726,0.494418,-8.03702600000001,2.546775,0.3285972,-0.03619711,0.864286,-25.30432,-26.08147,-13.16406
16.893945694,-0.2488386,-9.90108999999998,2.976315,0.3202081,-0.02560942,0.8692358,-25.30432,-26.08147,-13.16406
16.903858185,-0.2488386,-12.52243,3.037678,0.3183368,-0.04217527,0.858099,-25.30432,-26.08147,-13.16406
16.913771629,1.237675,-15.84279,3.221767,0.3262388,-0.05374371,0.852187,-24.93491,-25.70684,-13.16716
16.92368412,3.157754,-18.17287,3.528581,0.3322762,-0.06675261,0.853485,-24.93491,-25.70684,-13.16716
16.933596611,5.263648,-20.44469,3.160404,0.3442133,-0.08454929,0.8522957,-24.93491,-25.70684,-13.16716
16.943510056,6.62628499999997,-22.42526,2.792227,0.3520553,-0.09273438,0.8444861,-24.93491,-25.70684,-13.16716
16.953422546,7.369542,-24.34758,3.405856,0.3774396,-0.08853517,0.8452397,-24.93491,-25.70684,-13.16716
16.963335991,8.23667399999998,-26.67765,4.571751,0.3958482,-0.1135095,0.8468237,-25.30432,-26.08147,-13.16406
16.973248482,10.09482,-28.94948,5.79900900000001,0.4247758,-0.1165219,0.8508575,-25.30432,-26.08147,-13.16406
16.983161449,12.26265,-30.81354,7.33308200000001,0.4328767,-0.09555214,0.8547635,-25.30432,-26.08147,-13.16406
16.993074417,13.68722,-32.61935,7.88534800000001,0.4511748,-0.103023,0.8660683,-25.30432,-26.08147,-13.16406
17.002987385,15.29761,-33.95915,8.13079899999997,0.4576391,-0.1116678,0.8664312,-25.30432,-26.08147,-13.16406
17.012900352,16.28862,-34.77468,7.88534800000001,0.4614457,-0.06070222,0.8681759,-26.43842,-24.95411,-12.26226
17.02281332,14.49242,-37.10476,7.82398500000003,0.4588251,-0.04472678,0.8697471,-26.43842,-24.95411,-12.26226
17.035204411,13.12978,-38.21154,8.62170300000002,0.4857859,-0.02825704,0.895536,-26.43842,-24.95411,-12.26226
17.045116901,11.33358,-37.45427,9.66487199999998,0.4949198,-0.01066109,0.9008505,-26.43842,-24.95411,-12.26226
17.055030346,10.03288,-34.71642,10.03305,0.497381,-0.009158513,0.9041989,-26.43842,-24.95411,-12.26226
17.064942837,7.369542,-32.21159,9.72623500000002,0.5016552,0.0005869023,0.9032639,-27.18257,-24.94921,-11.03772
17.074855804,6.006905,-30.46403,9.91032400000003,0.5053445,-0.0221584,0.9025981,-27.18257,-24.94921,-11.03772
17.084768772,5.20171,-29.06598,9.66487199999998,0.5005057,0.003412174,0.8898489,-27.18257,-24.94921,-11.03772
17.09468174,4.706205,-27.37668,8.86715399999999,0.4984862,0.0009155106,0.8807279,-27.18257,-24.94921,-11.03772
17.104594231,4.210701,-25.10485,8.31488799999999,0.5030988,-0.002821551,0.8969858,-27.18257,-24.94921,-11.03772
17.114507675,2.910002,-23.00778,7.76262199999999,0.4858771,0.04104992,0.8902349,-29.03932,-26.07314,-11.02453
17.124420166,0.680232200000002,-20.32819,6.78081600000001,0.4876768,0.01441217,0.8914813,-29.03932,-26.07314,-11.02453
17.134333611,-3.71737,-18.23112,5.369469,0.4772838,0.01665765,0.8819892,-29.03932,-26.07314,-11.02453
17.144246101,-7.61946700000001,-16.36706,4.510388,0.453489,-0.01721546,0.8584559,-29.03932,-26.07314,-11.02453
17.154158592,-8.79629,-15.14377,3.589944,0.4460524,-0.03297025,0.8300904,-29.03932,-26.07314,-11.02453
17.164072037,-9.35373199999999,-14.38649,3.405856,0.4748523,0.07516179,0.856473,-29.81532,-23.8238,-10.57785
17.173984528,-13.93715,-13.39621,5.062654,0.4622352,-0.03079246,0.8371576,-29.81532,-23.8238,-10.57785
17.183897972,-15.91917,-14.26999,6.47400099999998,0.4666011,-0.04904372,0.8600432,-29.81532,-23.8238,-10.57785
17.193810463,-12.94614,-10.71662,4.14221,0.4884246,-0.1790969,0.7855108,-29.81532,-23.8238,-10.57785
17.203722954,-5.76132499999998,-9.37682200000001,5.430832,0.4524414,-0.01849676,0.7072072,-29.81532,-23.8238,-10.57785
17.213636398,1.733179,-12.17292,4.14221,0.4187776,-0.01912881,0.6662208,-30.9381,-23.82389,-10.57201
17.223548889,1.857055,-16.77482,3.221767,0.4497215,-0.009890027,0.6904842,-30.9381,-23.82389,-10.57201
17.233462334,0.494418,-26.21164,3.589944,0.449884,0.04189305,0.6716214,-30.9381,-23.82389,-10.57201
17.243374825,1.299613,-32.73586,1.994509,0.522211,-0.001850903,0.6639388,-30.9381,-23.82389,-10.57201
17.253287792,-0.682404900000003,-35.00768,2.608138,0.5391894,-0.00389769,0.6959387,-30.9381,-23.82389,-10.57201
17.26320076,-8.176909,-37.62902,2.792227,0.5265671,-0.004009716,0.7046975,-32.81722,-23.45284,-11.39861
17.273113728,-12.94614,-41.24064,1.503605,0.5182284,-0.01827386,0.6854733,-32.81722,-23.45284,-11.39861
17.283026218,-12.20288,-42.92995,-0.828185100000001,0.5267988,-0.02413749,0.6560653,-32.81722,-23.45284,-11.39861
17.292939663,-11.33575,-42.46394,-3.528153,0.5537105,-0.05305922,0.6239334,-32.81722,-23.45284,-11.39861
17.302852154,-12.51257,-43.86198,-5.123589,0.563738,-0.05647048,0.5964488,-32.81722,-23.45284,-11.39861
17.315243244,-15.05203,-48.8134,-5.000863,0.5943322,-0.04887716,0.5846927,-33.19819,-22.70028,-10.56379
17.325156212,-14.49459,-53.70656,-4.632685,0.6267464,-0.0630329,0.5818979,-33.19819,-22.70028,-10.56379
17.33506918,-11.088,-58.3667199999997,-5.123589,0.644731,-0.04920344,0.5875855,-33.19819,-22.70028,-10.56379
17.344982147,-8.79629,-62.1531000000001,-6.596298,0.6660597,-0.064392,0.5992911,-33.19819,-22.70028,-10.56379
17.354895115,-11.33575,-65.3569599999998,-5.98266900000002,0.7048522,-0.06431042,0.6152582,-34.69362,-22.69857,-10.1063
17.364808083,-15.85723,-66.40549,-5.246314,0.7359839,-0.1435062,0.6019586,-34.69362,-22.69857,-10.1063
17.374720574,-13.87521,-65.1239499999999,-5.92130599999998,0.791978,-0.2197501,0.5370718,-34.69362,-22.69857,-10.1063
17.384634018,-3.71737,-62.6773700000001,-5.430403,0.785414,-0.2109176,0.4795723,-34.69362,-22.69857,-10.1063
17.394546509,6.06884200000002,-61.8618400000001,-3.89633,0.7944115,-0.1041331,0.4806807,-34.69362,-22.69857,-10.1063
17.404459,3.219692,-64.9491999999999,-3.221339,0.7499147,-0.003475831,0.5509056,-36.2006,-21.56968,-8.81708
17.414372444,-3.779308,-70.3666300000002,-2.607709,0.7185843,0.01635257,0.5229981,-36.2006,-21.56968,-8.81708
17.424284935,-7.74334299999998,-75.6093099999998,-3.589516,0.6961722,0.006844333,0.5197809,-36.2006,-21.56968,-8.81708
17.43419838,-10.15893,-82.54129,-4.141782,0.6873157,0.01109562,0.519411,-36.2006,-21.56968,-8.81708
17.44411087,-12.94614,-88.6577499999999,-5.92130599999998,0.6901657,-0.02037027,0.5220559,-36.2006,-21.56968,-8.81708
17.454023838,-16.60048,-92.1528599999999,-7.82355600000003,0.7272313,-0.06214531,0.5113515,-37.31556,-21.56088,-6.626924
17.463936806,-20.19289,-93.6091599999997,-8.86672600000002,0.7413074,-0.07909492,0.4813386,-37.31556,-21.56088,-6.626924
17.473849774,-21.49359,-93.7256600000001,-9.78716900000001,0.7644961,-0.09894748,0.4305753,-37.31556,-21.56088,-6.626924
17.483762741,-21.49359,-94.6577000000002,-8.68263700000001,0.7478958,-0.08719621,0.3991166,-37.31556,-21.56088,-6.626924
17.493675709,-20.31677,-96.1722500000002,-9.72580600000002,0.7462854,-0.09167948,0.3798953,-37.31556,-21.56088,-6.626924
17.5035882,-18.21087,-99.1431,-9.35762899999997,0.7680532,-0.0642094,0.389,-38.42892,-21.55025,-3.987056
17.513501644,-14.86622,-100.3664,-9.60308100000002,0.7798626,-0.1052389,0.3958198,-38.42892,-21.55025,-3.987056
17.523414135,-9.84923700000002,-100.4246,-9.23490300000001,0.8121678,-0.1582275,0.3846046,-38.42892,-21.55025,-3.987056
17.53332758,-4.708378,-100.7159,-7.148564,0.8258902,-0.1634054,0.3815623,-38.42892,-21.55025,-3.987056
17.54324007,-5.389697,-101.6479,-4.878137,0.8306341,-0.1297615,0.4067107,-38.42892,-21.55025,-3.987056
17.553152561,-7.929157,-102.9295,-3.282701,0.8479326,-0.1126261,0.3970618,-40.27486,-22.6619,-0.9543648
17.563066006,-9.663423,-105.3178,-2.607709,0.8715045,-0.098869,0.3753283,-40.27486,-22.6619,-0.9543648
17.572978496,-8.85822799999998,-107.8226,-4.203145,0.8901763,-0.08956889,0.3473684,-40.27486,-22.6619,-0.9543648
17.582891941,-7.309776,-110.6187,-4.387233,0.9048591,-0.104012,0.3317713,-40.27486,-22.6619,-0.9543648
17.595282555,-4.770316,-112.4828,-5.79858000000001,0.8964912,-0.08683244,0.2988322,-40.27486,-22.6619,-0.9543648
17.605195999,-3.345741,-114.3469,-5.92130599999998,0.9482818,-0.08913063,0.2920959,-40.2657,-22.27135,2.963404
17.61510849,-4.150936,-115.6284,-4.448596,0.9684181,-0.04664255,0.3027562,-40.2657,-22.27135,2.963404
17.625021458,-7.18590000000003,-115.6867,-3.528153,1.035691,-0.02492786,0.3080406,-40.2657,-22.27135,2.963404
17.634934425,-11.33575,-116.9099,-0.2759189,1.065908,-0.04362389,0.2764263,-40.2657,-22.27135,2.963404
17.644846916,-14.24684,-115.5702,1.626331,1.053594,-0.06284823,0.2452019,-40.2657,-22.27135,2.963404
17.654760361,-14.92816,-111.6673,2.23996,0.959731,-0.03987293,0.2265365,-41.74711,-22.2537,7.339823
17.664672851,-14.37072,-106.8906,4.080848,0.9907785,-0.08716567,0.194724,-41.74711,-22.2537,7.339823
17.674585342,-10.03505,-102.2305,4.878565,0.9402977,-0.07419911,0.1986383,-41.74711,-22.2537,7.339823
17.684498787,-4.02706,-99.0266000000002,5.73764600000002,0.9593666,-0.08908258,0.1810772,-41.74711,-22.2537,7.339823
17.694411278,1.05186,-100.7742,6.65808999999999,0.9888034,-0.04500945,0.1945429,-41.74711,-22.2537,7.339823
17.704324722,1.423489,-105.4926,5.308106,1.065808,-0.01148987,0.208939,-41.725,-22.98877,10.81134
17.714237213,-3.469617,-108.1139,4.449025,1.135139,-0.002868333,0.2088354,-41.725,-22.98877,10.81134
17.724150181,-10.59249,-106.7741,4.694477,1.13936,0.01465415,0.211794,-41.725,-22.98877,10.81134
17.734063148,-17.34374,-99.4926100000003,4.14221,1.048536,0.0304042,0.1949731,-41.725,-22.98877,10.81134
17.743976116,-20.93615,-91.91985,0.705887599999999,0.9572152,0.01589993,0.1419433,-41.725,-22.98877,10.81134
17.753889084,-21.61747,-91.0460699999998,0.828613499999998,0.9224193,-0.01482024,0.09836604,-41.33673,-22.97279,14.72832
17.763802051,-17.71537,-90.6965600000001,0.03089567,0.8903893,-0.0365621,0.09659678,-41.33673,-22.97279,14.72832
17.773714542,-12.07901,-90.8130599999999,-0.3986447,0.9358417,-0.04819871,0.08073384,-41.33673,-22.97279,14.72832
17.783627987,-7.062024,-93.3179000000002,0.583161800000002,1.003536,-0.07992335,0.06453137,-41.33673,-22.97279,14.72832
17.793540478,-4.584502,-96.4052600000001,1.994509,1.06877,-0.09143847,0.1181092,-41.33673,-22.97279,14.72832
17.803453922,-2.41667,-97.6868000000002,3.160404,1.216285,-0.1579521,0.1201432,-40.93529,-24.08217,18.26329
17.813366413,-3.469617,-94.9489600000003,5.79900900000001,1.36397,-0.2368114,0.1720297,-40.93529,-24.08217,18.26329
17.823278904,0.43248,-89.7645300000003,9.17396900000002,1.517095,-0.2860638,0.2168608,-40.93529,-24.08217,18.26329
17.833192348,0.927984400000002,-81.4927500000001,12.11939,1.61203,-0.3255635,0.2253228,-40.93529,-24.08217,18.26329
17.843104839,-1.983104,-74.0364999999999,15.18753,1.586987,-0.3476337,0.2369312,-40.93529,-24.08217,18.26329
17.853018284,-8.92016599999997,-68.3278100000002,16.35343,1.418518,-0.3018342,0.2176674,-40.18404,-23.69889,20.37831
17.862930775,-18.14894,-64.1336699999999,13.16256,1.147704,-0.2117885,0.1881211,-40.18404,-23.69889,20.37831
17.872843266,-28.80228,-63.6676500000001,7.76262199999999,1.018665,-0.1538773,0.1656923,-40.18404,-23.69889,20.37831
17.885234833,-41.31377,-66.8132600000002,3.160404,0.9371421,-0.09727814,0.1500178,-40.18404,-23.69889,20.37831
17.895148277,-44.72036,-69.78411,1.38088,0.9084275,-0.08806189,0.1263368,-40.18404,-23.69889,20.37831
17.905060768,-37.65942,-72.2306899999998,-0.5213705,0.9370983,-0.07194397,0.08008387,-39.42125,-24.0627,23.00961
17.914973259,-20.44064,-67.8035400000002,-3.712242,0.9845722,-0.03669258,0.1254947,-39.42125,-24.0627,23.00961
17.924886703,-5.141944,-56.73566,-7.08720199999999,1.037997,0.005256689,0.1392047,-39.42125,-24.0627,23.00961
17.934799194,8.60830200000001,-44.09499,-10.33944,1.074063,0.01491712,0.1389355,-39.42125,-24.0627,23.00961
17.944711685,18.82808,-30.87179,-12.0576,1.094609,0.02639885,0.1532267,-39.42125,-24.0627,23.00961
17.95462513,24.52638,-20.96896,-12.97804,1.092675,0.02004422,0.1479205,-37.93093,-23.30999,23.83469
17.964537621,25.57933,-13.80397,-11.68942,1.099628,-0.0200535,0.1591129,-37.93093,-23.30999,23.83469
17.974451065,21.67723,-8.15353100000001,-9.54171799999998,1.106114,-0.05039009,0.183819,-37.93093,-23.30999,23.83469
17.984363556,13.74916,-2.79435,-6.596298,1.076991,-0.09722674,0.1977009,-37.93093,-23.30999,23.83469
17.994276524,3.157754,1.399791,-3.957693,1.006247,-0.1321804,0.1721938,-37.93093,-23.30999,23.83469
18.004189491,-9.22985600000001,1.982311,-2.484983,1.003307,-0.1931955,0.1002709,-36.04997,-23.67895,25.17525
18.014102459,-11.39769,-3.435122,-4.632685,1.057338,-0.1989843,0.06948267,-36.04997,-23.67895,25.17525
18.024015427,-15.54754,-7.51275900000002,-7.63946799999999,1.183742,-0.1787457,0.02187314,-36.04997,-23.67895,25.17525
18.033928394,-17.52956,-5.240932,-9.90989499999997,1.302545,-0.1638554,-0.01033666,-36.04997,-23.67895,25.17525
18.043840885,-16.16692,2.623082,-10.95306,1.325653,-0.1559448,-0.03642621,-36.04997,-23.67895,25.17525
18.05375433,-11.33575,13.34144,-10.76898,1.30555,-0.142566,-0.02606785,-36.42908,-23.30438,25.17604
18.063666821,-4.956131,24.11806,-10.76898,1.273119,-0.1191508,-0.01408813,-36.42908,-23.30438,25.17604
18.073580265,0.0608516599999998,33.67138,-12.91668,1.262538,-0.05407659,0.03157813,-36.42908,-23.30438,25.17604
18.083492756,-1.301785,41.71015,-18.0098,1.233261,0.02436399,0.08182776,-36.42908,-23.30438,25.17604
18.093405247,-1.363724,49.45766,-18.80752,1.23962,0.02859547,0.1346146,-36.42908,-23.30438,25.17604
18.103318691,-3.655432,57.6129399999999,-20.58704,1.221227,0.1145537,0.2059406,-36.0578,-23.30775,24.33892
18.113231182,-5.88520100000001,64.42841,-22.05975,1.131108,0.2028658,0.3427669,-36.0578,-23.30775,24.33892
18.123144627,-9.53954700000003,72.1176700000001,-21.44612,1.126768,0.04481065,0.3542382,-36.0578,-23.30775,24.33892
18.133057117,-6.318768,75.2050200000002,-20.28023,1.149461,0.1166562,0.4102054,-36.0578,-23.30775,24.33892
18.142970085,-6.13295399999998,75.3215299999997,-21.38476,1.118307,0.1373124,0.4480834,-36.05592,-24.06583,22.15691
18.152883053,-11.45963,78.2923800000001,-22.48929,1.080868,0.1532879,0.4398933,-36.05592,-24.06583,22.15691
18.162796021,-13.37971,77.3020899999998,-22.12111,1.034661,0.1089218,0.3166243,-36.05592,-24.06583,22.15691
18.175187111,-5.575511,79.3991700000002,-23.83928,1.049071,0.05117062,0.2714517,-36.05592,-24.06583,22.15691
18.185099602,-4.398688,84.7001,-24.20745,1.173244,-0.04898927,0.1990527,-36.05592,-24.06583,22.15691
18.195013046,-0.3107767,96.2339900000001,-20.21886,1.245547,-0.1771274,0.1855265,-36.80416,-24.8258,19.52908
18.204925537,-1.054033,97.2242700000001,-13.40758,1.127883,-0.2804629,0.08221203,-36.80416,-24.8258,19.52908
18.214838982,-2.664423,90.4087899999998,-9.48035400000003,0.9927489,-0.3727393,-0.09049008,-36.80416,-24.8258,19.52908
18.224751473,-0.8682191,81.0884700000002,-6.78038700000001,0.9100781,-0.3703872,-0.1862217,-36.80416,-24.8258,19.52908
18.23466444,5.015896,77.2438400000002,-11.3826,0.9322358,-0.3149271,-0.2969736,-36.80416,-24.8258,19.52908
18.244577408,17.77513,79.9234299999999,-17.94844,1.054719,-0.3169239,-0.2284968,-36.82302,-24.46715,15.609
18.254490376,31.83507,82.0205099999997,-22.48929,1.041446,-0.2505454,-0.2053643,-36.82302,-24.46715,15.609
18.264403343,44.59431,82.7777799999999,-26.60061,1.007798,-0.2038519,-0.189377,-36.82302,-24.46715,15.609
18.274316311,54.75215,79.51567,-26.1097,0.9733694,-0.1046336,-0.1403818,-36.82302,-24.46715,15.609
18.284228802,59.3355699999999,73.3992199999999,-18.31661,0.979123,0.06731881,-0.0931943,-36.82302,-24.46715,15.609
18.294142246,57.4154900000001,67.6905199999999,-10.09398,0.9281899,0.2007774,-0.03997707,-37.95845,-24.10154,13.42937
18.304054737,49.54935,60.58378,-5.553129,0.8456848,0.2237124,-0.0001684288,-37.95845,-24.10154,13.42937
18.313968182,39.08183,51.84599,-3.528153,0.7918956,0.194017,0.01261531,-37.95845,-24.10154,13.42937
18.323880673,27.43747,41.12763,-1.748629,0.758786,0.1563606,0.02995634,-37.95845,-24.10154,13.42937
18.333793163,16.35056,29.36073,0.767250500000003,0.7623799,0.111375,0.04162737,-37.95845,-24.10154,13.42937
18.343706608,8.05085899999999,20.15692,1.258154,0.7606784,0.09050721,0.04198424,-38.70832,-24.48325,11.69981
18.353619099,2.97194,13.45795,1.564968,0.7821755,0.07906039,0.02682426,-38.70832,-24.48325,11.69981
18.363532543,0.742170199999999,8.33177500000003,1.687694,0.7416451,0.1066244,0.01681925,-38.70832,-24.48325,11.69981
18.373445034,0.0608516599999998,3.904626,0.2149844,0.7252379,0.1199396,0.006016055,-38.70832,-24.48325,11.69981
18.383357525,0.5563561,-2.037075,-0.4600076,0.7181578,0.1470488,0.01490498,-38.70832,-24.48325,11.69981
18.393270969,1.485427,-7.97877500000003,-1.625903,0.7147223,0.1650481,0.03474315,-39.47785,-22.98676,11.24938
18.40318346,1.609303,-13.62922,-2.239532,0.7466639,0.1821143,0.07009315,-39.47785,-22.98676,11.24938
18.413096905,-0.2488386,-18.34762,-2.116806,0.7866687,0.1852569,0.1124782,-39.47785,-22.98676,11.24938
18.423009396,-3.221865,-20.03693,-2.607709,0.7952407,0.1791547,0.1306043,-39.47785,-22.98676,11.24938
18.432922363,-7.929157,-21.31847,-1.380451,0.8187342,0.1567822,0.1542459,-39.47785,-22.98676,11.24938
18.442835331,-13.07002,-21.78449,-0.4600076,0.8355826,0.1193063,0.1797689,-39.46169,-24.10872,11.70255
18.455225945,-18.45863,-20.96896,1.933146,0.8024676,0.08993991,0.2062883,-39.46169,-24.10872,11.70255
18.465139389,-23.59948,-19.92043,4.203574,0.7988874,0.057141,0.2478766,-39.46169,-24.10872,11.70255
18.47505188,-28.1829,-20.44469,8.86715399999999,0.8157389,0.02600821,0.2811244,-39.46169,-24.10872,11.70255
18.484965325,-32.27081,-21.14372,10.70804,0.829927,0.007413999,0.3077582,-39.46169,-24.10872,11.70255
18.494877815,-32.70438,-24.46408,11.19895,0.8593656,0.003691959,0.3607587,-39.47463,-22.9831,12.1488
18.504790783,-32.82825,-27.43493,12.54893,0.8838665,0.02597688,0.3918909,-39.47463,-22.9831,12.1488
18.514703751,-34.81027,-30.75529,12.36484,0.9047081,0.05736411,0.4106334,-39.47463,-22.9831,12.1488
18.524616718,-36.23484,-34.42516,12.30348,0.9681309,0.0466271,0.4315825,-39.47463,-22.9831,12.1488
18.534529686,-35.6774,-38.21154,13.22392,1.030559,0.007576511,0.4177807,-39.47463,-22.9831,12.1488
18.544442654,-32.82825,-41.59016,14.45118,1.050301,-0.0330586,0.3880377,-39.47624,-22.98493,11.69909
18.554355144,-29.23585,-41.18239,15.86252,1.056843,-0.07873619,0.3526214,-39.47624,-22.98493,11.69909
18.564268589,-26.13894,-39.9591,15.98525,0.9627292,-0.1161309,0.2865007,-39.47624,-22.98493,11.69909
18.57418108,-23.41367,-41.88142,15.7398,0.8539585,-0.1454104,0.231133,-39.47624,-22.98493,11.69909
18.584094524,-20.31677,-50.09494,14.94208,0.7626553,-0.1567392,0.1358703,-39.47624,-22.98493,11.69909
18.594007015,-16.16692,-63.08513,14.26709,0.8283036,-0.1570851,0.004657814,-40.22986,-22.23057,12.98557
18.603919506,-21.86522,-91.9781000000002,14.75799,1.356906,0.01171673,-0.1301895,-40.22986,-22.23057,12.98557
18.613832951,-28.43065,-142.7738,-1.687266,2.022332,0.2536474,-0.2360451,-40.22986,-22.23057,12.98557
18.623745441,-29.79329,-130.1914,-23.22565,2.889163,0.05864374,-0.0009603258,-40.22986,-22.23057,12.98557
18.633658886,-2.168918,-65.93948,-6.289484,2.54354,-0.2565745,0.1629097,-40.22986,-22.23057,12.98557
18.643571377,36.66624,1.05028,5.98309800000002,1.270919,-0.2219367,0.3660129,-39.86234,-21.09787,15.16447
18.653483868,60.5743300000002,18.70062,-0.582733500000001,0.6276618,-0.1847651,0.385654,-39.86234,-21.09787,15.16447
18.663397312,72.4044999999998,12.40941,-2.116806,0.4571175,-0.0446841,0.2268313,-39.86234,-21.09787,15.16447
18.673309803,61.1317699999998,-15.66803,4.203574,0.1940464,0.05905873,0.01484447,-39.86234,-21.09787,15.16447
18.683223247,31.33957,-64.0754199999997,15.55571,0.1663124,0.1028963,-0.2539757,-39.86234,-21.09787,15.16447
18.693135738,-9.53954700000003,-110.0945,24.39197,0.2466449,0.1290569,-0.638671,-38.7269,-21.46348,17.34411
18.703048706,-32.14693,-136.6573,24.33061,0.6233802,0.05537523,-0.5130032,-38.7269,-21.46348,17.34411
18.712961674,-33.13794,-119.7643,29.17828,1.002167,0.1185751,-0.4560655,-38.7269,-21.46348,17.34411
18.722874641,-34.19089,-86.5024199999998,32.43051,1.212787,0.06604625,-0.3397643,-38.7269,-21.46348,17.34411
18.735265732,-29.29778,-42.63869,30.71235,1.226104,-0.1402834,-0.2365875,-38.7269,-21.46348,17.34411
18.745178223,-31.96112,-25.92038,25.4965,1.081497,-0.3171257,-0.1447181,-39.10815,-19.95101,20.81065
18.755091667,-38.65043,-34.30866,15.49435,0.9229497,-0.4662254,-0.092388,-39.10815,-19.95101,20.81065
18.765004158,-38.89818,-57.9589599999998,6.84217800000002,0.9374933,-0.5451226,-0.101691,-39.10815,-19.95101,20.81065
18.774917602,-25.02406,-71.4151599999998,1.258154,0.916587,-0.4287561,-0.1444168,-39.10815,-19.95101,20.81065
18.784830093,-3.159927,-72.28894,-3.344064,0.9624842,-0.3306711,-0.226775,-39.10815,-19.95101,20.81065
18.794743061,21.18173,-68.0365500000001,-7.148564,0.9529286,-0.203626,-0.2945029,-38.73552,-19.57273,21.70697
18.804656029,41.68322,-63.4346400000002,-10.52352,0.9416887,-0.1510895,-0.32766,-38.73552,-19.57273,21.70697
18.814568996,49.30161,-61.4540800000002,-7.70083,1.04353,0.09853093,-0.2131414,-38.73552,-19.57273,21.70697
18.824481964,52.15075,-58.71623,-6.90311299999998,0.8351279,-0.148017,-0.320412,-38.73552,-19.57273,21.70697
18.834394932,45.7092,-59.7065199999997,-4.694048,0.8859543,0.03357346,-0.2058748,-38.73552,-19.57273,21.70697
18.844307423,31.52538,-73.62874,2.730864,0.9229718,0.04420798,-0.2075868,-38.35046,-19.56041,24.72452
18.854220867,11.02389,-75.95882,9.35805800000003,0.9516152,0.0632473,-0.1577884,-38.35046,-19.56041,24.72452
18.864133358,-7.309776,-78.0558900000002,9.48078300000003,0.9705425,0.07145652,-0.2097658,-38.35046,-19.56041,24.72452
18.874046802,-23.90917,-81.3762500000003,12.30348,0.965153,0.05918836,-0.2251628,-38.35046,-19.56041,24.72452
18.883959293,-35.73934,-81.6675099999998,14.02164,0.9847636,0.06628971,-0.2118524,-36.49076,-18.05299,26.89449
18.893871784,-43.85323,-77.8811299999999,14.81936,1.005641,0.04916355,-0.1987152,-36.49076,-18.05299,26.89449
18.903785229,-46.02106,-70.8908899999998,13.46937,0.9646465,-0.04691129,-0.2080991,-36.49076,-18.05299,26.89449
18.91369772,-41.06601,-60.9880599999998,11.81257,0.9525719,-0.1052749,-0.2141381,-36.49076,-18.05299,26.89449
18.923611164,-35.24384,-57.25993,7.88534800000001,0.9471068,-0.1658663,-0.1981659,-36.49076,-18.05299,26.89449
18.933523655,-25.70538,-51.959,6.16718700000003,0.9492497,-0.2428089,-0.1746904,-35.34887,-18.79137,29.52499
18.943437099,-16.91018,-51.90075,4.264936,0.9525681,-0.2684257,-0.1672092,-35.34887,-18.79137,29.52499
18.95334959,-8.176909,-54.28908,2.730864,0.9681651,-0.277524,-0.1827791,-35.34887,-18.79137,29.52499
18.963262558,-1.611476,-56.91042,2.485412,0.9777345,-0.2736083,-0.1986867,-35.34887,-18.79137,29.52499
18.973175526,3.033878,-56.2114,3.221767,0.9833702,-0.2339037,-0.2224822,-35.34887,-18.79137,29.52499
18.983088493,5.5114,-52.19201,1.442243,0.993102,-0.172839,-0.2509749,-34.96517,-19.16071,30.80909
18.993000984,5.449462,-49.16291,-0.1531931,0.9767916,-0.1775223,-0.2734227,-34.96517,-19.16071,30.80909
19.002914429,4.520391,-42.92995,0.460436,0.9261129,-0.09003329,-0.2968592,-34.96517,-19.16071,30.80909
19.01282692,2.414498,-41.99792,-1.441814,0.8962407,-0.05214232,-0.3044932,-34.96517,-19.16071,30.80909
19.02521801,-0.06302445,-44.79401,-1.319088,0.8573518,-0.03178615,-0.3059186,-34.96517,-19.16071,30.80909
19.035131454,-0.9301572,-48.58039,-0.644096300000003,0.8577321,-0.02598295,-0.3097247,-33.47163,-18.40434,32.5336
19.045043945,-1.921166,-54.46384,0.6445247,0.8689532,-0.02146486,-0.3069175,-33.47163,-18.40434,32.5336
19.054956913,-3.283803,-58.7744800000002,1.687694,0.8858854,-0.009637674,-0.3108365,-33.47163,-18.40434,32.5336
19.064869881,-4.088998,-59.0074900000001,1.687694,0.9190587,-0.01413891,-0.3236574,-33.47163,-18.40434,32.5336
19.074782848,-4.708378,-59.0657400000003,0.705887599999999,0.935311,-0.0124128,-0.3103518,-33.47163,-18.40434,32.5336
19.084695339,-7.00008600000001,-55.80363,1.442243,0.9432908,-0.02637972,-0.3114789,-32.725,-17.6462,34.71172
19.094608784,-8.36272300000002,-54.46384,-0.889547900000002,0.9623218,-0.06005898,-0.3070777,-32.725,-17.6462,34.71172
19.104521275,-10.59249,-51.43474,0.951339199999998,0.9775412,-0.07105664,-0.314014,-32.725,-17.6462,34.71172
19.114434719,-13.75133,-48.87165,1.319517,0.9822767,-0.07839266,-0.3376344,-32.725,-17.6462,34.71172
19.12434721,-17.65343,-46.30856,2.546775,0.9706986,-0.06455997,-0.3537605,-32.725,-17.6462,34.71172
19.134260178,-20.50258,-47.70661,2.914952,0.9566795,-0.01051629,-0.3700764,-32.3413,-18.01554,35.99582
19.144173145,-22.67041,-49.04641,2.23996,0.9512445,-0.008661756,-0.3733749,-32.3413,-18.01554,35.99582
19.154085636,-26.07701,-49.16291,2.546775,0.9267066,-0.008039114,-0.3813065,-32.3413,-18.01554,35.99582
19.163999081,-30.97011,-47.06584,1.319517,0.9366976,-0.002201085,-0.4015267,-32.3413,-18.01554,35.99582
19.173911572,-35.36771,-47.41535,0.2149844,0.9833878,-0.03271463,-0.4141657,-32.3413,-18.01554,35.99582
19.183825016,-37.41167,-45.31828,0.1536215,1.012964,-0.08465793,-0.4042218,-30.83944,-18.00993,37.33718
19.193737507,-38.40268,-41.70666,-0.950910899999997,1.018129,-0.146644,-0.4022817,-30.83944,-18.00993,37.33718
19.203649998,-38.83624,-38.85231,-1.871354,1.046781,-0.2063765,-0.3962224,-30.83944,-18.00993,37.33718
19.213563442,-37.78329,-37.62902,-1.809992,1.061087,-0.2522261,-0.389938,-30.83944,-18.00993,37.33718
19.223475933,-35.55353,-37.57077,-2.239532,1.086657,-0.2635403,-0.3892895,-30.83944,-18.00993,37.33718
19.233389378,-31.34174,-35.18244,-4.141782,1.112256,-0.2563024,-0.3640296,-29.32949,-18.75533,38.23112
19.243301868,-27.74933,-28.71647,-6.10539499999999,1.110142,-0.2571367,-0.3328054,-29.32949,-18.75533,38.23112
19.253214836,-25.20987,-22.65827,-7.57810399999998,1.078895,-0.2316505,-0.2982554,-29.32949,-18.75533,38.23112
19.263127804,-23.90917,-19.57092,-8.43718500000001,1.061674,-0.1792379,-0.2473303,-29.32949,-18.75533,38.23112
19.273040772,-24.15693,-16.65832,-9.17354000000002,1.053516,-0.1475544,-0.1951867,-29.32949,-18.75533,38.23112
19.282953739,-25.39569,-13.74572,-10.33944,1.093463,-0.1532221,-0.168705,-28.56643,-19.87906,38.23069
19.292866707,-28.49259,-13.51271,-11.19852,1.227765,-0.1757648,-0.1638552,-28.56643,-19.87906,38.23069
19.302779198,-28.61647,-8.85255399999999,-11.19852,1.344061,-0.221904,-0.1782024,-28.56643,-19.87906,38.23069
19.315170288,-19.63545,17.30258,-13.46894,1.360126,-0.2214906,-0.1370546,-28.56643,-19.87906,38.23069
19.325083733,-7.37171500000001,44.85575,-17.70299,1.281121,-0.1938426,-0.1318183,-28.56643,-19.87906,38.23069
19.334996224,6.93597599999999,66.9914999999999,-25.31199,1.19208,-0.07401584,-0.09130377,-28.55535,-20.62669,38.61847
19.344909191,19.69521,81.03022,-33.2278,1.190043,0.06371777,0.01430716,-28.55535,-20.62669,38.61847
19.354822159,29.66724,92.8553700000002,-43.84358,1.1719,0.2080941,0.1306748,-28.55535,-20.62669,38.61847
19.364735127,36.91399,108.8164,-54.76618,1.214968,0.1623209,0.1760667,-28.55535,-20.62669,38.61847
19.374648094,31.4015,121.8066,-55.93208,1.135203,0.2315336,0.2512099,-28.55535,-20.62669,38.61847
19.384561062,17.7132,132.991,-53.35484,0.9954649,0.2139787,0.1938059,-30.43098,-21.01189,36.05957
19.394473553,-0.06302445,137.7094,-50.90032,0.8703004,0.1085135,0.07182051,-30.43098,-21.01189,36.05957
19.404386997,-16.41467,128.6221,-48.81398,0.8226697,-0.05120098,-0.0392394,-30.43098,-21.01189,36.05957
19.414299488,-30.97011,111.3795,-41.94133,0.9962469,-0.2329231,-0.1577734,-30.43098,-21.01189,36.05957
19.424212933,-41.00407,103.2825,-29.30058,1.233655,-0.2825086,-0.286581,-30.43098,-21.01189,36.05957
19.434125424,-42.42865,110.564,-14.08257,1.467853,-0.3149625,-0.4699828,-34.91856,-22.14858,33.00264
19.444037914,-34.87221,126.5833,3.28313,1.494992,-0.3469499,-0.6264983,-34.91856,-22.14858,33.00264
19.453951359,-14.12296,140.389,17.51932,1.327924,-0.4294508,-0.7071297,-34.91856,-22.14858,33.00264
19.46386385,13.93497,146.8549,22.18291,1.289909,-0.4893673,-0.6697249,-34.91856,-22.14858,33.00264
19.473777294,36.79012,156.117,22.12154,1.342988,-0.3610169,-0.6362299,-34.91856,-22.14858,33.00264
19.483689785,60.5743300000002,165.0296,10.21714,1.30736,-0.2589988,-0.6054509,-39.03459,-24.04856,26.47687
19.49360323,76.2446499999997,167.9422,5.369469,1.186412,-0.1949972,-0.594783,-39.03459,-24.04856,26.47687
19.50351572,84.2965999999999,166.2529,-0.09183015,1.090066,-0.1347504,-0.5257882,-39.03459,-24.04856,26.47687
19.513428211,88.1367600000002,162.6412,0.951339199999998,1.084975,-0.260513,-0.5496266,-39.03459,-24.04856,26.47687
19.523341656,81.6951999999999,162.583,1.319517,1.130843,-0.01047874,-0.3140679,-39.03459,-24.04856,26.47687
19.533254147,65.4054900000002,171.6703,5.676283,1.169695,-0.196699,-0.4150605,-43.94278,-22.57723,19.9446
19.543167591,77.42148,163.1072,12.54893,1.054814,-0.2849543,-0.5154192,-43.94278,-22.57723,19.9446
19.553080082,82.56233,152.2141,17.02842,1.024898,-0.2324432,-0.4149199,-43.94278,-22.57723,19.9446
19.56299305,95.13576,147.4375,17.8875,0.9818195,-0.2581342,-0.4972799,-43.94278,-22.57723,19.9446
19.572906017,110.93,139.4569,14.81936,0.9202487,-0.2176706,-0.4935599,-43.94278,-22.57723,19.9446
19.582818985,122.4504,129.9619,15.92389,0.867828,-0.1730129,-0.4510038,-48.11514,-20.36005,12.57096
19.595210075,132.2986,121.6901,19.17612,0.8746148,-0.09954741,-0.4184066,-48.11514,-20.36005,12.57096
19.605122566,135.8291,112.894,19.36021,0.8543022,-0.03847298,-0.3726769,-48.11514,-20.36005,12.57096
19.615036011,132.2366,103.2242,22.18291,0.8405395,0.01009871,-0.3227698,-48.11514,-20.36005,12.57096
19.624948501,123.5034,94.4281699999998,24.02379,0.800451,0.0505756,-0.2745937,-49.64693,-19.25939,6.921751
19.634861946,112.2307,86.6224099999999,24.82151,0.7673867,0.0992755,-0.2470746,-49.64693,-19.25939,6.921751
19.644774437,100.1527,77.2438400000002,25.18969,0.7340783,0.1159016,-0.2332114,-49.64693,-19.25939,6.921751
19.654687405,89.7471500000001,67.28276,25.92604,0.7143933,0.0992538,-0.217295,-49.64693,-19.25939,6.921751
19.664600372,80.9519400000001,56.50615,26.84649,0.6974687,0.09133298,-0.2080683,-49.64693,-19.25939,6.921751
19.67451334,74.3245699999999,46.02079,27.1533,0.6854123,0.08395004,-0.2003234,-51.17901,-17.39882,3.904269
19.684426308,69.8030900000001,36.05971,26.96921,0.6738119,0.06240971,-0.2123636,-51.17901,-17.39882,3.904269
19.694339275,66.7061900000002,25.2831,28.13511,0.6745946,0.04110527,-0.2086715,-51.17901,-17.39882,3.904269
19.704251766,65.4674299999999,17.18607,27.1533,0.6556768,0.01899417,-0.2196875,-51.17901,-17.39882,3.904269
19.714165211,65.9629400000001,9.08905000000002,26.6624,0.6797215,-0.01065686,-0.1985003,-51.17901,-17.39882,3.904269
19.724077702,67.0778199999998,2.273571,25.18969,0.6724535,-0.003397067,-0.1834998,-51.57563,-16.28396,1.718436
19.733991146,67.8210800000003,-5.066176,25.74195,0.7131338,-0.003814219,-0.1747558,-51.57563,-16.28396,1.718436
19.743903637,69.1837199999999,-11.5904,25.74195,0.7029673,0.005866221,-0.1534703,-51.57563,-16.28396,1.718436
19.753816128,71.7231800000002,-16.1923,25.31241,0.7057859,0.03364796,-0.1321843,-51.57563,-16.28396,1.718436
19.763729572,73.1477499999999,-20.96896,24.33061,0.706153,0.09749311,-0.06934182,-51.57563,-16.28396,1.718436
19.773642063,76.0588399999998,-20.79421,19.66702,0.8024345,0.0472264,0.01009945,-51.97737,-14.03459,2.163172
19.783555508,75.1917,-17.70685,24.45333,0.8964487,0.04945609,0.1206416,-51.97737,-14.03459,2.163172
19.793467998,75.25365,-12.93019,28.13511,0.9422125,0.01896597,0.2083643,-51.97737,-14.03459,2.163172
19.803381443,77.2976000000001,-7.33800299999997,29.54645,0.9458376,0.01375719,0.317292,-51.97737,-14.03459,2.163172
19.813293934,79.8370599999998,-5.299184,21.44655,0.9550015,0.03235319,0.4220056,-51.97737,-14.03459,2.163172
19.823206902,76.1207699999998,-6.17296399999999,17.45796,0.9691768,0.1371582,0.4965171,-52.72939,-13.2784,3.899362
19.833119869,66.14875,-9.49332599999999,15.12617,1.008769,0.1781351,0.5429993,-52.72939,-13.2784,3.899362
19.843032837,51.28362,-11.24088,13.96028,1.049098,0.1570558,0.588581,-52.72939,-13.2784,3.899362
19.852945805,34.87004,-7.92052300000001,16.53752,1.07869,0.1041455,0.5989985,-52.72939,-13.2784,3.899362
19.862858295,21.05785,-1.338051,22.06018,1.088173,0.02558587,0.5734193,-52.72939,-13.2784,3.899362
19.875249863,13.87304,5.127917,31.20325,1.093913,-0.09391055,0.5163916,-52.37937,-11.40539,3.891645
19.885162353,16.28862,9.67157,36.11229,1.103209,-0.1642746,0.4822258,-52.37937,-11.40539,3.891645
19.895075798,21.24366,14.85599,36.91,1.075693,-0.1900532,0.4390942,-52.37937,-11.40539,3.891645
19.904988289,25.45545,19.22489,35.06911,1.025145,-0.1812723,0.3839219,-52.37937,-11.40539,3.891645
19.91490078,28.73817,21.96273,32.30779,0.9544123,-0.1550135,0.2882392,-52.37937,-11.40539,3.891645
19.924814224,32.14476,22.66176,28.56465,0.8806439,-0.1256694,0.2338987,-53.51991,-10.28535,2.994598
19.934726715,35.3036,19.10839,26.17149,0.7951867,-0.1018139,0.1777091,-53.51991,-10.28535,2.994598
19.94464016,39.82508,8.50653100000001,25.4965,0.7300956,-0.1360782,0.08445196,-53.51991,-10.28535,2.994598
19.95455265,47.81509,-6.87198700000002,26.90785,0.6757938,-0.1594594,0.007012758,-53.51991,-10.28535,2.994598
19.964465618,57.16774,-21.02721,26.84649,0.5973276,-0.1461742,-0.04739126,-53.51991,-10.28535,2.994598
19.974378586,64.3525500000002,-36.98825,26.6624,0.5110841,-0.1644398,-0.2771913,-52.79539,-8.792141,1.701198
19.984291553,65.34355,-61.6288300000002,26.17149,0.7970052,-0.09433981,-0.2558408,-52.79539,-8.792141,1.701198
19.994204521,60.01689,-121.7449,22.36699,1.680688,0.2028415,-0.4233666,-52.79539,-8.792141,1.701198
20.004117489,63.6712300000001,-140.1525,-7.148564,2.881856,0.349263,-0.03928994,-52.79539,-8.792141,1.701198
20.01402998,67.63526,-81.7840100000001,-31.0801,3.21577,0.02881736,-0.08676679,-52.79539,-8.792141,1.701198
20.023943424,93.2156800000001,-13.74572,-30.52783,1.488051,0.2729329,0.280393,-53.17153,-8.034092,3.885154
20.033855915,105.1078,30.17626,-38.87319,1.081637,0.1722247,0.5370042,-53.17153,-8.034092,3.885154
20.04376936,104.4884,39.20531,-29.60739,1.131884,0.1257174,0.4233926,-53.17153,-8.034092,3.885154
20.05368185,87.2696199999998,14.33173,-18.13253,0.8441655,0.1327131,0.1264813,-53.17153,-8.034092,3.885154
20.063594341,57.6632400000003,-27.60969,8.74442899999999,0.4952669,0.03110731,-0.3031113,-53.17153,-8.034092,3.885154
20.073507786,33.94097,-75.0267900000002,23.41016,0.1932549,-0.03164149,-0.6450097,-51.68445,-6.904957,5.1588
20.083420277,15.35955,-110.7935,32.49187,0.1400843,0.04310057,-0.7832659,-51.68445,-6.904957,5.1588
20.093333721,-7.86721900000001,-117.7255,39.79406,0.2979948,0.07043175,-0.7542943,-51.68445,-6.904957,5.1588
20.103246212,-33.3857,-102.9877,44.58036,0.5450224,0.1018787,-0.6132822,-51.68445,-6.904957,5.1588
20.113159657,-48.18889,-79.1044199999998,42.61675,0.8703343,0.00922291,-0.4699796,-51.68445,-6.904957,5.1588
20.123072147,-54.69238,-54.46384,40.89859,1.043015,-0.1053824,-0.3590227,-52.04283,-7.267033,8.245642
20.132985115,-61.0720000000002,-41.88142,35.74411,1.179761,-0.263239,-0.2744304,-52.04283,-7.267033,8.245642
20.142898083,-58.3467299999999,-42.40568,18.25568,1.257109,-0.4609732,-0.1636259,-52.04283,-7.267033,8.245642
20.15281105,-46.083,-56.91042,0.6445247,1.201779,-0.5238872,-0.1015929,-52.04283,-7.267033,8.245642
20.165202141,-14.1849,-68.8520699999999,-2.423621,1.001732,-0.5215459,-0.1040486,-52.04283,-7.267033,8.245642
20.175114632,11.02389,-71.1239000000003,-3.282701,0.9225308,-0.4910732,-0.1146369,-50.93996,-5.008913,10.80266
20.185028076,32.39252,-73.5704899999998,-4.448596,0.9041811,-0.446077,-0.1823499,-50.93996,-5.008913,10.80266
20.194940567,50.23067,-74.7937799999997,-6.90311299999998,0.9345661,-0.3637277,-0.2699513,-50.93996,-5.008913,10.80266
20.204854012,63.2995999999998,-74.6772799999999,-8.86672600000002,0.9568231,-0.2448011,-0.2967338,-50.93996,-5.008913,10.80266
20.214766502,68.1307700000002,-69.6093499999997,-3.589516,0.9511407,-0.08577136,-0.2831377,-50.93996,-5.008913,10.80266
20.22467947,62.49441,-65.24046,1.687694,0.9848475,0.09804074,-0.1665068,-50.55468,-4.996334,13.88446
20.234592438,40.01089,-62.6773700000001,6.41263799999999,0.9598193,0.07061224,-0.1597358,-50.55468,-4.996334,13.88446
20.244505405,30.78213,-61.5123299999998,9.84896099999999,0.8097714,-0.03366504,-0.1796896,-50.55468,-4.996334,13.88446
20.254418373,6.87403699999997,-75.3180500000003,9.235332,0.9428305,0.08704827,-0.1282589,-50.55468,-4.996334,13.88446
20.264331341,-15.36172,-81.0267299999997,14.02164,0.9724765,0.01562918,-0.1342906,-50.55468,-4.996334,13.88446
20.274244309,-34.81027,-77.35686,8.62170300000002,0.9962288,-0.01295886,-0.1879983,-49.4211,-4.983956,16.89812
20.284157276,-43.66741,-71.7064199999999,4.817203,0.9982783,-0.02947103,-0.1982106,-49.4211,-4.983956,16.89812
20.294069767,-46.76431,-67.45403,3.467218,0.9779483,-0.07059646,-0.2261457,-49.4211,-4.983956,16.89812
20.303983212,-42.36671,-63.4346400000002,6.35127500000001,0.9903949,-0.1310549,-0.2276239,-49.4211,-4.983956,16.89812
20.313895702,-34.31477,-57.9589599999998,6.10582399999999,1.014015,-0.1933613,-0.2383408,-49.4211,-4.983956,16.89812
20.323809147,-21.9891,-54.40559,5.92173499999998,0.9901807,-0.2582265,-0.2543977,-48.67125,-4.222157,19.97566
20.333721638,-7.557528,-54.46384,5.001291,0.9380215,-0.2895303,-0.2752509,-48.67125,-4.222157,19.97566
20.343634129,4.644268,-56.15314,2.424049,0.9350277,-0.2939885,-0.2862965,-48.67125,-4.222157,19.97566
20.353547573,12.13877,-58.7744800000002,-1.625903,0.9431332,-0.260094,-0.314475,-48.67125,-4.222157,19.97566
20.363460064,13.43947,-59.9395300000002,-4.325871,0.9376297,-0.2160844,-0.3227737,-48.67125,-4.222157,19.97566
20.373373509,12.69621,-57.6094399999999,-7.20992699999999,0.9706764,-0.1735827,-0.340562,-47.54067,-4.213178,22.15414
20.383285999,10.46644,-53.00754,-11.50533,0.9924802,-0.1470695,-0.3290633,-47.54067,-4.213178,22.15414
20.39319849,5.94496599999999,-42.81345,-7.20992699999999,0.9968866,-0.09506456,-0.3153132,-47.54067,-4.213178,22.15414
20.403111935,2.228683,-35.82321,-7.57810399999998,0.9950036,-0.0838316,-0.2950542,-47.54067,-4.213178,22.15414
20.413024426,-0.1249625,-32.21159,-5.98266900000002,0.9670104,-0.05985401,-0.2787904,-47.54067,-4.213178,22.15414
20.42293787,-1.735352,-31.57082,-3.650879,0.9355677,-0.0369089,-0.2663428,-46.03582,-4.204169,24.33067
20.432850361,-3.159927,-33.26012,-1.503177,0.9278291,-0.03159691,-0.2518311,-46.03582,-4.204169,24.33067
20.445241928,-5.080007,-36.34748,0.705887599999999,0.9312422,-0.02668099,-0.2470284,-46.03582,-4.204169,24.33067
20.455154419,-8.92016599999997,-37.68727,2.301323,0.9449986,-0.03428038,-0.249607,-46.03582,-4.204169,24.33067
20.465067864,-15.11397,-37.22126,3.71267,0.974733,-0.04566219,-0.2720451,-44.90845,-4.198851,25.60973
20.474980354,-22.9801,-33.84264,3.958122,0.9954661,-0.07213189,-0.283937,-44.90845,-4.198851,25.60973
20.484893799,-31.09399,-29.4155,3.651307,0.9980329,-0.09886705,-0.3033451,-44.90845,-4.198851,25.60973
20.49480629,-36.4826,-24.46408,3.589944,1.002012,-0.1173196,-0.3183898,-44.90845,-4.198851,25.60973
20.504718781,-37.84523,-20.38644,3.71267,0.9839835,-0.131172,-0.3283986,-44.90845,-4.198851,25.60973
20.514632225,-35.98709,-18.23112,4.387662,0.9547629,-0.1441613,-0.3320562,-43.77948,-4.191702,27.33849
20.524544716,-33.13794,-17.29909,4.694477,0.9343089,-0.1497415,-0.3304637,-43.77948,-4.191702,27.33849
20.534458161,-30.35073,-15.90104,4.633114,0.9263108,-0.1338328,-0.3288433,-43.77948,-4.191702,27.33849
20.544370651,-28.98809,-14.15348,4.264936,0.9110124,-0.1277544,-0.3353836,-43.77948,-4.191702,27.33849
20.554283619,-29.17391,-13.45446,3.467218,0.9192793,-0.1252349,-0.3368837,-43.77948,-4.191702,27.33849
20.564196587,-31.52756,-13.10495,2.914952,0.9497417,-0.1359984,-0.3353165,-44.14243,-4.939093,27.79246
20.574109554,-34.87221,-11.47389,2.669501,0.9628684,-0.13636,-0.3431228,-44.14243,-4.939093,27.79246
20.584022522,-38.09299,-9.37682200000001,2.178597,0.9588791,-0.1257177,-0.3382134,-44.14243,-4.939093,27.79246
20.59393549,-41.18989,-7.51275900000002,1.503605,0.9434705,-0.1104282,-0.3446913,-44.14243,-4.939093,27.79246
20.603848457,-43.41966,-6.46422299999998,0.828613499999998,0.9396272,-0.07849478,-0.3482843,-44.14243,-4.939093,27.79246
20.613761425,-45.15392,-5.706948,0.1536215,0.9471142,-0.05613282,-0.3549268,-43.75847,-5.688253,27.79282
20.623673916,-45.83524,-6.23121499999997,-0.644096300000003,0.9490755,-0.05659332,-0.354948,-43.75847,-5.688253,27.79282
20.63358736,-45.40168,-5.47394,0.1536215,0.9294065,-0.06128598,-0.3711227,-43.75847,-5.688253,27.79282
20.643499851,-44.7823,-6.11471200000003,0.1536215,0.9076427,-0.07753449,-0.3667082,-43.75847,-5.688253,27.79282
20.653413296,-44.7823,-7.97877500000003,-0.09183015,0.890204,-0.09571846,-0.3719499,-43.75847,-5.688253,27.79282
20.663325787,-45.52555,-10.07585,-0.766822200000002,0.8913184,-0.1195376,-0.3865236,-43.00187,-6.439213,27.34152
20.673238277,-46.70238,-11.29914,-1.871354,0.8952535,-0.1272814,-0.3933338,-43.00187,-6.439213,27.34152
20.683151722,-48.18889,-11.35739,-2.853161,0.9040424,-0.1320557,-0.4001691,-43.00187,-6.439213,27.34152
20.693064213,-49.55153,-11.41564,-4.9395,0.9142128,-0.1305145,-0.4079354,-43.00187,-6.439213,27.34152
20.702977657,-49.36571,-9.84283699999999,-6.16675799999997,0.9226679,-0.1449704,-0.4109909,-43.00187,-6.439213,27.34152
20.712890148,-48.68439,-7.454507,-7.148564,0.9276392,-0.1580373,-0.4183263,-42.61605,-7.566368,26.50786
20.722802639,-47.38369,-6.23121499999997,-8.00764499999998,0.9199519,-0.1619669,-0.4096385,-42.61605,-7.566368,26.50786
20.735194206,-45.64943,-5.998208,-9.60308100000002,0.9013078,-0.1549156,-0.4074985,-42.61605,-7.566368,26.50786
20.745107651,-43.9771,-7.68751500000001,-10.8917,0.8836491,-0.1493116,-0.4063376,-42.61605,-7.566368,26.50786
20.755020142,-42.80028,-9.95934199999999,-12.42577,0.8766648,-0.1450793,-0.4148876,-42.61605,-7.566368,26.50786
20.764933586,-42.49059,-12.05641,-14.08257,0.8838161,-0.1314242,-0.4167834,-41.84838,-8.684866,27.79232
20.774846077,-42.6764,-12.93019,-16.10755,0.8856815,-0.1197394,-0.4119212,-41.84838,-8.684866,27.79232
20.784758568,-42.73834,-13.10495,-18.19389,0.899379,-0.1166377,-0.4077058,-41.84838,-8.684866,27.79232
20.794672012,-42.05702,-12.87194,-19.78932,0.9012819,-0.1093237,-0.4043136,-41.84838,-8.684866,27.79232
20.804584503,-41.62346,-12.75544,-21.8143,0.902204,-0.1029991,-0.4023593,-41.84838,-8.684866,27.79232
20.814497948,-41.62346,-12.34767,-23.53246,0.9139304,-0.09944194,-0.399083,-41.45149,-10.55964,27.34643
20.824410438,-41.49958,-11.76515,-25.18926,0.9164603,-0.1032695,-0.3952906,-41.45149,-10.55964,27.34643
20.834322929,-41.12795,-11.47389,-26.17107,0.9239219,-0.1065261,-0.3867384,-41.45149,-10.55964,27.34643
20.844236374,-41.00407,-11.06613,-26.90742,0.9376599,-0.106818,-0.382546,-41.45149,-10.55964,27.34643
20.854148865,-41.31377,-10.1341,-27.88923,0.9498045,-0.09938916,-0.3816485,-41.45149,-10.55964,27.34643
20.864062309,-41.93315,-8.96905800000002,-28.74831,0.9604156,-0.07689139,-0.3695928,-41.05459,-12.43442,26.90054
20.8739748,-42.6764,-7.80401899999998,-29.85284,0.9565902,-0.04933892,-0.3765763,-41.05459,-12.43442,26.90054
20.883888245,-42.86222,-7.454507,-30.65056,0.9695312,-0.03126055,-0.3808969,-41.05459,-12.43442,26.90054
20.893800735,-42.73834,-6.81373500000001,-30.83465,0.9909031,-0.01984567,-0.3814987,-41.05459,-12.43442,26.90054
20.903713703,-41.80927,-4.774917,-30.71192,1.005356,-0.005140088,-0.3853757,-41.05459,-12.43442,26.90054
20.913626671,-40.57051,-2.153579,-30.65056,1.025729,0.01259298,-0.3806443,-40.28321,-14.3089,26.51695
20.923539639,-39.26981,1.458043,-30.40511,1.026866,0.03487855,-0.3867485,-40.28321,-14.3089,26.51695
20.933452606,-38.65043,5.360925,-29.79148,1.024894,0.06971956,-0.395141,-40.28321,-14.3089,26.51695
20.943365574,-38.58849,8.50653100000001,-29.4233,1.017079,0.1001093,-0.40639,-40.28321,-14.3089,26.51695
20.953278065,-39.14594,11.65214,-28.9324,1.006369,0.1309703,-0.4132878,-40.28321,-14.3089,26.51695
20.963191509,-40.075,14.09872,-28.13468,0.994687,0.1667002,-0.413902,-39.51852,-15.81089,25.61825
20.973104,-41.62346,16.4288,-27.09151,0.9920676,0.1792617,-0.4161949,-39.51852,-15.81089,25.61825
20.983017445,-43.66741,19.69091,-26.35516,0.9919972,0.1909324,-0.4093943,-39.51852,-15.81089,25.61825
20.992929935,-45.58749,23.41903,-25.00517,0.9860863,0.1937632,-0.410281,-39.51852,-15.81089,25.61825
21.00284338,-47.25982,27.49667,-23.65519,0.9510185,0.1943694,-0.3960281,-39.51852,-15.81089,25.61825
21.015233994,-50.17091,32.27333,-23.34837,0.915481,0.1871747,-0.3890252,-39.49239,-18.44194,23.44201
21.025146961,-51.84324,35.8267,-26.23243,0.9046959,0.1767815,-0.4038796,-39.49239,-18.44194,23.44201
21.035059929,-52.7723,37.283,-24.20745,0.9736033,0.1637281,-0.3753141,-39.49239,-18.44194,23.44201
21.044972897,-53.08199,38.97231,-22.48929,0.9467275,0.1516928,-0.3876299,-39.49239,-18.44194,23.44201
21.054885864,-50.60447,41.06938,-22.05975,0.9728532,0.1277368,-0.3952335,-39.49239,-18.44194,23.44201
21.064798355,-46.5785,41.59365,-19.6666,1.003323,0.1101479,-0.4009142,-38.73067,-19.94732,21.70813
21.0747118,-40.63245,42.52568,-16.8439,1.01527,0.103088,-0.3885876,-38.73067,-19.94732,21.70813
21.08462429,-34.37671,46.60332,-13.46894,1.01959,0.08334926,-0.3719535,-38.73067,-19.94732,21.70813
21.094537735,-28.80228,53.24404,-8.98945100000001,0.9966779,0.0696874,-0.33342,-38.73067,-19.94732,21.70813
21.104450226,-24.96212,59.3604999999998,-4.264508,0.9680272,0.04528723,-0.2949049,-38.73067,-19.94732,21.70813
21.114362717,-20.87421,63.8458899999999,1.38088,0.9260904,0.05408816,-0.2733315,-39.09309,-21.83445,18.24663
21.124276161,-17.34374,67.98178,6.10582399999999,0.884576,0.1326079,-0.2719443,-39.09309,-21.83445,18.24663
21.134188652,-13.87521,70.6031200000001,7.82398500000003,0.873681,0.1975191,-0.2570063,-39.09309,-21.83445,18.24663
21.144102097,-13.25583,68.7390599999998,5.86037199999999,0.87133,0.2421671,-0.2432427,-39.09309,-21.83445,18.24663
21.154014587,-14.37072,66.75849,4.264936,0.8489087,0.3487428,-0.2067936,-39.09309,-21.83445,18.24663
21.163928032,-18.087,65.24394,4.878565,0.8174438,0.3309491,-0.1965379,-38.7121,-22.96709,16.06383
21.173840523,-24.03305,63.0886199999997,6.47400099999998,0.8435382,0.4030656,-0.1900567,-38.7121,-22.96709,16.06383
21.183753014,-32.20887,59.0109799999998,9.11260599999998,0.779587,0.4535276,-0.2160179,-38.7121,-22.96709,16.06383
21.193666458,-43.72935,49.57417,11.62849,0.7911359,0.4443094,-0.2449957,-38.7121,-22.96709,16.06383
21.203578949,-54.8782,35.8267,17.33524,0.7846507,0.4034355,-0.2576921,-38.7121,-22.96709,16.06383
21.213492394,-62.2488299999999,23.88505,23.22607,0.8591199,0.2778705,-0.2476935,-39.47302,-22.98127,12.59851
21.223404884,-67.3896900000001,15.49677,32.92141,0.894049,0.1784247,-0.2481989,-39.47302,-22.98127,12.59851
21.233318329,-65.71736,9.90457699999998,42.3713,0.8682476,0.04866027,-0.2459438,-39.47302,-22.98127,12.59851
21.24323082,-59.8332399999999,6.584216,49.4894,0.8561347,0.01661816,-0.2249183,-39.47302,-22.98127,12.59851
21.253143787,-52.71037,2.506578,54.45979,0.8648766,0.04011218,-0.2032355,-39.47302,-22.98127,12.59851
21.263056755,-46.14493,-1.105043,57.5893,0.8835869,0.08455434,-0.1863069,-40.97787,-22.99028,10.42198
21.272969723,-40.69439,-1.978823,59.1847400000001,0.9104186,0.1441232,-0.170313,-40.97787,-22.99028,10.42198
21.28288269,-36.04903,-0.6972793,58.9392900000001,0.9151348,0.1714113,-0.1552899,-40.97787,-22.99028,10.42198
21.292795658,-33.01406,2.098815,58.38702,0.9165378,0.1821281,-0.1489895,-40.97787,-22.99028,10.42198
21.305186749,-32.27081,6.70071999999997,59.5529100000002,0.920739,0.1574497,-0.1496729,-40.99402,-21.86832,9.968805
21.315099239,-31.89918,10.6036,61.3324399999999,0.9130415,0.108885,-0.1465641,-40.99402,-21.86832,9.968805
21.325012684,-29.54554,12.23466,61.8233399999999,0.907501,0.08605491,-0.1413832,-40.99402,-21.86832,9.968805
21.334925175,-25.82925,10.54535,61.8846999999997,0.9083537,0.05600637,-0.1411112,-40.99402,-21.86832,9.968805
21.344838142,-20.62646,6.1182,61.63926,0.9029909,0.05058137,-0.1458993,-40.99402,-21.86832,9.968805
21.35475111,-15.05203,0.46776,60.84154,0.9151449,0.04484433,-0.1594943,-42.15855,-19.25513,7.782251
21.364664078,-10.22087,-4.483657,59.12337,0.9157625,0.03613687,-0.1571573,-42.15855,-19.25513,7.782251
21.374577046,-5.82326300000003,-8.44479099999997,56.60749,0.8998806,0.04557471,-0.1689515,-42.15855,-19.25513,7.782251
21.384490013,-3.221865,-12.63893,53.72344,0.8941011,0.0750548,-0.1735032,-42.15855,-19.25513,7.782251
21.394402981,-2.974113,-17.7651,50.83938,0.8999709,0.1100032,-0.1800469,-42.15855,-19.25513,7.782251
21.404315949,-3.345741,-21.72624,49.24395,0.9200311,0.1485492,-0.1814161,-42.5619,-17.00759,7.777273
21.414228439,-2.912175,-24.34758,48.20078,0.9244148,0.1942008,-0.1773112,-42.5619,-17.00759,7.777273
21.424141884,-0.682404900000003,-27.49318,46.85079,0.9035819,0.2162284,-0.1803329,-42.5619,-17.00759,7.777273
21.434054375,2.166745,-30.9883,44.76445,0.8972383,0.2205457,-0.1740034,-42.5619,-17.00759,7.777273
21.443967819,5.139772,-32.96886,41.57358,0.9385815,0.2080301,-0.1624652,-42.5619,-17.00759,7.777273
21.45388031,7.12178899999997,-33.43488,39.79406,0.9803184,0.1940076,-0.1619843,-43.3266,-15.50561,8.675974
21.463793755,8.23667399999998,-31.45431,36.23501,1.014675,0.1764546,-0.1701015,-43.3266,-15.50561,8.675974
21.473706246,8.36055000000001,-28.25046,32.79869,1.05693,0.1546483,-0.1759193,-43.3266,-15.50561,8.675974
21.483618736,7.55535600000002,-24.87184,29.91463,1.072103,0.1528949,-0.1765514,-43.3266,-15.50561,8.675974
21.493532181,6.31659499999999,-19.97868,26.35558,1.065577,0.1737028,-0.16867,-43.3266,-15.50561,8.675974
21.503444672,4.706205,-15.55153,22.8579,1.04543,0.1816927,-0.1689106,-43.3414,-14.002,9.956251
21.513358116,1.547365,-16.25055,19.85111,1.015247,0.2286903,-0.1961675,-43.3414,-14.002,9.956251
21.523270607,-2.230856,-22.36701,13.22392,0.9680238,0.316727,-0.2157911,-43.3414,-14.002,9.956251
21.533183575,-7.99109600000001,-29.00773,5.492195,0.9690565,0.4031005,-0.2046617,-43.3414,-14.002,9.956251
21.543096542,-14.37072,-30.34753,-0.582733500000001,1.012082,0.4382718,-0.1640119,-43.3414,-14.002,9.956251
21.55300951,-19.44963,-25.0466,-3.712242,1.086613,0.4244379,-0.1124561,-43.34811,-13.24941,10.78913
21.562922478,-19.57351,-12.87194,-6.41221000000002,1.148525,0.3300143,-0.05075696,-43.34811,-13.24941,10.78913
21.572835445,-13.13195,1.924059,-4.632685,1.097219,0.1398994,-0.03138237,-43.34811,-13.24941,10.78913
21.585226536,-1.735352,2.972594,-3.957693,0.9388074,0.01110084,-0.08503328,-43.34811,-13.24941,10.78913
21.595139027,3.962949,-7.97877500000003,-6.596298,0.9127452,0.03117862,-0.171087,-43.34811,-13.24941,10.78913
21.605052471,5.20171,-18.40588,-8.13037100000001,0.9243975,0.04444445,-0.2589753,-42.60769,-12.49833,11.23264
21.614964962,3.157754,-26.21164,-8.37582199999997,0.9242522,0.04558387,-0.3194663,-42.60769,-12.49833,11.23264
21.624878406,2.848064,-27.90095,-11.01443,0.9376016,0.0721586,-0.3693492,-42.60769,-12.49833,11.23264
21.634790897,4.768144,-24.81359,-13.10077,0.9503536,0.05770391,-0.3825277,-42.60769,-12.49833,11.23264
21.644703388,8.11279800000001,-20.03693,-13.22349,0.9679924,0.01282562,-0.3839501,-42.60769,-12.49833,11.23264
21.654616833,12.13877,-15.60978,-11.93487,0.9487481,-0.03042215,-0.3562111,-42.22697,-12.87107,11.68156
21.664529323,15.29761,-13.0467,-11.50533,0.9165054,-0.05300209,-0.3320554,-42.22697,-12.87107,11.68156
21.674442768,16.78412,-12.17292,-11.32124,0.873325,-0.06166428,-0.3091463,-42.22697,-12.87107,11.68156
21.684355259,15.79312,-13.39621,-10.64625,0.853879,-0.05697263,-0.2926098,-42.22697,-12.87107,11.68156
21.694268703,13.50141,-15.90104,-9.90989499999997,0.8694763,-0.04753412,-0.2864492,-42.22697,-12.87107,11.68156
21.704181194,11.2097,-18.52238,-9.17354000000002,0.8961863,-0.04387791,-0.3001163,-42.21914,-13.24226,12.51789
21.714094162,10.59032,-21.31847,-7.76219299999999,0.918125,-0.05095298,-0.3147711,-42.21914,-13.24226,12.51789
21.72400713,11.08582,-25.10485,-5.79858000000001,0.909281,-0.05352446,-0.3219087,-42.21914,-13.24226,12.51789
21.733920097,12.88203,-29.18249,-3.282701,0.8976957,-0.0726179,-0.3296114,-42.21914,-13.24226,12.51789
21.743833065,14.3066,-32.73586,0.583161800000002,0.8995416,-0.07167497,-0.3392253,-42.21914,-13.24226,12.51789
21.753746033,15.1118,-34.1339,3.405856,0.9057086,-0.05705989,-0.3406254,-41.83521,-13.61134,13.86624
21.763659,13.87304,-35.70671,5.308106,0.9182565,-0.04040121,-0.3372694,-41.83521,-13.61134,13.86624
21.773571968,11.27164,-35.18244,6.35127500000001,0.9470317,-0.02446841,-0.3259056,-41.83521,-13.61134,13.86624
21.783484459,8.29861200000002,-32.09509,6.35127500000001,0.9649267,-0.001905033,-0.3187184,-41.83521,-13.61134,13.86624
21.793397903,5.5114,-27.90095,5.614921,0.9906535,0.02612645,-0.3043648,-41.83521,-13.61134,13.86624
21.803310394,2.538374,-22.48351,3.958122,1.01305,0.06001701,-0.2740962,-41.0934,-12.85869,14.69522
21.813223839,0.742170199999999,-15.49328,3.528581,1.02316,0.06860416,-0.2318786,-41.0934,-12.85869,14.69522
21.82313633,0.5563561,-8.44479099999997,2.485412,1.02581,0.07410737,-0.2054577,-41.0934,-12.85869,14.69522
21.833049774,1.05186,-3.143862,2.362686,1.023642,0.07275766,-0.1799983,-41.0934,-12.85869,14.69522
21.842962265,4.210701,1.341539,2.117234,1.032838,0.05502391,-0.1624356,-41.0934,-12.85869,14.69522
21.852874756,4.953958,3.089098,2.362686,1.06016,0.06850688,-0.1525151,-41.8387,-12.85509,15.59853
21.8627882,6.68822300000002,6.93372799999998,3.344493,1.071642,0.02218954,-0.1361243,-41.8387,-12.85509,15.59853
21.875179291,6.93597599999999,12.0599,4.75584,1.098133,0.04988243,-0.0953714,-41.8387,-12.85509,15.59853
21.885092258,6.37853299999997,19.86566,6.35127500000001,1.061859,0.01792309,-0.09380838,-41.8387,-12.85509,15.59853
21.895004749,5.139772,25.80736,7.39444499999999,1.041245,0.01713739,-0.1022658,-41.8387,-12.85509,15.59853
21.904918194,4.024887,29.41899,8.80579200000003,1.027776,-0.05437716,-0.1165423,-41.46607,-12.4768,16.49486
21.914830685,1.980931,27.03065,9.91032400000003,1.032446,-0.07394255,-0.1608904,-41.46607,-12.4768,16.49486
21.924744129,2.290622,19.98217,10.83077,1.040904,-0.1191289,-0.1996823,-41.46607,-12.4768,16.49486
21.93465662,2.166745,19.5744,7.08763000000002,1.113429,-0.03522159,-0.181548,-41.46607,-12.4768,16.49486
21.944570065,0.1227897,23.12777,6.90354199999998,1.127801,-0.02372455,-0.1494337,-41.46607,-12.4768,16.49486
21.954482555,-1.549538,31.69081,4.14221,1.088164,-0.03179319,-0.1140693,-42.22079,-12.48392,14.76414
21.964395046,-5.513573,39.03056,1.626331,0.9766288,-0.06662688,-0.1118294,-42.22079,-12.48392,14.76414
21.974308491,-9.78729900000003,39.78783,1.012702,0.846818,-0.1312993,-0.2099724,-42.22079,-12.48392,14.76414
21.984220982,-8.176909,28.48695,0.5217989,0.803167,-0.1726498,-0.3188401,-42.22079,-12.48392,14.76414
21.994134426,-0.8682191,19.39965,0.0922585699999997,0.8691317,-0.1442901,-0.3379873,-42.22079,-12.48392,14.76414
22.004046917,11.51939,21.20546,-1.012274,0.9226714,-0.2305651,-0.3678668,-42.60473,-12.11485,13.4158
22.013960361,37.34756,26.9724,-2.055443,0.9649432,-0.2630853,-0.2892482,-42.60473,-12.11485,13.4158
22.023872852,47.56734,25.63261,0.5217989,0.9415979,-0.1496733,-0.3348522,-42.60473,-12.11485,13.4158
22.03378582,53.63727,27.08891,-2.116806,0.9612761,-0.1888694,-0.273835,-42.60473,-12.11485,13.4158
22.043698788,52.58432,24.40932,-2.484983,0.9549928,-0.1064807,-0.2655455,-42.60473,-12.11485,13.4158
22.053611755,46.70021,19.98217,-2.914524,0.9453872,-0.02505815,-0.2485888,-42.97089,-12.8659,12.97034
22.063524723,38.46244,16.31229,-2.669072,0.9655195,0.02230589,-0.2326142,-42.97089,-12.8659,12.97034
22.073437691,30.84406,16.60355,-2.055443,0.9900329,0.04313388,-0.2019721,-42.97089,-12.8659,12.97034
22.083350182,22.42049,16.95306,-0.644096300000003,0.9706315,0.03955603,-0.1907728,-42.97089,-12.8659,12.97034
22.093263626,14.49242,14.85599,1.258154,0.94704,0.03115458,-0.1646821,-42.97089,-12.8659,12.97034
22.103176117,7.18372799999999,11.18612,3.160404,0.9365346,0.04188261,-0.1275413,-42.61256,-11.74365,12.57947
22.113089085,0.618294100000002,7.05023200000001,3.344493,0.9347652,0.04732099,-0.1030006,-42.61256,-11.74365,12.57947
22.123002052,-5.203883,2.797838,2.301323,0.9285581,0.05463623,-0.07984687,-42.61256,-11.74365,12.57947
22.13291502,-9.04404300000003,-1.687563,0.767250500000003,0.9422809,0.06799504,-0.06115863,-42.61256,-11.74365,12.57947
22.142827988,-11.27381,-3.668129,-0.950910899999997,0.9758037,0.06806586,-0.03457932,-42.61256,-11.74365,12.57947
22.155219078,-13.13195,-2.79435,-2.791798,1.011006,0.02217249,0.006563149,-42.62387,-10.99629,12.12745
22.165131569,-14.6804,0.001744238,-2.484983,1.058837,-0.0482349,0.05846915,-42.62387,-10.99629,12.12745
22.175045013,-16.22886,5.244421,-0.4600076,1.104236,-0.1328132,0.09493817,-42.62387,-10.99629,12.12745
22.184957504,-16.22886,14.50648,3.221767,1.130042,-0.2127762,0.1335398,-42.62387,-10.99629,12.12745
22.194870949,-14.30878,27.38017,6.22854899999998,1.160954,-0.2128224,0.1438171,-43.36754,-11.37094,12.13249
22.20478344,-6.44264400000003,38.79755,4.939929,1.201135,-0.1188737,0.1191031,-43.36754,-11.37094,12.13249
22.214696407,-1.611476,49.63242,0.03089567,1.175305,-0.04891901,0.1140461,-43.36754,-11.37094,12.13249
22.224609375,4.458453,67.5740200000001,-4.755411,1.114368,0.01308039,0.06172518,-43.36754,-11.37094,12.13249
22.234522343,11.08582,80.9719699999998,-12.30305,1.029291,0.06371511,0.02635729,-43.36754,-11.37094,12.13249
22.24443531,12.82009,96.5252500000002,-19.54387,1.064727,0.1103691,0.05563003,-43.37374,-11.378,10.39789
22.254348278,6.37853299999997,102.1174,-25.68016,1.169802,0.110426,-0.09274992,-43.37374,-11.378,10.39789
22.264261246,1.733179,94.7194299999999,-22.79611,1.10564,0.04005952,-0.1377602,-43.37374,-11.378,10.39789
22.274174213,-0.001086392,98.7388200000001,-22.79611,1.147757,0.04427509,-0.1741335,-43.37374,-11.378,10.39789
22.284086704,-1.859228,95.0689499999998,-22.73474,1.076005,-0.01266676,-0.3236586,-43.37374,-11.378,10.39789
22.294000149,-6.62845799999998,75.67104,-24.45291,0.9610634,0.04439493,-0.4504177,-43.0038,-12.14311,6.479326
22.30391264,-13.87521,49.69067,-22.55066,0.973247,-0.009619426,-0.5176322,-43.0038,-12.14311,6.479326
22.313826084,-17.03405,35.88495,-18.13253,0.9780815,-0.03348935,-0.5509669,-43.0038,-12.14311,6.479326
22.323738575,-17.59149,31.2248,-13.53031,0.882433,-0.007771273,-0.5974466,-43.0038,-12.14311,6.479326
22.333651066,-16.47661,21.96273,-10.70761,0.816306,-0.004268702,-0.6044943,-43.0038,-12.14311,6.479326
22.34356451,-12.94614,10.31234,-8.37582199999997,0.8811738,-0.003291318,-0.5719568,-43.74718,-13.27768,3.852652
22.353477001,-8.176909,6.99197999999999,-5.614491,0.9387206,-0.01093099,-0.5005161,-43.74718,-13.27768,3.852652
22.363390446,-5.141944,8.91429399999998,-2.730435,0.9518204,-0.01129779,-0.4156517,-43.74718,-13.27768,3.852652
22.373302937,-3.965122,12.0599,0.460436,0.9458665,-0.01043175,-0.3277219,-43.74718,-13.27768,3.852652
22.383216381,-2.974113,15.14725,3.037678,0.9355703,-0.01690755,-0.2426818,-43.74718,-13.27768,3.852652
22.393128872,-1.115971,17.8851,5.18538,0.9233065,-0.01414561,-0.1479588,-43.37454,-13.27948,3.400992
22.403042317,2.848064,19.10839,7.39444499999999,0.8994226,-0.001475188,-0.07803062,-43.37454,-13.27948,3.400992
22.412954807,8.79411600000002,16.48705,4.939929,0.8761845,0.01128284,0.007257303,-43.37454,-13.27948,3.400992
22.422867775,14.61629,12.23466,1.933146,0.892058,0.08598267,0.0690684,-43.37454,-13.27948,3.400992
22.432780743,17.83707,6.40946000000002,-0.644096300000003,0.8713468,0.1431956,0.1190974,-43.37454,-13.27948,3.400992
22.44517231,14.74017,-2.444838,2.23996,0.8051222,0.165184,0.1241778,-43.74231,-14.03236,2.505822
22.455084801,4.582329,-9.90108999999998,3.528581,0.7545961,0.1447167,0.1321912,-43.74231,-14.03236,2.505822
22.464997292,-13.93715,-18.05636,6.16718700000003,0.7590977,0.1506781,0.1489948,-43.74231,-14.03236,2.505822
22.474910736,-37.34973,-21.55148,8.68306499999997,0.7675228,0.1498652,0.1589948,-43.74231,-14.03236,2.505822
22.484823227,-55.49758,-20.44469,12.91711,0.8201855,0.1236306,0.2092298,-43.74231,-14.03236,2.505822
22.494736672,-78.5385400000002,-19.92043,17.15115,0.8375329,0.02714161,0.1666528,-44.4906,-14.03216,2.573958
22.504649162,-86.0949800000001,-24.05632,20.77156,0.8560488,-0.1814312,0.0114414,-44.4906,-14.03216,2.573958
22.514562607,-76.9900899999999,-34.30866,19.36021,0.9080715,-0.2421542,-0.1363727,-44.4906,-14.03216,2.573958
22.524475098,-58.4706000000002,-46.48332,16.04661,1.026405,-0.2287319,-0.2636592,-44.4906,-14.03216,2.573958
22.534388065,-35.98709,-56.15314,12.36484,1.185629,-0.2043981,-0.3485172,-44.4906,-14.03216,2.573958
22.544301033,-8.85822799999998,-55.92014,7.63989600000002,1.368171,-0.1813038,-0.3543729,-44.12305,-13.27954,3.404885
22.554214001,20.74816,-40.0756,3.28313,1.430334,-0.1868248,-0.2594332,-44.12305,-13.27954,3.404885
22.564126968,46.26664,-15.72629,0.3990731,1.29638,-0.1916489,-0.1194607,-44.12305,-13.27954,3.404885
22.574039936,62.1847200000001,5.069665,-3.098613,1.092695,-0.1087258,-0.0008262778,-44.12305,-13.27954,3.404885
22.583952904,68.3165800000001,17.8851,-9.17354000000002,0.9720345,-0.004086427,0.08549457,-44.12305,-13.27954,3.404885
22.593865871,63.4854099999998,20.15692,-11.13715,0.9377758,0.09326915,0.1488806,-44.11685,-13.27248,5.13949
22.603778362,49.05385,13.69096,-9.05081500000002,0.9204865,0.1366176,0.1349245,-44.11685,-13.27248,5.13949
22.61369133,30.84406,4.370642,-5.98266900000002,0.9131622,0.123112,0.07248169,-44.11685,-13.27248,5.13949
22.623604298,13.25366,-4.600161,-4.203145,0.9341605,0.1345718,-0.01214401,-44.11685,-13.27248,5.13949
22.633517265,-1.115971,-10.1341,-2.484983,0.951786,0.1699173,-0.06392863,-44.11685,-13.27248,5.13949
22.643430233,-11.14994,-11.76515,0.0922585699999997,0.9738678,0.157063,-0.07142086,-44.49111,-13.27251,5.141438
22.653343201,-14.86622,-10.48361,3.405856,0.9775859,0.1265278,-0.07838089,-44.49111,-13.27251,5.141438
22.663256168,-14.55653,-9.84283699999999,5.98309800000002,0.9807141,0.1164218,-0.07127477,-44.49111,-13.27251,5.141438
22.673168659,-14.80428,-11.24088,8.98988099999998,1.005355,0.07902784,-0.04870418,-44.49111,-13.27251,5.141438
22.683082104,-17.71537,-10.94963,10.83077,1.050666,0.03074121,-0.02591715,-44.49111,-13.27251,5.141438
22.692994595,-19.8832,-6.93023899999998,11.4444,1.095559,-0.02678294,-0.007029075,-44.12494,-12.52146,5.586895
22.702908039,-19.13994,0.2347521,10.15578,1.113099,-0.0736641,-0.02046788,-44.12494,-12.52146,5.586895
22.71282053,-14.9901,6.17645200000001,8.56033999999998,1.065003,-0.1131328,-0.03613124,-44.12494,-12.52146,5.586895
22.72521162,-8.300786,11.53563,5.73764600000002,1.009787,-0.1279519,-0.04964391,-44.12494,-12.52146,5.586895
22.735124588,-3.469617,12.93368,3.651307,0.9714676,-0.1246211,-0.06319191,-44.12494,-12.52146,5.586895
22.745037556,0.43248,12.00165,1.749057,0.9479216,-0.1264179,-0.0725893,-44.13301,-12.15052,4.686316
22.754950523,3.839073,11.36088,0.2149844,0.9797702,-0.1308635,-0.07147297,-44.13301,-12.15052,4.686316
22.764863491,6.31659499999999,12.75892,-0.644096300000003,1.010941,-0.1227309,-0.07410786,-44.13301,-12.15052,4.686316
22.774776459,7.80310800000002,14.44823,-1.441814,1.016131,-0.1008102,-0.06680746,-44.13301,-12.15052,4.686316
22.784689426,6.81209899999999,16.37054,-1.441814,1.015435,-0.06287502,-0.04254039,-44.13301,-12.15052,4.686316
22.794602394,4.210701,17.82685,-1.073637,0.9984799,-0.03057234,-0.03688663,-44.1314,-12.14869,5.136028
22.804514885,1.175737,16.95306,0.3377102,0.9736766,-0.002770718,-0.03887282,-44.1314,-12.14869,5.136028
22.814428329,-1.673414,14.27347,1.871783,0.9564973,-9.23373e-05,-0.04205721,-44.1314,-12.14869,5.136028
22.82434082,-4.460626,11.65214,3.589944,0.9500279,0.01391574,-0.03662232,-44.1314,-12.14869,5.136028
22.834254265,-7.00008600000001,9.14730199999998,4.510388,0.9680585,0.01069592,-0.04641368,-44.1314,-12.14869,5.136028
22.844166756,-8.36272300000002,7.74925499999999,4.817203,0.9885602,0.00898377,-0.05189644,-44.12953,-12.52669,4.302003
22.8540802,-8.98210400000001,9.03079800000001,4.571751,1.013669,-0.007199678,-0.0541571,-44.12953,-12.52669,4.302003
22.863992691,-8.42466199999997,10.07933,4.080848,0.9984711,-0.02106914,-0.07427558,-44.12953,-12.52669,4.302003
22.873905182,-6.814272,10.66185,3.405856,0.9843493,-0.03536284,-0.08528385,-44.12953,-12.52669,4.302003
22.883818626,-4.64644,10.77836,2.669501,0.9785007,-0.03981668,-0.08862054,-44.12953,-12.52669,4.302003
22.893731117,-2.478608,9.90457699999998,2.362686,0.9664106,-0.0555099,-0.09389502,-44.13599,-12.15392,3.851136
22.903644562,-0.992095199999997,9.61331700000002,1.871783,0.9773672,-0.06112502,-0.08106948,-44.13599,-12.15392,3.851136
22.913557053,0.3705419,9.43856100000003,1.196791,0.9888368,-0.06916059,-0.06874497,-44.13599,-12.15392,3.851136
22.923470497,-0.1249625,11.59388,1.994509,0.9882216,-0.1011793,-0.07087322,-44.13599,-12.15392,3.851136
22.933382988,0.680232200000002,10.72011,1.135428,0.962558,-0.1155193,-0.06304888,-44.13599,-12.15392,3.851136
22.943295956,-2.602484,6.81722400000001,2.301323,0.975996,-0.06499611,-0.076281,-44.88127,-12.53041,3.406469
22.953208923,-0.1869005,5.186169,2.055871,0.9928279,-0.05468444,-0.09173304,-44.88127,-12.53041,3.406469
22.963121891,0.618294100000002,6.64246800000002,7.08763000000002,0.9227235,-0.002245011,-0.09553693,-44.88127,-12.53041,3.406469
22.973034859,-2.974113,-2.736098,7.946711,0.8637394,-0.03069707,-0.1110262,-44.88127,-12.53041,3.406469
22.982947826,-3.097989,-6.87198700000002,7.27171900000003,1.013569,-0.03261783,-0.09369848,-44.88127,-12.53041,3.406469
22.992860794,-2.478608,-6.63897900000002,6.41263799999999,0.9990187,-0.005671016,-0.09818599,-44.88127,-12.53041,3.406469
23.005251408,-1.363724,-5.357436,3.774033,1.028908,0.0001009253,-0.08545968,-44.88127,-12.53041,3.406469
23.015164852,-0.744343000000003,-3.726381,1.81042,1.014189,-0.01351884,-0.05852543,-44.88127,-12.53041,3.406469
23.025077343,-1.239847,-2.328334,1.135428,1.056023,-0.01334479,-0.03202229,-44.88127,-12.53041,3.406469
23.034990788,-0.682404900000003,2.914342,0.460436,1.001965,-0.02757012,-0.0272957,-44.51831,-11.78301,2.952504
23.044903278,-1.4876,3.671618,-0.3986447,1.008094,-0.0110235,-0.0301231,-44.51831,-11.78301,2.952504
23.054816723,-2.10698,4.836657,-1.319088,1.001747,-0.007196072,-0.02475716,-44.51831,-11.78301,2.952504
23.064729214,-3.036051,6.00169699999999,-1.380451,0.9978472,-0.01894593,-0.03728349,-44.51831,-11.78301,2.952504
23.074642181,-3.903184,5.477429,-0.828185100000001,0.9701667,-0.03187885,-0.03375254,-44.51831,-11.78301,2.952504
23.084555149,-4.398688,3.205602,0.2149844,0.9768257,-0.05310531,-0.02915396,-44.51025,-12.15395,3.853083
23.094468117,-4.088998,3.14735,1.442243,0.9999252,-0.06104863,-0.02701971,-44.51025,-12.15395,3.853083
23.104381084,-3.221865,3.14735,2.23996,0.9707523,-0.07059858,-0.02201195,-44.51025,-12.15395,3.853083
23.114294052,-3.407679,1.865807,2.23996,0.9753159,-0.07436112,-0.01055543,-44.51025,-12.15395,3.853083
23.12420702,-4.274812,0.293004,2.424049,0.9817333,-0.07083511,-0.0005079638,-44.51025,-12.15395,3.853083
23.134119511,-5.327759,-0.05650773,2.055871,0.9872596,-0.07703242,0.006602015,-44.88773,-12.15764,2.955605
23.144032478,-5.88520100000001,0.001744238,1.564968,0.9976664,-0.08414875,0.0117401,-44.88773,-12.15764,2.955605
23.153945446,-5.389697,0.0599961999999999,0.951339199999998,0.9952964,-0.08999409,0.01220324,-44.88773,-12.15764,2.955605
23.163858414,-4.02706,0.46776,0.2149844,1.010543,-0.09170933,0.01877302,-44.88773,-12.15764,2.955605
23.173771381,-2.230856,1.283287,-0.3372818,0.9991178,-0.07584575,0.01994468,-44.88773,-12.15764,2.955605
23.183684349,-0.2488386,1.516295,-0.5213705,0.9904742,-0.0600247,0.006205433,-44.89097,-11.78121,3.404162
23.193597317,1.299613,1.691051,-0.582733500000001,0.9858834,-0.04944703,7.630233e-05,-44.89097,-11.78121,3.404162
23.203510284,2.166745,2.331823,-0.3372818,0.9901928,-0.04017112,0.002018876,-44.89097,-11.78121,3.404162
23.213422775,2.848064,3.205602,0.1536215,0.9991347,-0.04828037,0.006203579,-44.89097,-11.78121,3.404162
23.22333622,3.095816,3.904626,0.5217989,0.997105,-0.05322138,-0.006774838,-44.89097,-11.78121,3.404162
23.233248711,2.600312,4.370642,0.889976299999999,0.9921396,-0.04893171,-0.009101132,-44.89257,-11.78304,2.954451
23.243162155,1.918993,3.671618,1.074065,0.9871051,-0.04419037,-0.01766583,-44.89257,-11.78304,2.954451
23.253074646,0.989922399999999,2.623082,1.319517,0.9878892,-0.03208387,-0.02239401,-44.89257,-11.78304,2.954451
23.262988091,-0.3727147,1.924059,1.135428,0.9942029,-0.0227582,-0.01566806,-44.89257,-11.78304,2.954451
23.272900581,-1.115971,2.157067,0.767250500000003,0.9942826,-0.02613136,-0.01185,-44.89257,-11.78304,2.954451
23.282813072,-1.735352,2.681334,0.1536215,0.9919094,-0.02758808,-0.00655602,-44.89396,-11.78461,2.568982
23.29520464,-1.735352,3.263854,-0.582733500000001,0.9973351,-0.03237431,-0.0075984,-44.89396,-11.78461,2.568982
23.305117607,-1.549538,3.14735,-0.705459200000001,0.9914011,-0.03297019,-0.01474987,-44.89396,-11.78461,2.568982
23.315030575,-1.054033,2.331823,-0.889547900000002,0.9950137,-0.0513651,-0.01778677,-44.89396,-11.78461,2.568982
23.324943543,0.0608516599999998,2.040563,-0.705459200000001,0.9875963,-0.05345141,-0.02829555,-44.89396,-11.78461,2.568982
23.33485651,0.680232200000002,1.982311,-0.644096300000003,0.977234,-0.04923873,-0.03249308,-44.14705,-11.78638,2.115377
23.344769001,1.857055,2.390074,-0.5213705,0.992942,-0.04413278,-0.02060038,-44.14705,-11.78638,2.115377
23.354682446,1.918993,2.564831,-0.2759189,0.9864151,-0.0413743,-0.03396607,-44.14705,-11.78638,2.115377
23.364594936,1.361551,1.341539,-0.1531931,0.9662007,-0.03390737,-0.04141191,-44.14705,-11.78638,2.115377
23.374508381,-0.06302445,-1.454555,-0.705459200000001,0.9612661,-0.0276505,-0.03844364,-44.14705,-11.78638,2.115377
23.384420872,-2.168918,-4.134145,-0.214556,0.959703,-0.02576776,-0.04561902,-44.90041,-11.41185,2.118116
23.394334316,-3.469617,-5.998208,0.1536215,0.9667924,-0.03921363,-0.03761147,-44.90041,-11.41185,2.118116
23.404246807,-3.593493,-7.16324699999999,-0.214556,0.969864,-0.04788563,-0.03433654,-44.90041,-11.41185,2.118116
23.414159298,-2.850237,-8.38653900000002,-0.644096300000003,0.9676064,-0.06147745,-0.03200541,-44.90041,-11.41185,2.118116
23.424072743,-2.354732,-10.65837,-1.012274,0.9805656,-0.07679982,-0.02598529,-44.90041,-11.41185,2.118116
23.433985233,-1.425662,-12.87194,-0.705459200000001,0.9714625,-0.09242857,-0.02600522,-44.5197,-11.78458,2.567036
23.443898678,-1.549538,-12.46418,-0.950910899999997,0.9949778,-0.09796479,-0.02818021,-44.5197,-11.78458,2.567036
23.453811169,-0.806281,-13.22145,-1.503177,0.9716371,-0.1128255,-0.03286494,-44.5197,-11.78458,2.567036
23.463724613,0.5563561,-16.36706,-1.257725,0.9752061,-0.1127066,-0.0184924,-44.5197,-11.78458,2.567036
23.473637104,2.35256,-17.82336,-1.257725,0.9970659,-0.09543246,-0.01233743,-44.5197,-11.78458,2.567036
23.483550549,3.28163,-16.54181,-1.196362,0.9791591,-0.1009287,-0.0006846404,-44.89097,-11.78121,3.404162
23.49346304,3.653259,-16.13405,-1.871354,1.001167,-0.07406984,-0.01655446,-44.89097,-11.78121,3.404162
23.503376007,2.476436,-15.55153,-2.362258,0.9985836,-0.06246518,-0.01645326,-44.89097,-11.78121,3.404162
23.513288975,2.414498,-16.48356,-2.362258,0.9768075,-0.05116358,-0.02866069,-44.89097,-11.78121,3.404162
23.523201943,1.423489,-16.13405,-3.834968,0.9932778,-0.03542592,-0.02534706,-44.89097,-11.78121,3.404162
23.53311491,-0.1249625,-14.96901,-4.203145,1.001988,-0.02950929,-0.02730883,-44.50864,-12.15212,4.302795
23.543027878,-1.115971,-13.97873,-4.080419,1.009811,-0.0352653,-0.03414174,-44.50864,-12.15212,4.302795
23.552940846,-1.673414,-12.75544,-4.080419,1.004922,-0.04313112,-0.04327194,-44.50864,-12.15212,4.302795
23.562853813,-1.983104,-12.87194,-3.834968,0.9898866,-0.0549646,-0.04513235,-44.50864,-12.15212,4.302795
23.572766304,-2.354732,-13.92048,-3.773605,0.9790955,-0.06487305,-0.05998347,-44.50864,-12.15212,4.302795
23.585157394,-2.41667,-14.91076,-3.589516,0.9867358,-0.06194355,-0.07443936,-44.13438,-12.15209,4.300849
23.595070839,-2.664423,-15.31852,-3.957693,0.995095,-0.0642541,-0.07261144,-44.13438,-12.15209,4.300849
23.60498333,-2.664423,-15.02726,-4.325871,1.001898,-0.06028819,-0.07216776,-44.13438,-12.15209,4.300849
23.614896774,-2.664423,-13.1632,-5.000863,1.012703,-0.0581772,-0.06505126,-44.13438,-12.15209,4.300849
23.624809265,-2.664423,-10.42536,-4.755411,1.019093,-0.06100702,-0.06512921,-44.13438,-12.15209,4.300849
23.634721756,-2.664423,-7.51275900000002,-5.000863,1.017673,-0.05953773,-0.05886422,-44.51535,-11.39953,5.135668
23.6446352,-2.602484,-4.949672,-5.000863,1.01189,-0.06493313,-0.05692605,-44.51535,-11.39953,5.135668
23.654547691,-2.602484,-3.784633,-4.694048,1.005975,-0.07625052,-0.0747126,-44.51535,-11.39953,5.135668
23.664461136,-2.10698,-4.367153,-4.141782,0.9848027,-0.07415137,-0.08650677,-44.51535,-11.39953,5.135668
23.674373627,-1.363724,-5.47394,-3.589516,0.9766497,-0.06466477,-0.1074951,-44.51535,-11.39953,5.135668
23.684287071,-0.9301572,-7.33800299999997,-3.405427,0.9748541,-0.05900051,-0.1328892,-43.76038,-11.77224,5.582642
23.694199562,-0.1249625,-9.95934199999999,-2.914524,0.971518,-0.04510026,-0.1558133,-43.76038,-11.77224,5.582642
23.70411253,-0.3107767,-12.75544,-2.853161,0.967047,-0.02300123,-0.1844342,-43.76038,-11.77224,5.582642
23.714025497,-1.115971,-15.78454,-2.607709,0.9750243,-0.004047132,-0.1949452,-43.76038,-11.77224,5.582642
23.723938465,-2.10698,-19.39616,-1.441814,0.9797638,-0.01089326,-0.2176021,-43.76038,-11.77224,5.582642
23.733851433,-2.664423,-23.4738,0.460436,0.9801575,-0.02313185,-0.241215,-43.75229,-12.52326,5.135237
23.7437644,-0.992095199999997,-26.38639,1.626331,0.9877408,-0.03120326,-0.226454,-43.75229,-12.52326,5.135237
23.753677368,2.600312,-27.49318,1.687694,1.006373,-0.02118747,-0.2097541,-43.75229,-12.52326,5.135237
23.763590336,5.325586,-27.84269,2.424049,1.023055,0.001977523,-0.1771033,-43.75229,-12.52326,5.135237
23.773503303,4.582329,-26.73591,3.28313,1.044066,0.02199373,-0.1075413,-43.75229,-12.52326,5.135237
23.783416271,4.024887,-23.99806,3.958122,1.077395,0.01587083,-0.05939434,-43.74261,-12.89236,6.485527
23.793328762,3.653259,-19.45441,4.203574,1.084891,0.008002271,-0.0052582,-43.74261,-12.89236,6.485527
23.803242207,2.538374,-14.736,3.467218,1.102193,-0.002168795,0.0487719,-43.74261,-12.89236,6.485527
23.813154697,1.980931,-9.37682200000001,2.914952,1.128256,0.0009200022,0.1143331,-43.74261,-12.89236,6.485527
23.823068142,2.476436,-2.910854,2.23996,1.117962,-0.00482728,0.1528027,-43.74261,-12.89236,6.485527
23.832980633,3.033878,2.564831,3.099041,1.064975,-0.0214313,0.1637456,-43.37022,-12.51434,7.317608
23.842894077,2.538374,6.00169699999999,5.062654,0.9760906,-0.05517306,0.1350532,-43.37022,-12.51434,7.317608
23.852806568,2.35256,4.487145,7.63989600000002,0.8902799,-0.08856586,0.07272359,-43.37022,-12.51434,7.317608
23.865197659,3.219692,-5.532192,9.91032400000003,0.8226098,-0.1168375,-0.07424751,-43.37022,-12.51434,7.317608
23.875110626,6.19271900000002,-17.93986,10.83077,0.7779527,-0.1326097,-0.2035823,-43.74772,-12.13794,7.768112
23.885023594,9.22768300000001,-29.47375,10.95349,0.7300194,-0.1003041,-0.309999,-43.74772,-12.13794,7.768112
23.894936562,10.21869,-38.32804,11.56712,0.720297,-0.07016188,-0.3644463,-43.74772,-12.13794,7.768112
23.904849529,9.35155899999998,-42.17268,11.81257,0.7548652,-0.0334671,-0.3837279,-43.74772,-12.13794,7.768112
23.914762497,8.36055000000001,-41.2989,11.26031,0.8245795,-0.01806513,-0.3861907,-43.74772,-12.13794,7.768112
23.924675465,8.11279800000001,-40.13386,10.52395,0.859609,-0.02454494,-0.4110459,-43.74473,-12.13454,8.603292
23.934588432,9.78512499999999,-39.72609,9.29669499999999,0.8417878,-0.04463086,-0.408134,-43.74473,-12.13454,8.603292
23.944500923,10.65226,-41.64841,9.35805800000003,0.8037009,-0.04264234,-0.4005661,-43.74473,-12.13454,8.603292
23.954414368,10.90001,-47.70661,7.88534800000001,0.7866102,-0.01138567,-0.4093228,-43.74473,-12.13454,8.603292
23.964326859,11.33358,-56.09489,5.308106,0.8177555,0.03111978,-0.4218118,-43.74473,-12.13454,8.603292
23.974240303,9.16574500000002,-64.25018,1.871783,0.9442801,0.1453194,-0.3953322,-43.3802,-11.00524,9.947021
23.984152794,5.20171,-67.9782900000002,0.1536215,0.9752579,0.1306733,-0.3957163,-43.3802,-11.00524,9.947021
23.994066238,1.361551,-65.5899700000003,0.3377102,0.9769056,0.1937038,-0.3996331,-43.3802,-11.00524,9.947021
24.003978729,-4.33675,-67.6870300000002,-0.582733500000001,0.9845189,0.2380828,-0.3681975,-43.3802,-11.00524,9.947021
24.01389122,-9.911175,-66.9880100000002,0.460436,1.049951,0.265695,-0.2495395,-43.3802,-11.00524,9.947021
24.023804665,-14.24684,-54.23083,6.22854899999998,1.130404,0.2678209,-0.1263885,-43.37078,-10.99452,12.58105
24.033717155,-12.45063,-36.28923,8.80579200000003,1.217908,0.1881967,0.01631921,-43.37078,-10.99452,12.58105
24.0436306,-9.16791799999997,-16.94958,8.92851700000003,1.205521,-0.04494591,-0.03409557,-43.37078,-10.99452,12.58105
24.053543091,-4.64644,-16.71657,15.2489,0.9701501,-0.2006593,-0.1376307,-43.37078,-10.99452,12.58105
24.063456535,-3.221865,-34.59992,17.15115,0.8506238,-0.204964,-0.3065299,-43.37078,-10.99452,12.58105
24.073369026,-4.956131,-59.1822499999998,17.27387,0.8411631,-0.1617721,-0.4631664,-42.24341,-10.9892,13.86011
24.083282471,-7.18590000000003,-78.2888899999998,12.36484,0.925827,-0.0655701,-0.5343719,-42.24341,-10.9892,13.86011
24.093194962,-6.318768,-77.7646300000001,8.13079899999997,1.010422,-0.07547966,-0.4982481,-42.24341,-10.9892,13.86011
24.103107452,0.1847278,-60.05603,5.86037199999999,1.085435,-0.1068721,-0.4679407,-42.24341,-10.9892,13.86011
24.113020897,11.2097,-39.55134,4.080848,1.032117,-0.1607129,-0.4375564,-42.24341,-10.9892,13.86011
24.122933388,17.7132,-22.77477,4.019485,1.012776,-0.1596203,-0.3672671,-41.8632,-10.60229,16.8765
24.132846832,18.64227,-12.63893,2.730864,1.021322,-0.1718297,-0.311249,-41.8632,-10.60229,16.8765
24.142759323,20.06684,-4.833169,2.178597,0.992408,-0.1658831,-0.3104618,-41.8632,-10.60229,16.8765
24.15515089,25.33158,1.458043,1.626331,0.9638946,-0.1333958,-0.3349499,-41.8632,-10.60229,16.8765
24.165063381,31.71119,1.05028,0.951339199999998,0.903073,-0.1018196,-0.3639469,-41.8632,-10.60229,16.8765
24.174976826,35.67523,-3.609878,2.362686,0.8687056,-0.1130528,-0.3905927,-40.74206,-10.22394,17.76893
24.184889317,35.92299,-10.2506,6.22854899999998,0.880772,-0.1478554,-0.3990988,-40.74206,-10.22394,17.76893
24.194802761,36.23267,-19.57092,9.66487199999998,0.8659814,-0.1549317,-0.4191759,-40.74206,-10.22394,17.76893
24.204715252,37.65725,-23.82331,8.00807399999998,0.9172733,-0.1933299,-0.3738108,-40.74206,-10.22394,17.76893
24.214628696,39.57733,-19.51266,4.75584,0.9543858,-0.2940962,-0.3536984,-40.74206,-10.22394,17.76893
24.224541187,34.87004,-14.26999,3.344493,0.987946,-0.1693848,-0.3205272,-41.1244,-9.472951,18.21829
24.234454632,26.69421,-8.79430199999998,2.178597,0.9076704,-0.1448284,-0.3474704,-41.1244,-9.472951,18.21829
24.244367123,19.07583,-11.35739,0.705887599999999,0.9073826,-0.06864103,-0.3339959,-41.1244,-9.472951,18.21829
24.254279614,11.33358,-12.75544,2.792227,0.9528672,0.03192549,-0.310699,-41.1244,-9.472951,18.21829
24.264193058,4.768144,-9.78458600000001,6.22854899999998,0.9961946,0.1121233,-0.2831963,-41.1244,-9.472951,18.21829
24.274105549,-2.478608,-5.648696,9.05124299999999,1.004609,0.1332561,-0.248562,-40.75686,-8.720332,19.04921
24.284018993,-9.911175,-4.075893,11.62849,0.9728413,0.0787282,-0.2155005,-40.75686,-8.720332,19.04921
24.293931484,-16.72436,-5.998208,13.46937,0.9449957,0.004742547,-0.2042121,-40.75686,-8.720332,19.04921
24.303844929,-22.91817,-8.85255399999999,14.81936,0.9451582,-0.04321725,-0.1968506,-40.75686,-8.720332,19.04921
24.31375742,-27.62546,-11.64865,15.61707,0.9456873,-0.09660053,-0.2077746,-40.75686,-8.720332,19.04921
24.323670387,-30.90817,-12.63893,15.43299,0.951372,-0.1251543,-0.2113785,-40.37938,-8.716641,19.94669
24.333583355,-31.83724,-11.06613,14.51254,0.9521696,-0.1418214,-0.2484691,-40.37938,-8.716641,19.94669
24.343496323,-29.91717,-8.15353100000001,13.03983,0.9522624,-0.1395824,-0.2844669,-40.37938,-8.716641,19.94669
24.35340929,-25.95313,-6.05646000000001,11.38303,0.9508863,-0.1388262,-0.3223816,-40.37938,-8.716641,19.94669
24.363322258,-21.86522,-5.124428,9.72623500000002,0.9539767,-0.1423709,-0.3589259,-40.37938,-8.716641,19.94669
24.373235226,-18.02506,-6.05646000000001,8.62170300000002,0.9483684,-0.1635335,-0.4060705,-41.12466,-9.093126,19.50203
24.383148193,-13.62746,-7.51275900000002,7.63989600000002,0.9335333,-0.1677061,-0.427088,-41.12466,-9.093126,19.50203
24.393061161,-8.42466199999997,-7.221499,5.308106,0.924709,-0.1809991,-0.4448609,-41.12466,-9.093126,19.50203
24.402974129,-2.41667,-6.93023899999998,4.387662,0.929826,-0.1959415,-0.4402061,-41.12466,-9.093126,19.50203
24.41288662,5.20171,-4.483657,0.889976299999999,0.929712,-0.1818545,-0.4348295,-41.12466,-9.093126,19.50203
24.422800064,10.90001,-2.328334,-0.828185100000001,0.9561827,-0.1727086,-0.4177277,-40.7601,-8.343906,19.49777
24.435191155,17.65126,0.642515800000001,-2.239532,0.9472166,-0.1675386,-0.4276936,-40.7601,-8.343906,19.49777
24.445103645,22.29661,3.43861,-1.932717,0.9420965,-0.1796667,-0.4166835,-40.7601,-8.343906,19.49777
24.45501709,26.63227,6.81722400000001,-1.56454,0.9636936,-0.1681346,-0.3951992,-40.7601,-8.343906,19.49777
24.464929581,29.72918,10.19584,-2.055443,0.9345842,-0.1193632,-0.3633949,-40.7601,-8.343906,19.49777
24.474842548,26.94197,10.89486,-2.546346,0.8906958,-0.05717425,-0.3265628,-40.38262,-8.340216,20.39525
24.484755516,20.0049,8.44827800000003,-1.687266,0.8523622,-0.03824092,-0.3232012,-40.38262,-8.340216,20.39525
24.494668484,11.45745,3.205602,-0.03046724,0.8531004,-0.02518267,-0.3312837,-40.38262,-8.340216,20.39525
24.504581452,2.538374,-1.105043,1.074065,0.8911155,-0.02281825,-0.3407425,-40.38262,-8.340216,20.39525
24.514494419,-4.64644,-2.852602,1.933146,0.9136707,-0.04055269,-0.355474,-40.38262,-8.340216,20.39525
24.524407387,-7.86721900000001,-3.202114,2.117234,0.9165094,-0.0632439,-0.3436475,-40.40039,-7.22009,19.49236
24.534320355,-8.053034,-2.852602,2.424049,0.903589,-0.09789693,-0.3567231,-40.40039,-7.22009,19.49236
24.544233322,-5.76132499999998,-2.736098,2.546775,0.902923,-0.1396981,-0.3752415,-40.40039,-7.22009,19.49236
24.55414629,-1.79729,-3.435122,1.871783,0.9073995,-0.1654572,-0.3980219,-40.40039,-7.22009,19.49236
24.564058781,2.228683,-2.969106,0.889976299999999,0.9150414,-0.1581366,-0.4071668,-40.40039,-7.22009,19.49236
24.573972225,5.449462,-1.512807,0.0922585699999997,0.9051194,-0.1407724,-0.4007173,-40.38908,-7.96745,19.94438
24.583884716,8.29861200000002,-1.687563,-0.3986447,0.8928533,-0.1326547,-0.3952681,-40.38908,-7.96745,19.94438
24.59379816,10.40451,-2.79435,-1.012274,0.8871766,-0.1138527,-0.4022926,-40.38908,-7.96745,19.94438
24.603710651,10.34257,-3.726381,-1.319088,0.8822701,-0.1041667,-0.3925796,-40.38908,-7.96745,19.94438
24.613624096,9.22768300000001,-4.658412,-1.56454,0.8841747,-0.09782733,-0.3901542,-40.38908,-7.96745,19.94438
24.623536587,7.30760400000002,-5.007925,-1.625903,0.9068588,-0.1003727,-0.3745357,-41.13946,-7.589516,20.7823
24.633450031,4.953958,-4.89142,-1.319088,0.9184214,-0.1137257,-0.3593665,-41.13946,-7.589516,20.7823
24.643362522,2.97194,-4.716664,-0.09183015,0.9276127,-0.1241442,-0.3335924,-41.13946,-7.589516,20.7823
24.653275013,0.804108299999999,-4.600161,0.951339199999998,0.9332239,-0.1312729,-0.319287,-41.13946,-7.589516,20.7823
24.663188457,-1.177909,-4.774917,1.871783,0.9446565,-0.1324984,-0.3025954,-41.13946,-7.589516,20.7823
24.673100948,-2.540546,-5.76519999999999,2.546775,0.9436948,-0.1359168,-0.3050101,-40.7698,-7.594715,19.49546
24.683014393,-3.097989,-6.58072700000001,2.669501,0.9588772,-0.1293728,-0.2950235,-40.7698,-7.594715,19.49546
24.692926884,-2.912175,-6.17296399999999,3.099041,0.9680957,-0.1366108,-0.3105221,-40.7698,-7.594715,19.49546
24.702840328,-1.79729,-5.18268,2.730864,0.9601617,-0.1343273,-0.3185962,-40.7698,-7.594715,19.49546
24.715230942,0.804108299999999,-3.37687,1.933146,0.9511624,-0.1350285,-0.3386843,-41.51995,-7.21652,20.39762
24.725144386,3.095816,-1.745815,0.767250500000003,0.9440641,-0.1328067,-0.3606911,-41.51995,-7.21652,20.39762
24.735056877,4.768144,0.1765001,-0.644096300000003,0.9366091,-0.1197905,-0.3571743,-41.51995,-7.21652,20.39762
24.744970322,5.635276,1.574547,-1.073637,0.9207077,-0.1157287,-0.3771669,-41.51995,-7.21652,20.39762
24.754882812,5.387524,1.574547,-1.441814,0.9096597,-0.09503917,-0.3812483,-41.51995,-7.21652,20.39762
24.764796257,3.839073,1.632799,-1.441814,0.9149886,-0.07646108,-0.3643683,-41.14916,-6.840325,20.77999
24.774708748,0.5563561,2.273571,-1.135,0.9179698,-0.06518013,-0.3465548,-41.14916,-6.840325,20.77999
24.784622192,-2.602484,1.516295,-0.5213705,0.9229791,-0.06408103,-0.3336296,-41.14916,-6.840325,20.77999
24.794534683,-5.389697,0.5842639,0.03089567,0.951086,-0.06995057,-0.3176032,-41.14916,-6.840325,20.77999
24.804447174,-7.12396199999998,0.817271699999998,-0.03046724,0.9811441,-0.08945665,-0.3180112,-41.14916,-6.840325,20.77999
24.814360619,-7.74334299999998,0.759019800000003,-0.3986447,0.9812113,-0.09137289,-0.3137031,-40.76173,-7.965651,20.39604
24.824273109,-5.080007,-1.571059,0.767250500000003,0.9652469,-0.1692864,-0.3404832,-40.76173,-7.965651,20.39604
24.834186554,-6.62845799999998,0.2347521,-2.116806,0.9610621,-0.177034,-0.3284922,-40.76173,-7.965651,20.39604
24.844099045,-3.779308,-1.920571,-0.766822200000002,0.9314018,-0.1800083,-0.3632893,-40.76173,-7.965651,20.39604
24.854012489,-3.903184,-0.4642715,-1.871354,0.9318911,-0.1668313,-0.347841,-40.76173,-7.965651,20.39604
24.86392498,-3.036051,1.516295,-2.975887,0.909911,-0.1566114,-0.3811806,-41.15054,-6.841894,20.39452
24.873838425,-0.9301572,0.351256,-3.773605,0.8943449,-0.1355503,-0.3962615,-41.15054,-6.841894,20.39452
24.883750916,0.3705419,0.1182482,-3.159976,0.8903372,-0.1229662,-0.3908588,-41.15054,-6.841894,20.39452
24.893663406,0.494418,0.293004,-2.423621,0.8903951,-0.101721,-0.4080035,-41.15054,-6.841894,20.39452
24.903576851,-0.06302445,-0.3477675,-1.012274,0.8939164,-0.09967563,-0.3960185,-41.15054,-6.841894,20.39452
24.913489342,-1.673414,0.293004,1.074065,0.9106625,-0.1194042,-0.4073485,-41.51372,-7.589546,20.78425
24.923402786,-2.912175,0.875523700000001,2.23996,0.896978,-0.1268895,-0.4154344,-41.51372,-7.589546,20.78425
24.933315277,-3.407679,0.5842639,4.449025,0.8772147,-0.1650415,-0.4323114,-41.51372,-7.589546,20.78425
24.943228722,-3.655432,0.700767799999999,6.84217800000002,0.8667548,-0.142343,-0.4243808,-41.51372,-7.589546,20.78425
24.953141212,-4.398688,0.0599961999999999,8.31488799999999,0.8682,-0.1252627,-0.4065146,-41.51372,-7.589546,20.78425
24.963054657,-4.708378,0.2347521,9.11260599999998,0.8725296,-0.1264596,-0.3671896,-41.13785,-7.587686,21.23201
24.972967148,-5.699387,-0.2312636,10.09441,0.8805211,-0.1252986,-0.34949,-41.13785,-7.587686,21.23201
24.982880116,-7.80528100000003,-1.571059,10.83077,0.9261351,-0.1790418,-0.3512301,-41.13785,-7.587686,21.23201
24.992793083,-10.22087,-2.153579,11.01486,0.9301951,-0.1352615,-0.3332102,-41.13785,-7.587686,21.23201
25.00518465,-12.63645,-3.202114,11.32167,0.961123,-0.138714,-0.3253565,-41.13785,-7.587686,21.23201
25.015097141,-13.87521,-2.270082,11.62849,0.9812639,-0.1354875,-0.312557,-41.51372,-7.589546,20.78425
25.025010586,-14.6804,-0.755531299999998,12.18075,0.9693656,-0.1569345,-0.3058677,-41.51372,-7.589546,20.78425
25.034923077,-15.29979,-0.2312636,12.85574,0.9535114,-0.1886974,-0.3155358,-41.51372,-7.589546,20.78425
25.044835567,-14.86622,0.0599961999999999,12.79438,0.9439169,-0.2189677,-0.3329344,-41.51372,-7.589546,20.78425
25.054749012,-13.37971,0.409508,12.54893,0.9269411,-0.2444761,-0.3492728,-41.51372,-7.589546,20.78425
25.064661503,-11.45963,0.46776,11.75121,0.908843,-0.2578768,-0.36552,-41.5151,-7.591115,20.39878
25.074574947,-9.10597999999999,0.5260119,10.46259,0.8974113,-0.2625045,-0.3889729,-41.5151,-7.591115,20.39878
25.084487438,-7.309776,0.0599961999999999,9.48078300000003,0.900381,-0.2770832,-0.4025419,-41.5151,-7.591115,20.39878
25.094400883,-5.327759,-0.1147597,8.62170300000002,0.8923826,-0.2850772,-0.4289299,-41.5151,-7.591115,20.39878
25.104313374,-3.407679,-0.1730116,6.78081600000001,0.8868924,-0.2852026,-0.4399236,-41.5151,-7.591115,20.39878
25.114226818,-1.549538,0.1182482,5.492195,0.8890496,-0.2701997,-0.4504071,-41.51995,-7.21652,20.39762
25.124139309,0.2466658,1.108532,3.958122,0.903424,-0.2526083,-0.4585855,-41.51995,-7.21652,20.39762
25.134052753,1.918993,3.380358,3.099041,0.9163904,-0.2242728,-0.4484333,-41.51995,-7.21652,20.39762
25.143965244,2.786126,6.29295599999999,2.055871,0.9181017,-0.1873024,-0.4289965,-41.51995,-7.21652,20.39762
25.153878212,1.795117,8.098766,2.608138,0.9233063,-0.1517157,-0.4043195,-41.51995,-7.21652,20.39762
25.16379118,0.2466658,8.97254599999999,3.589944,0.9296271,-0.1248254,-0.3763497,-41.52964,-6.467329,20.39532
25.173704147,-2.168918,9.90457699999998,4.019485,0.9175937,-0.08659098,-0.3606186,-41.52964,-6.467329,20.39532
25.183617115,-5.141944,9.26380600000001,5.246743,0.91494,-0.05794977,-0.347439,-41.52964,-6.467329,20.39532
25.193530083,-9.47760899999999,7.74925499999999,6.10582399999999,0.9219474,-0.05875536,-0.3326242,-41.52964,-6.467329,20.39532
25.20344305,-14.55653,5.360925,8.19216299999999,0.9251103,-0.07177011,-0.3255378,-41.52964,-6.467329,20.39532
25.213356018,-19.07801,4.195886,9.41941999999998,0.9126043,-0.08987042,-0.326503,-42.27492,-6.843815,19.95065
25.223268986,-22.67041,2.506578,9.41941999999998,0.8926299,-0.103742,-0.3355337,-42.27492,-6.843815,19.95065
25.233181953,-25.086,-0.1147597,8.86715399999999,0.8771793,-0.1316409,-0.3490212,-42.27492,-6.843815,19.95065
25.243094444,-25.64344,-1.862319,9.29669499999999,0.8717404,-0.1517396,-0.3783944,-42.27492,-6.843815,19.95065
25.253007889,-24.46662,-3.143862,8.31488799999999,0.8781215,-0.1711594,-0.3987494,-42.27492,-6.843815,19.95065
25.26292038,-21.12196,-3.609878,7.27171900000003,0.8887631,-0.1813287,-0.4219632,-41.90227,-6.845614,19.49899
25.272833824,-15.60948,-3.143862,5.98309800000002,0.8941687,-0.1939302,-0.4341011,-41.90227,-6.845614,19.49899
25.285224915,-6.13295399999998,-0.988539100000001,3.958122,0.9069799,-0.211281,-0.4448986,-41.90227,-6.845614,19.49899
25.295137405,2.290622,1.691051,1.564968,0.9129219,-0.2150711,-0.4420979,-41.90227,-6.845614,19.49899
25.305050373,9.78512499999999,4.428894,-0.3986447,0.9060011,-0.1947082,-0.4255728,-41.90227,-6.845614,19.49899
25.314963341,14.61629,6.75897199999999,-2.362258,0.8822809,-0.168303,-0.4189355,-41.90712,-6.471019,19.49784
25.324876309,17.15575,7.51624699999999,-3.344064,0.8638477,-0.121878,-0.3978089,-41.90712,-6.471019,19.49784
25.334789276,16.84606,5.94344499999998,-4.816774,0.850431,-0.06289115,-0.3972919,-41.90712,-6.471019,19.49784
25.344702244,14.18273,2.681334,-5.491766,0.8642969,-0.03458432,-0.3948307,-41.90712,-6.471019,19.49784
25.354615212,11.02389,-0.8720351,-5.000863,0.8823617,-0.02168877,-0.3824278,-41.90712,-6.471019,19.49784
25.364527702,7.49341799999997,-3.08561,-5.062225,0.8924754,-0.02870927,-0.35808,-41.91197,-6.096423,19.49669
25.374441147,3.343568,-4.425405,-4.141782,0.9017019,-0.04496317,-0.3357062,-41.91197,-6.096423,19.49669
25.384353638,-0.9301572,-5.82345200000001,-3.221339,0.9080914,-0.08169124,-0.3278473,-41.91197,-6.096423,19.49669
25.394266605,-3.655432,-7.862271,-2.975887,0.9180776,-0.09658308,-0.3251579,-41.91197,-6.096423,19.49669
25.404179573,-5.265821,-9.90108999999998,-3.344064,0.9360846,-0.1056688,-0.3441111,-41.91197,-6.096423,19.49669
25.414092541,-5.203883,-10.30885,-3.098613,0.9527563,-0.1195825,-0.3558818,-41.90066,-6.843784,19.94871
25.424005509,-2.974113,-9.14381400000001,-2.546346,0.9578351,-0.1403984,-0.3618294,-41.90066,-6.843784,19.94871
25.433918476,0.2466658,-7.33800299999997,-3.159976,0.9641926,-0.1495866,-0.3725128,-41.90066,-6.843784,19.94871
25.443831444,3.467444,-5.18268,-4.019056,0.9617141,-0.1550007,-0.3821291,-41.90066,-6.843784,19.94871
25.453744412,6.19271900000002,-2.328334,-5.000863,0.9484613,-0.1527534,-0.3843924,-41.89742,-7.22021,19.50015
25.463657379,8.17473599999999,-0.05650773,-5.73721700000003,0.9248316,-0.1409352,-0.3860158,-41.89742,-7.22021,19.50015
25.473570347,8.54636400000002,0.46776,-6.96447600000002,0.8977761,-0.1325761,-0.3919519,-41.89742,-7.22021,19.50015
25.483483315,8.48442599999998,-1.279799,-8.13037100000001,0.8837937,-0.1138749,-0.3984202,-41.89742,-7.22021,19.50015
25.493396282,7.92698399999999,-2.910854,-8.43718500000001,0.8895625,-0.1060479,-0.3989016,-41.89742,-7.22021,19.50015
25.503308773,6.87403699999997,-3.901137,-8.00764499999998,0.888148,-0.1050634,-0.3926399,-41.51995,-7.21652,20.39762
25.513222218,4.953958,-4.425405,-6.96447600000002,0.8735827,-0.1120225,-0.390631,-41.51995,-7.21652,20.39762
25.523134709,3.777135,-5.590444,-6.41221000000002,0.8545816,-0.1180794,-0.3909757,-41.51995,-7.21652,20.39762
25.533048153,3.777135,-7.10499500000003,-6.35084600000001,0.8620401,-0.1223132,-0.3838705,-41.51995,-7.21652,20.39762
25.542960644,4.458453,-8.79430199999998,-7.33265300000001,0.8969676,-0.1285978,-0.370791,-41.51995,-7.21652,20.39762
25.552874088,5.82109000000002,-9.02730999999998,-7.88491900000001,0.9400445,-0.132424,-0.3707347,-40.77467,-6.840034,20.84229
25.562786579,7.12178899999997,-7.16324699999999,-7.51674200000002,0.9528524,-0.1292886,-0.357868,-40.77467,-6.840034,20.84229
25.575177669,8.79411600000002,-4.949672,-6.35084600000001,0.9278034,-0.132586,-0.3725432,-40.77467,-6.840034,20.84229
25.585090637,10.52838,-4.833169,-5.859943,0.9012703,-0.1344473,-0.3871951,-40.77467,-6.840034,20.84229
25.595003605,11.76714,-5.93995599999998,-5.491766,0.8931084,-0.1515463,-0.3925153,-40.77467,-6.840034,20.84229
25.604916572,12.26265,-7.62926299999999,-5.859943,0.9141153,-0.1488536,-0.3912512,-41.14084,-7.591084,20.39683
25.61482954,11.89102,-8.03702600000001,-6.47357199999998,0.9255626,-0.166169,-0.3919525,-41.14084,-7.591084,20.39683
25.624742508,11.33358,-6.46422299999998,-6.53493500000002,0.9208637,-0.1788139,-0.3881521,-41.14084,-7.591084,20.39683
25.634655476,10.21869,-5.240932,-6.41221000000002,0.9010024,-0.1901877,-0.3832426,-41.14084,-7.591084,20.39683
25.644568443,8.67023999999999,-5.124428,-5.92130599999998,0.8934144,-0.1874847,-0.4047615,-41.14084,-7.591084,20.39683
25.654481411,8.36055000000001,-5.240932,-5.184951,0.8937443,-0.1836589,-0.4157827,-40.76844,-7.213061,21.22892
25.664394379,8.79411600000002,-4.425405,-3.89633,0.8751738,-0.1980327,-0.431552,-40.76844,-7.213061,21.22892
25.674306869,10.15675,-3.609878,-2.546346,0.8776289,-0.1984846,-0.4310975,-40.76844,-7.213061,21.22892
25.684220314,10.09482,-3.901137,-1.809992,0.8967889,-0.1962474,-0.419736,-40.76844,-7.213061,21.22892
25.694132805,8.54636400000002,-3.37687,-0.828185100000001,0.9330577,-0.1903838,-0.4046673,-40.76844,-7.213061,21.22892
25.704046249,5.5114,-1.629311,-0.1531931,0.9368408,-0.1660115,-0.3886947,-41.13785,-7.587686,21.23201
25.71395874,2.290622,0.409508,-0.4600076,0.9263026,-0.1433537,-0.3884463,-41.13785,-7.587686,21.23201
25.723872185,-0.9301572,1.05028,-1.319088,0.9184433,-0.1283484,-0.3743491,-41.13785,-7.587686,21.23201
25.733784676,-2.974113,0.9920276,-1.748629,0.9011371,-0.123297,-0.3871196,-41.13785,-7.587686,21.23201
25.74369812,-3.655432,0.1182482,-1.748629,0.8966466,-0.1219355,-0.3942714,-41.13785,-7.587686,21.23201
25.753610611,-3.531555,-1.163295,-1.99408,0.9027035,-0.1034752,-0.401887,-41.13461,-7.964111,20.78345
25.763524055,-3.159927,-2.037075,-2.607709,0.896192,-0.09583061,-0.4080179,-41.13461,-7.964111,20.78345
25.773436546,-2.41667,-2.910854,-2.914524,0.8947325,-0.0943817,-0.4055939,-41.13461,-7.964111,20.78345
25.783349037,-0.992095199999997,-3.959389,-2.730435,0.8952677,-0.1036198,-0.4119025,-41.13461,-7.964111,20.78345
25.793262482,0.989922399999999,-5.357436,-2.669072,0.8886961,-0.118685,-0.4028191,-41.13461,-7.964111,20.78345
25.803174972,3.715197,-7.04674300000001,-2.914524,0.8830008,-0.1318396,-0.4014135,-40.76684,-7.211231,21.67863
25.813088417,5.94496599999999,-8.27003499999999,-3.221339,0.8827532,-0.1458665,-0.3943023,-40.76684,-7.211231,21.67863
25.823000908,7.98892199999997,-9.60983000000002,-3.589516,0.8867256,-0.1526152,-0.3963047,-40.76684,-7.211231,21.67863
25.832914352,9.59931099999998,-10.54186,-4.019056,0.8929967,-0.1520922,-0.4040417,-40.76684,-7.211231,21.67863
25.842826843,11.45745,-10.94963,-4.509959,0.8963289,-0.1618526,-0.4243042,-40.76684,-7.211231,21.67863
25.85521841,14.05885,-10.01759,-4.9395,0.9168996,-0.1718215,-0.4327236,-41.13464,-7.584025,22.13144
25.865130901,15.73118,-8.38653900000002,-5.553129,0.9330391,-0.170154,-0.4304609,-41.13464,-7.584025,22.13144
25.875044346,16.78412,-6.63897900000002,-5.859943,0.9477984,-0.1621183,-0.4122978,-41.13464,-7.584025,22.13144
25.884956837,17.09381,-4.949672,-5.675855,0.9541238,-0.1430305,-0.3930229,-41.13464,-7.584025,22.13144
25.894870281,16.72219,-3.027358,-4.816774,0.9165244,-0.1322562,-0.3753177,-41.13464,-7.584025,22.13144
25.904782772,16.22668,-1.978823,-3.957693,0.8712675,-0.1129613,-0.379092,-40.39097,-7.209371,22.12639
25.914696217,15.66924,-3.260366,-3.159976,0.8552098,-0.09044421,-0.3927181,-40.39097,-7.209371,22.12639
25.924608707,14.80211,-6.69723099999998,-2.546346,0.8556858,-0.07069314,-0.4185194,-40.39097,-7.209371,22.12639
25.934522152,13.50141,-9.31857,-2.178169,0.8502762,-0.03785419,-0.4307348,-40.39097,-7.209371,22.12639
25.944434643,11.14776,-8.211782,-1.809992,0.8610846,-0.02477035,-0.4581166,-40.39097,-7.209371,22.12639
25.954347134,9.59931099999998,-8.03702600000001,-1.196362,0.861212,-0.04080164,-0.4644666,-40.01511,-7.207511,22.57416
25.964260578,7.49341799999997,-8.67779800000001,0.0922585699999997,0.8907946,-0.08835121,-0.4487316,-40.01511,-7.207511,22.57416
25.974173069,3.962949,-8.561295,0.583161800000002,0.9126821,-0.09618028,-0.4216172,-40.01511,-7.207511,22.57416
25.984086514,0.494418,-6.17296399999999,0.3377102,0.9003358,-0.1024901,-0.3932157,-40.01511,-7.207511,22.57416
25.993999004,-1.549538,-3.027358,-0.4600076,0.8741606,-0.1124579,-0.3824765,-40.01511,-7.207511,22.57416
26.003912449,-1.4876,-2.969106,-1.871354,0.8753939,-0.1342639,-0.3831134,-39.64431,-6.831317,22.95653
26.01382494,1.05186,-6.58072700000001,-2.546346,0.883202,-0.1453935,-0.3976644,-39.64431,-6.831317,22.95653
26.023738384,4.210701,-10.71662,-1.932717,0.8945453,-0.1700802,-0.4171401,-39.64431,-6.831317,22.95653
26.033650875,7.43147999999999,-12.05641,-1.257725,0.9273914,-0.1852351,-0.4266679,-39.64431,-6.831317,22.95653
26.04356432,9.28962000000002,-9.085562,0.0922585699999997,0.9423547,-0.1922152,-0.406206,-39.64431,-6.831317,22.95653
26.05347681,8.48442599999998,-3.37687,1.871783,0.9218816,-0.1953663,-0.4036368,-39.64569,-6.832885,22.57106
26.063389301,5.88302899999997,-0.6972793,2.608138,0.8743002,-0.1906736,-0.4127687,-39.64569,-6.832885,22.57106
26.073302746,2.66225,-1.512807,2.730864,0.8514215,-0.1755465,-0.432623,-39.64569,-6.832885,22.57106
26.083215237,-0.2488386,-4.308901,1.994509,0.8670487,-0.1429262,-0.444074,-39.64569,-6.832885,22.57106
26.093128681,-2.478608,-6.28946699999999,1.196791,0.8943578,-0.103845,-0.4531891,-39.64569,-6.832885,22.57106
26.103041172,-3.71737,-5.532192,1.196791,0.915282,-0.09339051,-0.4509123,-39.26684,-6.827627,23.854
26.112954617,-3.779308,-2.910854,1.503605,0.9320657,-0.09895314,-0.4419815,-39.26684,-6.827627,23.854
26.122867107,-3.593493,-0.4060195,2.546775,0.9252141,-0.1236719,-0.4238368,-39.26684,-6.827627,23.854
26.135258675,-4.460626,0.700767799999999,2.914952,0.9232627,-0.1546652,-0.4120213,-39.26684,-6.827627,23.854
26.145171166,-5.82326300000003,0.933775699999999,3.589944,0.9074103,-0.1713053,-0.4038228,-40.02666,-6.080326,23.40588
26.15508461,-6.69039600000003,1.05028,3.896759,0.9177445,-0.1789472,-0.4063701,-40.02666,-6.080326,23.40588
26.164997101,-7.18590000000003,1.691051,4.080848,0.9137676,-0.1697618,-0.4019507,-40.02666,-6.080326,23.40588
26.174910545,-7.99109600000001,2.157067,3.835396,0.9104462,-0.1397564,-0.4046011,-40.02666,-6.080326,23.40588
26.184823036,-9.10597999999999,2.390074,3.221767,0.8928866,-0.1114222,-0.4148134,-40.02666,-6.080326,23.40588
26.194736481,-10.22087,1.982311,2.914952,0.8910412,-0.09456434,-0.4319697,-39.64271,-6.829487,23.40624
26.204648972,-11.33575,1.632799,2.608138,0.8801522,-0.07769453,-0.4250344,-39.64271,-6.829487,23.40624
26.214562416,-12.07901,1.399791,2.117234,0.8802083,-0.08693363,-0.4303782,-39.64271,-6.829487,23.40624
26.224474907,-11.45963,0.700767799999999,1.994509,0.8842416,-0.09755304,-0.4309664,-39.64271,-6.829487,23.40624
26.234388351,-10.77831,0.700767799999999,1.933146,0.8922669,-0.1095451,-0.4253586,-39.64271,-6.829487,23.40624
26.244300842,-9.53954700000003,0.759019800000003,1.442243,0.8800668,-0.1160273,-0.4305707,-40.02182,-6.454922,23.40703
26.254213333,-8.36272300000002,0.293004,1.012702,0.8765339,-0.1171031,-0.4425492,-40.02182,-6.454922,23.40703
26.264126778,-7.49559099999998,0.46776,0.6445247,0.8810476,-0.1257696,-0.4416883,-40.02182,-6.454922,23.40703
26.274039269,-6.318768,0.5260119,0.6445247,0.8865098,-0.1344392,-0.4437172,-40.02182,-6.454922,23.40703
26.283952713,-5.018068,0.5260119,0.3990731,0.8986962,-0.1599111,-0.4295949,-40.02182,-6.454922,23.40703
26.293865204,-3.283803,1.166783,0.2149844,0.8985114,-0.1787833,-0.4220364,-40.02666,-6.080326,23.40588
26.303778648,-0.9301572,1.574547,0.1536215,0.9083252,-0.1825453,-0.4231125,-40.02666,-6.080326,23.40588
26.313691139,1.485427,2.331823,0.5217989,0.9053729,-0.1801527,-0.422109,-40.02666,-6.080326,23.40588
26.323604584,3.219692,3.030846,1.074065,0.9077727,-0.1718528,-0.4167941,-40.02666,-6.080326,23.40588
26.333517075,4.520391,3.846374,1.503605,0.917436,-0.168376,-0.4240627,-40.02666,-6.080326,23.40588
26.343430519,5.697214,5.244421,1.503605,0.9274078,-0.1493772,-0.4307505,-39.63786,-7.204082,23.40739
26.35334301,5.75915199999997,7.574499,1.687694,0.9192876,-0.1203614,-0.4256805,-39.63786,-7.204082,23.40739
26.363255978,4.768144,8.62303400000002,1.994509,0.9131323,-0.104487,-0.4351211,-39.63786,-7.204082,23.40739
26.373168945,2.786126,9.26380600000001,1.81042,0.893644,-0.06933397,-0.4347067,-39.63786,-7.204082,23.40739
26.383081913,-0.1869005,8.564782,1.626331,0.8816081,-0.0511009,-0.4426365,-39.63786,-7.204082,23.40739
26.392994881,-2.540546,7.05023200000001,1.442243,0.8707822,-0.05273473,-0.4511902,-39.64893,-6.45646,23.01962
26.402907848,-3.593493,5.535681,1.81042,0.8702378,-0.05179416,-0.4555003,-39.64893,-6.45646,23.01962
26.412820816,-3.779308,5.069665,1.994509,0.8646341,-0.06685229,-0.4473861,-39.64893,-6.45646,23.01962
26.425212383,-2.912175,4.312389,2.485412,0.8606057,-0.0823235,-0.4292059,-39.64893,-6.45646,23.01962
26.435124874,-2.41667,2.390074,2.730864,0.8678367,-0.1035006,-0.4164496,-39.64893,-6.45646,23.01962
26.445037365,-2.726361,-0.2312636,2.914952,0.8795275,-0.1333722,-0.4081138,-40.39421,-6.832945,22.57495
26.45495081,-3.469617,-2.677846,3.651307,0.8849336,-0.1749935,-0.4065205,-40.39421,-6.832945,22.57495
26.4648633,-3.965122,-4.425405,4.75584,0.8883392,-0.2108088,-0.4024692,-40.39421,-6.832945,22.57495
26.474776745,-4.33675,-4.308901,5.98309800000002,0.8884448,-0.222949,-0.4063923,-40.39421,-6.832945,22.57495
26.484689236,-3.965122,-2.910854,6.28991200000003,0.9021873,-0.2417751,-0.4234504,-40.39421,-6.832945,22.57495
26.49460268,-3.097989,0.1182482,6.22854899999998,0.9072719,-0.2523441,-0.4168456,-40.39283,-6.831377,22.96042
26.504515171,-2.726361,3.43861,6.28991200000003,0.9063489,-0.2581814,-0.4183164,-40.39283,-6.831377,22.96042
26.514428616,-2.974113,5.302673,6.16718700000003,0.8932555,-0.2573147,-0.4066657,-40.39283,-6.831377,22.96042
26.524341107,-3.283803,5.302673,6.22854899999998,0.8971229,-0.2548497,-0.4081256,-40.39283,-6.831377,22.96042
26.534254551,-3.71737,4.894909,6.53536400000002,0.9052768,-0.2387305,-0.4047325,-40.39283,-6.831377,22.96042
26.544167042,-3.469617,4.836657,6.84217800000002,0.9167673,-0.2187108,-0.4051855,-40.39421,-6.832945,22.57495
26.554080486,-3.159927,6.00169699999999,7.148993,0.9225027,-0.2006573,-0.3969556,-40.39421,-6.832945,22.57495
26.563992977,-2.292794,6.93372799999998,7.76262199999999,0.9234782,-0.191378,-0.3863393,-40.39421,-6.832945,22.57495
26.573905468,-1.363724,7.98226299999999,8.13079899999997,0.9214171,-0.1846279,-0.3886761,-40.39421,-6.832945,22.57495
26.583818912,-0.992095199999997,9.32205800000003,8.80579200000003,0.9260003,-0.1830145,-0.3690212,-40.39421,-6.832945,22.57495
26.593731403,-1.301785,9.72982099999999,9.54214699999998,0.9103585,-0.1841835,-0.3698447,-40.39906,-6.458349,22.5738
26.603644848,-3.345741,9.03079800000001,10.21714,0.9155503,-0.1710425,-0.3726861,-40.39906,-6.458349,22.5738
26.613557339,-7.49559099999998,7.28324000000001,10.46259,0.9082569,-0.1479467,-0.3892703,-40.39906,-6.458349,22.5738
26.623470783,-13.31777,5.069665,10.58532,0.901522,-0.1360281,-0.4121762,-40.39906,-6.458349,22.5738
26.633383274,-18.5825,3.671618,10.15578,0.8919941,-0.1391949,-0.438998,-40.39906,-6.458349,22.5738
26.643296719,-21.74134,3.555114,10.21714,0.8739641,-0.1549992,-0.4514207,-40.77169,-6.836636,21.67747
26.653209209,-22.91817,3.788122,9.235332,0.8569799,-0.1731949,-0.4600277,-40.77169,-6.836636,21.67747
26.663122654,-22.17491,3.962878,8.19216299999999,0.8553447,-0.1954917,-0.4548794,-40.77169,-6.836636,21.67747
26.673035145,-20.93615,4.02113,7.026268,0.8499987,-0.1994445,-0.4562968,-40.77169,-6.836636,21.67747
26.682948112,-19.20188,3.43861,5.86037199999999,0.8554128,-0.1978953,-0.4510548,-40.77169,-6.836636,21.67747
26.69286108,-16.47661,3.555114,5.062654,0.8671365,-0.1982419,-0.452606,-40.78138,-6.087444,21.67516
26.705252647,-11.52156,4.545397,3.835396,0.8812549,-0.1927306,-0.4522197,-40.78138,-6.087444,21.67516
26.715165138,-7.309776,5.710437,3.160404,0.8847035,-0.1804791,-0.4353644,-40.78138,-6.087444,21.67516
26.725078583,-4.150936,6.52596399999999,2.178597,0.8768808,-0.1639914,-0.4159759,-40.78138,-6.087444,21.67516
26.734991074,-2.045042,6.99197999999999,0.6445247,0.8655165,-0.1466326,-0.4071123,-40.78138,-6.087444,21.67516
26.744904518,-0.1249625,7.16673599999998,-0.950910899999997,0.8624805,-0.1252592,-0.3920569,-40.78623,-5.71285,21.67401
26.754817009,1.857055,7.05023200000001,-2.914524,0.8514956,-0.1277031,-0.3694042,-40.78623,-5.71285,21.67401
26.7647295,3.219692,5.302673,-4.571322,0.8609518,-0.130915,-0.3570289,-40.78623,-5.71285,21.67401
26.774642944,4.210701,2.914342,-5.184951,0.8799863,-0.1243529,-0.3528398,-40.78623,-5.71285,21.67401
26.784555435,3.095816,0.409508,-5.246314,0.8946487,-0.1222214,-0.3510406,-40.78623,-5.71285,21.67401
26.79446888,1.237675,-1.687563,-4.509959,0.9132808,-0.1307424,-0.3560712,-40.79269,-5.340084,21.22314
26.80438137,-0.682404900000003,-2.270082,-4.264508,0.9230857,-0.1403627,-0.3648689,-40.79269,-5.340084,21.22314
26.814294815,-2.045042,-2.328334,-3.834968,0.9200386,-0.1424096,-0.3782988,-40.79269,-5.340084,21.22314
26.824207306,-2.354732,-2.969106,-3.834968,0.919836,-0.1361735,-0.3907394,-40.79269,-5.340084,21.22314
26.83412075,-2.230856,-3.668129,-4.019056,0.9287287,-0.1152885,-0.4050873,-40.79269,-5.340084,21.22314
26.844033241,-1.983104,-3.668129,-4.755411,0.9241406,-0.1115387,-0.4189445,-41.15378,-6.465468,20.84309
26.853946686,-0.9301572,-2.969106,-5.73721700000003,0.9216259,-0.11063,-0.424677,-41.15378,-6.465468,20.84309
26.863859177,1.361551,-1.396303,-6.78038700000001,0.9320858,-0.117231,-0.4137741,-41.15378,-6.465468,20.84309
26.873772621,4.086825,0.5260119,-7.394016,0.9343123,-0.128773,-0.4009073,-41.15378,-6.465468,20.84309
26.883685112,6.502409,2.040563,-7.51674200000002,0.936945,-0.1325471,-0.3870322,-41.15378,-6.465468,20.84309
26.89359808,7.92698399999999,3.14735,-7.51674200000002,0.9209855,-0.1389988,-0.3773245,-40.77169,-6.836636,21.67747
26.903511047,8.979931,3.14735,-7.148564,0.8961706,-0.1416866,-0.36847,-40.77169,-6.836636,21.67747
26.913424015,9.04186800000002,0.9920276,-7.27128999999997,0.8809611,-0.1414156,-0.3731292,-40.77169,-6.836636,21.67747
26.923336983,8.29861200000002,-1.862319,-7.27128999999997,0.89355,-0.1364429,-0.3794545,-40.77169,-6.836636,21.67747
26.93324995,7.369542,-3.842885,-6.90311299999998,0.8916609,-0.1486277,-0.3872007,-40.77169,-6.836636,21.67747
26.943162918,6.254657,-4.833169,-5.73721700000003,0.8980785,-0.1558334,-0.3897089,-41.52666,-6.46393,21.2305
26.953075886,5.015896,-4.949672,-5.000863,0.8949601,-0.1457223,-0.3958547,-41.52666,-6.46393,21.2305
26.962988853,3.467444,-4.658412,-5.123589,0.9009783,-0.1248431,-0.4044141,-41.52666,-6.46393,21.2305
26.972901821,1.299613,-3.493374,-5.859943,0.913434,-0.09798853,-0.3981084,-41.52666,-6.46393,21.2305
26.982814789,-1.115971,-2.037075,-6.84175,0.9277852,-0.07845795,-0.4062737,-41.52666,-6.46393,21.2305
26.995205402,-2.788299,-0.813783199999999,-7.33265300000001,0.9116371,-0.05745133,-0.4304725,-40.39418,-7.213031,21.22697
27.005118847,-2.788299,-0.813783199999999,-6.84175,0.8952887,-0.04947139,-0.4417919,-40.39418,-7.213031,21.22697
27.015031338,-0.744343000000003,-1.454555,-6.22812100000001,0.8685464,-0.07558349,-0.4575638,-40.39418,-7.213031,21.22697
27.024944782,4.024887,-1.571059,-5.000863,0.8456611,-0.1224023,-0.4552632,-40.39418,-7.213031,21.22697
27.034857273,9.10380600000001,-2.444838,-4.264508,0.8430159,-0.127167,-0.4327031,-40.40041,-6.840004,20.84035
27.044770718,11.76714,-5.76519999999999,-5.123589,0.8813842,-0.1329115,-0.417251,-40.40041,-6.840004,20.84035
27.054683208,11.7052,-8.03702600000001,-6.596298,0.9269059,-0.1289023,-0.4080421,-40.40041,-6.840004,20.84035
27.064596653,9.53737299999999,-6.81373500000001,-7.57810399999998,0.9541295,-0.1381495,-0.3867483,-40.40041,-6.840004,20.84035
27.074509144,6.81209899999999,-4.308901,-7.88491900000001,0.9323836,-0.1641448,-0.3920021,-40.40041,-6.840004,20.84035
27.084422588,5.82109000000002,-3.551625,-7.63946799999999,0.8788611,-0.1983399,-0.4061397,-40.77008,-6.834805,22.12718
27.094335079,7.24566599999997,-4.716664,-6.47357199999998,0.8584728,-0.2316908,-0.4306614,-40.77008,-6.834805,22.12718
27.104248047,9.90900100000002,-5.706948,-6.044032,0.8657118,-0.2572539,-0.4222558,-40.77008,-6.834805,22.12718
27.114161015,13.62528,-5.648696,-6.16675799999997,0.878116,-0.2657877,-0.4147449,-40.77008,-6.834805,22.12718
27.124073982,16.04087,-5.18268,-6.71902399999997,0.9156725,-0.2478038,-0.4029684,-40.77008,-6.834805,22.12718
27.13398695,16.908,-3.551625,-8.00764499999998,0.943697,-0.2120133,-0.3938662,-40.02156,-6.834745,22.12329
27.143899918,17.09381,-1.978823,-9.90989499999997,0.9448292,-0.1819252,-0.3912754,-40.02156,-6.834745,22.12329
27.153812885,17.09381,-0.813783199999999,-12.11896,0.9412802,-0.168863,-0.3882746,-40.02156,-6.834745,22.12329
27.163725853,17.58932,-0.1147597,-13.28485,0.9334098,-0.1297216,-0.3946632,-40.02156,-6.834745,22.12329
27.173638821,18.02289,-0.2312636,-13.83712,0.9276717,-0.1041224,-0.3997214,-40.02156,-6.834745,22.12329
27.183551788,18.2087,0.351256,-13.59167,0.905139,-0.07784414,-0.4204649,-40.01671,-7.209341,22.12444
27.193464756,18.39451,1.05028,-11.93487,0.8763459,-0.05793696,-0.4392723,-40.01671,-7.209341,22.12444
27.203377724,18.39451,0.759019800000003,-9.72580600000002,0.858404,-0.0422364,-0.4538867,-40.01671,-7.209341,22.12444
27.213290691,17.40351,-0.4642715,-7.88491900000001,0.8735262,-0.02694313,-0.4395199,-40.01671,-7.209341,22.12444
27.223203659,15.66924,-1.745815,-6.044032,0.8895772,-0.0431222,-0.4191293,-40.01671,-7.209341,22.12444
27.23311615,13.19172,-2.852602,-4.632685,0.8914109,-0.04827874,-0.3894109,-40.01671,-7.209341,22.12444
27.243029594,9.90900100000002,-4.716664,-3.589516,0.890191,-0.05451009,-0.3726355,-40.01671,-7.209341,22.12444
27.252942085,6.997913,-7.04674300000001,-3.773605,0.8903825,-0.068069,-0.3698467,-40.01671,-7.209341,22.12444
27.26285553,5.077834,-9.26031799999999,-4.325871,0.8916109,-0.1006093,-0.3835193,-40.01671,-7.209341,22.12444
27.27524662,6.56434699999999,-9.78458600000001,-5.430403,0.889336,-0.1449418,-0.4188451,-40.01671,-7.209341,22.12444
27.285159111,10.59032,-8.91080699999998,-6.53493500000002,0.8923984,-0.1780089,-0.4450223,-40.02342,-6.456752,22.95732
27.295072556,15.73118,-7.27975100000002,-7.57810399999998,0.8962436,-0.1848239,-0.459508,-40.02342,-6.456752,22.95732
27.304985046,20.87204,-5.998208,-8.19173300000002,0.9058495,-0.1847916,-0.4764021,-40.02342,-6.456752,22.95732
27.314898491,25.08382,-4.541909,-8.74399900000002,0.9008343,-0.1746742,-0.4767686,-40.02342,-6.456752,22.95732
27.324810982,27.99491,-3.493374,-8.49854900000003,0.8950133,-0.1620405,-0.4574242,-40.02342,-6.456752,22.95732
27.334723473,28.86205,-2.852602,-7.394016,0.8908681,-0.1358695,-0.449529,-39.63947,-7.205913,22.95768
27.344636917,26.75615,-3.027358,-5.430403,0.8814179,-0.09850809,-0.4213435,-39.63947,-7.205913,22.95768
27.354549408,23.16374,-4.308901,-3.957693,0.859493,-0.06484488,-0.4218768,-39.63947,-7.205913,22.95768
27.364462853,18.51839,-5.18268,-3.282701,0.8509235,-0.03874128,-0.4163419,-39.63947,-7.205913,22.95768
27.374375343,12.88203,-5.706948,-3.282701,0.8335888,-0.01809498,-0.4136432,-39.63947,-7.205913,22.95768
27.384288788,8.979931,-7.454507,-4.080419,0.8489186,-0.01513713,-0.4411343,-39.26521,-7.205883,22.95573
27.394201279,6.81209899999999,-9.66808199999998,-3.344064,0.8933621,-0.0465538,-0.4355126,-39.26521,-7.205883,22.95573
27.404114723,5.449462,-9.95934199999999,-1.99408,0.909719,-0.06721224,-0.4382023,-39.26521,-7.205883,22.95573
27.414027214,4.89202,-7.62926299999999,-1.257725,0.9090824,-0.08753473,-0.4287286,-39.26521,-7.205883,22.95573
27.423940659,4.334577,-4.949672,-0.4600076,0.9006964,-0.1074288,-0.4114979,-39.26521,-7.205883,22.95573
27.43385315,4.024887,-4.308901,0.3990731,0.8900908,-0.1328506,-0.4264541,-39.64408,-6.831056,23.02077
27.443766594,3.901011,-5.240932,0.767250500000003,0.8717112,-0.1578568,-0.4360539,-39.64408,-6.831056,23.02077
27.453679085,4.768144,-4.949672,0.2763473,0.8686164,-0.1733388,-0.4222038,-39.64408,-6.831056,23.02077
27.463592053,5.82109000000002,-4.075893,-1.441814,0.8878989,-0.1817696,-0.4113947,-39.64408,-6.831056,23.02077
