Time (s),Gyroscope X (deg/s),Gyroscope Y (deg/s),Gyroscope Z (deg/s),Accelerometer X (g),Accelerometer Y (g),Accelerometer Z (g),Magnetometer X (uT),Magnetometer Y (uT),Magnetometer Z (uT)
16.547713757,-1.573099,3.643033,1.049839,1.000344,0.2382894,0.05134209,-34.48494,-36.69957,24.06482
16.557572365,-3.68504,8.522766,-0.1762206,1.004699,0.2334326,0.04357183,-34.48494,-36.69957,24.06482
16.567431927,-5.36217,13.34299,-1.402281,1.010608,0.2295898,0.04297598,-34.48494,-36.69957,24.06482
16.579754829,-6.231793,19.65094,-2.62834,1.019462,0.2330993,0.0495882,-34.48494,-36.69957,24.06482
16.589613438,-7.53622700000002,24.47116,-3.670491,1.029339,0.2356535,0.05857377,-34.48494,-36.69957,24.06482
16.599472046,-9.64816799999999,29.52942,-4.896551,1.040986,0.248913,0.06331168,-34.48368,-37.44121,23.68827
16.609330654,-11.44953,34.52817,-6.24521700000002,1.046401,0.250435,0.06708094,-34.48368,-37.44121,23.68827
16.619189262,-13.56147,39.52692,-7.65518600000002,1.05415,0.2558525,0.06605782,-34.48368,-37.44121,23.68827
16.629047871,-15.67341,44.58518,-9.003853,1.069532,0.2511666,0.07777902,-34.48368,-37.44121,23.68827
16.638907432,-16.48092,50.06,-10.47512,1.080582,0.2318148,0.08177102,-34.48368,-37.44121,23.68827
16.648766041,-16.4188,55.53482,-11.70118,1.093944,0.2319756,0.09308273,-35.23712,-37.44416,22.85996
16.658624649,-16.48092,61.1286699999999,-13.04985,1.10514,0.2447535,0.100219,-35.23712,-37.44416,22.85996
16.668483257,-17.16419,66.36545,-14.45982,1.103158,0.2540054,0.1065549,-35.23712,-37.44416,22.85996
16.678341865,-17.84747,71.6617399999999,-15.44067,1.106084,0.2613522,0.1123256,-35.23712,-37.44416,22.85996
16.688200474,-19.1519,77.1365699999999,-16.66673,1.110933,0.2551713,0.1395187,-35.23712,-37.44416,22.85996
16.698059082,-20.02153,82.9684399999998,-17.77018,1.131758,0.2446919,0.1506342,-35.6208,-37.83115,21.2013
16.70791769,-19.02767,88.91933,-18.81233,1.131886,0.2393581,0.1553794,-35.6208,-37.83115,21.2013
16.717776775,-17.28843,94.5726900000002,-19.79318,1.140788,0.2438575,0.1663121,-35.6208,-37.83115,21.2013
16.727635384,-16.7915,100.1665,-21.08054,1.141013,0.2463628,0.1850188,-35.6208,-37.83115,21.2013
16.737493992,-16.29457,106.1174,-22.3066,1.163848,0.2456805,0.2086475,-35.6208,-37.83115,21.2013
16.749817371,-15.2386,113.9131,-22.98093,1.182251,0.2591092,0.2425218,-36.01691,-38.2422,17.81427
16.75967598,-15.2386,119.6855,-23.90048,1.186813,0.2621231,0.2568581,-36.01691,-38.2422,17.81427
16.769534588,-15.17648,125.7554,-24.3909,1.191923,0.2695521,0.2793703,-36.01691,-38.2422,17.81427
16.779393196,-15.6113,131.5872,-24.94263,1.208032,0.2712851,0.314137,-36.01691,-38.2422,17.81427
16.789251804,-16.4188,137.3001,-25.55566,1.221846,0.2772984,0.3278876,-36.01691,-38.2422,17.81427
16.799110889,-17.22631,143.1915,-26.53651,1.219836,0.2933773,0.3381152,-36.79227,-38.65963,13.66101
16.808969498,-18.28228,148.5473,-26.96563,1.225586,0.3012067,0.3361825,-36.79227,-38.65963,13.66101
16.818828106,-19.64883,153.4865,-27.82387,1.234761,0.3007667,0.3269432,-36.79227,-38.65963,13.66101
16.828686714,-19.71095,157.7712,-28.62081,1.252508,0.3073084,0.3425591,-36.79227,-38.65963,13.66101
16.838545322,-18.84132,161.2822,-29.90817,1.265132,0.3195997,0.3463165,-36.79227,-38.65963,13.66101
16.848403931,-17.599,164.6147,-31.37945,1.270068,0.3284438,0.3573423,-37.19189,-39.44952,9.509583
16.858262539,-16.7915,167.1141,-33.09593,1.261145,0.3483495,0.3662631,-37.19189,-39.44952,9.509583
16.868121147,-15.92188,169.3754,-34.5059,1.238961,0.3573822,0.3618635,-37.19189,-39.44952,9.509583
16.877980232,-15.11437,170.9227,-35.91587,1.220131,0.3641192,0.3861487,-37.19189,-39.44952,9.509583
16.88783884,-15.98399,172.2914,-36.89672,1.211611,0.3621697,0.4054217,-37.19189,-39.44952,9.509583
16.897697449,-17.72324,173.422,-37.38714,1.197566,0.3547611,0.4093929,-37.98047,-39.14847,4.068502
16.907556057,-19.64883,173.4815,-36.6515,1.18581,0.3298881,0.422289,-37.98047,-39.14847,4.068502
16.917414665,-21.69866,173.0055,-35.36414,1.1759,0.3015836,0.4241081,-37.98047,-39.14847,4.068502
16.929738045,-21.94712,172.3509,-32.91202,1.157163,0.2834476,0.4333269,-37.98047,-39.14847,4.068502
16.939596653,-21.38808,171.4582,-31.07293,1.139183,0.2916214,0.4494657,-37.98047,-39.14847,4.068502
16.949456215,-21.885,170.149,-29.90817,1.124646,0.2993425,0.46651,-36.89639,-39.60529,-1.374696
16.959314823,-23.06521,168.8398,-28.55951,1.106903,0.3007488,0.4940892,-36.89639,-39.60529,-1.374696
16.969173431,-25.23926,168.0662,-27.08824,1.079498,0.3030794,0.5313978,-36.89639,-39.60529,-1.374696
16.97903204,-29.2768,168.0662,-25.73957,1.050186,0.3127303,0.5788585,-36.89639,-39.60529,-1.374696
16.988890171,-36.10955,169.5539,-24.3909,1.036148,0.3139767,0.5551092,-36.89639,-39.60529,-1.374696
16.998748779,-41.26517,170.9227,-23.04224,1.008834,0.298622,0.5477017,-36.19201,-40.06939,-7.648141
17.008607388,-45.24059,171.1012,-22.00009,0.9869804,0.2709967,0.4993809,-36.19201,-40.06939,-7.648141
17.018465996,-45.55117,169.1374,-21.20315,0.9455125,0.2579668,0.4965076,-36.19201,-40.06939,-7.648141
17.028325558,-46.11021,165.7454,-20.34491,0.9205438,0.2619989,0.4628743,-36.19201,-40.06939,-7.648141
17.038184166,-44.99212,160.5086,-19.18015,0.8981861,0.2736936,0.5198372,-36.19201,-40.06939,-7.648141
17.048042774,-48.90543,156.2834,-17.52497,0.8893711,0.2927889,0.5718775,-33.24572,-40.56027,-13.99719
17.057901382,-56.85626,156.1049,-16.1763,0.8716478,0.3106652,0.5794689,-33.24572,-40.56027,-13.99719
17.067759991,-60.7074499999999,155.9264,-14.1533,0.842308,0.2633209,0.6106355,-33.24572,-40.56027,-13.99719
17.077618599,-60.76957,155.9264,-13.17246,0.82461,0.1950587,0.616062,-33.24572,-40.56027,-13.99719
17.087477207,-56.04876,155.9264,-12.0077,0.7876816,0.156719,0.6009304,-33.24572,-40.56027,-13.99719
17.099800587,-47.91157,154.6172,-10.22991,0.7263168,0.1556275,0.5845446,-30.74302,-39.57263,-20.29506
17.109659672,-39.52592,151.7608,-9.739489,0.6855661,0.1552257,0.5736213,-30.74302,-39.57263,-20.29506
17.11951828,-30.76758,147.1786,-10.59773,0.6429133,0.1518927,0.5641378,-30.74302,-39.57263,-20.29506
17.129376888,-22.87886,141.8823,-10.96555,0.5936109,0.1625793,0.5457628,-30.74302,-39.57263,-20.29506
17.139235497,-15.98399,136.1099,-11.57858,0.5435959,0.1679625,0.5422083,-30.74302,-39.57263,-20.29506
17.149094105,-9.896631,129.802,-11.82379,0.4796411,0.1790139,0.5259618,-26.68115,-37.8551,-25.77633
17.158952713,-4.119852,122.8394,-12.43682,0.4162048,0.1755665,0.5349832,-26.68115,-37.8551,-25.77633
17.168811321,0.725189899999998,116.0554,-13.17246,0.3942117,0.1817243,0.5420574,-26.68115,-37.8551,-25.77633
17.178670406,2.650783,111.4732,-13.78549,0.3755664,0.1843378,0.5044884,-26.68115,-37.8551,-25.77633
17.188529015,7.930636,107.2481,-14.092,0.3210956,0.1711143,0.4807141,-26.68115,-37.8551,-25.77633
17.198387623,14.63916,100.7616,-15.56327,0.2700325,0.1515694,0.4501289,-22.22037,-36.8372,-28.30736
17.208246231,19.73266,94.0371,-17.21845,0.2442531,0.1370881,0.4125174,-22.22037,-36.8372,-28.30736
17.218104839,23.77019,87.6696500000002,-18.07669,0.2191099,0.1382763,0.3994682,-22.22037,-36.8372,-28.30736
17.227963448,28.55312,80.8856299999999,-18.32191,0.1970679,0.111709,0.3741606,-22.22037,-36.8372,-28.30736
17.237822056,32.96335,73.3279999999999,-18.138,0.1652162,0.1055531,0.3649786,-22.22037,-36.8372,-28.30736
17.247680664,35.8828,64.4016599999999,-17.46367,0.1461857,0.1428561,0.3655646,-17.42937,-37.64671,-29.60489
17.257540226,33.39816,56.01089,-16.48282,0.1213274,0.1771898,0.3666879,-17.42937,-37.64671,-29.60489
17.269863129,26.19271,45.06125,-14.88894,0.08589574,0.1715826,0.3824799,-17.42937,-37.64671,-29.60489
17.279721737,19.54631,36.78951,-12.80464,0.08615585,0.1496866,0.3822914,-17.42937,-37.64671,-29.60489
17.289580345,14.32858,29.11286,-10.10731,0.0773327,0.1496035,0.3809789,-17.42937,-37.64671,-29.60489
17.299438953,9.98046100000001,19.65094,-7.83909500000001,0.04959117,0.140609,0.3836944,-15.18498,-38.04075,-29.61271
17.309297562,4.514261,8.58227499999998,-5.69349,0.02557727,0.1384314,0.378747,-15.18498,-38.04075,-29.61271
17.31915617,-1.573099,-3.260003,-2.689644,0.009357786,0.1416843,0.3761304,-15.18498,-38.04075,-29.61271
17.329015732,-5.921213,-15.51884,0.1915974,0.02665805,0.1337222,0.4179862,-15.18498,-38.04075,-29.61271
17.33887434,-11.94646,-24.62371,3.011535,0.07824528,0.124476,0.4257985,-15.18498,-38.04075,-29.61271
17.348732948,-13.93417,-32.41938,5.402352,0.1047385,0.1194966,0.4627565,-13.67806,-39.15088,-28.77694
17.358591557,-13.37512,-40.27456,6.68971499999997,0.1010732,0.1195327,0.4810186,-13.67806,-39.15088,-28.77694
17.368450165,-13.80993,-47.1776,7.67056300000001,0.1181378,0.1230857,0.479847,-13.67806,-39.15088,-28.77694
17.378308773,-13.99628,-53.30702,8.65141099999999,0.1428475,0.1155621,0.4914113,-13.67806,-39.15088,-28.77694
17.388167381,-11.51165,-59.13889,9.50965299999998,0.1510915,0.0952448,0.5040607,-13.67806,-39.15088,-28.77694
17.39802599,-7.78468999999998,-64.9112599999998,9.632258,0.1552567,0.08998071,0.5178537,-14.0638,-38.0537,-29.6185
17.407885075,-2.504838,-71.4572399999998,10.18399,0.1592668,0.120313,0.5515965,-14.0638,-38.0537,-29.6185
17.417743683,0.725189899999998,-78.0627400000001,10.61311,0.1869632,0.1650703,0.612917,-14.0638,-38.0537,-29.6185
17.427602291,-1.014056,-82.9424699999999,10.73571,0.2361634,0.1948774,0.6594289,-14.0638,-38.0537,-29.6185
17.437460899,-4.057736,-85.9179200000002,11.16483,0.2634895,0.1971886,0.6921237,-14.0638,-38.0537,-29.6185
17.449784279,-2.504838,-89.7860000000001,10.79702,0.2713664,0.1583492,0.6974341,-15.91646,-38.74525,-27.93694
17.459642887,3.706754,-94.4276899999997,10.06138,0.2811119,0.1515897,0.6886125,-15.91646,-38.74525,-27.93694
17.469501495,9.98046100000001,-100.5571,8.77401600000001,0.3001142,0.1600369,0.6903298,-15.91646,-38.74525,-27.93694
17.479360104,14.76339,-106.389,7.67056300000001,0.3489322,0.1736235,0.6945407,-15.91646,-38.74525,-27.93694
17.489219189,19.23573,-110.3166,7.67056300000001,0.4087937,0.1860562,0.7541716,-15.91646,-38.74525,-27.93694
17.499077797,19.60843,-110.019,8.09968399999998,0.4784597,0.213093,0.792222,-18.52612,-38.70256,-27.02723
17.508936405,19.60843,-106.9841,8.467502,0.4975597,0.2259621,0.8049967,-18.52612,-38.70256,-27.02723
17.518795014,21.78248,-104.1276,8.03838099999998,0.4736616,0.2222176,0.7712826,-18.52612,-38.70256,-27.02723
17.528653622,28.80158,-105.2583,6.751019,0.4418165,0.2154402,0.7261553,-18.52612,-38.70256,-27.02723
17.53851223,36.37973,-110.019,4.911928,0.4627297,0.2270388,0.6555128,-18.52612,-38.70256,-27.02723
17.548370838,45.01384,-117.3386,4.176292,0.523954,0.2647072,0.6937733,-22.1764,-39.35632,-24.12007
17.5582304,47.80906,-122.6944,4.666717,0.6255629,0.3016966,0.7151597,-22.1764,-39.35632,-24.12007
17.568089008,42.5292,-123.468,6.01538200000003,0.6603511,0.3440076,0.756232,-22.1764,-39.35632,-24.12007
17.577947616,37.93262,-121.5043,8.03838099999998,0.6596858,0.3188356,0.7929274,-22.1764,-39.35632,-24.12007
17.587806225,37.74628,-120.9687,8.34489499999999,0.6614186,0.2738723,0.7369362,-22.1764,-39.35632,-24.12007
17.597664833,45.69711,-122.992,7.60926000000002,0.6879227,0.2573964,0.6928121,-25.13909,-39.26923,-20.3278
17.607523441,54.45546,-126.622,7.48665400000003,0.746644,0.3112211,0.633488,-25.13909,-39.26923,-20.3278
17.617382049,56.07047,-130.1926,7.793169,0.79758,0.3874467,0.5969861,-25.13909,-39.26923,-20.3278
17.629705906,51.03908,-133.9416,9.01922900000002,0.8390031,0.4053462,0.6008596,-25.13909,-39.26923,-20.3278
17.639564514,44.01999,-134.1201,10.12268,0.8325043,0.3808388,0.5691183,-28.08174,-41.74758,-15.67696
17.649423122,39.67187,-133.5846,11.04223,0.8214734,0.3518614,0.5239862,-28.08174,-41.74758,-15.67696
17.659281731,40.1688,-132.8705,11.34874,0.7968534,0.319376,0.4838102,-28.08174,-41.74758,-15.67696
17.669140339,44.70326,-133.5251,10.98092,0.7925901,0.3335353,0.5065128,-28.08174,-41.74758,-15.67696
17.678998947,28.92582,-134.4177,13.18783,0.8165964,0.3554578,0.4565189,-28.08174,-41.74758,-15.67696
17.688857555,15.32243,-139.476,20.23768,0.8145216,0.2869723,0.4952649,-28.08174,-41.74758,-15.67696
17.698716164,5.259652,-141.7968,27.71664,0.9902248,0.1450657,0.5188774,-30.28898,-42.02568,-11.05261
17.708575249,7.43370899999999,-131.9183,31.51743,1.133868,-0.08120289,0.7003708,-30.28898,-42.02568,-11.05261
17.718433857,15.1982,-123.7061,36.42167,1.059109,-0.06472288,0.4706012,-30.28898,-42.02568,-11.05261
17.728292465,36.69031,-121.5638,33.84694,0.9807039,0.07510237,0.4407924,-30.28898,-42.02568,-11.05261
17.738151073,51.90871,-117.9932,31.76264,0.9738796,0.2450342,0.4844933,-30.28898,-42.02568,-11.05261
17.748009682,55.20085,-115.5534,28.32967,0.9585969,0.4225284,0.4886051,-32.11806,-41.92749,-5.537759
17.75786829,47.9954,-116.2675,24.95801,0.9581645,0.4808572,0.4723315,-32.11806,-41.92749,-5.537759
17.767726898,38.86436,-118.0527,23.30283,1.005177,0.4571464,0.5265692,-32.11806,-41.92749,-5.537759
17.777585983,30.47871,-119.1239,23.05762,1.057171,0.3900525,0.549222,-32.11806,-41.92749,-5.537759
17.787444591,26.37906,-117.3981,24.09977,1.08293,0.4078104,0.552359,-32.11806,-41.92749,-5.537759
17.799767971,23.21115,-114.3037,25.26452,1.08356,0.4744716,0.5495583,-34.26823,-41.8444,-1.365594
17.809626579,17.5586,-111.2687,25.20322,1.073696,0.5054733,0.5351053,-34.26823,-41.8444,-1.365594
17.819485187,11.65759,-108.9479,25.32583,1.062809,0.5115542,0.4955383,-34.26823,-41.8444,-1.365594
17.829343796,5.570231,-108.2338,25.26452,1.060141,0.4885224,0.4589628,-34.26823,-41.8444,-1.365594
17.839202404,0.5388422,-108.2338,25.08061,1.063029,0.4314125,0.4052485,-34.60561,-41.7697,3.693429
17.849061489,-0.641360199999998,-108.0552,25.93886,1.058154,0.3722985,0.3545032,-34.60561,-41.7697,3.693429
17.858920097,2.029624,-108.6503,26.98101,1.032956,0.3368541,0.3052056,-34.60561,-41.7697,3.693429
17.868778706,5.383883,-110.019,27.71664,0.994897,0.3398266,0.2794172,-34.60561,-41.7697,3.693429
17.878637314,7.30947700000003,-111.8638,28.26837,0.9880413,0.3464639,0.2489021,-34.60561,-41.7697,3.693429
17.888495922,7.49582399999998,-113.3515,29.12661,0.9856902,0.3609809,0.2327654,-34.60561,-41.7697,3.693429
17.89835453,5.694463,-114.4227,29.98485,0.9951558,0.3541416,0.2033416,-35.33237,-41.72097,6.577914
17.908213139,3.582522,-115.3153,30.9044,1.005766,0.3366174,0.1766865,-35.33237,-41.72097,6.577914
17.918071747,2.09174,-115.7914,31.82394,1.013951,0.3288422,0.1602114,-35.33237,-41.72097,6.577914
17.927931309,0.2903785,-115.7319,32.31437,1.013239,0.3229154,0.1386076,-35.33237,-41.72097,6.577914
17.937789917,-2.194258,-115.1368,32.19176,1.014641,0.31461,0.1265375,-35.33237,-41.72097,6.577914
17.947648525,-5.85909699999999,-114.4822,31.51743,1.018172,0.2946533,0.1167348,-36.05946,-40.92882,9.966968
17.957507133,-8.09526999999998,-113.411,31.02701,1.025424,0.2523534,0.1090865,-36.05946,-40.92882,9.966968
17.967365742,-6.91506799999999,-111.9828,30.04616,1.025593,0.2216433,0.09444889,-36.05946,-40.92882,9.966968
17.979688644,-2.442722,-110.019,28.51358,1.046237,0.2033007,0.08537427,-36.05946,-40.92882,9.966968
17.989547253,0.725189899999998,-107.8767,27.04231,1.060851,0.199019,0.07698346,-35.66628,-40.15141,13.2222
17.999406815,3.706754,-105.3773,25.50974,1.079282,0.1957209,0.06231696,-35.66628,-40.15141,13.2222
18.009265423,8.05486800000002,-102.2829,24.28368,1.096287,0.1982803,0.05586661,-35.66628,-40.15141,13.2222
18.019124031,12.34087,-99.4264500000002,22.93501,1.100482,0.204119,0.04579289,-35.66628,-40.15141,13.2222
18.028982639,14.51492,-96.5700100000001,22.07677,1.105682,0.1967915,0.02600977,-35.66628,-40.15141,13.2222
18.038841248,16.50263,-94.13015,21.09592,1.114761,0.202183,0.01490427,-35.64712,-39.74228,16.16306
18.048699856,18.30399,-91.3927399999998,19.56334,1.115625,0.2129,0.0159408,-35.64712,-39.74228,16.16306
18.058558464,20.6644,-88.3577800000003,18.27598,1.126904,0.2198427,0.02398504,-35.64712,-39.74228,16.16306
18.068417549,23.83231,-85.7988999999998,16.6821,1.123907,0.2432339,0.04003874,-35.64712,-39.74228,16.16306
18.078276157,24.82616,-83.2995200000002,14.72041,1.122011,0.2529983,0.05308656,-35.64712,-39.74228,16.16306
18.088134766,24.45347,-79.9670200000002,12.39089,1.117139,0.2441728,0.04685191,-35.25745,-39.34369,18.6539
18.097993374,25.26097,-76.45599,10.67441,1.116735,0.2485867,0.05695812,-35.25745,-39.34369,18.6539
18.107851982,26.68964,-72.4688899999998,9.57095500000001,1.114285,0.2500286,0.05796361,-35.25745,-39.34369,18.6539
18.11771059,27.3108,-68.8388500000001,8.77401600000001,1.104437,0.2577352,0.0600858,-35.25745,-39.34369,18.6539
18.127569199,27.24869,-65.1492900000002,8.16098699999997,1.099956,0.2698795,0.06504416,-35.25745,-39.34369,18.6539
18.137427807,26.44118,-60.8646500000002,8.03838099999998,1.088988,0.2916956,0.06921819,-35.25745,-39.34369,18.6539
18.149751663,21.96883,-55.62786,8.16098699999997,1.070372,0.3012878,0.07579406,-34.48882,-39.31134,21.59467
18.159610271,17.49649,-51.1647,7.97707799999999,1.064481,0.2958596,0.0696026,-34.48882,-39.31134,21.59467
18.16946888,14.70127,-46.70153,7.793169,1.062209,0.2812408,0.06951161,-34.48882,-39.31134,21.59467
18.179327488,12.34087,-41.70277,7.18013899999999,1.058491,0.2636858,0.06845805,-34.48882,-39.31134,21.59467
18.189186096,11.96817,-36.82304,7.118836,1.063023,0.2417914,0.0586247,-33.73141,-38.92867,23.2514
18.199044704,12.34087,-31.8838,6.68971499999997,1.057623,0.24125,0.0567803,-33.73141,-38.92867,23.2514
18.208904266,12.0924,-27.12309,6.3832,1.044239,0.2523121,0.05371001,-33.73141,-38.92867,23.2514
18.218762875,11.53336,-22.42188,6.01538200000003,1.037622,0.2619468,0.04334324,-33.73141,-38.92867,23.2514
18.228621483,9.794114,-17.72067,5.89277599999998,1.02763,0.2735182,0.03831211,-33.73141,-38.92867,23.2514
18.238480091,7.49582399999998,-12.95996,5.708868,1.023974,0.2748865,0.02256218,-34.09795,-38.53838,24.52983
18.248338699,5.94292600000003,-7.96120899999999,5.218443,1.028782,0.2670942,0.009489516,-34.09795,-38.53838,24.52983
18.258197308,5.632347,-3.200494,4.482807,1.029584,0.2670527,-0.003460656,-34.09795,-38.53838,24.52983
18.268055916,5.321767,1.381694,3.31805,1.029021,0.2611686,-0.01404468,-34.09795,-38.53838,24.52983
18.277914524,4.203681,5.487811,2.214596,1.027113,0.2587241,-0.01260052,-34.09795,-38.53838,24.52983
18.287773609,3.085595,9.41540100000002,1.47896,1.025044,0.2528159,-0.02603847,-34.08996,-38.89495,25.36578
18.297632217,3.209827,13.70004,0.4368094,1.017182,0.2498071,-0.031223,-34.08996,-38.89495,25.36578
18.307490826,2.961363,17.74665,-0.850553500000001,1.011804,0.242437,-0.03743814,-34.08996,-38.89495,25.36578
18.319814205,2.215972,21.85277,-2.137917,1.002527,0.240407,-0.03780226,-34.08996,-38.89495,25.36578
18.329672813,0.973653600000002,25.18527,-3.302674,1.005494,0.2355596,-0.03980225,-34.08996,-38.89495,25.36578
18.339531422,-0.2065488,28.93433,-4.528733,1.007971,0.2219198,-0.04953665,-33.72945,-38.18079,24.07603
18.34939003,-0.641360199999998,32.32634,-5.386975,1.004347,0.2315971,-0.05563293,-33.72945,-38.18079,24.07603
18.359249115,-1.076172,35.4208,-6.30652000000001,1.003223,0.2295939,-0.06809299,-33.72945,-38.18079,24.07603
18.369107723,-2.566953,38.0392,-7.10345900000001,0.9968066,0.2300097,-0.07183164,-33.72945,-38.18079,24.07603
18.378966332,-3.747156,40.24103,-7.90039899999997,1.001476,0.2343837,-0.08432046,-33.72945,-38.18079,24.07603
18.38882494,-5.300054,42.14531,-8.51342899999998,1.003,0.2241599,-0.08922045,-33.73421,-37.81799,23.68818
18.398683548,-6.666604,43.93058,-9.18776100000002,1.005839,0.2173235,-0.102257,-33.73421,-37.81799,23.68818
18.408542156,-8.03315400000002,45.06125,-9.86209499999999,0.9990631,0.2124012,-0.1012436,-33.73421,-37.81799,23.68818
18.418400765,-9.399704,46.48947,-10.41382,0.9951044,0.1991715,-0.116154,-33.73421,-37.81799,23.68818
18.42825985,-8.40584900000001,47.73915,-10.84294,0.9982262,0.1850922,-0.1148797,-33.73421,-37.81799,23.68818
18.438118458,-6.41814000000001,48.57228,-10.90425,0.9963268,0.1753266,-0.1192478,-34.11393,-37.82526,22.85793
18.447977066,-5.05159,49.22688,-10.84294,0.9883596,0.1805879,-0.1248403,-34.11393,-37.82526,22.85793
18.457835674,-4.3062,49.28638,-11.39467,0.9731161,0.17799,-0.1327913,-34.11393,-37.82526,22.85793
18.467694283,-4.244083,49.28638,-11.51728,0.9634029,0.1671824,-0.1370569,-34.11393,-37.82526,22.85793
18.477552891,-3.560808,49.52442,-11.45597,0.9662325,0.1666901,-0.1452478,-34.11393,-37.82526,22.85793
18.487411499,-1.510983,49.64344,-11.14946,0.9663684,0.1574526,-0.1434109,-35.2423,-38.19827,21.58722
18.499735832,0.2282626,49.22688,-10.84294,0.9586131,0.1564272,-0.1389962,-35.2423,-38.19827,21.58722
18.509594441,1.03577,48.39375,-10.47512,0.9495103,0.1738406,-0.1454283,-35.2423,-38.19827,21.58722
18.519453049,1.03577,47.62014,-10.35252,0.9417949,0.1777089,-0.1337849,-35.2423,-38.19827,21.58722
18.529311657,0.3524944,46.66799,-10.29121,0.940345,0.1850244,-0.1260353,-35.2423,-38.19827,21.58722
18.539170265,-1.138287,45.53732,-9.98470000000001,0.9267741,0.1805451,-0.1206085,-35.25151,-38.21609,20.30695
18.549028873,-2.442722,44.58518,-10.10731,0.9326451,0.1644858,-0.1347245,-35.25151,-38.21609,20.30695
18.558887482,-0.3307806,43.93058,-9.92339700000002,0.9323288,0.1493957,-0.1353265,-35.25151,-38.21609,20.30695
18.568746567,2.40232,43.03795,-9.61688199999998,0.936685,0.1494215,-0.1387428,-35.25151,-38.21609,20.30695
18.578605175,4.079449,41.3717,-9.37167100000003,0.9318506,0.161112,-0.1241992,-35.25151,-38.21609,20.30695
18.588463783,4.327913,39.46741,-9.003853,0.9298546,0.1693833,-0.1197882,-35.26025,-38.23302,19.09068
18.598322391,3.520406,37.68214,-8.32951900000003,0.9313422,0.1742843,-0.1140176,-35.26025,-38.23302,19.09068
18.608181,1.967508,35.83737,-7.77779200000001,0.9338751,0.1718896,-0.1097612,-35.26025,-38.23302,19.09068
18.618039608,0.973653600000002,33.99259,-7.226065,0.9379094,0.1704941,-0.1021632,-35.26025,-38.23302,19.09068
18.627898216,1.843277,32.56438,-6.67433799999998,0.9439549,0.1622961,-0.09656819,-35.26025,-38.23302,19.09068
18.637757301,2.712899,30.95763,-6.18391400000002,0.9389274,0.1753963,-0.09494839,-36.01093,-38.23062,18.64645
18.647615909,1.843277,29.29138,-5.69349,0.9409512,0.1856855,-0.08099361,-36.01093,-38.23062,18.64645
18.657474518,-0.0823169599999999,27.32759,-5.141763,0.9409015,0.1959241,-0.0756353,-36.01093,-38.23062,18.64645
18.669797897,-3.001765,25.18527,-4.406127,0.9512028,0.1989525,-0.07096457,-36.01093,-38.23062,18.64645
18.679656506,-3.871388,23.81656,-3.670491,0.958474,0.1989985,-0.07585981,-36.01093,-38.23062,18.64645
18.689515114,-3.99562,21.91228,-3.057462,0.9619694,0.2034431,-0.06676733,-36.76512,-38.60706,17.43782
18.699373722,-4.927359,19.88897,-2.444432,0.9588541,0.2087362,-0.07530384,-36.76512,-38.60706,17.43782
18.709232807,-6.48025699999999,17.33009,-1.892705,0.9540023,0.2130984,-0.06848909,-36.76512,-38.60706,17.43782
18.719091415,-8.84066099999998,14.83071,-1.218372,0.9446871,0.2110573,-0.07172795,-36.76512,-38.60706,17.43782
18.728950024,-11.76011,12.0933,-0.3601296,0.9369563,0.2046685,-0.07023409,-36.76512,-38.60706,17.43782
18.738808632,-13.80993,9.83196299999999,0.8659304,0.943252,0.1853127,-0.05611118,-35.64515,-38.9944,16.9877
18.74866724,-13.25089,8.04669499999999,2.030687,0.9463599,0.1707412,-0.05627845,-35.64515,-38.9944,16.9877
18.758525848,-10.9526,6.32093599999998,3.011535,0.9436669,0.1624844,-0.04576736,-35.64515,-38.9944,16.9877
18.768384457,-9.21335600000002,4.297632,3.992383,0.9396769,0.1717042,-0.04323669,-35.64515,-38.9944,16.9877
18.778244019,-8.90277699999999,2.036292,4.666717,0.9321924,0.185756,-0.04157383,-35.64515,-38.9944,16.9877
18.788102627,-9.399704,0.01298836,5.15714,0.9283087,0.1876827,-0.03766862,-36.02164,-38.99543,16.60555
18.797961235,-9.64816799999999,-2.248351,5.279747,0.9275915,0.1794487,-0.0257479,-36.02164,-38.99543,16.60555
18.807819843,-8.84066099999998,-3.914601,5.77016999999999,0.9285393,0.1721252,-0.03444881,-36.02164,-38.99543,16.60555
18.817678451,-7.59834299999997,-5.461833,6.3832,0.93549,0.1761208,-0.02349257,-36.02164,-38.99543,16.60555
18.82753706,-7.03929899999998,-6.89004799999999,6.32189799999997,0.9381264,0.1732674,-0.01205343,-36.02164,-38.99543,16.60555
18.837395668,-5.921213,-8.199244,6.81232100000002,0.9426757,0.1674895,-0.006416643,-36.03009,-38.63975,15.70559
18.849719524,-4.244083,-9.44893200000001,7.18013899999999,0.9494839,0.1719327,-0.00551778,-36.03009,-38.63975,15.70559
18.859578133,-3.436576,-10.22255,7.48665400000003,0.9600944,0.1851668,-0.005078118,-36.03009,-38.63975,15.70559
18.869436741,-3.001765,-10.81764,7.854472,0.9655344,0.1862078,0.0001243278,-36.03009,-38.63975,15.70559
18.879295349,-3.063881,-11.2342,7.91577499999999,0.9713804,0.1882057,5.786959e-05,-36.03009,-38.63975,15.70559
18.889153957,-1.821563,-11.47224,8.09968399999998,0.9743735,0.1838542,0.0004576854,-36.4006,-38.6292,16.15561
18.899012566,-1.262519,-11.82929,8.34489499999999,0.9895144,0.1873993,0.001709407,-36.4006,-38.6292,16.15561
18.908871174,-1.200403,-11.8888,8.40619900000001,0.9953682,0.190376,0.003088696,-36.4006,-38.6292,16.15561
18.918730259,-0.579244300000001,-11.94831,8.40619900000001,1.007544,0.1909571,-0.0004343335,-36.4006,-38.6292,16.15561
18.928588867,0.849421699999999,-11.82929,8.40619900000001,1.013463,0.1895584,0.0018655,-36.4006,-38.6292,16.15561
18.938447475,1.905392,-12.18634,8.467502,1.015096,0.1827833,0.008014642,-36.77755,-38.63112,15.70945
18.948306084,2.775015,-12.12683,8.40619900000001,1.017955,0.1886462,0.007544179,-36.77755,-38.63112,15.70945
18.958164692,3.582522,-12.18634,8.528805,1.014477,0.195924,0.01005116,-36.77755,-38.63112,15.70945
18.9680233,4.079449,-12.18634,8.590108,1.006753,0.1900255,0.01250746,-36.77755,-38.63112,15.70945
18.977881908,4.514261,-12.12683,8.34489499999999,1.00678,0.1949154,0.01877794,-36.77755,-38.63112,15.70945
18.98774147,4.638493,-12.06733,8.16098699999997,0.9973493,0.1982118,0.01175218,-36.77834,-37.88859,16.15001
18.997600079,4.700608,-11.71027,8.22229000000003,0.9934366,0.1981774,0.01180765,-36.77834,-37.88859,16.15001
19.007458687,4.203681,-11.41273,8.22229000000003,0.9787424,0.2053655,0.01686974,-36.77834,-37.88859,16.15001
19.01978159,3.085595,-11.2342,7.854472,0.9725251,0.195097,0.01830929,-36.77834,-37.88859,16.15001
19.029640198,2.588667,-11.05567,7.793169,0.9637344,0.1950232,0.01939236,-36.77834,-37.88859,16.15001
19.039498806,2.340204,-11.11518,7.67056300000001,0.9579955,0.1906146,0.02518734,-37.14684,-38.24618,16.6038
19.049357414,2.340204,-11.2342,7.793169,0.9565579,0.1886573,0.02567051,-37.14684,-38.24618,16.6038
19.059216976,1.656929,-11.05567,7.42535099999997,0.9525455,0.2003119,0.02870125,-37.14684,-38.24618,16.6038
19.069075584,0.911537699999999,-10.93666,7.48665400000003,0.9573323,0.2003252,0.02096595,-37.14684,-38.24618,16.6038
19.078934193,0.2282626,-10.81764,7.36404799999998,0.9597726,0.2013217,0.02141877,-37.14684,-38.24618,16.6038
19.088792801,-0.889823900000002,-10.87715,7.42535099999997,0.9680293,0.2018666,0.0174721,-37.52183,-37.50023,16.98228
19.098651409,-1.635215,-10.81764,7.48665400000003,0.9726162,0.195123,0.025017,-37.52183,-37.50023,16.98228
19.108510017,-2.31849,-10.81764,7.793169,0.9770433,0.1902867,0.0225171,-37.52183,-37.50023,16.98228
19.118368626,-2.070026,-10.81764,7.73186600000001,0.9755788,0.1834394,0.01672979,-37.52183,-37.50023,16.98228
19.128227711,-1.821563,-10.69862,7.793169,0.9759385,0.188289,0.0114944,-37.52183,-37.50023,16.98228
19.138086319,-1.510983,-10.5796,7.793169,0.9872172,0.1908376,0.01566795,-37.5166,-37.86214,17.43414
19.147944927,-1.324635,-10.34157,8.03838099999998,0.9905309,0.1913246,0.007957639,-37.5166,-37.86214,17.43414
19.157803535,-1.138287,-10.10353,8.03838099999998,0.9916868,0.1796665,0.01071797,-37.5166,-37.86214,17.43414
19.167662144,-0.827707900000002,-9.92500399999998,8.467502,0.9930406,0.1864822,0.008360204,-37.5166,-37.86214,17.43414
19.177520752,-0.765591999999998,-9.38942300000003,8.65141099999999,0.9978716,0.1899258,0.006882812,-37.5166,-37.86214,17.43414
19.187379837,-1.821563,-8.55629800000001,8.83531999999998,0.9954587,0.1899135,0.009313095,-37.51062,-37.85056,18.26632
19.199703217,-2.566953,-7.84219100000002,9.50965299999998,0.9890556,0.1859389,0.002662021,-37.51062,-37.85056,18.26632
19.209561825,-2.691185,-7.18759300000001,9.50965299999998,0.9897326,0.1767205,0.008324968,-37.51062,-37.85056,18.26632
19.219420433,-2.815417,-6.41397600000001,9.632258,0.9891711,0.1762074,0.002578245,-37.51062,-37.85056,18.26632
19.229279041,-2.815417,-5.521342,9.75486500000002,0.9823231,0.1712646,-0.001678662,-37.51062,-37.85056,18.26632
19.23913765,-2.504838,-4.747726,9.632258,0.9823925,0.1654257,-0.001728928,-38.25928,-38.2163,17.82586
19.248996258,-1.945794,-3.914601,9.38704699999999,0.9814468,0.1610323,-0.003190126,-38.25928,-38.2163,17.82586
19.258855343,-1.573099,-3.200494,9.20313699999998,0.9869628,0.1606302,0.006311852,-38.25928,-38.2163,17.82586
19.268713951,-1.448867,-2.069824,8.71271399999999,0.9884583,0.1621158,0.009657472,-38.25928,-38.2163,17.82586
19.278572559,-1.324635,-1.236699,8.467502,0.9902925,0.1674687,0.005363712,-38.25928,-38.2163,17.82586
19.288431168,-1.573099,-0.4630831,8.09968399999998,0.9848936,0.1635102,0.000615255,-37.88957,-37.48433,17.81639
19.298289776,-1.759447,0.01298836,7.73186600000001,0.9879136,0.1640486,0.007285549,-37.88957,-37.48433,17.81639
19.308148384,-1.759447,0.846113400000001,7.48665400000003,0.9867857,0.1683913,0.0001502829,-37.88957,-37.48433,17.81639
19.318006992,-1.883678,1.381694,6.93492700000001,0.9863284,0.1679078,0.00206952,-37.88957,-37.48433,17.81639
19.327866554,-2.31849,2.036292,6.50580599999999,0.9882812,0.169877,0.003495903,-37.88957,-37.48433,17.81639
19.337725163,-2.815417,2.452855,6.19929100000001,0.9906211,0.173286,-0.001300671,-39.01156,-36.72885,18.26274
19.347583771,-2.877533,2.928926,5.89277599999998,0.9893423,0.1557507,-0.00286803,-39.01156,-36.72885,18.26274
19.357442379,-2.442722,3.345489,5.586261,0.9863176,0.1649754,-0.00130947,-39.01156,-36.72885,18.26274
19.369765759,-2.070026,4.297632,5.279747,0.9910936,0.1752384,-0.0008117277,-39.01156,-36.72885,18.26274
19.379624367,-2.939649,4.714194,5.095838,0.9841458,0.1819847,-0.002093369,-39.01156,-36.72885,18.26274
19.389482975,-3.933504,5.011739,4.911928,0.9888024,0.1869784,0.02088398,-38.64105,-36.7394,17.81271
19.39934206,-5.05159,5.309284,4.114989,1.005184,0.1744954,0.02725395,-38.64105,-36.7394,17.81271
19.409200668,-4.865242,6.14240899999998,3.195444,1.027713,0.1699551,0.0609177,-38.64105,-36.7394,17.81271
19.419059277,-4.554663,7.39209699999998,1.908081,1.053813,0.1677931,0.07154904,-38.64105,-36.7394,17.81271
19.428917885,-3.933504,9.35589100000001,1.233748,1.067278,0.1801888,0.1011721,-38.64105,-36.7394,17.81271
19.438776493,-4.057736,11.97428,0.4981124,1.082267,0.2092136,0.1496026,-39.39327,-36.36797,17.42872
19.448635101,-8.77854399999999,13.99759,-1.279675,1.071053,0.2105892,0.1536076,-39.39327,-36.36797,17.42872
19.458494187,-12.07069,16.85402,-2.750947,1.059679,0.2314484,0.1630506,-39.39327,-36.36797,17.42872
19.468352795,-14.80379,20.36504,-4.344824,1.053568,0.231463,0.1813473,-39.39327,-36.36797,17.42872
19.478211403,-17.84747,25.24478,-5.570884,1.063173,0.2190751,0.2290258,-39.39327,-36.36797,17.42872
19.488070011,-18.15805,31.3742,-6.429126,1.076348,0.2262882,0.3046125,-39.02553,-36.38387,16.59461
19.49792862,-20.14576,38.93183,-7.90039899999997,1.083601,0.2368519,0.3793533,-39.02553,-36.38387,16.59461
19.507787228,-23.87271,47.56063,-9.49427599999999,1.093888,0.2142706,0.4322073,-39.02553,-36.38387,16.59461
19.517645836,-25.23926,57.9746899999999,-10.16861,1.109094,0.2019932,0.4960997,-39.02553,-36.38387,16.59461
19.527505398,-26.171,69.5194200000002,-10.90425,1.123625,0.1999111,0.5552958,-39.02553,-36.38387,16.59461
19.537364006,-27.16486,81.5402300000002,-11.76249,1.146977,0.2046114,0.5856714,-39.40369,-36.76017,15.70412
19.549686909,-27.3512,97.1315700000001,-13.04985,1.180047,0.2059621,0.608213,-39.40369,-36.76017,15.70412
19.559545517,-26.29523,109.8665,-13.90809,1.213304,0.2145545,0.6149995,-39.40369,-36.76017,15.70412
19.569404125,-24.6181,122.1848,-14.82764,1.277149,0.2166536,0.6347129,-39.40369,-36.76017,15.70412
19.579262733,-22.56828,133.8486,-16.115,1.325227,0.2326057,0.6226615,-39.40369,-36.76017,15.70412
19.589121342,-20.33211,143.6676,-16.60542,1.364735,0.2431762,0.623146,-39.0574,-37.18966,11.60907
19.598980904,-19.21402,153.427,-16.60542,1.397477,0.2688447,0.6430223,-39.0574,-37.18966,11.60907
19.608839512,-20.39422,162.1748,-17.09585,1.406598,0.2801066,0.6401122,-39.0574,-37.18966,11.60907
19.61869812,-20.33211,170.2681,-16.85064,1.422064,0.2799739,0.6978737,-39.0574,-37.18966,11.60907
19.628556728,-21.26385,178.3018,-16.91194,1.452967,0.2716179,0.7323443,-39.0574,-37.18966,11.60907
19.638415337,-22.07135,187.0496,-16.60542,1.465136,0.2596384,0.7531546,-40.21494,-37.24709,6.557777
19.648273945,-21.76077,195.7379,-15.86979,1.461467,0.265532,0.7762582,-40.21494,-37.24709,6.557777
19.65813303,-22.69251,203.4145,-15.93109,1.452135,0.282392,0.7525735,-40.21494,-37.24709,6.557777
19.667991638,-23.06521,211.6863,-15.93109,1.440721,0.3016397,0.7217507,-40.21494,-37.24709,6.557777
19.677850246,-23.50002,217.9942,-16.78933,1.442562,0.3118769,0.72229,-40.21494,-37.24709,6.557777
19.687708855,-24.18329,222.7549,-18.01539,1.446591,0.3196211,0.7016923,-41.00226,-37.68768,0.7401552
19.697567463,-26.5437,226.9801,-19.73188,1.452502,0.3501724,0.6596964,-41.00226,-37.68768,0.7401552
19.707426071,-28.28294,230.1935,-20.46751,1.43236,0.3777996,0.677947,-41.00226,-37.68768,0.7401552
19.719749451,-34.24607,231.3837,-22.42921,1.410381,0.3624793,0.6671094,-41.00226,-37.68768,0.7401552
19.729608536,-39.52592,232.2764,-23.65527,1.37063,0.3376809,0.6363187,-41.00226,-37.68768,0.7401552
19.739467144,-43.50134,233.05,-24.75872,1.308017,0.3213688,0.5867575,-39.94859,-37.08728,-8.107087
19.749325752,-41.82421,232.0978,-25.31045,1.261515,0.2698203,0.5754844,-39.94859,-37.08728,-8.107087
19.75918436,-39.15322,230.134,-26.4139,1.219725,0.2459576,0.5394595,-39.94859,-37.08728,-8.107087
19.769042969,-38.84265,229.0034,-26.78172,1.166144,0.2812698,0.4801421,-39.94859,-37.08728,-8.107087
19.778901577,-36.91705,225.5518,-26.96563,1.108346,0.2753669,0.4698944,-39.94859,-37.08728,-8.107087
19.788760185,-36.54436,221.3862,-27.76257,1.058681,0.2408153,0.4568931,-37.77448,-36.87333,-17.34044
19.798619747,-33.56279,216.209,-27.88517,0.9934847,0.2164129,0.4619292,-37.77448,-36.87333,-17.34044
19.808478355,-32.87952,211.8648,-27.27214,0.9421642,0.2169471,0.4660195,-37.77448,-36.87333,-17.34044
19.818336487,-33.25221,208.4728,-25.92348,0.878065,0.1973342,0.4480788,-37.77448,-36.87333,-17.34044
19.828195095,-32.69317,204.7832,-24.02309,0.8233232,0.1558515,0.4154441,-37.77448,-36.87333,-17.34044
19.838053703,-28.22083,199.7845,-22.3679,0.7529994,0.1210857,0.3941098,-32.29115,-35.93804,-24.93403
19.847912312,-23.12732,192.9409,-21.20315,0.6769525,0.1135155,0.3716491,-32.29115,-35.93804,-24.93403
19.857771873,-19.58672,185.0263,-20.59012,0.6084784,0.1113126,0.3352288,-32.29115,-35.93804,-24.93403
19.867630482,-16.4188,175.9809,-20.03839,0.5283879,0.1119704,0.3104991,-32.29115,-35.93804,-24.93403
19.87748909,-13.18878,165.8049,-19.54797,0.4457201,0.1028046,0.2675136,-32.29115,-35.93804,-24.93403
19.889812469,-8.59219699999999,152.2964,-19.30276,0.3611333,0.08009708,0.2512763,-25.22422,-35.34166,-29.13917
19.899671078,-3.747156,141.3467,-19.54797,0.3169579,0.05720639,0.2205648,-25.22422,-35.34166,-29.13917
19.909529686,3.085595,131.1112,-20.77403,0.2613674,0.01588707,0.2334676,-25.22422,-35.34166,-29.13917
19.919388294,11.09855,120.9947,-21.38706,0.2292293,-0.02816181,0.2417003,-25.22422,-35.34166,-29.13917
19.929247379,19.98112,110.164,-22.3066,0.1990942,-0.04595108,0.2405421,-25.22422,-35.34166,-29.13917
19.939105988,27.6835,98.6788,-21.63227,0.1729164,-0.04269949,0.261069,-19.33603,-33.97839,-32.12947
19.948964596,30.29236,88.5622900000001,-20.46751,0.1494146,-0.008384443,0.2540263,-19.33603,-33.97839,-32.12947
19.958823204,29.54697,79.3979099999999,-18.56712,0.1210353,0.005032798,0.2655656,-19.33603,-33.97839,-32.12947
19.968681812,26.81387,69.93599,-16.66673,0.0807016,0.02170265,0.2643644,-19.33603,-33.97839,-32.12947
19.978540421,22.77634,59.7004500000001,-14.45982,0.04475959,0.04036127,0.2640757,-19.33603,-33.97839,-32.12947
19.988399506,14.45281,50.11951,-11.57858,0.05569082,0.07161614,0.2680173,-14.47476,-35.14519,-32.59137
19.998258114,5.321767,41.90728,-8.57473199999998,0.04555673,0.07595879,0.2820952,-14.47476,-35.14519,-32.59137
20.008116722,-1.759447,33.45701,-6.36782300000001,0.02654639,0.01993349,0.3096869,-14.47476,-35.14519,-32.59137
20.01797533,-4.927359,25.18527,-4.46743,0.009307375,-0.02489814,0.3335142,-14.47476,-35.14519,-32.59137
20.027833939,-4.181968,17.21107,-2.62834,0.006984659,-0.03793161,0.3669812,-14.47476,-35.14519,-32.59137
20.037692547,-3.68504,9.47490899999998,-1.034463,0.0002954141,-0.06222298,0.3932275,-11.10396,-35.91409,-32.15311
20.047551155,-0.703476100000001,2.214819,1.111142,-0.01989988,-0.06572255,0.4160082,-11.10396,-35.91409,-32.15311
20.057410717,0.3524944,-5.223798,3.256747,-0.01617214,-0.00227139,0.4581809,-11.10396,-35.91409,-32.15311
20.06973362,-1.262519,-13.43603,5.402352,-0.02381886,0.04750983,0.5152556,-11.10396,-35.91409,-32.15311
20.079592228,-4.554663,-18.67282,6.87362400000002,-0.00292112,0.05072149,0.5437368,-11.10396,-35.91409,-32.15311
20.089450836,-5.79698099999998,-24.26666,8.03838099999998,-0.000978027,0.03817621,0.5675632,-10.74144,-35.56808,-33.43909
20.099309444,-4.554663,-29.62246,9.20313699999998,0.01525271,0.01699733,0.5911131,-10.74144,-35.56808,-33.43909
20.109168053,-0.3307806,-34.50219,10.4292,0.04017478,0.03394561,0.6397793,-10.74144,-35.56808,-33.43909
20.119027615,3.893102,-40.86965,11.34874,0.04705733,0.07565038,0.7147882,-10.74144,-35.56808,-33.43909
20.128886223,4.700608,-47.29662,11.90047,0.07691689,0.1157368,0.8230001,-10.74144,-35.56808,-33.43909
20.138744831,1.03577,-49.97452,12.20698,0.1617441,0.1562242,0.9083886,-10.73868,-35.56273,-33.05501
20.148603439,-3.933504,-48.18925,12.75871,0.2101444,0.1622856,0.9829843,-10.73868,-35.56273,-33.05501
20.158462048,-5.36217,-44.97577,12.5135,0.2204402,0.1411715,1.037767,-10.73868,-35.56273,-33.05501
20.168320656,-3.622924,-41.58376,11.83917,0.2189815,0.1388551,1.072271,-10.73868,-35.56273,-33.05501
20.178179264,-1.200403,-40.5126,10.98092,0.2000976,0.1616882,1.106756,-10.73868,-35.56273,-33.05501
20.188038349,-1.697331,-40.09604,11.16483,0.2037851,0.1894873,1.114605,-13.72529,-35.52197,-32.59146
20.197896957,-2.877533,-40.5126,11.65526,0.2205217,0.2223755,1.151063,-13.72529,-35.52197,-32.59146
20.207755566,-4.181968,-41.34572,11.59396,0.2277494,0.2201032,1.176818,-13.72529,-35.52197,-32.59146
20.217614174,-3.37446,-41.76228,11.04223,0.2375263,0.2349698,1.225203,-13.72529,-35.52197,-32.59146
20.227472782,-5.36217,-39.73898,10.30659,0.281112,0.2514805,1.242931,-13.72529,-35.52197,-32.59146
20.239796162,-7.10141600000002,-33.13349,9.57095500000001,0.3142403,0.2396658,1.258173,-14.84849,-35.14087,-32.58944
20.249655247,-6.60448799999999,-27.8967,8.65141099999999,0.3092638,0.2215339,1.236047,-14.84849,-35.14087,-32.58944
20.259513855,-3.68504,-23.96911,7.54795700000002,0.2806811,0.2245052,1.187601,-14.84849,-35.14087,-32.58944
20.269372463,-1.386751,-21.35072,6.3832,0.2690872,0.2324725,1.133684,-14.84849,-35.14087,-32.58944
20.279231072,0.04191487,-20.04152,5.341049,0.2434792,0.2144874,1.069685,-16.7119,-35.4812,-32.12791
20.28908968,4.203681,-20.81514,4.605413,0.2232208,0.1936116,1.000793,-16.7119,-35.4812,-32.12791
20.298948288,9.35930300000001,-23.37402,3.93108,0.2252707,0.2032848,0.9802395,-16.7119,-35.4812,-32.12791
20.308806896,10.16681,-24.32617,3.379353,0.2385861,0.2445262,0.9166642,-16.7119,-35.4812,-32.12791
20.318666458,9.98046100000001,-25.45683,2.766323,0.2203365,0.2412586,0.8670601,-16.7119,-35.4812,-32.12791
20.328525066,10.35316,-29.14639,2.030687,0.1986994,0.1975836,0.8205175,-16.7119,-35.4812,-32.12791
20.338383675,12.65145,-34.91875,2.521111,0.2106018,0.1980869,0.7968714,-18.20084,-35.45235,-31.288
20.348242283,8.80025999999999,-38.25126,2.827626,0.2670583,0.2296182,0.7671016,-18.20084,-35.45235,-31.288
20.358100891,3.955218,-39.26291,3.256747,0.2839419,0.225308,0.7457398,-18.20084,-35.45235,-31.288
20.367959499,0.1040308,-40.81014,3.011535,0.2420222,0.1887144,0.6890038,-18.20084,-35.45235,-31.288
20.377818585,0.1040308,-45.39233,2.766323,0.1900697,0.153916,0.6156538,-18.20084,-35.45235,-31.288
20.387677193,2.153856,-53.24751,2.827626,0.1677862,0.1305622,0.5395816,-18.57181,-35.44269,-30.90199
20.397535801,5.259652,-62.8879500000001,3.685868,0.1770663,0.1469697,0.4811255,-18.57181,-35.44269,-30.90199
20.407394409,5.13542,-73.65907,3.93108,0.1988845,0.153809,0.4367858,-18.57181,-35.44269,-30.90199
20.419717789,5.508115,-86.8105499999998,4.421504,0.2293589,0.1331252,0.428989,-18.57181,-35.44269,-30.90199
20.429576397,6.68831799999999,-95.0822900000001,5.034534,0.3032558,0.1037881,0.4765665,-20.06275,-35.0457,-30.06586
20.439435005,4.452145,-97.1650999999999,6.3832,0.3805712,0.1176615,0.4899577,-20.06275,-35.0457,-30.06586
20.44929409,4.203681,-95.43935,7.73186600000001,0.4241408,0.1334615,0.5776427,-20.06275,-35.0457,-30.06586
20.459152699,1.656929,-89.8455000000003,8.65141099999999,0.4505127,0.1424709,0.5821349,-20.06275,-35.0457,-30.06586
20.469011307,1.222117,-85.5013499999998,8.22229000000003,0.4217347,0.1510274,0.5960348,-20.06275,-35.0457,-30.06586
20.478869915,1.905392,-84.4896999999998,8.28359300000002,0.4190004,0.1456882,0.6060919,-23.3508,-35.72604,-28.76097
20.488728523,-0.3307806,-86.2154500000003,7.54795700000002,0.424725,0.1528869,0.5658184,-23.3508,-35.72604,-28.76097
20.498587132,0.04191487,-91.9283100000001,7.793169,0.4357235,0.1333853,0.5300363,-23.3508,-35.72604,-28.76097
20.508446217,3.955218,-102.7589,7.793169,0.4656078,0.07995716,0.4860315,-23.3508,-35.72604,-28.76097
20.518304825,13.76953,-117.1006,7.73186600000001,0.5109865,0.06568028,0.4646586,-23.3508,-35.72604,-28.76097
20.528163433,28.92582,-133.406,8.65141099999999,0.5949774,0.06301769,0.5942606,-25.57001,-36.02731,-25.80098
20.538022041,34.3299,-142.2134,11.83917,0.749801,0.158683,0.6949308,-25.57001,-36.02731,-25.80098
20.54788065,24.51558,-141.2612,16.37559,0.8129871,0.316827,0.8036639,-25.57001,-36.02731,-25.80098
20.557739258,7.86851999999999,-135.6079,18.03077,0.8121552,0.3326186,0.8641882,-25.57001,-36.02731,-25.80098
20.56759882,-2.194258,-129.657,17.41774,0.7700327,0.2413381,0.8879782,-25.57001,-36.02731,-25.80098
20.577457428,-3.99562,-125.3128,15.08823,0.7649479,0.1521647,0.8671716,-25.57001,-36.02731,-25.80098
20.589780331,-3.125997,-118.7668,12.63611,0.7691026,0.1168454,0.7819961,-29.27935,-36.67411,-22.4454
20.599638939,2.712899,-116.565,10.3679,0.7427846,0.07731098,0.6828433,-29.27935,-36.67411,-22.4454
20.609497547,13.95588,-119.4809,8.65141099999999,0.7566918,0.03132854,0.5859379,-29.27935,-36.67411,-22.4454
20.619356155,26.81387,-125.1938,7.97707799999999,0.818711,0.04085401,0.5142128,-29.27935,-36.67411,-22.4454
20.629214764,36.31761,-131.0852,8.528805,0.8890966,0.1323544,0.4823547,-32.98627,-36.57215,-18.20118
20.639074325,41.28688,-135.6079,10.12268,0.9353057,0.2026424,0.5603988,-32.98627,-36.57215,-18.20118
20.648932934,38.05686,-137.0361,11.71656,0.9256687,0.2514202,0.614139,-32.98627,-36.57215,-18.20118
20.658791542,32.52854,-136.7385,12.69741,0.8945661,0.2724656,0.7197046,-32.98627,-36.57215,-18.20118
20.66865015,23.45961,-132.93,12.4522,0.9065083,0.231263,0.7340418,-32.98627,-36.57215,-18.20118
20.678508758,18.05553,-126.9791,11.90047,0.9136457,0.1860009,0.7153485,-35.12846,-36.84563,-13.19306
20.688367367,17.18591,-122.0398,11.16483,0.9211133,0.1556977,0.6622744,-35.12846,-36.84563,-13.19306
20.698226452,20.78863,-119.5405,10.4905,0.9325712,0.1331275,0.5857279,-35.12846,-36.84563,-13.19306
20.70808506,27.55927,-119.2429,10.5518,0.9596577,0.1269353,0.5574961,-35.12846,-36.84563,-13.19306
20.717943668,32.03161,-120.3141,10.61311,0.9838964,0.1518534,0.5271713,-35.12846,-36.84563,-13.19306
20.727802277,32.71489,-120.3736,10.67441,1.002042,0.1751913,0.4791897,-36.58578,-37.49962,-8.504785
20.737660885,33.46028,-120.4331,11.77786,1.016636,0.2006857,0.4954896,-36.58578,-37.49962,-8.504785
20.747519493,34.95106,-120.3141,12.39089,1.030477,0.2039126,0.5446771,-36.58578,-37.49962,-8.504785
20.759843349,33.89509,-118.9454,12.94262,1.03782,0.2210668,0.5600516,-36.58578,-37.49962,-8.504785
20.769701958,31.2241,-116.5055,13.73956,1.049034,0.2460556,0.5792707,-36.58578,-37.49962,-8.504785
20.779560566,26.9381,-113.4706,14.5978,1.049647,0.2543948,0.5956251,-38.4213,-37.41389,-3.886131
20.789419174,22.03095,-110.0785,15.02692,1.047967,0.2430922,0.5701561,-38.4213,-37.41389,-3.886131
20.799277782,19.54631,-106.4485,16.19168,1.04611,0.2396857,0.5744666,-38.4213,-37.41389,-3.886131
20.809136391,16.68898,-102.4019,16.37559,1.057149,0.2343543,0.5541379,-38.4213,-37.41389,-3.886131
20.818994999,14.70127,-97.40314,16.37559,1.057817,0.2230454,0.5214474,-38.4213,-37.41389,-3.886131
20.828854561,15.13608,-92.7614400000001,15.70126,1.037448,0.2198492,0.4958339,-39.88107,-37.70063,0.7343597
20.838713169,16.44052,-88.6553299999998,15.02692,1.02186,0.2132472,0.459102,-39.88107,-37.70063,0.7343597
20.848571777,18.49034,-85.5608600000003,14.16868,1.019306,0.2228242,0.4237585,-39.88107,-37.70063,0.7343597
20.858430386,19.54631,-83.0614899999997,13.43304,1.025403,0.24757,0.3903365,-39.88107,-37.70063,0.7343597
20.868288994,19.73266,-80.7406399999997,12.94262,1.033693,0.2611714,0.3644563,-39.88107,-37.70063,0.7343597
20.878147602,20.22959,-79.0743900000001,12.5135,1.045516,0.2650695,0.3379647,-39.47819,-38.02053,4.513013
20.888006687,20.85075,-78.4197800000001,12.5748,1.044182,0.2752122,0.3208182,-39.47819,-38.02053,4.513013
20.897865295,19.67054,-78.2412600000001,12.4522,1.032045,0.2867125,0.3019203,-39.47819,-38.02053,4.513013
20.907723904,17.06167,-78.4792899999999,12.69741,1.029513,0.2977603,0.269464,-39.47819,-38.02053,4.513013
20.917582512,14.018,-78.4792899999999,13.06523,1.031155,0.3011056,0.2493425,-39.47819,-38.02053,4.513013
20.92744112,10.85008,-78.6578200000002,13.06523,1.026166,0.2922466,0.2344836,-40.20695,-37.60365,7.393727
20.9397645,7.99275200000001,-79.0148800000002,12.63611,1.023521,0.2591037,0.2265744,-40.20695,-37.60365,7.393727
20.949623585,6.75043299999998,-78.4792899999999,12.4522,1.030142,0.2265237,0.2171003,-40.20695,-37.60365,7.393727
20.959482193,7.55793999999999,-76.99157,12.5748,1.038643,0.2076091,0.2139443,-40.20695,-37.60365,7.393727
20.969340801,9.04872300000001,-75.8013899999997,12.5135,1.036332,0.1924907,0.2104953,-40.20695,-37.60365,7.393727
20.979199409,10.78797,-73.7185799999999,12.39089,1.034786,0.1836674,0.1970252,-39.81206,-37.56699,10.33643
20.989058018,13.39684,-71.2787199999999,12.4522,1.041452,0.1846525,0.1844794,-39.81206,-37.56699,10.33643
20.998916626,14.76339,-68.7793400000002,12.14568,1.029835,0.2039777,0.1747448,-39.81206,-37.56699,10.33643
21.008776188,14.45281,-66.5180000000001,11.77786,1.022136,0.2179682,0.1605967,-39.81206,-37.56699,10.33643
21.018634319,12.58933,-64.3756799999998,11.77786,1.012064,0.2236579,0.1444955,-39.81206,-37.56699,10.33643
21.028492928,9.918345,-62.76894,11.53265,1.017218,0.2294996,0.1329705,-40.16508,-37.52258,13.21898
21.038351536,6.129274,-61.5192499999999,11.16483,1.0215,0.2275512,0.1223507,-40.16508,-37.52258,13.21898
21.048210144,3.271943,-59.97202,10.67441,1.022447,0.2158336,0.1097791,-40.16508,-37.52258,13.21898
21.058068752,1.781161,-58.4247900000001,10.12268,1.032906,0.1979132,0.107562,-40.16508,-37.52258,13.21898
21.067927361,1.284233,-56.5205,9.81616800000001,1.035317,0.1964601,0.1036818,-40.16508,-37.52258,13.21898
21.077786922,0.3524944,-55.09229,9.264441,1.039683,0.203324,0.1070319,-39.40444,-37.13366,15.32381
21.087645531,-0.765591999999998,-53.42603,8.34489499999999,1.048667,0.1892944,0.1077438,-39.40444,-37.13366,15.32381
21.097504139,-1.324635,-51.1647,7.73186600000001,1.06101,0.1796704,0.1074867,-39.40444,-37.13366,15.32381
21.107362747,-1.697331,-49.2009,7.057533,1.059065,0.1781916,0.1070227,-39.40444,-37.13366,15.32381
21.119686127,-1.821563,-46.34447,6.01538200000003,1.058743,0.1684706,0.1107789,-39.40444,-37.13366,15.32381
21.129544735,-1.821563,-43.96412,5.279747,1.059763,0.161656,0.1078316,-38.64979,-36.75633,16.59645
21.13940382,-0.3928965,-41.28621,4.605413,1.064718,0.148047,0.1004581,-38.64979,-36.75633,16.59645
21.149262428,1.781161,-38.5488,3.808474,1.065741,0.1431861,0.09944414,-38.64979,-36.75633,16.59645
21.159121037,3.396174,-36.34697,3.379353,1.061629,0.1489535,0.08996744,-38.64979,-36.75633,16.59645
21.168979645,4.576376,-33.96661,3.379353,1.056221,0.1518274,0.09054797,-38.64979,-36.75633,16.59645
21.178838253,4.886956,-31.28871,3.440656,1.047157,0.1604638,0.07924926,-38.64105,-36.7394,17.81271
21.188696861,4.638493,-29.08688,3.563262,1.040188,0.1701333,0.07895099,-38.64105,-36.7394,17.81271
21.198555946,3.76887,-26.64701,3.869777,1.035771,0.1691139,0.07708853,-38.64105,-36.7394,17.81271
21.208414555,2.712899,-23.96911,4.237596,1.028339,0.1704868,0.07145565,-38.64105,-36.7394,17.81271
21.218273163,1.160001,-21.58875,4.666717,1.026386,0.1680293,0.06954594,-38.64105,-36.7394,17.81271
21.228131771,0.2282626,-18.91085,4.973231,1.025023,0.159258,0.06949135,-38.26134,-36.73214,18.64296
21.237990379,-0.2686647,-16.53049,5.15714,1.017803,0.1460446,0.06660753,-38.26134,-36.73214,18.64296
21.247848988,-0.3307806,-14.15014,5.218443,1.014395,0.1343014,0.05745222,-38.26134,-36.73214,18.64296
21.25770855,0.4146104,-11.53174,5.218443,1.015391,0.1289446,0.05403842,-38.26134,-36.73214,18.64296
21.267567158,1.346349,-8.67531599999998,5.218443,1.013897,0.1284358,0.05165942,-38.26134,-36.73214,18.64296
21.277425766,1.781161,-5.81888699999998,5.341049,1.011891,0.1303575,0.04978743,-37.88238,-37.09836,19.09289
21.289748669,2.029624,-2.545896,5.402352,1.011308,0.1410672,0.05228213,-37.88238,-37.09836,19.09289
21.299607277,0.973653600000002,-0.04652058,5.402352,1.017583,0.1469584,0.051284,-37.88238,-37.09836,19.09289
21.309465885,0.1040308,2.214819,5.279747,1.020549,0.1372285,0.04493003,-37.88238,-37.09836,19.09289
21.319325447,-0.02020105,4.595177,5.034534,1.020532,0.1303886,0.03768455,-37.88238,-37.09836,19.09289
21.329184055,0.2903785,6.737498,5.095838,1.025727,0.1372183,0.03000095,-37.88163,-36.72486,19.47321
21.339042664,-0.02020105,8.998837,4.911928,1.026686,0.1372213,0.02854972,-37.88163,-36.72486,19.47321
21.348901272,-0.1444329,11.02214,4.789322,1.022646,0.1391035,0.02095599,-37.88163,-36.72486,19.47321
21.35875988,-0.3307806,13.04545,4.728019,1.025049,0.1410658,0.01950071,-37.88163,-36.72486,19.47321
21.368618488,-0.765591999999998,14.53317,4.789322,1.025974,0.136177,0.01129987,-37.88163,-36.72486,19.47321
21.378477573,-0.889823900000002,16.19942,4.666717,1.028909,0.1366913,0.01174158,-38.26012,-36.35775,19.08728
21.388336182,-0.2065488,17.50862,4.789322,1.019546,0.1287778,-0.0001717489,-38.26012,-36.35775,19.08728
21.39819479,0.725189899999998,18.69879,4.666717,1.011151,0.1267287,-0.007736575,-38.26012,-36.35775,19.08728
21.408053398,1.532697,19.47241,4.482807,1.009252,0.1262397,-0.003880048,-38.26012,-36.35775,19.08728
21.417912006,1.905392,20.30553,4.360201,0.9974538,0.1295369,-0.005121666,-38.26012,-36.35775,19.08728
21.427770615,1.967508,21.31719,4.176292,0.9995482,0.1217818,-0.001862568,-38.63507,-36.72782,18.64489
21.437629223,2.650783,22.03129,4.237596,0.9964242,0.1256078,-0.01232814,-38.63507,-36.72782,18.64489
21.447488308,3.209827,22.86442,4.114989,0.9940012,0.1231515,-0.01279354,-38.63507,-36.72782,18.64489
21.457346916,4.079449,23.63803,3.992383,0.9826639,0.1249803,-0.01740851,-38.63507,-36.72782,18.64489
21.469670296,4.452145,24.23313,3.747171,0.9817306,0.1288903,-0.01065342,-38.63507,-36.72782,18.64489
21.479528904,3.76887,24.59018,3.379353,0.9735051,0.1273778,-0.005277758,-39.76102,-36.35207,18.26283
21.489387512,2.650783,24.94723,3.501959,0.9781935,0.1356629,-0.01294185,-39.76102,-36.35207,18.26283
21.499247074,1.594813,25.12576,3.379353,0.9782059,0.1439663,-0.004725561,-39.76102,-36.35207,18.26283
21.509105682,-0.0823169599999999,25.24478,3.440656,0.9810905,0.1410486,-0.01102089,-39.76102,-36.35207,18.26283
21.518964291,-1.759447,25.48281,3.31805,0.9820774,0.1381303,-0.01297638,-39.76102,-36.35207,18.26283
21.528822899,-3.001765,25.54232,3.256747,0.9840424,0.1396147,-0.01107506,-39.02679,-35.64222,16.97115
21.538681507,-3.68504,25.00674,3.256747,0.9874688,0.1328104,-0.01693171,-39.02679,-35.64222,16.97115
21.548540115,-3.809272,24.76871,3.195444,0.9825345,0.1298256,-0.02263697,-39.02679,-35.64222,16.97115
21.558398723,-3.68504,24.29263,3.072838,0.9806339,0.1322654,-0.0163597,-39.02679,-35.64222,16.97115
21.568257809,-4.181968,23.63803,2.766323,0.9810956,0.1356795,-0.01537907,-39.02679,-35.64222,16.97115
21.578116417,-4.989474,22.86442,2.643717,0.9742678,0.1356248,-0.01384462,-40.14872,-36.00277,16.59663
21.587975025,-5.300054,22.26933,2.643717,0.9762452,0.1366245,-0.01146837,-40.14872,-36.00277,16.59663
21.597833633,-5.424286,21.49571,2.70502,0.9835352,0.1361876,-0.01540955,-40.14872,-36.00277,16.59663
21.607692242,-5.05159,20.84112,2.643717,0.9781913,0.1298036,-0.01826246,-40.14872,-36.00277,16.59663
21.61755085,-4.678895,19.76995,2.521111,0.974301,0.1273344,-0.01870705,-40.14872,-36.00277,16.59663
21.627409935,-3.809272,19.23438,1.969384,0.9772341,0.1307774,-0.0158446,-40.15194,-36.009,16.14854
21.639733314,-2.629069,17.80616,1.540263,0.9783171,0.1269101,-0.01157988,-40.15194,-36.009,16.14854
21.649591923,-2.256374,16.91353,1.049839,0.9708614,0.1341349,-0.01380864,-40.15194,-36.009,16.14854
21.659450531,-2.132142,15.72335,0.927233400000001,0.9664721,0.1380056,-0.009400623,-40.15194,-36.009,16.14854
21.669309139,-2.442722,14.29513,0.3142034,0.9645323,0.1360402,-0.009868763,-40.15194,-36.009,16.14854
21.679167747,-2.566953,13.22397,-0.05361458,0.9654793,0.1282282,-0.01905298,-41.28635,-35.27758,14.86651
21.689026833,-1.821563,12.15281,-0.4214326,0.9627312,0.1223969,-0.01043743,-41.28635,-35.27758,14.86651
21.698885441,-1.014056,11.08165,-0.911856500000002,0.9607698,0.1233547,-0.009922197,-41.28635,-35.27758,14.86651
21.708744049,-0.765591999999998,10.01049,-1.463584,0.9563847,0.1257618,-0.006484985,-41.28635,-35.27758,14.86651
21.718602657,-0.4550124,8.46325700000001,-1.892705,0.9579091,0.1204205,-0.007030989,-41.28635,-35.27758,14.86651
21.728461266,-0.2065488,7.39209699999998,-2.015311,0.9550006,0.1204021,-0.005072893,-41.2871,-35.65107,14.4862
21.738319874,-0.2065488,6.32093599999998,-2.505734,0.9516485,0.1159984,-0.003624684,-41.2871,-35.65107,14.4862
21.748179436,0.1040308,5.071248,-2.750947,0.9521195,0.116974,-0.004102363,-41.2871,-35.65107,14.4862
21.758038044,-0.02020105,4.059596,-2.934855,0.9540991,0.1194389,-0.0002761781,-41.2871,-35.65107,14.4862
21.767896652,-0.2065488,2.928926,-2.62834,0.9580033,0.1311884,0.009351323,-41.2871,-35.65107,14.4862
21.77775526,-1.014056,2.036292,-2.689644,0.957512,0.1341128,0.011779,-41.29032,-35.65731,14.03811
21.787613869,-2.132142,0.727095499999998,-2.321826,0.9609471,0.1243817,0.003980729,-41.29032,-35.65731,14.03811
21.797472477,-2.380606,-0.1060295,-2.383129,0.962988,0.120029,0.006310903,-41.29032,-35.65731,14.03811
21.809796333,-2.31849,-1.474735,-2.199219,0.9645326,0.1151817,0.00768558,-41.29032,-35.65731,14.03811
21.819654942,-2.00791,-2.367369,-2.137917,0.9635378,0.1127272,0.004324649,-41.29032,-35.65731,14.03811
21.82951355,-1.573099,-3.43853,-1.954008,0.9788593,0.1065592,0.01028382,-40.54165,-35.29156,14.47857
21.839372158,-0.703476100000001,-4.212146,-1.831402,0.9816869,0.1089957,0.004513686,-40.54165,-35.29156,14.47857
21.849230766,-0.2065488,-5.223798,-1.647493,0.9758902,0.1138469,0.01422123,-40.54165,-35.29156,14.47857
21.859089375,0.2282626,-5.99741399999999,-1.58619,0.9784107,0.1075429,0.01413211,-40.54165,-35.29156,14.47857
21.86894846,0.663074000000001,-6.94955700000003,-1.218372,0.9764386,0.1099623,0.01513903,-40.54165,-35.29156,14.47857
21.878807068,1.03577,-7.90170000000001,-1.340978,0.980902,0.1119715,0.02132197,-40.91136,-36.02354,14.48804
21.888665676,1.222117,-8.615807,-1.095766,0.9740315,0.1094635,0.01756513,-40.91136,-36.02354,14.48804
21.898524284,1.656929,-9.44893200000001,-1.095766,0.9746231,0.1041266,0.02038685,-40.91136,-36.02354,14.48804
21.908382893,2.153856,-10.04402,-0.789250600000002,0.9718007,0.1051092,0.02954016,-40.91136,-36.02354,14.48804
21.918241501,2.40232,-10.52009,-0.911856500000002,0.9787145,0.1017708,0.03133024,-40.91136,-36.02354,14.48804
21.928101063,3.023479,-10.99616,-0.789250600000002,0.9755689,0.10852,0.02184805,-41.2851,-36.01922,14.48997
21.937959671,2.961363,-10.99616,-0.3601296,0.9731902,0.118282,0.03538192,-41.2851,-36.01922,14.48997
21.947818279,1.843277,-11.29371,-0.05361458,0.9818594,0.1285739,0.03438682,-41.2851,-36.01922,14.48997
21.957676888,0.725189899999998,-11.05567,0.3142034,0.9891009,0.1261703,0.02515854,-41.2851,-36.01922,14.48997
21.967535496,-0.1444329,-10.69862,0.682021400000003,0.9964813,0.125271,0.02744175,-41.2851,-36.01922,14.48997
21.977394104,-0.703476100000001,-10.99616,0.8659304,0.9931653,0.1145306,0.02596077,-41.27911,-36.00764,15.32215
21.98971796,-0.5171283,-10.69862,1.172445,0.9926798,0.1125744,0.02451359,-41.27911,-36.00764,15.32215
21.999576569,0.1661467,-10.63911,1.295051,0.9887926,0.1208471,0.0337436,-41.27911,-36.00764,15.32215
22.009435177,0.849421699999999,-10.52009,1.417657,0.9913691,0.1301823,0.05151604,-41.27911,-36.00764,15.32215
22.019293785,0.3524944,-10.34157,1.295051,1.0053,0.131835,0.07002022,-41.27911,-36.00764,15.32215
22.029152393,0.2903785,-10.22255,0.804627399999999,1.025763,0.1365225,0.1037913,-40.5309,-35.64278,15.6986
22.039011002,-0.0823169599999999,-9.38942300000003,0.2529004,1.046466,0.148955,0.1261235,-40.5309,-35.64278,15.6986
22.048870087,-0.5171283,-8.43728100000002,0.007688423,1.054841,0.1715036,0.1501544,-40.5309,-35.64278,15.6986
22.058728695,-2.815417,-6.89004799999999,-0.3601296,1.069555,0.1906854,0.1697538,-40.5309,-35.64278,15.6986
22.068587303,-5.98332900000001,-4.331164,-1.524887,1.088643,0.1919688,0.2073493,-40.5309,-35.64278,15.6986
22.078445911,-8.34373400000002,0.1915152,-2.934855,1.117757,0.1870611,0.2572089,-39.78621,-35.65675,15.31065
22.08830452,-10.02086,5.428301,-4.222218,1.134818,0.1850246,0.3225988,-39.78621,-35.65675,15.31065
22.098163128,-11.38741,12.03379,-5.509581,1.148018,0.1906448,0.3627109,-39.78621,-35.65675,15.31065
22.108022213,-12.81608,19.65094,-6.429126,1.152659,0.2030925,0.4269626,-39.78621,-35.65675,15.31065
22.117880821,-15.85976,28.33924,-7.59388300000003,1.139996,0.2002017,0.4644962,-39.78621,-35.65675,15.31065
22.12773943,-17.53689,38.93183,-8.57473199999998,1.133839,0.2047323,0.5192509,-40.52965,-36.38442,15.32206
22.137598038,-18.59286,50.83362,-10.046,1.137897,0.2244725,0.5830932,-40.52965,-36.38442,15.32206
22.147456646,-20.45634,63.8660699999997,-12.069,1.140438,0.2368621,0.6368319,-40.52965,-36.38442,15.32206
22.159780026,-22.75463,81.9567899999998,-14.27591,1.15508,0.2309059,0.7007856,-40.52965,-36.38442,15.32206
22.169639587,-23.74848,97.2505899999999,-16.54412,1.167101,0.2242547,0.7154134,-40.52965,-36.38442,15.32206
22.179498196,-23.12732,112.8419,-18.50582,1.200539,0.2182516,0.7225533,-40.54161,-36.40758,13.6577
22.189356804,-20.82903,127.6001,-20.65142,1.250794,0.2162194,0.7107984,-40.54161,-36.40758,13.6577
22.199215412,-15.79764,141.1087,-22.55181,1.307971,0.2206156,0.7100205,-40.54161,-36.40758,13.6577
22.209073544,-11.26318,153.427,-25.00393,1.356529,0.238522,0.6989372,-40.54161,-36.40758,13.6577
22.218933106,-7.78468999999998,163.9601,-26.78172,1.406033,0.2700984,0.6975397,-40.54161,-36.40758,13.6577
22.228791714,-5.05159,172.8864,-28.13039,1.453643,0.2953283,0.6951573,-41.31898,-36.45686,9.500666
22.238650322,-3.436576,180.087,-29.66296,1.484397,0.3043709,0.6981496,-41.31898,-36.45686,9.500666
22.24850893,-2.691185,185.7999,-30.27599,1.497661,0.3128035,0.7095326,-41.31898,-36.45686,9.500666
22.258367539,-4.057736,191.1557,-30.82772,1.49026,0.326391,0.7169408,-41.31898,-36.45686,9.500666
22.268226147,-5.79698099999998,196.0949,-30.5212,1.460917,0.3489449,0.7017357,-41.31898,-36.45686,9.500666
22.278084755,-9.77240000000001,200.1415,-30.03078,1.422088,0.3553854,0.6941971,-41.35809,-36.53259,4.059492
22.28794384,-14.92802,204.4857,-29.11123,1.37565,0.3631486,0.6680893,-41.35809,-36.53259,4.059492
22.297802448,-21.13961,208.2348,-28.55951,1.34818,0.3598197,0.6238871,-41.35809,-36.53259,4.059492
22.307661057,-25.54984,211.5672,-27.82387,1.31676,0.3458402,0.6036114,-41.35809,-36.53259,4.059492
22.317519665,-29.15257,214.0071,-27.57866,1.304968,0.327169,0.5834956,-41.35809,-36.53259,4.059492
22.327378273,-31.20239,215.7329,-28.00778,1.291511,0.3157519,0.5553182,-40.66292,-37.0145,-3.494229
22.339702129,-33.25221,217.3991,-28.13039,1.267503,0.3295521,0.5289417,-40.66292,-37.0145,-3.494229
22.349560738,-36.04743,217.7562,-28.3756,1.239419,0.3393658,0.4872552,-40.66292,-37.0145,-3.494229
22.359419346,-38.84265,216.8635,-29.17254,1.202197,0.3439063,0.4883032,-40.66292,-37.0145,-3.494229
22.369277954,-42.38326,214.5427,-30.21469,1.158653,0.3205723,0.4676421,-40.66292,-37.0145,-3.494229
22.379136562,-45.36482,212.0433,-31.44075,1.107236,0.3044792,0.4500296,-38.47484,-37.14553,-11.05945
22.388995171,-45.55117,208.5918,-31.74726,1.075912,0.2589273,0.4448204,-38.47484,-37.14553,-11.05945
22.398854733,-42.69383,203.7716,-32.4216,1.049462,0.2081786,0.4696874,-38.47484,-37.14553,-11.05945
22.408713341,-41.07882,199.4274,-32.17638,1.00332,0.1960089,0.44772,-38.47484,-37.14553,-11.05945
22.418571949,-39.029,195.6784,-30.70511,0.9370928,0.1925764,0.4673237,-38.47484,-37.14553,-11.05945
22.428430557,-39.029,192.0483,-28.86602,0.8835676,0.1799756,0.4775642,-35.17034,-36.9267,-19.01832
22.438289166,-39.21534,188.6563,-27.70127,0.8269883,0.148274,0.4622895,-35.17034,-36.9267,-19.01832
22.448147774,-37.72456,185.7999,-26.04609,0.7563599,0.1106272,0.4519568,-35.17034,-36.9267,-19.01832
22.458006859,-33.00375,182.5269,-23.90048,0.7107517,0.07663937,0.449924,-35.17034,-36.9267,-19.01832
22.467865467,-27.84813,178.3018,-22.42921,0.6662394,0.07282861,0.4471719,-35.17034,-36.9267,-19.01832
22.477724075,-22.81674,172.946,-21.01924,0.6176887,0.07627098,0.4416633,-29.68023,-36.72236,-26.22029
22.487582684,-19.46248,167.6497,-19.85448,0.5666353,0.08065195,0.4328439,-29.68023,-36.72236,-26.22029
22.497441292,-16.23246,161.6393,-19.18015,0.5015059,0.06980376,0.4188254,-29.68023,-36.72236,-26.22029
22.509764671,-10.64202,152.6534,-18.138,0.430929,0.04486556,0.4234544,-29.68023,-36.72236,-26.22029
22.519623757,-4.554663,143.608,-18.07669,0.3841462,0.0274128,0.4215779,-29.68023,-36.72236,-26.22029
22.529482365,4.514261,134.9792,-17.77018,0.3423255,0.03967011,0.4150895,-24.10947,-35.36708,-30.04116
22.539340973,12.27875,126.2314,-19.42536,0.3060555,0.04044112,0.4467608,-24.10947,-35.36708,-30.04116
22.549199581,18.92515,118.0787,-20.65142,0.2582772,-0.01399522,0.4469824,-24.10947,-35.36708,-30.04116
22.559058189,28.61523,109.807,-20.95794,0.2235889,-0.04540159,0.4587125,-24.10947,-35.36708,-30.04116
22.568916798,36.50396,101.6543,-20.77403,0.1968346,-0.03596745,0.4424015,-24.10947,-35.36708,-30.04116
22.578776359,43.77152,92.9064300000003,-19.85448,0.1441745,-0.02040993,0.4332201,-18.95152,-35.44995,-31.73224
22.588634968,46.25616,83.0279500000002,-18.87363,0.1004749,0.02979872,0.4299539,-18.95152,-35.44995,-31.73224
22.598493576,42.09439,73.8040699999999,-16.78933,0.08422353,0.0763595,0.4272241,-18.95152,-35.44995,-31.73224
22.608352184,33.46028,65.8893799999999,-14.27591,0.07647687,0.1152361,0.4314961,-18.95152,-35.44995,-31.73224
22.618210792,22.96269,57.73666,-11.76249,0.04652088,0.1164035,0.4242658,-18.95152,-35.44995,-31.73224
22.628068924,11.84394,48.98884,-9.43297400000002,0.02811146,0.08162604,0.4069835,-13.34357,-35.88285,-31.75744
22.637928486,3.644638,40.95514,-6.79694399999997,0.02873097,0.04700344,0.3860769,-13.34357,-35.88285,-31.75744
22.647787094,-1.759447,33.27848,-4.283521,0.03197604,0.01098904,0.3771011,-13.34357,-35.88285,-31.75744
22.657645702,-3.99562,26.0779,-2.383129,0.02757858,-0.03334191,0.3743936,-13.34357,-35.88285,-31.75744
22.667504311,-3.622924,19.35339,0.0689914200000002,0.02058217,0.00610165,0.398307,-13.34357,-35.88285,-31.75744
22.677362919,-4.989474,12.80741,1.540263,0.006675873,0.02167916,0.4326599,-11.09316,-37.38134,-31.75395
22.689686775,-9.27547199999997,4.000087,3.379353,-0.02426405,0.02834203,0.4657426,-11.09316,-37.38134,-31.75395
22.699545383,-11.44953,-3.676566,6.01538200000003,-0.01649529,0.06012947,0.4893809,-11.09316,-37.38134,-31.75395
22.709403992,-14.55532,-10.52009,8.03838099999998,0.01179686,0.07611614,0.533199,-11.09316,-37.38134,-31.75395
22.7192626,-17.10208,-15.63786,9.75486500000002,0.01968443,0.07487323,0.5723704,-9.978754,-36.66333,-32.15137
22.729121208,-16.29457,-20.45808,10.5518,0.02611404,0.06678488,0.6062337,-9.978754,-36.66333,-32.15137
22.738979816,-13.18878,-24.44518,11.41005,0.04976105,0.06864004,0.655749,-9.978754,-36.66333,-32.15137
22.748838901,-8.09526999999998,-27.71818,12.02308,0.07344311,0.08892262,0.6881682,-9.978754,-36.66333,-32.15137
22.75869751,-4.616779,-30.45559,11.77786,0.09276456,0.1062488,0.7211038,-9.978754,-36.66333,-32.15137
22.768556118,0.600958099999998,-32.35987,11.22614,0.09672932,0.1069215,0.7613057,-9.978754,-36.66333,-32.15137
22.778414726,5.88081099999999,-34.08563,10.4292,0.1107244,0.08675742,0.8011889,-11.09994,-36.65039,-32.14557
22.788273334,12.21663,-34.97826,10.67441,0.119201,0.1386288,0.8585306,-11.09994,-36.65039,-32.14557
22.798131943,13.76953,-35.63286,10.67441,0.1229989,0.1967295,0.9011363,-11.09994,-36.65039,-32.14557
22.807991505,11.2849,-36.16845,10.67441,0.1210182,0.2631042,0.957791,-11.09994,-36.65039,-32.14557
22.817850113,5.632347,-37.00157,10.91962,0.1352544,0.2983963,0.9923884,-11.09994,-36.65039,-32.14557
22.827708721,0.1040308,-38.90585,11.28744,0.1336784,0.2872584,1.010526,-11.8474,-36.64175,-32.14171
22.837567329,-4.3062,-40.63161,11.34874,0.1482964,0.2645605,1.022106,-11.8474,-36.64175,-32.14171
22.847425938,-5.113706,-43.01197,11.71656,0.1543757,0.2441665,1.019452,-11.8474,-36.64175,-32.14171
22.859749794,-3.933504,-45.92791,11.04223,0.1626525,0.2364173,1.009684,-11.8474,-36.64175,-32.14171
22.869608402,-2.194258,-47.8917,10.12268,0.1571929,0.2303534,0.9627495,-13.71207,-36.24044,-31.30364
22.87946701,0.3524944,-50.92666,9.38704699999999,0.1414256,0.2256532,0.9145354,-13.71207,-36.24044,-31.30364
22.889325619,1.222117,-56.40148,9.44834999999999,0.1402075,0.2430172,0.8763633,-13.71207,-36.24044,-31.30364
22.899184227,-2.194258,-62.4118800000001,9.87747100000001,0.1497882,0.2857395,0.8272298,-13.71207,-36.24044,-31.30364
22.909042835,-9.02700799999998,-68.6603199999998,11.16483,0.150605,0.272873,0.7681681,-13.71207,-36.24044,-31.30364
22.91890192,-15.54918,-76.2179600000002,12.5748,0.1633265,0.2323284,0.696723,-15.57674,-35.83913,-30.46558
22.928760529,-18.65498,-84.37068,13.67826,0.1812993,0.1933943,0.6530104,-15.57674,-35.83913,-30.46558
22.938619137,-19.5246,-92.4638999999997,14.72041,0.2309107,0.183502,0.6229886,-15.57674,-35.83913,-30.46558
22.948477745,-23.31367,-96.9865700000002,14.78171,0.2904206,0.1901935,0.5800273,-15.57674,-35.83913,-30.46558
22.958336353,-24.24541,-98.7718400000002,14.35259,0.3202635,0.1737236,0.5296263,-15.57674,-35.83913,-30.46558
22.968194962,-20.82903,-99.9620199999999,12.5748,0.3174148,0.1092764,0.4792863,-18.18883,-36.54521,-30.44452
22.978054523,-9.27547199999997,-102.5804,11.04223,0.3392846,0.04441348,0.5191591,-18.18883,-36.54521,-30.44452
22.987913132,-2.380606,-101.8663,10.18399,0.416479,0.0854579,0.5116965,-18.18883,-36.54521,-30.44452
22.99777174,2.09174,-98.41479,9.93877400000001,0.4498515,0.1398412,0.531327,-18.18883,-36.54521,-30.44452
23.007630348,7.620056,-96.9865700000002,9.14183399999998,0.4218942,0.1221323,0.5464312,-18.18883,-36.54521,-30.44452
23.017488956,14.88762,-101.1522,7.30274499999998,0.4066264,0.09462794,0.5147895,-18.18883,-36.54521,-30.44452
23.027347565,24.70193,-109.543,6.751019,0.413309,0.1145234,0.4841934,-21.48739,-35.38572,-29.2225
23.039671421,36.44184,-122.3374,8.22229000000003,0.4960723,0.1657039,0.5711392,-21.48739,-35.38572,-29.2225
23.049530029,34.51625,-129.4189,10.3679,0.5937894,0.2470934,0.6332086,-21.48739,-35.38572,-29.2225
23.059388638,26.37906,-132.811,12.63611,0.6513902,0.3164094,0.6847261,-21.48739,-35.38572,-29.2225
23.069247246,18.30399,-135.4889,14.04607,0.6690876,0.3079372,0.719384,-25.94775,-35.2867,-25.80659
23.079105854,12.21663,-138.7618,14.04607,0.6756158,0.2606837,0.6901401,-25.94775,-35.2867,-25.80659
23.088964939,12.0924,-143.2845,14.10738,0.7011589,0.2005341,0.6806429,-25.94775,-35.2867,-25.80659
23.098823547,13.33472,-146.7955,14.35259,0.7518174,0.1546763,0.6598866,-25.94775,-35.2867,-25.80659
23.108682156,16.81321,-148.4618,14.41389,0.7803045,0.1387136,0.6181347,-25.94775,-35.2867,-25.80659
23.118540764,23.21115,-151.1397,14.5365,0.8138582,0.1190732,0.6218036,-29.27413,-37.03603,-21.99354
23.128399372,29.67121,-153.282,15.14953,0.8627515,0.1395165,0.6375721,-29.27413,-37.03603,-21.99354
23.13825798,29.91967,-153.6391,16.25298,0.8735944,0.2067398,0.6307968,-29.27413,-37.03603,-21.99354
23.148117065,24.82616,-152.6869,17.47904,0.8759348,0.2446779,0.6205413,-29.27413,-37.03603,-21.99354
23.157975674,18.98727,-150.7827,17.54035,0.8721492,0.2245272,0.5763388,-29.27413,-37.03603,-21.99354
23.167834282,20.10535,-150.9612,17.04992,0.881614,0.1800116,0.6213521,-32.59979,-37.29584,-16.97931
23.17769289,22.2173,-150.9017,16.5595,0.9252639,0.1450589,0.6702718,-32.59979,-37.29584,-16.97931
23.187551498,21.22344,-147.5097,16.37559,0.9460604,0.1495713,0.6565959,-32.59979,-37.29584,-16.97931
23.197410107,20.16747,-142.3919,16.43689,0.9618164,0.1627859,0.6397109,-32.59979,-37.29584,-16.97931
23.209733963,22.77634,-136.7385,16.06907,0.9942001,0.1329647,0.6562489,-32.59979,-37.29584,-16.97931
23.219592571,27.99408,-135.1318,15.08823,1.02909,0.1172058,0.6537018,-35.86195,-37.18198,-11.52107
23.22945118,33.39816,-133.4655,15.45604,1.068417,0.1545771,0.6644783,-35.86195,-37.18198,-11.52107
23.239309788,34.45413,-132.5134,16.92732,1.089169,0.2199699,0.6652136,-35.86195,-37.18198,-11.52107
23.249168396,28.18042,-131.3827,17.84686,1.091159,0.2763608,0.6455348,-35.86195,-37.18198,-11.52107
23.259027958,20.60228,-130.4306,18.82771,1.092792,0.2821445,0.6268715,-35.86195,-37.18198,-11.52107
23.268886566,14.20434,-129.4785,18.82771,1.105887,0.2426827,0.5837031,-38.43648,-37.44329,-5.998588
23.278745174,11.59548,-129.0024,18.03077,1.108947,0.2045276,0.5234375,-38.43648,-37.44329,-5.998588
23.288603783,12.34087,-128.5858,17.41774,1.105485,0.1652933,0.4503174,-38.43648,-37.44329,-5.998588
23.298462391,15.75724,-128.7643,16.6208,1.101062,0.14119,0.3917148,-38.43648,-37.44329,-5.998588
23.308320999,22.65211,-129.4189,16.43689,1.102463,0.1231197,0.3709367,-38.43648,-37.44329,-5.998588
23.318180084,30.47871,-130.5496,16.31429,1.101636,0.1197366,0.3790663,-39.51977,-37.729,-0.995945
23.328038693,35.26164,-130.9067,16.6208,1.103044,0.1576791,0.3721785,-39.51977,-37.729,-0.995945
23.337897301,37.12512,-129.657,17.78556,1.105834,0.2000044,0.3629119,-39.51977,-37.729,-0.995945
23.347755909,35.44799,-127.8717,18.76641,1.0874,0.2266013,0.3619615,-39.51977,-37.729,-0.995945
23.357614517,32.09373,-126.2055,19.93116,1.071422,0.2292995,0.340648,-39.51977,-37.729,-0.995945
23.367473126,28.61523,-124.2417,20.91201,1.052606,0.2276057,0.3226923,-39.85715,-37.6543,4.063077
23.379796982,23.77019,-121.7423,21.89286,1.053599,0.2103952,0.2726962,-39.85715,-37.6543,4.063077
23.38965559,21.72037,-119.6,22.87371,1.05345,0.1888707,0.2428063,-39.85715,-37.6543,4.063077
23.399514198,21.72037,-118.0527,22.99631,1.056921,0.1684088,0.2282082,-39.85715,-37.6543,4.063077
23.409372807,21.53402,-116.2675,22.87371,1.072259,0.1513696,0.189989,-39.85715,-37.6543,4.063077
23.419231415,23.64596,-114.4227,23.11892,1.102426,0.1423154,0.1698355,-39.82603,-37.222,8.668301
23.429090977,26.31695,-112.3994,23.60934,1.121239,0.1502202,0.1571749,-39.82603,-37.222,8.668301
23.438949585,27.80773,-110.9712,23.85456,1.134161,0.1658791,0.1499348,-39.82603,-37.222,8.668301
23.448808193,27.93196,-109.4239,24.40628,1.144559,0.1893054,0.1437548,-39.82603,-37.222,8.668301
23.458666802,25.50944,-107.9362,25.08061,1.155491,0.2166547,0.144309,-39.82603,-37.222,8.668301
23.46852541,21.03709,-106.8651,25.38713,1.154306,0.2346513,0.1449569,-40.16386,-37.14819,13.66331
23.478384018,15.13608,-105.3178,25.93886,1.157061,0.2321849,0.1295625,-40.16386,-37.14819,13.66331
23.488243103,9.85623000000002,-103.6516,26.49058,1.15605,0.2277729,0.1233101,-40.16386,-37.14819,13.66331
23.498101711,4.949072,-101.9853,27.22622,1.144422,0.2057309,0.1122682,-40.16386,-37.14819,13.66331
23.50796032,1.222117,-100.1405,27.53273,1.131297,0.1939201,0.1080428,-40.16386,-37.14819,13.66331
23.517818928,-1.448867,-97.7006799999998,27.22622,1.123472,0.1723693,0.08928365,-39.39725,-36.7477,16.60031
23.527677536,-2.442722,-95.1417999999999,26.67449,1.114189,0.1615494,0.08069904,-39.39725,-36.7477,16.60031
23.537536621,-2.939649,-92.2258600000001,26.12277,1.11375,0.1557006,0.07921834,-39.39725,-36.7477,16.60031
23.547395229,-2.753301,-89.0123700000003,25.44843,1.108814,0.1473448,0.06867579,-39.39725,-36.7477,16.60031
23.559718609,-2.256374,-85.0252799999998,24.65149,1.102878,0.1545974,0.0702592,-39.39725,-36.7477,16.60031
23.569577217,-2.31849,-81.3952299999998,24.16107,1.090616,0.1535037,0.06707032,-39.38056,-35.97131,19.47339
23.579435825,-2.566953,-77.9437199999997,23.36413,1.088273,0.1432584,0.06557965,-39.38056,-35.97131,19.47339
23.589294433,-2.070026,-73.8971100000002,22.56719,1.087737,0.1383586,0.05787875,-39.38056,-35.97131,19.47339
23.599153995,-1.076172,-69.6124599999999,21.83156,1.080953,0.1368517,0.06131712,-39.38056,-35.97131,19.47339
23.609012127,0.1661467,-65.6253699999999,20.85071,1.076677,0.1251313,0.06032076,-39.38056,-35.97131,19.47339
23.618870735,1.346349,-61.4002300000001,19.68595,1.078086,0.1251275,0.05598785,-38.99365,-35.57808,21.58014
23.628729343,2.899247,-56.46099,18.7051,1.080882,0.1241375,0.04491805,-38.99365,-35.57808,21.58014
23.638587952,4.762724,-51.58126,17.72425,1.086086,0.1329228,0.03964682,-38.99365,-35.57808,21.58014
23.64844656,6.129274,-46.93956,16.6821,1.084029,0.1441062,0.04216652,-38.99365,-35.57808,21.58014
23.658306122,6.439854,-42.23835,15.57865,1.078606,0.1455111,0.04033887,-38.99365,-35.57808,21.58014
23.66816473,6.06715799999999,-37.41813,14.35259,1.073743,0.1332702,0.0316793,-38.98248,-34.81238,23.68506
23.678023338,6.56408599999997,-32.41938,12.69741,1.067046,0.1210474,0.03215078,-38.98248,-34.81238,23.68506
23.687881946,8.61391200000001,-27.42063,11.34874,1.064772,0.1049632,0.03060985,-38.98248,-34.81238,23.68506
23.697740555,11.59548,-22.24335,9.75486500000002,1.061822,0.107374,0.03163065,-38.98248,-34.81238,23.68506
23.70759964,13.6453,-17.06608,8.40619900000001,1.050049,0.1145842,0.03569288,-38.98248,-34.81238,23.68506
23.717458248,14.39069,-12.12683,6.93492700000001,1.043556,0.1242542,0.03442944,-38.60478,-34.43697,24.51154
23.729781628,14.018,-5.283307,5.586261,1.050129,0.1457184,0.0330793,-38.60478,-34.43697,24.51154
23.739640236,12.40298,-0.2250474,5.034534,1.045058,0.1641764,0.03618255,-38.60478,-34.43697,24.51154
23.749498844,8.551796,4.357141,4.360201,1.040525,0.1684946,0.03053319,-38.60478,-34.43697,24.51154
23.759357929,5.259652,9.17736400000001,3.747171,1.035687,0.1640724,0.03056484,-38.60478,-34.43697,24.51154
23.769216537,2.40232,13.70004,2.950232,1.035211,0.1557721,0.02427197,-38.9793,-33.69012,24.95402
23.779075146,0.2903785,18.16321,2.459808,1.032335,0.1425808,0.01701365,-38.9793,-33.69012,24.95402
23.788933754,-0.827707900000002,22.62638,1.724172,1.027529,0.1381678,0.0194409,-38.9793,-33.69012,24.95402
23.798792362,-2.132142,27.14906,1.111142,1.02351,0.1371268,0.0108638,-38.9793,-33.69012,24.95402
23.80865097,-3.063881,31.55272,0.620718400000002,1.032761,0.1396378,0.009794746,-38.9793,-33.69012,24.95402
23.818510532,-3.871388,35.83737,0.007688423,1.039174,0.1460564,0.0193415,-38.9793,-33.69012,24.95402
23.828369141,-5.610633,39.64594,-0.789250600000002,1.057952,0.15311,0.03925977,-38.9793,-33.69012,24.95402
23.838227749,-7.28776300000003,44.22813,-2.321826,1.093448,0.1456885,0.05258802,-38.9793,-33.69012,24.95402
23.848086357,-7.78468999999998,48.92933,-3.363976,1.103412,0.1414326,0.06199408,-38.9793,-33.69012,24.95402
23.857944965,-9.08912500000002,53.86858,-4.590036,1.115285,0.1488977,0.07818065,-38.9793,-33.69012,24.95402
23.867803574,-10.20721,59.0458499999998,-6.06130799999997,1.115646,0.1382598,0.0953369,-40.1097,-33.69499,23.67954
23.877662659,-11.51165,64.5801799999999,-7.59388300000003,1.126116,0.1447537,0.1153689,-40.1097,-33.69499,23.67954
23.887521267,-12.19492,70.4120600000001,-9.43297400000002,1.145439,0.1415749,0.130401,-40.1097,-33.69499,23.67954
23.897379875,-12.62973,76.54148,-10.90425,1.153564,0.1505173,0.160071,-40.1097,-33.69499,23.67954
23.909703255,-13.6857,84.5156799999999,-12.92724,1.153766,0.1637571,0.1865359,-40.1097,-33.69499,23.67954
23.919561863,-15.30072,91.5377300000001,-14.64373,1.151538,0.1701446,0.2081855,-40.87434,-33.34761,21.56718
23.929420948,-17.22631,97.9646899999998,-16.60542,1.139235,0.171615,0.2400005,-40.87434,-33.34761,21.56718
23.939279556,-19.08979,104.8677,-17.95409,1.15276,0.168405,0.2603862,-40.87434,-33.34761,21.56718
23.949138165,-21.13961,112.8419,-19.11885,1.176878,0.1701239,0.2725161,-40.87434,-33.34761,21.56718
23.958996773,-21.69866,121.0542,-20.2836,1.187361,0.1688103,0.2867316,-40.87434,-33.34761,21.56718
23.968855381,-21.0775,129.0284,-21.38706,1.207259,0.1705425,0.3123394,-40.89426,-34.13023,18.246
23.978713989,-19.02767,137.4786,-22.79703,1.240312,0.182141,0.3426349,-40.89426,-34.13023,18.246
23.988573551,-17.10208,145.2148,-24.63612,1.260329,0.2067188,0.3612459,-40.89426,-34.13023,18.246
23.998432159,-16.54304,152.7724,-26.96563,1.279908,0.2259362,0.3788594,-40.89426,-34.13023,18.246
24.008290768,-15.36283,159.6755,-29.11123,1.29659,0.2348856,0.3901979,-40.89426,-34.13023,18.246
24.018149376,-14.61744,166.1024,-31.25684,1.31848,0.2423687,0.3875531,-42.04456,-34.91772,13.65034
24.028007507,-13.12666,171.8153,-33.58635,1.340128,0.2372243,0.3919931,-42.04456,-34.91772,13.65034
24.037867069,-10.70414,177.1116,-35.73196,1.363249,0.2394174,0.4031829,-42.04456,-34.91772,13.65034
24.047725678,-7.22564700000002,181.8128,-38.12278,1.40255,0.2427407,0.4179852,-42.04456,-34.91772,13.65034
24.057584286,-4.492547,185.3238,-40.45229,1.414053,0.2521887,0.4447362,-42.04456,-34.91772,13.65034
24.067442894,-2.256374,189.2514,-43.33353,1.414746,0.2488333,0.456678,-42.46016,-34.99448,7.827019
24.079766274,1.408465,193.5956,-46.21477,1.404915,0.2555686,0.4592709,-42.46016,-34.99448,7.827019
24.089625359,4.638493,196.1544,-48.23777,1.394072,0.2652148,0.4619028,-42.46016,-34.99448,7.827019
24.099483967,6.62620199999998,198.0587,-49.64774,1.36276,0.2839771,0.478321,-42.46016,-34.99448,7.827019
24.109342575,6.06715799999999,199.4869,-50.8125,1.334578,0.302686,0.4731302,-42.46016,-34.99448,7.827019
24.119201183,4.141565,200.9747,-51.73204,1.300951,0.3175583,0.4957781,-41.75499,-36.20111,1.113018
24.129059792,0.5388422,202.3434,-52.16116,1.274333,0.3133609,0.4774333,-41.75499,-36.20111,1.113018
24.1389184,-1.386751,203.4145,-52.03856,1.253513,0.3103064,0.4906427,-41.75499,-36.20111,1.113018
24.148777485,-2.877533,203.7716,-51.79334,1.238334,0.3077271,0.4874828,-41.75499,-36.20111,1.113018
24.158636093,-5.113706,204.0096,-51.30292,1.217029,0.3163871,0.5113404,-41.75499,-36.20111,1.113018
24.168494701,-8.96489200000003,203.7716,-49.89295,1.200427,0.3255247,0.5217173,-40.6781,-37.0439,-5.606687
24.17835331,-14.43109,203.474,-48.66689,1.175003,0.3350677,0.531265,-40.6781,-37.0439,-5.606687
24.188211918,-19.40037,202.5814,-47.31823,1.135581,0.3259867,0.538459,-40.6781,-37.0439,-5.606687
24.198070526,-24.86657,201.2127,-45.90826,1.108377,0.3096867,0.5382299,-40.6781,-37.0439,-5.606687
24.207930088,-29.2768,199.9035,-44.43699,1.082942,0.2860273,0.5177872,-40.6781,-37.0439,-5.606687
24.217788696,-31.88566,198.5943,-42.6592,1.045621,0.269193,0.5287194,-37.73855,-37.91986,-13.16823
24.227647305,-34.49453,196.6305,-40.57489,1.01193,0.2461005,0.5491312,-37.73855,-37.91986,-13.16823
24.237505913,-40.2092,195.3808,-38.24538,0.9667352,0.2689476,0.5197785,-37.73855,-37.91986,-13.16823
24.249828816,-44.80577,192.1673,-35.11893,0.90429,0.2138955,0.5202039,-37.73855,-37.91986,-13.16823
24.259688377,-45.17847,187.6447,-33.27984,0.8456949,0.1684894,0.4885494,-37.73855,-37.91986,-13.16823
24.269546986,-41.7621,180.4441,-30.95033,0.7834605,0.1319149,0.484815,-32.98544,-38.43071,-19.4626
24.279405594,-39.96073,173.8981,-28.06908,0.7496569,0.1330665,0.4824313,-32.98544,-38.43071,-19.4626
24.289264202,-39.27746,168.6613,-25.31045,0.6984683,0.1434028,0.504812,-32.98544,-38.43071,-19.4626
24.29912281,-39.96073,164.6742,-22.79703,0.6495807,0.1180789,0.4851687,-32.98544,-38.43071,-19.4626
24.308981896,-37.1034,159.4969,-21.69357,0.5845803,0.08041503,0.4570253,-32.98544,-38.43071,-19.4626
24.318840504,-30.20854,152.6534,-21.26445,0.5073837,0.0284938,0.4188722,-27.80159,-37.46866,-25.39022
24.328699112,-21.01538,144.2031,-20.71272,0.4426331,-0.00825757,0.373961,-27.80159,-37.46866,-25.39022
24.33855772,-9.58605199999997,135.3363,-20.59012,0.3950292,-0.0170212,0.3553975,-27.80159,-37.46866,-25.39022
24.348416329,-1.324635,127.0646,-20.34491,0.3584809,0.001599689,0.3464916,-27.80159,-37.46866,-25.39022
24.358274937,5.383883,120.1615,-20.161,0.3269204,0.01980304,0.3442198,-27.80159,-37.46866,-25.39022
24.368134499,11.16066,113.6751,-20.2836,0.2716243,0.01296141,0.337283,-22.59853,-37.2135,-29.19785
24.377993107,17.18591,106.534,-21.20315,0.2225041,-0.03231096,0.3189122,-22.59853,-37.2135,-29.19785
24.387851715,24.82616,97.9051900000002,-20.95794,0.1953725,-0.03944892,0.2962371,-22.59853,-37.2135,-29.19785
24.397710323,29.79544,88.6813000000001,-19.67057,0.1655509,-0.01006119,0.2878053,-22.59853,-37.2135,-29.19785
24.407568932,30.78929,78.2672299999999,-18.2606,0.1343511,0.0310565,0.2962643,-22.59853,-37.2135,-29.19785
24.417428017,26.75176,67.6151400000001,-16.115,0.09668777,0.04585912,0.3098643,-18.19205,-36.55145,-30.89261
24.429751396,21.34767,53.57103,-12.86594,0.06362846,0.03989957,0.3558092,-18.19205,-36.55145,-30.89261
24.439610005,14.76339,42.85942,-9.49427599999999,0.06162473,0.0647684,0.3742572,-18.19205,-36.55145,-30.89261
24.449468613,6.25350600000003,34.17112,-6.06130799999997,0.07527048,0.09319217,0.3953874,-18.19205,-36.55145,-30.89261
24.459327221,-2.504838,27.08955,-2.996159,0.07859761,0.07721847,0.4100603,-18.19205,-36.55145,-30.89261
24.469186306,-6.666604,20.18652,-0.5440385,0.06221605,0.03870796,0.4305744,-14.44476,-37.31932,-30.07221
24.479044914,-8.09526999999998,12.98594,1.295051,0.06333003,0.02508494,0.4285267,-14.44476,-37.31932,-30.07221
24.488903523,-7.59834299999997,6.32093599999998,3.31805,0.07467064,0.0515743,0.458299,-14.44476,-37.31932,-30.07221
24.498762131,-8.09526999999998,0.608077699999999,4.850626,0.08212604,0.07901351,0.4910099,-14.44476,-37.31932,-30.07221
24.508620739,-8.46796500000002,-5.521342,6.01538200000003,0.07090768,0.1044462,0.5517635,-14.44476,-37.31932,-30.07221
24.518479347,-7.97103800000001,-11.82929,6.81232100000002,0.06083367,0.1147999,0.6114153,-12.94859,-38.07823,-30.45647
24.528338432,-8.77854399999999,-17.18509,7.67056300000001,0.07750446,0.1521986,0.682894,-12.94859,-38.07823,-30.45647
24.538197041,-11.63588,-21.2317,8.65141099999999,0.0902824,0.1636924,0.7331247,-12.94859,-38.07823,-30.45647
24.548055649,-12.19492,-24.26666,10.06138,0.1201862,0.1593628,0.8055004,-12.94859,-38.07823,-30.45647
24.557914257,-11.38741,-25.99242,10.73571,0.1515265,0.1773606,0.8593552,-12.94859,-38.07823,-30.45647
24.567772865,-9.399704,-25.99242,10.61311,0.1677897,0.1996432,0.9235241,-13.33156,-36.97571,-30.91395
24.577632427,-8.15738599999999,-26.05193,9.38704699999999,0.1707179,0.2178668,0.9749105,-13.33156,-36.97571,-30.91395
24.587491035,-6.48025699999999,-26.11143,9.01922900000002,0.1694438,0.2214617,1.02815,-13.33156,-36.97571,-30.91395
24.599813938,-4.741011,-25.69487,8.528805,0.1921215,0.2335636,1.08735,-13.33156,-36.97571,-30.91395
24.609672546,-4.119852,-23.43353,8.09968399999998,0.2064854,0.2454572,1.110726,-13.33156,-36.97571,-30.91395
24.619531155,-1.014056,-21.11268,7.48665400000003,0.1970727,0.2571939,1.148337,-14.45154,-36.58838,-30.46383
24.629390716,0.600958099999998,-19.9225,6.32189799999997,0.1974277,0.2849889,1.162943,-14.45154,-36.58838,-30.46383
24.639249325,0.1661467,-17.42313,5.034534,0.2129283,0.3021717,1.1667,-14.45154,-36.58838,-30.46383
24.649107933,-1.014056,-14.86425,4.176292,0.2097714,0.2846414,1.17091,-14.45154,-36.58838,-30.46383
24.658966541,-0.0823169599999999,-12.5434,3.808474,0.199048,0.2655163,1.157005,-14.45154,-36.58838,-30.46383
24.668825149,1.222117,-11.05567,3.563262,0.198016,0.2897685,1.138535,-15.57072,-36.94357,-30.45427
24.678683758,-0.4550124,-9.50844099999999,2.827626,0.2041741,0.3076966,1.103617,-15.57072,-36.94357,-30.45427
24.688542843,-2.442722,-8.37777100000001,2.275899,0.184541,0.2995579,1.055908,-15.57072,-36.94357,-30.45427
24.698401451,-3.312345,-9.44893200000001,2.153293,0.1629752,0.2767618,0.9970819,-15.57072,-36.94357,-30.45427
24.708260059,-3.933504,-12.18634,2.09199,0.1554629,0.2628415,0.9362131,-15.57072,-36.94357,-30.45427
24.718118668,-5.486402,-15.34032,2.275899,0.1562738,0.2504616,0.8771556,-16.32139,-36.94118,-30.89849
24.727977276,-5.73486500000002,-19.08938,2.398505,0.1617222,0.2259819,0.8246385,-16.32139,-36.94118,-30.89849
24.737836838,-6.977184,-22.77893,2.70502,0.1643505,0.2077209,0.7501711,-16.32139,-36.94118,-30.89849
24.747695446,-5.98332900000001,-27.36112,3.011535,0.1407876,0.1707374,0.6759189,-16.32139,-36.94118,-30.89849
24.757554054,-4.181968,-33.49054,3.563262,0.1425298,0.1661643,0.6202683,-16.32139,-36.94118,-30.89849
24.767412662,-4.989474,-39.67947,4.360201,0.1665842,0.1592951,0.5484668,-17.07087,-36.5644,-30.8984
24.779735565,-4.492547,-48.12974,5.218443,0.1533749,0.1385371,0.4943304,-17.07087,-36.5644,-30.8984
24.789595127,-3.747156,-56.10394,5.83147299999998,0.1654601,0.1176104,0.4652295,-17.07087,-36.5644,-30.8984
24.799453735,-4.492547,-62.94746,6.68971499999997,0.2021521,0.128542,0.438922,-17.07087,-36.5644,-30.8984
24.809312344,-6.04544500000002,-68.9578699999999,7.854472,0.2239298,0.1350167,0.4271655,-17.07087,-36.5644,-30.8984
24.819170952,-6.54237199999997,-75.3848300000002,8.65141099999999,0.2342177,0.1116771,0.407654,-17.4366,-36.91665,-30.06052
24.82902956,-4.803127,-82.2283599999998,9.38704699999999,0.2609543,0.1245611,0.4064232,-17.4366,-36.91665,-30.06052
24.838888168,-6.10756099999998,-87.6436700000001,9.75486500000002,0.3120509,0.1527685,0.4112042,-17.4366,-36.91665,-30.06052
24.848747253,-8.90277699999999,-91.33323,9.75486500000002,0.3481253,0.1400063,0.426396,-17.4366,-36.91665,-30.06052
24.858605862,-7.41199499999999,-94.6657299999999,10.00008,0.3706737,0.1135014,0.4421437,-17.4366,-36.91665,-30.06052
24.86846447,-4.803127,-98.6528199999999,9.632258,0.3742222,0.09696743,0.4366824,-19.675,-36.51102,-29.22053
24.878323078,0.3524944,-103.8896,9.01922900000002,0.3888372,0.06792169,0.4424585,-19.675,-36.51102,-29.22053
24.888181686,8.42756399999998,-109.543,9.14183399999998,0.4228404,0.06159168,0.4907988,-19.675,-36.51102,-29.22053
24.898040771,12.34087,-113.054,9.87747100000001,0.4732361,0.1054928,0.5297454,-19.675,-36.51102,-29.22053
24.90789938,13.89376,-115.2558,11.10353,0.4935854,0.1554178,0.5591079,-19.675,-36.51102,-29.22053
24.917757988,14.88762,-118.5883,11.47135,0.4941324,0.1549504,0.5629297,-22.58536,-36.81596,-27.08917
24.927616596,18.80092,-124.8368,11.34874,0.5016581,0.1467691,0.5694622,-22.58536,-36.81596,-27.08917
24.937475204,23.3975,-133.168,11.59396,0.5611744,0.1459212,0.5920876,-22.58536,-36.81596,-27.08917
24.947334766,28.61523,-140.6066,13.67826,0.6577271,0.1656497,0.6939059,-22.58536,-36.81596,-27.08917
24.959658146,20.85075,-143.106,17.47904,0.7543352,0.2552932,0.7536646,-22.58536,-36.81596,-27.08917
24.969516754,11.47124,-141.5588,19.99247,0.7619939,0.2837669,0.8021949,-26.3027,-37.10619,-24.56954
24.979375362,3.396174,-140.6661,21.03462,0.7448298,0.2528448,0.771989,-26.3027,-37.10619,-24.56954
24.989233971,2.278088,-143.344,20.23768,0.736427,0.2018357,0.6849432,-26.3027,-37.10619,-24.56954
24.999093056,7.55793999999999,-149.8305,18.82771,0.782983,0.1516306,0.6824183,-26.3027,-37.10619,-24.56954
25.008951664,13.45895,-154.8888,18.15338,0.8898382,0.1093186,0.6958727,-26.3027,-37.10619,-24.56954
25.018810272,17.06167,-154.2937,18.52119,0.9399803,0.1228773,0.6895221,-30.7511,-36.98402,-19.48927
25.02866888,21.34767,-151.6158,19.44074,0.9521246,0.1465313,0.7398645,-30.7511,-36.98402,-19.48927
25.038527489,21.90672,-147.6287,19.86986,0.9469615,0.1770338,0.7109644,-30.7511,-36.98402,-19.48927
25.048386097,21.8446,-144.4152,19.13422,0.9277978,0.2029344,0.655869,-30.7511,-36.98402,-19.48927
25.058245182,21.90672,-143.225,17.84686,0.9461538,0.1876271,0.5534087,-30.7511,-36.98402,-19.48927
25.06810379,26.19271,-144.1772,16.06907,0.9827845,0.1575302,0.4865031,-33.70056,-37.6154,-14.40919
25.077962399,37.063,-147.0336,15.88517,1.024432,0.1517055,0.5218003,-33.70056,-37.6154,-14.40919
25.087821007,42.46709,-149.3544,16.6821,1.047603,0.2001595,0.5415261,-33.70056,-37.6154,-14.40919
25.097679615,39.7961,-147.9262,17.96947,1.046896,0.2502455,0.5338125,-33.70056,-37.6154,-14.40919
25.107539177,34.20567,-144.6532,19.19553,1.041192,0.2681699,0.5258987,-33.70056,-37.6154,-14.40919
25.117397785,30.91352,-142.2729,19.25683,1.027012,0.2402173,0.5019049,-36.95394,-38.60064,-8.555554
25.129720688,32.96335,-142.5704,20.42159,1.038028,0.2041734,0.5963252,-36.95394,-38.60064,-8.555554
25.139579296,30.78929,-140.6661,20.91201,1.081756,0.2026603,0.6086277,-36.95394,-38.60064,-8.555554
25.149437904,26.68964,-135.1913,21.95416,1.110492,0.2141093,0.6092731,-36.95394,-38.60064,-8.555554
25.159297466,22.65211,-129.1214,21.89286,1.115043,0.2086848,0.5794521,-38.79025,-37.77238,-3.496346
25.169156075,21.90672,-124.5987,21.15722,1.111971,0.1816323,0.5097836,-38.79025,-37.77238,-3.496346
25.179014683,26.75176,-122.2184,21.52504,1.122894,0.1780027,0.5541629,-38.79025,-37.77238,-3.496346
25.188873291,28.30466,-121.0877,21.77025,1.158893,0.2062301,0.5998912,-38.79025,-37.77238,-3.496346
25.198731899,24.26712,-116.8626,21.89286,1.178909,0.251178,0.6004644,-38.79025,-37.77238,-3.496346
25.208590508,18.11765,-111.0307,22.44459,1.178553,0.2823227,0.6016908,-38.79025,-37.77238,-3.496346
25.218449593,11.16066,-105.0203,21.95416,1.15682,0.2703552,0.5760227,-40.24405,-38.04753,1.956324
25.228308201,7.49582399999998,-100.7356,21.09592,1.127415,0.23821,0.5081242,-40.24405,-38.04753,1.956324
25.238166809,7.06101299999998,-97.7006799999998,20.6668,1.112856,0.2217316,0.4305623,-40.24405,-38.04753,1.956324
25.248025417,7.55793999999999,-95.4988500000002,20.91201,1.099766,0.2194251,0.3655583,-40.24405,-38.04753,1.956324
25.257884026,8.73814300000001,-94.4276899999997,20.85071,1.081565,0.2345888,0.2998162,-40.24405,-38.04753,1.956324
25.267743111,9.42141799999999,-94.2491600000001,20.42159,1.061526,0.234281,0.2651176,-40.96637,-37.61819,5.733232
25.277601719,9.98046100000001,-94.4872000000002,19.62465,1.043169,0.2120772,0.2268559,-40.96637,-37.61819,5.733232
25.287460327,11.40913,-94.5467100000001,19.13422,1.032104,0.1909018,0.186103,-40.96637,-37.61819,5.733232
25.297318935,14.8255,-94.60622,18.95032,1.024917,0.1689097,0.1778734,-40.96637,-37.61819,5.733232
25.309642315,20.85075,-94.4872000000002,19.25683,1.027221,0.1610791,0.1605233,-40.57147,-37.58152,8.675935
25.319501877,24.70193,-93.8921099999998,19.93116,1.023281,0.1605488,0.158179,-40.57147,-37.58152,8.675935
25.329360485,27.24869,-93.0589799999998,20.91201,1.026829,0.1863552,0.1540334,-40.57147,-37.58152,8.675935
25.339219093,27.43503,-91.8688000000002,21.77025,1.023754,0.1965419,0.1527256,-40.57147,-37.58152,8.675935
25.349077702,25.82002,-90.5001,22.50589,1.03501,0.1932256,0.1501412,-40.57147,-37.58152,8.675935
25.35893631,24.26712,-88.2982699999998,23.18022,1.04295,0.178192,0.1451092,-40.91931,-36.783,12.83122
25.368795395,23.58385,-86.2154500000003,24.16107,1.058784,0.1568998,0.1394326,-40.91931,-36.783,12.83122
25.378654003,24.08077,-83.89461,24.7741,1.061651,0.1515362,0.1297625,-40.91931,-36.783,12.83122
25.388512611,24.32924,-81.7522900000003,25.08061,1.058576,0.1441467,0.112972,-40.91931,-36.783,12.83122
25.39837122,23.52173,-79.8479999999999,25.32583,1.066058,0.1499765,0.09278814,-40.91931,-36.783,12.83122
25.408229828,22.09306,-77.76519,25.14192,1.066348,0.1474829,0.07599098,-40.15194,-36.009,16.14854
25.418088913,20.60228,-75.8013899999997,25.26452,1.073356,0.154289,0.05773896,-40.15194,-36.009,16.14854
25.427947521,18.42822,-73.8971100000002,25.50974,1.080843,0.1669551,0.04384236,-40.15194,-36.009,16.14854
25.43780613,14.94973,-72.6474200000001,25.44843,1.084984,0.1796133,0.03574378,-40.15194,-36.009,16.14854
25.447664738,10.97432,-71.2787199999999,25.44843,1.097045,0.1816264,0.02504648,-40.15194,-36.009,16.14854
25.457523346,6.75043299999998,-70.2670699999999,25.01931,1.101387,0.18116,0.02018866,-40.15194,-36.009,16.14854
25.467381954,2.650783,-69.4934499999998,24.28368,1.096121,0.1704042,0.01921454,-40.13876,-35.61145,18.25722
25.479705811,-1.573099,-68.06523,23.54804,1.09617,0.1640712,0.0172436,-40.13876,-35.61145,18.25722
25.489564419,-4.430431,-66.57751,22.99631,1.081469,0.1624694,0.01408521,-40.13876,-35.61145,18.25722
25.499423027,-7.16353100000001,-64.9707700000002,21.89286,1.073892,0.1453833,0.01740341,-40.13876,-35.61145,18.25722
25.509281635,-8.59219699999999,-62.5904099999998,20.7281,1.064373,0.134143,0.0270282,-39.74789,-34.83849,21.19238
25.519140244,-8.40584900000001,-59.5554500000002,19.74725,1.062189,0.1258961,0.03896973,-39.74789,-34.83849,21.19238
25.528999806,-8.46796500000002,-56.5205,18.7051,1.054329,0.1292351,0.03958912,-39.74789,-34.83849,21.19238
25.538858414,-8.59219699999999,-53.12849,17.66295,1.048528,0.1267617,0.04252612,-39.74789,-34.83849,21.19238
25.548717022,-8.28161699999999,-49.61746,16.31429,1.046643,0.131159,0.05169489,-39.74789,-34.83849,21.19238
25.55857563,-8.03315400000002,-45.74938,15.14953,1.037399,0.1198618,0.0455017,-40.49062,-34.07664,22.40497
25.568434238,-7.28776300000003,-41.46474,13.92347,1.036387,0.1232611,0.04602401,-40.49062,-34.07664,22.40497
25.578293323,-5.548518,-37.1801,12.88132,1.032857,0.1217359,0.03695667,-40.49062,-34.07664,22.40497
25.588151932,-4.430431,-32.89545,11.90047,1.02752,0.1246303,0.04280755,-40.49062,-34.07664,22.40497
25.59801054,-3.37446,-28.31326,10.73571,1.034337,0.1217525,0.03789411,-40.49062,-34.07664,22.40497
25.607869148,-2.256374,-23.67157,9.81616800000001,1.034709,0.1305115,0.03700433,-38.98772,-34.45047,23.23319
25.617727756,-1.635215,-19.2084,8.71271399999999,1.042095,0.1330313,0.04267073,-38.98772,-34.45047,23.23319
25.627587318,-1.076172,-14.38817,7.73186600000001,1.060626,0.1405028,0.04486566,-38.98772,-34.45047,23.23319
25.63744545,-0.951939799999999,-9.09187900000003,6.87362400000002,1.082252,0.1504869,0.06093448,-38.98772,-34.45047,23.23319
25.649768829,-1.448867,-2.248351,5.341049,1.09765,0.1560581,0.08280522,-38.98772,-34.45047,23.23319
25.659627438,-1.883678,3.643033,4.482807,1.109202,0.1586847,0.1071019,-38.98328,-34.06985,24.12561
25.669486046,-3.250229,10.01049,2.888929,1.12575,0.1618725,0.1394785,-38.98328,-34.06985,24.12561
25.679345608,-4.616779,16.79451,1.111142,1.138333,0.1606169,0.164207,-38.98328,-34.06985,24.12561
25.689204216,-6.04544500000002,24.41165,-0.3601296,1.146975,0.1622482,0.1894951,-38.98328,-34.06985,24.12561
25.699062824,-7.41199499999999,32.80241,-2.015311,1.148249,0.1686882,0.2168457,-38.98328,-34.06985,24.12561
25.708921432,-9.02700799999998,41.3717,-3.793097,1.154126,0.1659479,0.250762,-39.73919,-33.70554,23.22951
25.718780041,-10.45567,50.17902,-5.264369,1.139762,0.1717654,0.2788094,-39.73919,-33.70554,23.22951
25.728639126,-12.75396,59.1053600000003,-6.91955000000002,1.121222,0.189191,0.2979094,-39.73919,-33.70554,23.22951
25.738497734,-15.79764,68.8053199999997,-8.75863999999999,1.125643,0.2146228,0.3215418,-39.73919,-33.70554,23.22951
25.748356342,-19.58672,78.8028200000001,-10.78164,1.135711,0.2147906,0.3424845,-39.73919,-33.70554,23.22951
25.758214951,-22.56828,89.3358999999999,-12.92724,1.157895,0.2063813,0.3833085,-40.87234,-33.71576,21.57095
25.768073559,-24.86657,100.4046,-15.01155,1.18093,0.1828093,0.4014701,-40.87234,-33.71576,21.57095
25.777932644,-24.86657,111.7708,-16.97324,1.194914,0.1634835,0.4054204,-40.87234,-33.71576,21.57095
25.787791252,-22.38193,123.375,-19.24145,1.220503,0.1593578,0.4126881,-40.87234,-33.71576,21.57095
25.79764986,-18.22017,135.1578,-21.20315,1.262161,0.1690243,0.4265519,-40.87234,-33.71576,21.57095
25.807508469,-13.99628,146.524,-23.77787,1.304684,0.1767142,0.4303236,-41.26322,-34.48872,18.63579
25.817367077,-9.46182000000001,157.2356,-26.59781,1.345831,0.1849056,0.441307,-41.26322,-34.48872,18.63579
25.829690933,-3.871388,169.1969,-30.03078,1.391279,0.1989654,0.4498827,-41.26322,-34.48872,18.63579
25.839549541,-0.2686647,177.5281,-32.78941,1.427244,0.2167952,0.448083,-41.26322,-34.48872,18.63579
25.84940815,2.340204,184.8477,-35.54805,1.46806,0.2346569,0.4433393,-41.26322,-34.48872,18.63579
25.859266758,3.830986,191.2152,-38.36799,1.489849,0.2567577,0.4460904,-42.04778,-34.92396,13.20225
25.869125366,3.955218,196.809,-41.24923,1.506915,0.261776,0.4463688,-42.04778,-34.92396,13.20225
25.878984928,3.706754,201.7483,-43.33353,1.492473,0.2669478,0.4322422,-42.04778,-34.92396,13.20225
25.888843536,3.334059,205.6164,-44.49829,1.468223,0.2856968,0.4284333,-42.04778,-34.92396,13.20225
25.898702145,0.787305800000002,208.7108,-45.78565,1.449026,0.2859821,0.4200837,-42.04778,-34.92396,13.20225
25.908560753,-1.759447,211.6268,-46.27607,1.422964,0.2881553,0.4123271,-42.46137,-35.36887,7.382693
25.918419361,-4.057736,213.7096,-46.39868,1.396948,0.2942471,0.4113117,-42.46137,-35.36887,7.382693
25.928277969,-6.977184,214.9593,-46.27607,1.367278,0.3031725,0.3959963,-42.46137,-35.36887,7.382693
25.938137054,-10.45567,216.0899,-45.84695,1.343788,0.3068678,0.3987583,-42.46137,-35.36887,7.382693
25.947995663,-13.62359,216.0304,-45.47913,1.324322,0.3023294,0.4023519,-42.46137,-35.36887,7.382693
25.957854271,-16.48092,215.3758,-45.35653,1.306813,0.2895086,0.3986596,-42.51441,-36.21564,-0.5474777
25.967712879,-19.21402,214.7807,-45.23392,1.297795,0.2805817,0.375232,-42.51441,-36.21564,-0.5474777
25.977571487,-18.77921,212.9955,-43.82396,1.278258,0.2864113,0.4186876,-42.51441,-36.21564,-0.5474777
25.987431049,-19.5246,209.782,-43.08832,1.249233,0.296009,0.4512886,-42.51441,-36.21564,-0.5474777
25.999753952,-25.79831,207.5206,-42.23008,1.196517,0.3393794,0.4624692,-42.51441,-36.21564,-0.5474777
26.00961256,-33.31433,206.3305,-41.24923,1.170951,0.3493701,0.4619595,-40.32156,-36.70947,-7.724843
26.019471169,-39.8365,205.3188,-41.18792,1.147686,0.3038188,0.4379467,-40.32156,-36.70947,-7.724843
26.029329777,-40.45766,203.6526,-40.7588,1.120931,0.2402892,0.4291662,-40.32156,-36.70947,-7.724843
26.039189339,-36.66859,200.5581,-40.45229,1.067671,0.2004232,0.4348601,-40.32156,-36.70947,-7.724843
26.049047947,-35.36415,197.8802,-39.90056,1.023281,0.2038356,0.4115616,-40.32156,-36.70947,-7.724843
26.058906555,-34.30819,195.4403,-38.6745,0.9753876,0.2107477,0.4214073,-37.39,-37.22886,-16.12233
26.068765163,-33.25221,192.4054,-37.44844,0.9220409,0.1825746,0.4310347,-37.39,-37.22886,-16.12233
26.078623772,-31.01604,188.2993,-36.09978,0.8643068,0.1465551,0.4349079,-37.39,-37.22886,-16.12233
26.088482857,-29.02833,183.8956,-34.5672,0.7979143,0.1497757,0.4124006,-37.39,-37.22886,-16.12233
26.098341465,-24.6181,178.1827,-32.66681,0.7370644,0.1317431,0.4188661,-37.39,-37.22886,-16.12233
26.108200073,-21.51231,171.9938,-31.13423,0.7026621,0.1080947,0.4225112,-31.89144,-37.3802,-22.42434
26.118058682,-15.92188,165.6264,-29.60166,0.6645843,0.08643247,0.4453935,-31.89144,-37.3802,-22.42434
26.12791729,-12.62973,160.8061,-27.76257,0.6309932,0.08618002,0.4573709,-31.89144,-37.3802,-22.42434
26.137776375,-10.26933,156.7595,-25.67827,0.5916451,0.1033488,0.4571182,-31.89144,-37.3802,-22.42434
26.147634983,-8.53008099999998,151.6418,-24.82002,0.5093673,0.1069881,0.4540088,-31.89144,-37.3802,-22.42434
26.157493591,-7.16353100000001,143.7271,-24.3296,0.4334502,0.0774847,0.421777,-26.69437,-37.13663,-27.06415
26.1673522,-3.622924,133.7891,-23.47136,0.3726791,0.05933944,0.3980508,-26.69437,-37.13663,-27.06415
26.179675579,-1.076172,120.2805,-22.12269,0.3320422,0.06971103,0.4049471,-26.69437,-37.13663,-27.06415
26.189534664,-2.070026,112.1278,-20.89663,0.3094597,0.09145919,0.4183909,-26.69437,-37.13663,-27.06415
26.199393272,-4.554663,105.2843,-20.52881,0.276748,0.05616998,0.4281433,-26.69437,-37.13663,-27.06415
26.209251881,-1.448867,98.2622399999998,-20.09969,0.2198726,-0.02856242,0.4162589,-21.49057,-36.50798,-30.49146
26.219110489,5.694463,89.9309900000003,-19.18015,0.2008043,-0.05069873,0.397655,-21.49057,-36.50798,-30.49146
26.228969097,9.23507000000002,81.7187599999999,-18.07669,0.181959,-0.01640749,0.3732947,-21.49057,-36.50798,-30.49146
26.238828659,11.47124,73.6255400000002,-16.36021,0.1465735,0.008133365,0.3831109,-21.49057,-36.50798,-30.49146
26.248687267,11.71971,65.0562499999999,-14.88894,0.1151248,0.005374856,0.3705974,-21.49057,-36.50798,-30.49146
26.258545876,11.90605,55.59433,-13.04985,0.08921403,0.01247325,0.3782146,-17.07011,-36.19091,-30.51809
26.268404484,9.98046100000001,46.7275,-10.90425,0.07394853,0.04306852,0.3978584,-17.07011,-36.19091,-30.51809
26.278263092,3.76887,38.33674,-8.206914,0.06250168,0.07171848,0.4088057,-17.07011,-36.19091,-30.51809
26.288122177,-3.560808,30.36255,-5.81609599999999,0.05035416,0.08139814,0.4234365,-17.07011,-36.19091,-30.51809
26.297980785,-9.33758799999999,22.7454,-3.057462,0.05000319,0.07801564,0.430601,-17.07011,-36.19091,-30.51809
26.307839394,-13.49935,15.66384,-0.789250600000002,0.05050506,0.06546487,0.4563647,-14.45476,-36.59461,-30.91193
26.317698002,-15.17648,9.05834700000001,1.049839,0.05065955,0.04757971,0.4878387,-14.45476,-36.59461,-30.91193
26.32755661,-14.36898,2.393346,2.643717,0.05929214,0.03469664,0.5355268,-14.45476,-36.59461,-30.91193
26.337416172,-12.87819,-3.319512,3.93108,0.0793182,0.04818282,0.5808792,-14.45476,-36.59461,-30.91193
26.349739075,-11.88434,-10.28206,5.341049,0.08405764,0.08249371,0.63573,-14.45476,-36.59461,-30.91193
26.359597683,-11.63588,-15.10228,6.13798800000002,0.08253571,0.1074999,0.689633,-12.96784,-36.25531,-31.7556
26.369456291,-11.88434,-19.14889,6.87362400000002,0.09950877,0.1331322,0.7370481,-12.96784,-36.25531,-31.7556
26.3793149,-12.38127,-22.65992,7.67056300000001,0.1093053,0.1567925,0.7946122,-12.96784,-36.25531,-31.7556
26.389174461,-14.36898,-25.51634,8.28359300000002,0.1259996,0.170763,0.847204,-12.96784,-36.25531,-31.7556
26.39903307,-16.7915,-26.28996,8.590108,0.1533546,0.1706413,0.8798779,-12.96784,-36.25531,-31.7556
26.408891678,-15.73553,-25.27831,8.590108,0.1652856,0.1567762,0.9174476,-13.33755,-36.98729,-31.74613
26.418750286,-12.31915,-24.26666,7.97707799999999,0.1757697,0.1477863,0.9608294,-13.33755,-36.98729,-31.74613
26.428608894,-8.84066099999998,-23.255,7.057533,0.1711524,0.1522153,0.9848926,-13.33755,-36.98729,-31.74613
26.43846798,-5.05159,-22.00532,6.19929100000001,0.1795517,0.1654947,1.002615,-13.33755,-36.98729,-31.74613
26.448326588,0.600958099999998,-21.70777,5.83147299999998,0.1670672,0.1854662,1.037464,-13.33755,-36.98729,-31.74613
26.458185196,4.390029,-22.95746,5.279747,0.1667227,0.2255377,1.083331,-15.21222,-35.86127,-31.74778
26.468043804,4.017333,-23.73108,4.789322,0.1822729,0.2671461,1.112213,-15.21222,-35.86127,-31.74778
26.477902413,1.470581,-23.55255,4.482807,0.1972551,0.2610165,1.129199,-15.21222,-35.86127,-31.74778
26.487761498,0.3524944,-22.89795,4.298898,0.2150487,0.2421838,1.125911,-15.21222,-35.86127,-31.74778
26.497620106,-0.951939799999999,-21.64826,3.808474,0.2193823,0.2264447,1.071088,-15.21222,-35.86127,-31.74778
26.507478714,-0.703476100000001,-19.80349,3.195444,0.2057007,0.2125223,1.024204,-16.3314,-36.21646,-31.73822
26.517337322,0.04191487,-18.85134,2.70502,0.1966573,0.1907593,0.9517897,-16.3314,-36.21646,-31.73822
26.529660702,3.085595,-20.33907,2.582414,0.1646225,0.1746515,0.8845432,-16.3314,-36.21646,-31.73822
26.539520264,5.13542,-24.62371,2.643717,0.1376286,0.1718116,0.8398592,-16.3314,-36.21646,-31.73822
26.549378872,6.00504300000001,-32.18135,3.440656,0.1132083,0.1801239,0.7784606,-16.3314,-36.21646,-31.73822
26.55923748,5.197536,-42.47639,4.666717,0.10095,0.1759664,0.7369099,-16.70437,-35.83866,-31.35597
26.569096088,0.725189899999998,-53.06898,6.50580599999999,0.1255311,0.1725298,0.6708803,-16.70437,-35.83866,-31.35597
26.578954697,-3.871388,-62.8879500000001,8.16098699999997,0.1676527,0.160088,0.6275262,-16.70437,-35.83866,-31.35597
26.588813782,-9.83451600000002,-69.37443,9.632258,0.2275341,0.1366155,0.5852635,-16.70437,-35.83866,-31.35597
26.59867239,-14.36898,-72.4688899999998,10.98092,0.2824552,0.1233329,0.5469911,-16.70437,-35.83866,-31.35597
26.608530998,-16.54304,-72.8854600000002,11.59396,0.3055328,0.1136612,0.5087238,-17.44384,-36.18659,-30.51616
26.618389606,-17.35054,-72.7664399999999,11.47135,0.2975502,0.1036479,0.4526867,-17.44384,-36.18659,-30.51616
26.628248215,-13.49935,-74.1351499999998,10.91962,0.2804548,0.07079248,0.4258179,-17.44384,-36.18659,-30.51616
26.6381073,-7.47411100000001,-78.0627400000001,10.00008,0.2866309,0.04554391,0.425996,-17.44384,-36.18659,-30.51616
26.647965908,-2.256374,-82.6449199999999,8.95792600000003,0.3195725,0.02635246,0.4210517,-17.44384,-36.18659,-30.51616
26.657824516,5.694463,-86.9890699999998,9.01922900000002,0.3516803,0.02965198,0.4464987,-20.0535,-36.1439,-29.60645
26.667683124,15.32243,-92.64243,9.01922900000002,0.3741698,0.04218839,0.4922872,-20.0535,-36.1439,-29.60645
26.677541733,22.83846,-99.1884100000001,8.71271399999999,0.4008576,0.07898165,0.5085101,-20.0535,-36.1439,-29.60645
26.687401295,29.17428,-105.7344,8.95792600000003,0.4264671,0.140149,0.5388508,-20.0535,-36.1439,-29.60645
26.699724197,30.29236,-114.0061,9.50965299999998,0.4609421,0.1862766,0.5603127,-20.0535,-36.1439,-29.60645
26.709582806,29.79544,-120.7901,10.98092,0.5129563,0.1883814,0.6094259,-22.22363,-35.72741,-27.93459
26.719441414,26.06848,-125.2533,12.4522,0.5697278,0.2006087,0.6216583,-22.22363,-35.72741,-27.93459
26.729300022,22.96269,-128.2288,14.16868,0.594405,0.1974699,0.6346978,-22.22363,-35.72741,-27.93459
26.739159584,20.91286,-130.9662,15.39474,0.5984237,0.172635,0.6205341,-22.22363,-35.72741,-27.93459
26.749018192,21.72037,-134.1201,15.94647,0.6121945,0.1498306,0.6057694,-22.22363,-35.72741,-27.93459
26.7588768,26.37906,-137.9882,16.74341,0.6660292,0.1524021,0.6452766,-26.30672,-36.3699,-24.57708
26.768735409,25.26097,-139.595,17.54035,0.7258281,0.1826109,0.6442,-26.30672,-36.3699,-24.57708
26.778594017,22.96269,-139.1189,18.6438,0.7518487,0.2141138,0.6785974,-26.30672,-36.3699,-24.57708
26.788453102,20.85075,-138.2263,19.68595,0.7738352,0.2085775,0.7074685,-26.30672,-36.3699,-24.57708
26.79831171,17.80707,-137.8692,19.50204,0.7754717,0.2080153,0.6834804,-26.30672,-36.3699,-24.57708
26.808170319,17.43437,-138.9999,19.56334,0.794643,0.193917,0.6418771,-30.38259,-36.62642,-19.94307
26.818028927,19.73266,-141.4397,18.76641,0.8409984,0.1654897,0.6079117,-30.38259,-36.62642,-19.94307
26.827887535,24.63982,-144.9508,17.96947,0.8957485,0.1379998,0.5446035,-30.38259,-36.62642,-19.94307
26.83774662,32.40431,-149.1759,17.54035,0.9557018,0.140912,0.5308352,-30.38259,-36.62642,-19.94307
26.847605228,42.09439,-153.2225,18.88901,0.9900087,0.167868,0.6307264,-30.38259,-36.62642,-19.94307
26.857463837,42.65343,-154.9483,20.17637,0.9905803,0.218048,0.6450385,-33.33327,-37.63219,-15.30731
26.867322445,37.62204,-152.8655,21.89286,0.9934635,0.2663936,0.6837415,-33.33327,-37.63219,-15.30731
26.879646778,29.85755,-147.6882,23.79325,1.00211,0.2836493,0.7230582,-33.33327,-37.63219,-15.30731
26.889505386,23.27327,-142.6894,23.60934,0.9938521,0.2775985,0.6862264,-33.33327,-37.63219,-15.30731
26.899363995,19.98112,-137.6312,23.97716,0.9948338,0.2624731,0.6731464,-33.33327,-37.63219,-15.30731
26.909222603,16.31628,-133.1085,23.60934,1.007457,0.2516822,0.6206427,-35.84476,-37.52073,-9.40484
26.919081211,14.08011,-130.1331,22.62849,1.00267,0.2284517,0.5361758,-35.84476,-37.52073,-9.40484
26.928940296,13.58318,-129.7165,21.95416,1.02893,0.204936,0.432096,-35.84476,-37.52073,-9.40484
26.938798904,16.19205,-130.6686,21.46374,1.063253,0.1791156,0.3432162,-35.84476,-37.52073,-9.40484
26.948657513,21.28556,-133.9416,20.6055,1.092254,0.1703524,0.2737241,-35.84476,-37.52073,-9.40484
26.958516121,27.49715,-137.8692,20.54419,1.108456,0.176724,0.2476702,-39.16796,-38.14779,-4.322824
26.968374729,33.70874,-142.1539,20.85071,1.113332,0.2236327,0.2877702,-39.16796,-38.14779,-4.322824
26.978233337,35.44799,-145.9624,20.97331,1.108385,0.2514026,0.3082014,-39.16796,-38.14779,-4.322824
26.988092422,33.02547,-148.0452,21.21853,1.118137,0.2661269,0.3187291,-39.16796,-38.14779,-4.322824
26.997951031,29.79544,-148.7594,22.32198,1.115162,0.2701305,0.3552244,-39.16796,-38.14779,-4.322824
27.007809639,24.82616,-148.0452,22.93501,1.125415,0.2591218,0.3799037,-40.25204,-37.69096,1.120375
27.017668247,21.34767,-145.9624,23.36413,1.12818,0.237264,0.3839927,-40.25204,-37.69096,1.120375
27.027526855,19.60843,-142.6299,24.34498,1.125713,0.2280953,0.4103065,-40.25204,-37.69096,1.120375
27.037386417,15.26031,-138.4643,24.59019,1.11844,0.2182843,0.4064937,-40.25204,-37.69096,1.120375
27.04970932,11.78182,-131.3232,24.7741,1.108599,0.1874231,0.3752255,-40.25204,-37.69096,1.120375
27.059567928,11.84394,-126.2055,24.65149,1.102914,0.1662951,0.3343963,-40.58344,-37.60468,7.011576
27.069426537,13.14837,-121.8613,23.67065,1.112614,0.1588993,0.2857965,-40.58344,-37.60468,7.011576
27.079286098,16.0057,-117.9932,23.36413,1.127589,0.1554267,0.2328418,-40.58344,-37.60468,7.011576
27.089144707,19.29785,-115.5534,22.99631,1.15046,0.1598547,0.1918212,-40.58344,-37.60468,7.011576
27.099003315,21.65825,-113.8276,23.05762,1.167347,0.170057,0.1475803,-40.58344,-37.60468,7.011576
27.108861923,22.27941,-113.2325,23.91586,1.176003,0.2012037,0.1280726,-40.17859,-37.1767,11.61487
27.118720531,20.2917,-112.935,25.08061,1.173314,0.2380829,0.1068582,-40.17859,-37.1767,11.61487
27.128579617,15.81936,-112.6374,26.00016,1.172127,0.2551026,0.1065396,-40.17859,-37.1767,11.61487
27.138438225,10.85008,-112.3994,26.8584,1.162304,0.2530517,0.1018703,-40.17859,-37.1767,11.61487
27.148296833,5.81869499999997,-111.8043,27.04231,1.16008,0.2360055,0.1031957,-40.17859,-37.1767,11.61487
27.158155441,1.967508,-110.5546,27.28752,1.154082,0.2023645,0.1001221,-40.52488,-36.74722,15.70991
27.16801405,0.04191487,-108.7693,27.41013,1.147106,0.1740858,0.1018997,-40.52488,-36.74722,15.70991
27.177873611,-0.2686647,-106.0319,27.34883,1.144913,0.1467955,0.09642941,-40.52488,-36.74722,15.70991
27.18773222,1.222117,-102.6399,26.7358,1.141322,0.1180473,0.09480038,-40.52488,-36.74722,15.70991
27.197590828,3.76887,-98.6528199999999,26.24537,1.135956,0.1101925,0.08906017,-40.52488,-36.74722,15.70991
27.207449436,5.88081099999999,-94.6657299999999,25.75495,1.127543,0.1183911,0.08924926,-39.38729,-36.35638,18.2609
27.217308044,6.93678100000001,-90.3215699999997,25.01931,1.120524,0.1339051,0.09043863,-39.38729,-36.35638,18.2609
27.229631901,6.93678100000001,-84.72774,23.97716,1.110052,0.1386396,0.08008544,-39.38729,-36.35638,18.2609
27.239490509,6.439854,-80.08604,22.87371,1.097124,0.1448142,0.07025863,-39.38729,-36.35638,18.2609
27.249349117,5.632347,-75.50385,22.01546,1.096159,0.1360212,0.06348939,-39.38729,-36.35638,18.2609
27.259207726,5.259652,-71.0406800000003,20.97331,1.087634,0.1432114,0.05456679,-39.36739,-35.57376,21.58208
27.269066334,4.265797,-66.57751,20.05377,1.086074,0.1421957,0.04691325,-39.36739,-35.57376,21.58208
27.278925419,3.147711,-61.9953199999999,18.95032,1.080212,0.1426343,0.0479589,-39.36739,-35.57376,21.58208
27.288784027,2.153856,-57.1751,17.72425,1.080542,0.1450344,0.03839046,-39.36739,-35.57376,21.58208
27.298642635,1.470581,-52.23586,16.74341,1.089264,0.1514355,0.03784097,-39.36739,-35.57376,21.58208
27.308501244,0.5388422,-47.35612,15.94647,1.084252,0.1616106,0.03799828,-39.35098,-35.16998,24.13886
27.318359852,-1.076172,-42.35737,14.96562,1.084763,0.1591801,0.03749128,-39.35098,-35.16998,24.13886
27.328218937,-2.31849,-37.1801,13.67826,1.07514,0.1523042,0.04332079,-39.35098,-35.16998,24.13886
27.338077545,-3.250229,-32.06233,12.5135,1.075658,0.1449932,0.03893892,-39.35098,-35.16998,24.13886
27.347936153,-3.125997,-26.76603,11.28744,1.07332,0.1386554,0.04131475,-39.35098,-35.16998,24.13886
27.357794762,-2.442722,-21.46974,10.4292,1.063167,0.1346928,0.04669721,-37.84933,-34.80216,25.34362
27.367654324,-1.262519,-15.45933,9.01922900000002,1.057861,0.1317371,0.0496231,-37.84933,-34.80216,25.34362
27.377512932,-0.3307806,-9.62745900000001,7.97707799999999,1.048621,0.1321586,0.05407114,-37.84933,-34.80216,25.34362
27.38737154,0.2903785,-3.795583,6.81232100000002,1.043959,0.1457162,0.047064,-37.84933,-34.80216,25.34362
27.399694443,0.5388422,3.226471,5.402352,1.036174,0.1461469,0.05053299,-37.84933,-34.80216,25.34362
27.409553051,0.663074000000001,9.11785500000002,4.360201,1.035118,0.146116,0.04479739,-38.21984,-34.79161,25.79365
27.419412613,0.911537699999999,14.53317,3.256747,1.045282,0.1534995,0.04327723,-38.21984,-34.79161,25.79365
27.429271221,0.973653600000002,20.30553,1.846778,1.064089,0.1493322,0.05543321,-38.21984,-34.79161,25.79365
27.43912983,0.663074000000001,26.25643,0.3755064,1.080807,0.1524333,0.0643259,-38.21984,-34.79161,25.79365
27.448988438,0.04191487,32.50487,-0.911856500000002,1.089146,0.1642307,0.0762866,-38.21984,-34.79161,25.79365
27.458847046,-1.138287,38.81281,-2.567038,1.100546,0.1653493,0.08811355,-38.22984,-34.0669,24.95393
27.468706131,-1.945794,45.47781,-4.038309,1.120011,0.1568405,0.1088491,-38.22984,-34.0669,24.95393
27.478564739,-2.504838,52.14281,-5.87739899999999,1.133532,0.1502115,0.1258516,-38.22984,-34.0669,24.95393
27.488423348,-3.063881,58.9863399999999,-7.40997399999998,1.137617,0.156642,0.1440572,-38.22984,-34.0669,24.95393
27.498281956,-4.057736,66.3059400000001,-9.003853,1.143652,0.1635763,0.1622393,-38.22984,-34.0669,24.95393
27.508140564,-5.73486500000002,73.9230900000003,-10.65903,1.15382,0.1603547,0.1874648,-39.35902,-33.69738,24.12378
27.518000126,-7.03929899999998,81.7782699999998,-12.069,1.153061,0.1682205,0.2105436,-39.35902,-33.69738,24.12378
27.527858734,-8.40584900000001,89.57394,-13.41767,1.149796,0.1779999,0.230799,-39.35902,-33.69738,24.12378
27.537717343,-11.01472,97.3696100000002,-14.70503,1.149514,0.1863547,0.2533959,-39.35902,-33.69738,24.12378
27.547575951,-13.74782,105.6413,-16.1763,1.16912,0.1676333,0.2754808,-39.35902,-33.69738,24.12378
27.557434559,-14.67956,114.5082,-17.52497,1.182168,0.1629574,0.2953818,-40.11488,-34.4491,22.40681
27.569758415,-15.30072,125.2793,-19.30276,1.203914,0.1622349,0.3108793,-40.11488,-34.4491,22.40681
27.579617023,-15.42495,133.7296,-21.01924,1.222178,0.1614656,0.3221133,-40.11488,-34.4491,22.40681
27.589475632,-15.2386,142.5369,-22.49051,1.246622,0.1587483,0.3183876,-40.11488,-34.4491,22.40681
27.59933424,-13.80993,150.6896,-24.207,1.273322,0.1642985,0.3079907,-41.27322,-33.764,17.79607
27.609193325,-12.38127,157.7117,-25.98478,1.295839,0.1728017,0.3163671,-41.27322,-33.764,17.79607
27.619051933,-11.13895,164.6147,-27.63996,1.335886,0.1648383,0.3042284,-41.27322,-33.764,17.79607
27.628910541,-7.84680700000002,170.9227,-29.04993,1.367212,0.1685384,0.3086051,-41.27322,-33.764,17.79607
27.63876915,-4.430431,176.2785,-30.76641,1.395835,0.1825311,0.338984,-41.27322,-33.764,17.79607
27.648627758,-2.877533,180.6226,-31.86987,1.413777,0.2148695,0.3557732,-41.27322,-33.764,17.79607
27.658486843,-3.747156,185.2048,-32.72811,1.418889,0.2534104,0.3699224,-42.42552,-34.18335,13.19664
27.668345451,-7.16353100000001,189.787,-32.97332,1.417322,0.2733862,0.3801765,-42.42552,-34.18335,13.19664
27.67820406,-11.01472,193.3575,-32.91202,1.408996,0.2703805,0.3769155,-42.42552,-34.18335,13.19664
27.688062668,-14.12051,195.7379,-32.72811,1.399838,0.2556902,0.3740468,-42.42552,-34.18335,13.19664
27.697921276,-15.11437,197.9992,-32.36029,1.387484,0.2366408,0.3841253,-42.42552,-34.18335,13.19664
27.707780838,-16.17034,199.4274,-32.29899,1.376748,0.2306941,0.3808737,-42.84585,-35.01333,6.164592
27.717639446,-16.72938,201.0937,-32.23769,1.353669,0.2304658,0.3744919,-42.84585,-35.01333,6.164592
27.727498054,-15.85976,201.3912,-31.25684,1.327125,0.2371656,0.4070332,-42.84585,-35.01333,6.164592
27.737356663,-17.16419,201.2127,-31.25684,1.312468,0.2521761,0.4217447,-42.84585,-35.01333,6.164592
27.749680042,-21.0775,201.3912,-31.19554,1.272212,0.2600801,0.4185515,-41.77097,-35.48798,-0.5588818
27.759539127,-22.69251,200.4986,-30.95033,1.233193,0.2666017,0.4330595,-41.77097,-35.48798,-0.5588818
27.769397736,-25.23926,198.2372,-31.44075,1.202512,0.2541623,0.4324334,-41.77097,-35.48798,-0.5588818
27.779256344,-27.7239,196.571,-31.31814,1.176081,0.2534359,0.4308872,-41.77097,-35.48798,-0.5588818
27.789114952,-29.71161,194.9048,-31.19554,1.136617,0.267154,0.4191062,-41.77097,-35.48798,-0.5588818
27.798974037,-32.69317,193.4765,-31.25684,1.107165,0.2654007,0.4104064,-41.82124,-36.3294,-8.10497
27.808832645,-33.25221,190.4416,-31.25684,1.06023,0.2426693,0.4286139,-41.82124,-36.3294,-8.10497
27.818691254,-34.30819,186.9306,-31.62466,1.034603,0.2301845,0.4039554,-41.82124,-36.3294,-8.10497
27.828549862,-33.50068,182.6459,-31.50205,0.993757,0.2274494,0.4198489,-41.82124,-36.3294,-8.10497
27.83840847,-34.05972,178.2422,-31.25684,0.9535792,0.2221935,0.4107931,-41.82124,-36.3294,-8.10497
27.848268032,-34.30819,173.9576,-30.88902,0.899188,0.2105926,0.4301592,-41.82124,-36.3294,-8.10497
27.85812664,-35.30204,169.4944,-30.21469,0.8447626,0.1848232,0.4345511,-38.50721,-36.83619,-15.28813
27.867985249,-34.743,165.9239,-29.41775,0.8060518,0.1626274,0.4464163,-38.50721,-36.83619,-15.28813
27.877843857,-32.50682,163.127,-28.25299,0.7723716,0.1512555,0.4779483,-38.50721,-36.83619,-15.28813
27.887702465,-33.06587,161.6393,-27.27214,0.7529169,0.1666024,0.4639791,-38.50721,-36.83619,-15.28813
27.89756155,-32.63105,160.3896,-26.59781,0.7203748,0.1527084,0.4691176,-38.50721,-36.83619,-15.28813
27.907420158,-29.2768,157.8307,-26.04609,0.682498,0.1174331,0.4947573,-33.7649,-35.87979,-21.98167
27.919743538,-27.10274,154.7957,-24.57481,0.6441026,0.1350915,0.4930576,-33.7649,-35.87979,-21.98167
27.929602146,-25.11503,152.7129,-23.16484,0.6099755,0.1338449,0.5007214,-33.7649,-35.87979,-21.98167
27.939460754,-22.31981,148.7258,-22.85833,0.5678624,0.09613694,0.5364642,-33.7649,-35.87979,-21.98167
27.949319839,-17.599,143.9056,-22.3066,0.5341139,0.06082241,0.5419184,-29.69424,-35.26136,-27.06755
27.959178448,-11.38741,138.6093,-21.20315,0.5041255,0.07578615,0.5803288,-29.69424,-35.26136,-27.06755
27.969037056,-7.10141600000002,133.4915,-20.2223,0.4694947,0.1038246,0.6126861,-29.69424,-35.26136,-27.06755
27.978895664,-4.554663,127.7192,-19.85448,0.4132574,0.1087024,0.6188,-29.69424,-35.26136,-27.06755
27.988754272,0.3524944,119.1499,-19.91578,0.3618457,0.1010459,0.6448658,-29.69424,-35.26136,-27.06755
27.998613358,2.961363,110.6996,-20.40621,0.3494426,0.1437169,0.6339018,-23.73976,-34.63511,-30.05063
28.008471966,3.209827,104.8677,-21.44836,0.3169474,0.1176305,0.6317489,-23.73976,-34.63511,-30.05063
28.018330574,6.81255000000002,99.5119200000003,-22.184,0.2695989,0.02425866,0.6292397,-23.73976,-34.63511,-30.05063
28.028189182,15.38455,93.9775900000001,-22.73572,0.2393643,-0.02968781,0.5889626,-23.73976,-34.63511,-30.05063
28.038048744,24.76405,88.6813000000001,-21.93878,0.2213521,-0.01775257,0.570152,-23.73976,-34.63511,-30.05063
28.047907352,30.72718,83.4445099999998,-22.184,0.1900899,0.007100665,0.5238457,-19.70299,-34.70503,-31.73592
28.057765961,34.14355,76.7200099999997,-21.87748,0.1390007,0.0303771,0.4931432,-19.70299,-34.70503,-31.73592
