Time (s),Gyroscope X (deg/s),Gyroscope Y (deg/s),Gyroscope Z (deg/s),Accelerometer X (g),Accelerometer Y (g),Accelerometer Z (g),Magnetometer X (uT),Magnetometer Y (uT),Magnetometer Z (uT)
12.174107552,6.50197000000002,20.00799,0.3755064,0.9557215,0.07113139,0.2197248,-39.11702,-40.90949,26.37344
12.183965206,2.340204,32.80241,3.685868,0.9496962,0.07480585,0.1757553,-39.11702,-40.90949,26.37344
12.193822861,-0.641360199999998,45.23978,7.057533,0.9534743,0.07187254,0.1632175,-39.11702,-40.90949,26.37344
12.203680038,-2.504838,57.8556700000001,10.85832,0.9798238,0.07892264,0.1643391,-39.11702,-40.90949,26.37344
12.21353817,-4.865242,69.8169700000003,13.92347,0.997538,0.06787887,0.1620766,-39.11702,-40.90949,26.37344
12.223396301,-5.486402,82.0163000000003,17.11123,1.036921,0.03900253,0.1545628,-38.75526,-40.93697,24.70715
12.233253479,-4.244083,94.39416,20.36028,1.052979,0.03228607,0.1422973,-38.75526,-40.93697,24.70715
12.243111134,-2.132142,105.1653,23.67065,1.07967,0.01928122,0.1149719,-38.75526,-40.93697,24.70715
12.252968788,1.408465,116.353,26.7971,1.119223,-0.001382114,0.09123224,-38.75526,-40.93697,24.70715
12.262826443,5.197536,126.5885,30.23007,1.193843,-0.03002469,0.1924757,-38.75526,-40.93697,24.70715
12.272683621,8.61391200000001,140.3946,32.62088,1.176069,-0.01243316,0.1243519,-39.89317,-40.58438,22.66073
12.282541752,11.09855,148.6663,34.58258,1.194219,0.001276623,0.1040826,-39.89317,-40.58438,22.66073
12.294863701,13.33472,158.1877,36.72818,1.269736,0.01677764,0.1663914,-39.89317,-40.58438,22.66073
12.304721832,13.6453,172.1723,38.62858,1.286915,0.04352789,0.122286,-39.89317,-40.58438,22.66073
12.31457901,11.34701,179.3729,39.79333,1.334957,0.05263447,0.1015517,-39.89317,-40.58438,22.66073
12.324436665,9.42141799999999,187.4661,40.59027,1.394905,0.06544476,0.1319534,-41.80478,-40.27394,16.96939
12.334294319,5.383883,194.4287,40.40636,1.423335,0.07254735,0.1421506,-41.80478,-40.27394,16.96939
12.344151974,1.470581,198.7133,40.40636,1.476196,0.05718235,0.2021258,-41.80478,-40.27394,16.96939
12.354009152,-1.448867,207.6992,41.57112,1.507876,0.06950093,0.1682343,-41.80478,-40.27394,16.96939
12.363867283,-4.927359,213.1145,42.24545,1.539033,0.06987052,0.1931909,-41.80478,-40.27394,16.96939
12.373724461,-9.27547199999997,219.0654,42.49067,1.55596,0.07303103,0.2174155,-43.72241,-38.85907,11.26673
12.383582592,-12.94031,224.4807,43.10369,1.574356,0.05681129,0.2606236,-43.72241,-38.85907,11.26673
12.393440247,-16.48092,230.6101,45.06539,1.57985,0.07251456,0.282721,-43.72241,-38.85907,11.26673
12.403297901,-20.14576,235.7279,46.59797,1.576009,0.08519429,0.2991755,-43.72241,-38.85907,11.26673
12.413155556,-23.68637,239.7745,48.25315,1.582916,0.06978372,0.3257822,-43.72241,-38.85907,11.26673
12.423012734,-26.97851,243.226,50.95048,1.578551,0.04645547,0.3438571,-45.28316,-37.17112,3.446549
12.432870865,-28.28294,247.5702,54.44475,1.571549,0.06490375,0.3489046,-45.28316,-37.17112,3.446549
12.442728043,-29.2768,249.891,56.09993,1.577265,0.08115858,0.3877754,-45.28316,-37.17112,3.446549
12.452586174,-30.95393,248.5223,55.18039,1.595256,0.06948768,0.4770308,-45.28316,-37.17112,3.446549
12.464908123,-28.40718,258.8769,59.0424799999999,1.582,0.09056856,0.4203729,-45.28316,-37.17112,3.446549
12.474765778,-25.42561,253.8781,56.95817,1.538792,0.1383412,0.4151624,-44.62263,-34.37177,-6.445607
12.484622955,-24.24541,257.8652,57.5712099999997,1.577888,0.1233237,0.4705447,-44.62263,-34.37177,-6.445607
12.494481087,-21.45019,263.6971,56.59035,1.557368,0.1290078,0.477594,-44.62263,-34.37177,-6.445607
12.504338265,-16.48092,261.6738,51.62481,1.516252,0.09459631,0.4817231,-44.62263,-34.37177,-6.445607
12.514196396,-9.52393499999999,261.3167,50.82787,1.523924,0.01655765,0.5451679,-44.62263,-34.37177,-6.445607
12.524053574,0.2282626,260.8406,48.13054,1.480581,0.01378623,0.557263,-43.95732,-31.93523,-15.94991
12.533911705,10.04258,258.9959,45.3106,1.428867,0.01287866,0.5670972,-43.95732,-31.93523,-15.94991
12.543769359,16.50263,243.0475,38.62858,1.338423,0.01160504,0.5707716,-43.95732,-31.93523,-15.94991
12.553626537,17.49649,256.9726,44.08455,1.451622,-0.04232021,0.7162964,-43.95732,-31.93523,-15.94991
12.563484669,24.08077,261.5547,43.47152,1.308204,-0.02329617,0.5483853,-43.95732,-31.93523,-15.94991
12.573341846,27.99408,258.1628,41.38721,1.238842,-0.01704703,0.5618858,-40.29662,-29.95649,-25.01717
12.583199978,30.10602,255.4848,38.87379,1.176914,-0.03671633,0.5237873,-40.29662,-29.95649,-25.01717
12.593057156,33.5224,248.0462,36.23776,1.092571,0.01130326,0.5517507,-40.29662,-29.95649,-25.01717
12.602915287,30.4166,238.4653,31.94655,1.054279,0.07572573,0.5629032,-40.29662,-29.95649,-25.01717
12.612772941,20.04324,230.3126,27.90055,0.977201,0.1110957,0.5743635,-40.29662,-29.95649,-25.01717
12.622630119,7.74428800000002,221.4457,25.57104,0.8587466,0.06852777,0.5325646,-34.43466,-28.644,-31.65625
12.634952068,0.1661467,207.9967,26.30667,0.7365866,-0.06189637,0.4287395,-34.43466,-28.644,-31.65625
12.6448102,5.13542,194.7262,29.49443,0.6543611,-0.09792364,0.3586858,-34.43466,-28.644,-31.65625
12.654667377,9.66988199999998,181.3367,29.00401,0.5813705,-0.09056865,0.2864707,-34.43466,-28.644,-31.65625
12.664525509,14.51492,166.876,27.22622,0.4974243,-0.05811151,0.1863507,-34.43466,-28.644,-31.65625
12.674382687,19.91901,150.8681,23.30283,0.4290009,-0.02346509,0.1143008,-27.43479,-27.68411,-36.24893
12.684240818,25.88214,133.194,18.76641,0.3593481,0.04332404,0.05212368,-27.43479,-27.68411,-36.24893
12.694098473,26.81387,115.9364,14.5978,0.2953041,0.1276668,-0.01381885,-27.43479,-27.68411,-36.24893
12.70395565,18.80092,99.2739000000001,10.61311,0.2392142,0.1557511,-0.04824317,-27.43479,-27.68411,-36.24893
12.713813782,8.36544800000002,83.9205900000001,8.28359300000002,0.1953744,0.1266092,-0.05984427,-27.43479,-27.68411,-36.24893
12.723670959,0.849421699999999,70.47157,6.26059400000001,0.1475018,0.05701093,-0.07987571,-21.15644,-27.0374,-37.50525
12.733529091,0.849421699999999,57.43911,5.095838,0.1043955,-0.02185612,-0.1173045,-21.15644,-27.0374,-37.50525
12.743386269,6.37773799999999,45.29929,3.93108,0.09461942,-0.07404567,-0.1267104,-21.15644,-27.0374,-37.50525
12.753243923,13.95588,34.17112,2.153293,0.05044727,-0.07301233,-0.1361353,-21.15644,-27.0374,-37.50525
12.763102055,20.35382,23.04295,0.682021400000003,0.03044147,-0.03815829,-0.1374728,-21.15644,-27.0374,-37.50525
12.772959232,24.20501,11.3792,-1.402281,0.02768469,-0.007022086,-0.132858,-17.05617,-26.73366,-38.74653
12.782817364,25.01251,-1.474735,-3.057462,-0.0136223,0.0427048,-0.1404752,-17.05617,-26.73366,-38.74653
12.792674541,21.8446,-16.17344,-4.406127,-0.04647658,0.09352072,-0.1371821,-17.05617,-26.73366,-38.74653
12.802532673,15.07397,-32.00282,-5.632187,-0.0418924,0.0980055,-0.1199583,-17.05617,-26.73366,-38.74653
12.814854622,8.30333200000001,-52.41438,-7.226065,-0.01463062,0.06235183,-0.08949983,-17.05617,-26.73366,-38.74653
12.824712276,4.700608,-67.2321099999997,-7.961701,0.03221197,0.02163993,-0.02677752,-16.30194,-27.47324,-38.35877
12.834569454,2.961363,-79.2529100000001,-8.32951900000003,0.07445139,0.01159014,0.04824916,-16.30194,-27.47324,-38.35877
12.844427586,1.719045,-90.5596099999999,-9.18776100000002,0.1096071,0.008736064,0.112416,-16.30194,-27.47324,-38.35877
12.854284763,-0.0823169599999999,-101.5688,-9.55557899999999,0.1608515,0.01089167,0.1768749,-16.30194,-27.47324,-38.35877
12.864142895,-3.560808,-113.173,-10.41382,0.2110289,0.02766016,0.247702,-16.30194,-27.47324,-38.35877
12.874000072,-7.84680700000002,-125.7294,-12.069,0.2362361,0.05250138,0.3242243,-17.03818,-27.81493,-37.07086
12.883858204,-10.82837,-141.0827,-14.70503,0.2620063,0.07820924,0.3710355,-17.03818,-27.81493,-37.07086
12.893715382,-13.25089,-158.6973,-18.62842,0.3063993,0.08993277,0.4078793,-17.03818,-27.81493,-37.07086
12.903573036,-13.93417,-178.0378,-21.08054,0.4003735,0.07360826,0.5041588,-17.03818,-27.81493,-37.07086
12.913431168,-21.63654,-189.88,-21.87748,0.5783934,-0.05854907,0.5268623,-17.03818,-27.81493,-37.07086
12.923288345,-22.75463,-192.3199,-19.97709,0.6426315,-0.1834945,0.5354346,-21.44714,-28.10973,-35.44388
12.933146477,-17.599,-193.9861,-18.32191,0.6586599,-0.2776947,0.5516623,-21.44714,-28.10973,-35.44388
12.943003654,-6.977184,-197.5567,-15.99239,0.7361676,-0.2701134,0.5736232,-21.44714,-28.10973,-35.44388
12.952861786,3.023479,-201.0677,-15.74718,0.8498074,-0.1170096,0.6466132,-21.44714,-28.10973,-35.44388
12.962718964,3.023479,-206.7806,-18.68973,0.9265228,0.05558424,0.6838748,-21.44714,-28.10973,-35.44388
12.972576618,-6.16967699999999,-216.0044,-22.91963,0.9921498,0.1876021,0.6974711,-27.77259,-28.72632,-32.07478
12.984898567,-24.36964,-227.9657,-28.06908,1.090434,0.2161546,0.6828938,-27.77259,-28.72632,-32.07478
12.994756699,-35.23993,-236.535,-31.50205,1.181231,0.1794472,0.6717059,-27.77259,-28.72632,-32.07478
13.004613876,-43.25288,-242.5454,-34.4446,1.245371,0.1401315,0.6766896,-27.77259,-28.72632,-32.07478
13.014472008,-50.89314,-243.5571,-36.22238,1.258068,0.09740909,0.6732728,-27.77259,-28.72632,-32.07478
13.024329185,-56.42145,-240.5221,-38.6745,1.202347,0.04726452,0.6688518,-33.64378,-28.9406,-25.8951
13.03418684,-57.4774200000001,-235.4044,-39.47144,1.186056,0.008156621,0.6596491,-33.64378,-28.9406,-25.8951
13.044044971,-56.79415,-228.9179,-39.10362,1.169226,-0.04002845,0.5669968,-33.64378,-28.9406,-25.8951
13.053902149,-51.88699,-224.5737,-38.12278,1.188212,-0.04907954,0.444454,-33.64378,-28.9406,-25.8951
13.063760281,-43.43922,-223.3835,-39.65535,1.274501,-0.07866748,0.396013,-33.64378,-28.9406,-25.8951
13.073617458,-29.2768,-221.8363,-40.57489,1.376955,-0.09527725,0.3963293,-39.51373,-29.89652,-20.09196
13.08347559,-13.06454,-218.4443,-41.73965,1.444426,-0.07893135,0.4434256,-39.51373,-29.89652,-20.09196
13.093332768,2.837131,-218.2063,-45.72435,1.417282,-0.04826171,0.3812962,-39.51373,-29.89652,-20.09196
13.103190422,15.44666,-217.0756,-49.83165,1.470927,-0.05767949,0.4681456,-39.51373,-29.89652,-20.09196
13.113048077,25.69579,-208.7444,-50.07686,1.476691,-0.0498463,0.4671712,-39.51373,-29.89652,-20.09196
13.122905731,34.26778,-204.8763,-50.44468,1.452404,-0.02573758,0.4653248,-42.81547,-30.79206,-12.25421
13.132763863,40.10668,-201.1867,-48.17647,1.453448,0.02639491,0.4801258,-42.81547,-30.79206,-12.25421
13.14262104,40.9763,-197.0806,-45.96956,1.450413,0.0924688,0.4591628,-42.81547,-30.79206,-12.25421
13.152479172,33.89509,-192.9745,-42.53659,1.415055,0.159576,0.4008123,-42.81547,-30.79206,-12.25421
13.164801121,24.32924,-192.1414,-44.7435,1.385189,0.1974689,0.3248859,-42.81547,-30.79206,-12.25421
13.174658299,14.88762,-191.9628,-44.8048,1.376343,0.1987088,0.2871657,-44.99088,-33.24074,-4.854642
13.184515953,7.185245,-189.4039,-45.35653,1.375478,0.161139,0.2624218,-44.99088,-33.24074,-4.854642
13.194374085,1.470581,-189.4635,-44.6822,1.316227,0.1383575,0.1667549,-44.99088,-33.24074,-4.854642
13.204231262,-1.386751,-187.3211,-43.64005,1.371674,0.07010761,0.2621869,-44.99088,-33.24074,-4.854642
13.214089394,-1.448867,-183.4531,-43.02702,1.305121,0.06094148,0.181115,-44.99088,-33.24074,-4.854642
13.223946571,0.787305800000002,-180.7752,-42.47529,1.312985,0.02586902,0.1529133,-44.92471,-34.97278,2.973897
13.233804703,4.265797,-174.5862,-41.06532,1.294459,0.01679909,0.1138065,-44.92471,-34.97278,2.973897
13.243661881,9.23507000000002,-170.9562,-39.16492,1.291681,-0.00968148,0.06618187,-44.92471,-34.97278,2.973897
13.253519535,12.96203,-164.9458,-34.99632,1.322947,0.002436544,0.1094457,-44.92471,-34.97278,2.973897
13.263377667,14.39069,-159.3519,-33.89287,1.31754,0.01898113,0.1221215,-44.92471,-34.97278,2.973897
13.273234844,14.14223,-155.1268,-33.58635,1.297817,0.02071628,0.1123541,-44.49229,-37.46771,9.207699
13.283092976,13.2726,-148.1643,-31.31814,1.299575,0.006653698,0.1213152,-44.49229,-37.46771,9.207699
13.292950153,12.77568,-140.1306,-29.66296,1.291275,0.03281364,0.1096742,-44.49229,-37.46771,9.207699
13.302808285,9.60776600000003,-132.8705,-30.03078,1.267815,0.07739326,0.1146976,-44.49229,-37.46771,9.207699
13.312665463,4.265797,-124.8963,-30.27599,1.261955,0.07929719,0.1171932,-44.49229,-37.46771,9.207699
13.322523117,-1.697331,-115.6724,-28.49821,1.245375,0.09807044,0.1017744,-42.95395,-38.45501,14.45979
13.334845066,-10.51779,-103.354,-29.72426,1.220012,0.06675513,0.1157683,-42.95395,-38.45501,14.45979
13.344703198,-12.19492,-96.6295199999999,-28.3756,1.21737,0.002013786,0.116218,-42.95395,-38.45501,14.45979
13.354560375,-10.57991,-86.8105499999998,-26.47521,1.218674,0.005262519,0.07118211,-42.95395,-38.45501,14.45979
13.364418507,-8.654313,-78.5983099999998,-25.12654,1.199299,0.03039672,0.07167037,-42.95395,-38.45501,14.45979
13.374275684,-6.231793,-69.4934499999998,-24.08439,1.185013,0.02291937,0.05791409,-42.54475,-39.50674,18.56605
13.384133339,-2.504838,-61.45974,-22.42921,1.180941,-0.009248393,0.05386706,-42.54475,-39.50674,18.56605
13.39399147,3.147711,-51.28371,-19.91578,1.164369,0.002827272,0.06906034,-42.54475,-39.50674,18.56605
13.403848648,8.42756399999998,-42.83344,-16.85064,1.105695,0.04256795,0.03477123,-42.54475,-39.50674,18.56605
13.41370678,8.986607,-35.2163,-12.92724,1.057023,0.07318129,0.008408903,-42.54475,-39.50674,18.56605
13.423563957,10.97432,-27.53965,-8.88124700000001,1.007174,0.07918292,-0.09002426,-41.40282,-40.59563,20.62001
13.433422089,16.99956,-24.74273,-4.896551,0.9643211,0.08555739,-0.1056525,-41.40282,-40.59563,20.62001
13.443279266,19.73266,-20.99367,-1.524887,0.9647864,0.08701957,-0.106126,-41.40282,-40.59563,20.62001
13.453136921,21.40979,-16.76853,1.47896,0.9672167,0.09875426,-0.09695679,-41.40282,-40.59563,20.62001
13.462995052,22.40364,-11.41273,4.360201,0.9576787,0.1385019,-0.1156534,-41.40282,-40.59563,20.62001
13.47285223,22.83846,-5.045271,5.586261,0.9378519,0.1457132,-0.09230836,-40.64063,-40.57575,22.66459
13.482710362,21.4719,-0.998663500000001,6.26059400000001,0.8911913,0.1645068,-0.1609686,-40.64063,-40.57575,22.66459
13.492567539,19.1115,1.02464,6.68971499999997,0.8870011,0.1449994,-0.1625112,-40.64063,-40.57575,22.66459
13.504889488,14.45281,6.85651600000003,7.30274499999998,0.8987795,0.1247438,-0.1417652,-40.64063,-40.57575,22.66459
13.51474762,9.42141799999999,8.225222,7.97707799999999,0.8657936,0.09265886,-0.185173,-40.64063,-40.57575,22.66459
13.524605274,6.19139099999999,10.36754,9.87747100000001,0.8613888,0.08125486,-0.2312096,-40.63465,-40.56417,23.49677
13.534462452,6.19139099999999,13.93808,11.34874,0.8308134,0.07296938,-0.2921813,-40.63465,-40.56417,23.49677
13.544320583,6.874665,13.52152,12.88132,0.8026472,0.06664802,-0.3541291,-40.63465,-40.56417,23.49677
13.554177761,6.874665,13.16446,16.6208,0.8529608,0.03449746,-0.3522424,-40.63465,-40.56417,23.49677
13.564035892,7.43370899999999,13.70004,18.88901,0.8867375,0.07253149,-0.2814812,-40.63465,-40.56417,23.49677
13.57389307,6.50197000000002,15.60433,18.39859,0.8895566,0.1382998,-0.268028,-40.63544,-39.82164,23.93732
13.583750725,3.45829,16.79451,16.86601,0.8915713,0.1629629,-0.3138517,-40.63544,-39.82164,23.93732
13.593608856,0.3524944,17.27058,15.70126,0.8899971,0.1647372,-0.3559839,-40.63544,-39.82164,23.93732
13.603466034,-1.262519,17.56812,15.14953,0.8909396,0.1539947,-0.368068,-40.63544,-39.82164,23.93732
13.613324165,-1.138287,17.3896,14.72041,0.8985059,0.1468014,-0.3576941,-40.63544,-39.82164,23.93732
13.623181343,-0.3307806,17.44911,14.22998,0.9140939,0.1483859,-0.3612573,-41.76387,-39.07862,23.48748
13.633039474,1.346349,17.62763,13.55565,0.927044,0.156241,-0.3733556,-41.76387,-39.07862,23.48748
13.642896652,2.650783,17.62763,12.26829,0.938499,0.1801866,-0.3733167,-41.76387,-39.07862,23.48748
13.652754307,3.396174,17.74665,10.24529,0.9403766,0.1884812,-0.3718359,-41.76387,-39.07862,23.48748
13.662612438,4.141565,17.68714,8.40619900000001,0.937499,0.1787071,-0.3761902,-41.76387,-39.07862,23.48748
13.674934387,6.31562199999998,17.80616,5.83147299999998,0.9339266,0.196699,-0.3711954,-41.76864,-38.71582,23.09963
13.684791565,8.05486800000002,17.56812,3.685868,0.9298368,0.2088197,-0.3734308,-41.76864,-38.71582,23.09963
13.694649696,7.86851999999999,17.21107,1.540263,0.9235803,0.2281866,-0.384679,-41.76864,-38.71582,23.09963
13.704506874,6.81255000000002,16.49696,-1.034463,0.9189304,0.2231948,-0.4071772,-41.76864,-38.71582,23.09963
13.714365005,5.445999,14.65219,-2.076613,0.9186205,0.2081066,-0.4073001,-41.76864,-38.71582,23.09963
13.72422266,3.830986,12.92643,-3.057462,0.931848,0.1932293,-0.383175,-42.52576,-38.04383,22.2644
13.734079838,2.775015,11.4387,-3.793097,0.9405097,0.1904721,-0.3603202,-42.52576,-38.04383,22.2644
13.743937969,1.346349,9.89147200000003,-4.406127,0.9397896,0.1758903,-0.3542034,-42.52576,-38.04383,22.2644
13.753795147,-0.5171283,8.87982000000001,-4.835248,0.9409239,0.1671553,-0.3504597,-42.52576,-38.04383,22.2644
13.763653278,-1.883678,8.04669499999999,-4.896551,0.9293795,0.1617368,-0.3407569,-42.52576,-38.04383,22.2644
13.773510456,-3.001765,7.57062300000002,-4.957854,0.92276,0.1485593,-0.3355026,-42.52375,-38.41198,22.26817
13.783368587,-3.498692,7.92767700000003,-4.773945,0.929772,0.1369491,-0.3337837,-42.52375,-38.41198,22.26817
13.793226242,-2.380606,7.98718600000001,-4.590036,0.9373062,0.1214469,-0.3330635,-42.52375,-38.41198,22.26817
13.80308342,-1.386751,7.68964099999998,-4.773945,0.9491896,0.1054802,-0.336722,-42.52375,-38.41198,22.26817
13.812941551,0.4767263,6.79700699999999,-5.141763,0.9616991,0.1065095,-0.3512676,-42.52375,-38.41198,22.26817
13.822798729,1.532697,5.666337,-5.325672,0.9724489,0.1085543,-0.3504452,-41.78428,-38.06405,21.42836
13.83265686,2.775015,4.357141,-5.81609599999999,0.9750549,0.09397471,-0.3515638,-41.78428,-38.06405,21.42836
13.842514038,5.321767,3.702542,-5.87739899999999,0.9652643,0.0880274,-0.3572248,-41.78428,-38.06405,21.42836
13.854836464,6.93678100000001,1.143658,-6.490429,0.9355992,0.05314907,-0.3748267,-41.78428,-38.06405,21.42836
13.864693642,7.930636,0.07249729,-5.08046,0.9477751,0.05435364,-0.3419253,-41.78428,-38.06405,21.42836
13.874551773,8.42756399999998,-0.1655384,-4.773945,0.9334424,0.05090387,-0.319707,-42.53174,-38.05542,21.43222
13.884408951,8.86237499999997,-0.2250474,-4.773945,0.923537,0.05957062,-0.3209302,-42.53174,-38.05542,21.43222
13.894267082,8.86237499999997,-0.820136700000001,-4.528733,0.9186122,0.06293549,-0.3203525,-42.53174,-38.05542,21.43222
13.904124737,7.80640399999998,-1.17719,-4.406127,0.9246024,0.08680964,-0.326466,-42.53174,-38.05542,21.43222
13.913982391,5.321767,-2.188842,-4.712642,0.9277383,0.1033574,-0.3330798,-42.53174,-38.05542,21.43222
13.923840046,2.464436,-3.379021,-4.773945,0.9320519,0.1009299,-0.3417873,-42.15479,-38.0535,21.87838
13.933697224,1.470581,-4.5692,-4.160915,0.939957,0.1019979,-0.3351822,-42.15479,-38.0535,21.87838
13.943555355,1.03577,-5.461833,-3.057462,0.9497661,0.09428016,-0.3401792,-42.15479,-38.0535,21.87838
13.953412533,1.346349,-6.29495900000002,-2.383129,0.959956,0.1011827,-0.3402661,-42.15479,-38.0535,21.87838
13.963270664,1.781161,-7.18759300000001,-1.218372,0.9613664,0.1109438,-0.3358911,-42.15479,-38.0535,21.87838
13.973128319,2.588667,-7.66366400000002,-0.05361458,0.9628192,0.1187643,-0.3300954,-41.77738,-38.73275,21.88337
13.982985973,3.271943,-7.66366400000002,1.356354,0.9574307,0.1260379,-0.3242068,-41.77738,-38.73275,21.88337
13.992843628,3.955218,-7.723173,2.459808,0.9557877,0.134763,-0.329381,-41.77738,-38.73275,21.88337
14.002700806,3.76887,-7.54464599999999,3.011535,0.9641848,0.137789,-0.3208495,-41.77738,-38.73275,21.88337
14.012558937,4.017333,-7.06857499999999,3.869777,0.9708478,0.1495142,-0.3241999,-41.77738,-38.73275,21.88337
14.024880886,3.582522,-6.94955700000003,3.992383,0.9715881,0.1601959,-0.3322667,-42.15111,-38.72844,21.8853
14.034739017,2.650783,-7.24710100000002,4.237596,0.9737833,0.1669813,-0.3446999,-42.15111,-38.72844,21.8853
14.044596195,1.594813,-8.02071800000003,4.298898,0.9694287,0.1723265,-0.3364463,-42.15111,-38.72844,21.8853
14.05445385,0.911537699999999,-9.15138699999998,3.869777,0.9683463,0.1722882,-0.3440984,-42.15111,-38.72844,21.8853
14.064311504,0.849421699999999,-9.50844099999999,3.747171,0.969815,0.177672,-0.3392819,-42.15111,-38.72844,21.8853
14.074169159,0.973653600000002,-10.16304,3.992383,0.9577137,0.179065,-0.3285553,-41.76864,-38.71582,23.09963
14.08402729,0.04191487,-10.75813,4.482807,0.9507343,0.1906845,-0.3278786,-41.76864,-38.71582,23.09963
14.093884468,-1.635215,-11.05567,4.911928,0.9405177,0.1964683,-0.3185794,-41.76864,-38.71582,23.09963
14.1037426,-3.622924,-11.05567,5.524958,0.9313191,0.1983662,-0.3098067,-41.76864,-38.71582,23.09963
14.113599777,-5.36217,-10.63911,6.01538200000003,0.9221435,0.1939238,-0.3049214,-41.76864,-38.71582,23.09963
14.123457432,-6.54237199999997,-9.984512,6.19929100000001,0.9125967,0.1812108,-0.298663,-41.77232,-38.04089,23.09272
14.133315086,-6.48025699999999,-8.97285999999998,6.3832,0.9020991,0.1694735,-0.2895076,-41.77232,-38.04089,23.09272
14.143172741,-6.10756099999998,-7.90170000000001,5.95407899999997,0.8900864,0.1474569,-0.2928767,-41.77232,-38.04089,23.09272
14.153030872,-5.05159,-7.06857499999999,5.463655,0.8852873,0.1435342,-0.2894869,-41.77232,-38.04089,23.09272
14.16288805,-4.492547,-6.05692300000003,5.034534,0.8951234,0.1451005,-0.2843427,-41.77232,-38.04089,23.09272
14.172746182,-4.430431,-5.699869,4.666717,0.9000614,0.1549215,-0.2723502,-42.51978,-38.03225,23.09658
14.182603359,-5.486402,-5.99741399999999,4.298898,0.9119463,0.1871544,-0.2693724,-42.51978,-38.03225,23.09658
14.194925785,-11.63588,-6.53299399999998,2.582414,0.9252132,0.184847,-0.267185,-42.51978,-38.03225,23.09658
14.204782963,-15.85976,-5.580852,2.337202,0.9481202,0.145127,-0.2726386,-42.51978,-38.03225,23.09658
14.214641094,-15.30072,-3.617057,1.969384,0.9301941,0.1196286,-0.2821823,-42.52103,-37.29061,23.47312
14.224498272,-12.44338,-2.486387,1.356354,0.9319786,0.1440081,-0.2733764,-42.52103,-37.29061,23.47312
14.234356403,-9.77240000000001,-0.3440652,-0.727947499999999,0.9230603,0.2057675,-0.2631441,-42.52103,-37.29061,23.47312
14.244213581,-10.02086,1.381694,-4.283521,0.9297693,0.2520348,-0.2685997,-42.52103,-37.29061,23.47312
14.254071236,-12.75396,3.28598,-8.94255000000001,0.9418553,0.2794428,-0.255123,-42.52103,-37.29061,23.47312
14.263929367,-16.17034,5.130757,-15.50197,0.9574739,0.2536953,-0.2804813,-42.52103,-37.29061,23.47312
14.273786545,-17.10208,7.630132,-20.2836,0.9709433,0.1568648,-0.3107217,-42.14404,-38.40472,23.09842
14.283644676,-12.07069,9.47490899999998,-22.67442,0.9790365,0.06682329,-0.3345985,-42.14404,-38.40472,23.09842
14.293501854,-3.125997,11.31969,-23.34875,0.9811128,-0.02561799,-0.3354082,-42.14404,-38.40472,23.09842
14.303359985,7.74428800000002,12.80741,-21.63227,0.9747481,-0.07289863,-0.3414669,-42.14404,-38.40472,23.09842
14.313217163,15.94359,13.16446,-19.73188,0.9642555,-0.06035841,-0.3464827,-42.14404,-38.40472,23.09842
14.323074818,18.80092,12.33134,-17.09585,0.9496803,-0.02202498,-0.3411595,-41.77462,-38.72741,22.26745
14.332932949,18.80092,12.0933,-15.37936,0.9420328,0.02225035,-0.3248632,-41.77462,-38.72741,22.26745
14.342790127,16.25417,11.97428,-13.84679,0.9252275,0.03914167,-0.3225644,-41.77462,-38.72741,22.26745
14.352648258,12.65145,12.15281,-12.62073,0.9149985,0.0366221,-0.3214814,-41.77462,-38.72741,22.26745
14.362505436,9.04872300000001,11.02214,-11.39467,0.9066759,0.03117614,-0.32668,-41.77462,-38.72741,22.26745
14.374827862,7.86851999999999,10.7246,-8.697337,0.895062,0.01339692,-0.368834,-41.77337,-39.46905,21.89091
14.384685516,8.30333200000001,7.33258699999997,-5.570884,0.9124572,0.01167368,-0.3504077,-41.77337,-39.46905,21.89091
14.394543171,10.16681,6.43995299999998,-2.199219,0.9233738,0.02876579,-0.3600031,-41.77337,-39.46905,21.89091
14.404400349,11.96817,4.41665,1.356354,0.934501,0.05617074,-0.3450752,-41.77337,-39.46905,21.89091
14.41425848,13.39684,3.643033,4.298898,0.9461903,0.08457728,-0.3239173,-41.02515,-39.10418,22.26736
14.424115658,13.70742,2.988435,6.62841199999998,0.9445975,0.1094281,-0.3112257,-41.02515,-39.10418,22.26736
14.433973789,13.2726,2.333837,8.40619900000001,0.9479165,0.1221223,-0.3078114,-41.02515,-39.10418,22.26736
14.443831444,12.4651,2.452855,10.24529,0.9531541,0.1401935,-0.3024624,-41.02515,-39.10418,22.26736
14.453688622,10.66374,2.095801,11.71656,0.9461147,0.1552134,-0.3031937,-41.02515,-39.10418,22.26736
14.463546753,7.55793999999999,1.798256,12.88132,0.9471168,0.1537642,-0.302741,-41.02515,-39.10418,22.26736
14.473403931,4.638493,1.976783,13.61695,0.9472745,0.1547856,-0.2902755,-41.02515,-39.10418,22.26736
14.483262062,2.215972,2.452855,14.5365,0.9526638,0.1480004,-0.2956807,-41.02515,-39.10418,22.26736
14.49311924,0.663074000000001,2.988435,15.33344,0.955843,0.1543078,-0.308132,-41.02515,-39.10418,22.26736
14.502977371,-1.510983,3.226471,15.51735,0.9550771,0.1649655,-0.3190528,-41.02515,-39.10418,22.26736
14.512835026,-3.436576,4.119105,15.02692,0.9722401,0.1734288,-0.3086835,-41.02515,-39.10418,22.26736
14.522692204,-4.741011,4.119105,14.35259,0.965222,0.1635553,-0.3297516,-41.39767,-38.72549,22.71361
14.532550335,-5.175822,4.059596,13.12653,0.9704964,0.1625961,-0.3384605,-41.39767,-38.72549,22.71361
14.544872284,-4.741011,4.357141,11.47135,0.9796227,0.1645833,-0.3491162,-41.39767,-38.72549,22.71361
14.554730415,-3.809272,4.595177,9.75486500000002,0.9742289,0.1596498,-0.3543521,-41.39767,-38.72549,22.71361
14.564587593,-2.132142,4.178614,8.22229000000003,0.9694188,0.1440065,-0.3620827,-42.1468,-38.41006,22.71433
14.574445248,-0.0823169599999999,3.762051,6.3832,0.9585598,0.1473012,-0.366213,-42.1468,-38.41006,22.71433
14.584302902,2.40232,3.82156,4.789322,0.951243,0.1560303,-0.3569303,-42.1468,-38.41006,22.71433
14.594160557,3.76887,3.583524,3.501959,0.9425011,0.1623173,-0.3466894,-42.1468,-38.41006,22.71433
14.604018688,3.706754,3.107453,2.214596,0.9376492,0.1622854,-0.3437454,-42.1468,-38.41006,22.71433
14.613875866,3.830986,2.928926,1.356354,0.9268386,0.1631527,-0.3464591,-42.52651,-38.41733,21.88409
14.623733997,3.334059,2.333837,0.1915974,0.9196224,0.1650753,-0.3357976,-42.52651,-38.41733,21.88409
14.633591175,2.464436,1.976783,-0.4214326,0.9120218,0.1587236,-0.3247213,-42.52651,-38.41733,21.88409
14.64344883,2.215972,1.143658,-0.911856500000002,0.9062243,0.1542984,-0.3232385,-42.52651,-38.41733,21.88409
14.653306484,1.408465,0.5485688,-1.157069,0.911079,0.15189,-0.32812,-42.52651,-38.41733,21.88409
14.663164139,0.725189899999998,-0.582100999999999,-1.647493,0.9062438,0.1499099,-0.3256718,-42.52852,-38.04918,21.88032
14.67302227,0.911537699999999,-1.474735,-1.524887,0.9125383,0.14653,-0.3334572,-42.52852,-38.04918,21.88032
14.682879448,0.911537699999999,-2.664914,-1.708796,0.9110811,0.1489612,-0.3305407,-42.52852,-38.04918,21.88032
14.692737579,0.5388422,-3.855092,-1.892705,0.9178756,0.1485182,-0.3349541,-42.52852,-38.04918,21.88032
14.702594757,0.4767263,-4.50969,-1.770099,0.9248256,0.1476313,-0.3283519,-42.52852,-38.04918,21.88032
14.714917183,0.725189899999998,-5.164289,-1.708796,0.9278491,0.1462178,-0.3231357,-42.52852,-38.04918,21.88032
14.724774361,0.911537699999999,-6.11643200000001,-1.524887,0.9412012,0.1400289,-0.318107,-42.52852,-38.04918,21.88032
14.734632492,1.03577,-6.53299399999998,-1.463584,0.9451318,0.1303039,-0.3254331,-42.52852,-38.04918,21.88032
14.74448967,1.160001,-6.830539,-1.218372,0.9495699,0.1284001,-0.324554,-42.52852,-38.04918,21.88032
14.754347801,0.849421699999999,-7.12808399999997,-0.727947499999999,0.9554628,0.1269938,-0.3241707,-42.52852,-38.04918,21.88032
14.764204979,0.1661467,-7.84219100000002,-0.6053416,0.9534818,0.123552,-0.3289635,-42.15479,-38.0535,21.87838
14.774062633,-0.765591999999998,-8.13973500000002,-0.3601296,0.9609613,0.1192634,-0.3223975,-42.15479,-38.0535,21.87838
14.783920765,-1.138287,-8.49678899999997,-0.2988266,0.9595901,0.1095133,-0.3238978,-42.15479,-38.0535,21.87838
14.793777943,-1.448867,-8.37777100000001,-0.1762206,0.9647036,0.09741417,-0.3183224,-42.15479,-38.0535,21.87838
14.803636074,-1.510983,-7.84219100000002,-0.05361458,0.9592837,0.09247319,-0.3254749,-42.15479,-38.0535,21.87838
14.813493252,-1.076172,-7.54464599999999,0.1915974,0.9603457,0.08762344,-0.3236142,-42.52576,-38.04383,22.2644
14.823351383,-0.0823169599999999,-6.94955700000003,0.4368094,0.9599955,0.08472937,-0.3159664,-42.52576,-38.04383,22.2644
14.833209038,0.4767263,-6.47348499999999,0.4368094,0.9624069,0.08376474,-0.3193633,-42.52576,-38.04383,22.2644
14.843066215,0.849421699999999,-5.87839600000002,0.5594154,0.9605279,0.07888731,-0.3179401,-42.52576,-38.04383,22.2644
14.852924347,1.781161,-4.926253,0.5594154,0.9596256,0.07304162,-0.3174973,-42.52576,-38.04383,22.2644
14.862781525,2.775015,-4.450181,0.804627399999999,0.9565769,0.07933017,-0.320276,-42.52254,-38.0376,22.7125
14.872639656,3.271943,-3.617057,0.8659304,0.9570459,0.08762859,-0.3144623,-42.52254,-38.0376,22.7125
14.884961605,2.899247,-1.77228,0.743324399999998,0.9390857,0.09016717,-0.3736056,-42.52254,-38.0376,22.7125
14.89481926,2.09174,-2.962458,1.111142,0.9524219,0.08703828,-0.3311733,-42.52254,-38.0376,22.7125
14.904676914,2.526551,-1.712771,1.233748,0.9477444,0.08607963,-0.3162596,-42.52254,-38.0376,22.7125
14.914534569,2.526551,-1.653262,1.662869,0.9477423,0.0890084,-0.3138388,-42.15006,-37.30027,23.0871
14.924391747,2.837131,-0.939154599999998,2.214596,0.9530869,0.09148679,-0.3143733,-42.15006,-37.30027,23.0871
14.934249878,3.271943,-0.04652058,2.766323,0.9461232,0.09627559,-0.3185464,-42.15006,-37.30027,23.0871
14.944108009,3.45829,0.727095499999998,3.195444,0.9416592,0.09817202,-0.321342,-42.15006,-37.30027,23.0871
14.953965187,3.644638,1.560221,3.624565,0.9449997,0.09915489,-0.3266525,-42.15006,-37.30027,23.0871
14.963822842,4.203681,2.095801,4.114989,0.9435938,0.09232432,-0.3281277,-42.14806,-37.66842,23.09088
14.973680496,4.82484,2.809908,4.482807,0.9528894,0.09435984,-0.3263262,-42.14806,-37.66842,23.09088
14.983538151,5.13542,3.643033,4.605413,0.9566533,0.1036281,-0.3291768,-42.14806,-37.66842,23.09088
14.993396282,5.197536,4.000087,4.789322,0.9628488,0.1080317,-0.3373743,-42.14806,-37.66842,23.09088
15.00325346,4.762724,4.476159,4.728019,0.9672151,0.1105015,-0.3378949,-42.14806,-37.66842,23.09088
15.013111591,4.203681,5.130757,4.789322,0.9746137,0.1086309,-0.335141,-42.14605,-38.03657,23.09465
15.022968769,4.141565,6.14240899999998,4.666717,0.9844149,0.09993443,-0.3415836,-42.14605,-38.03657,23.09465
15.032826424,4.576376,6.558971,4.789322,0.9922988,0.09562595,-0.3412532,-42.14605,-38.03657,23.09465
15.042683601,5.445999,7.451605,4.973231,0.9995644,0.1005526,-0.3422735,-42.14605,-38.03657,23.09465
15.052541733,5.073304,8.58227499999998,5.279747,1.021374,0.1153362,-0.3443764,-42.14605,-38.03657,23.09465
15.064863682,4.700608,10.36754,4.298898,1.026333,0.1041694,-0.3493333,-42.89551,-37.65979,23.09474
15.074721813,5.694463,11.49821,3.808474,1.025044,0.0885841,-0.3499257,-42.89551,-37.65979,23.09474
15.084578991,8.17909999999999,12.62888,3.563262,1.026312,0.09111659,-0.3264416,-42.89551,-37.65979,23.09474
15.094436646,10.16681,14.47366,3.624565,1.018873,0.113481,-0.3141669,-42.89551,-37.65979,23.09474
15.104294777,10.04258,16.31844,3.440656,1.004974,0.1333195,-0.3114054,-42.89551,-37.65979,23.09474
15.114151955,9.35930300000001,18.22272,3.31805,0.9963626,0.131344,-0.2988401,-43.27602,-36.92453,22.70505
15.124010086,8.48967900000002,19.71045,2.950232,0.9795186,0.1273657,-0.2818616,-43.27602,-36.92453,22.70505
15.133867264,7.86851999999999,21.55522,2.521111,0.9725958,0.112284,-0.2646391,-43.27602,-36.92453,22.70505
15.143725395,8.17909999999999,23.45951,2.09199,0.9655414,0.1049765,-0.2502242,-43.27602,-36.92453,22.70505
15.15358305,8.986607,25.18527,1.540263,0.9545497,0.09420991,-0.2405744,-43.27602,-36.92453,22.70505
15.163440228,10.35316,26.55397,1.111142,0.9536598,0.09227356,-0.2357861,-43.64975,-36.92021,22.70698
15.173298359,10.97432,27.56563,0.3142034,0.942732,0.09750152,-0.2432534,-43.64975,-36.92021,22.70698
15.183155537,10.78797,27.80366,-0.2375236,0.9431547,0.1052985,-0.2412768,-43.64975,-36.92021,22.70698
15.193013668,10.10469,27.86317,-0.973159599999999,0.9345791,0.1090567,-0.2569365,-43.64975,-36.92021,22.70698
15.202870846,9.73199700000002,27.26808,-1.954008,0.9248551,0.09971075,-0.2607104,-43.64975,-36.92021,22.70698
15.212728977,9.794114,26.13741,-2.62834,0.9177305,0.08896559,-0.2544699,-44.02871,-36.55398,22.25704
15.222586632,9.98046100000001,24.94723,-3.486583,0.9089508,0.0918243,-0.2500079,-44.02871,-36.55398,22.25704
15.234908581,10.16681,23.28098,-4.406127,0.8966643,0.0956056,-0.2507592,-44.02871,-36.55398,22.25704
15.244765759,10.04258,21.97178,-4.957854,0.8873744,0.08868944,-0.2564356,-44.02871,-36.55398,22.25704
15.25462389,10.47739,20.48406,-5.264369,0.8718435,0.08175073,-0.2533976,-44.02871,-36.55398,22.25704
15.264482021,11.22278,18.34174,-5.754793,0.855804,0.07480216,-0.25179,-44.4072,-36.18686,21.87112
15.274339199,12.15452,15.96138,-6.36782300000001,0.8432842,0.0669347,-0.2440108,-44.4072,-36.18686,21.87112
15.284196854,12.34087,12.80741,-6.85824700000003,0.8383508,0.0688324,-0.2453621,-44.4072,-36.18686,21.87112
15.294054031,11.71971,9.772454,-7.10345900000001,0.8337596,0.0770395,-0.2519362,-44.4072,-36.18686,21.87112
15.303912163,10.10469,6.67798900000002,-6.98085300000002,0.8340181,0.08820726,-0.2590336,-44.4072,-36.18686,21.87112
15.313770294,8.551796,3.762051,-6.67433799999998,0.8405978,0.1008851,-0.267646,-44.78617,-35.82064,21.42119
15.323627472,6.81255000000002,0.727095499999998,-5.93870199999998,0.8474451,0.1009454,-0.2677431,-44.78617,-35.82064,21.42119
15.333485127,5.13542,-2.010315,-4.651339,0.8541167,0.1097436,-0.2730351,-44.78617,-35.82064,21.42119
15.343342781,3.396174,-4.5692,-3.302674,0.8685408,0.1264016,-0.2769337,-44.78617,-35.82064,21.42119
15.353200436,1.222117,-7.06857499999999,-1.831402,0.8873209,0.1386912,-0.2881192,-44.78617,-35.82064,21.42119
15.363058567,-1.076172,-8.85384299999998,-0.5440385,0.915098,0.1452547,-0.2903765,-44.03671,-36.19742,21.42109
15.372915745,-2.629069,-10.34157,0.4981124,0.9351968,0.1371444,-0.294565,-44.03671,-36.19742,21.42109
15.382773876,-3.125997,-11.65076,1.356354,0.9530223,0.1266207,-0.2881991,-44.03671,-36.19742,21.42109
15.392631054,-3.001765,-12.95996,2.214596,0.9622086,0.1252075,-0.2974468,-44.03671,-36.19742,21.42109
15.402488709,-2.815417,-14.26916,2.70502,0.9748057,0.1326088,-0.2999598,-44.03671,-36.19742,21.42109
15.414810658,-3.809272,-15.57835,2.70502,0.9903172,0.1439359,-0.3005645,-44.03671,-36.19742,21.42109
15.424668789,-5.610633,-17.06608,3.072838,0.9985514,0.1425215,-0.3078818,-44.03671,-36.19742,21.42109
15.434525967,-7.16353100000001,-17.8992,2.766323,1.010747,0.1387142,-0.3138381,-44.03671,-36.19742,21.42109
15.444384098,-8.03315400000002,-18.61331,2.153293,1.015841,0.1266095,-0.3097001,-44.03671,-36.19742,21.42109
15.454241276,-7.90892299999997,-19.08938,1.417657,1.019809,0.1159188,-0.315118,-44.03671,-36.19742,21.42109
15.464099407,-6.72872000000001,-19.38692,0.5594154,1.016192,0.1003455,-0.3070515,-44.02871,-36.55398,22.25704
15.473957062,-4.803127,-19.68447,-0.3601296,1.009298,0.09929533,-0.3112749,-44.02871,-36.55398,22.25704
15.48381424,-3.560808,-19.56545,-1.218372,1.007052,0.09786605,-0.2978374,-44.02871,-36.55398,22.25704
15.493672371,-2.442722,-19.26791,-2.015311,1.001764,0.09393907,-0.2944408,-44.02871,-36.55398,22.25704
15.503529549,-1.200403,-18.43478,-2.383129,0.9900826,0.09287561,-0.2909289,-44.02871,-36.55398,22.25704
15.51338768,-0.2686647,-17.42313,-2.934855,0.983794,0.09576883,-0.2831476,-44.02871,-36.55398,22.25704
15.523245335,0.5388422,-16.17344,-3.24137,0.9751133,0.09963226,-0.2705321,-44.02871,-36.55398,22.25704
15.533102989,0.663074000000001,-14.68572,-3.670491,0.9741307,0.09229898,-0.2772888,-44.02871,-36.55398,22.25704
15.542960644,0.600958099999998,-13.55505,-3.915704,0.9722517,0.08302748,-0.2797363,-44.02871,-36.55398,22.25704
15.552817821,1.222117,-12.24585,-4.222218,0.9821767,0.08315441,-0.2693343,-44.02871,-36.55398,22.25704
15.562675953,2.215972,-10.52009,-4.344824,0.9788304,0.07826407,-0.2678902,-43.64825,-36.17323,23.4676
15.572534084,3.582522,-9.21089600000002,-4.344824,0.9784843,0.06511844,-0.2689546,-43.64825,-36.17323,23.4676
15.584855556,5.073304,-7.723173,-3.977006,0.9837914,0.07295661,-0.2675265,-43.64825,-36.17323,23.4676
15.594713211,5.383883,-6.59250300000002,-3.302674,0.9812021,0.08119393,-0.2707745,-43.64825,-36.17323,23.4676
15.604570866,5.321767,-5.521342,-2.750947,0.9811198,0.09142322,-0.2678118,-43.64825,-36.17323,23.4676
15.614428997,4.514261,-4.807235,-2.076613,0.9811327,0.08703287,-0.2707242,-43.26929,-36.53945,23.91754
15.624286175,3.45829,-4.212146,-1.034463,0.9858914,0.09436159,-0.2740846,-43.26929,-36.53945,23.91754
15.634144306,2.278088,-3.43853,-0.1762206,0.9774742,0.1040237,-0.2729247,-43.26929,-36.53945,23.91754
15.644001484,0.5388422,-3.021967,0.620718400000002,0.9754933,0.1049759,-0.2738468,-43.26929,-36.53945,23.91754
15.653859138,-0.5171283,-2.724423,1.356354,0.9663588,0.09322183,-0.2723783,-43.26929,-36.53945,23.91754
15.66371727,-0.4550124,-1.950806,2.030687,0.9580898,0.08876759,-0.2727772,-43.26854,-36.16596,24.29785
15.673574448,0.2282626,-1.831789,2.766323,0.955198,0.09119508,-0.2674443,-43.26854,-36.16596,24.29785
15.683432579,0.5388422,-1.355717,3.31805,0.9536585,0.09506737,-0.2693065,-43.26854,-36.16596,24.29785
15.693289757,0.4767263,-0.879645599999998,3.869777,0.9520544,0.09501546,-0.2793472,-43.26854,-36.16596,24.29785
15.703147888,0.600958099999998,-0.641609900000002,4.421504,0.9508077,0.08578911,-0.2712609,-43.26854,-36.16596,24.29785
15.713005543,0.973653600000002,-0.1060295,4.666717,0.9443823,0.08864336,-0.2735412,-42.89555,-36.54377,23.91561
15.72286272,1.843277,0.4890598,5.095838,0.9470912,0.09885762,-0.2811609,-42.89555,-36.54377,23.91561
15.732720852,1.594813,0.846113400000001,5.218443,0.943667,0.1027331,-0.277725,-42.89555,-36.54377,23.91561
15.74257803,0.725189899999998,1.381694,4.973231,0.9430599,0.1022069,-0.2868255,-42.89555,-36.54377,23.91561
15.754900932,0.3524944,1.61973,4.850626,0.9460067,0.09735399,-0.2902629,-42.89555,-36.54377,23.91561
15.76475811,0.2282626,2.095801,4.482807,0.9468489,0.1022061,-0.2959843,-43.64026,-36.52979,24.30355
15.774615765,-0.2065488,2.274328,4.237596,0.9433799,0.106557,-0.2954189,-43.64026,-36.52979,24.30355
15.784473419,-0.889823900000002,2.869417,3.93108,0.9467536,0.1124317,-0.2939799,-43.64026,-36.52979,24.30355
15.794331074,-1.573099,3.166962,3.747171,0.9486644,0.1124359,-0.2973615,-43.64026,-36.52979,24.30355
15.804188251,-2.070026,3.583524,3.134141,0.9513043,0.1032366,-0.2912471,-43.64026,-36.52979,24.30355
15.814046383,-1.883678,3.524015,2.888929,0.9521682,0.1051655,-0.297952,-42.89555,-36.54377,23.91561
15.823904514,-1.510983,3.82156,2.398505,0.9583997,0.1032324,-0.3090787,-42.89555,-36.54377,23.91561
15.833761692,-0.827707900000002,3.464506,1.908081,0.9597898,0.1124996,-0.3066243,-42.89555,-36.54377,23.91561
15.843619347,-0.2686647,3.464506,1.356354,0.9573724,0.1051627,-0.3109646,-42.89555,-36.54377,23.91561
15.853477478,0.3524944,3.226471,0.988536299999999,0.9580076,0.1027675,-0.3023682,-42.89555,-36.54377,23.91561
15.863334656,0.725189899999998,2.869417,0.927233400000001,0.9661834,0.1101245,-0.3062563,-43.64427,-35.79349,24.29601
15.873192787,0.787305800000002,3.047944,0.927233400000001,0.9661313,0.1145037,-0.3062186,-43.64427,-35.79349,24.29601
15.883049965,0.1040308,2.750399,0.927233400000001,0.9655648,0.1149656,-0.3114778,-43.64427,-35.79349,24.29601
15.892908096,-0.641360199999998,1.976783,0.743324399999998,0.9649217,0.1207761,-0.3176492,-43.64427,-35.79349,24.29601
15.902765274,-1.200403,1.500712,0.5594154,0.9552853,0.113408,-0.3132612,-43.64427,-35.79349,24.29601
15.912622929,-1.448867,1.084149,0.4368094,0.9523579,0.1138725,-0.3122572,-43.651,-36.17857,23.08352
15.92248106,-1.821563,0.608077699999999,0.3755064,0.9451141,0.1060227,-0.3122202,-43.651,-36.17857,23.08352
15.934803009,-2.566953,0.2510241,0.0689914200000002,0.937816,0.1054808,-0.3097247,-43.651,-36.17857,23.08352
15.944660187,-3.063881,0.01298836,0.3142034,0.9314737,0.1029883,-0.3106138,-43.651,-36.17857,23.08352
15.954518318,-3.188113,0.01298836,0.5594154,0.9271978,0.09566199,-0.3077395,-43.651,-36.17857,23.08352
15.964375973,-3.37446,0.1320062,0.743324399999998,0.9207593,0.09851251,-0.310978,-44.02198,-36.16891,23.46954
15.97423315,-3.871388,0.07249729,0.682021400000003,0.9164863,0.09313998,-0.3061705,-44.02198,-36.16891,23.46954
15.984091282,-4.057736,0.01298836,0.5594154,0.9208562,0.0892638,-0.3120159,-44.02198,-36.16891,23.46954
15.99394846,-3.622924,-0.2845563,0.3755064,0.9292248,0.08642308,-0.3107215,-44.02198,-36.16891,23.46954
16.003806591,-2.691185,-0.4035742,0.1302944,0.9248469,0.08492645,-0.3101926,-44.02198,-36.16891,23.46954
16.013664246,-2.442722,-0.5225921,-0.1762206,0.9242493,0.08196183,-0.3207514,-43.64703,-35.79884,23.91193
16.0235219,-2.691185,-1.474735,-0.1149176,0.9370669,0.08454377,-0.3113283,-43.64703,-35.79884,23.91193
16.033379555,-2.31849,-1.534244,-0.2988266,0.9420894,0.08120677,-0.3047193,-43.64703,-35.79884,23.91193
16.043236732,-2.256374,-1.950806,-0.1149176,0.9455087,0.07830628,-0.3076677,-43.64703,-35.79884,23.91193
16.053094864,-1.821563,-2.30786,-0.1149176,0.9547154,0.08617518,-0.3072533,-43.64703,-35.79884,23.91193
16.062952995,-1.759447,-2.486387,0.007688423,0.9641023,0.0882367,-0.2987441,-43.651,-36.17857,23.08352
16.072810173,-1.448867,-2.664914,0.007688423,0.968407,0.08873603,-0.30551,-43.651,-36.17857,23.08352
16.082667828,-0.951939799999999,-2.90295,-0.1762206,0.9743087,0.08879697,-0.3031977,-43.651,-36.17857,23.08352
16.092525482,-0.827707900000002,-3.081476,-0.05361458,0.9766848,0.09026337,-0.3070528,-43.651,-36.17857,23.08352
16.104847908,-0.889823900000002,-3.140985,0.1302944,0.98618,0.09089115,-0.2918484,-43.651,-36.17857,23.08352
16.114705086,-1.138287,-2.90295,0.1915974,0.9797964,0.08252808,-0.3009328,-44.02198,-36.16891,23.46954
16.124563217,-0.765591999999998,-2.664914,0.5594154,0.9758895,0.08200706,-0.3008815,-44.02198,-36.16891,23.46954
16.134420395,-0.641360199999998,-2.30786,0.988536299999999,0.9735423,0.08250183,-0.2931767,-44.02198,-36.16891,23.46954
16.144278526,-0.889823900000002,-1.891297,1.111142,0.9690285,0.08584871,-0.2983553,-44.02198,-36.16891,23.46954
16.154136181,-1.138287,-1.296208,1.417657,0.9667038,0.08390872,-0.2911505,-44.02198,-36.16891,23.46954
16.163993359,-1.138287,-0.5225921,1.601566,0.9614004,0.07851272,-0.2901621,-43.27928,-35.81474,23.07782
16.17385149,-1.200403,0.07249729,1.724172,0.9539353,0.08378195,-0.2948032,-43.27928,-35.81474,23.07782
16.183708668,-1.138287,0.5485688,1.724172,0.9562998,0.08182745,-0.3025206,-43.27928,-35.81474,23.07782
16.193566799,-1.200403,1.262676,1.908081,0.9523214,0.09007414,-0.2999983,-43.27928,-35.81474,23.07782
16.203424454,-0.951939799999999,1.798256,1.908081,0.9508179,0.09200383,-0.300919,-43.27928,-35.81474,23.07782
16.213281632,-0.5171283,2.214819,2.09199,0.9473827,0.0885528,-0.3047327,-44.02399,-35.80076,23.46576
16.223139763,-0.2686647,2.571872,1.969384,0.9521601,0.09539866,-0.307139,-44.02399,-35.80076,23.46576
16.232996941,-0.02020105,2.928926,2.153293,0.9471796,0.09630648,-0.3128108,-44.02399,-35.80076,23.46576
16.242855072,0.5388422,3.583524,2.214596,0.9471998,0.08801237,-0.3186315,-44.02399,-35.80076,23.46576
16.252712727,1.408465,3.702542,2.275899,0.947584,0.0918926,-0.322917,-44.02399,-35.80076,23.46576
16.262570381,1.905392,3.643033,2.030687,0.9462202,0.09581501,-0.3118429,-43.65301,-35.81042,23.07975
16.27489233,1.594813,3.464506,1.846778,0.9417872,0.09674386,-0.3132095,-43.65301,-35.81042,23.07975
16.284749985,1.284233,3.345489,1.662869,0.9465451,0.1035841,-0.3170531,-43.65301,-35.81042,23.07975
16.294608116,0.973653600000002,2.928926,1.47896,0.9471123,0.09921667,-0.3151813,-43.65301,-35.81042,23.07975
16.304465294,0.849421699999999,2.393346,0.8659304,0.9466875,0.0987425,-0.3108665,-43.65301,-35.81042,23.07975
16.314323425,0.663074000000001,1.857765,0.4368094,0.9496582,0.09243166,-0.3138372,-44.01875,-36.16267,23.91763
16.324180603,0.849421699999999,1.322185,0.0689914200000002,0.9471383,0.09483004,-0.3171355,-44.01875,-36.16267,23.91763
16.334038258,0.04191487,0.667586600000001,-0.2988266,0.9485015,0.0992073,-0.3209516,-44.01875,-36.16267,23.91763
16.343896389,-0.579244300000001,0.1320062,-0.2988266,0.9461413,0.0953043,-0.3180757,-44.01875,-36.16267,23.91763
16.353753567,-0.889823900000002,-0.3440652,-0.4827355,0.9438137,0.09141057,-0.3128042,-44.01875,-36.16267,23.91763
16.363611698,-0.765591999999998,-1.236699,-0.6666446,0.9443159,0.09581264,-0.3079822,-44.02674,-35.8061,23.08168
16.373468876,-0.827707900000002,-1.891297,-0.6666446,0.9443535,0.09045285,-0.3099447,-44.02674,-35.8061,23.08168
16.383327007,-0.5171283,-2.426878,-0.973159599999999,0.9527843,0.08567695,-0.3057924,-44.02674,-35.8061,23.08168
16.393184662,-0.02020105,-2.90295,-1.034463,0.9468862,0.08366413,-0.3095589,-44.02674,-35.8061,23.08168
16.40304184,1.03577,-3.260003,-0.727947499999999,0.9469615,0.08173267,-0.3057427,-44.02674,-35.8061,23.08168
16.412899971,1.781161,-3.498039,-0.6053416,0.9519913,0.08328001,-0.2943006,-44.01997,-36.53706,23.4733
16.422757149,1.967508,-3.97411,-0.2375236,0.9504583,0.08715416,-0.2956836,-44.01997,-36.53706,23.4733
16.43261528,1.719045,-4.093128,-0.05361458,0.9538523,0.08912875,-0.2961945,-44.01997,-36.53706,23.4733
16.444937229,0.5388422,-4.50969,0.2529004,0.9557813,0.09694979,-0.291364,-44.01997,-36.53706,23.4733
16.454794884,0.1040308,-4.50969,0.3755064,0.9558181,0.09110156,-0.2938099,-44.01997,-36.53706,23.4733
16.464653015,-0.2686647,-4.450181,0.682021400000003,0.953916,0.09695856,-0.2846286,-43.65025,-35.80508,23.46383
16.474510193,-0.889823900000002,-4.093128,0.804627399999999,0.9567601,0.09305277,-0.2947652,-43.65025,-35.80508,23.46383
16.484368324,-1.510983,-3.855092,0.927233400000001,0.957841,0.09211423,-0.2880798,-43.65025,-35.80508,23.46383
16.494225502,-1.759447,-3.617057,0.8659304,0.9622508,0.08873764,-0.2905671,-43.65025,-35.80508,23.46383
16.504083157,-1.759447,-2.962458,0.743324399999998,0.9661084,0.08680347,-0.2963888,-43.65025,-35.80508,23.46383
16.513941288,-1.262519,-2.010315,1.172445,0.964165,0.0823959,-0.2992735,-44.39571,-36.16459,23.47147
16.523798466,-0.4550124,-1.355717,1.172445,0.9660195,0.08824278,-0.3016466,-44.39571,-36.16459,23.47147
16.533656597,0.5388422,-0.939154599999998,1.295051,0.9631645,0.08482204,-0.2987596,-44.39571,-36.16459,23.47147
16.543513775,0.973653600000002,-0.4035742,1.111142,0.9605831,0.08964402,-0.3044325,-44.39571,-36.16459,23.47147
16.553371906,1.097885,0.01298836,1.049839,0.9625142,0.09014226,-0.3058934,-44.39571,-36.16459,23.47147
16.563229561,0.787305800000002,0.4295509,0.927233400000001,0.9614811,0.09695317,-0.3039044,-43.27129,-36.1713,23.91377
16.573086738,0.2282626,0.608077699999999,0.8659304,0.9625598,0.09894338,-0.2947982,-43.27129,-36.1713,23.91377
16.58294487,-0.2065488,0.846113400000001,0.4368094,0.9542366,0.09740303,-0.2966094,-43.27129,-36.1713,23.91377
16.592802048,-0.4550124,0.727095499999998,0.3142034,0.9458475,0.09535569,-0.3036951,-43.27129,-36.1713,23.91377
16.602660179,-0.827707900000002,0.4295509,0.007688423,0.9387231,0.0890046,-0.2935839,-43.27129,-36.1713,23.91377
16.612517834,-0.703476100000001,0.4295509,-0.4214326,0.9420831,0.08999304,-0.2974571,-44.02076,-35.79452,23.91386
16.624839783,-0.703476100000001,0.608077699999999,-0.1149176,0.9332627,0.08746966,-0.3007071,-44.02076,-35.79452,23.91386
16.634697437,-0.3928965,0.667586600000001,-0.05361458,0.9366025,0.09235815,-0.3026302,-44.02076,-35.79452,23.91386
16.644555092,-0.1444329,0.846113400000001,0.0689914200000002,0.9409544,0.08945328,-0.3089463,-44.02076,-35.79452,23.91386
16.654413223,-0.02020105,0.727095499999998,0.1302944,0.9409841,0.09190289,-0.3046133,-44.02076,-35.79452,23.91386
16.664270401,-0.0823169599999999,0.608077699999999,-0.05361458,0.9452535,0.09043919,-0.3157081,-44.02076,-35.79452,23.91386
16.674128532,0.2903785,0.5485688,0.007688423,0.9497761,0.08855946,-0.3086004,-44.02076,-35.79452,23.91386
16.68398571,0.2903785,0.5485688,0.007688423,0.9482849,0.08561036,-0.3129168,-44.02076,-35.79452,23.91386
16.693843365,-0.02020105,0.4890598,-0.2988266,0.9479911,0.0812677,-0.3024069,-44.02076,-35.79452,23.91386
16.703701496,-0.02020105,0.310533,-0.4214326,0.9473162,0.08755735,-0.3104906,-44.02076,-35.79452,23.91386
16.713558674,-0.3928965,-0.3440652,-0.727947499999999,0.944318,0.08848984,-0.3142736,-43.651,-36.17857,23.08352
16.723416805,-1.014056,-0.641609900000002,-1.095766,0.9443173,0.08800139,-0.3147569,-43.651,-36.17857,23.08352
16.733273983,-1.386751,-1.296208,-1.647493,0.9448945,0.08607794,-0.3099894,-43.651,-36.17857,23.08352
16.743132114,-1.324635,-1.117681,-2.015311,0.9428491,0.08310598,-0.3190901,-43.651,-36.17857,23.08352
16.752989769,-0.703476100000001,-1.296208,-1.892705,0.9467936,0.07826721,-0.3211039,-43.651,-36.17857,23.08352
16.762846947,0.2282626,-1.296208,-1.647493,0.9531959,0.0773593,-0.3188069,-43.64423,-36.90952,23.47515
16.772705078,1.097885,-1.296208,-1.340978,0.9521686,0.08368362,-0.3168221,-43.64423,-36.90952,23.47515
16.782562256,1.470581,-1.117681,-1.095766,0.9575588,0.08617501,-0.3140026,-43.64423,-36.90952,23.47515
16.794884682,1.097885,-1.415226,-1.034463,0.957545,0.08568286,-0.3154442,-43.64423,-36.90952,23.47515
16.804742336,1.097885,-1.415226,-0.789250600000002,0.9561683,0.08960157,-0.3053283,-43.64423,-36.90952,23.47515
16.814599991,0.911537699999999,-1.891297,-0.850553500000001,0.9556726,0.08520135,-0.3096712,-44.39972,-35.4283,23.46392
16.824458122,0.911537699999999,-2.248351,-0.973159599999999,0.9527547,0.08762141,-0.3062548,-44.39972,-35.4283,23.46392
16.8343153,1.160001,-2.545896,-0.973159599999999,0.9460665,0.08077133,-0.3004669,-44.39972,-35.4283,23.46392
16.844173431,1.470581,-2.486387,-1.034463,0.9410946,0.08314633,-0.3042096,-44.39972,-35.4283,23.46392
16.854030609,1.470581,-2.545896,-1.095766,0.9343978,0.07922314,-0.29648,-44.39972,-35.4283,23.46392
16.863888264,1.843277,-2.426878,-0.727947499999999,0.931953,0.075296,-0.2998327,-43.64423,-36.90952,23.47515
16.873746395,2.278088,-2.010315,-0.2988266,0.9344246,0.07971901,-0.2940803,-43.64423,-36.90952,23.47515
16.883603573,2.464436,-1.653262,0.2529004,0.9407791,0.07733279,-0.2965869,-43.64423,-36.90952,23.47515
16.893461704,3.023479,-1.653262,0.988536299999999,0.943791,0.07689246,-0.2913624,-43.64423,-36.90952,23.47515
16.903318882,3.085595,-1.117681,1.601566,0.9545851,0.08236738,-0.284282,-43.64423,-36.90952,23.47515
16.913177013,2.40232,-0.879645599999998,2.337202,0.9600846,0.09207819,-0.3029672,-43.64825,-36.17323,23.4676
16.923034668,1.284233,-0.582100999999999,2.398505,0.9722808,0.09315338,-0.3045696,-43.64825,-36.17323,23.4676
16.932891846,0.3524944,0.07249729,2.766323,0.9732698,0.0917004,-0.3050751,-43.64825,-36.17323,23.4676
16.942749977,-0.0823169599999999,0.370042,2.766323,0.9767447,0.08686288,-0.3056447,-43.64825,-36.17323,23.4676
16.952607155,-0.2065488,0.846113400000001,2.643717,0.9776145,0.08830523,-0.3123537,-43.64825,-36.17323,23.4676
16.964930058,-0.641360199999998,1.560221,2.766323,0.9683607,0.08823459,-0.3093472,-43.27653,-35.80939,23.4619
16.974787235,-1.014056,1.917274,2.70502,0.9658712,0.08917695,-0.3116997,-43.27653,-35.80939,23.4619
16.98464489,-0.765591999999998,2.274328,2.337202,0.9581274,0.08717847,-0.3072935,-43.27653,-35.80939,23.4619
16.994502544,-0.5171283,2.452855,1.908081,0.9562716,0.08035472,-0.305887,-43.27653,-35.80939,23.4619
17.004360199,0.04191487,2.69089,1.540263,0.9479455,0.0812547,-0.3057608,-43.27653,-35.80939,23.4619
17.01421833,0.787305800000002,2.452855,1.356354,0.9455636,0.07588082,-0.3057722,-43.64703,-35.79884,23.91193
17.024075508,1.346349,2.036292,1.233748,0.9476104,0.0754356,-0.2995755,-43.64703,-35.79884,23.91193
17.033933163,1.097885,1.798256,0.988536299999999,0.9471126,0.07396413,-0.3014976,-43.64703,-35.79884,23.91193
17.043790817,1.284233,1.381694,1.233748,0.9494337,0.08225006,-0.3033776,-43.64703,-35.79884,23.91193
17.053648472,1.160001,1.262676,1.049839,0.9435076,0.08755262,-0.3027692,-43.64703,-35.79884,23.91193
17.063506603,0.787305800000002,1.322185,0.682021400000003,0.9439657,0.09291858,-0.3003344,-43.64825,-36.17323,23.4676
17.073363781,0.3524944,1.500712,0.682021400000003,0.9446298,0.09248458,-0.2878884,-43.64825,-36.17323,23.4676
17.083221912,0.1661467,1.679239,0.620718400000002,0.9437615,0.08762504,-0.2840834,-43.64825,-36.17323,23.4676
17.09307909,0.04191487,1.798256,0.5594154,0.9443994,0.07400144,-0.2851659,-43.64825,-36.17323,23.4676
17.102936745,0.4767263,2.274328,0.8659304,0.9482456,0.07304043,-0.2909792,-43.64825,-36.17323,23.4676
17.112794876,0.973653600000002,2.15531,0.988536299999999,0.9513709,0.06140323,-0.2872883,-44.02076,-35.79452,23.91386
17.122652054,1.408465,2.393346,1.47896,0.959226,0.0639217,-0.2830662,-44.02076,-35.79452,23.91386
17.132510185,1.532697,2.393346,1.724172,0.9634306,0.07562161,-0.2873402,-44.02076,-35.79452,23.91386
17.144832134,0.911537699999999,2.631382,1.908081,0.9765471,0.07717714,-0.2927853,-44.02076,-35.79452,23.91386
17.154689789,0.2903785,2.69089,2.214596,0.9804966,0.07575742,-0.2914159,-44.02076,-35.79452,23.91386
17.164547443,0.04191487,3.047944,2.521111,0.9799323,0.07768457,-0.2952252,-44.39571,-36.16459,23.47147
17.174405098,-0.3928965,3.404998,2.888929,0.9789657,0.07230875,-0.2990904,-44.39571,-36.16459,23.47147
17.184263229,-0.827707900000002,3.702542,3.31805,0.9867789,0.0772564,-0.2958056,-44.39571,-36.16459,23.47147
17.194120407,-1.262519,4.238123,3.440656,0.9893029,0.06900051,-0.2973489,-44.39571,-36.16459,23.47147
17.203978539,-1.510983,4.595177,3.563262,0.9907297,0.06802543,-0.301211,-44.39571,-36.16459,23.47147
17.213835716,-1.076172,4.833212,3.256747,0.9843969,0.06748845,-0.2996877,-44.02399,-35.80076,23.46576
17.223693371,-0.579244300000001,5.130757,3.134141,0.9777583,0.0800464,-0.3090711,-44.02399,-35.80076,23.46576
17.233551502,-0.641360199999998,5.368793,3.011535,0.9722509,0.0775216,-0.3205147,-44.02399,-35.80076,23.46576
17.24340868,-0.703476100000001,5.90437299999999,2.950232,0.9628664,0.0857135,-0.3198326,-44.02399,-35.80076,23.46576
17.253266811,-1.076172,6.38044500000002,2.827626,0.9525484,0.08463324,-0.3240075,-44.02399,-35.80076,23.46576
17.263124466,-1.573099,6.737498,2.521111,0.9373919,0.08791885,-0.3204093,-44.77621,-35.42933,23.08177
17.272982121,-1.324635,6.85651600000003,2.09199,0.9249343,0.07372216,-0.3136427,-44.77621,-35.42933,23.08177
17.282839775,-0.2686647,7.09455200000001,1.662869,0.9174132,0.05958151,-0.3035917,-44.77621,-35.42933,23.08177
17.292696953,1.160001,6.91602500000001,1.47896,0.9099148,0.05995896,-0.3149825,-44.77621,-35.42933,23.08177
17.302555084,2.899247,6.67798900000002,1.233748,0.9035292,0.06770682,-0.3100341,-44.77621,-35.42933,23.08177
17.314877033,4.079449,6.14240899999998,0.743324399999998,0.9096576,0.08380872,-0.3128607,-43.65301,-35.81042,23.07975
17.324734688,4.141565,5.428301,0.3142034,0.920817,0.08485859,-0.3187613,-43.65301,-35.81042,23.07975
17.334592342,4.203681,4.714194,0.007688423,0.9323795,0.09369989,-0.3241227,-43.65301,-35.81042,23.07975
17.344449997,3.396174,4.000087,-0.2375236,0.9421889,0.1035584,-0.3136369,-43.65301,-35.81042,23.07975
17.354308128,2.278088,3.107453,-0.3601296,0.9479762,0.1011456,-0.3218861,-43.65301,-35.81042,23.07975
17.364165306,1.408465,2.393346,-0.3601296,0.9573326,0.1002691,-0.3181933,-44.03075,-35.06981,23.07414
17.374023438,0.5388422,1.679239,-0.2988266,0.9613574,0.09691789,-0.3130077,-44.03075,-35.06981,23.07414
17.383880615,0.3524944,0.965131299999997,-0.4214326,0.966814,0.09601065,-0.3083012,-44.03075,-35.06981,23.07414
17.39373827,0.2282626,0.2510241,-0.2375236,0.9741481,0.09021585,-0.3137258,-44.03075,-35.06981,23.07414
17.403596401,0.663074000000001,-0.4630831,-0.1762206,0.9757392,0.09026404,-0.3046433,-44.03075,-35.06981,23.07414
17.413453579,1.222117,-1.058172,-0.05361458,0.9738159,0.08195642,-0.309478,-44.7742,-35.79747,23.08554
17.42331171,1.408465,-1.534244,0.3142034,0.9783942,0.08253373,-0.2961207,-44.7742,-35.79747,23.08554
17.433169365,1.222117,-1.653262,0.5594154,0.9741877,0.08255069,-0.2816847,-44.7742,-35.79747,23.08554
17.44302702,1.097885,-1.831789,0.682021400000003,0.9733397,0.0737911,-0.2798297,-44.7742,-35.79747,23.08554
17.452884674,1.284233,-1.415226,1.233748,0.968003,0.07229144,-0.2778495,-44.7742,-35.79747,23.08554
17.462741852,1.03577,-1.296208,1.417657,0.9647068,0.07473876,-0.2662811,-44.77696,-35.80282,22.70146
17.472599983,0.600958099999998,-0.701118900000002,1.724172,0.9646801,0.07863696,-0.2648102,-44.77696,-35.80282,22.70146
17.484921932,-0.02020105,-0.1060295,1.785475,0.9637872,0.07035281,-0.2658258,-44.77696,-35.80282,22.70146
17.494780064,-0.2065488,0.4890598,2.030687,0.9618779,0.07571951,-0.2576069,-44.77696,-35.80282,22.70146
17.504637241,-0.579244300000001,0.9056224,2.214596,0.9647336,0.07523462,-0.2638813,-44.40448,-35.06549,23.07607
17.514494896,-0.951939799999999,1.61973,2.214596,0.9696881,0.0699253,-0.2639967,-44.40448,-35.06549,23.07607
17.524353027,-1.635215,1.917274,2.030687,0.9655793,0.0737408,-0.2749276,-44.40448,-35.06549,23.07607
17.534210205,-1.945794,1.857765,1.785475,0.9606298,0.07368104,-0.2791703,-44.40448,-35.06549,23.07607
17.544068336,-1.945794,2.333837,1.172445,0.9600799,0.07219472,-0.2849254,-44.40448,-35.06549,23.07607
17.553925991,-1.448867,2.452855,0.5594154,0.9586257,0.07218552,-0.2839464,-44.40448,-35.06549,23.07607
17.563783646,-0.951939799999999,2.214819,-0.1149176,0.9616904,0.06785442,-0.2782762,-44.03352,-35.07515,22.69006
17.5736413,-0.2065488,1.976783,-0.789250600000002,0.9586595,0.0599895,-0.2921962,-44.03352,-35.07515,22.69006
17.583498478,0.849421699999999,1.738747,-1.034463,0.956457,0.05271386,-0.2807254,-44.03352,-35.07515,22.69006
17.593356609,1.656929,1.381694,-1.279675,0.9552143,0.0672766,-0.2872936,-44.03352,-35.07515,22.69006
17.603214741,1.719045,0.965131299999997,-1.463584,0.9506181,0.08085278,-0.2895095,-44.03352,-35.07515,22.69006
17.613071918,1.03577,0.310533,-1.831402,0.9491472,0.07839768,-0.2919052,-44.78219,-35.44091,22.2496
17.622929573,0.849421699999999,-0.1060295,-1.58619,0.9517221,0.07796791,-0.2828408,-44.78219,-35.44091,22.2496
17.632786751,0.600958099999998,-0.04652058,-1.524887,0.9529745,0.08231361,-0.2948019,-44.78219,-35.44091,22.2496
17.642644882,0.663074000000001,-0.3440652,-1.402281,0.9457799,0.07691896,-0.2889945,-44.78219,-35.44091,22.2496
17.652503014,0.787305800000002,-0.582100999999999,-1.157069,0.946287,0.07595197,-0.2885307,-44.78219,-35.44091,22.2496
17.664824963,1.656929,-1.236699,-0.911856500000002,0.946918,0.07502025,-0.2789636,-44.03075,-35.06981,23.07414
17.674682617,1.967508,-1.474735,-0.6053416,0.9420083,0.07546007,-0.2798483,-44.03075,-35.06981,23.07414
17.684539795,1.346349,-1.891297,-0.4827355,0.9488187,0.08136855,-0.2774995,-44.03075,-35.06981,23.07414
17.694397926,0.5388422,-2.486387,-0.4214326,0.9507859,0.07992418,-0.2780189,-44.03075,-35.06981,23.07414
17.704255104,0.1040308,-2.90295,-0.3601296,0.9474041,0.07307082,-0.2809038,-44.77747,-34.68768,23.45832
17.714113235,0.1661467,-3.557548,-0.2988266,0.9549458,0.06245294,-0.2753505,-44.77747,-34.68768,23.45832
17.72397089,0.725189899999998,-3.676566,-0.1762206,0.9552549,0.07265868,-0.2795815,-44.77747,-34.68768,23.45832
17.733828545,0.725189899999998,-4.271655,0.0689914200000002,0.9621131,0.07565141,-0.2762996,-44.77747,-34.68768,23.45832
17.743686199,0.1040308,-4.152637,0.3755064,0.9639703,0.07905796,-0.2806101,-44.77747,-34.68768,23.45832
17.753543377,-0.3307806,-3.914601,0.927233400000001,0.9682658,0.08199575,-0.2859178,-44.77747,-34.68768,23.45832
17.763401508,-0.827707900000002,-3.557548,1.356354,0.9691553,0.0922318,-0.283448,-44.03552,-34.70701,22.68629
17.77325964,-2.00791,-3.498039,1.785475,0.9735416,0.08201339,-0.29366,-44.03552,-34.70701,22.68629
17.783116817,-2.442722,-3.260003,2.09199,0.9681681,0.07757384,-0.2969753,-44.03552,-34.70701,22.68629
17.792974472,-2.629069,-2.843441,2.459808,0.9676906,0.08099044,-0.293106,-44.03552,-34.70701,22.68629
17.802832127,-3.250229,-2.664914,2.337202,0.9667182,0.08049525,-0.2930964,-44.03552,-34.70701,22.68629
17.812689781,-3.560808,-2.486387,2.214596,0.9672196,0.07562077,-0.296499,-44.40448,-35.06549,23.07607
17.822547913,-3.312345,-2.129333,1.969384,0.9589013,0.06871136,-0.3026684,-44.40448,-35.06549,23.07607
17.834869862,-2.132142,-2.069824,1.724172,0.9565534,0.05992958,-0.3031882,-44.40448,-35.06549,23.07607
17.844727516,-0.703476100000001,-1.712771,1.356354,0.9584555,0.05846663,-0.3084989,-44.40448,-35.06549,23.07607
17.854584694,-0.02020105,-1.653262,0.988536299999999,0.9556331,0.05944924,-0.2993456,-44.76944,-36.16027,23.4734
17.864442825,0.1040308,-1.534244,0.620718400000002,0.9555977,0.06188028,-0.2998037,-44.76944,-36.16027,23.4734
17.874300003,0.4767263,-1.355717,0.007688423,0.9516777,0.06135555,-0.3007107,-44.76944,-36.16027,23.4734
17.884158134,0.5388422,-1.236699,-0.4214326,0.9506938,0.06183352,-0.3006926,-44.76944,-36.16027,23.4734
17.894015789,0.600958099999998,-1.296208,-0.850553500000001,0.9472613,0.05594217,-0.3064439,-44.76944,-36.16027,23.4734
17.903873444,1.160001,-1.17719,-1.095766,0.9452537,0.06079259,-0.3058951,-44.40247,-35.43364,23.07984
17.913731098,1.594813,-1.058172,-1.218372,0.9437271,0.05588047,-0.3145404,-44.40247,-35.43364,23.07984
17.92358923,1.594813,-1.17719,-1.340978,0.950031,0.06324439,-0.3121721,-44.40247,-35.43364,23.07984
17.933446407,1.097885,-1.474735,-1.402281,0.9518377,0.06761295,-0.319349,-44.40247,-35.43364,23.07984
17.943304539,0.4767263,-1.653262,-1.157069,0.9543686,0.06814705,-0.3126717,-44.40247,-35.43364,23.07984
17.953161716,0.2282626,-1.950806,-0.789250600000002,0.9551798,0.07396676,-0.3198222,-44.03001,-34.69632,23.45445
17.963019371,0.2903785,-2.129333,-0.5440385,0.9606066,0.0706099,-0.3194486,-44.03001,-34.69632,23.45445
17.972877502,-0.02020105,-2.367369,-0.2375236,0.9581078,0.07399072,-0.3203429,-44.03001,-34.69632,23.45445
17.98273468,-0.579244300000001,-2.783932,0.007688423,0.9575861,0.07397714,-0.3227316,-44.03001,-34.69632,23.45445
17.992592812,-1.014056,-3.260003,0.1302944,0.95116,0.08073699,-0.3216245,-44.03001,-34.69632,23.45445
18.002449989,-1.262519,-3.914601,0.3755064,0.9482399,0.07290363,-0.3273994,-44.03001,-34.69632,23.45445
18.014772415,-1.138287,-4.628708,0.4368094,0.9467589,0.07679262,-0.3249495,-44.028,-35.06446,23.45822
18.02463007,-1.386751,-5.164289,0.620718400000002,0.9521201,0.08171689,-0.3221092,-44.028,-35.06446,23.45822
18.034487724,-1.324635,-5.64036,0.8659304,0.9467928,0.07777877,-0.3215873,-44.028,-35.06446,23.45822
18.044345856,-1.262519,-6.35446700000003,1.172445,0.9444155,0.0753355,-0.3186988,-44.028,-35.06446,23.45822
18.054203033,-1.262519,-6.94955700000003,1.540263,0.9419772,0.07580427,-0.3177017,-44.77145,-35.79213,23.46963
18.064061165,-1.386751,-7.723173,1.540263,0.9345801,0.07865175,-0.3194891,-44.77145,-35.79213,23.46963
18.073918343,-1.510983,-8.13973500000002,1.724172,0.9347328,0.07625414,-0.3104067,-44.77145,-35.79213,23.46963
18.083775997,-1.138287,-8.67531599999998,1.785475,0.9313973,0.0699022,-0.3094543,-44.77145,-35.79213,23.46963
18.093634129,-1.014056,-9.03236999999999,1.785475,0.9374074,0.0685294,-0.3004468,-44.77145,-35.79213,23.46963
18.103491306,-1.200403,-9.270405,1.785475,0.9328994,0.07578376,-0.3017589,-44.77023,-35.41774,23.91395
18.113349438,-1.697331,-9.21089600000002,1.846778,0.9359323,0.07193182,-0.2980011,-44.77023,-35.41774,23.91395
18.123207092,-2.070026,-9.03236999999999,1.908081,0.9481935,0.07302558,-0.2948122,-44.77023,-35.41774,23.91395
18.133064747,-2.070026,-9.21089600000002,2.030687,0.956929,0.06673669,-0.3055321,-44.77023,-35.41774,23.91395
18.142922401,-2.00791,-9.03236999999999,1.846778,0.959454,0.06336331,-0.3027214,-44.77023,-35.41774,23.91395
18.152779579,-2.691185,-8.79433299999997,1.356354,0.9662832,0.06878892,-0.2994185,-44.02277,-35.42638,23.91009
18.162637711,-2.939649,-8.55629800000001,1.295051,0.9623973,0.06925035,-0.2969633,-44.02277,-35.42638,23.91009
18.172495842,-2.815417,-8.31826200000003,0.927233400000001,0.965313,0.06536499,-0.3018296,-44.02277,-35.42638,23.91009
18.184817314,-2.566953,-7.90170000000001,0.3755064,0.9644598,0.05318635,-0.3033578,-44.02277,-35.42638,23.91009
18.194674969,-1.510983,-7.48513700000001,0.1302944,0.96257,0.05416457,-0.2975723,-44.02277,-35.42638,23.91009
18.204532623,-0.703476100000001,-6.94955700000003,-0.05361458,0.9626871,0.04980393,-0.2928187,-44.39173,-35.78486,24.29988
18.214390755,-0.1444329,-7.00906600000001,-0.2375236,0.9586804,0.05218382,-0.2975335,-44.39173,-35.78486,24.29988
18.224247932,0.04191487,-6.29495900000002,-0.1149176,0.9508058,0.0584479,-0.2954516,-44.39173,-35.78486,24.29988
18.234106064,0.1661467,-5.759378,0.1302944,0.9449331,0.05595407,-0.297785,-44.39173,-35.78486,24.29988
18.243963718,0.725189899999998,-5.223798,0.5594154,0.9454749,0.0520676,-0.2973463,-44.39173,-35.78486,24.29988
18.253820896,1.160001,-4.390673,1.111142,0.9482874,0.06621719,-0.2939126,-44.02202,-35.05288,24.2904
18.263679028,0.600958099999998,-3.736075,1.233748,0.9398688,0.07050837,-0.29759,-44.02202,-35.05288,24.2904
18.273536205,-0.2686647,-3.200494,1.47896,0.9368786,0.07241958,-0.2999272,-44.02202,-35.05288,24.2904
18.283394337,-1.076172,-2.426878,2.214596,0.9383227,0.0743788,-0.2999312,-44.02202,-35.05288,24.2904
18.293251991,-1.386751,-1.891297,2.582414,0.9358497,0.06458487,-0.3105211,-44.02202,-35.05288,24.2904
18.303109646,-1.448867,-1.534244,3.195444,0.9317417,0.07328284,-0.3170979,-44.01678,-35.41479,24.74227
18.3129673,-1.386751,-1.296208,3.747171,0.9302376,0.07472409,-0.3185019,-44.01678,-35.41479,24.74227
18.322825432,-1.697331,-1.058172,4.114989,0.9267915,0.07273465,-0.321824,-44.01678,-35.41479,24.74227
18.33268261,-1.635215,-1.117681,4.421504,0.922499,0.07175061,-0.3145831,-44.01678,-35.41479,24.74227
18.342540741,-1.821563,-1.117681,4.850626,0.9179807,0.07216688,-0.3226616,-44.01678,-35.41479,24.74227
18.35486269,-2.194258,-0.939154599999998,5.647564,0.9223245,0.06388923,-0.3342941,-44.39252,-35.04233,24.74043
18.364720345,-2.070026,-0.582100999999999,6.62841199999998,0.9262862,0.05319666,-0.3401912,-44.39252,-35.04233,24.74043
18.374577522,-1.448867,-0.4630831,7.057533,0.9321574,0.05031956,-0.3426952,-44.39252,-35.04233,24.74043
18.384435654,-1.386751,-0.879645599999998,7.24144199999999,0.9379202,0.05327026,-0.3480236,-44.39252,-35.04233,24.74043
18.394293785,-2.256374,-1.355717,7.057533,0.9455121,0.0669429,-0.3532876,-44.39252,-35.04233,24.74043
18.404150963,-4.492547,-1.712771,6.62841199999998,0.9532502,0.07382201,-0.353819,-44.7655,-34.66452,25.12267
18.414008617,-6.54237199999997,-2.069824,5.77016999999999,0.9639759,0.05535432,-0.3728166,-44.7655,-34.66452,25.12267
18.423866272,-6.85295199999998,-2.843441,5.279747,0.9669701,0.03440343,-0.3869328,-44.7655,-34.66452,25.12267
18.433723927,-5.548518,-3.676566,4.605413,0.9729837,0.02229062,-0.3871208,-44.7655,-34.66452,25.12267
18.443582058,-3.99562,-4.50969,3.808474,0.9763539,0.02572309,-0.3880982,-44.7655,-34.66452,25.12267
18.453439236,-2.380606,-5.10478,3.440656,0.9724448,0.02373677,-0.3894969,-44.77027,-34.30172,24.73482
18.46329689,-1.448867,-5.81888699999998,3.195444,0.9617608,0.02659311,-0.3811741,-44.77027,-34.30172,24.73482
18.473155022,-0.2686647,-6.29495900000002,3.256747,0.9546601,0.01439007,-0.3744671,-44.77027,-34.30172,24.73482
18.4830122,1.408465,-6.41397600000001,3.747171,0.9438561,0.01965331,-0.3728311,-44.77027,-34.30172,24.73482
18.492870331,3.209827,-6.652012,4.298898,0.9367794,0.01917458,-0.3540455,-44.77027,-34.30172,24.73482
18.502727509,4.576376,-6.71152099999998,4.789322,0.9270353,0.02691088,-0.3442573,-44.02402,-34.68473,24.28663
18.51258564,4.700608,-7.00906600000001,4.973231,0.9217901,0.03422533,-0.327828,-44.02402,-34.68473,24.28663
18.524907589,4.141565,-6.830539,5.89277599999998,0.9233471,0.04207549,-0.3143664,-44.02402,-34.68473,24.28663
18.534765244,4.327913,-6.41397600000001,6.44450299999999,0.9324334,0.03100437,-0.3035678,-44.02402,-34.68473,24.28663
18.544623375,5.632347,-5.64036,7.42535099999997,0.9428598,0.03065089,-0.2926978,-44.02402,-34.68473,24.28663
18.554480553,6.00504300000001,-4.50969,8.77401600000001,0.963718,0.04152771,-0.2962576,-44.39854,-33.93789,24.72912
18.564338684,4.949072,-3.260003,10.24529,0.9734919,0.0494232,-0.2901007,-44.39854,-33.93789,24.72912
18.574195862,3.085595,-1.712771,11.16483,0.9967832,0.06080625,-0.2941702,-44.39854,-33.93789,24.72912
18.584053516,0.600958099999998,-0.820136700000001,11.90047,1.014618,0.06919093,-0.3063336,-44.39854,-33.93789,24.72912
18.593911648,-1.200403,-0.1655384,11.90047,1.035279,0.07038201,-0.2970341,-44.39854,-33.93789,24.72912
18.603768825,-3.063881,0.07249729,11.04223,1.031235,0.06054545,-0.315269,-45.51099,-33.90801,25.95118
18.613626957,-4.678895,-0.3440652,10.00008,1.029772,0.06785721,-0.3084776,-45.51099,-33.90801,25.95118
18.623484611,-5.424286,-0.1655384,8.528805,1.019608,0.05705652,-0.3098616,-45.51099,-33.90801,25.95118
18.633342266,-4.368315,0.07249729,7.18013899999999,0.9938079,0.04221619,-0.3134527,-45.51099,-33.90801,25.95118
18.643199921,-2.00791,0.667586600000001,6.13798800000002,0.9733768,0.0376729,-0.308887,-45.51099,-33.90801,25.95118
18.653057098,-0.3307806,1.500712,5.095838,0.9473465,0.04766662,-0.3074733,-45.51898,-33.55145,25.11523
18.66291523,0.4767263,2.452855,4.114989,0.9240157,0.04896617,-0.2951498,-45.51898,-33.55145,25.11523
18.672773361,1.284233,3.404998,3.011535,0.904965,0.04734041,-0.2944128,-45.51898,-33.55145,25.11523
18.682630539,2.153856,4.535667,1.908081,0.889861,0.04234119,-0.2942397,-45.51898,-33.55145,25.11523
18.692488193,2.588667,5.725846,1.233748,0.8815192,0.05007183,-0.2892636,-45.51898,-33.55145,25.11523
18.704810142,3.023479,7.27307799999999,0.2529004,0.8759866,0.0524221,-0.2982697,-45.14726,-33.18761,25.10952
18.714668274,2.153856,7.98718600000001,-0.6053416,0.8793662,0.06220422,-0.2929641,-45.14726,-33.18761,25.10952
18.724525452,1.408465,8.64178400000002,-1.279675,0.8933547,0.07106147,-0.2997975,-45.14726,-33.18761,25.10952
18.734383583,0.2282626,9.593927,-2.015311,0.9065767,0.06922951,-0.3004807,-45.14726,-33.18761,25.10952
18.744241238,-1.076172,10.01049,-2.199219,0.9182569,0.06541049,-0.3083465,-45.14726,-33.18761,25.10952
18.754098415,-2.877533,10.7246,-2.321826,0.9308251,0.07085063,-0.3147094,-45.15202,-32.82481,24.72167
18.763956547,-4.244083,10.66509,-2.076613,0.94591,0.0675446,-0.3235779,-45.15202,-32.82481,24.72167
18.773814678,-5.486402,10.60558,-1.647493,0.9680712,0.07301698,-0.3439739,-45.15202,-32.82481,24.72167
18.783671856,-7.47411100000001,10.24853,-0.6053416,0.9804946,0.08183345,-0.3579733,-45.15202,-32.82481,24.72167
18.79352951,-9.64816799999999,9.772454,0.0689914200000002,1.001304,0.08586104,-0.3711743,-45.15202,-32.82481,24.72167
18.803387165,-12.38127,9.05834700000001,0.682021400000003,1.011139,0.07424513,-0.3776421,-45.52374,-33.18864,24.72737
18.81324482,-14.12051,7.57062300000002,0.927233400000001,1.005083,0.04107583,-0.3845445,-45.52374,-33.18864,24.72737
18.823102951,-13.56147,6.38044500000002,0.8659304,0.9881968,0.02634454,-0.3801154,-45.52374,-33.18864,24.72737
18.832960129,-10.76625,5.249775,0.8659304,0.9680035,0.002339981,-0.3752382,-45.52374,-33.18864,24.72737
18.84281826,-7.34987899999998,4.297632,0.804627399999999,0.9484811,-0.0007498115,-0.3745068,-45.52374,-33.18864,24.72737
18.852675915,-4.927359,2.750399,0.682021400000003,0.9261429,-0.002855138,-0.364143,-45.9007,-33.19056,24.28121
18.862533092,-2.566953,2.036292,0.4981124,0.9050545,-0.01903292,-0.3462486,-45.9007,-33.19056,24.28121
18.874855041,1.656929,1.61973,0.8659304,0.8860989,-0.04344303,-0.3227037,-45.9007,-33.19056,24.28121
18.884713173,5.88081099999999,1.322185,1.295051,0.8813158,-0.04540826,-0.3164225,-45.9007,-33.19056,24.28121
18.894571304,8.676027,1.203167,2.030687,0.8859807,-0.02248303,-0.3129411,-45.9007,-33.19056,24.28121
18.904428482,8.86237499999997,1.262676,1.969384,0.896992,-0.002922751,-0.3134122,-45.90267,-33.93844,23.45657
18.914286137,7.99275200000001,1.560221,2.214596,0.9135157,0.01818732,-0.3029271,-45.90267,-33.93844,23.45657
18.924144268,6.37773799999999,1.61973,2.153293,0.933413,0.02759579,-0.3064857,-45.90267,-33.93844,23.45657
18.934001446,4.514261,1.976783,2.030687,0.9567448,0.03557281,-0.3105845,-45.90267,-33.93844,23.45657
18.943859577,1.594813,1.61973,1.417657,0.9801886,0.04016419,-0.3094423,-45.90267,-33.93844,23.45657
18.953716755,-1.324635,1.441203,0.804627399999999,1.002172,0.0408389,-0.3111875,-46.27518,-33.55974,23.90283
18.963574886,-2.380606,1.61973,0.1302944,1.011195,0.03072609,-0.3042134,-46.27518,-33.55974,23.90283
18.973432541,-2.070026,1.381694,-0.4827355,1.015197,0.01662747,-0.3101399,-46.27518,-33.55974,23.90283
18.983289719,-0.1444329,1.857765,-0.789250600000002,1.009734,0.02192691,-0.3114549,-46.27518,-33.55974,23.90283
18.99314785,1.843277,2.214819,-0.4214326,1.011316,0.02050794,-0.3043014,-46.27518,-33.55974,23.90283
19.003005981,3.396174,3.404998,0.007688423,1.005756,0.03456765,-0.3050619,-45.52571,-33.93652,23.90273
19.012863159,4.079449,4.357141,0.682021400000003,0.9913668,0.04512527,-0.3105181,-45.52571,-33.93652,23.90273
19.022720814,3.893102,5.84486400000001,1.601566,0.9804775,0.05426999,-0.3117234,-45.52571,-33.93652,23.90273
19.032578468,2.961363,7.451605,2.09199,0.9611286,0.04976502,-0.2995056,-45.52571,-33.93652,23.90273
19.044900894,1.594813,8.58227499999998,2.337202,0.9472054,0.04532041,-0.2840103,-45.52571,-33.93652,23.90273
19.054758072,0.973653600000002,9.17736400000001,2.521111,0.9380103,0.04526648,-0.2766917,-45.90346,-33.19591,23.89713
19.064616203,0.1040308,9.53441800000002,2.214596,0.9379469,0.05501289,-0.272775,-45.90346,-33.19591,23.89713
19.074473858,-1.324635,10.07,2.030687,0.9363075,0.06178608,-0.2794032,-45.90346,-33.19591,23.89713
19.084331036,-3.063881,10.18902,1.662869,0.9480644,0.0526184,-0.286357,-45.90346,-33.19591,23.89713
19.094189167,-3.125997,10.60558,1.969384,0.948164,0.04092938,-0.2893322,-45.90346,-33.19591,23.89713
19.104046345,-2.691185,10.60558,2.521111,0.960243,0.04636522,-0.2956881,-45.90543,-33.94378,23.07249
19.113904476,-3.37446,10.42705,2.582414,0.9669407,0.05956496,-0.295193,-45.90543,-33.94378,23.07249
19.123762131,-5.175822,9.593927,2.459808,0.9676947,0.06634481,-0.3056889,-45.90543,-33.94378,23.07249
19.133619785,-6.666604,9.17736400000001,1.785475,0.9682387,0.05952959,-0.3076709,-45.90543,-33.94378,23.07249
19.14347744,-6.79083600000002,8.87982000000001,1.111142,0.9610049,0.04533569,-0.3124796,-45.90543,-33.94378,23.07249
19.153335571,-5.300054,8.225222,0.743324399999998,0.9602456,0.02634866,-0.3131082,-46.28316,-33.20317,23.06688
19.163192749,-3.560808,7.51111399999998,-0.05361458,0.9553114,0.02775793,-0.3149428,-46.28316,-33.20317,23.06688
19.17305088,-1.635215,6.85651600000003,-0.6666446,0.9514086,0.0213794,-0.319733,-46.28316,-33.20317,23.06688
19.182908535,0.2282626,6.20191800000002,-1.157069,0.9471037,0.01648602,-0.3168378,-46.28316,-33.20317,23.06688
19.192765713,1.470581,5.666337,-1.402281,0.9401292,0.01834236,-0.3243899,-46.28316,-33.20317,23.06688
19.202623844,1.656929,5.190266,-1.463584,0.9429597,0.03152066,-0.3204854,-46.28392,-33.57667,22.68657
19.212481022,1.160001,4.595177,-1.463584,0.9467633,0.03689446,-0.3238487,-46.28392,-33.57667,22.68657
19.224803925,-0.02020105,3.940578,-2.076613,0.947026,0.03781065,-0.3396583,-46.28392,-33.57667,22.68657
19.234661102,-0.703476100000001,2.274328,-2.567038,0.9435719,0.03484248,-0.3444261,-46.28392,-33.57667,22.68657
19.244518757,-1.510983,0.786604499999998,-3.425279,0.9422998,0.02609715,-0.3377729,-46.28392,-33.57667,22.68657
19.254376888,-1.945794,-0.582100999999999,-3.8544,0.9474821,0.01645876,-0.3249898,-45.91743,-32.85093,22.229
19.264234066,-1.448867,-1.891297,-4.099612,0.9441162,0.002774728,-0.3327245,-45.91743,-32.85093,22.229
19.274092197,0.2282626,-2.783932,-4.099612,0.9417654,-0.003566742,-0.3313069,-45.91743,-32.85093,22.229
19.283949375,1.843277,-3.43853,-3.977006,0.9393699,-0.005038716,-0.3288892,-45.91743,-32.85093,22.229
19.293807507,3.520406,-4.152637,-3.302674,0.9436827,0.0008333942,-0.3303387,-45.91743,-32.85093,22.229
19.303665161,3.830986,-4.50969,-2.812249,0.9397773,0.005683309,-0.3254501,-46.28915,-33.21476,22.2347
19.313522339,4.141565,-5.045271,-2.321826,0.9398331,0.0125344,-0.3153299,-46.28915,-33.21476,22.2347
19.32338047,3.706754,-5.699869,-2.444432,0.9380222,0.01402333,-0.3033115,-46.28915,-33.21476,22.2347
19.333238125,3.76887,-6.53299399999998,-2.567038,0.9387405,0.006281376,-0.2933239,-46.28915,-33.21476,22.2347
19.343095779,4.390029,-6.830539,-2.812249,0.9540519,-0.002330599,-0.2902604,-46.28915,-33.21476,22.2347
19.352953434,5.321767,-7.24710100000002,-3.057462,0.9559238,0.006450599,-0.2887754,-46.28392,-33.57667,22.68657
19.362811565,6.06715799999999,-7.54464599999999,-3.057462,0.9645257,0.01525864,-0.2960117,-46.28392,-33.57667,22.68657
19.372668743,5.94292600000003,-7.54464599999999,-3.363976,0.9797049,0.0183264,-0.2923685,-46.28392,-33.57667,22.68657
19.382526875,5.445999,-7.66366400000002,-2.934855,0.9874219,0.02422307,-0.2953039,-46.28392,-33.57667,22.68657
19.394848824,3.955218,-7.723173,-2.750947,0.9938445,0.02820322,-0.2872155,-46.28392,-33.57667,22.68657
19.404706478,3.085595,-7.723173,-2.873553,0.9903904,0.02523506,-0.2919833,-45.90819,-33.94913,22.6884
19.414563656,3.023479,-7.96120899999999,-2.934855,0.980647,0.02467167,-0.2894532,-45.90819,-33.94913,22.6884
19.424421787,3.209827,-8.37777100000001,-2.812249,0.9837001,0.02131373,-0.2837746,-45.90819,-33.94913,22.6884
19.434279919,3.582522,-8.13973500000002,-2.750947,0.9803408,0.02081373,-0.2794182,-45.90819,-33.94913,22.6884
19.444137097,4.079449,-8.31826200000003,-2.505734,0.9798995,0.01789367,-0.2784781,-45.90819,-33.94913,22.6884
19.453994751,4.638493,-8.08022700000001,-1.770099,0.9770287,0.0213036,-0.2707413,-45.9122,-33.21284,22.68086
19.463852406,4.700608,-7.66366400000002,-0.911856500000002,0.97443,0.03197937,-0.2725309,-45.9122,-33.21284,22.68086
19.47371006,4.762724,-6.71152099999998,0.0689914200000002,0.9738505,0.03683157,-0.2748777,-45.9122,-33.21284,22.68086
19.483568192,4.327913,-5.87839600000002,1.233748,0.9644732,0.04111971,-0.2771039,-45.9122,-33.21284,22.68086
19.493425369,2.837131,-5.342815,2.030687,0.9562247,0.0459476,-0.2678408,-45.9122,-33.21284,22.68086
19.503283501,1.656929,-4.033619,2.337202,0.9572296,0.04205801,-0.2693256,-45.53169,-33.9481,23.07055
19.513141155,1.408465,-3.021967,2.582414,0.9517714,0.04638243,-0.271128,-45.53169,-33.9481,23.07055
19.522998333,1.284233,-2.069824,2.643717,0.9444994,0.04145394,-0.2705868,-45.53169,-33.9481,23.07055
19.532856465,2.029624,-1.296208,2.521111,0.9469231,0.03561052,-0.2773795,-45.53169,-33.9481,23.07055
19.542714596,2.464436,-0.3440652,2.582414,0.9498185,0.03123115,-0.2841665,-45.53169,-33.9481,23.07055
19.552571773,2.650783,0.846113400000001,2.827626,0.9542415,0.04104045,-0.2740835,-45.52296,-33.93117,24.28682
19.564893722,2.278088,2.15531,3.195444,0.9520383,0.03704705,-0.2956498,-45.52296,-33.93117,24.28682
19.574751377,1.905392,2.928926,3.563262,0.9553484,0.03948594,-0.301906,-45.52296,-33.93117,24.28682
19.584609508,0.725189899999998,3.762051,3.501959,0.9602336,0.04440963,-0.2981005,-45.52296,-33.93117,24.28682
19.594466686,-0.0823169599999999,4.297632,3.501959,0.9605802,0.04486152,-0.3081648,-45.52296,-33.93117,24.28682
19.604324818,-0.827707900000002,4.595177,3.256747,0.9648735,0.04633399,-0.3149223,-46.27518,-33.55974,23.90283
19.614182472,-1.821563,4.833212,2.521111,0.963305,0.04824512,-0.3206342,-46.27518,-33.55974,23.90283
19.62403965,-2.442722,4.714194,1.662869,0.9657815,0.04729905,-0.3192399,-46.27518,-33.55974,23.90283
19.633897781,-3.001765,4.714194,1.172445,0.9609208,0.0326178,-0.3298369,-46.27518,-33.55974,23.90283
19.643755913,-2.629069,4.41665,0.804627399999999,0.9590605,0.02725751,-0.3274597,-46.27518,-33.55974,23.90283
19.65361309,-1.635215,4.41665,0.743324399999998,0.9523557,0.0223556,-0.3211758,-45.53496,-32.83831,23.44333
19.663470745,-0.765591999999998,4.357141,0.682021400000003,0.9484257,0.01938684,-0.3249785,-45.53496,-32.83831,23.44333
19.6733284,0.2903785,4.119105,0.4368094,0.9478079,0.02471633,-0.3297167,-45.53496,-32.83831,23.44333
19.683186054,1.097885,3.940578,0.3755064,0.9443373,0.03248445,-0.3262473,-45.53496,-32.83831,23.44333
19.693044186,0.787305800000002,3.226471,0.2529004,0.9403401,0.041214,-0.3246791,-45.53496,-32.83831,23.44333
19.702901363,-0.1444329,2.571872,-0.1149176,0.942261,0.03926819,-0.3290356,-45.53571,-33.21181,23.06301
19.712759495,-0.951939799999999,1.976783,-0.4214326,0.937548,0.03634652,-0.3184508,-45.53571,-33.21181,23.06301
19.722617149,-1.573099,1.143658,-0.911856500000002,0.9312895,0.0289956,-0.3174652,-45.53571,-33.21181,23.06301
19.732474327,-1.945794,0.1915152,-0.911856500000002,0.9313489,0.02950075,-0.3126698,-45.53571,-33.21181,23.06301
19.74479723,-1.635215,-0.701118900000002,-1.095766,0.9284396,0.02899391,-0.311195,-45.53571,-33.21181,23.06301
19.754654407,-1.076172,-1.593753,-0.6666446,0.9305862,0.02564779,-0.3002322,-46.2784,-33.56598,23.45473
19.764512539,-0.579244300000001,-2.426878,-0.6666446,0.9301484,0.02077584,-0.3007463,-46.2784,-33.56598,23.45473
19.774369717,-0.02020105,-2.426878,-0.1762206,0.9287268,0.02516999,-0.293501,-46.2784,-33.56598,23.45473
19.784227371,0.1661467,-2.783932,0.5594154,0.9343187,0.02332487,-0.2796994,-46.2784,-33.56598,23.45473
19.794085503,0.2903785,-2.724423,1.47896,0.9400476,0.03407753,-0.2806488,-46.2784,-33.56598,23.45473
19.80394268,-0.579244300000001,-2.248351,2.459808,0.9493079,0.03854409,-0.2793055,-46.27718,-33.19159,23.89906
19.813800812,-1.821563,-2.188842,3.256747,0.958092,0.04301006,-0.276997,-46.27718,-33.19159,23.89906
19.823658466,-3.809272,-1.891297,3.501959,0.9754547,0.04504821,-0.29352,-46.27718,-33.19159,23.89906
19.833516121,-5.610633,-1.77228,3.992383,0.9784427,0.03727764,-0.2965034,-46.27718,-33.19159,23.89906
19.843373775,-6.60448799999999,-1.653262,4.114989,0.9854613,0.03006336,-0.2904347,-46.27718,-33.19159,23.89906
19.853230953,-7.10141600000002,-1.653262,3.992383,0.9933372,0.0203821,-0.2954207,-45.90944,-33.20749,23.06495
19.863089085,-6.48025699999999,-1.712771,3.808474,0.9923359,0.01792574,-0.2992607,-45.90944,-33.20749,23.06495
19.872947216,-5.113706,-1.534244,3.624565,0.9894908,0.008160922,-0.3012193,-45.90944,-33.20749,23.06495
19.882804394,-3.063881,-0.820136700000001,3.379353,0.9898074,-0.006395581,-0.2908044,-45.90944,-33.20749,23.06495
19.892662048,-0.889823900000002,0.01298836,3.379353,0.9773959,0.0007676327,-0.297755,-45.90944,-33.20749,23.06495
19.90252018,1.097885,0.4890598,3.134141,0.9685286,0.006042514,-0.2975841,-45.90944,-33.20749,23.06495
19.914842129,2.029624,1.381694,2.521111,0.9679769,0.01627307,-0.2931771,-45.90944,-33.20749,23.06495
19.924699783,1.470581,2.15531,2.521111,0.9586979,0.02107749,-0.2877331,-45.90944,-33.20749,23.06495
19.934557438,0.4767263,3.047944,1.969384,0.9533093,0.02395704,-0.2857152,-45.90944,-33.20749,23.06495
19.944415092,-0.889823900000002,3.82156,1.233748,0.9489486,0.01660663,-0.2890695,-45.90944,-33.20749,23.06495
19.95427227,-1.448867,4.357141,0.804627399999999,0.9439926,0.01654501,-0.2937914,-45.53972,-32.47551,23.05547
19.964130402,-0.703476100000001,4.595177,0.1302944,0.9475644,0.006852861,-0.291528,-45.53972,-32.47551,23.05547
19.973988533,0.2903785,4.773703,-0.2375236,0.9461201,0.0004995754,-0.2953947,-45.53972,-32.47551,23.05547
19.983845711,1.346349,5.190266,-0.727947499999999,0.9456397,-0.002431626,-0.2973294,-45.53972,-32.47551,23.05547
19.993703365,2.650783,5.190266,-0.6053416,0.9457078,-0.0004593185,-0.2906049,-45.53972,-32.47551,23.05547
20.003561497,3.76887,5.309284,-0.5440385,0.9417337,0.001929854,-0.2929241,-46.28442,-32.46153,23.44342
20.013418674,4.886956,5.071248,-0.2988266,0.950038,-0.0004410023,-0.2959377,-46.28442,-32.46153,23.44342
20.023276806,5.197536,5.249775,0.007688423,0.9523158,0.01369129,-0.2958509,-46.28442,-32.46153,23.44342
20.03313446,4.452145,4.654685,0.3142034,0.9541399,0.02978231,-0.2914282,-46.28442,-32.46153,23.44342
20.042992115,2.650783,4.238123,0.620718400000002,0.9589325,0.02930906,-0.2991678,-46.28442,-32.46153,23.44342
20.05284977,0.725189899999998,3.82156,0.927233400000001,0.9629197,0.02692361,-0.2958903,-46.6569,-33.19886,23.06881
20.062707901,-0.889823900000002,3.226471,1.295051,0.9565839,0.02003884,-0.3001709,-46.6569,-33.19886,23.06881
20.072565079,-1.883678,2.631382,1.662869,0.960035,0.02105327,-0.2973363,-46.6569,-33.19886,23.06881
20.084887028,-2.194258,2.274328,1.846778,0.9604068,0.02102415,-0.3059675,-46.6569,-33.19886,23.06881
20.094745159,-2.31849,1.857765,2.337202,0.9590821,0.01616959,-0.29976,-46.6569,-33.19886,23.06881
20.104602814,-2.070026,1.500712,2.827626,0.9614666,0.01031504,-0.3094274,-46.65891,-32.83071,23.06504
20.114459991,-1.262519,1.738747,3.501959,0.9626047,0.008416327,-0.2993964,-46.65891,-32.83071,23.06504
20.124318123,-0.4550124,1.857765,4.482807,0.9620765,0.008400883,-0.3022642,-46.65891,-32.83071,23.06504
20.134176254,0.5388422,1.917274,5.279747,0.9571822,0.01470378,-0.2968701,-46.65891,-32.83071,23.06504
20.144033432,0.663074000000001,2.333837,5.89277599999998,0.9576004,0.01957015,-0.2977934,-46.65891,-32.83071,23.06504
20.153891087,0.1661467,2.571872,6.32189799999997,0.9645904,0.03174162,-0.3126454,-46.28994,-32.47223,22.67525
20.163749218,-1.076172,2.988435,7.30274499999998,0.9637114,0.03713179,-0.3006074,-46.28994,-32.47223,22.67525
20.173606396,-2.504838,3.702542,7.793169,0.9704589,0.0356989,-0.3093413,-46.28994,-32.47223,22.67525
20.183464527,-3.68504,4.119105,8.16098699999997,0.9738759,0.03572718,-0.309869,-46.28994,-32.47223,22.67525
20.193321705,-5.424286,4.178614,7.73186600000001,0.9725476,0.03721856,-0.2983367,-46.28994,-32.47223,22.67525
20.203179359,-6.977184,3.762051,6.68971499999997,0.9747757,0.02315471,-0.2908199,-47.0374,-32.46359,22.67912
20.213037491,-7.28776300000003,3.226471,5.463655,0.970603,0.006581589,-0.2885043,-47.0374,-32.46359,22.67912
20.222894669,-6.79083600000002,3.047944,4.666717,0.9683671,-0.005585825,-0.2837831,-47.0374,-32.46359,22.67912
20.2327528,-5.921213,2.809908,3.93108,0.9587835,-0.00805653,-0.2712082,-47.0374,-32.46359,22.67912
20.242610455,-5.175822,2.869417,3.747171,0.952002,-0.01639791,-0.273578,-47.0374,-32.46359,22.67912
20.252468109,-4.3062,3.047944,3.501959,0.9549676,-0.02173373,-0.2760612,-47.04062,-32.46983,22.23102
20.264790535,-1.573099,3.940578,3.501959,0.9601947,-0.03184755,-0.2604075,-47.04062,-32.46983,22.23102
20.274647713,0.973653600000002,5.071248,3.747171,0.9615208,-0.03480425,-0.2733898,-47.04062,-32.46983,22.23102
20.284505844,4.079449,6.26142599999997,4.176292,0.9657789,-0.01771855,-0.2689935,-47.04062,-32.46983,22.23102
20.294363499,5.383883,7.21356999999998,3.992383,0.9705853,-0.008911526,-0.26755,-47.04062,-32.46983,22.23102
20.304221153,5.445999,7.33258699999997,3.992383,0.9833523,-0.005367568,-0.2609933,-47.04062,-32.46983,22.23102
20.314078808,5.073304,7.92767700000003,4.053687,0.9920193,-0.0009350206,-0.267309,-47.04062,-32.46983,22.23102
20.323935986,5.197536,7.74915000000002,4.237596,0.9959783,-0.0003991523,-0.2635273,-47.04062,-32.46983,22.23102
20.333794117,5.694463,7.51111399999998,4.237596,0.9997269,0.003006055,-0.2726568,-47.04062,-32.46983,22.23102
20.343652248,6.37773799999999,6.85651600000003,4.053687,1.000159,0.01275864,-0.2682678,-47.04062,-32.46983,22.23102
20.353509426,5.694463,6.14240899999998,4.053687,1.00195,0.03274599,-0.2628535,-47.72379,-32.83006,22.23833
20.363367081,4.017333,5.428301,3.93108,0.9902574,0.03265568,-0.2593332,-47.72379,-32.83006,22.23833
20.373225212,2.775015,5.487811,4.789322,0.9843948,0.03260589,-0.2587709,-47.72379,-32.83006,22.23833
20.38308239,1.905392,5.428301,5.89277599999998,0.9759378,0.03737435,-0.2648397,-47.72379,-32.83006,22.23833
20.392940521,0.787305800000002,6.02339100000001,7.42535099999997,0.9717636,0.05386502,-0.2694331,-47.72379,-32.83006,22.23833
20.402798176,-1.448867,6.26142599999997,8.34489499999999,0.9666964,0.0752537,-0.2634299,-47.04539,-32.10703,21.84317
20.41265583,-4.244083,6.97553399999999,8.89662299999997,0.9632395,0.07472584,-0.2662603,-47.04539,-32.10703,21.84317
20.422513485,-7.03929899999998,7.51111399999998,8.95792600000003,0.9587435,0.06831332,-0.2787095,-47.04539,-32.10703,21.84317
20.434835434,-8.77854399999999,7.98718600000001,8.65141099999999,0.9583859,0.05614084,-0.2797655,-47.04539,-32.10703,21.84317
20.444693565,-9.64816799999999,8.28473000000001,8.22229000000003,0.9560589,0.03955337,-0.2856228,-47.04539,-32.10703,21.84317
20.454550743,-9.71028300000003,8.16571199999999,7.793169,0.9537304,0.02638309,-0.2885759,-47.73257,-31.73096,21.84294
20.464408398,-8.77854399999999,7.98718600000001,7.48665400000003,0.951509,0.0108022,-0.2858006,-47.73257,-31.73096,21.84294
20.474266529,-7.34987899999998,7.21356999999998,7.057533,0.9441943,0.007814454,-0.2866799,-47.73257,-31.73096,21.84294
20.484123707,-6.35602500000002,6.38044500000002,6.93492700000001,0.9447058,0.009778068,-0.2833162,-47.73257,-31.73096,21.84294
20.493981838,-5.98332900000001,5.666337,6.62841199999998,0.953807,0.02103444,-0.2876638,-47.73257,-31.73096,21.84294
20.503839493,-6.977184,5.309284,7.057533,0.9604952,0.02788452,-0.2934517,-47.73856,-31.74255,21.01076
20.513697147,-8.84066099999998,5.071248,7.54795700000002,0.9590128,0.03079665,-0.2919683,-47.73856,-31.74255,21.01076
20.523554802,-10.76625,4.535667,7.60926000000002,0.9620702,0.02597526,-0.2872606,-47.73856,-31.74255,21.01076
20.533412933,-12.81608,3.940578,7.54795700000002,0.966048,0.01724015,-0.2902662,-47.73856,-31.74255,21.01076
20.543270111,-13.74782,3.524015,6.56710899999998,0.9648662,-0.0007557418,-0.2851301,-47.73856,-31.74255,21.01076
20.553128242,-13.37512,2.869417,5.586261,0.9768963,-0.01863356,-0.279702,-48.48802,-31.36577,21.01085
20.562985897,-11.69799,2.036292,4.114989,0.9777049,-0.04002013,-0.275102,-48.48802,-31.36577,21.01085
20.572843075,-8.21950099999998,1.262676,2.70502,0.9832243,-0.05116222,-0.2747955,-48.48802,-31.36577,21.01085
20.582701206,-5.237938,-0.4035742,1.662869,0.9789346,-0.05458659,-0.2694921,-48.48802,-31.36577,21.01085
20.592558384,-2.877533,-1.534244,0.4981124,0.9810797,-0.05890958,-0.259496,-48.48802,-31.36577,21.01085
20.604881287,-1.138287,-2.367369,0.007688423,0.9804894,-0.05698986,-0.2652217,-48.494,-31.37735,20.17867
20.614738464,0.911537699999999,-2.367369,-0.2375236,0.9760529,-0.04971506,-0.2612635,-48.494,-31.37735,20.17867
20.624596119,1.905392,-2.545896,-0.6053416,0.9735194,-0.03462667,-0.2543913,-48.494,-31.37735,20.17867
20.63445425,1.346349,-2.545896,-1.279675,0.9669727,-0.02155429,-0.2565837,-48.494,-31.37735,20.17867
20.644311428,0.04191487,-2.843441,-2.383129,0.9595604,-0.01578178,-0.2569085,-48.494,-31.37735,20.17867
20.654169559,-1.138287,-2.783932,-3.547885,0.9548907,-0.02454981,-0.2482903,-48.49677,-31.3827,19.79459
20.664027214,-1.448867,-2.783932,-4.896551,0.9507635,-0.04550399,-0.2464916,-48.49677,-31.3827,19.79459
20.673884869,-0.4550124,-2.605405,-5.448278,0.945989,-0.05918422,-0.2498934,-48.49677,-31.3827,19.79459
20.683742523,1.03577,-1.891297,-5.509581,0.9371991,-0.05876956,-0.248327,-48.49677,-31.3827,19.79459
20.693600655,2.464436,-1.236699,-5.632187,0.9455265,-0.06308673,-0.2513573,-48.49677,-31.3827,19.79459
20.703457832,3.830986,-0.998663500000001,-5.570884,0.9458218,-0.0577672,-0.2609006,-48.49279,-31.00296,20.623
20.713315964,5.011188,-0.5225921,-5.203066,0.9568909,-0.0430727,-0.2614136,-48.49279,-31.00296,20.623
20.723173141,4.82484,0.4890598,-4.46743,0.9678459,-0.02645789,-0.2686175,-48.49279,-31.00296,20.623
20.733030796,4.203681,1.441203,-4.283521,0.9814384,-0.02490177,-0.2750276,-48.49279,-31.00296,20.623
20.742888927,3.271943,1.976783,-4.590036,0.9813566,-0.02736622,-0.2831936,-48.49279,-31.00296,20.623
20.752746105,3.271943,1.917274,-4.957854,0.9858842,-0.03022096,-0.2765735,-47.74379,-31.38064,20.55889
20.762604237,3.45829,1.560221,-5.81609599999999,0.9780139,-0.03420845,-0.2832038,-47.74379,-31.38064,20.55889
20.772461891,3.147711,0.5485688,-6.490429,0.9873761,-0.03557155,-0.2795151,-47.74379,-31.38064,20.55889
20.78478384,3.396174,-0.04652058,-7.53257999999997,0.9863972,-0.03167453,-0.2761139,-47.74379,-31.38064,20.55889
20.794641972,3.706754,-1.17719,-8.08430800000001,0.9800425,-0.04247048,-0.2852192,-47.74379,-31.38064,20.55889
20.804499149,5.011188,-1.950806,-8.14561100000001,0.9810149,-0.0419753,-0.2852289,-47.74132,-31.74789,20.62667
20.814357281,5.81869499999997,-2.605405,-8.08430800000001,0.9742111,-0.03909381,-0.2793572,-47.74132,-31.74789,20.62667
20.824214935,6.56408599999997,-2.962458,-7.53257999999997,0.9775415,-0.03176686,-0.2798221,-47.74132,-31.74789,20.62667
20.834072113,6.874665,-3.736075,-6.91955000000002,0.9701806,-0.02646793,-0.2767972,-47.74132,-31.74789,20.62667
20.843930244,7.620056,-4.212146,-6.55173199999999,0.9642285,-0.02117279,-0.2781053,-47.74132,-31.74789,20.62667
20.853788376,8.30333200000001,-4.50969,-6.490429,0.962359,-0.01530651,-0.2665284,-47.73655,-32.11069,21.01453
20.863645554,9.297187,-5.10478,-6.30652000000001,0.9543954,-0.01199718,-0.2735749,-47.73655,-32.11069,21.01453
20.873503208,9.794114,-5.93790500000001,-6.00000499999998,0.9646969,-0.0001806318,-0.2611628,-47.73655,-32.11069,21.01453
20.883360863,9.918345,-6.29495900000002,-6.00000499999998,0.9669205,0.01686556,-0.2624882,-47.73655,-32.11069,21.01453
20.893218517,9.35930300000001,-6.652012,-5.754793,0.9752719,0.01987863,-0.2573107,-47.73655,-32.11069,21.01453
20.903076649,8.30333200000001,-6.94955700000003,-5.325672,0.9789852,0.03450299,-0.259157,-47.42511,-32.11429,21.01292
20.912933826,6.50197000000002,-7.24710100000002,-5.325672,0.9822102,0.05400554,-0.2566423,-47.42511,-32.11429,21.01292
20.922791958,3.830986,-7.42562799999997,-5.386975,0.9751004,0.06119382,-0.2694187,-47.42511,-32.11429,21.01292
20.932649612,1.594813,-7.66366400000002,-5.448278,0.9762167,0.05782424,-0.2622751,-47.42511,-32.11429,21.01292
20.94250679,-0.1444329,-7.723173,-5.448278,0.9754691,0.04225812,-0.2590414,-47.42511,-32.11429,21.01292
20.954829693,-0.2065488,-7.54464599999999,-5.509581,0.9706503,0.02954175,-0.2648304,-47.42236,-32.10894,21.397
20.964686871,0.2282626,-7.48513700000001,-5.448278,0.9640439,0.02076207,-0.2547472,-47.42236,-32.10894,21.397
20.974545002,1.160001,-7.42562799999997,-5.325672,0.9566974,0.01825347,-0.2575389,-47.42236,-32.10894,21.397
20.984402657,2.588667,-6.94955700000003,-5.325672,0.961316,0.01103067,-0.2480816,-47.42236,-32.10894,21.397
20.994259834,3.955218,-6.59250300000002,-5.264369,0.9587832,0.01781939,-0.2484675,-47.42236,-32.10894,21.397
21.004117966,4.886956,-5.81888699999998,-5.019157,0.9612012,0.02125067,-0.2475146,-47.41913,-32.10271,21.8451
21.01397562,5.694463,-4.985762,-4.712642,0.9557186,0.02654455,-0.2502669,-47.41913,-32.10271,21.8451
21.023833275,5.321767,-4.093128,-4.528733,0.9556102,0.03237234,-0.2530914,-47.41913,-32.10271,21.8451
21.033690929,4.390029,-3.498039,-5.019157,0.9632831,0.03923289,-0.2584141,-47.41913,-32.10271,21.8451
21.043548107,3.271943,-2.664914,-4.651339,0.9697974,0.03493935,-0.2508759,-47.41913,-32.10271,21.8451
21.053406239,2.40232,-1.534244,-4.957854,0.9738315,0.0291497,-0.2471487,-47.04263,-32.10168,22.22725
21.06326437,1.843277,-0.701118900000002,-5.019157,0.9791624,0.03113593,-0.2491247,-47.04263,-32.10168,22.22725
21.073121548,1.470581,0.1320062,-5.570884,0.9845655,0.02923697,-0.2492178,-47.04263,-32.10168,22.22725
21.082979202,1.222117,0.370042,-5.632187,0.990347,0.02731075,-0.2574628,-47.04263,-32.10168,22.22725
21.092837334,0.973653600000002,1.084149,-5.93870199999998,0.9923764,0.0239312,-0.2551242,-47.04263,-32.10168,22.22725
21.102694511,0.973653600000002,1.798256,-6.18391400000002,0.9963404,0.01909799,-0.2557007,-46.66569,-32.09976,22.67341
21.112552643,1.346349,2.571872,-6.00000499999998,0.9976622,0.02199881,-0.2638415,-46.66569,-32.09976,22.67341
21.124874592,1.967508,3.047944,-5.81609599999999,0.9955592,0.03268075,-0.265159,-46.66569,-32.09976,22.67341
21.134732246,1.594813,3.524015,-5.69349,0.9867911,0.03017223,-0.264576,-46.66569,-32.09976,22.67341
21.144590378,1.222117,3.82156,-5.325672,0.9803619,0.03058429,-0.2692729,-46.66689,-32.47414,22.22909
21.154447556,0.663074000000001,4.059596,-5.08046,0.971203,0.02419369,-0.2648835,-46.66689,-32.47414,22.22909
21.164305687,0.4767263,4.238123,-4.46743,0.9663946,0.02270948,-0.2600355,-46.66689,-32.47414,22.22909
21.174163342,0.3524944,4.238123,-3.8544,0.9585149,0.02116045,-0.2652074,-46.66689,-32.47414,22.22909
21.184020996,0.04191487,4.178614,-3.363976,0.9433025,0.02638309,-0.2639881,-46.66689,-32.47414,22.22909
21.193878651,-0.2686647,3.643033,-2.996159,0.9438624,0.02152532,-0.2630787,-46.66689,-32.47414,22.22909
21.203736782,-0.3928965,3.404998,-2.137917,0.9452226,0.02394885,-0.268828,-45.91743,-32.85093,22.229
21.21359396,-1.200403,3.047944,-1.58619,0.9380093,0.02343112,-0.260104,-45.91743,-32.85093,22.229
21.223452091,-1.883678,3.107453,-0.911856500000002,0.9383624,0.02827893,-0.2658185,-45.91743,-32.85093,22.229
21.233309269,-2.629069,2.631382,-0.4214326,0.9383566,0.02876551,-0.2658143,-45.91743,-32.85093,22.229
21.243166924,-3.188113,2.214819,-0.05361458,0.939313,0.02290918,-0.2725862,-45.91743,-32.85093,22.229
21.253025055,-3.188113,1.61973,0.1302944,0.943241,0.02441264,-0.2702335,-46.66564,-33.21579,21.85255
21.262882233,-3.125997,1.262676,0.007688423,0.9442604,0.02150363,-0.2697933,-46.66564,-33.21579,21.85255
21.272740364,-2.877533,0.786604499999998,-0.05361458,0.9456437,0.02198084,-0.2755594,-46.66564,-33.21579,21.85255
21.282598019,-2.815417,0.4890598,0.1915974,0.9486535,0.02007521,-0.2717848,-46.66564,-33.21579,21.85255
21.292455673,-2.504838,0.07249729,-0.1149176,0.9462565,0.01762637,-0.2703337,-46.66564,-33.21579,21.85255
21.304778099,-2.132142,0.01298836,-0.1762206,0.9511256,0.01619854,-0.2732904,-46.66288,-33.21044,22.23663
21.314635277,-1.510983,0.01298836,-0.1762206,0.9584555,0.01626125,-0.2738735,-46.66288,-33.21044,22.23663
21.324493408,-1.138287,-0.04652058,-0.3601296,0.9598266,0.02161724,-0.2762438,-46.66288,-33.21044,22.23663
21.334351063,-0.889823900000002,0.310533,-0.911856500000002,0.9623595,0.01922258,-0.2719873,-46.66288,-33.21044,22.23663
21.344208241,-0.4550124,0.4295509,-1.340978,0.9632937,0.02458912,-0.2705178,-46.29191,-33.2201,21.85061
21.354066372,-0.5171283,0.786604499999998,-1.58619,0.964826,0.0246206,-0.2657474,-46.29191,-33.2201,21.85061
21.363924503,-0.1444329,1.500712,-2.137917,0.9693117,0.01980099,-0.2639352,-46.29191,-33.2201,21.85061
21.373781681,-0.4550124,1.917274,-2.321826,0.9687632,0.01929153,-0.2687237,-46.29191,-33.2201,21.85061
21.383639336,-1.014056,2.512363,-2.689644,0.9658859,0.01830555,-0.2653366,-46.29191,-33.2201,21.85061
21.393497467,-1.573099,3.107453,-2.873553,0.971794,0.01397428,-0.2664157,-46.66887,-33.22202,21.40445
21.403354645,-1.510983,3.643033,-3.24137,0.9752269,0.01156595,-0.2679226,-46.66887,-33.22202,21.40445
21.413212776,-1.076172,4.41665,-3.609189,0.9757789,0.01012352,-0.2645882,-46.66887,-33.22202,21.40445
21.423070431,-0.765591999999998,4.714194,-4.222218,0.9787149,0.006732157,-0.2675339,-46.66887,-33.22202,21.40445
21.432928085,0.2282626,4.833212,-4.651339,0.9811162,0.003323493,-0.2738265,-46.66887,-33.22202,21.40445
21.44278574,1.222117,5.071248,-5.08046,0.9786822,-0.002065245,-0.2776709,-46.66887,-33.22202,21.40445
21.452642918,1.967508,4.892721,-5.141763,0.9786757,-0.002067102,-0.27815,-45.54567,-33.60312,21.40243
21.462501049,2.961363,4.833212,-5.141763,0.9772194,0.0008524514,-0.2747502,-45.54567,-33.60312,21.40243
21.474822998,3.955218,4.892721,-5.141763,0.9635819,-0.004622292,-0.2750812,-45.54567,-33.60312,21.40243
21.48468113,4.576376,4.238123,-5.141763,0.9616003,0.0002355584,-0.272616,-45.54567,-33.60312,21.40243
21.494538784,5.197536,3.702542,-5.08046,0.9591383,0.01095032,-0.2643441,-46.29514,-33.22634,21.40252
21.504395962,5.073304,3.524015,-5.019157,0.9513997,0.0123709,-0.2565546,-46.29514,-33.22634,21.40252
21.514254093,5.508115,3.107453,-4.528733,0.9529783,0.00411569,-0.2556884,-46.29514,-33.22634,21.40252
21.524112225,5.88081099999999,2.750399,-3.915704,0.9567516,0.01533957,-0.2561266,-46.29514,-33.22634,21.40252
21.533969402,6.00504300000001,2.571872,-3.057462,0.95511,0.02504152,-0.2603341,-46.29514,-33.22634,21.40252
21.543827057,5.75657900000002,2.333837,-2.076613,0.957958,0.03676007,-0.2564422,-45.91618,-33.59256,21.85245
21.553685188,4.886956,2.214819,-1.095766,0.9580535,0.03971668,-0.2468347,-45.91618,-33.59256,21.85245
21.563542366,3.706754,2.214819,-0.05361458,0.9573902,0.04503318,-0.2549267,-45.91618,-33.59256,21.85245
21.573400497,2.526551,2.036292,0.682021400000003,0.9739233,0.05931072,-0.2497707,-45.91618,-33.59256,21.85245
21.583258152,1.408465,2.15531,1.111142,0.9700575,0.0558721,-0.2492654,-45.91618,-33.59256,21.85245
21.59311533,0.4767263,1.560221,1.417657,0.9740496,0.04811757,-0.2503461,-45.9194,-33.5988,21.40436
21.602973461,0.1040308,1.143658,1.785475,0.9843126,0.04722923,-0.2519375,-45.9194,-33.5988,21.40436
21.612831592,0.1661467,0.965131299999997,1.969384,0.9843227,0.04527921,-0.2529125,-45.9194,-33.5988,21.40436
21.62268877,-0.02020105,0.846113400000001,2.153293,0.9834645,0.03846963,-0.2500825,-45.9194,-33.5988,21.40436
21.632546425,0.1040308,0.786604499999998,2.459808,0.9810277,0.03552122,-0.2519895,-45.9194,-33.5988,21.40436
21.644868374,0.600958099999998,1.02464,3.072838,0.9800321,0.03257828,-0.2558337,-45.54968,-32.86682,21.39488
21.654726505,1.160001,1.500712,3.256747,0.9756924,0.03060437,-0.2529134,-45.54968,-32.86682,21.39488
21.664583683,1.656929,1.857765,3.501959,0.9701774,0.03588896,-0.2580613,-45.54968,-32.86682,21.39488
21.674441814,1.594813,2.333837,3.379353,0.9730657,0.04420148,-0.2541988,-45.54968,-32.86682,21.39488
21.684299469,0.849421699999999,2.333837,2.888929,0.9713945,0.05584787,-0.2588686,-45.54968,-32.86682,21.39488
21.694157123,-0.2065488,2.214819,2.214596,0.9728342,0.05048243,-0.2656432,-46.66887,-33.22202,21.40445
21.704014778,-1.448867,2.393346,1.417657,0.968491,0.0504604,-0.2612687,-46.66887,-33.22202,21.40445
21.713872909,-2.815417,2.333837,1.049839,0.9644026,0.0547699,-0.2702789,-46.66887,-33.22202,21.40445
21.723730087,-4.057736,2.333837,0.5594154,0.9606221,0.04744978,-0.2669324,-46.66887,-33.22202,21.40445
21.733588219,-4.741011,2.095801,0.2529004,0.9617007,0.04065186,-0.2655675,-46.66887,-33.22202,21.40445
21.743445873,-4.368315,1.679239,-0.2375236,0.9578227,0.03330389,-0.2694079,-46.67162,-33.22737,21.02037
21.753303051,-3.001765,0.846113400000001,-0.6666446,0.9549147,0.02937987,-0.2708371,-46.67162,-33.22737,21.02037
21.763161182,-1.759447,-0.3440652,-1.157069,0.9544582,0.02499079,-0.2723053,-46.67162,-33.22737,21.02037
21.773019314,-0.579244300000001,-1.117681,-1.095766,0.9519702,0.03130407,-0.2698205,-46.67162,-33.22737,21.02037
21.782876491,0.2282626,-1.950806,-1.340978,0.9460925,0.03417932,-0.2677957,-46.67162,-33.22737,21.02037
21.792734146,0.600958099999998,-3.081476,-1.034463,0.9420865,0.03704764,-0.2720272,-46.29588,-33.59983,21.02221
21.802592277,0.3524944,-3.617057,-0.5440385,0.9567738,0.04694548,-0.262569,-46.29588,-33.59983,21.02221
21.814914226,-0.641360199999998,-3.914601,-0.1762206,0.9527049,0.0556546,-0.2662711,-46.29588,-33.59983,21.02221
21.824771881,-1.945794,-3.557548,0.007688423,0.9599321,0.06105853,-0.2696829,-46.29588,-33.59983,21.02221
21.834629536,-2.939649,-3.43853,0.3755064,0.9618205,0.06789155,-0.2686937,-46.29588,-33.59983,21.02221
21.84448719,-3.99562,-3.319512,0.743324399999998,0.974115,0.06508898,-0.2664966,-46.29588,-33.59983,21.02221
21.854345322,-4.492547,-3.617057,0.620718400000002,0.9906656,0.04386615,-0.2554109,-46.29588,-33.59983,21.02221
21.864202499,-4.119852,-3.617057,0.4368094,1.004487,0.03279351,-0.2561805,-46.29588,-33.59983,21.02221
21.874060631,-3.37446,-4.093128,0.3142034,1.000075,0.03079917,-0.2585304,-46.29588,-33.59983,21.02221
21.883918285,-2.504838,-4.5692,-0.2375236,1.004254,0.01723912,-0.2510372,-46.29588,-33.59983,21.02221
21.893775463,-1.448867,-4.866744,-0.3601296,0.9939266,0.009809202,-0.2614951,-46.29588,-33.59983,21.02221
21.903633594,-0.3928965,-4.985762,-0.2375236,0.9866945,0.009774344,-0.2537251,-46.29588,-33.59983,21.02221
21.913491726,0.600958099999998,-4.688217,0.0689914200000002,0.9852381,0.0126939,-0.2503254,-46.29588,-33.59983,21.02221
21.923348904,1.222117,-4.033619,0.1915974,0.983328,0.008784053,-0.2503311,-46.29588,-33.59983,21.02221
21.933206558,1.781161,-2.783932,0.5594154,0.9858161,0.006864831,-0.2489452,-46.29588,-33.59983,21.02221
21.94306469,2.40232,-1.474735,0.8659304,0.9891884,0.007368544,-0.2523434,-46.29313,-33.59449,21.40629
21.952921867,2.712899,-0.2845563,1.295051,0.9828151,0.01463169,-0.2469201,-46.29313,-33.59449,21.40629
21.962779999,2.340204,1.381694,1.417657,0.9823058,0.01852744,-0.2449631,-46.29313,-33.59449,21.40629
21.972637653,1.408465,2.095801,1.172445,0.9836776,0.02437186,-0.2468502,-46.29313,-33.59449,21.40629
21.982495308,0.600958099999998,3.226471,0.743324399999998,0.980202,0.02432688,-0.2506346,-46.29313,-33.59449,21.40629
21.994817257,0.1040308,4.119105,0.3142034,0.9807416,0.01458105,-0.2555165,-46.29388,-33.96798,21.02598
22.004674912,0.911537699999999,4.714194,-0.05361458,0.9850638,0.01362064,-0.262295,-46.29388,-33.96798,21.02598
22.014533043,1.967508,5.249775,-0.1149176,0.9826096,0.01213195,-0.2641894,-46.29388,-33.96798,21.02598
22.024390221,3.085595,5.90437299999999,-0.1762206,0.9825127,0.01259254,-0.2708929,-46.29388,-33.96798,21.02598
22.034248352,3.955218,6.61847999999998,-0.1762206,0.9746352,0.01690287,-0.2707443,-46.29388,-33.96798,21.02598
22.044106007,4.762724,6.91602500000001,-0.2375236,0.9746026,0.01689359,-0.2731399,-46.29112,-33.96263,21.41006
22.053963184,5.632347,6.49946299999999,-0.1762206,0.9730906,0.02175017,-0.272119,-46.29112,-33.96263,21.41006
22.063821316,6.19139099999999,6.32093599999998,-0.1149176,0.9675068,0.03336213,-0.2767334,-46.29112,-33.96263,21.41006
22.073679447,5.75657900000002,6.02339100000001,-0.6053416,0.9643698,0.04157843,-0.2842865,-46.29112,-33.96263,21.41006
22.083536625,4.452145,5.190266,-1.034463,0.9583454,0.05515283,-0.2836069,-46.29112,-33.96263,21.41006
22.09339428,3.396174,4.178614,-1.279675,0.9651717,0.05423065,-0.286108,-46.29664,-33.97332,20.64189
22.103252411,2.340204,3.226471,-1.770099,0.9617531,0.05322551,-0.2865469,-46.29664,-33.97332,20.64189
22.113109589,1.656929,2.274328,-2.015311,0.9564483,0.04685264,-0.2865251,-46.29664,-33.97332,20.64189
22.12296772,1.470581,1.203167,-2.505734,0.9519575,0.04825321,-0.2917204,-46.29664,-33.97332,20.64189
22.132825375,1.594813,-0.1060295,-2.812249,0.9526324,0.04196357,-0.2836368,-46.29664,-33.97332,20.64189
22.142683029,2.278088,-1.355717,-3.118764,0.947316,0.03656385,-0.2836066,-46.2999,-32.86354,21.01466
22.152540684,3.209827,-2.724423,-3.670491,0.9440211,0.03559398,-0.2749422,-46.2999,-32.86354,21.01466
22.164862633,4.762724,-4.50969,-4.160915,0.9392378,0.0292347,-0.2725317,-46.2999,-32.86354,21.01466
22.174720764,6.31562199999998,-5.64036,-4.46743,0.9362123,0.03357694,-0.2753271,-46.2999,-32.86354,21.01466
22.184578419,6.99889700000002,-6.53299399999998,-4.528733,0.9328075,0.03745801,-0.2704538,-46.2999,-32.86354,21.01466
22.194435597,7.12312899999999,-7.66366400000002,-4.590036,0.9329175,0.03700114,-0.2627921,-47.04059,-33.58585,21.41015
22.204293728,7.06101299999998,-8.25875400000001,-4.406127,0.9382223,0.04776806,-0.2589433,-47.04059,-33.58585,21.41015
22.214151859,6.93678100000001,-8.79433299999997,-4.099612,0.9411404,0.05413612,-0.2546183,-47.04059,-33.58585,21.41015
22.224009037,6.06715799999999,-9.44893200000001,-3.547885,0.9453239,0.06485359,-0.2612963,-47.04059,-33.58585,21.41015
22.233866692,4.141565,-10.16304,-3.118764,0.9649346,0.07040969,-0.2533825,-47.04059,-33.58585,21.41015
22.243724823,1.905392,-10.46058,-2.750947,0.9726979,0.07241374,-0.2563514,-45.91618,-33.59256,21.85245
22.253582001,-0.3307806,-10.75813,-2.015311,0.9810303,0.06712155,-0.2598692,-45.91618,-33.59256,21.85245
22.263440132,-1.697331,-11.2342,-1.831402,0.9851382,0.05402951,-0.2571631,-45.91618,-33.59256,21.85245
22.273297787,-2.132142,-12.00782,-1.340978,0.9852358,0.04966331,-0.2538469,-45.91618,-33.59256,21.85245
22.283155441,-2.380606,-12.36487,-1.218372,0.9827282,0.05157695,-0.2566702,-45.91618,-33.59256,21.85245
22.293013096,-2.132142,-12.78143,-0.973159599999999,0.9756448,0.03352013,-0.2538465,-46.28915,-33.21476,22.2347
22.302871227,-0.889823900000002,-12.72192,-0.727947499999999,0.9714295,0.02767587,-0.2452101,-46.28915,-33.21476,22.2347
22.312728405,1.346349,-12.36487,-0.05361458,0.9675327,0.02959889,-0.2422632,-46.28915,-33.21476,22.2347
22.322586536,2.215972,-11.59125,0.8659304,0.9701608,0.04662525,-0.2498241,-46.28915,-33.21476,22.2347
22.332444191,1.843277,-10.16304,1.662869,0.9671967,0.05293794,-0.2463742,-46.28915,-33.21476,22.2347
22.34476614,-0.02020105,-8.199244,2.521111,0.97731,0.06079502,-0.251244,-45.91019,-33.58098,22.68463
22.354624271,-1.138287,-6.71152099999998,2.950232,0.982507,0.06469601,-0.2613483,-45.91019,-33.58098,22.68463
22.364481449,-2.691185,-5.402325,2.950232,0.9902559,0.07011352,-0.2623715,-45.91019,-33.58098,22.68463
22.374339581,-4.430431,-4.50969,2.398505,0.9917136,0.06817084,-0.2648047,-45.91019,-33.58098,22.68463
22.384197235,-6.10756099999998,-3.97411,1.601566,0.9842033,0.04817453,-0.259116,-45.91019,-33.58098,22.68463
22.394054413,-6.60448799999999,-3.97411,0.620718400000002,0.972203,0.02567318,-0.26201,-46.28116,-33.57132,23.07065
22.403912544,-5.237938,-3.617057,-0.1762206,0.973317,0.01644423,-0.260187,-46.28116,-33.57132,23.07065
22.413770199,-3.188113,-3.319512,-0.4827355,0.9664458,0.01344778,-0.2644271,-46.28116,-33.57132,23.07065
22.423627853,-1.510983,-2.486387,-0.5440385,0.9698021,0.0163881,-0.2668462,-46.28116,-33.57132,23.07065
22.433485508,0.3524944,-1.77228,-0.6666446,0.967738,0.01829306,-0.2730303,-46.28116,-33.57132,23.07065
22.443343639,1.470581,-0.582100999999999,-0.6666446,0.963639,0.03285226,-0.2738074,-46.28116,-33.57132,23.07065
22.453200817,1.594813,0.4295509,-0.5440385,0.9698685,0.04263608,-0.274772,-46.28116,-33.57132,23.07065
22.463058949,0.849421699999999,1.560221,-0.911856500000002,0.9696602,0.04257666,-0.2901039,-46.28116,-33.57132,23.07065
22.472916126,0.1040308,2.036292,-1.340978,0.969179,0.04794514,-0.2847805,-46.28116,-33.57132,23.07065
22.482773781,-0.827707900000002,2.452855,-1.892705,0.968748,0.05625723,-0.2732035,-46.28116,-33.57132,23.07065
22.492631912,-2.132142,2.571872,-2.750947,0.9642975,0.04546364,-0.2861695,-46.28191,-33.94481,22.69033
22.50248909,-2.442722,2.274328,-3.670491,0.9620696,0.02988089,-0.2838733,-46.28191,-33.94481,22.69033
22.514811993,-1.573099,1.381694,-4.160915,0.957353,0.02451704,-0.2757049,-46.28191,-33.94481,22.69033
22.524669171,-0.3928965,1.02464,-4.099612,0.9496352,0.01373788,-0.2771235,-46.28191,-33.94481,22.69033
22.534526825,0.663074000000001,0.667586600000001,-3.547885,0.9485009,0.01807877,-0.2847379,-46.28191,-33.94481,22.69033
22.544384956,1.284233,0.667586600000001,-2.62834,0.9448003,0.03310471,-0.2917463,-45.16395,-33.964,22.23644
22.554242134,1.284233,0.608077699999999,-1.524887,0.948067,0.03260185,-0.3037771,-45.16395,-33.964,22.23644
22.564100742,1.160001,0.965131299999997,-0.4214326,0.9524515,0.04288844,-0.2960856,-45.16395,-33.964,22.23644
22.57395792,0.663074000000001,0.9056224,0.5594154,0.9543148,0.05459654,-0.292659,-45.16395,-33.964,22.23644
22.583815575,-0.579244300000001,0.310533,1.233748,0.9578236,0.04635112,-0.2937369,-45.16395,-33.964,22.23644
22.593673229,-1.448867,0.2510241,1.47896,0.9661122,0.05081093,-0.2919006,-45.53767,-33.95968,22.23838
22.603531361,-2.070026,-0.1060295,1.785475,0.9681603,0.04255446,-0.2924787,-45.53767,-33.95968,22.23838
22.613388538,-2.504838,-0.4035742,1.969384,0.9678469,0.03381217,-0.2872768,-45.53767,-33.95968,22.23838
22.62324667,-2.31849,-0.820136700000001,2.214596,0.966433,0.03039692,-0.2863271,-45.53767,-33.95968,22.23838
22.633104324,-2.380606,-1.296208,2.09199,0.9664484,0.03626,-0.2800482,-45.53767,-33.95968,22.23838
22.642961502,-2.566953,-1.534244,2.275899,0.9633453,0.04106839,-0.2881098,-45.91141,-33.95537,22.24031
22.652819633,-3.001765,-1.415226,2.398505,0.9629061,0.03521958,-0.2895905,-45.91141,-33.95537,22.24031
22.662677765,-3.063881,-0.998663500000001,2.70502,0.9568794,0.03854055,-0.2981022,-45.91141,-33.95537,22.24031
22.672534943,-2.939649,-0.582100999999999,2.521111,0.9568346,0.03901599,-0.3009727,-45.91141,-33.95537,22.24031
22.684857368,-3.001765,-0.760627799999999,2.030687,0.9588618,0.04295925,-0.2923428,-45.91141,-33.95537,22.24031
22.694714546,-3.125997,-0.879645599999998,1.233748,0.9549267,0.04096551,-0.2956579,-46.27915,-33.93947,23.07442
22.704572678,-3.001765,-1.17719,0.4981124,0.94876,0.02973496,-0.291352,-46.27915,-33.93947,23.07442
22.714430332,-2.00791,-1.593753,0.1915974,0.9520693,0.02729135,-0.3019622,-46.27915,-33.93947,23.07442
22.724287987,-0.889823900000002,-2.010315,-0.05361458,0.9501231,0.02971816,-0.2990388,-46.27915,-33.93947,23.07442
22.734145641,-0.02020105,-2.069824,0.3755064,0.9490467,0.03798139,-0.2989537,-46.27915,-33.93947,23.07442
22.744003773,-0.2065488,-2.129333,0.743324399999998,0.9457003,0.03309104,-0.2975097,-46.27915,-33.93947,23.07442
22.75386095,-0.889823900000002,-2.129333,1.356354,0.9470664,0.03502799,-0.3032632,-46.27915,-33.93947,23.07442
22.763719082,-1.883678,-2.129333,1.969384,0.9484448,0.04087427,-0.3046711,-46.27915,-33.93947,23.07442
22.773576736,-3.063881,-2.010315,2.459808,0.9508259,0.04575973,-0.305143,-46.27915,-33.93947,23.07442
22.783433914,-4.616779,-2.367369,2.766323,0.951799,0.04674334,-0.3046694,-46.27915,-33.93947,23.07442
22.793292046,-5.73486500000002,-2.605405,2.766323,0.9595535,0.04288617,-0.313438,-45.53245,-34.32159,22.69024
22.803150177,-5.36217,-2.843441,2.582414,0.9680032,0.03323334,-0.3122023,-45.53245,-34.32159,22.69024
22.813007355,-3.312345,-3.617057,2.214596,0.9676695,0.02399705,-0.3089211,-45.53245,-34.32159,22.69024
22.822865009,-1.510983,-4.331164,2.09199,0.9696171,0.01815305,-0.3147486,-45.53245,-34.32159,22.69024
22.832723141,-0.765591999999998,-5.223798,2.275899,0.9663649,0.0196365,-0.3007929,-45.53245,-34.32159,22.69024
22.842580318,-0.827707900000002,-5.93790500000001,2.888929,0.9694586,0.01726656,-0.291273,-45.90618,-34.31728,22.69217
22.85243845,-0.4550124,-5.87839600000002,3.869777,0.9616938,0.01428565,-0.2892707,-45.90618,-34.31728,22.69217
22.864760399,0.04191487,-5.99741399999999,4.789322,0.951735,0.02635474,-0.2914229,-45.90618,-34.31728,22.69217
22.874618053,-0.0823169599999999,-6.05692300000003,5.279747,0.9516672,0.04195867,-0.2826647,-45.90618,-34.31728,22.69217
22.884476185,-1.448867,-5.87839600000002,5.586261,0.9491025,0.04922654,-0.2849628,-45.90618,-34.31728,22.69217
22.894333363,-2.939649,-5.64036,5.647564,0.9516535,0.04586058,-0.2802356,-46.28116,-33.57132,23.07065
22.904191494,-4.181968,-5.045271,6.01538200000003,0.9535867,0.04343005,-0.2841172,-46.28116,-33.57132,23.07065
22.914049149,-4.368315,-3.97411,6.3832,0.967464,0.03090882,-0.2820247,-46.28116,-33.57132,23.07065
22.923906803,-4.554663,-2.664914,6.87362400000002,0.9767019,0.03341607,-0.284052,-46.28116,-33.57132,23.07065
22.933764458,-5.113706,-1.891297,6.93492700000001,0.9888178,0.03739774,-0.288983,-46.28116,-33.57132,23.07065
22.943622589,-5.300054,-1.77228,6.44450299999999,0.9981198,0.030647,-0.2944438,-46.65565,-33.9405,22.69227
22.953479767,-4.616779,-1.474735,5.83147299999998,0.9961606,0.0330701,-0.2924786,-46.65565,-33.9405,22.69227
22.963337898,-3.933504,-1.950806,4.911928,1.002627,0.03169232,-0.2858736,-46.65565,-33.9405,22.69227
22.973195553,-2.939649,-2.367369,4.114989,1.004409,0.02384816,-0.3056124,-46.65565,-33.9405,22.69227
22.983052731,-2.380606,-2.426878,4.053687,1.001271,0.04036414,-0.3059075,-46.65565,-33.9405,22.69227
22.992910862,-3.063881,-2.367369,3.93108,0.9907709,0.06071375,-0.3046277,-46.6569,-33.19886,23.06881
23.002768517,-4.554663,-2.545896,3.685868,0.9883189,0.05190225,-0.3128135,-46.6569,-33.19886,23.06881
23.012626171,-4.803127,-2.486387,3.440656,0.9628319,0.05459232,-0.3138652,-46.6569,-33.19886,23.06881
23.022483826,-4.927359,-2.426878,2.950232,0.9454263,0.0457068,-0.3065041,-46.6569,-33.19886,23.06881
23.034805775,-4.678895,-1.712771,2.337202,0.9224196,0.04549893,-0.3076155,-46.6569,-33.19886,23.06881
23.044663906,-4.927359,-0.879645599999998,2.214596,0.9085318,0.03422921,-0.2955327,-46.65966,-33.2042,22.68473
23.054521561,-4.989474,-0.2845563,2.459808,0.8964953,0.02245857,-0.2916269,-46.65966,-33.2042,22.68473
23.064379215,-4.244083,-0.2250474,2.459808,0.8943645,0.01520336,-0.2748858,-46.65966,-33.2042,22.68473
23.07423687,-3.312345,-0.760627799999999,2.521111,0.9061128,0.0177507,-0.2721565,-46.65966,-33.2042,22.68473
23.084095001,-3.498692,-1.17719,2.214596,0.9196013,0.02806523,-0.2784913,-46.65966,-33.2042,22.68473
23.093952179,-4.244083,-1.891297,1.724172,0.9204536,0.03096731,-0.2851878,-46.28517,-32.83503,23.06311
23.10381031,-4.865242,-3.081476,1.233748,0.9317885,0.01449109,-0.2936347,-46.28517,-32.83503,23.06311
23.113667965,-3.809272,-4.271655,1.049839,0.9421605,0.003869332,-0.295789,-46.28517,-32.83503,23.06311
23.123525143,-2.691185,-4.807235,0.988536299999999,0.9514676,-0.003856418,-0.3017372,-46.28517,-32.83503,23.06311
23.133383274,-1.883678,-4.985762,1.540263,0.9575001,-0.007663971,-0.2932298,-46.28517,-32.83503,23.06311
23.143241406,-1.014056,-4.747726,1.356354,0.9571722,-0.01738685,-0.2899528,-46.66091,-32.46256,23.06127
23.153098583,-0.2065488,-4.628708,1.295051,0.9509389,-0.03400689,-0.2952754,-46.66091,-32.46256,23.06127
23.162956238,1.656929,-4.152637,1.785475,0.9556206,-0.03828237,-0.2786062,-46.66091,-32.46256,23.06127
23.172814369,3.396174,-3.260003,2.09199,0.9487321,-0.03542502,-0.2789631,-46.66091,-32.46256,23.06127
23.182671547,4.514261,-2.545896,2.337202,0.9604472,-0.0333754,-0.2791128,-46.66091,-32.46256,23.06127
23.192529678,5.073304,-2.188842,2.214596,0.9713142,-0.03569131,-0.2735368,-46.6569,-33.19886,23.06881
23.204851627,5.81869499999997,-1.117681,2.643717,0.9834113,-0.03122677,-0.2794219,-46.6569,-33.19886,23.06881
23.214709282,5.88081099999999,-0.5225921,2.827626,0.9838072,-0.01953159,-0.2759745,-46.6569,-33.19886,23.06881
23.224567413,4.576376,-0.582100999999999,2.459808,0.9946583,-0.02380496,-0.27329,-46.6569,-33.19886,23.06881
23.234424591,3.644638,-0.641609900000002,2.70502,0.9945605,-0.02822687,-0.2843475,-46.6569,-33.19886,23.06881
23.244282723,4.638493,-0.1655384,3.072838,0.9942275,-0.04136879,-0.2844537,-47.03263,-32.82639,23.06697
23.254140377,6.37773799999999,0.667586600000001,3.992383,0.97996,-0.04542338,-0.2938686,-47.03263,-32.82639,23.06697
23.263998509,8.92449099999999,2.095801,5.218443,0.9768751,-0.03279817,-0.293718,-47.03263,-32.82639,23.06697
23.273855686,10.29104,4.059596,6.3832,0.9737687,-0.01724978,-0.2925841,-47.03263,-32.82639,23.06697
23.283713818,10.22893,6.14240899999998,7.91577499999999,0.9722684,-0.0001841732,-0.2799596,-47.03263,-32.82639,23.06697
23.293571472,9.85623000000002,7.86816799999999,8.65141099999999,0.978417,0.01641174,-0.2808655,-47.02941,-32.82016,23.51507
23.30342865,9.11083900000002,9.593927,9.20313699999998,0.9826779,0.03105711,-0.2784067,-47.02941,-32.82016,23.51507
23.313286781,7.37159299999998,11.26018,9.38704699999999,0.988794,0.04764374,-0.2817083,-47.02941,-32.82016,23.51507
23.323144913,5.011188,12.80741,9.264441,0.9914243,0.0661354,-0.2878193,-47.02941,-32.82016,23.51507
23.333002091,1.284233,13.70004,8.95792600000003,0.995295,0.06859902,-0.288812,-47.02941,-32.82016,23.51507
23.342859745,-1.138287,14.35464,8.65141099999999,1.000795,0.05745135,-0.2899429,-46.66171,-31.72003,23.50182
23.352717877,-2.256374,14.65219,7.97707799999999,0.9950689,0.04425837,-0.290931,-46.66171,-31.72003,23.50182
23.362575054,-2.070026,14.53317,7.18013899999999,0.9894745,0.02768533,-0.2852408,-46.66171,-31.72003,23.50182
23.374897957,-0.889823900000002,13.93808,6.07668500000002,0.9821374,0.02713233,-0.2856201,-46.66171,-31.72003,23.50182
23.384755135,0.4146104,14.17612,5.218443,0.9703544,0.02750446,-0.2883242,-46.66171,-31.72003,23.50182
23.394612789,1.222117,14.11661,4.850626,0.9544864,0.01767541,-0.2766802,-47.03866,-31.72195,23.05566
23.404470921,2.40232,13.64053,3.992383,0.9375041,0.01268125,-0.2707299,-47.03866,-31.72195,23.05566
