Time (s),Gyroscope X (deg/s),Gyroscope Y (deg/s),Gyroscope Z (deg/s),Accelerometer X (g),Accelerometer Y (g),Accelerometer Z (g),Magnetometer X (uT),Magnetometer Y (uT),Magnetometer Z (uT)
17.92037487,-2.750506,-1.928355,2.195644,0.2488488,-0.2206083,0.9300569,-14.25348,-13.67479,-17.75785
17.930284977,-2.812444,-2.452623,2.809273,0.2537295,-0.2268932,0.9218071,-14.25348,-13.67479,-17.75785
17.94019556,-2.998258,-2.976891,3.422902,0.2617681,-0.2300978,0.9389972,-14.25348,-13.67479,-17.75785
17.950106144,-3.493763,-2.510875,4.097894,0.2760346,-0.2225581,0.9562012,-14.25348,-13.67479,-17.75785
17.960016251,-4.980276,-2.219615,4.159257,0.2940223,-0.2077514,0.9633358,-14.25486,-13.67636,-18.14331
17.969926834,-7.70555,-1.404088,3.79108,0.2912766,-0.2011093,0.9417983,-14.25486,-13.67636,-18.14331
17.979837418,-8.51074599999998,-0.9380721,3.300176,0.2795641,-0.2102734,0.8856671,-14.25486,-13.67636,-18.14331
17.989748001,-4.360896,-1.695348,2.74791,0.2773099,-0.1943556,0.8752306,-14.25486,-13.67636,-18.14331
17.999658108,1.337405,-1.7536,2.74791,0.2859063,-0.1789817,0.9208685,-14.25486,-13.67636,-18.14331
18.009568691,3.876865,-0.996324099999998,2.625184,0.2939999,-0.1641089,0.9645872,-14.62588,-14.05281,-18.58993
18.019479275,1.027715,-0.4138044,2.563822,0.2997879,-0.1479793,0.9756846,-14.62588,-14.05281,-18.58993
18.029388905,-4.732524,0.3434711,2.625184,0.2798955,-0.148398,0.942735,-14.62588,-14.05281,-18.58993
18.039299965,-5.90934699999998,0.4017231,2.993362,0.2628651,-0.173447,0.9215986,-14.62588,-14.05281,-18.58993
18.049210548,-1.016241,-0.4720564,2.870636,0.2601117,-0.180707,0.9306988,-14.62588,-14.05281,-18.58993
18.059121132,4.186555,-0.588560300000001,2.74791,0.2709544,-0.1776009,0.9426231,-15.00822,-13.30182,-18.14058
18.069030762,6.602139,-0.1225446,2.257007,0.2881728,-0.1802589,0.9496485,-15.00822,-13.30182,-18.14058
18.078941822,7.34539599999998,0.459975,1.766104,0.2787286,-0.1702115,0.9464417,-15.00822,-13.30182,-18.14058
18.088852406,5.425316,0.809486700000001,1.459289,0.2644745,-0.1577448,0.9538589,-15.00822,-13.30182,-18.14058
18.098762035,0.965776800000002,0.3434711,1.091112,0.2443104,-0.1429346,0.959906,-15.00822,-13.30182,-18.14058
18.108672619,-3.555701,1.275502,-0.5043238,0.2348554,-0.127039,0.9625002,-15.00498,-13.67825,-18.58913
18.118583679,-4.794462,2.38229,-1.977034,0.2292882,-0.1198875,0.952516,-15.00498,-13.67825,-18.58913
18.128494263,-2.31694,2.964809,-2.590663,0.2190061,-0.1273404,0.9424779,-15.00498,-13.67825,-18.58913
18.138403893,1.647095,1.974526,-2.590663,0.2184171,-0.1495893,0.9543392,-15.00498,-13.67825,-18.58913
18.148314476,3.505237,1.21725,-1.977034,0.2354997,-0.1764599,0.9674467,-15.00498,-13.67825,-18.58913
18.158225536,3.071671,1.100747,-1.363405,0.2562248,-0.1878119,0.9724611,-14.25647,-13.67819,-18.59303
18.168135166,1.089653,1.741518,-1.670219,0.2701926,-0.1857934,0.9540994,-14.25647,-13.67819,-18.59303
18.17804575,0.4083343,4.537613,-1.977034,0.2858884,-0.2006939,0.9413707,-14.25647,-13.67819,-18.59303
18.18795681,0.779962700000001,8.67350100000002,-1.977034,0.2950859,-0.2037922,0.9763166,-14.25647,-13.67819,-18.59303
18.200344563,-2.131126,12.69289,-1.608856,0.2756525,-0.216655,0.9735296,-14.25647,-13.67819,-18.59303
18.210255146,-2.62663,12.16862,-2.038397,0.2510064,-0.2185276,0.9521381,-14.63072,-13.67822,-18.59108
18.220165253,-0.2110462,10.1298,-2.406574,0.2402937,-0.2230294,0.9512469,-14.63072,-13.67822,-18.59108
18.230075836,3.752989,8.615249,-1.915671,0.2329959,-0.2289559,0.9479136,-14.63072,-13.67822,-18.59108
18.23998642,4.248494,8.03272900000002,-2.283848,0.2499814,-0.2088082,0.9589345,-14.63072,-13.67822,-18.59108
18.249897003,-1.140117,11.93561,-2.774751,0.2861194,-0.1956956,0.9697313,-14.63072,-13.67822,-18.59108
18.25980711,-3.493763,16.82878,-2.406574,0.300865,-0.2249798,0.9905268,-14.25162,-14.05278,-18.59187
18.269717693,0.1605821,18.51808,-1.302042,0.2772366,-0.2534004,0.9895955,-14.25162,-14.05278,-18.59187
18.279628277,4.37237,15.66374,0.661571300000002,0.2522187,-0.2522914,0.9831122,-14.25162,-14.05278,-18.59187
18.289538384,3.071671,12.69289,2.134281,0.2538224,-0.2314745,0.9731527,-14.25162,-14.05278,-18.59187
18.299448967,-0.7684886,12.69289,3.852443,0.2700774,-0.2212148,0.9490628,-14.25162,-14.05278,-18.59187
18.309359551,-3.184072,14.44044,5.386516,0.2769063,-0.2182108,0.9509403,-14.2643,-13.30699,-19.42936
18.319270134,-1.202055,16.30451,5.93878200000001,0.2831987,-0.228648,0.9801022,-14.2643,-13.30699,-19.42936
18.329180241,2.1426,17.93556,6.613773,0.274795,-0.2287997,0.9710559,-14.2643,-13.30699,-19.42936
18.339090824,5.79694500000002,18.75109,6.73649899999997,0.2547253,-0.217355,0.9823614,-14.2643,-13.30699,-19.42936
18.349001408,12.67207,18.92585,5.26379,0.2669263,-0.2267217,1.016757,-14.2643,-13.30699,-19.42936
18.358911991,17.4413,20.14914,3.484265,0.2699822,-0.2288121,1.073854,-14.27053,-12.93396,-19.81598
18.368822098,6.84989199999998,25.45007,2.625184,0.3007712,-0.1945363,1.064675,-14.27053,-12.93396,-19.81598
18.378732681,-7.27198399999998,30.45974,1.643378,0.2833276,-0.1505409,0.988784,-14.27053,-12.93396,-19.81598
18.388643265,-9.13012600000001,33.54709,-0.688412599999999,0.2553981,-0.1565347,0.9285026,-14.27053,-12.93396,-19.81598
18.398553372,1.83291,32.61506,-0.933864199999998,0.2235802,-0.1769512,0.9012917,-14.27053,-12.93396,-19.81598
18.408463955,16.20254,28.53742,-1.05659,0.1990104,-0.1770723,0.9370499,-13.90273,-12.56117,-20.2688
18.418374539,20.47626,26.78986,-0.9952272,0.2078295,-0.1454938,0.9280556,-13.90273,-12.56117,-20.2688
18.428285122,15.14959,29.11994,0.600208399999998,0.2135855,-0.1332833,0.9314449,-13.90273,-12.56117,-20.2688
18.438195229,11.18555,30.05197,4.404709,0.1803373,-0.1146747,0.9534835,-13.90273,-12.56117,-20.2688
18.448105812,9.51322700000002,23.70251,5.26379,0.1315265,-0.05622695,0.935118,-13.90273,-12.56117,-20.2688
18.458016396,8.83190799999998,18.28508,4.527435,0.1606646,-0.09058874,0.9706314,-13.52612,-13.3187,-22.32426
18.467926025,15.08765,20.84816,3.668354,0.2105425,-0.1362948,1.0126,-13.52612,-13.3187,-22.32426
18.480314732,20.0427,25.39182,3.975169,0.2404253,-0.2300297,1.003536,-13.52612,-13.3187,-22.32426
18.490224838,18.24649,26.90637,7.59558000000001,0.2201999,-0.2406173,0.9738829,-13.52612,-13.3187,-22.32426
18.500135422,17.37936,22.24621,10.541,0.110009,-0.2216069,0.8842787,-12.78246,-12.94404,-22.32931
18.510046005,17.50324,5.294888,13.11824,0.006190415,-0.1925043,0.8556629,-12.78246,-12.94404,-22.32931
18.519956112,16.75998,-2.802135,12.13644,0.03415503,-0.1340576,0.9330992,-12.78246,-12.94404,-22.32931
18.529866696,9.51322700000002,-0.1225446,10.41827,0.0899929,-0.04819178,0.9950953,-12.78246,-12.94404,-22.32931
18.539777279,-5.104152,3.256069,10.17282,0.1403098,-0.009784602,0.9876833,-12.78246,-12.94404,-22.32931
18.549687862,-1.325931,5.469644,7.04331400000001,0.1953069,-0.07433435,1.029959,-12.40011,-13.69503,-22.77866
18.559597969,10.69005,10.2463,6.92058799999998,0.2530459,-0.09919558,1.052307,-12.40011,-13.69503,-22.77866
18.569508552,7.77896300000002,13.45016,9.12965300000001,0.2110347,-0.1006772,1.054606,-12.40011,-13.69503,-22.77866
18.579419136,-0.892364699999998,11.41134,8.393298,0.1190764,-0.03064398,0.943086,-12.40011,-13.69503,-22.77866
18.589329243,-8.88237400000001,10.53756,2.072918,0.07724101,-0.01229134,0.842762,-12.40011,-13.69503,-22.77866
18.599239826,-19.16409,13.1589,-0.3815981,0.1000115,-0.02991367,0.8491563,-12.41417,-12.95081,-24.00161
18.60915041,-14.51874,17.35304,1.643378,0.07467698,-0.1235859,0.8915005,-12.41417,-12.95081,-24.00161
18.619060993,-4.670586,17.35304,5.81605599999998,0.05546509,-0.1965641,0.9829022,-12.41417,-12.95081,-24.00161
18.6289711,-3.184072,10.36281,6.859225,-0.01130271,-0.1770491,0.9798085,-12.41417,-12.95081,-24.00161
18.638881683,-11.29796,1.158998,1.704741,-0.02695809,-0.2270057,0.920561,-12.41417,-12.95081,-24.00161
18.648792267,-18.11114,-2.161363,-3.204292,0.003412672,-0.2105086,0.8498068,-11.67211,-12.57798,-24.45637
18.658702373,-11.42183,-2.743883,-5.29063,0.03903704,-0.2474106,0.8473109,-11.67211,-12.57798,-24.45637
18.668612957,-2.131126,-0.996324099999998,-4.247461,0.05568276,-0.2518212,0.8917822,-11.67211,-12.57798,-24.45637
18.67852354,0.841900699999999,-1.054576,-3.511106,0.03544074,-0.2085194,0.8759326,-11.67211,-12.57798,-24.45637
18.688434124,0.3463963,-2.569127,-4.063372,0.02049147,-0.1610441,0.9042363,-11.67211,-12.57798,-24.45637
18.698344231,-3.122134,-3.442907,-5.351994,0.0234241,-0.1419835,0.9264234,-12.05745,-11.83039,-24.8422
18.708254814,-2.255002,-2.394371,-6.45652599999998,0.05160847,-0.1680523,0.9740049,-12.05745,-11.83039,-24.8422
18.718165398,-3.369887,-1.46234,-6.27243700000002,0.06469598,-0.1784299,0.9983028,-12.05745,-11.83039,-24.8422
18.728075981,-7.08617000000002,-3.268151,-5.658808,0.03442135,-0.1617239,0.9266704,-12.05745,-11.83039,-24.8422
18.737986088,-5.228028,-9.035095,-6.701977,-0.02400533,-0.1433137,0.8773969,-12.05745,-11.83039,-24.8422
18.75037384,-4.360896,-17.30687,-8.66558999999998,-0.0493479,-0.1750477,0.896146,-12.0526,-12.20499,-24.84105
18.760284424,-4.670586,-23.9476,-10.56784,-0.04242938,-0.1915093,0.8839684,-12.0526,-12.20499,-24.84105
18.770195007,-5.90934699999998,-28.19999,-12.89963,0.009904929,-0.1996266,0.8757478,-12.0526,-12.20499,-24.84105
18.780106068,-6.03322300000001,-29.42328,-15.23142,0.08275011,-0.2011585,0.8726631,-12.0526,-12.20499,-24.84105
18.790015697,-2.62663,-26.51068,-16.45868,0.1534767,-0.1825512,0.9249504,-12.0526,-12.20499,-24.84105
18.799926281,-0.582674399999997,-24.1806,-15.53824,0.1529284,-0.1681936,0.9836303,-12.05446,-11.82699,-24.00702
18.809836864,-5.90934699999998,-28.89901,-14.24961,0.1126366,-0.1578181,1.024405,-12.05446,-11.82699,-24.00702
18.819746971,-10.80245,-35.77274,-11.61101,0.1189246,-0.2026434,1.060541,-12.05446,-11.82699,-24.00702
18.829657555,-14.51874,-39.09311,-8.788316,0.1476682,-0.2457427,1.095039,-12.05446,-11.82699,-24.00702
18.839568138,-16.56269,-40.19989,-7.92923500000003,0.215997,-0.237146,1.092544,-12.05446,-11.82699,-24.00702
18.849478722,-12.97029,-34.54945,-7.683784,0.3198322,-0.2372288,1.013798,-12.78705,-12.94927,-23.6142
18.859388828,-8.32493200000003,-25.57865,-7.254243,0.3928213,-0.2089385,0.9643349,-12.78705,-12.94927,-23.6142
18.869299412,-2.00725,-18.35541,-5.351994,0.3406084,-0.1780884,0.8680313,-12.78705,-12.94927,-23.6142
18.879209995,6.47826299999998,-15.73407,-6.82470300000003,0.2581935,-0.08390468,0.8094012,-12.78705,-12.94927,-23.6142
18.889120579,6.29244900000002,-13.637,-5.413356,0.1669043,-0.04009535,0.8753586,-12.78705,-12.94927,-23.6142
18.899030685,2.390352,-15.38456,-5.229268,0.1150272,-0.1117314,0.9300992,-13.9087,-12.56797,-21.93916
18.908941269,-2.440816,-20.97675,-4.738364,0.1224407,-0.1308623,0.9630341,-13.9087,-12.56797,-21.93916
18.918851852,-6.71454100000002,-26.68544,-5.536082,0.1892323,-0.1881566,1.067189,-13.9087,-12.56797,-21.93916
18.928761959,-6.28097500000001,-24.0641,-5.29063,0.3204627,-0.2978587,1.194888,-13.9087,-12.56797,-21.93916
18.938672543,2.514228,-12.64672,-3.142929,0.4366654,-0.3694035,1.237031,-13.9087,-12.56797,-21.93916
18.948583126,2.204538,-8.27782,0.9683858,0.3513812,-0.3396132,1.109335,-13.15534,-12.9425,-21.94189
18.95849371,-17.92533,-12.0642,-0.627049700000001,0.2390318,-0.107349,0.9160172,-13.15534,-12.9425,-21.94189
18.968403816,-30.62263,-13.69525,-3.265655,0.1342261,-0.038281,0.7426691,-13.15534,-12.9425,-21.94189
18.9783144,-23.56169,-14.68554,-5.229268,0.07224158,-0.04412593,0.699509,-13.15534,-12.9425,-21.94189
18.988224983,-19.10215,-17.88939,-4.554276,0.05303041,-0.1368643,0.7201958,-13.15534,-12.9425,-21.94189
18.99813509,-11.91734,-21.96703,-2.590663,0.1496553,-0.263529,0.8389781,-13.53769,-12.19151,-21.49254
19.008045673,6.602139,-19.81171,-0.811138499999999,0.2923033,-0.3683624,1.036706,-13.53769,-12.19151,-21.49254
19.017956257,14.46827,-13.87001,3.668354,0.3418359,-0.3252281,1.101357,-13.53769,-12.19151,-21.49254
19.030344486,-12.28897,-14.27777,4.036531,0.3539268,-0.1680887,1.081645,-13.53769,-12.19151,-21.49254
19.04025507,-23.99526,-4.258434,2.931999,0.3776788,-0.1008276,1.092437,-13.53769,-12.19151,-21.49254
19.050165653,-15.44781,8.55699699999999,2.74791,0.3207245,-0.06678645,1.06198,-13.91057,-12.18997,-21.10513
19.06007576,-1.263993,11.23659,3.422902,0.19153,-0.1006636,0.9169813,-13.91057,-12.18997,-21.10513
19.069986343,3.381361,1.158998,1.459289,0.08721288,-0.1337716,0.7669558,-13.91057,-12.18997,-21.10513
19.079896927,7.84089999999998,-11.77294,1.643378,0.1250489,-0.2483166,0.7461563,-13.91057,-12.18997,-21.10513
19.089806557,21.59115,-17.13212,4.097894,0.1769938,-0.2297984,0.8264658,-13.91057,-12.18997,-21.10513
19.099717617,22.89185,-18.82142,5.079701,0.2277288,-0.1467833,0.9120178,-13.89441,-13.31193,-20.65195
19.109628201,8.33640399999998,-19.22919,3.913806,0.2214545,-0.1060928,0.9200295,-13.89441,-13.31193,-20.65195
19.119538784,-9.93532100000003,-21.79227,1.091112,0.2027171,-0.1022652,0.861649,-13.89441,-13.31193,-20.65195
19.129448414,-20.6506,-20.62724,-2.5293,0.2525159,-0.1743539,0.8650296,-13.89441,-13.31193,-20.65195
19.139359474,-9.192064,-9.61761499999998,-2.590663,0.3695294,-0.3527852,0.9563895,-13.89441,-13.31193,-20.65195
19.149270058,16.01672,0.925990700000003,1.582015,0.3939086,-0.3771357,1.064038,-15.0239,-12.55943,-19.81324
19.159180641,25.67906,-0.879820100000002,3.361539,0.3289041,-0.2459978,1.077516,-15.0239,-12.55943,-19.81324
19.169090271,11.86687,-8.510828,1.397926,0.2739095,-0.1146262,1.0184,-15.0239,-12.55943,-19.81324
19.179001331,-7.210046,-11.07391,-2.774751,0.2677751,-0.04996926,0.9727924,-15.0239,-12.55943,-19.81324
19.188911915,-15.07618,-7.22928400000001,-5.474719,0.2825658,-0.04362902,0.9443685,-15.0239,-12.55943,-19.81324
19.198821545,-14.58068,-0.763316199999998,-7.19288099999999,0.2894586,-0.072787,0.9148208,-14.25784,-13.67976,-18.97849
19.208732128,-6.03322300000001,6.34342299999999,-7.131518,0.3176788,-0.1398128,0.9179546,-14.25784,-13.67976,-18.97849
19.218643189,5.053688,10.47931,-4.677001,0.3077609,-0.1902425,0.940758,-14.25784,-13.67976,-18.97849
19.228553772,11.92881,9.13951700000002,-1.792945,0.2992249,-0.2111903,0.9421379,-14.25784,-13.67976,-18.97849
19.238463402,14.8399,5.06188,-0.2588722,0.2849967,-0.2128564,0.9355361,-14.25784,-13.67976,-18.97849
19.248373985,14.53021,3.314321,-0.811138499999999,0.299069,-0.2217548,0.9622356,-14.63695,-13.30519,-18.9777
19.258285046,11.06168,2.731802,-1.547493,0.2753955,-0.1914228,0.9780216,-14.63695,-13.30519,-18.9777
19.268195629,5.177564,-0.646812299999999,-3.081566,0.2555359,-0.1930395,0.9945198,-14.63695,-13.30519,-18.9777
19.278105259,1.027715,-3.617662,-5.167905,0.2371978,-0.2111949,0.9969693,-14.63695,-13.30519,-18.9777
19.288015843,-7.08617000000002,-5.947741,-6.94742899999999,0.215427,-0.1928217,0.9459161,-14.63695,-13.30519,-18.9777
19.297926903,-10.74052,-6.76326800000001,-8.42013799999998,0.2213386,-0.1785878,0.8715318,-14.26132,-13.30359,-18.59418
19.310314655,-0.5207364,-4.374938,-8.54286499999998,0.2424752,-0.185832,0.8261532,-14.26132,-13.30359,-18.59418
19.320225239,14.71602,-2.510875,-7.92923500000003,0.2456732,-0.1939504,0.8423949,-14.26132,-13.30359,-18.59418
19.330135346,22.64409,-4.433189,-5.90425999999998,0.2359426,-0.1740476,0.8704666,-14.26132,-13.30359,-18.59418
19.340045929,20.29045,-8.74383499999998,-5.413356,0.2351267,-0.150073,0.9143283,-14.26132,-13.30359,-18.59418
19.349956513,15.3354,-11.65643,-5.474719,0.2567042,-0.1485468,0.9698372,-14.99853,-14.05101,-18.13827
19.359867096,10.69005,-11.07391,-5.29063,0.2674159,-0.1481874,1.013435,-14.99853,-14.05101,-18.13827
19.369777203,4.124618,-9.32635500000001,-4.554276,0.2546373,-0.1613032,1.039394,-14.99853,-14.05101,-18.13827
19.379687786,-1.883373,-8.510828,-4.983816,0.2403602,-0.1790923,1.009158,-14.99853,-14.05101,-18.13827
19.38959837,-5.97128500000002,-8.56907899999999,-6.39516299999999,0.2529853,-0.1965399,0.9801154,-14.99853,-14.05101,-18.13827
19.399508476,-9.00624999999998,-7.98655900000001,-8.23605,0.2765376,-0.2196178,0.9610177,-13.87437,-14.04935,-17.75864
19.40941906,-9.315941,-7.22928400000001,-9.03376799999999,0.3032138,-0.2242719,0.9343312,-13.87437,-14.04935,-17.75864
19.419329643,-8.32493200000003,-6.53026000000001,-8.481502,0.3196245,-0.2080774,0.9323668,-13.87437,-14.04935,-17.75864
19.429240227,-7.39586000000001,-6.18074799999997,-7.131518,0.3273515,-0.1963223,0.9366951,-13.87437,-14.04935,-17.75864
19.439150334,-6.71454100000002,-5.248717,-5.90425999999998,0.3269298,-0.1928788,0.9472853,-13.87437,-14.04935,-17.75864
19.449060917,-6.590665,-4.025426,-4.922453,0.307397,-0.1809152,0.9638711,-13.86654,-14.42055,-16.9223
19.458971501,-6.342913,-3.151647,-4.922453,0.2918984,-0.1800584,0.9793852,-13.86654,-14.42055,-16.9223
19.468882084,-6.46678900000002,-2.569127,-5.29063,0.276931,-0.1674663,1.012738,-13.86654,-14.42055,-16.9223
19.478792191,-9.13012600000001,-1.520592,-5.229268,0.2714225,-0.1549183,1.014794,-13.86654,-14.42055,-16.9223
19.488702774,-10.74052,-0.588560300000001,-5.474719,0.2829862,-0.158763,0.993534,-13.86654,-14.42055,-16.9223
19.498613358,-9.74950700000001,0.576479000000001,-5.96562199999999,0.2908741,-0.194729,0.9576898,-13.87139,-14.04596,-16.92346
19.508523941,-7.39586000000001,1.275502,-6.76333999999998,0.302022,-0.2224442,0.9156283,-13.87139,-14.04596,-16.92346
19.518434048,-5.47578,1.50851,-7.74514699999999,0.3119934,-0.2166164,0.8934876,-13.87139,-14.04596,-16.92346
19.528344631,-5.351904,2.38229,-7.62242100000002,0.320572,-0.1922317,0.9002929,-13.87139,-14.04596,-16.92346
19.538255215,-6.83841800000002,3.489077,-6.82470300000003,0.3318497,-0.178416,0.919487,-13.87139,-14.04596,-16.92346
19.548165321,-7.95330300000002,5.6444,-5.78153400000001,0.3339818,-0.1704949,0.9459288,-13.86978,-14.04413,-16.47375
19.558075905,-7.51973599999998,7.50846199999997,-4.43155,0.3205816,-0.1753931,0.9685875,-13.86978,-14.04413,-16.47375
19.567986488,-6.342913,9.02301299999999,-4.186098,0.2962345,-0.1746711,0.979381,-13.86978,-14.04413,-16.47375
19.577897072,-6.09516099999999,8.67350100000002,-3.817921,0.2679071,-0.1681801,0.9902496,-13.86978,-14.04413,-16.47375
19.590284824,-6.71454100000002,7.21720299999998,-3.388381,0.2580234,-0.1610399,0.988468,-13.86978,-14.04413,-16.47375
19.600195408,-7.27198399999998,5.527896,-3.449744,0.2627292,-0.1708304,0.9590696,-14.2408,-14.42058,-16.92036
19.610105514,-6.28097500000001,5.178384,-3.695195,0.27054,-0.183422,0.9430683,-14.2408,-14.42058,-16.92036
19.620016098,-2.998258,5.294888,-4.554276,0.2771121,-0.2134741,0.9288827,-14.2408,-14.42058,-16.92036
19.629926681,-1.140117,5.76090399999998,-4.983816,0.2880265,-0.2200868,0.9364203,-14.2408,-14.42058,-16.92036
19.639836788,-2.00725,6.05216399999999,-5.229268,0.2891213,-0.2224527,0.9450371,-14.2408,-14.42058,-16.92036
19.649747372,-3.989267,6.40167600000003,-4.677001,0.2950526,-0.2257607,0.9473611,-13.87139,-14.04596,-16.92346
19.659657955,-4.980276,6.45992799999999,-3.756558,0.286599,-0.2200846,0.9402747,-13.87139,-14.04596,-16.92346
19.669568539,-5.16609,6.634683,-3.388381,0.2777648,-0.2172852,0.940375,-13.87139,-14.04596,-16.92346
19.679478645,-5.228028,6.69293500000002,-3.817921,0.2752229,-0.2041956,0.9462477,-13.87139,-14.04596,-16.92346
19.689389229,-5.537719,5.35314,-3.572469,0.2723204,-0.196899,0.957847,-13.87139,-14.04596,-16.92346
19.699299812,-5.661595,4.362857,-2.95884,0.2741583,-0.19157,0.9525837,-13.86654,-14.42055,-16.9223
19.709210396,-3.989267,4.595865,-2.222485,0.2732519,-0.2037401,0.9453086,-13.86654,-14.42055,-16.9223
19.719120502,-2.812444,5.527896,-1.792945,0.2633339,-0.2019836,0.9338883,-13.86654,-14.42055,-16.9223
19.729031086,-3.555701,5.93566000000002,-2.038397,0.2473648,-0.1877131,0.9192461,-13.86654,-14.42055,-16.9223
19.738941669,-4.484772,4.712368,-2.222485,0.2310017,-0.1797408,0.9064863,-13.86654,-14.42055,-16.9223
19.748852253,-4.8564,3.081313,-2.467937,0.2393098,-0.1781756,0.9078603,-13.87139,-14.04596,-16.92346
19.75876236,-4.422833,2.498794,-2.467937,0.2525985,-0.170648,0.9250733,-13.87139,-14.04596,-16.92346
19.768672943,-4.422833,3.081313,-2.774751,0.2674882,-0.1669347,0.9508888,-13.87139,-14.04596,-16.92346
19.778583527,-4.670586,4.421109,-3.756558,0.2665172,-0.1625531,0.9566889,-13.87139,-14.04596,-16.92346
19.788493633,-4.918338,5.178384,-6.02698499999997,0.255175,-0.165183,0.9442921,-13.87139,-14.04596,-16.92346
19.798404217,-3.184072,4.712368,-8.97240399999998,0.2544422,-0.1865311,0.9431964,-13.50683,-13.29674,-16.92771
19.8083148,0.656086599999998,4.945376,-11.48828,0.2563518,-0.2170141,0.9506582,-13.50683,-13.29674,-16.92771
19.818225384,9.07965999999998,4.362857,-13.88144,0.2431062,-0.2393929,0.9679174,-13.50683,-13.29674,-16.92771
19.82813549,18.43231,2.032778,-17.68594,0.2209083,-0.2821999,0.9942461,-13.50683,-13.29674,-16.92771
19.838046074,26.79394,-1.054576,-20.63136,0.2372737,-0.2733462,0.9792688,-13.50683,-13.29674,-16.92771
19.847956657,29.95279,1.50851,-22.22679,0.2712716,-0.222314,0.9211953,-13.86792,-14.42212,-17.30777
19.860344887,28.3424,8.49874499999997,-25.29494,0.286993,-0.1133251,0.770046,-13.86792,-14.42212,-17.30777
19.87025547,26.79394,11.76085,-29.22216,0.2778083,-0.004135855,0.7175608,-13.86792,-14.42212,-17.30777
19.880166054,30.32441,14.14919,-35.35846,0.247804,0.05758895,0.7249717,-13.86792,-14.42212,-17.30777
19.89007616,40.42031,14.44044,-42.41519,0.2704087,0.1123239,0.8475677,-13.11641,-14.41866,-16.47649
19.899986744,41.28745,18.22682,-46.0356,0.3212415,0.1493055,1.031725,-13.11641,-14.41866,-16.47649
19.909897327,42.09264,21.08117,-48.42875,0.3576713,0.1228271,1.167576,-13.11641,-14.41866,-16.47649
19.919807911,39.11962,22.30446,-49.10374,0.3763009,0.1243093,1.221672,-13.11641,-14.41866,-16.47649
19.929718018,26.91782,22.24621,-48.12194,0.3751951,0.09788899,1.178292,-13.11641,-14.41866,-16.47649
19.939628601,15.64509,22.0132,-50.33101,0.3430897,0.09072424,0.9956006,-11.98256,-15.16619,-16.09455
19.949539185,7.96477600000001,20.5569,-55.85366,0.3139375,0.1267816,0.913043,-11.98256,-15.16619,-16.09455
19.959448814,-0.830426599999998,20.67341,-62.9104,0.3287547,0.1299693,0.9311733,-11.98256,-15.16619,-16.09455
19.969359875,-3.369887,25.27531,-68.8626000000002,0.3636848,0.06467053,0.9707485,-11.98256,-15.16619,-16.09455
19.979270458,0.594148499999998,29.4112,-71.9921099999997,0.3554217,0.02655206,1.026269,-11.98256,-15.16619,-16.09455
19.989181042,2.018724,30.34323,-72.7898299999998,0.3187226,0.005351465,1.046634,-10.48206,-15.54224,-16.48665
19.999090672,-3.060196,29.35295,-72.0534700000001,0.2734417,0.01634119,1.030801,-10.48206,-15.54224,-16.48665
20.009001732,-13.27998,27.25588,-71.4398400000002,0.2603913,0.009177085,0.9895801,-10.48206,-15.54224,-16.48665
20.018912315,-22.19905,24.8093,-69.6603200000002,0.2629822,-0.02535043,0.9633976,-10.48206,-15.54224,-16.48665
20.028822899,-21.9513,21.60544,-67.45126,0.2456334,-0.07055639,0.9829433,-10.48206,-15.54224,-16.48665
20.038732529,-20.03122,18.9841,-64.44447,0.2763152,-0.1282745,0.9986004,-8.62021,-15.17272,-17.78242
20.048643589,-19.3499,18.28508,-60.6399700000002,0.3057886,-0.1563687,1.02647,-8.62021,-15.17272,-17.78242
20.058554173,-19.47378,19.91613,-58.0013699999998,0.2933342,-0.1866372,1.0163,-8.62021,-15.17272,-17.78242
20.068464756,-24.61464,19.1006,-56.59002,0.2386231,-0.2233933,0.9786289,-8.62021,-15.17272,-17.78242
20.078374863,-28.51674,16.94528,-54.50368,0.2072211,-0.231407,0.9111636,-8.62021,-15.17272,-17.78242
20.088285446,-36.63062,16.0715,-49.3492,0.1802746,-0.229581,0.8605282,-6.751905,-15.17597,-18.62734
20.09819603,-42.4528,17.58605,-45.23788,0.1536228,-0.2495529,0.813106,-6.751905,-15.17597,-18.62734
20.108106613,-42.88636,13.56667,-40.63567,0.1480696,-0.2487267,0.8923889,-6.751905,-15.17597,-18.62734
20.11801672,-29.25999,12.45988,-38.36524,0.1791359,-0.3284354,0.9674356,-6.751905,-15.17597,-18.62734
20.127927303,-21.76549,12.63463,-38.4266,0.2125932,-0.3220571,0.9950178,-6.751905,-15.17597,-18.62734
20.140315056,-23.06619,7.74146999999998,-36.03345,0.1770146,-0.3422045,0.9351929,-5.707178,-14.43349,-20.30552
20.150225639,-22.01324,6.45992799999999,-31.3085,0.1874736,-0.3490542,0.8980783,-5.707178,-14.43349,-20.30552
20.160136223,-23.74751,7.391958,-27.07446,0.1471187,-0.3370087,0.887008,-5.707178,-14.43349,-20.30552
20.17004633,-34.95829,5.99391199999998,-25.23358,0.1002119,-0.313925,0.8698297,-5.707178,-14.43349,-20.30552
20.179956913,-50.25699,6.45992799999999,-23.2086,0.1384123,-0.3163423,0.8728215,-5.707178,-14.43349,-20.30552
20.189867497,-57.9992499999999,14.38219,-18.97456,0.1701943,-0.4161753,0.8987513,-4.229058,-13.31455,-21.53741
20.19977808,-52.17707,19.21711,-11.7951,0.1412624,-0.5104691,0.923359,-4.229058,-13.31455,-21.53741
20.209688187,-41.70954,15.955,-5.597445,0.1232756,-0.5364949,0.9031852,-4.229058,-13.31455,-21.53741
20.21959877,-33.78147,9.02301299999999,-1.05659,0.1055844,-0.5372491,0.8937407,-4.229058,-13.31455,-21.53741
20.229509354,-25.97728,2.265786,2.625184,0.1429514,-0.5703351,0.8749287,-4.229058,-13.31455,-21.53741
20.239419937,-15.94331,0.518227,7.96375800000002,0.2015624,-0.5354876,0.9091901,-4.630548,-11.445,-22.37642
20.249330044,-13.52773,6.40167600000003,11.82962,0.2942377,-0.389573,0.9621226,-4.630548,-11.445,-22.37642
20.259240627,-13.77548,16.0715,16.55457,0.3190103,-0.4239717,1.001037,-4.630548,-11.445,-22.37642
20.269151211,-0.1491081,21.95495,20.7886,0.279418,-0.3666601,1.021952,-4.630548,-11.445,-22.37642
20.279061794,10.62811,24.16852,22.32268,0.2396126,-0.2419027,1.053401,-4.630548,-11.445,-22.37642
20.288971901,7.96477600000001,25.68307,19.86816,0.2271104,-0.1804976,1.050565,-4.268975,-10.69918,-23.21585
20.298882485,1.337405,25.10056,18.02728,0.1968999,-0.1720509,0.9755155,-4.268975,-10.69918,-23.21585
20.308793068,-6.590665,18.34333,21.64769,0.1162128,-0.193793,0.9972438,-4.268975,-10.69918,-23.21585
20.318703652,-5.90934699999998,13.79967,22.13859,0.1375002,-0.09071472,1.095686,-4.268975,-10.69918,-23.21585
20.328613758,-3.617639,17.93556,21.27951,0.2167637,0.01981213,1.182118,-4.268975,-10.69918,-23.21585
20.338524342,-8.944312,24.28503,21.15678,0.2215619,0.04519165,1.202889,-4.264126,-11.07378,-23.2147
20.348434925,-15.63362,27.25588,22.38404,0.2107183,0.02721146,1.221116,-4.264126,-11.07378,-23.2147
20.358345509,-25.8534,25.85783,22.75222,0.1495211,0.01298687,1.149563,-4.264126,-11.07378,-23.2147
20.368255615,-37.99326,19.62487,18.51818,0.1107507,0.007542108,1.034167,-4.264126,-11.07378,-23.2147
20.378166199,-51.30994,15.78024,15.45003,0.1599117,-0.04610245,0.9493276,-4.264126,-11.07378,-23.2147
20.388076782,-60.2909500000003,19.45012,19.56135,0.2029615,-0.1935882,0.9215382,-4.271962,-10.70258,-24.05103
20.397987366,-54.28297,24.16852,24.59311,0.1923109,-0.2975612,0.905579,-4.271962,-10.70258,-24.05103
20.407897472,-39.23202,22.59572,29.01123,0.08153851,-0.3229865,0.8502556,-4.271962,-10.70258,-24.05103
20.420285225,-32.23302,13.68317,27.23171,0.02500778,-0.2794566,0.8721954,-4.271962,-10.70258,-24.05103
20.430196285,-32.17108,9.43077699999998,25.759,0.02784025,-0.4177522,0.8433986,-4.271962,-10.70258,-24.05103
20.440106869,-33.84341,6.285172,23.85675,0.0246264,-0.4491542,0.7793581,-3.534268,-10.33472,-25.72644
20.450017452,-30.87038,6.16866800000003,22.62949,0.02437446,-0.4192897,0.742107,-3.534268,-10.33472,-25.72644
20.459927082,-15.44781,9.08126399999998,20.97269,0.02418335,-0.3350077,0.7268251,-3.534268,-10.33472,-25.72644
20.469838143,3.071671,8.67350100000002,17.53637,-0.02262309,-0.2604127,0.7320763,-3.534268,-10.33472,-25.72644
20.479748726,9.94679400000001,4.77062,13.91596,-0.06375372,-0.1987664,0.7511134,-3.534268,-10.33472,-25.72644
20.48965931,6.16857299999999,-3.384655,9.25237800000001,-0.08671438,-0.1863606,0.7677338,-4.680805,-8.841399,-26.94586
20.499568939,5.30144,-8.86033900000001,4.711524,-0.07143413,-0.2319519,0.8215467,-4.680805,-8.841399,-26.94586
20.50948,5.673069,-12.64672,1.827467,-0.04881917,-0.2469678,0.8634914,-4.680805,-8.841399,-26.94586
20.519390583,9.265474,-15.50106,-0.3202352,-0.02841055,-0.2855532,0.8534424,-4.680805,-8.841399,-26.94586
20.529301167,10.00873,-23.24857,-2.038397,-0.04088397,-0.3033971,0.808304,-4.680805,-8.841399,-26.94586
20.539210796,9.51322700000002,-29.13202,-3.940647,0.003048501,-0.3548313,0.7883488,-5.058534,-8.465265,-26.5596
20.549121857,13.41532,-32.62714,-3.511106,0.004414551,-0.3902269,0.7847392,-5.058534,-8.465265,-26.5596
20.55903244,16.94579,-36.87953,-4.002009,-0.02455612,-0.3984565,0.7633452,-5.058534,-8.465265,-26.5596
20.568943024,23.26348,-42.93773,-7.31560700000001,-0.01746051,-0.4045821,0.7805245,-5.058534,-8.465265,-26.5596
20.578852653,37.81892,-46.02509,-11.85646,0.03046792,-0.384704,0.8522373,-5.058534,-8.465265,-26.5596
20.588763714,51.56916,-45.15131,-16.21323,0.07867727,-0.3502938,0.9206834,-4.292483,-9.585592,-25.72485
20.598674297,57.01971,-43.69501,-18.66774,0.1384599,-0.3036257,0.9876635,-4.292483,-9.585592,-25.72485
20.608584881,56.09064,-39.85038,-19.03592,0.2209908,-0.2992212,1.07768,-4.292483,-9.585592,-25.72485
20.618494511,50.88785,-35.36498,-18.66774,0.2557347,-0.2587721,1.127564,-4.292483,-9.585592,-25.72485
20.628405571,43.88885,-33.0349,-17.62457,0.2530254,-0.2345501,1.130151,-4.292483,-9.585592,-25.72485
20.638316154,40.04869,-33.73392,-15.90641,0.2167131,-0.2194606,1.135389,-5.030177,-9.95345,-24.04945
20.648226738,35.77496,-33.90868,-12.89963,0.2277638,-0.2101532,1.127186,-5.030177,-9.95345,-24.04945
20.658136368,26.42232,-33.0349,-10.19966,0.2346899,-0.09760849,1.028479,-5.030177,-9.95345,-24.04945
20.668047428,13.66308,-28.37475,-11.73374,0.2628466,-0.07639224,0.9380906,-5.030177,-9.95345,-24.04945
20.677958012,17.99874,-21.73402,-9.70875899999999,0.2747205,-0.09714865,0.927279,-5.030177,-9.95345,-24.04945
20.687868595,28.77596,-16.84086,-7.37696900000002,0.3119186,-0.1410455,0.9746584,-5.748474,-11.81969,-22.36942
20.700256348,42.0307,-6.938024,2.195644,0.3402677,-0.1860618,0.9207987,-5.748474,-11.81969,-22.36942
20.710166931,44.1366,-9.035095,11.70689,0.2525475,-0.1989672,0.8869526,-5.748474,-11.81969,-22.36942
20.720077038,44.01272,-14.74379,14.3455,0.2178305,-0.2340277,0.941298,-5.748474,-11.81969,-22.36942
20.729987621,36.02271,-21.20975,13.60915,0.1807529,-0.2566403,0.9707798,-5.748474,-11.81969,-22.36942
20.739898205,19.98076,-26.21942,9.37510399999997,0.222746,-0.270769,1.043762,-5.726091,-13.31467,-21.52963
20.749808788,7.53120999999999,-21.26801,8.76147600000002,0.2916378,-0.2987042,1.101038,-5.726091,-13.31467,-21.52963
20.759718895,4.248494,-8.16131600000003,8.82283799999997,0.3587217,-0.3563431,1.137966,-5.726091,-13.31467,-21.52963
20.769629478,12.98176,6.16866800000003,12.99552,0.3495551,-0.4095658,1.087759,-5.726091,-13.31467,-21.52963
20.779540062,30.81992,11.5861,16.80002,0.2984011,-0.4069541,0.9662897,-5.726091,-13.31467,-21.52963
20.789450645,52.68405,11.5861,15.94093,0.2427007,-0.1932712,0.8870816,-7.161231,-12.93523,-20.30267
20.799360752,61.7270099999997,12.28512,14.89777,0.2181068,-0.01294347,0.8457764,-7.161231,-12.93523,-20.30267
20.809271336,58.5062299999999,13.21715,16.61593,0.1679006,0.06552304,0.857807,-7.161231,-12.93523,-20.30267
20.819181919,40.2345,11.41134,24.1022,0.1182473,0.06282266,0.9240299,-7.161231,-12.93523,-20.30267
20.829092026,14.96378,4.188101,32.20211,0.08419652,-0.0938336,0.9962851,-7.161231,-12.93523,-20.30267
20.839002609,5.30144,-5.306969,41.34518,0.06364132,-0.2448148,1.008434,-7.145076,-14.05718,-19.8495
20.848913193,16.88386,-19.28744,45.57922,0.1040766,-0.2853594,0.9463294,-7.145076,-14.05718,-19.8495
20.858823776,24.81193,-25.92816,40.79291,0.1811857,-0.1276611,0.8780043,-7.145076,-14.05718,-19.8495
20.868733883,19.17556,-23.07382,32.99982,0.2326553,-0.04964729,0.838675,-7.145076,-14.05718,-19.8495
20.878644466,16.26447,-15.0933,25.51355,0.2478639,-0.04943101,0.8438176,-7.145076,-14.05718,-19.8495
20.88855505,20.10464,-5.947741,25.08401,0.2870786,-0.1708239,0.9017057,-6.758132,-14.80294,-19.01396
20.898465633,41.22551,1.79977,25.759,0.2628658,-0.1731983,0.9696161,-6.758132,-14.80294,-19.01396
20.90837574,48.16257,4.013345,24.89992,0.251182,0.04543998,0.9923076,-6.758132,-14.80294,-19.01396
20.918286324,38.06667,1.916274,22.50677,0.2115266,0.156608,0.9271532,-6.758132,-14.80294,-19.01396
20.928196907,26.67007,-7.52054399999998,22.4454,0.1522388,0.2070135,0.8790612,-6.758132,-14.80294,-19.01396
20.938107491,12.11462,-18.70492,25.08401,0.152708,0.1970137,0.9130814,-8.248938,-15.17609,-18.61955
20.948017597,-5.413843,-21.55927,27.96807,0.2211131,0.1498097,0.9956818,-8.248938,-15.17609,-18.61955
20.957928181,-14.14711,-17.24862,28.33624,0.2636127,0.002294803,1.057207,-8.248938,-15.17609,-18.61955
20.970315933,-13.52773,-12.70497,25.2681,0.2705954,-0.04851931,1.058724,-8.248938,-15.17609,-18.61955
20.980226994,-12.66059,-9.79237100000002,19.68407,0.2873665,-0.05043449,1.023025,-8.98477,-15.92194,-17.77817
20.990137577,-11.91734,-6.99627600000001,15.63412,0.2827762,-0.01669025,0.996403,-8.98477,-15.92194,-17.77817
21.000048161,-15.26199,-4.899205,12.56598,0.2848719,0.02583726,0.9644966,-8.98477,-15.92194,-17.77817
21.009958267,-19.41184,-2.044859,9.62055600000002,0.2944502,0.02487956,0.9437547,-8.98477,-15.92194,-17.77817
21.019868851,-17.30595,1.450258,8.08648300000002,0.2870983,-0.02570485,0.9305215,-8.98477,-15.92194,-17.77817
21.029779434,-7.51973599999998,4.537613,6.92058799999998,0.2702698,-0.06405904,0.9611517,-9.362268,-15.54555,-17.32767
21.039690018,-0.3968603,6.634683,6.55241099999999,0.2369634,-0.07986658,0.9848821,-9.362268,-15.54555,-17.32767
21.049600124,-0.2729842,5.469644,6.00014400000002,0.1961164,-0.07343415,1.014592,-9.362268,-15.54555,-17.32767
21.059510708,-3.369887,1.741518,4.466072,0.1868702,-0.06182022,1.032521,-9.362268,-15.54555,-17.32767
21.069421291,-10.12114,-1.46234,3.054725,0.1787225,-0.044526,1.021188,-9.362268,-15.54555,-17.32767
21.079331875,-16.56269,-2.918639,2.072918,0.1911379,-0.04647289,0.9898498,-9.731678,-15.92017,-17.32457
21.089241982,-18.79246,-2.918639,0.784297200000002,0.2109825,-0.06876643,0.9439028,-9.731678,-15.92017,-17.32457
21.099152565,-15.38587,-2.219615,-0.627049700000001,0.2224598,-0.1050907,0.9238682,-9.731678,-15.92017,-17.32457
21.109063149,-9.62563099999998,-1.17108,-1.424767,0.2345256,-0.1369668,0.9187426,-9.731678,-15.92017,-17.32457
21.118973732,-4.175081,-1.345836,-1.915671,0.2347344,-0.15198,0.9215215,-9.731678,-15.92017,-17.32457
21.128884316,0.5322105,-3.093395,-1.915671,0.2251388,-0.1342065,0.9126057,-9.739998,-15.16941,-16.94141
21.138794422,5.363379,-5.831236,-2.5293,0.2200609,-0.1031462,0.9306256,-9.739998,-15.16941,-16.94141
21.148705006,5.363379,-7.11277999999999,-3.081566,0.2331679,-0.07668878,0.9522877,-9.739998,-15.16941,-16.94141
21.158615589,0.656086599999998,-7.22928400000001,-3.511106,0.2349657,-0.0547953,0.9625002,-9.739998,-15.16941,-16.94141
21.168526173,-4.360896,-7.75355199999998,-4.124735,0.2389037,-0.05083017,0.9696926,-9.739998,-15.16941,-16.94141
21.178436279,-7.39586000000001,-8.16131600000003,-4.922453,0.2511921,-0.049668,0.9772692,-9.736526,-15.54558,-17.32572
21.188346863,-9.192064,-7.40403899999997,-5.106542,0.2663633,-0.05044679,0.9776038,-9.736526,-15.54558,-17.32572
21.198257446,-9.811445,-6.18074799999997,-5.045179,0.2645704,-0.06160602,0.980427,-9.736526,-15.54558,-17.32572
21.20816803,-10.0592,-5.132213,-5.045179,0.2584235,-0.07377168,0.9866449,-9.736526,-15.54558,-17.32572
21.218078136,-10.18307,-4.433189,-5.045179,0.2522652,-0.09569941,0.9803137,-9.736526,-15.54558,-17.32572
21.22798872,-9.315941,-4.316686,-4.677001,0.2608265,-0.1120511,0.9854072,-9.359282,-15.54215,-16.49249
21.237899303,-9.74950700000001,-4.083678,-4.124735,0.2687841,-0.1192004,0.9900877,-9.359282,-15.54215,-16.49249
21.250287056,-12.59866,-3.442907,-3.756558,0.2750703,-0.100133,1.005522,-9.359282,-15.54215,-16.49249
21.26019764,-16.31494,-1.928355,-3.204292,0.2843857,-0.08536934,1.02522,-9.359282,-15.54215,-16.49249
21.270107746,-19.65959,0.459975,-3.020203,0.2831636,-0.1037969,1.02751,-9.359282,-15.54215,-16.49249
21.28001833,-20.1551,2.440542,-2.713389,0.2706572,-0.1404341,1.004814,-9.370588,-14.79479,-16.94451
21.289928913,-17.80145,3.663833,-3.142929,0.2585965,-0.1829412,0.9710311,-9.370588,-14.79479,-16.94451
21.299839497,-14.58068,3.955093,-2.5293,0.2537597,-0.2059018,0.9493157,-9.370588,-14.79479,-16.94451
21.30975008,-10.49276,4.537613,-2.222485,0.2429442,-0.215823,0.9320641,-9.370588,-14.79479,-16.94451
21.319660187,-8.944312,5.178384,-1.977034,0.2466529,-0.2278265,0.9458743,-9.370588,-14.79479,-16.94451
21.32957077,-9.62563099999998,6.22691999999998,-1.670219,0.2542262,-0.2198054,0.9785085,-9.009015,-14.04896,-17.78394
21.339481354,-11.8554,8.20748500000001,-1.547493,0.2677375,-0.2214303,1.006702,-9.009015,-14.04896,-17.78394
21.349392414,-13.96129,10.07155,-0.933864199999998,0.2753888,-0.2165438,0.9956201,-9.009015,-14.04896,-17.78394
21.359302044,-12.35091,11.5861,-0.3815981,0.266479,-0.2313447,0.9677548,-9.009015,-14.04896,-17.78394
21.369212627,-6.71454100000002,12.86764,-0.3202352,0.2502762,-0.2413378,0.9495921,-9.009015,-14.04896,-17.78394
21.379123211,-2.069188,13.10065,0.4774826,0.2341339,-0.2415432,0.9487797,-8.633148,-14.0471,-17.33617
21.389034271,-1.511745,11.99386,1.152475,0.2032054,-0.2244325,0.9568623,-8.633148,-14.0471,-17.33617
21.398943901,-3.493763,10.53756,1.520652,0.1845916,-0.2124874,0.9676775,-8.633148,-14.0471,-17.33617
21.408854485,-5.599657,8.73175299999997,1.520652,0.1756678,-0.2063199,0.9629995,-8.633148,-14.0471,-17.33617
21.418765068,-6.65260400000001,7.15895100000002,1.766104,0.1774203,-0.2078646,0.9413658,-8.633148,-14.0471,-17.33617
21.428676128,-5.351904,5.586148,2.257007,0.1899933,-0.220949,0.9123529,-8.639606,-13.67434,-17.78704
21.438585758,-1.449807,4.654117,3.238813,0.20254,-0.2277056,0.8881839,-8.639606,-13.67434,-17.78704
21.448496342,3.009732,3.722085,4.22062,0.2053695,-0.2272353,0.8785577,-8.639606,-13.67434,-17.78704
21.458406925,5.79694500000002,2.498794,4.22062,0.2117353,-0.2115411,0.8978098,-8.639606,-13.67434,-17.78704
21.468317986,5.98275899999998,1.974526,4.527435,0.2128336,-0.1997589,0.9233265,-8.639606,-13.67434,-17.78704
21.478227615,5.487255,1.916274,5.079701,0.2143887,-0.181158,0.9536859,-8.636135,-14.0505,-18.17135
21.488138199,5.239502,1.974526,5.570604,0.2103762,-0.1739424,0.9523308,-8.636135,-14.0505,-18.17135
21.498048782,5.115626,0.7512348,5.87741900000002,0.2019107,-0.1751018,0.9360759,-8.636135,-14.0505,-18.17135
21.507959843,5.30144,-1.695348,6.67513700000002,0.1974009,-0.1713112,0.9299008,-8.636135,-14.0505,-18.17135
21.517869473,5.549192,-3.617662,6.67513700000002,0.2026297,-0.1649804,0.9226922,-8.636135,-14.0505,-18.17135
21.530258179,7.34539599999998,-4.316686,6.12286999999999,0.213756,-0.1488043,0.9298995,-9.010393,-14.05053,-18.16941
21.540168285,8.70803299999998,-3.559411,5.202427,0.214991,-0.1240285,0.9362952,-9.010393,-14.05053,-18.16941
21.550078869,8.27446599999999,-2.743883,4.588798,0.2252855,-0.1073008,0.9583986,-9.010393,-14.05053,-18.16941
21.559989452,5.98275899999998,-2.452623,4.343346,0.2311167,-0.1013926,0.9617451,-9.010393,-14.05053,-18.16941
21.569900036,4.310431,-2.394371,3.852443,0.234163,-0.1042242,0.9693807,-9.010393,-14.05053,-18.16941
21.579810142,4.310431,-2.103112,3.422902,0.2381607,-0.1114475,0.9692956,-9.381411,-14.42699,-18.61602
21.589720726,5.487255,-1.054576,2.809273,0.2331643,-0.1061984,0.9650554,-9.381411,-14.42699,-18.61602
21.599631309,6.35438700000001,-0.00604071099999999,1.827467,0.2209298,-0.1019667,0.969038,-9.381411,-14.42699,-18.61602
21.609541893,5.73500699999998,0.925990700000003,1.091112,0.2135372,-0.0962352,0.9701049,-9.381411,-14.42699,-18.61602
21.619452476,4.310431,1.042495,0.4774826,0.2155086,-0.09425136,0.973941,-9.381411,-14.42699,-18.61602
21.629362583,2.328414,0.692982899999999,-0.01342061,0.2256421,-0.08590019,0.9705419,-9.38626,-14.05239,-18.61717
21.639273167,0.0986440800000001,0.459975,-0.01342061,0.2341148,-0.08863947,0.9829294,-9.38626,-14.05239,-18.61717
21.64918375,-1.140117,0.7512348,0.2933939,0.2486005,-0.1151321,0.9816585,-9.38626,-14.05239,-18.61717
21.659094334,0.4702724,2.09103,0.5388455,0.2523601,-0.1441822,0.9804699,-9.38626,-14.05239,-18.61717
21.66900444,3.071671,3.896841,0.600208399999998,0.2470912,-0.155412,0.9780432,-9.38626,-14.05239,-18.61717
21.678915024,3.814927,5.178384,0.722934200000001,0.220157,-0.1596727,0.9691409,-9.004166,-14.42356,-17.78279
21.688825607,2.76198,5.06188,1.029749,0.207284,-0.1540615,0.9601743,-9.004166,-14.42356,-17.78279
21.698736191,1.027715,4.188101,1.029749,0.2007708,-0.1508081,0.9487323,-9.004166,-14.42356,-17.78279
21.708646297,-0.2729842,3.430825,0.907022999999998,0.2023002,-0.1556352,0.9491662,-9.004166,-14.42356,-17.78279
21.718556881,-0.644612499999997,2.790053,0.9683858,0.2140071,-0.1574541,0.9442443,-9.004166,-14.42356,-17.78279
21.728467464,0.03670603,2.731802,0.9683858,0.215642,-0.1636898,0.9533106,-9.374954,-14.79975,-18.16515
21.738378048,1.523219,2.848305,1.2752,0.2187381,-0.1669832,0.9652641,-9.374954,-14.79975,-18.16515
21.748288155,2.76198,3.023061,1.459289,0.2007053,-0.165228,0.973125,-9.374954,-14.79975,-18.16515
21.758198738,2.514228,2.498794,1.888829,0.1982236,-0.1662534,0.9683395,-9.374954,-14.79975,-18.16515
21.768109322,1.894848,1.50851,2.379733,0.210931,-0.1724386,0.9604983,-9.374954,-14.79975,-18.16515
21.778019905,1.770972,0.9842427,3.361539,0.2176661,-0.1797274,0.9411811,-9.384652,-14.05056,-18.16746
21.787930012,3.257485,0.809486700000001,4.036531,0.2172489,-0.1894523,0.9367987,-9.384652,-14.05056,-18.16746
21.800318718,5.92082099999999,0.634730900000001,4.527435,0.2045468,-0.1808253,0.9480173,-9.384652,-14.05056,-18.16746
21.810228348,5.858883,-0.0642926699999998,5.386516,0.1929205,-0.177501,0.9625518,-9.384652,-14.05056,-18.16746
21.820139408,4.558184,-0.763316199999998,6.24559600000001,0.1956702,-0.1682917,0.9553853,-9.384652,-14.05056,-18.16746
21.830049992,3.876865,-1.7536,6.36832199999998,0.1848457,-0.157242,0.961801,-9.012002,-14.05236,-18.61912
21.839960575,2.947794,-2.277867,6.06150700000001,0.1847954,-0.1538535,0.9608638,-9.012002,-14.05236,-18.61912
21.849870205,2.266476,-3.093395,5.69333,0.187766,-0.1581879,0.9593669,-9.012002,-14.05236,-18.61912
21.859781265,2.45229,-3.908922,5.141064,0.1954686,-0.162543,0.9424611,-9.012002,-14.05236,-18.61912
21.869691849,3.876865,-4.200181,4.343346,0.2080749,-0.1590247,0.936126,-9.012002,-14.05236,-18.61912
21.879602432,4.929812,-4.200181,3.484265,0.2161883,-0.1395119,0.939542,-9.000695,-14.79972,-18.1671
21.889513016,5.549192,-3.85067,2.625184,0.2155587,-0.1269083,0.9405922,-9.000695,-14.79972,-18.1671
21.899423122,5.053688,-3.442907,1.827467,0.2099367,-0.1031999,0.9446434,-9.000695,-14.79972,-18.1671
21.909333706,4.124618,-3.035143,0.907022999999998,0.2122086,-0.08130795,0.953411,-9.000695,-14.79972,-18.1671
21.919244289,3.257485,-2.860387,0.232031,0.2082255,-0.06334531,0.9674921,-9.000695,-14.79972,-18.1671
21.929154873,2.204538,-3.035143,-0.5043238,0.2165335,-0.0564142,0.9751439,-9.000695,-14.79972,-18.1671
21.93906498,1.337405,-2.685631,-1.179316,0.2136453,-0.06228089,0.9727308,-9.000695,-14.79972,-18.1671
21.948975563,0.594148499999998,-2.860387,-1.915671,0.218168,-0.07582083,0.9687575,-9.000695,-14.79972,-18.1671
21.958886147,-0.1491081,-2.860387,-2.345211,0.221245,-0.08741687,0.969132,-9.000695,-14.79972,-18.1671
21.96879673,-0.1491081,-2.569127,-2.406574,0.2286083,-0.09316368,0.9651844,-9.000695,-14.79972,-18.1671
21.978706837,-0.0871700800000001,-2.336119,-2.95884,0.2320499,-0.09311098,0.9670734,-9.747833,-14.79821,-17.77774
21.98861742,-0.4587984,-1.7536,-3.020203,0.2404808,-0.09440862,0.9770702,-9.747833,-14.79821,-17.77774
21.998528004,-1.202055,-1.054576,-3.020203,0.2420903,-0.1055355,0.9779415,-9.747833,-14.79821,-17.77774
22.008438587,-1.697559,-0.2390486,-2.95884,0.2416081,-0.1065137,0.9774593,-9.747833,-14.79821,-17.77774
22.018348694,-2.378878,0.05221125,-2.774751,0.2324644,-0.1187489,0.9774623,-9.747833,-14.79821,-17.77774
22.028259277,-3.246011,0.2852191,-2.590663,0.2208412,-0.130545,0.9746102,-9.742984,-15.17281,-17.77659
22.038169861,-4.23702,0.518227,-2.161122,0.2165292,-0.1437247,0.9678402,-9.742984,-15.17281,-17.77659
22.048080444,-4.298957,0.4017231,-1.854308,0.2118209,-0.1539355,0.9735775,-9.742984,-15.17281,-17.77659
22.057991028,-3.989267,0.2852191,-1.608856,0.2083896,-0.1622756,0.9629902,-9.742984,-15.17281,-17.77659
22.07037878,-3.555701,0.7512348,-1.302042,0.2172337,-0.1704358,0.9575723,-9.742984,-15.17281,-17.77659
22.080289841,-3.369887,0.809486700000001,-1.117953,0.2166767,-0.1680383,0.9537522,-9.742984,-15.17281,-17.77659
22.090199471,-3.060196,0.9842427,-1.302042,0.2136888,-0.1676154,0.948981,-9.742984,-15.17281,-17.77659
22.100110054,-2.750506,0.925990700000003,-1.179316,0.2082721,-0.1730684,0.9389116,-9.742984,-15.17281,-17.77659
22.110020638,-1.759497,0.518227,-1.302042,0.200989,-0.1736214,0.9432967,-9.742984,-15.17281,-17.77659
22.119931698,-1.140117,-0.1807966,-0.933864199999998,0.1999988,-0.1721766,0.9437956,-8.629908,-14.42353,-17.78473
22.129841328,-1.016241,-0.7050642,-1.05659,0.2043692,-0.1614055,0.9534301,-8.629908,-14.42353,-17.78473
22.139751911,-1.016241,-1.46234,-0.9952272,0.2052374,-0.1551089,0.9501029,-8.629908,-14.42353,-17.78473
22.149662495,-0.830426599999998,-1.578844,-1.117953,0.2086937,-0.1550486,0.9534324,-8.629908,-14.42353,-17.78473
22.159573555,-0.2729842,-1.637096,-1.240679,0.2154011,-0.1472298,0.949101,-8.629908,-14.42353,-17.78473
22.169483185,0.1605821,-1.637096,-1.179316,0.2197911,-0.1471802,0.9481005,-10.12694,-14.42365,-17.77695
22.179393768,0.718024600000001,-1.695348,-1.240679,0.2134305,-0.1443351,0.9510592,-10.12694,-14.42365,-17.77695
22.189304352,1.027715,-1.7536,-1.179316,0.2203698,-0.148103,0.9557715,-10.12694,-14.42365,-17.77695
22.199215412,1.151591,-1.7536,-0.811138499999999,0.2280964,-0.1387871,0.9572026,-10.12694,-14.42365,-17.77695
22.209125996,0.779962700000001,-1.928355,-0.627049700000001,0.2266369,-0.1373382,0.9596266,-10.12694,-14.42365,-17.77695
22.219035626,0.4083343,-1.578844,-0.5656868,0.2243088,-0.1446252,0.9624805,-9.383273,-14.04899,-17.78199
22.228946209,0.4083343,-1.637096,-0.5656868,0.2272531,-0.1479976,0.9595498,-9.383273,-14.04899,-17.78199
22.238857269,0.5322105,-1.695348,-0.3202352,0.2281467,-0.1421756,0.9581399,-9.383273,-14.04899,-17.78199
22.248767853,0.965776800000002,-1.870103,-0.3815981,0.2306556,-0.1479653,0.9575979,-9.383273,-14.04899,-17.78199
22.258677483,1.213529,-1.46234,-0.3815981,0.2340304,-0.1381912,0.964354,-9.383273,-14.04899,-17.78199
22.268588066,0.718024600000001,-0.996324099999998,-0.2588722,0.2359712,-0.1381746,0.9628957,-9.373575,-14.79819,-17.77969
22.278499126,-0.02523202,-0.763316199999998,-0.1975093,0.2329672,-0.1343454,0.9605482,-9.373575,-14.79819,-17.77969
22.28840971,-0.02523202,-0.588560300000001,-0.01342061,0.2256569,-0.1388149,0.9577051,-9.373575,-14.79819,-17.77969
22.29831934,0.5322105,-0.4720564,0.1093052,0.2163057,-0.1340849,0.957343,-9.373575,-14.79819,-17.77969
22.308229923,0.718024600000001,-0.4138044,-0.01342061,0.2192042,-0.1311397,0.9573358,-9.373575,-14.79819,-17.77969
22.318140984,0.841900699999999,-0.588560300000001,-0.3815981,0.2196138,-0.1253212,0.9564105,-9.368726,-15.17278,-17.77853
22.328051567,0.1605821,-0.763316199999998,-0.3815981,0.2226721,-0.132049,0.9606587,-9.368726,-15.17278,-17.77853
22.337962151,-0.2110462,-0.821568099999998,-0.3815981,0.2153449,-0.1326249,0.9607227,-9.368726,-15.17278,-17.77853
22.34787178,-0.2729842,-1.112828,-0.5043238,0.2201374,-0.1282239,0.9563863,-9.368726,-15.17278,-17.77853
22.360260487,-0.2729842,-0.879820100000002,-0.627049700000001,0.2191913,-0.1267562,0.9612064,-9.368726,-15.17278,-17.77853
22.370170593,-0.644612499999997,-0.821568099999998,-0.749775499999997,0.2207011,-0.1315936,0.9597197,-9.752682,-14.42362,-17.77889
22.380081177,-0.644612499999997,-0.588560300000001,-0.811138499999999,0.2240906,-0.1325436,0.9553606,-9.752682,-14.42362,-17.77889
22.38999176,-0.2110462,-0.5303084,-0.749775499999997,0.229022,-0.1397777,0.9509454,-9.752682,-14.42362,-17.77889
22.399902344,0.3463963,-0.763316199999998,-0.933864199999998,0.2261641,-0.1461164,0.9509296,-9.752682,-14.42362,-17.77889
22.409812451,0.3463963,-0.7050642,-0.811138499999999,0.226291,-0.1484894,0.9605157,-9.752682,-14.42362,-17.77889
22.419723034,-0.2110462,-0.7050642,-0.872501400000003,0.2307041,-0.1450132,0.9657798,-9.757531,-14.04902,-17.78005
22.429633618,-0.7684886,-0.646812299999999,-0.5043238,0.2267735,-0.1397061,0.970173,-9.757531,-14.04902,-17.78005
22.439544201,-1.140117,-0.646812299999999,-0.5043238,0.2280807,-0.1275757,0.9688013,-9.757531,-14.04902,-17.78005
22.449454784,-1.078179,-0.4138044,-0.2588722,0.2251858,-0.1324703,0.9668747,-9.757531,-14.04902,-17.78005
22.459364891,-1.016241,-0.588560300000001,-0.3202352,0.2207607,-0.1374162,0.9587201,-9.757531,-14.04902,-17.78005
22.469275475,-0.582674399999997,-0.5303084,-0.2588722,0.2227206,-0.1398286,0.9562851,-10.12533,-14.42182,-17.32724
22.479186058,-0.892364699999998,-0.588560300000001,-0.627049700000001,0.2260964,-0.1412736,0.9500021,-10.12533,-14.42182,-17.32724
22.489096642,-0.830426599999998,-0.3555525,-0.627049700000001,0.2300621,-0.1416843,0.9547644,-10.12533,-14.42182,-17.32724
22.499006748,-0.582674399999997,-0.3555525,-0.5656868,0.2346332,-0.1469063,0.9652508,-10.12533,-14.42182,-17.32724
22.508917332,-0.5207364,-0.0642926699999998,-0.3202352,0.2331533,-0.1449803,0.9662376,-10.12533,-14.42182,-17.32724
22.518827915,-0.5207364,0.1104632,-0.2588722,0.2263898,-0.1489258,0.969635,-9.005545,-14.42513,-18.16825
22.528738499,-0.5207364,0.1687152,-0.1361464,0.2254125,-0.1518646,0.9662634,-9.005545,-14.42513,-18.16825
22.538648605,-0.954302799999998,-0.2390486,-0.07478352,0.2223182,-0.14418,0.9596209,-9.005545,-14.42513,-18.16825
22.548559189,-1.078179,-0.3555525,-0.1361464,0.2212884,-0.1451948,0.9533817,-9.005545,-14.42513,-18.16825
22.558469772,-1.016241,-0.4138044,-0.07478352,0.2251209,-0.145187,0.9456637,-9.005545,-14.42513,-18.16825
22.568380356,-1.078179,-0.2390486,-0.01342061,0.2276356,-0.1460956,0.9513962,-9.005545,-14.42513,-18.16825
22.578291416,-0.582674399999997,-0.0642926699999998,0.04794229,0.2306493,-0.1445539,0.9609818,-9.005545,-14.42513,-18.16825
22.588201046,-0.0871700800000001,-0.00604071099999999,0.2933939,0.2277001,-0.141184,0.9634324,-9.005545,-14.42513,-18.16825
22.598111629,0.2844582,0.05221125,0.2933939,0.2228778,-0.1426737,0.9682686,-9.005545,-14.42513,-18.16825
22.608022213,0.2844582,-0.0642926699999998,0.3547568,0.2184491,-0.1456702,0.9620475,-9.005545,-14.42513,-18.16825
22.617933273,-0.2110462,-0.2973005,0.4774826,0.216499,-0.1486185,0.959165,-9.379803,-14.42516,-18.16631
22.630321026,-0.582674399999997,-0.3555525,0.2933939,0.2253168,-0.1504509,0.9585911,-9.379803,-14.42516,-18.16631
22.640231609,-0.5207364,-0.2390486,0.1706681,0.2257856,-0.1528943,0.9537688,-9.379803,-14.42516,-18.16631
22.650141716,-0.3349223,-0.1225446,0.232031,0.2242723,-0.1514734,0.9509114,-9.379803,-14.42516,-18.16631
22.660052299,0.1605821,0.1104632,0.3547568,0.2253034,-0.1485067,0.9595645,-9.379803,-14.42516,-18.16631
22.669962883,0.4702724,0.1104632,0.2933939,0.2262869,-0.1436135,0.96583,-9.373575,-14.79819,-17.77969
22.679873466,0.2844582,-0.00604071099999999,0.232031,0.2198662,-0.137385,0.9668912,-9.373575,-14.79819,-17.77969
22.68978405,0.2225202,-0.1807966,0.04794229,0.2202893,-0.1442425,0.9524369,-9.373575,-14.79819,-17.77969
22.699694157,-0.2110462,-0.646812299999999,0.232031,0.2218538,-0.1441733,0.962026,-9.373575,-14.79819,-17.77969
22.70960474,-0.582674399999997,-0.646812299999999,0.232031,0.2256102,-0.1373758,0.9548342,-9.373575,-14.79819,-17.77969
22.719515324,-0.3349223,-0.7050642,0.2933939,0.2261196,-0.1432128,0.949989,-9.381665,-14.04716,-17.33228
22.729425907,0.0986440800000001,-0.2973005,-0.01342061,0.2289851,-0.1383335,0.9490347,-9.381665,-14.04716,-17.33228
22.739336014,0.656086599999998,0.05221125,-0.07478352,0.2300073,-0.141225,0.9499663,-9.381665,-14.04716,-17.33228
22.749246597,0.903838799999999,0.05221125,-0.3202352,0.2255269,-0.1320533,0.9529498,-9.381665,-14.04716,-17.33228
22.759157181,0.4083343,-0.1225446,-0.3815981,0.218332,-0.1325604,0.9659773,-9.381665,-14.04716,-17.33228
22.769067764,-0.3349223,-0.646812299999999,-0.3815981,0.2232522,-0.1310198,0.9707435,-10.11563,-15.17101,-17.32493
22.778977871,-0.892364699999998,-0.588560300000001,-0.442961,0.2232251,-0.1403022,0.9572376,-10.11563,-15.17101,-17.32493
22.788888454,-0.644612499999997,-0.7050642,-0.442961,0.2242718,-0.143181,0.9605698,-10.11563,-15.17101,-17.32493
22.798799038,-0.1491081,-0.4720564,-0.442961,0.2306547,-0.1474779,0.9580814,-10.11563,-15.17101,-17.32493
22.808709621,0.2844582,-0.2390486,-0.442961,0.229555,-0.1451145,0.9489843,-10.11563,-15.17101,-17.32493
22.818620205,0.1605821,-0.2390486,-0.3202352,0.2310287,-0.1436292,0.9513813,-9.383273,-14.04899,-17.78199
22.828530312,0.2225202,-0.0642926699999998,-0.442961,0.2277046,-0.1436207,0.9610153,-9.383273,-14.04899,-17.78199
22.838440895,0.2225202,0.1104632,-0.3202352,0.2316106,-0.1435747,0.9604993,-9.383273,-14.04899,-17.78199
22.848351479,0.3463963,0.05221125,-0.442961,0.2252981,-0.1402168,0.9687428,-9.383273,-14.04899,-17.78199
22.858262062,-0.02523202,0.1104632,-0.442961,0.2237816,-0.1344073,0.9707161,-9.383273,-14.04899,-17.78199
22.868172646,-0.5207364,-0.1225446,-0.3815981,0.2242006,-0.1363888,0.961576,-9.742984,-15.17281,-17.77659
22.878082752,-0.830426599999998,-0.4138044,-0.3202352,0.2227055,-0.1422755,0.9519475,-9.742984,-15.17281,-17.77659
22.887993336,-0.644612499999997,-0.2390486,0.04794229,0.2324997,-0.1406818,0.9552286,-9.742984,-15.17281,-17.77659
22.900381565,-0.02523202,-0.1225446,0.1706681,0.2360495,-0.1434997,0.9643,-9.742984,-15.17281,-17.77659
22.910292149,0.4702724,0.1687152,0.1093052,0.2301257,-0.147017,0.9547282,-9.742984,-15.17281,-17.77659
22.920202732,0.4702724,0.4017231,-0.07478352,0.2193761,-0.1447088,0.9582041,-8.99286,-15.17092,-17.33077
22.930113316,-0.2729842,0.2852191,-0.3202352,0.2139994,-0.1398971,0.9640478,-8.99286,-15.17092,-17.33077
22.940023422,-1.078179,-0.1807966,-0.5656868,0.2129736,-0.1404221,0.9587721,-8.99286,-15.17092,-17.33077
22.949934006,-0.830426599999998,-0.588560300000001,-0.3815981,0.2145066,-0.1471986,0.9572723,-8.99286,-15.17092,-17.33077
22.959844589,-0.1491081,-0.588560300000001,-0.3202352,0.2174086,-0.1515687,0.9490536,-8.99286,-15.17092,-17.33077
22.969755173,0.3463963,-0.3555525,-0.3815981,0.227201,-0.1490003,0.9533016,-9.383273,-14.04899,-17.78199
22.979665756,0.718024600000001,-0.2973005,-0.1975093,0.2295973,-0.1441169,0.9542723,-9.383273,-14.04899,-17.78199
22.989575863,0.5322105,-0.588560300000001,-0.07478352,0.2197354,-0.1355019,0.9563416,-9.383273,-14.04899,-17.78199
22.999486446,0.03670603,-0.7050642,-0.07478352,0.2212674,-0.1364252,0.9616029,-9.383273,-14.04899,-17.78199
23.00939703,-0.582674399999997,-0.996324099999998,0.1093052,0.2178275,-0.1374526,0.958747,-9.383273,-14.04899,-17.78199
23.019307613,-1.016241,-1.229332,0.232031,0.2193209,-0.1413229,0.9567867,-9.368726,-15.17278,-17.77853
23.02921772,-0.892364699999998,-1.054576,0.2933939,0.2212611,-0.1330139,0.9649869,-9.368726,-15.17278,-17.77853
23.039128304,-0.7684886,-1.229332,0.1706681,0.2237166,-0.1363923,0.9620606,-9.368726,-15.17278,-17.77853
23.049038887,-0.5207364,-0.9380721,0.1706681,0.229099,-0.136323,0.9624915,-9.368726,-15.17278,-17.77853
23.058949471,-0.582674399999997,-0.763316199999998,0.1706681,0.2349925,-0.1376994,0.9633881,-9.368726,-15.17278,-17.77853
23.068860054,-0.5207364,-0.646812299999999,-0.1975093,0.2373683,-0.1377047,0.9566439,-10.12533,-14.42182,-17.32724
23.078770161,-0.644612499999997,-0.3555525,-0.2588722,0.2369578,-0.1430359,0.9580526,-10.12533,-14.42182,-17.32724
23.088680744,-0.4587984,-0.1225446,-0.1361464,0.2369405,-0.1469473,0.9517847,-10.12533,-14.42182,-17.32724
23.098591328,-0.2729842,0.3434711,-0.07478352,0.233201,-0.1522726,0.9623473,-10.12533,-14.42182,-17.32724
23.108501911,-0.02523202,0.1104632,-0.2588722,0.2321912,-0.150838,0.9609258,-10.12533,-14.42182,-17.32724
23.118412018,-0.02523202,0.2852191,-0.2588722,0.2291649,-0.1401911,0.9643857,-9.378424,-14.42359,-17.78084
23.128322601,-0.02523202,-0.00604071099999999,-0.2588722,0.229172,-0.138724,0.9667962,-9.378424,-14.42359,-17.78084
23.138233185,-0.1491081,0.2269671,-0.2588722,0.2319926,-0.1387462,0.9557264,-9.378424,-14.42359,-17.78084
23.148143768,-0.3968603,0.2269671,-0.1975093,0.230518,-0.1397442,0.9538127,-9.378424,-14.42359,-17.78084
23.158054352,-0.644612499999997,0.05221125,-0.2588722,0.2290478,-0.1431789,0.949482,-9.378424,-14.42359,-17.78084
23.167964459,-0.5207364,0.2269671,-0.2588722,0.224255,-0.1500191,0.9509213,-9.374954,-14.79975,-18.16515
23.180353165,-0.1491081,0.1104632,-0.1361464,0.2248422,-0.1475228,0.9634166,-9.374954,-14.79975,-18.16515
23.190263271,-0.1491081,0.4017231,-0.1361464,0.2174362,-0.1452128,0.959179,-9.374954,-14.79975,-18.16515
23.200173855,0.1605821,0.2269671,-0.3815981,0.2189175,-0.1505528,0.9543281,-9.374954,-14.79975,-18.16515
23.210084438,0.1605821,0.1104632,-0.627049700000001,0.217503,-0.1549342,0.954312,-9.747833,-14.79821,-17.77774
23.219995022,0.1605821,-0.1225446,-0.5043238,0.2223066,-0.1485762,0.9533497,-9.747833,-14.79821,-17.77774
23.229905605,0.1605821,-0.1807966,-0.3202352,0.2219037,-0.150001,0.9600661,-9.747833,-14.79821,-17.77774
23.239815712,0.1605821,-0.2390486,-0.1975093,0.2282517,-0.1460233,0.9638752,-9.747833,-14.79821,-17.77774
23.249726296,-0.02523202,-0.2390486,-0.01342061,0.228766,-0.1464919,0.9657879,-9.747833,-14.79821,-17.77774
23.259636879,-0.1491081,-0.1807966,0.1093052,0.2247683,-0.1446344,0.9595952,-9.752682,-14.42362,-17.77889
23.269547463,-0.02523202,-0.5303084,0.04794229,0.2213164,-0.1471314,0.9538485,-9.752682,-14.42362,-17.77889
23.279457569,-0.02523202,-0.5303084,0.1093052,0.2257794,-0.1494829,0.9571528,-9.752682,-14.42362,-17.77889
23.289368153,-0.0871700800000001,-0.4720564,0.04794229,0.2300487,-0.13974,0.9557377,-9.752682,-14.42362,-17.77889
23.299278736,-0.3349223,-0.2390486,0.04794229,0.2343959,-0.1323957,0.9591075,-9.752682,-14.42362,-17.77889
23.30918932,-0.2110462,-0.00604071099999999,0.1093052,0.227213,-0.1421648,0.9624701,-9.751074,-14.42179,-17.32918
23.319099903,0.2844582,0.3434711,-0.07478352,0.2281903,-0.1445919,0.9595639,-9.751074,-14.42179,-17.32918
23.32901001,0.4702724,0.1687152,-0.1975093,0.2262001,-0.1417074,0.9596015,-9.751074,-14.42179,-17.32918
23.338920593,0.2225202,-0.1807966,-0.3202352,0.2266338,-0.1383154,0.9581796,-9.751074,-14.42179,-17.32918
23.348831177,-0.02523202,-0.00604071099999999,-0.3815981,0.2310505,-0.1421544,0.9552322,-9.751074,-14.42179,-17.32918
23.35874176,-0.2110462,0.05221125,-0.1361464,0.2305215,-0.1363277,0.9581569,-9.746225,-14.79638,-17.32803
23.368651867,-0.3968603,0.1104632,-0.1975093,0.2289908,-0.1334524,0.9553092,-9.746225,-14.79638,-17.32803
23.37856245,-0.4587984,0.1104632,-0.1975093,0.2271485,-0.1417105,0.9567117,-9.746225,-14.79638,-17.32803
23.388473034,-0.1491081,-0.1225446,-0.1975093,0.2198422,-0.1403244,0.96111,-9.746225,-14.79638,-17.32803
23.398383617,-0.02523202,-0.1225446,-0.1975093,0.2232977,-0.1451425,0.9586452,-9.746225,-14.79638,-17.32803
23.408294201,-0.2110462,-0.5303084,-0.07478352,0.2212425,-0.1442431,0.9500272,-9.378424,-14.42359,-17.78084
23.418204308,-0.3968603,-0.588560300000001,-0.1361464,0.2271738,-0.1421852,0.958629,-9.378424,-14.42359,-17.78084
23.428114891,-0.3968603,-0.4138044,-0.2588722,0.2287981,-0.1533045,0.9609407,-9.378424,-14.42359,-17.78084
23.438025475,-0.3968603,-0.0642926699999998,-0.2588722,0.2295363,-0.1402462,0.9528581,-9.378424,-14.42359,-17.78084
23.447936058,-0.02523202,-0.0642926699999998,-0.1361464,0.2321635,-0.1464621,0.9633559,-9.378424,-14.42359,-17.78084
23.460324288,-0.3349223,0.1104632,-0.07478352,0.2261707,-0.1417227,0.9567207,-9.379803,-14.42516,-18.16631
23.470234871,-0.3968603,-0.1225446,-0.3815981,0.2252384,-0.1451259,0.9571868,-9.379803,-14.42516,-18.16631
23.480145455,-0.2729842,-0.3555525,-0.3815981,0.22775,-0.1470117,0.9614724,-9.379803,-14.42516,-18.16631
23.490055561,-0.3349223,-0.4720564,-0.1361464,0.2262487,-0.149487,0.9552277,-9.379803,-14.42516,-18.16631
23.499966145,-0.02523202,-0.2390486,-0.1361464,0.2307019,-0.1518436,0.9575716,-9.379803,-14.42516,-18.16631
23.509876728,0.4083343,-0.00604071099999999,-0.01342061,0.2252612,-0.1495043,0.9542764,-9.002558,-14.42173,-17.33307
23.519787312,0.2844582,-0.1225446,-0.1361464,0.2232661,-0.1412565,0.9601118,-9.002558,-14.42173,-17.33307
23.529697418,-0.4587984,-0.1225446,-0.07478352,0.2261832,-0.1378138,0.9625086,-9.002558,-14.42173,-17.33307
23.539608002,-0.1491081,-0.0642926699999998,-0.1361464,0.2256841,-0.1456301,0.9523778,-9.002558,-14.42173,-17.33307
23.549518585,-0.0871700800000001,-0.1225446,-0.2588722,0.2242362,-0.1451508,0.9547951,-9.002558,-14.42173,-17.33307
23.559429169,0.1605821,0.05221125,-0.1361464,0.223848,-0.1465679,0.9629519,-9.367118,-15.17095,-17.32882
23.569339752,-0.3349223,-0.00604071099999999,-0.07478352,0.2325892,-0.1440499,0.960007,-9.367118,-15.17095,-17.32882
23.579249859,-0.644612499999997,-0.0642926699999998,-0.01342061,0.2316341,-0.1430746,0.9633834,-9.367118,-15.17095,-17.32882
23.589160442,-0.3968603,-0.1225446,0.1706681,0.2287317,-0.1465097,0.9624271,-9.367118,-15.17095,-17.32882
23.599071026,-0.02523202,-0.0642926699999998,0.4774826,0.2271886,-0.1475434,0.9537915,-9.367118,-15.17095,-17.32882
23.608981609,0.2844582,0.2269671,0.3547568,0.2237242,-0.1432176,0.9548128,-9.371967,-14.79636,-17.32998
23.618892193,0.0986440800000001,0.05221125,0.1706681,0.2261743,-0.1436721,0.9547871,-9.371967,-14.79636,-17.32998
23.628802299,-0.0871700800000001,0.1104632,0.2933939,0.226766,-0.1436125,0.9648653,-9.371967,-14.79636,-17.32998
23.638712883,-0.3968603,-0.1225446,0.232031,0.2286026,-0.1456013,0.9509105,-9.371967,-14.79636,-17.32998
23.648623466,-0.5207364,0.05221125,-0.1361464,0.2261845,-0.1358619,0.9649223,-9.371967,-14.79636,-17.32998
23.65853405,-0.582674399999997,-0.00604071099999999,0.232031,0.2311417,-0.1464972,0.9590437,-9.371967,-14.79636,-17.32998
23.668444157,-0.3349223,0.2269671,0.1706681,0.2330589,-0.1416148,0.9609792,-9.371967,-14.79636,-17.32998
23.67835474,-0.3968603,0.05221125,0.1093052,0.2295919,-0.1411929,0.9571728,-9.371967,-14.79636,-17.32998
23.688265324,-0.3968603,-0.0642926699999998,0.3547568,0.2242006,-0.1417546,0.9552982,-9.371967,-14.79636,-17.32998
23.698175907,-0.3349223,0.1104632,0.1093052,0.2217607,-0.1388559,0.9591813,-9.371967,-14.79636,-17.32998
23.708086491,-0.4587984,-0.00604071099999999,0.04794229,0.2218249,-0.1471152,0.9557647,-9.373575,-14.79819,-17.77969
23.717996597,-0.582674399999997,-0.1807966,0.04794229,0.2247665,-0.1436597,0.9605621,-9.373575,-14.79819,-17.77969
23.727907181,-0.644612499999997,-0.1807966,-0.1361464,0.2212692,-0.1427658,0.9543583,-9.373575,-14.79819,-17.77969
23.740294933,-0.3349223,0.05221125,-0.3815981,0.2237175,-0.1422455,0.9552994,-9.373575,-14.79819,-17.77969
23.750205994,-0.5207364,0.05221125,-0.5043238,0.2227781,-0.1471158,0.9533551,-9.373575,-14.79819,-17.77969
23.760116577,-0.892364699999998,-0.2390486,-0.627049700000001,0.2189696,-0.1495501,0.9605764,-9.374954,-14.79975,-18.16515
23.770027161,-0.954302799999998,-0.1807966,-0.688412599999999,0.2237946,-0.1495225,0.9542899,-9.374954,-14.79975,-18.16515
23.779937744,-0.644612499999997,-0.1225446,-0.749775499999997,0.2277348,-0.1494586,0.9571348,-9.374954,-14.79975,-18.16515
23.789847851,-0.3349223,-0.1225446,-0.627049700000001,0.2282242,-0.1470133,0.9600276,-9.374954,-14.79975,-18.16515
23.799758434,-0.3968603,-0.0642926699999998,-0.811138499999999,0.230196,-0.1425902,0.966761,-9.374954,-14.79975,-18.16515
23.809669018,-0.892364699999998,0.05221125,-0.5656868,0.2251649,-0.1344324,0.9625405,-9.376816,-14.42176,-17.33113
23.819579601,-0.954302799999998,-0.0642926699999998,-0.933864199999998,0.2212603,-0.1378924,0.9591924,-9.376816,-14.42176,-17.33113
23.829490185,-1.387869,-0.00604071099999999,-1.179316,0.221706,-0.1383965,0.9543833,-9.376816,-14.42176,-17.33113
23.839400291,-1.759497,-0.4720564,-1.05659,0.2250764,-0.1369175,0.951001,-9.376816,-14.42176,-17.33113
23.849310875,-1.821435,-0.588560300000001,-1.179316,0.2285932,-0.1378013,0.9591252,-9.376816,-14.42176,-17.33113
23.859221458,-2.00725,-0.2973005,-1.117953,0.2295402,-0.1343905,0.9600995,-8.994468,-15.17275,-17.78048
23.869132042,-2.255002,-0.2390486,-1.363405,0.228603,-0.1324303,0.9663633,-8.994468,-15.17275,-17.78048
23.879042149,-2.502754,0.05221125,-1.48613,0.2279779,-0.1276292,0.9587185,-8.994468,-15.17275,-17.78048
23.888952732,-2.874382,-0.1807966,-1.302042,0.2295198,-0.1339133,0.9586624,-8.994468,-15.17275,-17.78048
23.898863316,-3.369887,-0.2390486,-1.547493,0.2245915,-0.1310678,0.9582468,-8.994468,-15.17275,-17.78048
23.908773899,-3.741515,-0.5303084,-1.424767,0.2236952,-0.1354278,0.961107,-9.373575,-14.79819,-17.77969
23.918684483,-4.670586,-0.5303084,-1.48613,0.2202821,-0.1349779,0.9625821,-9.373575,-14.79819,-17.77969
23.928594589,-5.661595,-0.5303084,-1.670219,0.2179143,-0.1393587,0.9649755,-9.373575,-14.79819,-17.77969
23.938505173,-5.84740899999999,-0.646812299999999,-1.915671,0.2261992,-0.1412201,0.9600849,-9.373575,-14.79819,-17.77969
23.948415756,-5.661595,-0.821568099999998,-1.731582,0.2271302,-0.1451347,0.9509272,-9.373575,-14.79819,-17.77969
23.95832634,-4.732524,-0.9380721,-1.547493,0.2327148,-0.1644724,0.9483458,-8.62021,-15.17272,-17.78242
23.968236923,-2.812444,-0.646812299999999,-1.05659,0.228511,-0.1805226,0.948758,-8.62021,-15.17272,-17.78242
23.97814703,-1.821435,-0.3555525,-1.05659,0.2301161,-0.1892128,0.9520465,-8.62021,-15.17272,-17.78242
23.988057613,-2.131126,0.1104632,-1.117953,0.2271535,-0.1838987,0.9554703,-8.62021,-15.17272,-17.78242
23.997968197,-2.502754,0.2269671,-1.363405,0.2222132,-0.177157,0.9584419,-8.62021,-15.17272,-17.78242
24.00787878,-2.564692,0.05221125,-1.240679,0.2186268,-0.1704558,0.950357,-9.002558,-14.42173,-17.33307
24.02026701,-1.573683,-0.2390486,-1.608856,0.2112102,-0.1676636,0.9456426,-9.002558,-14.42173,-17.33307
24.030177593,-0.830426599999998,-0.821568099999998,-1.792945,0.2126118,-0.1696304,0.9369736,-9.002558,-14.42173,-17.33307
24.040088177,-0.0871700800000001,-1.17108,-1.915671,0.2140076,-0.1603808,0.9408637,-9.002558,-14.42173,-17.33307
24.049998283,1.337405,-2.452623,-1.731582,0.2123299,-0.1522161,0.9298899,-9.002558,-14.42173,-17.33307
24.059908867,5.673069,-4.724449,-0.811138499999999,0.2263632,-0.1404075,0.9293586,-9.757531,-14.04902,-17.78005
24.06981945,10.38036,-4.782701,-0.07478352,0.2350769,-0.1496112,0.9100105,-9.757531,-14.04902,-17.78005
24.079730034,14.96378,-4.840953,0.04794229,0.2287915,-0.1530684,0.9129264,-9.757531,-14.04902,-17.78005
24.089640617,17.62711,-3.442907,0.04794229,0.2445524,-0.1559882,0.8729081,-9.757531,-14.04902,-17.78005
24.099550724,20.60014,-2.394371,-1.731582,0.2270615,-0.13835,0.8568619,-9.757531,-14.04902,-17.78005
24.109461308,19.48525,-0.996324099999998,-5.96562199999999,0.2319009,-0.1161154,0.925628,-8.98801,-15.54552,-17.32961
24.119371891,16.32641,0.925990700000003,-10.75193,0.2290732,-0.1329218,0.9639549,-8.98801,-15.54552,-17.32961
24.129282475,15.39734,0.3434711,-14.61779,0.2276911,-0.1202131,0.9870998,-8.98801,-15.54552,-17.32961
24.139193058,17.31742,-0.2973005,-17.50185,0.2250494,-0.06400906,0.9860582,-8.98801,-15.54552,-17.32961
24.149103165,19.05169,-2.103112,-19.52682,0.2142822,0.01340323,0.9804316,-8.98801,-15.54552,-17.32961
24.159013748,15.45928,-1.928355,-21.36771,0.2375713,0.07189122,0.9834867,-8.625313,-14.4183,-16.49984
24.168924332,6.66407800000002,-0.821568099999998,-23.14724,0.2500818,0.08755484,0.9820348,-8.625313,-14.4183,-16.49984
24.178834915,-2.378878,0.4017231,-24.37449,0.2528383,0.07969446,0.9555483,-8.625313,-14.4183,-16.49984
24.188745499,-6.962294,0.576479000000001,-25.29494,0.257003,0.03817217,0.9792412,-8.625313,-14.4183,-16.49984
24.198655605,-9.93532100000003,0.634730900000001,-26.46083,0.2476301,-0.01612477,1.002974,-8.625313,-14.4183,-16.49984
24.208566189,-12.35091,-0.1225446,-26.89037,0.2378248,-0.05113444,1.007153,-8.989873,-15.16752,-16.49559
24.218476772,-13.77548,0.518227,-26.58356,0.2356507,-0.06760956,1.014266,-8.989873,-15.16752,-16.49559
24.228387356,-13.77548,1.858022,-26.09266,0.2320395,-0.07409195,0.9883273,-8.989873,-15.16752,-16.49559
24.238297939,-10.92633,2.731802,-26.09266,0.2464143,-0.09088615,0.9876022,-8.989873,-15.16752,-16.49559
24.248208046,-7.08617000000002,2.731802,-25.78584,0.2707084,-0.1128508,0.9944335,-8.989873,-15.16752,-16.49559
24.25811863,-6.71454100000002,2.324038,-24.8654,0.2985652,-0.1473827,1.000188,-7.49631,-14.79124,-16.11906
24.268029213,-6.52872799999998,2.906557,-24.25177,0.3171856,-0.1756615,1.018553,-7.49631,-14.79124,-16.11906
24.277939797,-6.590665,4.887125,-22.22679,0.3382059,-0.174913,1.018844,-7.49631,-14.79124,-16.11906
24.290328026,-10.74052,8.32398899999998,-19.03592,0.3299304,-0.1808516,1.01552,-7.49631,-14.79124,-16.11906
24.300238609,-8.01524199999998,9.78028900000002,-17.31776,0.29973,-0.2321425,1.014498,-7.126901,-14.41661,-16.12216
24.310148716,-2.688568,10.65407,-15.29278,0.2747247,-0.2539538,0.9824128,-7.126901,-14.41661,-16.12216
24.3200593,-0.3349223,10.71232,-12.77691,0.2641825,-0.2478835,0.9628643,-7.126901,-14.41661,-16.12216
24.329969883,0.4702724,10.0133,-10.56784,0.2405493,-0.2448477,0.9506189,-7.126901,-14.41661,-16.12216
24.339880467,4.000741,8.55699699999999,-8.54286499999998,0.2381085,-0.2153684,0.9378737,-7.126901,-14.41661,-16.12216
24.34979105,6.602139,6.86769100000001,-6.21107399999998,0.2227623,-0.2127294,0.9226681,-6.377901,-14.79611,-17.34554
24.359701634,6.602139,7.624966,-3.081566,0.2449561,-0.206501,0.9484329,-6.377901,-14.79611,-17.34554
24.36961174,9.265474,11.29484,-0.07478352,0.2431149,-0.2381644,1.017862,-6.377901,-14.79611,-17.34554
24.379522324,13.47726,10.1298,0.5388455,0.2132919,-0.249995,1.05215,-6.377901,-14.79611,-17.34554
24.389432907,7.09764399999998,9.43077699999998,-0.1975093,0.212938,-0.1838465,0.9997766,-6.377901,-14.79611,-17.34554
24.399343491,-6.77647999999998,11.64435,-0.01342061,0.1962304,-0.1489847,0.9372627,-6.389207,-14.04875,-17.79756
24.409253597,-15.50975,11.93561,0.722934200000001,0.1570279,-0.1680557,0.9067681,-6.389207,-14.04875,-17.79756
24.419164181,-14.58068,9.89679200000002,-0.1975093,0.1751123,-0.1712475,0.9022582,-6.389207,-14.04875,-17.79756
24.429074764,-13.71354,13.68317,-0.1361464,0.26291,-0.1892729,0.9551038,-6.389207,-14.04875,-17.79756
24.438985348,-21.64161,19.68312,2.011555,0.2744748,-0.2272545,0.9893152,-6.389207,-14.04875,-17.79756
24.448895931,-30.06519,22.36271,3.116088,0.2518238,-0.2266433,0.9746439,-6.759995,-14.42495,-18.17993
24.458806515,-26.16309,21.31418,3.361539,0.2437393,-0.2224869,0.9540996,-6.759995,-14.42495,-18.17993
24.468716622,-12.16509,19.56662,3.975169,0.2492359,-0.1965044,0.9959955,-6.759995,-14.42495,-18.17993
24.478627205,-7.457798,20.78991,5.93878200000001,0.2638816,-0.1819381,1.058378,-6.759995,-14.42495,-18.17993
24.488537789,-15.50975,22.53747,7.841032,0.2411294,-0.1401643,1.034378,-6.759995,-14.42495,-18.17993
24.498448372,-20.34091,21.78019,8.76147600000002,0.2157002,-0.1239078,0.9578965,-6.40003,-13.68096,-19.46908
24.508358479,-13.96129,22.30446,9.55919299999998,0.2154175,-0.1481968,0.9495746,-6.40003,-13.68096,-19.46908
24.518269062,-4.23702,25.91608,11.76826,0.2174064,-0.1476674,0.953401,-6.40003,-13.68096,-19.46908
24.528179646,0.0986440800000001,29.17819,12.87279,0.2418737,-0.08832671,1.024633,-6.40003,-13.68096,-19.46908
24.538090229,-0.582674399999997,33.54709,14.28414,0.2211115,-0.090156,1.095877,-6.40003,-13.68096,-19.46908
24.548000813,-7.89136499999998,34.07136,14.3455,0.1857173,-0.03240691,1.097549,-6.782124,-13.30979,-20.30347
24.557910919,-12.16509,32.03254,12.75006,0.1892823,-0.02278222,1.075013,-6.782124,-13.30979,-20.30347
24.570299625,-20.27897,27.72189,16.4932,0.2154957,0.01915224,1.057764,-6.782124,-13.30979,-20.30347
24.580210209,-31.42782,30.40149,20.48179,0.2039149,0.03299247,1.136709,-6.782124,-13.30979,-20.30347
24.590120315,-32.10914,39.08103,20.60452,0.2025449,-0.01574719,1.184413,-6.782124,-13.30979,-20.30347
24.600030899,-37.93132,41.70237,20.7886,0.1217397,0.02974872,1.08271,-5.726091,-13.31467,-21.52963
24.609941482,-50.56668,33.60534,19.00908,0.02903264,0.0657426,0.9536839,-5.726091,-13.31467,-21.52963
24.619852066,-57.56568,28.01315,18.70227,0.04285582,0.04305602,0.9399605,-5.726091,-13.31467,-21.52963
24.629762649,-60.7245200000002,30.51799,19.86816,0.09260135,-0.001982818,1.017466,-5.726091,-13.31467,-21.52963
24.639672756,-60.6625799999999,35.17815,19.13181,0.1542673,-0.09848562,1.052745,-5.726091,-13.31467,-21.52963
24.64958334,-62.7065399999997,34.30437,19.19317,0.1693786,-0.1488034,1.036905,-6.050404,-12.94873,-23.64923
24.659493923,-69.08617,32.73156,17.29092,0.1745108,-0.2495917,0.9425552,-6.050404,-12.94873,-23.64923
24.669404507,-75.5896600000002,27.66364,16.18639,0.09460054,-0.3368009,0.7727373,-6.050404,-12.94873,-23.64923
24.67931509,-72.3688799999998,21.25593,13.8546,0.005354844,-0.4058529,0.6674678,-6.050404,-12.94873,-23.64923
24.689225197,-50.69056,20.26564,10.17282,-0.04348357,-0.3898498,0.692034,-6.050404,-12.94873,-23.64923
24.69913578,-35.20604,21.43068,6.06150700000001,-0.07661834,-0.303386,0.7092418,-5.76527,-11.45869,-25.7113
24.709046364,-22.94231,20.26564,0.907022999999998,-0.04461095,-0.2687246,0.7715973,-5.76527,-11.45869,-25.7113
24.718956947,-16.87238,16.71227,-3.695195,-0.01669193,-0.2522529,0.7954568,-5.76527,-11.45869,-25.7113
24.728867531,-18.29696,9.54727999999999,-6.149711,-0.01779337,-0.3118328,0.8089946,-5.76527,-11.45869,-25.7113
24.738777637,-19.72153,1.974526,-8.17468700000002,-0.05655178,-0.3572626,0.7432687,-5.76527,-11.45869,-25.7113
24.748688221,-16.12913,-4.782701,-9.70875899999999,-0.1092944,-0.3937481,0.6594858,-5.423093,-9.214486,-26.55535
24.758598804,-7.210046,-14.27777,-11.67237,-0.1950579,-0.3417593,0.6063673,-5.423093,-9.214486,-26.55535
24.768509388,-3.617639,-24.23886,-13.9428,-0.18877,-0.3236666,0.6208345,-5.423093,-9.214486,-26.55535
24.778419971,-0.830426599999998,-31.81161,-15.29278,-0.1729749,-0.3365643,0.6201223,-5.423093,-9.214486,-26.55535
24.788330078,1.585157,-40.08339,-17.56321,-0.1224995,-0.3673341,0.6424981,-5.423093,-9.214486,-26.55535
24.798240662,9.20353699999998,-44.33578,-20.14045,-0.06608177,-0.4040846,0.712795,-5.053684,-8.83986,-26.55845
24.808151245,22.95378,-45.61732,-23.2086,0.00264295,-0.423078,0.8119057,-5.053684,-8.83986,-26.55845
24.818061829,33.79294,-47.01537,-26.15402,0.04083551,-0.4332953,0.9003137,-5.053684,-8.83986,-26.55845
24.827972889,38.80993,-49.34545,-28.85399,0.06389211,-0.4385736,0.9490415,-5.053684,-8.83986,-26.55845
24.837882519,39.92481,-50.86,-29.89716,0.1036017,-0.4160724,0.9853161,-5.053684,-8.83986,-26.55845
24.850271225,32.98775,-47.07362,-26.82901,0.1898348,-0.3766148,1.000627,-5.808104,-8.149763,-25.72149
24.860181332,33.17356,-44.04452,-22.96315,0.2168388,-0.3696305,1.067165,-5.808104,-8.149763,-25.72149
24.870091915,34.47426,-41.83095,-19.95637,0.2262499,-0.3140898,1.096258,-5.808104,-8.149763,-25.72149
24.880002499,31.9348,-41.36493,-19.71091,0.2283395,-0.2435122,1.144244,-5.808104,-8.149763,-25.72149
24.889913082,24.99774,-41.94745,-19.64955,0.1674236,-0.2046591,1.209888,-5.808104,-8.149763,-25.72149
24.899823666,21.15758,-41.13192,-18.9132,0.2599826,-0.1965969,1.233094,-5.775706,-9.950111,-23.21037
24.909733772,22.27247,-32.9184,-19.4041,0.3372714,-0.1597718,1.136112,-5.775706,-9.950111,-23.21037
24.919644356,21.52921,-21.1515,-17.68594,0.3604809,-0.1708419,1.00234,-5.775706,-9.950111,-23.21037
24.929554939,25.43131,-17.13212,-11.36556,0.2886031,-0.2017468,0.9187712,-5.775706,-9.950111,-23.21037
24.939465523,31.9348,-15.96708,-4.86109,0.2358657,-0.2404203,0.8805887,-5.775706,-9.950111,-23.21037
24.949376106,38.80993,-16.84086,0.5388455,0.2017913,-0.3453903,0.9157362,-6.436477,-11.44175,-21.53183
24.959286213,45.06567,-21.035,5.26379,0.1566119,-0.4406717,0.9760191,-6.436477,-11.44175,-21.53183
24.969196796,34.84589,-27.44271,4.895612,0.1868673,-0.3605716,1.016126,-6.436477,-11.44175,-21.53183
24.97910738,16.88386,-26.10292,1.766104,0.3007978,-0.3067089,1.031276,-6.436477,-11.44175,-21.53183
24.989017963,2.266476,-18.53016,2.195644,0.322845,-0.3281222,0.9627476,-6.436477,-11.44175,-21.53183
24.998928547,3.071671,-7.46229200000002,7.16603999999997,0.3667704,-0.4700348,0.9791617,-6.804507,-11.81481,-21.14326
25.00883913,29.3334,2.906557,16.30911,0.317339,-0.4092228,0.9507344,-6.804507,-11.81481,-21.14326
25.018749237,53.67506,4.887125,17.41364,0.2542254,-0.1778634,0.9322126,-6.804507,-11.81481,-21.14326
25.028659821,58.6920399999998,6.45992799999999,15.26594,0.2432664,-0.1522495,0.9425678,-6.804507,-11.81481,-21.14326
25.038570404,62.6560699999998,4.362857,18.57954,0.130013,-0.2467354,0.9458668,-6.804507,-11.81481,-21.14326
25.048481464,57.20553,-10.7244,23.05903,0.01937843,-0.2142886,0.9240584,-7.53549,-12.93526,-20.30073
25.058391094,36.08465,-29.65629,23.79539,0.009923478,-0.1201136,0.875317,-7.53549,-12.93526,-20.30073
25.068301678,10.38036,-36.99603,22.26131,0.1086111,0.006428691,0.8243506,-7.53549,-12.93526,-20.30073
25.078212261,-13.77548,-32.80189,18.70227,0.1938427,0.06829189,0.7682761,-7.53549,-12.93526,-20.30073
25.088123322,-21.76549,-24.47186,12.6887,0.2743336,-0.01225011,0.7506698,-7.53549,-12.93526,-20.30073
25.098033905,7.22152000000001,-11.19042,9.37510399999997,0.3538398,-0.1271849,0.8351171,-7.890605,-14.05384,-19.01043
25.107944489,43.64109,-1.46234,10.0501,0.3733402,-0.1408594,0.9563257,-7.890605,-14.05384,-19.01043
25.117854118,67.5491799999998,4.945376,10.78645,0.3935345,-0.1361327,1.071408,-7.890605,-14.05384,-19.01043
25.130242825,71.5132099999998,14.38219,10.66373,0.3767093,-0.06522563,1.134937,-7.890605,-14.05384,-19.01043
25.140152931,60.8598699999999,13.27541,10.541,0.2278498,0.006450615,1.10318,-7.890605,-14.05384,-19.01043
25.150063515,38.99574,1.333754,4.404709,0.1461133,0.1563401,1.032911,-8.631287,-14.4251,-18.1702
25.159974098,16.1406,-3.675915,-1.179316,0.1800578,0.225881,0.9912865,-8.631287,-14.4251,-18.1702
25.169884682,4.68206,-4.433189,-2.897477,0.1705834,0.2149371,0.9605711,-8.631287,-14.4251,-18.1702
25.179795265,0.594148499999998,-7.05452800000003,-2.09976,0.1929298,0.1592936,0.9287835,-8.631287,-14.4251,-18.1702
25.189705372,-5.84740899999999,-9.09334799999998,0.4161197,0.2393601,0.07328337,0.8735233,-8.631287,-14.4251,-18.1702
25.199615955,-13.6516,-11.07391,3.361539,0.2680325,-0.06131206,0.8416313,-9.370588,-14.79479,-16.94451
25.209526539,-11.3599,-10.78265,6.00014400000002,0.3097059,-0.1804764,0.855817,-9.370588,-14.79479,-16.94451
25.219437122,-3.617639,-7.75355199999998,6.92058799999998,0.3568861,-0.2604822,0.928312,-9.370588,-14.79479,-16.94451
25.229347706,0.718024600000001,-4.840953,6.18423299999997,0.2825071,-0.221682,1.016167,-9.370588,-14.79479,-16.94451
25.239257813,0.3463963,-3.559411,3.545628,0.2701623,-0.2174988,1.104658,-9.370588,-14.79479,-16.94451
25.249168396,-5.289966,-3.093395,2.011555,0.2608711,-0.1632297,1.120471,-8.605916,-15.91668,-16.49522
25.25907898,-13.46579,-1.17108,2.870636,0.2575507,-0.1344477,1.068836,-8.605916,-15.91668,-16.49522
25.268989563,-13.27998,-0.4138044,4.834249,0.2524803,-0.150949,0.984265,-8.605916,-15.91668,-16.49522
25.278900623,-3.927329,-1.637096,8.27057199999997,0.2477071,-0.1846082,0.9562358,-8.605916,-15.91668,-16.49522
25.288811207,9.20353699999998,-2.627379,12.32052,0.2245828,-0.1898485,0.9362482,-8.605916,-15.91668,-16.49522
25.298720837,14.28246,-6.64676399999998,13.79323,0.2149265,-0.1550333,0.9413709,-8.988495,-15.16595,-16.11012
25.30863142,9.76097900000002,-6.99627600000001,14.16141,0.2381359,-0.1246312,0.9514421,-8.988495,-15.16595,-16.11012
25.318542481,5.177564,-5.365221,14.65231,0.2543895,-0.1316848,0.954606,-8.988495,-15.16595,-16.11012
25.328453064,2.328414,-4.782701,15.63412,0.2680456,-0.1300681,0.95305,-8.988495,-15.16595,-16.11012
25.338363648,0.4702724,-4.258434,16.55457,0.2833745,-0.1473502,0.9494319,-8.988495,-15.16595,-16.11012
25.348273277,2.390352,-3.85067,17.96591,0.2892699,-0.160433,0.9368062,-8.983645,-15.54055,-16.10896
25.358184338,5.98275899999998,-4.491441,19.13181,0.2656339,-0.1766625,0.9494007,-8.983645,-15.54055,-16.10896
25.368094921,10.87586,-6.00599199999998,20.23634,0.2453406,-0.1763053,0.9735987,-8.983645,-15.54055,-16.10896
25.378005505,15.39734,-5.539977,21.70905,0.2426656,-0.1674269,1.009214,-8.983645,-15.54055,-16.10896
25.387916088,14.46827,-4.025426,23.36585,0.2248647,-0.1665266,1.038674,-8.983645,-15.54055,-16.10896
25.400303841,10.00873,-5.714733,24.40902,0.1944826,-0.1727945,1.024989,-9.732162,-15.54061,-16.10507
25.410214424,7.90283899999999,-7.87005600000001,25.20673,0.186851,-0.173041,0.9957685,-9.732162,-15.54061,-16.10507
25.420125485,8.46028000000001,-10.20013,25.57491,0.1839882,-0.1793823,0.9952725,-9.732162,-15.54061,-16.10507
25.430035114,10.9378,-10.78265,25.82036,0.2101967,-0.1950026,1.00549,-9.732162,-15.54061,-16.10507
25.439945698,12.48625,-9.20985099999998,26.31127,0.2381092,-0.2097538,0.9921689,-9.724325,-15.91181,-15.26874
25.449856281,13.16757,-8.16131600000003,26.98626,0.2740782,-0.2167292,0.9629804,-9.724325,-15.91181,-15.26874
25.459767342,13.91083,-6.99627600000001,27.10898,0.3264651,-0.2114089,0.9279599,-9.724325,-15.91181,-15.26874
25.469677925,15.52122,-4.724449,29.25669,0.3756316,-0.2118798,0.9058949,-9.724325,-15.91181,-15.26874
25.479587555,16.69804,-2.743883,32.32483,0.3807513,-0.2229184,0.9153772,-9.724325,-15.91181,-15.26874
25.489498139,19.60913,-0.588560300000001,34.71798,0.3877699,-0.2585918,0.9381222,-10.48093,-15.16084,-14.81744
25.499409199,24.25448,2.557045,38.8293,0.3610667,-0.300045,0.9558589,-10.48093,-15.16084,-14.81744
25.509319782,28.96178,2.848305,43.61561,0.3104938,-0.3137073,0.9672792,-10.48093,-15.16084,-14.81744
25.519230366,31.50124,0.1104632,48.83146,0.2634962,-0.3206665,0.9537429,-10.48093,-15.16084,-14.81744
25.529139996,31.4393,-3.734166,53.06549,0.2336095,-0.3010712,0.9709553,-10.48093,-15.16084,-14.81744
25.539051056,33.35938,-7.69530000000002,55.27456,0.2146963,-0.2748872,1.01692,-11.58916,-16.28472,-14.80814
25.54896164,38.37636,-9.15159900000003,54.78366,0.2194188,-0.2617422,1.016003,-11.58916,-16.28472,-14.80814
25.558872223,42.89784,-10.6079,55.15183,0.2396912,-0.2326024,0.9766369,-11.58916,-16.28472,-14.80814
25.568782806,42.46427,-13.81176,57.5449899999999,0.2594173,-0.2069132,0.9276496,-11.58916,-16.28472,-14.80814
25.578692913,40.73001,-16.43309,60.61313,0.3075401,-0.1720691,0.8928652,-11.58916,-16.28472,-14.80814
25.588603496,37.07566,-16.14183,62.3312999999999,0.3316984,-0.1606942,0.8778327,-12.71354,-16.28664,-15.25201
25.59851408,39.80093,-13.7535,63.61992,0.3665509,-0.09994905,0.9144071,-12.71354,-16.28664,-15.25201
25.608424663,44.26048,-11.19042,64.0494499999999,0.3357491,-0.02692309,0.9526308,-12.71354,-16.28664,-15.25201
25.618335247,42.71202,-12.93798,63.0676499999999,0.2911447,0.03611723,0.9683483,-12.71354,-16.28664,-15.25201
25.62824583,38.19054,-13.5205,59.6313200000003,0.2903669,0.07815154,0.9417465,-12.71354,-16.28664,-15.25201
25.638155937,34.78395,-14.33602,57.4222600000001,0.2767067,0.1182356,0.9440606,-14.94778,-17.03418,-14.78832
25.648066521,29.70503,-14.21952,51.96096,0.3185624,0.111592,0.9647563,-14.94778,-17.03418,-14.78832
25.657977104,26.73201,-8.510828,46.86784,0.3787922,0.1589717,0.9808402,-14.94778,-17.03418,-14.78832
25.670364857,23.32541,1.50851,39.87247,0.4040488,0.176763,0.9850465,-14.94778,-17.03418,-14.78832
25.680275917,17.06967,4.77062,35.76115,0.3487025,0.1930954,0.9952704,-14.94778,-17.03418,-14.78832
25.6901865,7.53120999999999,2.149282,31.28166,0.3096892,0.2065575,0.9736335,-16.01788,-16.28507,-14.78511
25.700097084,1.461281,-0.1807966,26.18854,0.3058523,0.2028845,0.9289899,-16.01788,-16.28507,-14.78511
25.710007667,1.461281,1.741518,20.7886,0.314342,0.1855199,0.9259148,-16.01788,-16.28507,-14.78511
25.719917774,3.505237,6.16866800000003,15.14322,0.3279225,0.1541749,0.9260606,-16.01788,-16.28507,-14.78511
25.729828358,4.99175,10.07155,9.55919299999998,0.3232392,0.1303185,0.9182623,-16.01788,-16.28507,-14.78511
25.739738941,6.29244900000002,10.88708,6.49104800000001,0.3063691,0.09803578,0.9042788,-16.76316,-16.66156,-15.22978
25.749649525,7.22152000000001,9.256021,6.18423299999997,0.2755826,0.08912724,0.9433968,-16.76316,-16.66156,-15.22978
25.759560108,5.177564,7.85797400000001,5.079701,0.2500129,0.07971408,0.9661381,-16.76316,-16.66156,-15.22978
25.769470215,-0.954302799999998,6.40167600000003,3.361539,0.2347825,0.0619255,0.9383112,-16.76316,-16.66156,-15.22978
25.779380798,-5.289966,6.22691999999998,2.257007,0.210571,0.04685995,0.8961809,-16.76316,-16.66156,-15.22978
25.789291382,-6.71454100000002,6.634683,-0.442961,0.2043917,0.0229701,0.8855154,-17.14178,-16.66656,-16.44848
25.799201965,-7.58167400000003,6.34342299999999,-0.5043238,0.1915771,0.005445319,0.9028028,-17.14178,-16.66656,-16.44848
25.809112549,-6.83841800000002,4.246353,-2.283848,0.1925662,0.0313171,0.9341764,-17.14178,-16.66656,-16.44848
25.819023132,-6.40485099999998,3.314321,-2.09976,0.226592,0.05505555,0.9421825,-17.14178,-16.66656,-16.44848
25.828933239,-9.62563099999998,3.547329,-0.3815981,0.260943,-0.001028068,0.983745,-17.14178,-16.66656,-16.44848
25.838843822,-12.84641,5.702652,-2.09976,0.3257146,-0.09399886,0.9445942,-16.78207,-15.54274,-16.45389
25.848754406,-7.210046,9.19776899999998,-0.5656868,0.354338,-0.06204751,0.9599074,-16.78207,-15.54274,-16.45389
25.858664989,0.965776800000002,8.73175299999997,1.459289,0.3334077,-0.03372027,1.050079,-16.78207,-15.54274,-16.45389
25.868575573,7.53120999999999,2.440542,1.582015,0.2964459,-0.08139025,1.109163,-16.78207,-15.54274,-16.45389
25.87848568,10.50424,-2.627379,1.950192,0.3133852,-0.1049208,1.112211,-16.78207,-15.54274,-16.45389
25.888396263,9.32741300000001,0.1104632,0.232031,0.2679556,-0.05620798,1.078384,-17.15607,-15.9226,-17.73568
25.898306847,12.91982,4.246353,-1.117953,0.262809,-0.03446056,0.983505,-17.15607,-15.9226,-17.73568
25.90821743,17.87486,6.16866800000003,-1.05659,0.2852638,-0.03224714,0.9823518,-17.15607,-15.9226,-17.73568
25.918128014,26.54619,13.62492,-0.3815981,0.3709935,-0.06108715,1.011617,-17.15607,-15.9226,-17.73568
25.928038597,35.15558,19.21711,4.895612,0.3735272,-0.08515219,1.039762,-17.15607,-15.9226,-17.73568
25.937948704,28.89984,21.31418,3.729717,0.3684424,0.06272064,1.050878,-17.53332,-15.92603,-18.56891
25.95033741,21.3434,27.48889,-0.688412599999999,0.3661667,0.04959843,0.9567006,-17.53332,-15.92603,-18.56891
25.960247517,39.11962,30.28498,-2.836114,0.3433044,0.04839693,0.9669873,-17.53332,-15.92603,-18.56891
25.9701581,53.79893,35.3529,-3.695195,0.3463816,0.04071225,1.067261,-17.53332,-15.92603,-18.56891
25.980068684,64.20452,42.45964,-4.554276,0.3313659,0.05352765,1.14383,-17.53332,-15.92603,-18.56891
25.989979267,60.55018,49.85764,-2.95884,0.3223311,0.122316,1.153975,-16.7848,-15.92597,-18.5728
25.999889851,46.42831,59.8769799999998,-7.254243,0.3304162,0.1091311,1.11636,-16.7848,-15.92597,-18.5728
26.009799957,43.76497,72.9254100000001,-8.54286499999998,0.3630604,0.03363154,1.064178,-16.7848,-15.92597,-18.5728
26.019710541,44.50823,78.8671099999997,-10.07694,0.2857099,0.09406946,1.030725,-16.7848,-15.92597,-18.5728
26.029621124,38.12861,83.9350300000002,-10.19966,0.1906732,0.1115649,0.9865855,-16.7848,-15.92597,-18.5728
26.039531708,28.89984,76.8865399999999,-4.738364,0.05181671,0.08689458,0.8638245,-17.16504,-15.93279,-20.24122
26.049442291,17.9368,66.5176900000002,1.950192,0.03003734,-0.007153716,0.9186176,-17.16504,-15.93279,-20.24122
26.059352875,7.03570599999999,57.9546600000002,6.12286999999999,0.02677924,-0.09002897,0.9329805,-17.16504,-15.93279,-20.24122
26.069262981,-7.210046,49.50813,9.74328100000002,0.01403063,-0.1636259,0.7957631,-17.16504,-15.93279,-20.24122
26.079173565,-14.70455,44.26545,15.69548,-0.03224701,-0.1716826,0.7558041,-17.16504,-15.93279,-20.24122
26.089084148,10.87586,45.25574,16.9841,-0.003373072,-0.2183681,0.8464561,-15.65458,-17.43785,-21.91475
26.098994732,23.1396,44.96448,17.47501,-0.05753973,-0.04267206,0.8245998,-15.65458,-17.43785,-21.91475
26.108905315,18.98975,40.36257,15.5114,-0.1036258,0.1069143,0.7972131,-15.65458,-17.43785,-21.91475
26.118815422,18.43231,35.3529,12.38189,-0.1064248,0.2610765,0.8001866,-15.65458,-17.43785,-21.91475
26.128726006,14.15858,24.69279,8.88420100000002,-0.1499786,0.3600073,0.7220224,-15.65458,-17.43785,-21.91475
26.138636589,2.1426,8.90650799999999,4.65016,-0.2160869,0.3279009,0.5798129,-14.6034,-17.06814,-23.14206
26.148547173,2.947794,-8.27782,2.870636,-0.1768087,0.1911797,0.6736101,-14.6034,-17.06814,-23.14206
26.158458233,3.752989,-19.75346,-0.688412599999999,-0.1076755,0.1292149,0.6192604,-14.6034,-17.06814,-23.14206
26.168368816,-12.59866,-28.66601,-0.1361464,-0.1428046,0.1566096,0.5635893,-14.6034,-17.06814,-23.14206
26.178278446,-12.28897,-32.27763,-0.627049700000001,-0.06205574,0.1840069,0.6974692,-14.6034,-17.06814,-23.14206
26.18818903,-10.43083,-33.15141,-1.179316,-0.05420585,0.2858217,0.7715391,-14.22914,-17.06811,-23.14401
26.19810009,-21.14611,-39.09311,-2.95884,-0.0353032,0.3108517,0.7844954,-14.22914,-17.06811,-23.14401
26.208010674,-26.59666,-45.79208,-5.84289600000002,0.02037989,0.2698252,0.8734967,-14.22914,-17.06811,-23.14401
26.217921257,-28.76449,-51.73378,-10.19966,0.0311341,0.1707033,0.9001059,-14.22914,-17.06811,-23.14401
26.23030901,-40.16109,-63.3259200000001,-16.88822,-0.0457429,0.1418798,0.8559701,-14.22914,-17.06811,-23.14401
26.240219593,-60.4767699999999,-72.5297399999999,-19.71091,-0.06101078,0.09773903,0.8889481,-14.97329,-17.0632,-21.91947
26.250130177,-66.36089,-77.1316499999998,-18.29957,0.01199827,0.003378766,0.9361403,-14.97329,-17.0632,-21.91947
26.260040283,-60.16708,-75.7918499999998,-14.37234,0.156114,0.07999232,0.9650877,-14.97329,-17.0632,-21.91947
26.269950867,-61.65359,-78.5879399999999,-11.18147,0.1620618,0.1125422,0.963329,-14.97329,-17.0632,-21.91947
26.27986145,-69.6436100000001,-82.2578199999999,-7.43833200000001,0.2224,0.1034106,1.11444,-14.97329,-17.0632,-21.91947
26.289772034,-88.9063400000003,-81.7918000000001,-2.406574,0.2521157,0.08544699,1.225442,-15.34295,-17.058,-20.63263
26.299682617,-99.5596800000001,-73.4617699999997,3.668354,0.3797148,-0.03781679,1.364608,-15.34295,-17.058,-20.63263
26.309593678,-81.2260199999997,-60.9958499999998,3.79108,0.5004455,-0.1726461,1.440378,-15.34295,-17.058,-20.63263
26.319503307,-60.2290200000003,-40.25814,4.711524,0.6705574,-0.1768986,1.239511,-15.34295,-17.058,-20.63263
26.329413891,-60.6006499999999,-28.78251,6.12286999999999,0.4621667,-0.09983042,0.9879481,-15.34295,-17.058,-20.63263
26.339324474,-58.2470000000002,-27.55922,6.613773,0.2226337,-0.1679271,0.8672694,-16.03741,-16.3073,-20.2459
26.349235535,-33.28596,-26.8602,6.55241099999999,0.09959282,-0.2488812,0.8856338,-16.03741,-16.3073,-20.2459
26.359146118,-24.67658,-27.85048,8.700112,0.1134084,-0.2654609,1.02128,-16.03741,-16.3073,-20.2459
26.369055748,-28.82643,-25.05438,8.63874900000002,0.2498068,-0.2466819,1.135862,-16.03741,-16.3073,-20.2459
26.378966808,-33.3479,-21.55927,4.711524,0.3661929,-0.1601088,1.095029,-16.03741,-16.3073,-20.2459
26.388877392,-37.80744,-15.15155,0.784297200000002,0.4251762,-0.06898747,1.040833,-16.80371,-14.80715,-19.79691
26.398787975,-37.43581,-3.209899,-1.731582,0.4213353,-0.0155982,0.9672798,-16.80371,-14.80715,-19.79691
26.408698559,-29.13612,4.421109,-2.590663,0.3574814,-0.002158809,0.90746,-16.80371,-14.80715,-19.79691
26.418609142,-9.62563099999998,10.2463,-3.511106,0.3269377,0.03830969,0.8374287,-16.80371,-14.80715,-19.79691
26.428519249,2.018724,16.82878,-3.572469,0.2517566,0.07765926,0.7524379,-16.80371,-14.80715,-19.79691
26.438429833,4.248494,14.67345,-7.74514699999999,0.1623703,0.00976691,0.7777805,-18.31045,-14.05808,-19.79144
26.448340416,-0.3968603,4.595865,-14.06553,0.1295153,-0.1167681,0.8588682,-18.31045,-14.05808,-19.79144
26.458251,-8.01524199999998,-2.569127,-17.93139,0.2135163,-0.1350222,0.9703268,-18.31045,-14.05808,-19.79144
26.468161583,-12.22703,-1.229332,-16.76549,0.2534889,-0.0721446,1.031836,-18.31045,-14.05808,-19.79144
26.478072167,-19.90735,-0.646812299999999,-17.19503,0.2670291,0.0389109,1.004122,-18.31045,-14.05808,-19.79144
26.487982273,-28.26898,-3.617662,-20.56999,0.2610762,0.0553695,0.9197784,-17.9332,-14.05465,-18.9582
26.497892857,-30.93232,-13.22924,-24.25177,0.2225555,0.07614785,0.8117573,-17.9332,-14.05465,-18.9582
26.510280609,-23.68557,-20.74374,-34.92891,0.2541415,0.1181466,0.7939792,-17.9332,-14.05465,-18.9582
26.520191193,-19.96928,-18.2389,-35.35846,0.3120325,0.1233512,0.7233754,-17.9332,-14.05465,-18.9582
26.530102253,-11.60765,-15.90883,-32.9653,0.3251316,0.1066382,0.7413888,-17.5541,-14.42921,-18.959
26.540012837,-12.47478,-16.95736,-30.51079,0.3376632,0.09671623,0.8550043,-17.5541,-14.42921,-18.959
26.54992342,-15.81944,-17.19037,-29.40625,0.3950411,0.04144093,0.9971926,-17.5541,-14.42921,-18.959
26.559834003,-6.590665,-9.20985099999998,-28.60854,0.4558721,-0.04938557,1.100699,-17.5541,-14.42921,-18.959
26.56974411,14.77796,4.77062,-28.60854,0.4554619,-0.1720116,1.20312,-17.5541,-14.42921,-18.959
26.579654694,24.74999,12.86764,-31.9835,0.4555298,-0.1997723,1.272558,-17.92238,-14.42245,-17.28669
26.589565277,-1.511745,13.85793,-36.40162,0.418416,-0.1255966,1.173522,-17.92238,-14.42245,-17.28669
26.599475861,-35.32992,10.88708,-37.75161,0.3626277,-0.05854054,0.9617748,-17.92238,-14.42245,-17.28669
26.609386444,-39.3559,18.69284,-41.18793,0.4084515,-0.1263475,0.678086,-17.92238,-14.42245,-17.28669
26.619297027,-1.078179,30.40149,-41.12657,0.291467,-0.2005579,0.579761,-17.92238,-14.42245,-17.28669
26.629207134,25.55518,19.21711,-35.113,0.1606671,-0.2296209,0.7128205,-17.92238,-14.42245,-17.28669
26.639117718,0.656086599999998,-1.811852,-34.74483,0.1355899,-0.1748664,0.9539765,-16.04001,-15.16992,-16.90864
26.649028301,-21.33192,-5.947741,-38.4266,0.279348,-0.2228027,1.088212,-16.04001,-15.16992,-16.90864
26.658938885,-7.89136499999998,1.974526,-37.01525,0.3346299,-0.1872308,0.9895056,-16.04001,-15.16992,-16.90864
26.668849468,-4.8564,1.042495,-34.74483,0.2990732,-0.07152624,0.9478713,-16.04001,-15.16992,-16.90864
26.678760052,-21.57967,-5.481725,-34.43801,0.2843297,-0.06613462,0.9946188,-16.04001,-15.16992,-16.90864
26.688670635,-36.25899,-9.26810400000003,-31.67668,0.3548824,-0.1673608,1.032665,-15.34604,-15.54106,-16.07588
26.698580742,-30.06519,-5.88948899999998,-27.68809,0.3960524,-0.3501929,1.018582,-15.34604,-15.54106,-16.07588
26.708491325,-16.43882,0.1687152,-26.5222,0.3770736,-0.3630674,1.01243,-15.34604,-15.54106,-16.07588
26.718401909,-19.47378,1.683266,-26.64492,0.3146208,-0.4008546,0.9815453,-15.34604,-15.54106,-16.07588
26.728312492,-26.96828,-1.870103,-24.55858,0.2675645,-0.4554009,0.9542481,-15.34604,-15.54106,-16.07588
26.738222599,-29.87937,-4.083678,-23.02451,0.2452073,-0.4239138,0.9090496,-14.5989,-15.54257,-16.46524
26.748133182,-22.13712,-2.569127,-20.63136,0.2272609,-0.3535902,0.8626286,-14.5989,-15.54257,-16.46524
26.758043766,-13.83742,0.3434711,-18.72911,0.2053878,-0.2552702,0.8951764,-14.5989,-15.54257,-16.46524
26.767954349,-15.69556,0.809486700000001,-18.60638,0.2142635,-0.1897553,0.9790783,-14.5989,-15.54257,-16.46524
26.780342579,-25.97728,0.2852191,-15.78369,0.2709279,-0.1858986,1.025635,-13.47661,-15.16292,-15.25158
26.790253162,-27.83542,1.916274,-10.93602,0.3122117,-0.2355183,0.9879507,-13.47661,-15.16292,-15.25158
26.800163746,-20.89836,2.265786,-5.351994,0.3173144,-0.2933951,0.9409427,-13.47661,-15.16292,-15.25158
26.810074329,-15.38587,0.576479000000001,-0.3815981,0.3111534,-0.3299583,0.9172283,-13.47661,-15.16292,-15.25158
26.819984913,-11.91734,-1.637096,2.931999,0.2876813,-0.3400094,0.9053746,-13.47661,-15.16292,-15.25158
26.829895019,-10.74052,-3.559411,4.588798,0.2697861,-0.3572069,0.9044651,-12.73432,-14.78983,-15.6421
26.839805603,-7.33392200000003,-5.190465,5.570604,0.2517975,-0.3607946,0.9103695,-12.73432,-14.78983,-15.6421
26.849716186,2.76198,-6.00599199999998,6.06150700000001,0.2442556,-0.387327,0.9544371,-12.73432,-14.78983,-15.6421
26.85962677,9.82291700000001,-6.064244,6.36832199999998,0.2577873,-0.3679657,1.009179,-12.73432,-14.78983,-15.6421
26.869537353,3.876865,-7.87005600000001,6.55241099999999,0.2505118,-0.3385191,1.00176,-12.73432,-14.78983,-15.6421
26.879447937,1.213529,-10.7244,6.55241099999999,0.2579653,-0.3059306,1.003829,-12.73917,-14.41523,-15.64325
26.889358044,1.151591,-12.70497,6.73649899999997,0.2914675,-0.2531963,0.994747,-12.73917,-14.41523,-15.64325
26.899268627,1.027715,-12.53021,8.14784600000001,0.3171971,-0.2273629,0.9591496,-12.73917,-14.41523,-15.64325
26.909179211,3.071671,-10.95741,10.41827,0.3387899,-0.219496,0.9282722,-12.73917,-14.41523,-15.64325
26.919089794,6.602139,-9.73411900000001,12.99552,0.3373828,-0.2231463,0.8821657,-12.73917,-14.41523,-15.64325
26.929000854,14.40633,-10.20013,15.81821,0.3296595,-0.2268551,0.8399585,-12.36353,-14.41363,-15.25973
26.938911438,24.56417,-12.23895,18.88635,0.343219,-0.2179716,0.8374915,-12.36353,-14.41363,-15.25973
26.948821068,31.4393,-10.14188,21.89314,0.384364,-0.1944928,0.8718387,-12.36353,-14.41363,-15.25973
26.958731651,35.21752,-4.724449,23.79539,0.4019019,-0.1843016,0.925042,-12.36353,-14.41363,-15.25973
26.968642712,32.74,0.1687152,24.34765,0.3923769,-0.1957507,0.9841132,-12.36353,-14.41363,-15.25973
26.978553295,27.16557,2.032778,24.1022,0.3615579,-0.2110176,1.012626,-13.475,-15.16108,-14.80187
26.988463879,20.90983,-0.1225446,25.02265,0.3287275,-0.2178058,0.9979994,-13.475,-15.16108,-14.80187
26.998374462,17.13161,-4.316686,26.9249,0.3101076,-0.2346444,0.9745317,-13.475,-15.16108,-14.80187
27.008284569,18.86587,-6.70501599999999,29.13396,0.326842,-0.2373059,0.9820417,-13.475,-15.16108,-14.80187
27.018195152,21.71502,-6.18074799999997,31.09757,0.3278158,-0.2324178,0.987347,-13.475,-15.16108,-14.80187
27.028105736,26.79394,-4.724449,32.50892,0.3345981,-0.2494381,0.9612424,-14.58509,-15.90697,-13.95854
27.038016319,32.80193,-3.151647,33.55209,0.3506122,-0.2227183,0.9329429,-14.58509,-15.90697,-13.95854
27.047926903,33.48325,-1.928355,34.41117,0.3495562,-0.1759508,0.8847682,-14.58509,-15.90697,-13.95854
27.060314655,29.14759,-1.520592,34.5339,0.3620279,-0.1049459,0.8966498,-14.58509,-15.90697,-13.95854
27.070225716,25.30743,0.867738699999999,34.41117,0.3875105,-0.08215895,0.9287366,-14.58509,-15.90697,-13.95854
27.080136299,26.2365,5.120132,35.27025,0.3937063,-0.0853293,0.9569874,-15.34144,-15.53583,-14.79099
27.090045929,28.59015,7.85797400000001,34.5339,0.3673497,-0.05783039,0.9939063,-15.34144,-15.53583,-14.79099
27.099956512,25.86487,7.624966,33.30664,0.3323656,-0.02328257,1.008385,-15.34144,-15.53583,-14.79099
27.109867573,20.97177,5.527896,32.3862,0.3284709,-0.03283933,0.9512182,-15.34144,-15.53583,-14.79099
27.119778156,22.14859,6.57643099999999,31.95665,0.3410932,-0.03272731,0.9424594,-15.34144,-15.53583,-14.79099
27.12968874,23.38735,9.78028900000002,31.2203,0.3584825,-0.06382854,0.980504,-15.64847,-15.91045,-14.78821
27.139599323,18.12262,10.42106,30.85212,0.3559964,-0.09387627,0.9889696,-15.64847,-15.91045,-14.78821
27.14950943,14.09664,10.88708,29.68623,0.3562592,-0.09350007,0.9673626,-15.64847,-15.91045,-14.78821
27.159420013,14.09664,12.92589,27.4158,0.338661,-0.07347871,0.9436509,-15.64847,-15.91045,-14.78821
27.169330597,16.45029,13.79967,26.06581,0.3084013,-0.05358974,0.924857,-15.64847,-15.91045,-14.78821
27.17924118,20.35239,14.84821,24.1022,0.2763174,-0.0278031,0.9258056,-16.40644,-15.54114,-16.07036
27.189151764,20.66208,16.53752,22.56813,0.2708228,-0.004028418,0.9423402,-16.40644,-15.54114,-16.07036
27.199062347,14.65409,15.955,21.03406,0.2697839,0.01592767,0.9597684,-16.40644,-15.54114,-16.07036
27.208972454,11.18555,13.50841,20.66588,0.2893687,0.02106436,0.9682644,-16.40644,-15.54114,-16.07036
27.218883038,9.14159899999999,14.38219,19.19317,0.2950374,0.01201437,0.9859174,-16.40644,-15.54114,-16.07036
27.228793621,6.54020100000002,16.77052,16.55457,0.2926384,0.01395885,0.9926748,-16.77584,-15.91577,-16.06726
27.238704205,2.080662,17.23654,12.93415,0.2789918,0.01990356,0.9563487,-16.77584,-15.91577,-16.06726
27.248614788,-2.688568,16.77052,10.41827,0.2720061,0.02754975,0.9516626,-16.77584,-15.91577,-16.06726
27.258525372,-3.184072,16.82878,8.88420100000002,0.2625373,0.01149128,0.963167,-16.77584,-15.91577,-16.06726
27.268435478,0.4083343,17.81906,6.859225,0.2661152,-0.03008804,0.9772617,-16.77584,-15.91577,-16.06726
27.278346062,2.638104,17.81906,4.834249,0.2505811,-0.03120099,0.987001,-17.53842,-15.17161,-17.28633
27.288256645,-5.351904,15.13947,1.643378,0.2244889,-0.0128417,0.9436703,-17.53842,-15.17161,-17.28633
27.298167229,-18.35889,14.44044,-0.627049700000001,0.2118537,0.00142543,0.9203544,-17.53842,-15.17161,-17.28633
27.308077812,-24.92433,16.59577,-2.406574,0.2081726,-0.02777187,0.9086702,-17.53842,-15.17161,-17.28633
27.317988396,-22.38487,20.03263,-3.327018,0.249553,-0.05782921,0.9032856,-17.53842,-15.17161,-17.28633
27.327898502,-18.73052,25.21706,-4.43155,0.2549375,-0.0455636,0.9182024,-16.79774,-14.80035,-18.12655
27.340287209,-16.253,24.8093,-8.29741299999999,0.2102745,-0.05620356,0.9372708,-16.79774,-14.80035,-18.12655
27.350197792,-13.77548,21.83845,-10.1383,0.2017875,-0.09248731,0.9731194,-16.79774,-14.80035,-18.12655
27.360107899,-7.89136499999998,21.60544,-10.75193,0.2321566,-0.1286564,1.031177,-16.79774,-14.80035,-18.12655
27.370018482,-9.62563099999998,24.9258,-11.3042,0.2499691,-0.109799,0.9783204,-16.79774,-14.80035,-18.12655
27.379929066,-13.77548,28.82868,-12.10191,0.217837,-0.103798,0.9037529,-16.80073,-14.80375,-18.96173
27.389839649,-6.15709899999998,29.11994,-11.85646,0.2068216,-0.09821343,0.8851657,-16.80073,-14.80375,-18.96173
27.399750233,1.151591,24.16852,-10.1383,0.2002128,-0.04818035,0.9191713,-16.80073,-14.80375,-18.96173
27.409660816,1.585157,20.26564,-8.84967899999999,0.1929433,-0.01604326,0.963147,-16.80073,-14.80375,-18.96173
27.419570923,2.018724,17.23654,-6.57925099999997,0.1870592,-0.02246684,0.9540356,-16.80073,-14.80375,-18.96173
27.429481506,7.65508699999999,12.16862,-4.247461,0.1865677,-0.06320159,0.9537688,-16.06651,-14.05973,-20.25283
27.43939209,11.80493,11.41134,-4.43155,0.2441208,-0.04815948,1.004714,-16.06651,-14.05973,-20.25283
27.449302673,14.65409,21.78019,-9.15649299999999,0.2952735,-0.02591158,0.9645357,-16.06651,-14.05973,-20.25283
27.459213257,21.90084,35.29465,-11.24283,0.3099396,-0.006456567,1.034633,-16.06651,-14.05973,-20.25283
27.469124317,27.84689,44.3237,-8.788316,0.2638575,0.02851536,1.064101,-16.06651,-14.05973,-20.25283
27.479033947,28.59015,42.80915,-9.58603399999999,0.2041498,0.1382235,1.139809,-15.68393,-14.81045,-20.63793
27.488944531,30.94379,42.8674,-15.47687,0.1815904,0.09011076,1.172348,-15.68393,-14.81045,-20.63793
27.498855114,23.6351,42.51789,-19.52682,0.2001107,0.107137,1.138679,-15.68393,-14.81045,-20.63793
27.508766174,4.805936,44.96448,-20.26318,0.2107517,0.0698897,1.036059,-15.68393,-14.81045,-20.63793
27.518676758,-8.57268400000002,45.02273,-19.95637,0.179219,0.08448643,0.9346541,-15.68393,-14.81045,-20.63793
27.528587341,-13.96129,44.96448,-18.29957,0.1504788,0.06345433,0.9683908,-15.00425,-14.43763,-21.09237
27.538496971,-6.46678900000002,43.79944,-17.37912,0.1027935,0.04322378,1.015272,-15.00425,-14.43763,-21.09237
27.548408032,-1.511745,42.57615,-18.54502,0.1071815,0.0610816,1.082573,-15.00425,-14.43763,-21.09237
27.558318615,-17.73952,41.1781,-19.34274,0.08679006,0.09966712,0.9989908,-15.00425,-14.43763,-21.09237
27.568229198,-48.89436,32.3238,-18.17684,-0.01071898,0.08296237,0.8168411,-15.00425,-14.43763,-21.09237
27.578139782,-64.3169300000002,19.50837,-23.76087,-0.0662184,-0.006390253,0.7360925,-13.14378,-14.06969,-22.77361
27.588050365,-58.1231200000002,11.12008,-25.23358,-0.03621894,-0.05884039,0.8343782,-13.14378,-14.06969,-22.77361
27.597960949,-42.01923,9.89679200000002,-29.77443,-0.01138661,-0.08441857,0.9847478,-13.14378,-14.06969,-22.77361
27.607871056,-39.72752,12.63463,-31.43123,0.08353286,-0.170995,0.9842534,-13.14378,-14.06969,-22.77361
27.620259762,-53.41583,11.06183,-36.2789,0.1288742,-0.3165876,0.84842,-13.14378,-14.06969,-22.77361
27.630170345,-42.88636,8.73175299999997,-38.61069,0.1349522,-0.3022671,0.79036,-12.40447,-13.7,-23.99931
27.640079975,-28.26898,9.78028900000002,-41.00384,0.08885621,-0.2202336,0.8259042,-12.40447,-13.7,-23.99931
27.649990559,-16.06719,9.83854000000001,-40.5743,-0.01042381,-0.1705163,0.8348361,-12.40447,-13.7,-23.99931
27.659901619,-11.42183,1.741518,-40.88111,-0.06131911,-0.1372776,0.8220838,-12.40447,-13.7,-23.99931
27.669812202,-15.69556,-6.64676399999998,-43.09018,-0.08411308,-0.1362529,0.7939721,-12.40447,-13.7,-23.99931
27.679722786,-25.35789,-11.88944,-46.77196,-0.06766065,-0.1146798,0.7070551,-11.28816,-13.32714,-24.45601
27.689633369,-29.38387,-16.78261,-49.59465,-0.02610494,-0.09733754,0.6789371,-11.28816,-13.32714,-24.45601
27.699543476,-18.17308,-18.87968,-52.60143,0.01378218,-0.09352002,0.7582999,-11.28816,-13.32714,-24.45601
27.70945406,-9.74950700000001,-20.27772,-54.74913,0.06666328,-0.1179293,0.8796085,-11.28816,-13.32714,-24.45601
27.719364643,-14.33292,-22.4913,-54.68777,0.08568573,-0.1857505,0.9385203,-11.28816,-13.32714,-24.45601
27.729275227,-25.97728,-26.27768,-54.62641,0.09525743,-0.2486541,0.9399333,-10.55258,-12.20147,-24.01365
27.73918581,-30.56069,-28.72426,-55.54685,0.1014355,-0.2796385,0.9339079,-10.55258,-12.20147,-24.01365
27.749096394,-26.10115,-30.99608,-54.56504,0.1178009,-0.2861463,0.948598,-10.55258,-12.20147,-24.01365
27.7590065,-17.5537,-32.21937,-54.38095,0.1272335,-0.2898583,0.9580893,-10.55258,-12.20147,-24.01365
27.768917084,-20.89836,-32.10287,-55.05595,0.1390441,-0.2499203,0.9644881,-10.55258,-12.20147,-24.01365
27.778827667,-28.4548,-29.48153,-54.93322,0.1544062,-0.271327,1.006938,-9.421968,-12.57257,-23.18316
27.788738251,-26.10115,-26.56894,-54.56504,0.2284267,-0.2837152,1.058028,-9.421968,-12.57257,-23.18316
27.798648834,-27.33991,-19.34569,-50.02419,0.3258272,-0.2765924,1.07542,-9.421968,-12.57257,-23.18316
27.808559418,-28.82643,-11.83119,-43.33563,0.3604602,-0.3254693,1.009953,-9.421968,-12.57257,-23.18316
27.818469524,-6.342913,-7.05452800000003,-41.43338,0.3168248,-0.4294816,0.9722112,-9.421968,-12.57257,-23.18316
27.828380108,12.85788,-6.47200799999999,-40.75839,0.2200384,-0.3872647,1.024764,-9.796711,-12.19304,-21.96172
27.838290691,3.814927,-8.394323,-40.26749,0.1553949,-0.3522672,1.103861,-9.796711,-12.19304,-21.96172
27.848201275,-7.89136499999998,-8.10306400000001,-38.54933,0.1790705,-0.3489395,1.127672,-9.796711,-12.19304,-21.96172
27.858111858,-9.563693,-6.47200799999999,-35.41982,0.1537423,-0.3262891,1.068518,-9.796711,-12.19304,-21.96172
27.868022919,-10.30695,-10.7244,-33.4562,0.1392419,-0.256895,0.9279478,-9.796711,-12.19304,-21.96172
27.877933502,-3.989267,-12.87972,-30.38806,0.1648198,-0.2526039,0.852355,-9.046586,-12.19115,-21.5159
27.890321255,14.15858,-12.2972,-24.80404,0.1825616,-0.3349896,0.8170707,-9.046586,-12.19115,-21.5159
27.900231838,19.48525,-22.6078,-22.34952,0.1257839,-0.3820629,0.8518535,-9.046586,-12.19115,-21.5159
27.910142422,19.29944,-29.8893,-20.20182,0.1307891,-0.4697288,0.9510962,-9.046586,-12.19115,-21.5159
27.920052528,13.10563,-35.36498,-15.84505,0.1383422,-0.4480597,0.997746,-8.296691,-12.18952,-21.13432
27.929963112,-8.01524199999998,-38.16108,-10.56784,0.1876654,-0.3962627,0.9568215,-8.296691,-12.18952,-21.13432
27.939873695,-16.87238,-30.82133,-5.597445,0.3462382,-0.3605514,0.9171802,-8.296691,-12.18952,-21.13432
27.949784279,2.823918,-11.53993,5.141064,0.4672617,-0.4218268,0.9646289,-8.296691,-12.18952,-21.13432
27.959694862,31.25348,-2.103112,16.9841,0.4083445,-0.3931708,1.022503,-8.296691,-12.18952,-21.13432
27.969605446,27.28945,-2.802135,16.92274,0.3288295,-0.280183,1.030234,-8.661506,-12.55892,-19.84633
27.979515553,11.99075,-4.083678,15.32731,0.2131159,-0.2983793,0.9783652,-8.661506,-12.55892,-19.84633
27.989426136,11.80493,-10.02538,13.73187,0.1181276,-0.3247523,0.9829091,-8.661506,-12.55892,-19.84633
27.99933672,19.54719,-17.01561,12.44325,0.1003705,-0.3162727,0.9778482,-8.661506,-12.55892,-19.84633
28.009247303,17.00773,-24.12235,13.1796,0.1285474,-0.2579727,0.9328412,-8.661506,-12.55892,-19.84633
28.019158363,10.69005,-25.17089,15.45003,0.2393841,-0.1832721,0.766179,-9.019838,-13.68117,-19.45545
28.029068947,17.99874,-17.71464,17.72046,0.3159862,-0.1019352,0.5590643,-9.019838,-13.68117,-19.45545
28.03897953,56.95778,-9.501111,19.3159,0.3497303,-0.1866184,0.6033229,-9.019838,-13.68117,-19.45545
28.04888916,87.4932300000001,0.692982899999999,22.99767,0.3959196,-0.2307763,0.8594862,-9.019838,-13.68117,-19.45545
28.058800221,82.2904399999998,6.40167600000003,28.64306,0.3423512,-0.1971726,1.110848,-9.019838,-13.68117,-19.45545
28.068710804,68.5401800000002,-1.520592,26.43399,0.276794,-0.1067925,1.21337,-10.13317,-14.05062,-18.16357
28.078621387,42.89784,-13.7535,22.32268,0.2399833,0.000472296,1.23027,-10.13317,-14.05062,-18.16357
28.088531971,13.5392,-20.74374,19.86816,0.2598118,0.003048418,1.211858,-10.13317,-14.05062,-18.16357
28.098442554,-7.95330300000002,-20.39423,18.57954,0.294627,-0.0469576,1.115171,-10.13317,-14.05062,-18.16357
28.108352661,-15.57168,-12.0642,17.29092,0.3398554,-0.1389503,1.031073,-10.13317,-14.05062,-18.16357
28.118263245,-5.413843,-0.0642926699999998,16.86138,0.335305,-0.1824981,0.9655231,-9.738389,-15.16758,-16.49169
28.128173828,8.522218,4.828873,18.39545,0.300862,-0.1691409,0.912633,-9.738389,-15.16758,-16.49169
28.138084412,21.96278,4.188101,20.2977,0.2874814,-0.1479357,0.9201004,-9.738389,-15.16758,-16.49169
28.147994995,31.31542,4.77062,21.58632,0.3091186,-0.1000458,0.940386,-9.738389,-15.16758,-16.49169
28.157905579,26.11263,5.411392,24.34765,0.2847137,-0.03692367,0.9232664,-9.738389,-15.16758,-16.49169
28.170293808,14.71602,3.197817,26.55672,0.2393442,0.008405795,0.8913372,-10.86277,-15.1695,-16.93557
28.180204392,7.65508699999999,2.09103,28.58169,0.2059042,0.01667072,0.8825785,-10.86277,-15.1695,-16.93557
28.190114975,4.062679,0.7512348,30.66803,0.1739781,-0.01623667,0.877853,-10.86277,-15.1695,-16.93557
28.200025082,7.96477600000001,-0.00604071099999999,31.46575,0.1578247,-0.0705855,0.9078903,-10.86277,-15.1695,-16.93557
28.209935665,14.09664,-1.112828,31.40439,0.1702181,-0.1047301,0.9320362,-10.86277,-15.1695,-16.93557
28.219846249,14.09664,-4.083678,30.60667,0.1875192,-0.1251455,0.9739941,-11.60458,-15.92215,-17.76455
28.229756832,12.54819,-7.17103099999997,29.0726,0.23745,-0.1596046,1.034283,-11.60458,-15.92215,-17.76455
28.239667416,9.88485499999999,-7.69530000000002,27.96807,0.2865959,-0.1588623,1.059282,-11.60458,-15.92215,-17.76455
28.249577999,6.41632499999999,-7.87005600000001,27.66125,0.3008736,-0.1393699,1.043914,-11.60458,-15.92215,-17.76455
28.259488583,7.46927200000001,-10.14188,27.96807,0.2999595,-0.1500806,1.037609,-11.60458,-15.92215,-17.76455
28.269398689,9.69904099999998,-12.64672,28.39761,0.2964378,-0.1284721,1.005615,-11.97723,-15.92035,-17.31289
28.279309273,5.858883,-14.51078,29.13396,0.2700736,-0.1034251,0.9436055,-11.97723,-15.92035,-17.31289
28.289219856,1.956786,-17.42338,29.50214,0.2332812,-0.09102452,0.8988935,-11.97723,-15.92035,-17.31289
28.29913044,0.3463963,-19.92821,29.13396,0.2200325,-0.07829174,0.8616486,-11.97723,-15.92035,-17.31289
28.309041023,3.876865,-20.21947,28.70442,0.2458276,-0.09559059,0.8296043,-11.97723,-15.92035,-17.31289
28.318951607,15.52122,-15.26805,28.64306,0.2683037,-0.08897582,0.8356826,-13.09217,-16.29164,-16.47071
28.32886219,27.72301,-10.43314,27.23171,0.2789868,-0.07302154,0.8947495,-13.09217,-16.29164,-16.47071
28.338772297,27.97077,-9.15159900000003,23.97948,0.287924,-0.01966979,0.9704071,-13.09217,-16.29164,-16.47071
28.348683834,18.30843,-8.74383499999998,19.74544,0.3262886,-0.002001618,1.012904,-13.09217,-16.29164,-16.47071
28.358593464,9.76097900000002,-5.831236,16.80002,0.3594934,0.01107453,1.023728,-13.09217,-16.29164,-16.47071
28.368504047,3.752989,-1.695348,15.32731,0.3728397,0.0005832417,1.025455,-13.84068,-16.2917,-16.46682
28.378415108,0.965776800000002,1.50851,14.52959,0.3500261,-0.01376371,1.02509,-13.84068,-16.2917,-16.46682
28.388325691,-1.078179,2.964809,12.93415,0.3247268,-0.04035767,1.006421,-13.84068,-16.2917,-16.46682
28.398235321,-1.263993,3.314321,11.76826,0.2844517,-0.04778285,0.9803352,-13.84068,-16.2917,-16.46682
28.408145905,-0.644612499999997,2.673549,9.86600800000002,0.2308669,-0.04860019,0.9515358,-13.84068,-16.2917,-16.46682
28.418056965,0.779962700000001,0.7512348,6.859225,0.192033,-0.05016671,0.9297972,-13.84553,-15.9171,-16.46798
28.427967548,2.885856,0.459975,4.097894,0.1821347,-0.05376579,0.9140195,-13.84553,-15.9171,-16.46798
28.437878132,3.938803,-0.00604071099999999,1.459289,0.1705604,-0.02334567,0.9176903,-13.84553,-15.9171,-16.46798
28.450265885,2.823918,-0.763316199999998,-1.608856,0.1961255,-0.0161256,0.9395893,-13.84553,-15.9171,-16.46798
28.460176468,0.594148499999998,-0.2973005,-3.388381,0.2218748,0.01825915,0.9635882,-13.84553,-15.9171,-16.46798
28.470087052,-1.325931,0.692982899999999,-4.799727,0.230583,0.03880874,0.9785293,-13.85038,-15.54251,-16.46913
28.479998112,-2.502754,1.566762,-5.597445,0.2368772,0.04812423,0.9833347,-13.85038,-15.54251,-16.46913
28.489908695,-3.865391,1.275502,-7.00879199999998,0.2234859,0.06981161,0.9903253,-13.85038,-15.54251,-16.46913
28.499818325,-7.58167400000003,1.158998,-8.788316,0.1985101,0.1194748,0.9971292,-13.85038,-15.54251,-16.46913
28.509728909,-13.40385,-0.0642926699999998,-11.61101,0.1639819,0.1766901,0.9872662,-13.85038,-15.54251,-16.46913
28.519639969,-20.6506,-2.219615,-12.286,0.1443056,0.1151686,0.9515067,-14.59081,-16.29359,-16.91264
28.529550552,-21.76549,-4.607945,-13.75871,0.1717517,0.0613986,0.8947161,-14.59081,-16.29359,-16.91264
28.539461136,-17.24401,-5.073961,-16.45868,0.2209865,0.02632905,0.838809,-14.59081,-16.29359,-16.91264
28.549371719,-12.78447,-6.35550400000002,-17.50185,0.2388239,0.02691113,0.81464,-14.59081,-16.29359,-16.91264
28.559281826,-11.48377,-8.044812,-20.38591,0.2614166,0.05017192,0.8515582,-14.59081,-16.29359,-16.91264
28.569192409,-16.19106,-7.92830800000002,-24.12904,0.2772228,0.08533335,0.9558406,-13.8393,-16.29013,-16.08136
28.579102993,-26.59666,-6.76326800000001,-26.70629,0.30765,0.06821899,1.041873,-13.8393,-16.29013,-16.08136
28.589013576,-33.10015,-4.258434,-27.87218,0.3130797,-0.00436121,1.057185,-13.8393,-16.29013,-16.08136
28.59892416,-35.82542,-2.044859,-29.28353,0.2925743,-0.06679302,1.034871,-13.8393,-16.29013,-16.08136
28.608834743,-35.4538,-0.9380721,-31.12441,0.277939,-0.1211057,0.9746252,-13.8393,-16.29013,-16.08136
28.618745327,-31.98526,-1.404088,-32.41304,0.2650894,-0.1442629,0.9342566,-13.83285,-16.66289,-15.63049
28.628655434,-27.6496,-2.277867,-33.02666,0.2633156,-0.131758,0.9189912,-13.83285,-16.66289,-15.63049
28.638566017,-26.72053,-2.627379,-32.35167,0.2687078,-0.1263177,0.9266601,-13.83285,-16.66289,-15.63049
28.648476601,-29.07418,-1.637096,-33.33348,0.272815,-0.1290938,0.9424489,-13.83285,-16.66289,-15.63049
28.658387184,-29.07418,-1.404088,-30.94032,0.3209762,-0.1988507,0.9319355,-13.83285,-16.66289,-15.63049
28.668297768,-20.71254,-2.277867,-28.11763,0.3276521,-0.2868888,0.9552953,-12.72809,-15.16285,-15.25548
28.678208351,-10.18307,-2.044859,-26.33811,0.358357,-0.3097212,0.966383,-12.72809,-15.16285,-15.25548
28.688118935,-4.360896,0.692982899999999,-25.90857,0.339978,-0.2854677,0.9191789,-12.72809,-15.16285,-15.25548
28.698029041,-1.263993,-0.2390486,-26.70629,0.3020087,-0.2105043,0.8806564,-12.72809,-15.16285,-15.25548
28.707939625,-7.58167400000003,-1.46234,-29.28353,0.2945786,-0.1167567,0.8381354,-12.72809,-15.16285,-15.25548
28.720328331,-20.03122,1.974526,-31.9835,0.3455758,-0.1072638,0.8631754,-11.97957,-15.1628,-15.25937
28.730238438,-15.20006,8.73175299999997,-35.66527,0.3653104,-0.1471579,0.9765247,-11.97957,-15.1628,-15.25937
28.740149021,-9.00624999999998,10.42106,-37.69025,0.3432782,-0.1808498,1.077337,-11.97957,-15.1628,-15.25937
28.750059605,-7.82942600000003,8.32398899999998,-37.99706,0.3166591,-0.1437315,1.099918,-11.97957,-15.1628,-15.25937
28.759970188,-10.86439,7.97447799999998,-36.83117,0.318868,-0.104808,1.027173,-11.97957,-15.1628,-15.25937
28.769880772,-14.27098,7.04244699999999,-35.113,0.3091024,-0.06981027,0.9741986,-12.34737,-15.53559,-14.80655
28.779791355,-17.42982,4.887125,-34.80619,0.3317434,-0.09432925,0.9599013,-12.34737,-15.53559,-14.80655
28.789701939,-21.4558,3.489077,-32.16758,0.3606516,-0.1502742,0.9477375,-12.34737,-15.53559,-14.80655
28.799612045,-24.67658,6.285172,-29.28353,0.3632006,-0.1779942,0.9254419,-12.34737,-15.53559,-14.80655
28.809522629,-29.32193,8.615249,-25.66312,0.3261897,-0.229601,0.8798254,-12.34737,-15.53559,-14.80655
28.819433212,-24.92433,10.59582,-26.03129,0.3268682,-0.2629065,0.9069663,-10.85333,-15.53887,-15.64952
28.829343796,-14.51874,8.84825700000001,-26.09266,0.3206753,-0.252657,0.9349411,-10.85333,-15.53887,-15.64952
28.839254856,-8.82043600000003,7.79972199999999,-26.64492,0.3050303,-0.227974,0.9640597,-10.85333,-15.53887,-15.64952
28.84916544,-12.72253,8.382241,-25.8472,0.3038716,-0.198812,0.9805899,-10.85333,-15.53887,-15.64952
28.859076023,-13.40385,9.72203599999997,-25.72448,0.3162495,-0.2117496,0.9803892,-10.85333,-15.53887,-15.64952
28.868985653,-10.67858,11.23659,-25.11085,0.3089482,-0.2103608,0.9852676,-10.10966,-15.16421,-15.65457
28.878896713,-11.66959,10.47931,-24.68131,0.2805611,-0.2087789,0.9845803,-10.10966,-15.16421,-15.65457
28.888807297,-14.4568,9.54727999999999,-23.63814,0.257231,-0.1926629,0.9695385,-10.10966,-15.16421,-15.65457
28.89871788,-18.17308,8.90650799999999,-21.49044,0.2524604,-0.2063208,0.9651702,-10.10966,-15.16421,-15.65457
28.908628464,-20.1551,8.55699699999999,-20.14045,0.2622635,-0.2303278,0.9870069,-10.10966,-15.16421,-15.65457
28.918539047,-21.33192,8.55699699999999,-18.54502,0.2678776,-0.2503862,0.9388055,-9.367601,-14.79139,-16.10933
28.928449631,-22.44681,8.615249,-17.99275,0.2642006,-0.237639,0.8813055,-9.367601,-14.79139,-16.10933
28.938359737,-24.5527,9.19776899999998,-16.76549,0.2928499,-0.2566454,0.8871559,-9.367601,-14.79139,-16.10933
28.948270321,-19.65959,10.94533,-13.63599,0.269254,-0.3048008,0.9139422,-9.367601,-14.79139,-16.10933
28.958180904,-7.51973599999998,13.21715,-11.61101,0.2791326,-0.3112076,0.9637447,-9.367601,-14.79139,-16.10933
28.968091488,-4.360896,16.01325,-9.27921999999999,0.3103649,-0.2727987,1.002604,-8.642847,-13.29791,-17.33848
28.978002071,-11.66959,17.29479,-7.92923500000003,0.2980615,-0.2449488,0.9798561,-8.642847,-13.29791,-17.33848
28.987912655,-21.64161,18.11032,-8.54286499999998,0.3025371,-0.2494933,0.9341695,-8.642847,-13.29791,-17.33848
29.000300884,-21.33192,20.78991,-6.57925099999997,0.2885984,-0.3229556,0.9194043,-8.642847,-13.29791,-17.33848
29.010211468,-16.43882,23.353,-5.536082,0.2876363,-0.3288133,0.9140924,-8.271575,-13.30128,-18.17561
29.020122051,-12.84641,25.91608,-3.756558,0.2764784,-0.3096443,0.8975177,-8.271575,-13.30128,-18.17561
29.030032635,-11.17408,25.21706,-0.749775499999997,0.2727112,-0.2898664,0.8871208,-8.271575,-13.30128,-18.17561
29.039942741,-4.54671,26.4986,1.029749,0.2844769,-0.312382,0.9113501,-8.271575,-13.30128,-18.17561
29.049853325,8.58415599999998,29.17819,0.845659999999997,0.2855717,-0.3040163,0.9325228,-8.271575,-13.30128,-18.17561
29.059763908,17.06967,33.43059,0.722934200000001,0.2726679,-0.2474499,0.9325387,-7.530895,-12.93003,-19.01583
29.069674492,18.80394,34.24612,3.116088,0.2372185,-0.2338714,0.9247943,-7.530895,-12.93003,-19.01583
29.079585075,18.49425,33.19758,5.570604,0.2214097,-0.2421961,0.9469723,-7.530895,-12.93003,-19.01583
29.089495659,17.31742,30.05197,8.88420100000002,0.2093407,-0.2373905,0.9677628,-7.530895,-12.93003,-19.01583
29.099406242,18.92781,27.43063,11.95235,0.2096643,-0.2455147,0.9897929,-7.530895,-12.93003,-19.01583
29.109316826,19.17556,27.02287,14.95913,0.2375389,-0.1846847,0.9659325,-7.901912,-13.30648,-19.46245
29.119226933,13.41532,25.79958,18.27273,0.1891018,-0.1931114,0.9533601,-7.901912,-13.30648,-19.46245
29.129137516,22.02471,20.38215,20.2977,0.1290076,-0.2577332,0.9779734,-7.901912,-13.30648,-19.46245
