Time (s),Gyroscope X (deg/s),Gyroscope Y (deg/s),Gyroscope Z (deg/s),Accelerometer X (g),Accelerometer Y (g),Accelerometer Z (g),Magnetometer X (uT),Magnetometer Y (uT),Magnetometer Z (uT)
11.042635918,-3.99562,17.27058,3.440656,1.033524,-0.03363048,0.1286007,-26.73079,-28.5478,42.89161
11.05249548,-2.753301,29.17237,4.482807,1.050116,-0.01933622,0.1380688,-26.73079,-28.5478,42.89161
11.062355042,-3.37446,41.49072,6.07668500000002,1.072242,-0.01032099,0.1541223,-26.73079,-28.5478,42.89161
11.074679375,-5.79698099999998,58.6888000000001,7.793169,1.099029,-0.01535178,0.1766997,-25.98455,-28.93082,42.44342
11.084538937,-8.59219699999999,72.43536,9.20313699999998,1.118159,-0.01712094,0.1788081,-25.98455,-28.93082,42.44342
11.094398499,-9.58605199999997,86.0629000000001,10.98092,1.136405,-0.03058958,0.177476,-25.98455,-28.93082,42.44342
11.10425806,-9.33758799999999,99.0358599999999,12.08438,1.146149,-0.03393182,0.1715585,-25.98455,-28.93082,42.44342
11.114117146,-7.34987899999998,112.2468,13.55565,1.166852,-0.04298117,0.1750206,-25.98455,-28.93082,42.44342
11.123977184,-4.492547,125.2198,14.5978,1.186411,-0.04183398,0.1752308,-27.48866,-28.93137,41.17087
11.133836269,-0.827707900000002,137.6572,16.06907,1.220041,-0.04924669,0.1952945,-27.48866,-28.93137,41.17087
11.143696308,3.271943,150.0945,17.78556,1.265069,-0.05798301,0.2247685,-27.48866,-28.93137,41.17087
11.15355587,6.81255000000002,162.4724,19.25683,1.291417,-0.04751571,0.2287942,-27.48866,-28.93137,41.17087
11.163414955,10.72585,174.0766,20.6055,1.330287,-0.02332158,0.2303611,-27.48866,-28.93137,41.17087
11.173274994,13.58318,184.3717,22.01546,1.360197,0.02662641,0.2432947,-30.06813,-28.20746,38.16788
11.183134079,14.08011,194.6072,21.46374,1.403229,0.03920865,0.2528508,-30.06813,-28.20746,38.16788
11.192994118,12.4651,204.4857,21.70895,1.439661,0.03409,0.2292868,-30.06813,-28.20746,38.16788
11.202853203,11.16066,212.4599,22.01546,1.472331,0.02897962,0.2167981,-30.06813,-28.20746,38.16788
11.212712765,8.80025999999999,218.3513,23.79325,1.514381,0.02104641,0.2079854,-30.06813,-28.20746,38.16788
11.222572804,4.82484,224.4212,25.32583,1.586524,0.03493189,0.2367847,-35.33794,-27.47577,33.51437
11.232431889,1.719045,230.9077,25.87755,1.651192,0.0555482,0.2614346,-35.33794,-27.47577,33.51437
11.244756222,-1.759447,231.0267,23.11892,1.690851,0.02257432,0.1987744,-35.33794,-27.47577,33.51437
11.254615784,-3.809272,246.4395,26.18407,1.822472,-0.00549282,0.3188574,-35.33794,-27.47577,33.51437
11.264475823,-4.181968,252.0333,25.32583,1.848859,-0.003802499,0.3180164,-35.33794,-27.47577,33.51437
11.274334908,-3.99562,252.3309,25.75495,1.869552,-0.001978751,0.366136,-40.62695,-26.03719,26.74087
11.284194946,-6.41814000000001,260.7216,27.28752,1.935236,0.05234447,0.4231622,-40.62695,-26.03719,26.74087
11.294054031,-10.45567,267.9222,27.34883,1.970544,0.08428071,0.4214909,-40.62695,-26.03719,26.74087
11.303913593,-16.60515,272.8019,27.71664,2.012583,0.1098143,0.5131136,-40.62695,-26.03719,26.74087
11.313773155,-23.87271,277.3841,30.10746,2.022186,0.1166846,0.5058467,-40.62695,-26.03719,26.74087
11.323632717,-30.70546,282.5614,29.67834,2.026073,0.09913538,0.488392,-46.31609,-24.27337,16.57279
11.333492756,-33.43856,285.8939,30.23007,1.9916,0.08460819,0.4590504,-46.31609,-24.27337,16.57279
11.343351841,-31.6372,286.489,32.43697,1.979669,0.06456757,0.4633641,-46.31609,-24.27337,16.57279
11.353210926,-30.39488,286.0129,35.68604,1.957533,0.08560192,0.5448418,-46.31609,-24.27337,16.57279
11.363070965,-31.88566,290.2381,32.74349,1.948672,0.07454919,0.6028579,-46.31609,-24.27337,16.57279
11.372930527,-32.8174,293.6301,32.31437,1.876717,0.03044758,0.5613417,-50.53349,-22.19965,3.448587
11.382790089,-30.39488,292.7374,36.85079,1.81387,-0.001772424,0.5523815,-50.53349,-22.19965,3.448587
11.392649651,-26.73005,289.9405,40.09985,1.807907,-0.02138005,0.5283411,-50.53349,-22.19965,3.448587
11.402508736,-22.75463,287.0246,38.75118,1.786542,-0.05716579,0.5086964,-50.53349,-22.19965,3.448587
11.412368775,-16.85361,283.6921,37.89294,1.693655,-0.06516036,0.5425384,-50.53349,-22.19965,3.448587
11.424693108,-8.71642900000001,279.8835,34.27607,1.594467,-0.0495419,0.5297079,-51.00726,-20.90093,-9.367326
11.43455267,-5.05159,275.1228,33.05,1.504945,0.01495233,0.5511752,-51.00726,-20.90093,-9.367326
11.444411755,-5.424286,269.767,32.37567,1.443153,0.07574357,0.5578402,-51.00726,-20.90093,-9.367326
11.454271793,-12.94031,266.494,30.78179,1.36512,0.0574068,0.523816,-51.00726,-20.90093,-9.367326
11.464130879,-18.90344,261.1382,32.06916,1.289799,-0.02611982,0.4877655,-51.00726,-20.90093,-9.367326
11.473990917,-17.35054,255.2468,36.36037,1.171219,-0.1729337,0.4168158,-47.36961,-18.53277,-21.31961
11.483850479,-6.29390900000001,247.3916,40.65158,1.042942,-0.2763574,0.3904569,-47.36961,-18.53277,-21.31961
11.493709564,10.35316,237.5727,42.98109,0.9168558,-0.2946628,0.3484923,-47.36961,-18.53277,-21.31961
11.503569603,31.90738,228.4083,40.09985,0.7891335,-0.1500141,0.2940294,-47.36961,-18.53277,-21.31961
11.513428688,49.921,219.4224,33.23391,0.6794276,0.0152767,0.251464,-47.36961,-18.53277,-21.31961
11.523288727,57.18856,212.5789,25.38713,0.5846393,0.1226675,0.1756118,-41.45917,-17.24774,-29.87943
11.533147812,57.4370199999998,202.9385,19.07292,0.4765542,0.1613463,0.1046404,-41.45917,-17.24774,-29.87943
11.543007374,55.69778,193.3575,13.98477,0.3772413,0.1028539,0.05332946,-41.45917,-17.24774,-29.87943
11.552867413,52.90256,177.6472,9.325744,0.2691543,0.02413989,-0.04930141,-41.45917,-17.24774,-29.87943
11.562726498,46.62885,159.9135,7.97707799999999,0.160186,-0.007820463,-0.1395452,-41.45917,-17.24774,-29.87943
11.572586536,39.92033,140.1565,6.62841199999998,0.1228192,-0.04650306,-0.1153791,-34.02817,-16.67439,-35.43079
11.582445621,35.63433,124.5057,3.072838,0.07157566,-0.0815875,-0.136988,-34.02817,-16.67439,-35.43079
11.594770431,33.33605,103.7371,1.111142,-0.007933473,-0.1397041,-0.1349077,-34.02817,-16.67439,-35.43079
11.604629517,32.03161,87.8481799999999,-0.973159599999999,-0.05306156,-0.1921076,-0.1179347,-34.02817,-16.67439,-35.43079
11.614489555,30.60295,74.1611200000002,-0.4827355,-0.1003613,-0.180279,-0.096076,-34.02817,-16.67439,-35.43079
11.62434864,31.65891,61.6047399999999,1.111142,-0.1104367,-0.1243027,-0.06814563,-28.12117,-18.25096,-38.00685
11.634208202,32.03161,52.0238,1.540263,-0.1103423,-0.06316477,-0.1150718,-28.12117,-18.25096,-38.00685
11.644067764,33.21181,41.60973,1.417657,-0.1239184,0.005182912,-0.1535958,-28.12117,-18.25096,-38.00685
11.653927326,31.16199,33.15947,0.743324399999998,-0.1354694,0.02816234,-0.227034,-28.12117,-18.25096,-38.00685
11.663787365,31.34834,22.98344,0.8659304,-0.2021093,0.06472959,-0.3101147,-28.12117,-18.25096,-38.00685
11.67364645,29.36063,10.36754,2.153293,-0.2732112,0.1015113,-0.3255629,-24.0081,-19.78261,-38.84519
11.683505535,23.89443,-6.89004799999999,1.969384,-0.3056003,0.1493953,-0.3266139,-24.0081,-19.78261,-38.84519
11.693365574,14.94973,-21.29121,2.459808,-0.1623738,0.2007041,-0.2184856,-24.0081,-19.78261,-38.84519
11.703225136,4.265797,-28.96786,3.072838,-0.1186937,0.2461823,-0.1324684,-24.0081,-19.78261,-38.84519
11.713084698,-6.666604,-36.70403,1.540263,-0.1168073,0.2181328,-0.09056246,-24.0081,-19.78261,-38.84519
11.72294426,-14.80379,-43.36903,0.3755064,-0.08842938,0.1230986,-0.06637137,-22.5064,-20.53082,-38.46129
11.732803345,-18.28228,-49.43893,-0.6053416,-0.08660887,-0.0005270003,-0.07750384,-22.5064,-20.53082,-38.46129
11.742663383,-15.67341,-59.5554500000002,0.007688423,-0.1001721,-0.06882664,-0.09178372,-22.5064,-20.53082,-38.46129
11.752522469,-11.69799,-72.4688899999998,-0.3601296,-0.04112907,-0.07211547,-0.0701306,-22.5064,-20.53082,-38.46129
11.762382507,-11.88434,-83.89461,-1.034463,0.03621563,-0.0336872,0.00288806,-22.5064,-20.53082,-38.46129
11.774707317,-16.10822,-96.09394,-2.260523,0.09889852,0.05539062,0.1215879,-24.00011,-20.13917,-38.00924
11.784566402,-23.18944,-101.1522,-3.486583,0.1336183,0.06998837,0.1691362,-24.00011,-20.13917,-38.00924
11.794425487,-32.87952,-105.7939,-4.038309,0.1310253,0.03357812,0.198097,-24.00011,-20.13917,-38.00924
11.804285526,-40.76824,-113.5896,-3.609189,0.170087,-0.03466583,0.2041524,-24.00011,-20.13917,-38.00924
11.814145088,-44.37096,-124.3607,-4.528733,0.2146826,-0.1086772,0.2163097,-24.00011,-20.13917,-38.00924
11.82400465,-45.05424,-139.2974,-6.490429,0.2846513,-0.1520766,0.286347,-27.72297,-20.4401,-36.25778
11.833864212,-44.37096,-154.0556,-8.636034,0.3720897,-0.1473788,0.4241082,-27.72297,-20.4401,-36.25778
11.843723297,-41.7621,-166.493,-10.96555,0.448636,-0.1223079,0.5703431,-27.72297,-20.4401,-36.25778
11.853583336,-40.08496,-176.193,-14.64373,0.5214299,-0.1212839,0.6713837,-27.72297,-20.4401,-36.25778
11.863442421,-35.36415,-188.7494,-17.46367,0.5642334,-0.1080083,0.736536,-27.72297,-20.4401,-36.25778
11.87330246,-33.37645,-202.0199,-22.184,0.6164884,-0.1108523,0.7630816,-32.12707,-19.23736,-32.8535
11.883162022,-30.20854,-219.5155,-26.2913,0.7000989,-0.1030175,0.8381488,-32.12707,-19.23736,-32.8535
11.893021107,-28.03448,-231.2982,-32.17638,0.9053354,-0.1065794,0.9607439,-32.12707,-19.23736,-32.8535
11.902881145,-25.98465,-233.5596,-36.5902,1.066563,-0.07138503,1.011455,-32.12707,-19.23736,-32.8535
11.912740231,-25.42561,-228.7393,-36.89672,1.117792,-0.038393,0.9942312,-32.12707,-19.23736,-32.8535
11.922600269,-25.42561,-225.8829,-36.6515,1.098631,-0.04520271,0.910587,-38.81742,-17.97237,-26.87676
11.932459354,-21.20173,-225.7044,-38.42929,1.09644,-0.1364502,0.8489898,-38.81742,-17.97237,-26.87676
11.944784164,-6.666604,-228.2633,-39.59405,1.180452,-0.2753744,0.7167569,-38.81742,-17.97237,-26.87676
11.95464325,10.16681,-230.0486,-37.63235,1.244148,-0.2955582,0.6342149,-38.81742,-17.97237,-26.87676
11.964503288,31.72103,-234.8093,-29.47905,1.297688,-0.2375477,0.6650893,-38.81742,-17.97237,-26.87676
11.974362373,47.87117,-236.4755,-22.91963,1.355641,-0.05535125,0.8416671,-45.11083,-18.15488,-18.77441
11.984221935,41.90804,-231.2982,-22.12269,1.346971,0.09107766,0.9805567,-45.11083,-18.15488,-18.77441
11.994081974,24.26712,-219.575,-21.57097,1.337436,0.184396,0.9733338,-45.11083,-18.15488,-18.77441
12.003941059,10.16681,-210.8867,-19.67057,1.299367,0.1486601,0.8767765,-45.11083,-18.15488,-18.77441
12.013801098,4.700608,-204.9358,-18.62842,1.297885,0.01353949,0.7927558,-45.11083,-18.15488,-18.77441
12.023660183,8.241216,-202.4959,-19.05754,1.338223,-0.06876948,0.8082582,-49.14143,-19.81183,-8.940198
12.033519745,11.53336,-195.3548,-24.3296,1.385817,-0.1394543,0.7921281,-49.14143,-19.81183,-8.940198
12.043379307,17.74495,-187.4997,-28.3756,1.353896,-0.1844701,0.6719241,-49.14143,-19.81183,-8.940198
12.053238869,28.36677,-185.8929,-28.49821,1.313107,-0.1868882,0.5129116,-49.14143,-19.81183,-8.940198
12.063098907,42.9019,-189.1659,-19.30276,1.338249,-0.1285133,0.5782171,-49.14143,-19.81183,-8.940198
12.072957993,47.00155,-192.796,-15.01155,1.465904,-0.01078574,0.7868014,-50.56636,-20.77517,-0.02324104
12.082817078,31.47257,-186.0715,-19.24145,1.570087,0.1038901,0.8859578,-50.56636,-20.77517,-0.02324104
12.092677116,12.71356,-172.0869,-20.83533,1.552507,0.2200236,0.8828757,-50.56636,-20.77517,-0.02324104
12.102536202,-3.188113,-159.1139,-23.16484,1.404078,0.2018649,0.6735109,-50.56636,-20.77517,-0.02324104
12.11239624,-8.77854399999999,-155.5434,-21.44836,1.290825,0.05711901,0.4927661,-50.56636,-20.77517,-0.02324104
12.124720097,-3.001765,-159.6495,-14.092,1.224526,-0.03057934,0.3611911,-50.86562,-22.48686,8.959476
12.134580135,0.663074000000001,-159.828,-13.54027,1.247578,-0.01828811,0.3403607,-50.86562,-22.48686,8.959476
12.144439697,0.973653600000002,-154.8293,-15.50197,1.250118,0.01384818,0.3396373,-50.86562,-22.48686,8.959476
12.154299259,2.588667,-151.8538,-17.70888,1.237474,0.01801579,0.3130175,-50.86562,-22.48686,8.959476
12.164158821,7.24736100000001,-151.0802,-15.93109,1.20615,0.01453423,0.2372419,-50.86562,-22.48686,8.959476
12.174017906,13.2726,-153.2225,-14.21461,1.204674,0.01305415,0.2353336,-48.94863,-23.53092,14.8504
12.183877945,17.37226,-153.4606,-13.72418,1.253601,0.02569547,0.2467229,-48.94863,-23.53092,14.8504
12.19373703,20.10535,-151.9133,-13.35637,1.29838,0.05044083,0.2515648,-48.94863,-23.53092,14.8504
12.203597069,21.28556,-149.2949,-13.72418,1.309096,0.08554004,0.2430827,-48.94863,-23.53092,14.8504
12.213456631,20.2917,-146.141,-14.52112,1.277626,0.09058722,0.2359066,-48.94863,-23.53092,14.8504
12.223316193,18.7388,-143.1655,-14.33721,1.215802,0.08364135,0.2166027,-46.27773,-24.57113,21.63366
12.233175755,17.31014,-141.2017,-14.092,1.171649,0.07100966,0.1965199,-46.27773,-24.57113,21.63366
12.24303484,17.06167,-134.0606,-13.90809,1.17217,0.04088822,0.2082382,-46.27773,-24.57113,21.63366
12.252894878,17.24802,-128.1097,-13.35637,1.140994,0.04965466,0.1541278,-46.27773,-24.57113,21.63366
12.262753964,17.80707,-130.014,-15.37936,1.127606,0.04069834,0.1331582,-46.27773,-24.57113,21.63366
12.272614002,18.42822,-127.8122,-14.27591,1.149029,0.04525394,0.129537,-44.36704,-24.88335,27.19697
12.282473087,17.06167,-123.2895,-14.39852,1.159257,0.06374949,0.1065457,-44.36704,-24.88335,27.19697
12.292332649,13.52107,-119.4809,-14.21461,1.172259,0.06283128,0.09053906,-44.36704,-24.88335,27.19697
12.304656982,8.986607,-113.3515,-14.1533,1.166887,0.06753334,0.05950734,-44.36704,-24.88335,27.19697
12.314517021,8.11698399999998,-109.0074,-15.19546,1.147722,0.05464572,0.04194135,-44.36704,-24.88335,27.19697
12.324376583,8.17909999999999,-104.7227,-15.62458,1.130938,0.01699697,0.03371643,-40.2244,-25.61367,31.02409
12.334235668,9.42141799999999,-101.0332,-15.93109,1.10213,-0.01644273,0.008447245,-40.2244,-25.61367,31.02409
12.344095707,12.83779,-97.10559,-16.0537,1.101086,-0.04660493,0.01299957,-40.2244,-25.61367,31.02409
12.353954792,17.24802,-92.2258600000001,-15.31806,1.102387,-0.06554502,0.02000917,-40.2244,-25.61367,31.02409
12.363814831,21.59614,-87.1080900000001,-13.9694,1.082714,-0.06086628,0.01649546,-40.2244,-25.61367,31.02409
12.373673916,24.14289,-81.8713100000001,-12.98855,1.060946,-0.04403843,0.01359332,-37.57191,-26.68952,35.24679
12.383533478,24.63982,-76.6345199999997,-11.76249,1.055278,-0.0275681,0.007104308,-37.57191,-26.68952,35.24679
12.39339304,25.69579,-70.7431300000002,-11.02685,1.044996,0.01174937,0.005186676,-37.57191,-26.68952,35.24679
12.403252602,25.26097,-64.8517499999999,-11.33337,1.032751,0.05593026,0.007171651,-37.57191,-26.68952,35.24679
12.41311264,21.72037,-58.66282,-11.70118,1.018663,0.08401457,0.003296666,-37.57191,-26.68952,35.24679
12.422971726,16.44052,-52.11684,-11.63988,1.001801,0.1023545,0.002733364,-34.56768,-25.95212,37.78435
12.432830811,11.53336,-45.8684,-11.76249,0.9816695,0.1060614,0.0006555747,-34.56768,-25.95212,37.78435
12.442690849,7.80640399999998,-39.67947,-12.19161,0.9653406,0.09707734,-0.02075149,-34.56768,-25.95212,37.78435
12.452550411,5.694463,-34.02612,-12.069,0.9532888,0.07504957,-0.02699522,-34.56768,-25.95212,37.78435
12.462409973,5.445999,-28.84884,-12.19161,0.9386702,0.06321841,-0.03311631,-34.56768,-25.95212,37.78435
12.474734306,5.694463,-22.65992,-11.39467,0.9333521,0.04805371,-0.04179408,-33.43327,-26.68355,39.06638
12.484593868,5.259652,-18.13724,-10.78164,0.9230298,0.04404284,-0.04886881,-33.43327,-26.68355,39.06638
12.49445343,5.197536,-13.49554,-9.80079199999999,0.9258925,0.02647201,-0.06966347,-33.43327,-26.68355,39.06638
12.504313469,6.19139099999999,-9.15138699999998,-8.636034,0.9210325,0.01667326,-0.07590649,-33.43327,-26.68355,39.06638
12.514172554,8.241216,-5.402325,-7.40997399999998,0.9146244,0.01367369,-0.08207006,-33.43327,-26.68355,39.06638
12.524032593,11.90605,-2.188842,-6.36782300000001,0.8988058,0.01446455,-0.09333872,-31.19015,-26.33595,39.4351
12.533891678,15.69513,1.322185,-4.957854,0.9122229,0.04672895,-0.08559046,-31.19015,-26.33595,39.4351
12.543750763,17.12379,4.892721,-3.731794,0.9210649,0.09355196,-0.07765414,-31.19015,-26.33595,39.4351
12.553610802,16.19205,8.87982000000001,-2.015311,0.9254992,0.1320347,-0.07739257,-31.19015,-26.33595,39.4351
12.563470364,13.76953,12.92643,-1.279675,0.9386057,0.1443284,-0.07412121,-31.19015,-26.33595,39.4351
12.573329925,10.35316,17.03254,0.0689914200000002,0.9493611,0.1327043,-0.084915,-31.1809,-27.43416,39.8945
12.583189487,7.49582399999998,20.66259,0.804627399999999,0.9621978,0.1045334,-0.1011493,-31.1809,-27.43416,39.8945
12.593048572,6.99889700000002,23.87607,2.214596,0.9707449,0.07293818,-0.1120801,-31.1809,-27.43416,39.8945
12.602908611,9.04872300000001,26.97054,3.011535,0.9720055,0.04422195,-0.1166532,-31.1809,-27.43416,39.8945
12.612767696,12.21663,29.52942,4.360201,0.9853944,0.03218485,-0.1140705,-31.1809,-27.43416,39.8945
12.622627735,13.95588,31.61223,6.13798800000002,0.9926934,0.04639733,-0.1044705,-31.18693,-26.32971,39.88319
12.632487297,13.33472,34.52817,7.73186600000001,1.001711,0.07178861,-0.102468,-31.18693,-26.32971,39.88319
12.642346382,10.47739,38.45576,9.325744,1.018264,0.0855833,-0.09635789,-31.18693,-26.32971,39.88319
12.654671192,4.638493,43.81157,11.96177,1.024158,0.08515394,-0.09500793,-31.18693,-26.32971,39.88319
12.664530754,-0.641360199999998,48.15572,13.86217,1.041305,0.05761917,-0.0815879,-31.56865,-25.96883,39.04918
12.674390316,-4.368315,53.03545,15.63995,1.058259,0.031494,-0.08109163,-31.56865,-25.96883,39.04918
12.684249401,-6.29390900000001,57.6176400000003,17.41774,1.05587,0.02123577,-0.08593614,-31.56865,-25.96883,39.04918
12.69410944,-7.90892299999997,61.6047399999999,18.45989,1.051175,0.01246031,-0.07923448,-31.56865,-25.96883,39.04918
12.703968525,-8.28161699999999,66.1274200000001,20.11507,1.055887,0.002823183,-0.065007,-31.56865,-25.96883,39.04918
12.713828564,-8.09526999999998,70.94764,21.34113,1.061426,0.004380398,-0.05213441,-33.82746,-25.2307,37.32485
12.723687649,-7.28776300000003,75.1132699999999,22.32198,1.067663,-0.001809914,-0.03071158,-33.82746,-25.2307,37.32485
12.733547687,-7.28776300000003,80.0525100000002,22.50589,1.093901,0.0009495208,-0.005664675,-33.82746,-25.2307,37.32485
12.743407249,-7.47411100000001,84.9322400000001,22.01546,1.112647,-0.0003057974,0.004599942,-33.82746,-25.2307,37.32485
12.753266334,-7.10141600000002,89.9309900000003,22.07677,1.084063,0.01110014,-0.0006467989,-33.82746,-25.2307,37.32485
12.763126373,-6.54237199999997,92.8469199999998,22.62849,1.026283,0.03436088,-0.01975336,-33.82746,-25.2307,37.32485
12.772985458,-8.90277699999999,95.0487600000003,23.24153,0.9649575,0.08099181,-0.02711138,-35.34036,-24.13215,35.65691
12.782845497,-14.8659,94.0966099999999,22.62849,0.9201067,0.1249307,-0.01268374,-35.34036,-24.13215,35.65691
12.792704582,-20.08364,91.1806799999998,29.12661,0.8443225,0.2171164,-0.03574401,-35.34036,-24.13215,35.65691
12.802564144,-31.38874,90.1690200000001,26.9197,0.8471122,0.2595766,-0.009069461,-35.34036,-24.13215,35.65691
12.812424183,-45.92386,89.0978599999997,24.65149,0.8226416,0.2404511,0.009327479,-35.34036,-24.13215,35.65691
12.824748516,-56.6078,80.8856299999999,25.69365,0.7867332,0.1952968,-0.008751392,-37.98131,-24.15005,32.21368
12.834608078,-61.08014,75.8868799999997,24.22237,0.846171,0.1302509,0.02339648,-37.98131,-24.15005,32.21368
12.844467163,-62.1982299999998,71.60223,24.7741,0.9525939,0.06123351,0.0534036,-37.98131,-24.15005,32.21368
12.854327202,-57.5395400000001,66.84152,27.10361,1.071148,-0.007350679,0.04059271,-37.98131,-24.15005,32.21368
12.864186287,-46.91772,61.9022800000003,30.29137,1.183339,-0.0316986,0.03064183,-41.00432,-23.06364,28.44101
12.874046326,-35.11569,56.78451,32.31437,1.274601,-0.02850905,0.01690886,-41.00432,-23.06364,28.44101
12.883905411,-27.53755,49.76246,33.05,1.306677,0.03882192,-0.01125284,-41.00432,-23.06364,28.44101
12.893764973,-28.59352,42.02629,30.10746,1.297196,0.1281145,-0.05397128,-41.00432,-23.06364,28.44101
12.903624535,-38.6563,35.30179,27.34883,1.272049,0.1344019,-0.1345445,-41.00432,-23.06364,28.44101
12.913484097,-50.64467,25.54232,19.50204,1.17144,0.1588085,-0.136259,-42.89137,-23.0777,25.89011
12.923344135,-69.9006000000001,20.48406,12.4522,1.080398,0.1156472,-0.1415553,-42.89137,-23.0777,25.89011
12.93320322,-89.65347,13.87857,5.402352,0.9441917,0.07128316,-0.2310363,-42.89137,-23.0777,25.89011
12.943063259,-101.3934,6.97553399999999,-1.279675,0.8334476,-0.01638347,-0.2493658,-42.89137,-23.0777,25.89011
12.952922344,-100.7101,3.881069,-8.39082200000002,0.6923969,-0.1359117,-0.2579482,-42.89137,-23.0777,25.89011
12.962781906,-84.4357299999999,-0.4035742,-16.85064,0.5532983,-0.2873766,-0.2232208,-43.27229,-23.45935,24.61554
12.972641468,-57.4774200000001,-0.701118900000002,-22.61312,0.4517669,-0.443907,-0.2005724,-43.27229,-23.45935,24.61554
12.98250103,-22.63039,-4.628708,-22.98093,0.4253746,-0.4949924,-0.1359354,-43.27229,-23.45935,24.61554
12.992361069,11.96817,-4.50969,-21.93878,0.4398812,-0.3847066,-0.08729146,-43.27229,-23.45935,24.61554
13.004684925,44.0821,-1.117681,-20.95794,0.4752819,-0.1892405,-0.08183361,-43.27229,-23.45935,24.61554
13.014544487,61.97149,-2.010315,-14.33721,0.4972595,-0.03496373,-0.1282856,-43.27869,-24.58784,22.89848
13.024404049,68.9284700000002,-9.44893200000001,-14.092,0.5915732,0.07968357,-0.1430382,-43.27869,-24.58784,22.89848
13.034264088,64.8909299999998,-14.86425,-13.66288,0.7221235,0.1326571,-0.2096229,-43.27869,-24.58784,22.89848
13.044123173,50.91485,-24.14764,-12.43682,0.853991,0.164254,-0.2701773,-43.27869,-24.58784,22.89848
13.053982258,38.30532,-30.69362,-11.45597,0.9265002,0.134033,-0.3251361,-43.27869,-24.58784,22.89848
13.063842297,30.0439,-27.95621,-10.22991,0.8636764,0.01797979,-0.3702649,-43.27151,-24.20188,24.17498
13.073701859,30.47871,-37.06108,-10.78164,0.7920378,-0.1602416,-0.3630807,-43.27151,-24.20188,24.17498
13.08356142,45.635,-49.31992,-9.06515500000003,0.7977564,-0.288584,-0.3436398,-43.27151,-24.20188,24.17498
13.093420982,62.6547599999999,-63.0664799999998,-5.264369,0.8470549,-0.3092541,-0.2625737,-43.27151,-24.20188,24.17498
13.103280067,71.1646400000001,-73.2425099999999,-2.321826,0.905028,-0.16638,-0.1907935,-43.27151,-24.20188,24.17498
13.113140106,69.3632700000002,-78.6578200000002,3.624565,0.8629738,0.07864235,-0.1531447,-41.7634,-23.8216,26.27594
13.122999191,55.07662,-84.0136299999998,9.38704699999999,0.8160419,0.2895848,-0.1085261,-41.7634,-23.8216,26.27594
13.13285923,33.21181,-84.9657699999999,12.5748,0.7921764,0.3715071,-0.1362465,-41.7634,-23.8216,26.27594
13.142718792,11.90605,-85.9774199999998,16.25298,0.7213529,0.2650999,-0.1854926,-41.7634,-23.8216,26.27594
13.152578354,-4.181968,-90.5596099999999,18.7051,0.6492311,0.1367577,-0.2416142,-41.7634,-23.8216,26.27594
13.162437916,-13.49935,-108.7693,22.6898,0.630371,0.09667691,-0.7630526,-39.13049,-22.33111,29.70408
13.174762249,-35.11569,-132.6919,50.39875,0.6947703,0.07754309,-1.474785,-39.13049,-22.33111,29.70408
13.184621811,-87.4794099999998,-156.436,72.5904300000002,0.5278698,0.3450013,-1.388206,-39.13049,-22.33111,29.70408
13.194481373,-88.5353800000002,-150.6041,14.5365,1.072306,0.2733409,1.700017,-39.13049,-22.33111,29.70408
13.204340935,-134.8117,-150.4851,11.10353,0.8793414,0.2735468,-0.252365,-39.13049,-22.33111,29.70408
13.21420002,-125.867,-149.7115,46.65927,0.8094308,0.8450747,-0.9298837,-36.1235,-21.58836,32.62572
13.224060059,-107.3565,-181.6678,-11.27206,1.202997,1.722588,-0.3928215,-36.1235,-21.58836,32.62572
13.233919144,-190.8403,-161.1372,-38.91972,2.146079,0.8513296,0.6942934,-36.1235,-21.58836,32.62572
13.243779182,-241.7753,-131.0257,4.973231,2.51194,-0.2348963,-0.1960647,-36.1235,-21.58836,32.62572
13.253638744,-124.1278,-97.8792100000001,32.9274,2.190578,-0.7343118,-0.7740929,-36.1235,-21.58836,32.62572
13.263498306,6.99889700000002,-79.4314399999997,-5.87739899999999,0.9525577,-0.4888429,-0.6484734,-32.36776,-22.71191,34.34609
13.273357868,22.03095,-71.6952699999997,-56.69758,0.1840039,-0.1917353,-0.7073713,-32.36776,-22.71191,34.34609
13.283216953,46.06981,-110.3761,-53.50983,1.046761,0.3760947,0.09640907,-32.36776,-22.71191,34.34609
13.293076992,53.71007,-126.146,-45.84695,2.111757,0.2873197,0.1207338,-32.36776,-22.71191,34.34609
13.302936077,17.80707,-108.8884,-27.39475,2.990691,-0.2774885,-0.3565913,-32.36776,-22.71191,34.34609
13.312796116,-13.56147,-109.1859,59.4102899999999,3.868263,-0.9568256,-0.7476493,-28.2247,-26.4177,36.02691
13.322655678,-31.45086,-86.5129999999997,94.5982099999997,2.306683,-0.6075453,-0.7229244,-28.2247,-26.4177,36.02691
13.332514763,-105.3067,-8.79433299999997,12.4522,0.7410981,-0.4946353,-0.2669409,-28.2247,-26.4177,36.02691
13.342374802,-146.738,-41.46474,-14.0307,0.1865406,-0.3308324,-0.82311,-28.2247,-26.4177,36.02691
13.354699135,-98.1633500000002,-36.28746,29.67834,-0.09068794,0.5054804,-0.8643336,-28.2247,-26.4177,36.02691
13.364558697,-37.97302,-29.80099,26.7358,-0.4181625,1.20913,-0.8681039,-23.42132,-26.08713,37.27863
13.374418259,-11.38741,-32.5384,-9.80079199999999,-0.07977752,0.4588834,-0.8586528,-23.42132,-26.08713,37.27863
13.384277821,1.160001,-28.5513,-16.115,0.4119909,0.08625193,-0.8213657,-23.42132,-26.08713,37.27863
13.394136906,27.24869,-22.77893,-22.98093,0.6629384,-0.1247471,-0.9733581,-23.42132,-26.08713,37.27863
13.403996945,39.54764,-6.830539,-16.48282,0.9411064,-0.2117917,-0.7063511,-23.42132,-26.08713,37.27863
13.41385603,29.98178,-1.534244,-17.27976,1.176543,-0.08099481,-0.5111727,-23.03951,-28.68006,36.47091
13.423716068,24.82616,2.571872,-13.9694,1.567393,0.02024413,-0.3898594,-23.03951,-28.68006,36.47091
13.43357563,8.241216,1.381694,-0.850553500000001,2.031494,-0.09676387,-0.5062398,-23.03951,-28.68006,36.47091
13.443434715,-14.24475,16.49696,24.16107,1.965564,-0.2330445,-0.6176245,-23.03951,-28.68006,36.47091
13.453294754,-42.19691,51.3692,17.17253,1.064136,-0.13013,-0.7610858,-23.03951,-28.68006,36.47091
13.463153839,-50.58255,45.65634,7.91577499999999,0.6687608,-0.1302447,-0.7664732,-21.54464,-27.5813,37.28405
13.473013878,-31.45086,38.57478,13.49435,0.5724552,0.1145809,-0.6532978,-21.54464,-27.5813,37.28405
13.482872963,-13.80993,44.64469,9.44834999999999,0.6128752,0.1983752,-0.5932668,-21.54464,-27.5813,37.28405
13.492732525,-5.85909699999999,53.09496,7.42535099999997,0.6846067,0.1250209,-0.5997002,-21.54464,-27.5813,37.28405
13.502592564,-4.3062,56.48697,5.15714,0.7901188,-0.01939072,-0.5592949,-21.54464,-27.5813,37.28405
13.512451649,0.911537699999999,58.3912500000001,9.632258,0.9034247,-0.06503794,-0.542127,-23.04273,-28.68629,36.02282
13.524775982,6.56408599999997,64.2826400000001,11.77786,0.9959076,-0.01747702,-0.5348974,-23.04273,-28.68629,36.02282
13.534636021,9.17295499999997,68.5077700000002,11.65526,1.001547,0.03328462,-0.5072349,-23.04273,-28.68629,36.02282
13.544495583,10.22893,72.25684,12.82001,0.9760178,0.08185602,-0.4710004,-23.04273,-28.68629,36.02282
13.554354668,8.92449099999999,76.0059000000001,14.78171,0.9262183,0.09218296,-0.4543899,-23.04273,-28.68629,36.02282
13.564214706,7.43370899999999,79.2193800000003,17.35644,0.8653626,0.08280168,-0.4766033,-25.29707,-28.68356,34.37004
13.574073791,5.694463,81.5997400000001,20.05377,0.8205328,0.08489426,-0.4615707,-25.29707,-28.68356,34.37004
13.58393383,4.203681,83.6825499999999,21.15722,0.8358846,0.07412301,-0.3856877,-25.29707,-28.68356,34.37004
13.593792915,-0.3307806,83.14697,22.56719,0.891695,0.03011782,-0.3140162,-25.29707,-28.68356,34.37004
13.603652477,-4.865242,83.0874600000001,21.52504,0.9807866,0.01787628,-0.2851997,-25.29707,-28.68356,34.37004
13.613512516,-9.58605199999997,84.9917400000003,23.54804,1.036206,-0.001611166,-0.2923836,-28.3041,-28.31029,32.26927
13.623371601,-15.42495,86.4199600000001,23.79325,1.04088,-0.0201825,-0.3247134,-28.3041,-28.31029,32.26927
13.63323164,-18.77921,87.7291600000001,23.05762,0.9963974,-0.03911988,-0.3386151,-28.3041,-28.31029,32.26927
13.643090725,-19.58672,85.7058600000002,20.91201,0.9394007,-0.05637642,-0.2641518,-28.3041,-28.31029,32.26927
13.652950764,-20.39422,84.6942100000002,16.80471,0.9092444,-0.08646014,-0.1700527,-28.3041,-28.31029,32.26927
13.662809849,-16.91573,81.3021900000001,16.19168,0.8795769,-0.1019453,-0.206659,-30.87356,-28.31108,30.106
13.672669411,-9.08912500000002,78.7433100000002,16.19168,0.8558242,-0.09978959,-0.2245118,-30.87356,-28.31108,30.106
13.682529449,-3.747156,73.8040699999999,16.6821,0.8527836,-0.04028203,-0.1798799,-30.87356,-28.31108,30.106
13.692388534,-1.386751,70.8286200000002,12.4522,0.8999789,-0.008064825,-0.1347567,-30.87356,-28.31108,30.106
13.704712868,2.278088,67.7341500000002,11.04223,0.9556652,0.00718789,-0.09181452,-30.87356,-28.31108,30.106
13.71457243,2.09174,65.4728199999998,7.36404799999998,0.9890513,0.006052422,-0.08415355,-33.50284,-28.67842,28.01084
13.724432468,3.334059,63.9850900000001,4.850626,0.9902981,-0.02755001,-0.0940389,-33.50284,-28.67842,28.01084
13.734291553,4.82484,60.8311199999998,2.398505,0.9749855,-0.04454405,-0.04796092,-33.50284,-28.67842,28.01084
13.744151592,4.203681,56.66549,1.111142,0.9844024,-0.05649734,-0.01369366,-33.50284,-28.67842,28.01084
13.754010677,5.073304,53.92808,-0.5440385,0.9898594,-0.03543429,0.0103663,-33.50284,-28.67842,28.01084
13.763870716,1.470581,50.59558,-2.015311,1.017481,-0.006456677,0.01644677,-35.7724,-27.58906,25.06648
13.773729801,-14.67956,50.77411,-2.015311,1.03689,-0.041263,-0.09769387,-35.7724,-27.58906,25.06648
13.783589363,-19.02767,48.98884,-1.831402,0.9875759,-0.1088313,-0.2216739,-35.7724,-27.58906,25.06648
13.793449402,-12.00857,43.69255,-2.321826,0.9825398,-0.2194204,-0.1142364,-35.7724,-27.58906,25.06648
13.803308487,-1.697331,39.4079,-1.954008,0.9963424,-0.2370631,-0.05036926,-35.7724,-27.58906,25.06648
13.813168526,16.50263,33.3975,-5.08046,0.9676639,-0.1539147,0.0005779499,-37.65147,-27.95968,23.35154
13.823027611,25.82002,26.25643,-6.67433799999998,0.9155148,-0.02800742,0.09007728,-37.65147,-27.95968,23.35154
13.832887173,22.40364,17.56812,-6.12261100000003,0.893222,0.1468562,0.1877106,-37.65147,-27.95968,23.35154
13.842746735,3.520406,11.3792,-5.69349,0.9417763,0.2321369,0.2356583,-37.65147,-27.95968,23.35154
13.852606297,-15.98399,7.03504299999997,-3.731794,0.9312132,0.2274339,0.1744316,-37.65147,-27.95968,23.35154
13.862465858,-30.457,0.965131299999997,-2.873553,0.907513,0.113677,0.1302022,-37.65665,-28.71379,22.0788
13.87232542,-38.59418,-2.605405,-2.62834,0.9422116,0.01779434,0.04312178,-37.65665,-28.71379,22.0788
13.884649754,-31.88566,-6.94955700000003,-3.057462,0.9795598,-0.07277328,-0.06024434,-37.65665,-28.71379,22.0788
13.894509315,-22.69251,-8.31826200000003,-4.283521,1.010113,-0.08038761,-0.08662084,-37.65665,-28.71379,22.0788
13.904369354,-17.41266,-9.62745900000001,-5.386975,1.008498,-0.02345541,-0.08324214,-37.65665,-28.71379,22.0788
13.914228439,-16.35669,-9.21089600000002,-4.222218,1.025522,-0.0176082,-0.1212922,-37.65544,-28.33941,22.52313
13.924088478,-14.55532,-9.50844099999999,-2.689644,1.084584,-0.04237331,-0.1170718,-37.65544,-28.33941,22.52313
13.933947563,-7.84680700000002,-8.02071800000003,-0.911856500000002,1.109356,-0.04477918,-0.1682403,-37.65544,-28.33941,22.52313
13.943807125,-0.5171283,-8.199244,-4.896551,1.027004,-0.06397248,-0.160999,-37.65544,-28.33941,22.52313
13.953666687,10.47739,-6.17594099999999,-0.2375236,0.9637316,0.006078688,-0.1470468,-37.65544,-28.33941,22.52313
13.963526249,12.40298,-5.64036,-2.260523,0.9628379,0.04515232,-0.1064515,-37.65465,-29.08194,22.08257
13.973386288,9.73199700000002,-5.93790500000001,-1.402281,0.9486874,0.08018924,-0.07288941,-37.65465,-29.08194,22.08257
13.983245373,4.949072,-5.93790500000001,-2.076613,0.9541903,0.0716187,-0.03566261,-37.65465,-29.08194,22.08257
13.993104458,-0.765591999999998,-6.41397600000001,-2.62834,0.9585274,0.05956852,-0.01522055,-37.65465,-29.08194,22.08257
14.002964497,-6.72872000000001,-6.05692300000003,-2.873553,0.9707541,0.02891772,-0.04248865,-37.65465,-29.08194,22.08257
14.012823582,-11.3253,-6.11643200000001,-3.118764,0.992546,-0.0290495,-0.1098972,-37.64941,-29.44385,22.53444
14.02268362,-13.18878,-5.87839600000002,-2.62834,1.002869,-0.07679046,-0.1483039,-37.64941,-29.44385,22.53444
14.032543182,-12.19492,-5.87839600000002,-2.567038,1.005749,-0.07824479,-0.1536285,-37.64941,-29.44385,22.53444
14.042402744,-8.90277699999999,-5.759378,-3.24137,0.9865637,-0.05256832,-0.1387624,-37.64941,-29.44385,22.53444
14.054727077,-3.560808,-5.759378,-3.118764,0.9790505,-0.02729553,-0.1293372,-37.64941,-29.44385,22.53444
14.064586639,-0.02020105,-5.87839600000002,-3.118764,0.9742861,0.008691098,-0.1241736,-37.27569,-29.44817,22.53251
14.074446201,2.153856,-5.461833,-3.24137,1.000468,0.008505068,-0.1058595,-37.27569,-29.44817,22.53251
14.08430624,3.706754,-4.50969,-3.118764,1.050295,0.02113272,-0.1002335,-37.27569,-29.44817,22.53251
14.094165325,2.278088,-2.367369,-2.444432,1.057191,0.01374821,-0.1392093,-37.27569,-29.44817,22.53251
14.10402441,1.470581,-1.117681,-1.463584,1.029862,0.006201062,-0.1408003,-37.27569,-29.44817,22.53251
14.113884449,2.029624,-0.5225921,-1.218372,1.007747,-0.003163948,-0.1204378,-37.27569,-29.44817,22.53251
14.123744011,2.588667,-0.2845563,-0.727947499999999,0.9894022,-0.003747253,-0.10293,-37.27569,-29.44817,22.53251
14.133603573,2.340204,-0.939154599999998,-0.727947499999999,0.9837075,0.004062473,-0.08313578,-37.27569,-29.44817,22.53251
14.143463135,1.03577,-1.593753,-0.4827355,0.9861356,0.009937789,-0.07928722,-37.27569,-29.44817,22.53251
14.153323174,0.1040308,-2.30786,-0.4827355,0.9831873,0.005025755,-0.08455784,-37.27569,-29.44817,22.53251
14.163182259,-0.4550124,-2.843441,-0.2988266,0.9796711,-0.0004012998,-0.09605431,-37.27293,-29.44282,22.91659
14.173041344,-1.821563,-2.90295,-0.6053416,0.989921,0.007494771,-0.09086256,-37.27293,-29.44282,22.91659
14.182901382,-3.250229,-2.90295,-0.727947499999999,1.000518,0.01144867,-0.09960581,-37.27293,-29.44282,22.91659
14.192760468,-4.803127,-2.724423,-0.973159599999999,0.9956504,0.005553693,-0.1029406,-37.27293,-29.44282,22.91659
14.202620506,-6.666604,-2.367369,-0.973159599999999,0.9944578,-0.006586545,-0.09344206,-37.27293,-29.44282,22.91659
14.212480068,-7.72257499999999,-1.950806,-0.789250600000002,1.010975,-0.01574831,-0.1100476,-37.27293,-29.44282,22.91659
14.22233963,-7.10141600000002,-1.653262,-0.850553500000001,1.020093,-0.01522822,-0.1226323,-37.27293,-29.44282,22.91659
14.234663963,-5.79698099999998,-0.939154599999998,-0.850553500000001,1.010096,-0.007075901,-0.1310466,-37.27293,-29.44282,22.91659
14.244523525,-4.927359,-0.4630831,-0.6666446,1.000745,0.002102157,-0.1270023,-37.27293,-29.44282,22.91659
14.254383087,-4.554663,-0.04652058,-0.4827355,0.984432,0.02095152,-0.1227771,-37.27293,-29.44282,22.91659
14.264243126,-4.989474,0.4295509,-0.4827355,0.9851401,0.006371471,-0.1195559,-36.90028,-29.75928,22.53372
14.274102211,-3.68504,0.846113400000001,-0.2988266,0.9954,-0.0008646634,-0.1269512,-36.90028,-29.75928,22.53372
14.283961296,-1.635215,1.02464,-0.2988266,1.006917,-0.01777733,-0.122466,-36.90028,-29.75928,22.53372
14.293821335,0.4767263,1.02464,-0.2988266,1.011376,-0.01381626,-0.114829,-36.90028,-29.75928,22.53372
14.303680897,1.222117,1.262676,-0.2988266,0.9976675,0.002658868,-0.101077,-36.90028,-29.75928,22.53372
14.313540459,0.2903785,1.500712,-0.1149176,0.9935793,0.02454459,-0.09460441,-36.15249,-29.82927,22.53048
14.323400021,-1.014056,1.441203,-0.05361458,1.002097,0.02125814,-0.08277356,-36.15249,-29.82927,22.53048
14.333259106,-2.815417,1.679239,0.0689914200000002,1.019549,0.004769174,-0.1090382,-36.15249,-29.82927,22.53048
14.343119145,-3.125997,1.738747,0.743324399999998,1.018824,-0.02201981,-0.114046,-36.15249,-29.82927,22.53048
14.35297823,-1.945794,1.560221,0.682021400000003,1.018971,-0.03223053,-0.1122174,-36.15249,-29.82927,22.53048
14.362838268,0.5388422,1.857765,0.3755064,1.00072,-0.0231578,-0.1152351,-36.52547,-29.45146,22.91273
14.372697353,3.334059,1.322185,0.1915974,0.986281,-0.002361619,-0.115333,-36.52547,-29.45146,22.91273
14.382557392,4.514261,1.560221,0.2529004,0.9895277,0.02300586,-0.1060604,-36.52547,-29.45146,22.91273
14.392416954,3.271943,1.738747,0.3755064,0.9939376,0.02841739,-0.1008064,-36.52547,-29.45146,22.91273
14.404741287,2.650783,2.036292,0.5594154,0.9934627,0.02060555,-0.106616,-36.52547,-29.45146,22.91273
14.414600849,1.719045,2.274328,0.620718400000002,0.994731,0.01434991,-0.09087327,-36.89828,-30.12742,22.53749
14.424460411,0.849421699999999,2.15531,0.804627399999999,1.001156,0.01149568,-0.08859293,-36.89828,-30.12742,22.53749
14.434319973,-0.0823169599999999,2.036292,0.620718400000002,0.9972625,0.01097838,-0.08758341,-36.89828,-30.12742,22.53749
14.444180012,-1.324635,1.679239,0.682021400000003,0.9922826,0.01676871,-0.08890115,-36.89828,-30.12742,22.53749
14.454039097,-2.629069,1.798256,0.682021400000003,0.993169,0.01626289,-0.09610605,-36.89828,-30.12742,22.53749
14.463898182,-3.933504,1.381694,0.743324399999998,0.9996787,0.004644679,-0.09533849,-36.90396,-29.08434,22.52681
14.473758221,-3.436576,1.084149,0.988536299999999,1.005296,-0.01965174,-0.09945718,-36.90396,-29.08434,22.52681
14.483617306,-2.00791,1.084149,0.682021400000003,1.008646,-0.02061891,-0.1057427,-36.90396,-29.08434,22.52681
14.493477345,-0.4550124,0.846113400000001,0.804627399999999,0.9998057,-0.01924222,-0.1070427,-36.90396,-29.08434,22.52681
14.503336907,0.5388422,0.667586600000001,0.620718400000002,0.993991,-0.01341966,-0.09780587,-36.90396,-29.08434,22.52681
14.513195992,0.1040308,0.4295509,0.743324399999998,0.9976719,0.009983537,-0.09430642,-36.53145,-29.46304,22.08055
14.52305603,-0.5171283,0.2510241,0.4981124,1.004659,0.01643059,-0.07853801,-36.53145,-29.46304,22.08055
14.532915115,-2.070026,0.727095499999998,0.743324399999998,1.023209,0.01023708,-0.08700106,-36.53145,-29.46304,22.08055
14.542775154,-3.312345,1.381694,0.988536299999999,1.019142,-0.01034691,-0.116348,-36.53145,-29.46304,22.08055
14.552634239,-2.070026,1.500712,1.417657,1.008008,-0.0289656,-0.1240136,-36.53145,-29.46304,22.08055
14.562494278,0.1661467,1.61973,0.927233400000001,1.005101,-0.02361307,-0.1172182,-36.52823,-29.4568,22.52864
14.57235384,2.464436,1.679239,0.8659304,0.9957232,-0.01102525,-0.1121863,-36.52823,-29.4568,22.52864
14.584678173,2.526551,1.798256,0.682021400000003,0.9951891,0.01532181,-0.09230918,-36.52823,-29.4568,22.52864
14.594537735,1.222117,1.857765,0.682021400000003,0.9917971,0.01041846,-0.09421902,-36.52823,-29.4568,22.52864
14.604397297,-0.1444329,1.857765,0.927233400000001,0.9997562,0.004178525,-0.09007233,-36.52823,-29.4568,22.52864
14.614256859,-0.579244300000001,1.61973,0.927233400000001,0.9973563,-0.004618118,-0.09442516,-37.65096,-29.75688,22.08949
14.624115944,-0.3307806,1.381694,0.743324399999998,1.000289,-0.006057596,-0.09591669,-37.65096,-29.75688,22.08949
14.633975983,-0.2065488,1.203167,0.5594154,0.9973439,-0.01292151,-0.1026414,-37.65096,-29.75688,22.08949
14.643835068,0.2903785,0.786604499999998,0.3755064,0.9993183,-0.0138756,-0.1021984,-37.65096,-29.75688,22.08949
14.653695106,0.663074000000001,0.9056224,0.3755064,1.000205,-0.009987358,-0.1055327,-37.65096,-29.75688,22.08949
14.663554192,0.787305800000002,1.322185,0.4368094,1.001233,-0.007035141,-0.09929279,-36.90518,-29.45872,22.08248
14.67341423,1.03577,1.084149,0.4981124,1.001141,-0.003155512,-0.1026132,-36.90518,-29.45872,22.08248
14.683273792,1.470581,1.322185,0.2529004,0.9977521,-0.001711054,-0.09871905,-36.90518,-29.45872,22.08248
14.693132877,1.967508,1.262676,0.4368094,0.9957979,-0.000262967,-0.09724139,-36.90518,-29.45872,22.08248
14.702992916,2.153856,1.084149,0.2529004,1.005232,-0.001117204,-0.08779908,-36.90518,-29.45872,22.08248
14.712852001,2.09174,0.846113400000001,0.1915974,0.9968767,-0.002666826,-0.09200586,-36.53178,-29.40168,22.07992
14.72271204,1.843277,0.608077699999999,0.1302944,0.9955513,0.0007782987,-0.0785403,-36.53178,-29.40168,22.07992
14.732571125,1.097885,0.608077699999999,-0.2375236,1.001219,0.009560511,-0.08573496,-36.53178,-29.40168,22.07992
14.742431164,-0.2686647,0.965131299999997,0.007688423,1.007648,-0.007939342,-0.09603746,-36.53178,-29.40168,22.07992
14.75475502,-1.448867,0.9056224,0.007688423,1.016442,-0.01860558,-0.106316,-36.53178,-29.40168,22.07992
14.764615059,-0.3928965,1.262676,-0.1149176,1.016996,-0.02737082,-0.1092731,-37.65465,-29.08194,22.08257
14.774474621,1.408465,0.965131299999997,-0.05361458,0.9959698,-0.02023125,-0.1022043,-37.65465,-29.08194,22.08257
14.784334183,2.464436,1.084149,-0.6053416,0.9830151,0.007417799,-0.09507758,-37.65465,-29.08194,22.08257
14.794193745,2.153856,1.143658,-0.6053416,0.9927385,0.02066935,-0.08791634,-37.65465,-29.08194,22.08257
14.804053307,0.2282626,1.560221,-0.2988266,1.000619,0.0139187,-0.09000242,-37.65465,-29.08194,22.08257
14.813912868,-1.076172,1.560221,-0.4827355,1.000783,-0.002634247,-0.09254045,-37.27569,-29.44817,22.53251
14.823771954,-1.448867,1.61973,-0.6666446,1.000408,-0.01725261,-0.09697128,-37.27569,-29.44817,22.53251
14.833631992,-1.014056,1.322185,-0.911856500000002,1.006357,-0.01620181,-0.09033841,-37.27569,-29.44817,22.53251
14.843491077,-0.4550124,1.441203,-0.911856500000002,0.9935701,-0.01145165,-0.09107447,-37.27569,-29.44817,22.53251
14.853351116,-0.765591999999998,1.262676,-1.157069,0.9954363,0.002210183,-0.08571458,-37.27569,-29.44817,22.53251
14.863210678,-1.573099,1.203167,-1.095766,0.9915438,0.002669753,-0.08373842,-37.27924,-29.39305,22.08378
14.873069763,-2.00791,1.084149,-1.340978,0.9948359,0.010474,-0.08659467,-37.27924,-29.39305,22.08378
14.882929802,-2.132142,0.965131299999997,-1.095766,1.001784,-0.0001778909,-0.0887004,-37.27924,-29.39305,22.08378
14.892788887,-1.821563,0.727095499999998,-1.095766,0.9984336,0.0007892713,-0.0824149,-37.27924,-29.39305,22.08378
14.902648926,-2.256374,0.786604499999998,-1.340978,1.005859,-0.00937359,-0.08500249,-37.27924,-29.39305,22.08378
14.912508011,-2.31849,0.727095499999998,-1.157069,1.017561,-0.0161158,-0.09385175,-37.64774,-29.75064,22.53758
14.92236805,-1.262519,0.667586600000001,-1.095766,1.003857,-0.02258598,-0.09994064,-37.64774,-29.75064,22.53758
14.934691906,0.4146104,0.4890598,-1.095766,0.9943516,-0.003687499,-0.09868727,-37.64774,-29.75064,22.53758
14.944551945,0.911537699999999,0.667586600000001,-1.402281,0.9987275,0.009525992,-0.08905414,-37.64774,-29.75064,22.53758
14.95441103,0.725189899999998,0.727095499999998,-1.463584,0.9992796,0.008083559,-0.08571979,-36.90672,-29.77175,21.63752
14.964271069,0.04191487,0.786604499999998,-1.157069,0.9940318,0.005144591,-0.07848179,-36.90672,-29.77175,21.63752
14.97413063,-0.703476100000001,0.667586600000001,-1.340978,0.995939,-0.001687424,-0.08815063,-36.90672,-29.77175,21.63752
14.983990192,-0.2686647,0.5485688,-1.340978,0.9993402,-0.003616603,-0.09156978,-36.90672,-29.77175,21.63752
14.993849754,0.2282626,0.2510241,-1.463584,1.006841,-0.006434372,-0.08211648,-36.90672,-29.77175,21.63752
15.003708839,-0.1444329,0.370042,-1.524887,1.007608,-0.0001392351,-0.09213747,-36.90672,-29.77175,21.63752
15.013568878,-0.4550124,0.608077699999999,-1.524887,1.001734,0.005178185,-0.08769608,-38.02469,-29.75256,22.09142
15.023427963,-1.014056,0.727095499999998,-1.463584,0.9971715,0.01534645,-0.09042044,-38.02469,-29.75256,22.09142
15.033288002,-1.635215,0.608077699999999,-1.58619,0.994424,0.005609479,-0.08519226,-38.02469,-29.75256,22.09142
15.043147564,-2.31849,0.608077699999999,-1.463584,0.9969894,-0.005564015,-0.08628152,-38.02469,-29.75256,22.09142
15.053007126,-2.442722,0.5485688,-1.402281,1.010231,-0.01617851,-0.09326862,-38.02469,-29.75256,22.09142
15.062866688,-1.014056,0.310533,-1.463584,1.010138,-0.01327575,-0.09755559,-37.27401,-29.75496,22.53565
15.072725773,0.849421699999999,0.01298836,-1.647493,1.005243,-0.007461289,-0.09264475,-37.27401,-29.75496,22.53565
15.082585812,1.532697,0.07249729,-1.647493,0.9942622,0.01483961,-0.08894565,-37.27401,-29.75496,22.53565
15.092444897,0.973653600000002,0.01298836,-1.647493,0.9948034,0.01485877,-0.08511961,-37.27401,-29.75496,22.53565
15.104769707,-0.827707900000002,0.1320062,-1.463584,0.9986756,0.02269331,-0.08127508,-36.52777,-30.13798,22.08746
15.114628792,-1.697331,0.2510241,-1.58619,0.9993157,0.006140959,-0.0847783,-36.52777,-30.13798,22.08746
15.124488831,-1.510983,-0.2250474,-1.58619,1.007912,-0.01421102,-0.08219738,-36.52777,-30.13798,22.08746
15.134347916,-1.138287,-0.1655384,-1.708796,1.006239,-0.00842398,-0.09218787,-36.52777,-30.13798,22.08746
15.144207954,-0.765591999999998,-0.1655384,-1.524887,1.003277,-0.005040045,-0.0911587,-36.52777,-30.13798,22.08746
15.154067516,-0.641360199999998,-0.04652058,-1.708796,1.001158,-0.0002211878,-0.09875502,-37.28046,-29.76743,21.63946
15.163927078,-0.579244300000001,0.07249729,-1.892705,0.9982491,-0.0007280229,-0.09728025,-37.28046,-29.76743,21.63946
15.17378664,-0.3307806,-0.2250474,-1.892705,0.9997742,-0.001186834,-0.09347226,-37.28046,-29.76743,21.63946
15.183645725,0.1661467,-0.1060295,-1.831402,1.003559,0.004669832,-0.09778957,-37.28046,-29.76743,21.63946
15.193505764,0.5388422,-0.1655384,-1.831402,1.000148,0.009037472,-0.09291211,-37.28046,-29.76743,21.63946
15.203364849,0.3524944,-0.4035742,-1.770099,0.9998003,0.003214652,-0.0876851,-37.64896,-30.12503,22.09326
15.213224888,0.787305800000002,-0.4630831,-1.831402,0.9964151,0.002707226,-0.08524513,-37.64896,-30.12503,22.09326
15.22308445,1.656929,-0.582100999999999,-1.831402,1.00218,0.006634797,-0.08960693,-37.64896,-30.12503,22.09326
15.232944012,1.594813,-0.4035742,-2.015311,1.005117,0.008614363,-0.0877153,-37.64896,-30.12503,22.09326
15.242803574,1.222117,-0.1060295,-1.831402,1.006071,0.01008085,-0.08819572,-37.64896,-30.12503,22.09326
15.252662659,0.04191487,0.01298836,-1.708796,0.9990056,0.01630526,-0.09858487,-37.64896,-30.12503,22.09326
15.262522698,-0.2065488,0.01298836,-1.708796,0.9986653,0.01146116,-0.09191212,-37.64695,-30.49318,22.09703
15.272381783,-0.4550124,0.1320062,-1.708796,0.9919802,0.01095889,-0.08032029,-37.64695,-30.49318,22.09703
15.284706593,-0.827707900000002,-0.1655384,-2.015311,0.9943366,0.01241972,-0.08561274,-37.64695,-30.49318,22.09703
15.294565678,-0.579244300000001,-0.760627799999999,-1.892705,0.9949009,0.006098505,-0.08567413,-37.64695,-30.49318,22.09703
15.304425716,-0.765591999999998,-0.879645599999998,-1.647493,0.9993137,0.01346377,-0.07848687,-36.9007,-30.87619,21.64884
15.314284802,-1.324635,-1.296208,-1.647493,1.003645,0.02275864,-0.07559496,-36.9007,-30.87619,21.64884
15.32414484,-2.00791,-1.415226,-1.58619,1.006354,0.02906728,-0.08660193,-36.9007,-30.87619,21.64884
15.334004402,-3.125997,-1.534244,-1.340978,0.9962909,0.01536569,-0.08321973,-36.9007,-30.87619,21.64884
15.343863964,-3.436576,-1.77228,-1.279675,1.003603,0.003705959,-0.09540235,-36.9007,-30.87619,21.64884
15.353723526,-2.877533,-1.77228,-1.58619,1.001171,-0.0007059099,-0.0982801,-37.27523,-30.12934,22.09132
15.363582611,-1.821563,-2.069824,-1.708796,0.9996557,0.006590993,-0.09532173,-37.27523,-30.12934,22.09132
15.37344265,-1.324635,-1.891297,-1.708796,1.001056,0.009514093,-0.09771301,-37.27523,-30.12934,22.09132
15.383301735,-1.138287,-1.77228,-1.58619,1.00204,0.01782424,-0.08998971,-37.27523,-30.12934,22.09132
15.393161774,-1.076172,-1.415226,-1.524887,1.000993,0.01974895,-0.09331295,-37.27523,-30.12934,22.09132
15.403021336,-0.703476100000001,-1.17719,-1.402281,1.000568,0.01048666,-0.09673946,-37.2769,-29.82255,22.08818
15.412880898,-0.4550124,-1.058172,-1.58619,0.9980488,0.004585348,-0.1072957,-37.2769,-29.82255,22.08818
15.42274046,-0.0823169599999999,-1.17719,-1.524887,0.9986118,0.01046944,-0.09671172,-37.2769,-29.82255,22.08818
15.432599545,-0.2686647,-0.879645599999998,-1.58619,0.9975947,0.01923781,-0.09183123,-37.2769,-29.82255,22.08818
15.442459583,-0.827707900000002,-0.939154599999998,-1.58619,0.9991698,0.02172261,-0.08176952,-37.2769,-29.82255,22.08818
15.452318668,-1.573099,-1.117681,-1.58619,0.996126,0.02264209,-0.08890636,-36.9015,-30.13366,22.08939
15.464643479,-2.194258,-1.058172,-1.58619,0.999522,0.02168792,-0.09183802,-36.9015,-30.13366,22.08939
15.474503517,-2.566953,-1.355717,-1.402281,0.991264,0.02016615,-0.08885796,-36.9015,-30.13366,22.08939
15.484362602,-2.629069,-1.415226,-1.58619,0.9966766,0.02022278,-0.08653864,-36.9015,-30.13366,22.08939
15.494221687,-2.442722,-1.593753,-1.647493,0.9970927,0.01922979,-0.09278253,-36.9015,-30.13366,22.08939
15.504081726,-2.566953,-1.831789,-1.463584,0.9966448,0.02070193,-0.08845094,-36.53099,-30.14421,21.63936
15.513941288,-3.436576,-1.653262,-1.463584,1.001434,0.02706307,-0.09038232,-36.53099,-30.14421,21.63936
15.52380085,-4.119852,-2.010315,-1.58619,0.997058,0.02214926,-0.0927574,-36.53099,-30.14421,21.63936
15.533660412,-4.927359,-2.069824,-1.463584,0.9946877,0.01580222,-0.09277719,-36.53099,-30.14421,21.63936
15.543520451,-5.05159,-2.069824,-1.708796,0.997575,0.01483818,-0.09713928,-36.53099,-30.14421,21.63936
15.553379536,-4.989474,-2.069824,-1.524887,1.002538,0.01099603,-0.09532564,-36.52375,-30.87427,22.095
15.563238621,-5.175822,-1.831789,-1.770099,1.008255,0.01344529,-0.1044912,-36.52375,-30.87427,22.095
15.573098659,-4.430431,-1.653262,-1.58619,1.007269,-0.0007242208,-0.1175351,-36.52375,-30.87427,22.095
15.582958221,-2.629069,-1.415226,-1.340978,1.014169,-0.01285441,-0.1244446,-36.52375,-30.87427,22.095
15.592817783,-0.827707900000002,-0.879645599999998,-1.58619,1.014014,0.0007716384,-0.1238482,-36.52375,-30.87427,22.095
15.602677345,1.097885,-0.1655384,-1.463584,1.002252,0.007008705,-0.1197944,-36.15203,-30.51044,22.0893
15.612537384,1.781161,0.1320062,-1.647493,1.002795,0.01630442,-0.1077437,-36.15203,-30.51044,22.0893
15.622396469,1.967508,0.4890598,-1.463584,0.9968822,0.02649319,-0.101823,-36.15203,-30.51044,22.0893
15.634720802,0.849421699999999,0.727095499999998,-1.463584,1.000994,0.01584332,-0.09670031,-36.15203,-30.51044,22.0893
15.644580364,0.725189899999998,1.203167,-1.524887,1.004857,0.009028529,-0.1063969,-36.15203,-30.51044,22.0893
15.654440403,0.725189899999998,1.322185,-1.463584,1.004396,0.01489102,-0.09915284,-36.90472,-30.1399,21.6413
15.664299488,0.600958099999998,1.500712,-1.58619,1.001327,0.02459119,-0.1004648,-36.90472,-30.1399,21.6413
15.674158573,0.4146104,1.679239,-1.708796,0.9994455,0.02703657,-0.09275018,-36.90472,-30.1399,21.6413
15.684018612,0.04191487,1.917274,-1.647493,0.9911028,0.02549066,-0.09599873,-36.90472,-30.1399,21.6413
15.693878174,0.4767263,1.61973,-1.708796,0.9961959,0.004109403,-0.1000854,-36.90472,-30.1399,21.6413
15.703737736,1.284233,1.61973,-1.58619,1.000099,0.002188241,-0.1025532,-36.90347,-30.88154,21.26476
15.713597298,2.712899,1.381694,-1.524887,1.008409,0.01202455,-0.09444223,-36.90347,-30.88154,21.26476
15.723457336,3.520406,1.262676,-1.770099,1.001465,0.02121299,-0.09330732,-36.90347,-30.88154,21.26476
15.733316421,3.085595,1.441203,-1.647493,0.9954079,0.04356623,-0.08728195,-36.90347,-30.88154,21.26476
15.743175507,1.532697,1.61973,-1.708796,0.9882175,0.02792001,-0.09018671,-36.90347,-30.88154,21.26476
15.753035545,1.097885,1.381694,-1.524887,0.9926524,0.01966834,-0.09511155,-35.78152,-30.52099,21.63927
15.762895107,1.656929,1.02464,-1.708796,0.9980505,0.0187444,-0.09471709,-35.78152,-30.52099,21.63927
15.772754669,1.843277,0.965131299999997,-1.402281,1.000862,0.03240556,-0.09176667,-35.78152,-30.52099,21.63927
15.782614231,1.719045,0.9056224,-1.218372,1.004688,0.04803835,-0.08450127,-35.78152,-30.52099,21.63927
15.792473793,1.097885,0.9056224,-1.279675,0.9973556,0.04651034,-0.08536807,-35.78152,-30.52099,21.63927
15.802333355,0.4146104,1.02464,-0.789250600000002,0.998485,0.04314447,-0.07726617,-36.15525,-30.51668,21.6412
15.814657688,-0.3928965,0.667586600000001,-0.6666446,0.9999297,0.03240994,-0.08839895,-36.15525,-30.51668,21.6412
15.82451725,0.1661467,0.2510241,-0.5440385,0.9975006,0.01725808,-0.1004722,-36.15525,-30.51668,21.6412
15.834377289,1.284233,-0.2250474,-0.5440385,1.00006,0.01535928,-0.0938159,-36.15525,-30.51668,21.6412
15.844236374,1.408465,-0.04652058,-0.2988266,0.999845,0.03238581,-0.09462754,-36.15525,-30.51668,21.6412
15.854096413,0.4767263,0.07249729,-0.2988266,0.9974827,0.03141155,-0.0893309,-36.52454,-30.13174,22.53556
15.863955498,-0.4550124,0.1915152,-0.3601296,0.9964902,0.03481642,-0.08737122,-36.52454,-30.13174,22.53556
15.87381506,-0.703476100000001,0.2510241,-0.3601296,1.001065,0.01586375,-0.09142996,-36.52454,-30.13174,22.53556
15.883674622,-0.579244300000001,0.1915152,-0.2375236,1.002975,0.0148911,-0.09577818,-36.52454,-30.13174,22.53556
15.893534183,-0.3307806,0.1320062,-0.2375236,1.001992,0.02025156,-0.09140614,-36.52454,-30.13174,22.53556
15.903394222,-0.1444329,0.07249729,-0.1762206,0.9999455,0.02557928,-0.09324881,-37.27242,-31.24002,21.65454
15.913253307,-0.2686647,-0.04652058,-0.2988266,0.9916217,0.03233862,-0.08780194,-37.27242,-31.24002,21.65454
15.923113346,-0.641360199999998,0.01298836,0.007688423,0.9995496,0.02706628,-0.08508423,-37.27242,-31.24002,21.65454
15.932972431,-0.641360199999998,0.1915152,-0.1149176,0.9984406,0.02653209,-0.09513612,-37.27242,-31.24002,21.65454
15.942831993,-0.579244300000001,0.1915152,0.0689914200000002,1.00576,0.02366234,-0.09909824,-37.27242,-31.24002,21.65454
15.952691555,-0.5171283,0.1320062,-0.1149176,0.9970616,0.02019738,-0.09421153,-36.15601,-30.89017,21.26089
15.962551117,-0.3928965,-0.04652058,0.007688423,0.9990056,0.02069932,-0.09471419,-36.15601,-30.89017,21.26089
15.972410679,-0.3307806,0.1915152,-0.05361458,1.003339,0.03145949,-0.09037235,-36.15601,-30.89017,21.26089
15.984735489,-0.827707900000002,-0.04652058,0.1302944,1.000455,0.02168353,-0.09520575,-36.15601,-30.89017,21.26089
15.994594574,-0.765591999999998,-0.2250474,0.3142034,1.00002,0.01876533,-0.09378658,-36.15601,-30.89017,21.26089
16.004454136,-0.1444329,-0.1655384,0.0689914200000002,0.9945604,0.01771883,-0.1004264,-36.89949,-30.50181,22.09316
16.014314175,0.2903785,-0.4035742,0.007688423,0.9946776,0.02214631,-0.08793151,-36.89949,-30.50181,22.09316
16.02417326,0.600958099999998,-0.2250474,-0.05361458,1.004324,0.02317027,-0.09716514,-36.89949,-30.50181,22.09316
16.034033299,0.5388422,-0.2845563,0.0689914200000002,0.9999294,0.01922777,-0.100011,-36.89949,-30.50181,22.09316
16.043892384,0.5388422,-0.2250474,0.007688423,0.9994989,0.02363423,-0.09182127,-36.89949,-30.50181,22.09316
16.053752422,0.3524944,-0.04652058,0.007688423,0.99845,0.0284877,-0.09272375,-37.27644,-30.50373,21.647
16.063611507,0.1040308,0.1320062,0.0689914200000002,0.9994599,0.02362309,-0.094696,-37.27644,-30.50373,21.647
16.073471069,0.1661467,0.01298836,0.1302944,1.000934,0.02363786,-0.09423768,-37.27644,-30.50373,21.647
16.083331108,0.2903785,0.01298836,0.1302944,0.9998818,0.02653758,-0.09707341,-37.27644,-30.50373,21.647
16.093190193,0.4767263,-0.04652058,0.1915974,1.002829,0.02217306,-0.1000275,-37.27644,-30.50373,21.647
16.103050232,0.600958099999998,0.1915152,0.007688423,1.00195,0.01828668,-0.09621412,-36.15324,-30.88482,21.64497
16.112909317,0.725189899999998,0.07249729,0.2529004,0.9974898,0.02311373,-0.09610981,-36.15324,-30.88482,21.64497
16.122769356,0.849421699999999,0.2510241,0.1302944,1.001411,0.02900939,-0.09036557,-36.15324,-30.88482,21.64497
16.132628441,0.1040308,0.1320062,0.1915974,1.000898,0.03436858,-0.08743782,-36.15324,-30.88482,21.64497
16.142488003,-0.5171283,0.310533,0.4368094,0.9990454,0.02119889,-0.09135615,-36.15324,-30.88482,21.64497
16.152347565,-0.2686647,-0.04652058,0.3142034,1.003935,0.01587101,-0.0962628,-36.90271,-30.50805,21.64507
16.164672375,0.4767263,0.01298836,0.3142034,1.001013,0.02024295,-0.09139226,-36.90271,-30.50805,21.64507
16.17453146,0.1040308,-0.1655384,0.2529004,0.9902079,0.02892338,-0.08685221,-36.90271,-30.50805,21.64507
16.184391499,-0.2686647,-0.1060295,0.3142034,0.9935756,0.02649648,-0.09315029,-36.90271,-30.50805,21.64507
16.194251061,-0.951939799999999,-0.2250474,0.2529004,1.004436,0.01978465,-0.09192412,-36.90271,-30.50805,21.64507
16.204110146,-0.827707900000002,-0.04652058,0.5594154,1.002921,0.02219906,-0.09331974,-36.52576,-30.50612,22.09123
16.213970184,-0.2686647,-0.1655384,0.2529004,0.9984948,0.0236182,-0.09372389,-36.52576,-30.50612,22.09123
16.223829269,0.1661467,-0.1655384,0.3142034,1.002415,0.02414293,-0.09281693,-36.52576,-30.50612,22.09123
16.233689308,0.2903785,-0.1060295,0.620718400000002,1.000869,0.02801335,-0.09515823,-36.52576,-30.50612,22.09123
16.243548393,0.04191487,-0.2250474,0.4981124,1.004789,0.02902652,-0.09376796,-36.52576,-30.50612,22.09123
16.253408432,-0.2065488,-0.1060295,0.4981124,1.000965,0.02706433,-0.08893801,-37.27443,-30.87188,21.65077
16.263267517,0.1661467,-0.2845563,0.620718400000002,1.001,0.01584518,-0.09622119,-37.27443,-30.87188,21.65077
16.273127079,0.663074000000001,-0.4035742,0.5594154,1.005435,0.01149915,-0.09775867,-37.27443,-30.87188,21.65077
16.282987118,1.160001,-0.1655384,0.4981124,1.003847,0.01828719,-0.100554,-37.27443,-30.87188,21.65077
16.292846203,1.284233,-0.3440652,0.743324399999998,1.000003,0.02461912,-0.08990333,-37.27443,-30.87188,21.65077
16.302706242,1.097885,-0.2250474,0.743324399999998,0.9970095,0.02457658,-0.09417383,-36.15726,-30.14853,21.63743
16.312565327,0.787305800000002,-0.1655384,0.4981124,0.9945525,0.02552822,-0.09413078,-36.15726,-30.14853,21.63743
16.322425366,0.5388422,0.01298836,0.682021400000003,1.001533,0.01488561,-0.0938409,-36.15726,-30.14853,21.63743
16.334749222,1.284233,0.07249729,0.682021400000003,1.001494,0.01048042,-0.1005863,-36.15726,-30.14853,21.63743
16.344609261,1.719045,0.01298836,0.4981124,1.000589,0.01586316,-0.09046479,-36.15726,-30.14853,21.63743
16.354468346,1.594813,0.1320062,0.5594154,1.005798,0.02757911,-0.09283615,-36.52576,-30.50612,22.09123
16.364328384,0.725189899999998,0.310533,0.3755064,0.9990382,0.02510266,-0.08844791,-36.52576,-30.50612,22.09123
16.374187946,0.04191487,0.4890598,0.804627399999999,1.006908,0.0198136,-0.09004231,-36.52576,-30.50612,22.09123
16.384047508,-0.0823169599999999,0.4890598,0.804627399999999,0.9971172,0.01826035,-0.09183268,-36.52576,-30.50612,22.09123
16.39390707,0.3524944,0.5485688,0.682021400000003,0.9975599,0.01776322,-0.09567676,-36.52576,-30.50612,22.09123
16.403766155,0.911537699999999,0.1320062,0.5594154,0.9976373,0.01729707,-0.09041062,-37.27845,-30.13558,21.64323
16.413626194,1.03577,0.1915152,0.5594154,0.9956253,0.02361094,-0.08889105,-37.27845,-30.13558,21.64323
16.423485279,0.787305800000002,-0.04652058,0.620718400000002,0.9980456,0.02850753,-0.08648823,-37.27845,-30.13558,21.64323
16.433345318,0.2282626,-0.1655384,0.804627399999999,0.9971288,0.02168125,-0.08797037,-37.27845,-30.13558,21.64323
16.443204403,0.3524944,-0.1655384,0.743324399999998,1.000607,0.01879748,-0.08660667,-37.27845,-30.13558,21.64323
16.453064442,0.600958099999998,-0.2845563,0.8659304,1.003551,0.01638485,-0.08810659,-36.90547,-30.51339,21.26098
16.462924004,0.5388422,-0.2845563,0.804627399999999,0.9985729,0.01924642,-0.0918451,-36.90547,-30.51339,21.26098
16.472783566,0.5388422,-0.2250474,0.804627399999999,0.9946702,0.0128679,-0.0966353,-36.90547,-30.51339,21.26098
16.482643128,0.4767263,-0.1060295,0.804627399999999,1.000964,0.01778778,-0.09716269,-36.90547,-30.51339,21.26098
16.492502213,0.4767263,-0.1655384,0.927233400000001,0.9990845,0.02121003,-0.08848142,-36.90547,-30.51339,21.26098
16.502362251,0.1040308,-0.1060295,0.927233400000001,0.9970226,0.02897436,-0.0893449,-36.89748,-30.86996,22.09694
16.514687061,-0.2686647,-0.1655384,0.988536299999999,0.9960624,0.02799445,-0.08886029,-36.89748,-30.86996,22.09694
16.524546147,-0.3928965,-0.1060295,1.049839,0.9985317,0.02216403,-0.09229908,-36.89748,-30.86996,22.09694
16.534405232,-0.02020105,0.07249729,0.8659304,0.9975606,0.0138576,-0.09906413,-36.89748,-30.86996,22.09694
16.54426527,0.3524944,-0.04652058,0.8659304,0.9995292,0.01778415,-0.09474626,-36.89748,-30.86996,22.09694
16.554124832,0.2903785,-0.04652058,0.743324399999998,1.000002,0.01973663,-0.09425732,-36.52898,-30.51236,21.64314
16.563984394,-0.2065488,0.1320062,0.743324399999998,0.9971404,0.0207081,-0.08797875,-36.52898,-30.51236,21.64314
16.573843956,-1.138287,0.1915152,0.743324399999998,0.9955776,0.02213263,-0.09369485,-36.52898,-30.51236,21.64314
16.583703518,-1.510983,0.310533,0.620718400000002,1.001571,0.009525825,-0.09580345,-36.52898,-30.51236,21.64314
16.59356308,-1.386751,0.1915152,0.620718400000002,1.004531,0.004676583,-0.09828256,-36.52898,-30.51236,21.64314
16.603423118,-0.951939799999999,0.1320062,0.5594154,1.001593,0.006602642,-0.09678683,-35.78031,-30.14661,22.0836
16.613282204,-0.02020105,-0.04652058,0.682021400000003,0.9990648,0.01241635,-0.09766014,-35.78031,-30.14661,22.0836
16.623141289,-0.3307806,-0.04652058,0.4981124,0.9979674,0.02848524,-0.0922377,-35.78031,-30.14661,22.0836
16.633001327,-1.138287,-0.04652058,0.4368094,1.00295,0.02904272,-0.08511602,-35.78031,-30.14661,22.0836
16.642860889,-1.883678,-0.1060295,0.620718400000002,0.9990902,0.02072345,-0.08848561,-35.78031,-30.14661,22.0836
16.652720451,-1.883678,-0.1655384,0.620718400000002,1.000114,0.01195694,-0.09288698,-36.52898,-30.51236,21.64314
16.662580013,-1.014056,-0.2250474,0.5594154,1.002998,0.009039163,-0.0991823,-36.52898,-30.51236,21.64314
16.672440052,-0.3928965,-0.3440652,0.4368094,1.003006,0.01441195,-0.09386589,-36.52898,-30.51236,21.64314
16.682299137,-0.3928965,-0.3440652,0.4981124,1.002012,0.02074557,-0.08948546,-36.52898,-30.51236,21.64314
16.694623947,-0.579244300000001,-0.4035742,0.620718400000002,0.9994931,0.01533269,-0.09955843,-36.52898,-30.51236,21.64314
16.704483032,-0.5171283,-0.4035742,0.620718400000002,1.002049,0.006597662,-0.09918938,-36.52898,-30.51236,21.64314
16.714343071,0.1661467,-0.1655384,0.5594154,1.001073,0.003660299,-0.1015963,-36.52898,-30.51236,21.64314
16.724202156,0.663074000000001,-0.2845563,0.4981124,1.002436,0.01243162,-0.1015417,-36.52898,-30.51236,21.64314
16.734062195,0.600958099999998,0.07249729,0.3755064,1.001967,0.01682695,-0.09622668,-36.52898,-30.51236,21.64314
16.74392128,0.1040308,0.1320062,0.5594154,0.9999598,0.01777175,-0.0990653,-36.52898,-30.51236,21.64314
16.753780842,-0.579244300000001,0.1915152,0.620718400000002,0.9995437,0.01876474,-0.0928214,-36.9015,-30.13366,22.08939
16.763640404,-0.4550124,0.310533,0.4981124,0.9976357,0.01192614,-0.09524792,-36.9015,-30.13366,22.08939
16.773499966,-0.3307806,0.310533,0.4368094,0.9951802,0.009460583,-0.09810892,-36.9015,-30.13366,22.08939
16.783360004,0.3524944,-0.04652058,0.620718400000002,1.002545,0.01099788,-0.09484652,-36.9015,-30.13366,22.08939
16.793219089,0.725189899999998,0.01298836,0.2529004,1.001497,0.01633978,-0.09526569,-36.9015,-30.13366,22.08939
16.803079128,0.600958099999998,0.1320062,0.4981124,0.9981236,0.01974169,-0.08848011,-37.65017,-30.49941,21.64893
16.812938213,0.1661467,0.07249729,0.3755064,0.9980968,0.01485177,-0.0947506,-37.65017,-30.49941,21.64893
16.822798252,-0.02020105,0.07249729,0.3755064,0.995733,0.01290064,-0.09042058,-37.65017,-30.49941,21.64893
16.832657337,-0.3307806,0.01298836,0.620718400000002,1.007905,0.01055123,-0.09684347,-37.65017,-30.49941,21.64893
16.842516899,-0.1444329,-0.1060295,0.4981124,1.000139,0.007081876,-0.09532448,-37.65017,-30.49941,21.64893
16.852376938,0.3524944,-0.1060295,0.4368094,0.9991609,0.007073267,-0.09531061,-36.53099,-30.14421,21.63936
16.864701271,1.097885,-0.1060295,0.2529004,0.9961722,0.0143554,-0.09281056,-36.53099,-30.14421,21.63936
16.874560833,0.849421699999999,-0.1655384,0.3755064,0.9995351,0.02169163,-0.09087978,-36.53099,-30.14421,21.63936
16.884419918,-0.0823169599999999,-0.2250474,0.3755064,0.9995481,0.02169535,-0.08992153,-36.53099,-30.14421,21.63936
16.894279957,-0.3307806,-0.1060295,0.4981124,0.9981322,0.01681479,-0.09042174,-36.53099,-30.14421,21.63936
16.904139042,-0.3307806,-0.2845563,0.3142034,0.9976394,0.01436831,-0.09283136,-36.52454,-30.13174,22.53556
16.913999081,0.1661467,-0.5225921,0.1915974,1.000118,0.006099435,-0.09772846,-36.52454,-30.13174,22.53556
16.923858166,0.1040308,-0.3440652,0.1915974,1.001013,0.01145484,-0.09913362,-36.52454,-30.13174,22.53556
16.933718204,0.1040308,-0.3440652,0.1915974,0.9977493,0.009517383,-0.08904026,-36.52454,-30.13174,22.53556
16.94357729,-0.0823169599999999,-0.4630831,0.3142034,0.9966671,0.01387313,-0.09282168,-36.52454,-30.13174,22.53556
16.953437328,-0.2065488,-0.4035742,0.3142034,1.00091,0.01630762,-0.1024456,-36.52898,-30.51236,21.64314
16.96329689,-0.0823169599999999,-0.2845563,0.3142034,1.000018,0.01730002,-0.09523651,-36.52898,-30.51236,21.64314
16.973155975,-0.02020105,-0.2250474,0.5594154,1.000138,0.0109875,-0.09193711,-36.52898,-30.51236,21.64314
16.983016014,0.3524944,-0.2250474,0.3755064,0.9995769,0.01047434,-0.09768383,-36.52898,-30.51236,21.64314
16.992875099,0.5388422,-0.641609900000002,0.4981124,0.997682,0.01242757,-0.09141075,-36.52898,-30.51236,21.64314
17.002735138,0.600958099999998,-0.4035742,0.3755064,0.9971786,0.01144268,-0.09332868,-37.27845,-30.13558,21.64323
17.012594223,0.1661467,-0.5225921,0.1302944,0.99914,0.01048489,-0.09384392,-37.27845,-30.13558,21.64323
17.022454262,-0.5171283,-0.5225921,0.1915974,0.999637,0.01146792,-0.0924051,-37.27845,-30.13558,21.64323
17.032313824,-0.3928965,-0.4035742,0.0689914200000002,0.9966728,0.008992488,-0.09669655,-37.27845,-30.13558,21.64323
17.044638157,0.4767263,-0.641609900000002,-0.05361458,1.002088,0.006608803,-0.09631465,-37.27845,-30.13558,21.64323
17.054497242,0.849421699999999,-0.4630831,0.1915974,1.000555,0.01927106,-0.08995634,-36.15604,-29.77415,22.08176
17.064357281,0.849421699999999,-0.4630831,0.1302944,1.003916,0.01635387,-0.09721686,-36.15604,-29.77415,22.08176
17.074216843,0.5388422,-0.701118900000002,0.1915974,0.9971288,0.02168125,-0.08797037,-36.15604,-29.77415,22.08176
17.084076405,-0.2065488,-0.701118900000002,0.007688423,0.9946334,0.01871612,-0.09418942,-36.15604,-29.77415,22.08176
17.093935967,-0.2686647,-0.879645599999998,0.1302944,1.001073,0.008054358,-0.09772558,-36.15604,-29.77415,22.08176
17.103795052,-0.02020105,-0.760627799999999,0.2529004,1.000676,-0.004129259,-0.1016563,-38.39964,-30.12263,21.64902
17.11365509,1.160001,-0.879645599999998,0.1915974,1.001148,-0.00266522,-0.1016507,-38.39964,-30.12263,21.64902
17.123514175,2.029624,-0.820136700000001,0.0689914200000002,1.003019,0.009533168,-0.09726163,-38.39964,-30.12263,21.64902
17.133374214,2.153856,-0.760627799999999,0.007688423,0.994127,0.02017155,-0.09416991,-38.39964,-30.12263,21.64902
17.143233776,1.408465,-0.5225921,0.1915974,0.9995091,0.02607827,-0.08892559,-38.39964,-30.12263,21.64902
17.153093338,0.1661467,-0.2845563,0.3755064,0.9976026,0.02021654,-0.09038548,-37.27724,-29.7612,22.08755
17.1629529,-0.2065488,-0.3440652,0.3142034,0.9990026,0.01874558,-0.09664744,-37.27724,-29.7612,22.08755
17.172812939,-0.4550124,-0.2250474,0.3142034,0.9991262,0.009992737,-0.09528548,-37.27724,-29.7612,22.08755
17.182672024,-0.02020105,-0.2250474,0.1302944,1.00108,0.008056214,-0.09724646,-37.27724,-29.7612,22.08755
17.192531109,-0.0823169599999999,-0.3440652,0.1302944,1.003009,0.007577571,-0.09967399,-37.27724,-29.7612,22.08755
17.202391148,0.2903785,-0.4035742,0.1915974,0.9946377,0.01725267,-0.09516023,-37.27523,-30.12934,22.09132
17.214715958,-0.2686647,-0.2250474,0.2529004,0.9980403,0.01630036,-0.09761276,-37.27523,-30.12934,22.09132
17.224575043,-0.3307806,-0.4630831,0.3755064,1.004901,0.01636434,-0.0967516,-37.27523,-30.12934,22.09132
17.234434128,-0.3307806,-0.5225921,0.2529004,0.9995941,0.004620541,-0.1015671,-37.27523,-30.12934,22.09132
17.244294167,0.04191487,-0.582100999999999,0.2529004,1.000184,0.006606438,-0.09245393,-37.27523,-30.12934,22.09132
17.254153729,0.4767263,-0.4630831,0.1302944,1.00348,0.008553175,-0.1001517,-36.53099,-30.14421,21.63936
17.26401329,0.1661467,-0.4035742,0.2529004,1.000048,0.015844,-0.09429083,-36.53099,-30.14421,21.63936
17.273872852,-0.02020105,-0.641609900000002,0.2529004,0.9979854,0.01872583,-0.09950831,-36.53099,-30.14421,21.63936
17.283732891,-0.0823169599999999,-0.2845563,0.1915974,0.9995248,0.01485354,-0.09764613,-36.53099,-30.14421,21.63936
17.293591976,-0.2065488,-0.5225921,0.3755064,0.9971591,0.01143711,-0.09476605,-36.53099,-30.14421,21.63936
17.303452015,-0.2065488,-0.701118900000002,0.3142034,0.998656,0.01389963,-0.09045381,-37.6546,-30.19797,21.2617
17.3133111,0.1661467,-0.582100999999999,0.3142034,1.003053,0.006125262,-0.09777007,-37.6546,-30.19797,21.2617
17.323170662,0.2282626,-0.760627799999999,0.3755064,1.00588,0.01295576,-0.09966952,-37.6546,-30.19797,21.2617
17.333030224,0.1661467,-0.760627799999999,0.3142034,1.001054,0.01244285,-0.09529227,-37.6546,-30.19797,21.2617
17.342889786,-0.3307806,-0.760627799999999,0.3142034,0.9961627,0.0123998,-0.09522293,-37.6546,-30.19797,21.2617
17.352749825,-0.3307806,-0.760627799999999,0.3142034,1.002087,0.005631933,-0.09728128,-36.90317,-29.82687,22.08625
17.36260891,-0.2686647,-0.582100999999999,0.2529004,1.002532,0.007088544,-0.09919212,-36.90317,-29.82687,22.08625
17.372468948,-0.2065488,-0.4035742,0.3142034,1.000115,0.008539754,-0.09579103,-36.90317,-29.82687,22.08625
17.382328034,-0.2686647,-0.760627799999999,0.4981124,0.994676,0.01238132,-0.09663948,-36.90317,-29.82687,22.08625
17.394652844,-0.703476100000001,-0.4035742,0.3755064,1.00201,0.01098058,-0.09819344,-36.9007,-30.87619,21.64884
17.404511929,-0.2686647,-0.04652058,0.4981124,1.00042,0.007026765,-0.1106633,-36.9007,-30.87619,21.64884
17.414371967,0.4767263,-0.04652058,0.1915974,1.002066,0.0002554337,-0.1035559,-36.9007,-30.87619,21.64884
17.424231052,1.160001,0.1320062,0.2529004,1.003001,0.002204785,-0.1049904,-36.9007,-30.87619,21.64884
17.434091091,1.408465,0.310533,0.3142034,1.004885,0.01050126,-0.1030305,-36.9007,-30.87619,21.64884
17.443950176,0.911537699999999,0.4890598,0.3142034,1.000916,0.0202151,-0.09857909,-36.90472,-30.1399,21.6413
17.453810215,0.2903785,0.608077699999999,0.3755064,0.9961534,0.01483826,-0.09376462,-36.90472,-30.1399,21.6413
17.463669777,-0.02020105,0.608077699999999,0.4981124,1.000952,0.01387844,-0.1015083,-36.90472,-30.1399,21.6413
17.473528862,-0.02020105,0.4890598,0.2529004,0.9986334,0.007546258,-0.09769509,-36.90472,-30.1399,21.6413
17.483388901,-0.02020105,0.4890598,0.3755064,0.9966815,0.006065591,-0.09863816,-36.90472,-30.1399,21.6413
17.493247986,0.2282626,0.310533,0.3142034,0.9972314,0.007551912,-0.09288307,-36.90472,-30.1399,21.6413
17.503108025,0.2903785,0.4295509,0.3142034,1.001481,0.01438233,-0.09815718,-36.89995,-29.82063,22.53435
17.51296711,0.04191487,0.1915152,0.3142034,0.9956809,0.01288579,-0.09425355,-36.89995,-29.82063,22.53435
17.522827149,-0.2686647,0.1915152,0.2529004,0.9996065,0.01292394,-0.09335078,-36.89995,-29.82063,22.53435
17.53268671,-0.2065488,0.1320062,0.1915974,1.001057,0.01049096,-0.09674639,-36.89995,-29.82063,22.53435
17.542545796,-0.3307806,0.07249729,0.1302944,1.006468,0.00908229,-0.09587698,-36.89995,-29.82063,22.53435
17.552405834,-0.2686647,0.2510241,0.3142034,1.000008,0.006556306,-0.1053902,-36.15002,-30.87859,22.09307
17.564730167,0.2282626,0.1320062,0.3142034,1.000114,0.008051319,-0.09627434,-36.15002,-30.87859,22.09307
17.574589729,0.2903785,0.310533,0.2529004,1.003438,0.006588295,-0.1049596,-36.15002,-30.87859,22.09307
17.584449291,0.787305800000002,0.310533,0.1915974,0.9985524,0.009964295,-0.1015071,-36.15002,-30.87859,22.09307
17.594308853,0.973653600000002,0.4295509,0.1915974,0.996568,0.0128684,-0.1009751,-36.89949,-30.50181,22.09316
17.604168892,1.160001,0.667586600000001,0.2529004,0.9972754,0.00219398,-0.09436651,-36.89949,-30.50181,22.09316
17.614027977,1.470581,0.5485688,0.1302944,0.9991197,0.005596822,-0.09963527,-36.89949,-30.50181,22.09316
17.623887062,1.532697,0.4890598,0.0689914200000002,0.9977593,0.003173297,-0.09388595,-36.89949,-30.50181,22.09316
17.633747101,1.346349,0.5485688,0.007688423,0.9986639,0.01048429,-0.09287874,-36.89949,-30.50181,22.09316
17.643606663,0.911537699999999,0.727095499999998,0.1915974,1.000179,0.007581451,-0.09196644,-37.27845,-30.13558,21.64323
17.653466225,0.911537699999999,0.727095499999998,0.0689914200000002,0.9996152,0.009997041,-0.09529241,-37.27845,-30.13558,21.64323
17.663325787,0.787305800000002,0.846113400000001,0.0689914200000002,1.00342,0.01585928,-0.09817235,-37.27845,-30.13558,21.64323
17.673185825,0.600958099999998,0.965131299999997,0.1302944,0.9971438,0.005574034,-0.1010449,-37.27845,-30.13558,21.64323
17.68304491,0.663074000000001,0.965131299999997,0.0689914200000002,1.003547,0.009548613,-0.09439383,-37.27845,-30.13558,21.64323
17.692903995,0.600958099999998,1.262676,0.1302944,0.9960607,0.0138354,-0.1014389,-36.52576,-30.50612,22.09123
17.702764034,0.663074000000001,1.143658,0.1915974,0.9975858,0.01337659,-0.09763096,-36.52576,-30.50612,22.09123
17.712623596,0.725189899999998,1.084149,0.0689914200000002,0.9977022,0.008527516,-0.09336075,-36.52576,-30.50612,22.09123
17.722483158,0.973653600000002,1.02464,0.1915974,1.000169,0.01001991,-0.09050812,-36.52576,-30.50612,22.09123
17.73234272,1.160001,1.02464,0.1302944,0.9976878,0.007546932,-0.09528562,-36.52576,-30.50612,22.09123
17.744667053,1.222117,0.965131299999997,0.007688423,1.001649,0.009548106,-0.09005399,-37.27523,-30.12934,22.09132
17.754527092,0.849421699999999,1.02464,0.1915974,1.002168,0.01200201,-0.08572789,-37.27523,-30.12934,22.09132
17.764386177,0.4146104,0.786604499999998,0.2529004,0.9986733,0.01243989,-0.09046637,-37.27523,-30.12934,22.09132
17.774245739,0.1040308,0.608077699999999,0.1302944,0.99376,0.0148316,-0.08989696,-37.27523,-30.12934,22.09132
17.784105778,-0.5171283,0.5485688,0.3142034,0.9971729,0.01632332,-0.08945382,-37.27523,-30.12934,22.09132
17.793964863,-0.703476100000001,0.608077699999999,0.2529004,0.99724,0.004625014,-0.09482469,-36.90639,-29.83311,21.63815
17.803824902,-0.2065488,0.2510241,0.3142034,1.001138,0.00758449,-0.09341767,-36.90639,-29.83311,21.63815
17.813683987,0.2903785,0.310533,0.1915974,1.004117,0.002740821,-0.09445941,-36.90639,-29.83311,21.63815
17.823544025,0.1661467,0.310533,0.4368094,1.002485,0.0100043,-0.1001252,-36.90639,-29.83311,21.63815
17.83340311,0.1040308,0.4295509,0.3755064,1.000023,0.01241938,-0.09911137,-36.90639,-29.83311,21.63815
17.843262672,-0.2065488,0.5485688,0.3755064,0.9976907,0.01389473,-0.08948169,-36.53099,-30.14421,21.63936
17.853122711,-0.1444329,0.310533,0.3142034,0.9981661,0.009012829,-0.09480086,-36.53099,-30.14421,21.63936
17.862981796,0.2282626,0.4890598,0.4368094,1.00023,-0.001680249,-0.09635812,-36.53099,-30.14421,21.63936
17.872841835,0.5388422,0.4890598,0.3755064,1.002178,0.001263868,-0.09444423,-36.53099,-30.14421,21.63936
17.88270092,1.470581,0.4890598,0.3755064,0.9997561,-0.0002155342,-0.09394301,-36.53099,-30.14421,21.63936
17.892560959,1.097885,0.4295509,0.3142034,0.9986596,0.01194774,-0.09190793,-36.9007,-30.87619,21.64884
17.902420044,0.4146104,0.727095499999998,0.1915974,1.000507,0.01730433,-0.09524345,-36.9007,-30.87619,21.64884
17.912280083,-0.3928965,0.846113400000001,0.3142034,1.002071,0.008068538,-0.09630208,-36.9007,-30.87619,21.64884
17.924603939,-0.3307806,0.608077699999999,0.4368094,1.000253,0.005161556,-0.08863352,-36.9007,-30.87619,21.64884
17.934463978,-0.1444329,0.5485688,0.2529004,1.001111,0.007088628,-0.09581746,-36.9007,-30.87619,21.64884
17.944323063,-0.2065488,0.667586600000001,0.2529004,1.00022,0.004663837,-0.09151244,-37.28489,-29.46599,21.25223
17.954183102,0.1661467,0.4890598,0.4981124,1.00071,0.005156578,-0.09103607,-37.28489,-29.46599,21.25223
17.964042664,-0.0823169599999999,0.4890598,0.4981124,1.001126,0.008557647,-0.09340929,-37.28489,-29.46599,21.25223
17.973902225,-0.3307806,0.608077699999999,0.5594154,0.997674,0.007054783,-0.09672717,-37.28489,-29.46599,21.25223
17.983761787,-0.0823169599999999,0.667586600000001,0.4368094,1.003649,0.003718956,-0.09204848,-37.28489,-29.46599,21.25223
17.993620872,0.3524944,0.5485688,0.4368094,0.99686,-0.0007186558,-0.09150998,-37.27845,-30.13558,21.64323
18.003480911,0.787305800000002,0.5485688,0.4981124,0.9987289,0.006108803,-0.09195819,-37.27845,-30.13558,21.64323
18.013339996,0.725189899999998,0.4295509,0.3755064,0.9995878,0.0134068,-0.09430484,-37.27845,-30.13558,21.64323
18.023200035,0.600958099999998,0.4890598,0.5594154,0.9937679,0.01141626,-0.09232189,-37.27845,-30.13558,21.64323
18.03305912,0.4767263,0.4295509,0.620718400000002,1.000755,0.005169575,-0.08768221,-37.27845,-30.13558,21.64323
18.042919159,0.3524944,0.310533,0.5594154,1.005146,0.001787412,-0.09160691,-36.90518,-29.45872,22.08248
18.052778721,0.5388422,0.370042,0.4368094,1.004717,-0.001617371,-0.09019194,-36.90518,-29.45872,22.08248
18.062638283,0.4767263,0.310533,0.4368094,1.000708,0.008573767,-0.08813201,-36.90518,-29.45872,22.08248
18.072497845,-0.0823169599999999,0.1320062,0.3755064,1.001209,0.003210855,-0.092018,-36.90518,-29.45872,22.08248
18.08235693,-0.5171283,0.4295509,0.4981124,1.002629,0.006627961,-0.0924886,-36.90518,-29.45872,22.08248
18.09468174,-0.3928965,0.608077699999999,0.4368094,0.9963131,0.004142824,-0.09146115,-36.90915,-29.83845,21.25407
18.104541779,-0.2065488,0.01298836,0.4368094,1.003183,0.001768338,-0.09205831,-36.90915,-29.83845,21.25407
18.114400864,0.4146104,0.07249729,0.2529004,1.00361,0.004196251,-0.0944399,-36.90915,-29.83845,21.25407
18.124260902,0.3524944,0.310533,0.3142034,0.9986805,0.008536126,-0.09337462,-36.90915,-29.83845,21.25407
18.134119988,-0.0823169599999999,0.2510241,0.4981124,1.001176,0.007107195,-0.09102625,-36.90915,-29.83845,21.25407
18.143979549,-0.3307806,0.07249729,0.3755064,1.002216,0.004692197,-0.08866545,-36.53266,-29.83742,21.63622
18.153839111,-0.2065488,0.2510241,0.5594154,1.000679,0.001730105,-0.09633573,-36.53266,-29.83742,21.63622
18.163698673,0.2903785,0.07249729,0.3755064,0.9969093,0.001736517,-0.08573957,-36.53266,-29.83742,21.63622
18.173558712,0.5388422,0.01298836,0.4368094,0.9996818,0.00659842,-0.09340524,-36.53266,-29.83742,21.63622
18.183417797,0.4146104,-0.04652058,0.3142034,1.000587,0.005609734,-0.09965608,-36.53266,-29.83742,21.63622
18.193277836,0.2282626,-0.04652058,0.3142034,1.000289,-0.001663538,-0.09204602,-36.90472,-30.1399,21.6413
18.203136921,0.2903785,0.01298836,0.3142034,0.9953755,0.005122226,-0.08760594,-36.90472,-30.1399,21.6413
18.21299696,0.4146104,-0.1655384,0.2529004,0.9962979,0.002673805,-0.09386934,-36.90472,-30.1399,21.6413
18.222856045,0.04191487,-0.2250474,0.1915974,0.9982883,0.003677177,-0.09053484,-36.90472,-30.1399,21.6413
18.232715607,0.2282626,-0.1655384,0.2529004,1.001672,0.007601793,-0.09007075,-36.90472,-30.1399,21.6413
18.242575169,0.1661467,-0.1060295,0.2529004,1.00812,0.002312816,-0.08829048,-37.28012,-29.82879,21.64008
18.252434731,0.2282626,0.01298836,0.1302944,0.9987773,-0.000712578,-0.09441245,-37.28012,-29.82879,21.64008
18.264759064,0.3524944,-0.1655384,0.1302944,0.9977182,0.01048497,-0.09046926,-37.28012,-29.82879,21.64008
18.274619103,-0.02020105,-0.1655384,0.1915974,1.001573,0.01099113,-0.09435352,-37.28012,-29.82879,21.64008
18.284478664,-0.1444329,0.01298836,0.1302944,1.006465,0.003222927,-0.1011976,-37.28012,-29.82879,21.64008
18.294338226,-0.0823169599999999,0.1915152,0.2529004,1.007098,-0.0006375454,-0.09405121,-37.28012,-29.82879,21.64008
18.304197788,0.3524944,0.01298836,0.1915974,0.9968499,-0.003162687,-0.09440565,-37.28012,-29.82879,21.64008
18.314056873,0.4767263,-0.1655384,0.0689914200000002,0.9978381,-0.0007100467,-0.09152384,-37.28012,-29.82879,21.64008
18.323916912,0.5388422,-0.2250474,-0.1149176,0.9977984,0.003184438,-0.09101122,-37.28012,-29.82879,21.64008
18.333775997,0.3524944,-0.4035742,-0.05361458,0.9998366,0.005666111,-0.08287293,-37.28012,-29.82879,21.64008
18.343636036,-0.5171283,-0.2845563,0.1302944,0.9977486,0.009028948,-0.08952358,-37.28288,-29.83414,21.256
18.353495121,-0.579244300000001,-0.3440652,-0.1149176,0.9948979,-0.0002492944,-0.09147805,-37.28288,-29.83414,21.256
18.36335516,0.04191487,-0.4630831,-0.1762206,1.002601,0.0007611691,-0.0997257,-37.28288,-29.83414,21.256
18.373214722,0.2282626,-0.5225921,-0.1762206,1.005576,0.006169065,-0.09205528,-37.28288,-29.83414,21.256
18.383073807,-0.0823169599999999,-0.3440652,-0.1149176,1.005624,0.007647368,-0.08725148,-37.28288,-29.83414,21.256
18.392933846,-0.3928965,-0.4630831,-0.1149176,0.9987051,0.01196074,-0.08855407,-36.9084,-29.46496,21.63438
18.402792931,-0.4550124,-0.582100999999999,0.007688423,0.9990792,0.00900287,-0.09960595,-36.9084,-29.46496,21.63438
18.412652969,-0.2686647,-0.701118900000002,-0.05361458,1.0047,0.0003308,-0.08969606,-36.9084,-29.46496,21.63438
18.422512055,0.4767263,-0.4035742,-0.05361458,1.005103,-0.000665904,-0.09689821,-36.9084,-29.46496,21.63438
18.432372093,0.787305800000002,-0.2845563,-0.05361458,1.001711,0.003218874,-0.0910667,-36.9084,-29.46496,21.63438
18.444696903,0.973653600000002,-0.641609900000002,0.1302944,0.9981755,0.01096843,-0.09238849,-36.90719,-29.09058,22.07871
18.454555988,0.663074000000001,-0.4630831,0.1302944,0.996264,0.01047577,-0.08949021,-36.90719,-29.09058,22.07871
18.46441555,0.1661467,-0.4630831,0.1915974,1.002123,0.01247745,-0.08859843,-36.90719,-29.09058,22.07871
18.474275112,-0.02020105,-0.5225921,0.3755064,0.9982594,0.006110069,-0.09051389,-36.90719,-29.09058,22.07871
18.484134674,0.3524944,-0.5225921,0.3755064,0.998794,-0.002660748,-0.09490833,-36.90719,-29.09058,22.07871
18.493994713,0.600958099999998,-0.641609900000002,0.1915974,1.000235,0.005644422,-0.08958757,-37.27523,-30.12934,22.09132
18.503853798,0.849421699999999,-0.5225921,0.3142034,1.005033,0.0007789775,-0.1007186,-37.27523,-30.12934,22.09132
18.513713837,0.973653600000002,-0.5225921,0.4368094,1.01055,0.0008653183,-0.09073333,-37.27523,-30.12934,22.09132
18.523572922,0.5388422,-0.2250474,0.3142034,1.00118,0.001249688,-0.09586773,-37.27523,-30.12934,22.09132
18.533432961,0.4146104,-0.1060295,0.3755064,0.9957358,0.006066265,-0.09622869,-37.27523,-30.12934,22.09132
18.543292046,0.725189899999998,-0.2250474,0.0689914200000002,0.996261,-0.0002660894,-0.09916481,-37.27724,-29.7612,22.08755
18.553151608,1.097885,-0.04652058,0.2529004,0.9962292,0.004607121,-0.09720644,-37.27724,-29.7612,22.08755
18.563011169,0.911537699999999,-0.1060295,0.3142034,1.001198,0.004672446,-0.09152631,-37.27724,-29.7612,22.08755
18.572870731,0.5388422,-0.1655384,0.2529004,1.004602,0.004697007,-0.09301221,-37.27724,-29.7612,22.08755
18.58273077,0.1661467,-0.04652058,0.2529004,1.003696,0.004708823,-0.08772801,-37.27724,-29.7612,22.08755
18.592589855,-0.02020105,-0.2845563,0.2529004,1.003134,0.00419566,-0.09347473,-36.9035,-29.76551,22.08562
18.602449894,0.1040308,-0.1060295,0.2529004,1.000153,-0.0007256594,-0.101141,-36.9035,-29.76551,22.08562
18.612308979,0.2282626,0.01298836,0.3142034,1.003137,0.001755341,-0.09541216,-36.9035,-29.76551,22.08562
18.624633789,0.4767263,0.310533,0.3142034,1.001176,0.003201572,-0.09441361,-36.9035,-29.76551,22.08562
18.634492874,0.3524944,0.1320062,0.1915974,0.9973,0.005618596,-0.08954597,-36.9035,-29.76551,22.08562
18.644352913,0.04191487,0.4295509,0.1915974,0.9986812,0.00902456,-0.09289131,-36.90472,-30.1399,21.6413
18.654211998,-0.2065488,0.1915152,0.2529004,0.9964187,0.0007553424,-0.08669925,-36.90472,-30.1399,21.6413
18.664072037,-0.0823169599999999,0.01298836,0.0689914200000002,0.9997647,-0.003142431,-0.09588462,-36.90472,-30.1399,21.6413
18.673931122,-0.0823169599999999,0.01298836,0.1302944,0.9949341,-0.002191894,-0.09053656,-36.90472,-30.1399,21.6413
18.683791161,-0.2065488,0.01298836,-0.05361458,0.9998415,0.004691097,-0.08336043,-36.90472,-30.1399,21.6413
18.693650722,-0.4550124,-0.2845563,0.1302944,0.9983099,0.0007539933,-0.09151822,-37.27724,-29.7612,22.08755
18.703510284,-0.703476100000001,-0.2250474,0.1302944,1.001629,0.0090541,-0.09197467,-37.27724,-29.7612,22.08755
18.713369846,-0.827707900000002,-0.1655384,0.1915974,1.003082,0.008574866,-0.09343703,-37.27724,-29.7612,22.08755
18.723228931,-0.5171283,-0.1655384,0.1302944,1.00014,0.003176252,-0.09871183,-37.27724,-29.7612,22.08755
18.73308897,-0.3928965,0.01298836,0.1302944,1.001317,-0.007499438,-0.09354752,-37.27724,-29.7612,22.08755
18.742948055,0.2903785,-0.04652058,0.007688423,1.001655,0.0007618445,-0.09731623,-36.90672,-29.77175,21.63752
18.752808094,0.600958099999998,0.01298836,0.1302944,0.9962559,0.000708924,-0.09867731,-36.90672,-29.77175,21.63752
18.762667656,0.1040308,-0.04652058,-0.05361458,1.00256,0.008072842,-0.09630901,-36.90672,-29.77175,21.63752
18.772527218,-0.4550124,0.1915152,-0.05361458,0.9987347,0.005622225,-0.09196238,-36.90672,-29.77175,21.63752
18.78238678,-0.827707900000002,-0.04652058,0.007688423,1.002186,0.002242595,-0.09299849,-36.90672,-29.77175,21.63752
18.794711113,-0.765591999999998,0.01298836,0.1302944,1.002277,-0.00212547,-0.09016146,-37.27845,-30.13558,21.64323
18.804570675,-0.3307806,-0.1060295,0.007688423,1.003185,0.003233644,-0.09060837,-37.27845,-30.13558,21.64323
18.814430237,0.04191487,-0.2845563,-0.05361458,1.00022,0.004663837,-0.09151244,-37.27845,-30.13558,21.64323
18.824289799,0.1040308,-0.2250474,0.007688423,1.000137,0.001710946,-0.1001618,-37.27845,-30.13558,21.64323
18.834149837,-0.2065488,-0.4035742,-0.05361458,0.9978086,0.005628469,-0.08811554,-37.27845,-30.13558,21.64323
18.844008923,-0.3928965,-0.2250474,0.1915974,0.9982673,0.002694737,-0.09293883,-36.9035,-29.76551,22.08562
18.853868961,-0.5171283,-0.4035742,0.1915974,0.9993482,-0.002637876,-0.09012404,-36.9035,-29.76551,22.08562
18.863728046,-0.2065488,-0.3440652,0.1915974,1.000297,0.004197684,-0.08624628,-36.9035,-29.76551,22.08562
18.873588085,-0.1444329,-0.701118900000002,0.1302944,1.000748,0.004679282,-0.08864464,-36.9035,-29.76551,22.08562
18.88344717,-0.02020105,-0.4630831,0.1302944,0.9939124,-0.0007481958,-0.09242661,-36.9035,-29.76551,22.08562
18.893306732,-0.1444329,-0.701118900000002,0.1302944,0.9987795,0.0007527277,-0.09296251,-36.9035,-29.76551,22.08562
18.903166771,-0.02020105,-0.760627799999999,0.1915974,1.002158,0.001258298,-0.0958816,-36.9035,-29.76551,22.08562
18.913025856,0.2282626,-0.4630831,0.1915974,0.9991399,0.006090827,-0.0977146,-36.9035,-29.76551,22.08562
18.922885895,-0.02020105,-0.2845563,0.1302944,0.9964049,-0.004130865,-0.09201149,-36.9035,-29.76551,22.08562
18.93274498,0.04191487,-0.1655384,0.0689914200000002,1.005623,0.002276439,-0.09208879,-36.9035,-29.76551,22.08562
18.942605019,-0.3928965,-0.1655384,0.0689914200000002,1.003651,0.0007902023,-0.09446923,-36.9084,-29.46496,21.63438
18.952464104,-0.5171283,-0.2250474,0.007688423,1.000641,-0.001698225,-0.1021145,-36.9084,-29.46496,21.63438
18.962324142,-0.765591999999998,-0.1060295,0.1302944,1.000252,-0.0002093729,-0.09347082,-36.9084,-29.46496,21.63438
18.974647999,-0.579244300000001,-0.2845563,0.007688423,0.9984466,-0.003601074,-0.08532733,-36.9084,-29.46496,21.63438
18.984508038,-0.0823169599999999,-0.3440652,-0.1762206,0.9958305,-0.0002536833,-0.09484577,-36.9084,-29.46496,21.63438
18.994367123,-0.1444329,-0.4035742,-0.1149176,0.9982434,0.004152615,-0.09340538,-36.89828,-30.12742,22.53749
19.004227161,-0.0823169599999999,-0.4035742,-0.1762206,0.9981956,0.002674313,-0.09820917,-36.89828,-30.12742,22.53749
19.014086723,0.1661467,-0.3440652,-0.1149176,1.003144,0.002245633,-0.09444972,-36.89828,-30.12742,22.53749
19.023946285,0.04191487,-0.2250474,-0.05361458,1.006031,0.0007931578,-0.09929512,-36.89828,-30.12742,22.53749
19.033805847,-0.02020105,-0.2250474,-0.2375236,1.000684,0.001243526,-0.09633992,-36.89828,-30.12742,22.53749
19.043665886,-0.02020105,-0.1060295,-0.2375236,1.001694,0.0002845503,-0.0949248,-37.28012,-29.82879,21.64008
19.053524971,0.1661467,-0.4035742,-0.2375236,1.001294,-0.001159067,-0.08966009,-37.28012,-29.82879,21.64008
19.063384056,-0.0823169599999999,-0.1060295,-0.2988266,1.000628,0.006597745,-0.09581472,-37.28012,-29.82879,21.64008
19.073244095,-0.1444329,-0.1655384,-0.2375236,1.002697,0.004206209,-0.08963481,-37.28012,-29.82879,21.64008
19.083103657,-0.2065488,-0.1060295,-0.1762206,1.001102,0.001227407,-0.1016172,-37.28012,-29.82879,21.64008
19.092963219,-0.1444329,0.1320062,-0.1762206,1.00507,-0.0006751877,-0.09929381,-36.9015,-30.13366,22.08939
19.102822781,0.1040308,0.1915152,-0.1149176,0.9992288,0.004651516,-0.09245681,-36.9015,-30.13366,22.08939
19.112682819,-0.0823169599999999,0.1320062,-0.1762206,1.004469,0.007100192,-0.1006572,-36.9015,-30.13366,22.08939
19.122541904,-0.1444329,0.1320062,-0.1762206,1.002207,-0.001169024,-0.09446518,-36.9015,-30.13366,22.08939
19.132401943,0.1040308,0.1915152,-0.1762206,0.9996889,0.002694652,-0.09631348,-36.9015,-30.13366,22.08939
19.1447258,0.1661467,0.2510241,-0.3601296,1.00068,0.002706975,-0.09536911,-37.27891,-29.45441,22.08441
19.154585838,0.2282626,0.1915152,-0.2375236,0.9991334,0.00608897,-0.09819372,-37.27891,-29.45441,22.08441
19.164444923,0.2282626,0.07249729,-0.3601296,1.000828,-0.00262125,-0.08918659,-37.27891,-29.45441,22.08441
19.174304962,0.2282626,0.1915152,-0.2988266,0.9978454,-0.0002197544,-0.09056141,-37.27891,-29.45441,22.08441
19.184164047,0.4146104,-0.04652058,-0.3601296,1.00118,0.001249688,-0.09586773,-37.27891,-29.45441,22.08441
19.194024086,0.5388422,0.01298836,-0.4214326,1.000739,0.003212121,-0.0905737,-36.90271,-30.50805,21.64507
19.203883171,-0.02020105,-0.04652058,-0.2375236,0.9983165,0.0007558501,-0.0910391,-36.90271,-30.50805,21.64507
19.21374321,-0.1444329,-0.04652058,-0.5440385,0.9996796,0.005133114,-0.09485517,-36.90271,-30.50805,21.64507
19.223602772,-0.2686647,0.1915152,-0.2988266,0.9986529,0.003157769,-0.1001284,-36.90271,-30.50805,21.64507
19.233461857,-0.2065488,0.1320062,-0.3601296,1.006126,-0.001132731,-0.09404153,-36.90271,-30.50805,21.64507
19.243321896,-0.02020105,0.1915152,-0.6666446,1.000788,0.000784799,-0.08915727,-37.27523,-30.12934,22.09132
19.253180981,0.1040308,-0.04652058,-0.4214326,0.9977204,0.007556216,-0.09289,-37.27523,-30.12934,22.09132
19.26304102,0.2903785,-0.04652058,-0.4827355,0.9928576,0.004591844,-0.09332491,-37.27523,-30.12934,22.09132
19.272900105,-0.1444329,-0.1655384,-0.2988266,0.9977521,0.002683005,-0.09484838,-37.27523,-30.12934,22.09132
19.282760143,-0.1444329,-0.04652058,-0.4827355,0.9987469,-0.003650615,-0.0992288,-37.27523,-30.12934,22.09132
19.292619705,0.04191487,-0.2250474,-0.4214326,1.005651,-0.004550512,-0.09598041,-36.90317,-29.82687,22.08625
19.302479267,0.04191487,-0.3440652,-0.727947499999999,1.003565,-0.0002108054,-0.1016644,-36.90317,-29.82687,22.08625
19.312338829,-0.0823169599999999,-0.4035742,-0.4827355,1.001693,0.004190174,-0.09153743,-36.90317,-29.82687,22.08625
19.324663162,-0.0823169599999999,-0.4035742,-0.4214326,1.001637,0.005638769,-0.0943996,-36.90317,-29.82687,22.08625
19.334522724,0.2903785,-0.2845563,-0.5440385,1.001028,0.008529796,-0.1005961,-36.90317,-29.82687,22.08625
19.344382286,0.1661467,-0.4035742,-0.4827355,0.9991645,0.005121384,-0.09676473,-36.90518,-29.45872,22.08248
19.354241848,0.04191487,-0.1060295,-0.3601296,0.9938394,0.00264857,-0.0947929,-36.90518,-29.45872,22.08248
19.364101887,-0.2065488,-0.3440652,-0.4214326,0.9991081,0.006569978,-0.0996269,-36.90518,-29.45872,22.08248
19.373960972,-0.3307806,-0.2250474,-0.4214326,0.9982368,-0.0002433009,-0.09775518,-36.90518,-29.45872,22.08248
19.383821011,-0.3928965,-0.4035742,-0.4827355,0.9987947,0.002221747,-0.09055434,-36.90518,-29.45872,22.08248
19.393680096,-0.4550124,-0.2250474,-0.6053416,0.9978049,0.003186294,-0.09053209,-37.28012,-29.82879,21.64008
19.403539658,-0.3307806,-0.3440652,-0.727947499999999,0.998148,0.005590069,-0.09914228,-37.28012,-29.82879,21.64008
19.41339922,-0.3928965,-0.3440652,-0.6053416,1.003111,0.006141973,-0.09345797,-37.28012,-29.82879,21.64008
19.423258782,-0.2065488,-0.2845563,-0.4214326,1.001122,0.005627036,-0.09630916,-37.28012,-29.82879,21.64008
19.43311882,-0.1444329,-0.1655384,-0.5440385,0.9947808,0.004111344,-0.09623157,-37.28012,-29.82879,21.64008
19.442977905,-0.3307806,-0.2250474,-0.4827355,1.005074,0.005672612,-0.0934899,-36.90518,-29.45872,22.08248
19.452837944,-0.579244300000001,-0.2250474,-0.4827355,0.9986949,0.005122649,-0.09532043,-36.90518,-29.45872,22.08248
19.462697029,-0.5171283,-0.1060295,-0.727947499999999,1.005042,0.006640199,-0.09491888,-36.90518,-29.45872,22.08248
19.472557068,-0.2686647,-0.2845563,-0.6053416,0.9987628,-0.001693162,-0.09633731,-36.90518,-29.45872,22.08248
19.482416153,0.1661467,-0.2250474,-0.4214326,0.9982095,0.00756052,-0.09289694,-36.90518,-29.45872,22.08248
19.492275715,-0.0823169599999999,-0.3440652,-0.6053416,0.9992339,0.003676503,-0.09294432,-37.64741,-29.812,22.53821
19.504600048,-0.2065488,-0.2845563,-0.5440385,1.000661,0.01148952,-0.08906512,-37.64741,-29.812,22.53821
19.514460087,-0.2686647,-0.4630831,-0.6053416,0.997708,0.008040938,-0.09336494,-37.64741,-29.812,22.53821
19.524319172,-0.3307806,-0.4035742,-0.6053416,1.004982,0.005646618,-0.1001976,-37.64741,-29.812,22.53821
19.534179211,-0.641360199999998,-0.3440652,-0.6666446,0.9972045,0.002661991,-0.09915354,-37.64741,-29.812,22.53821
19.544038773,-0.889823900000002,-0.2845563,-0.5440385,0.999733,-0.00266328,-0.09779692,-37.27845,-30.13558,21.64323
19.553898334,-0.641360199999998,-0.04652058,-0.727947499999999,1.002051,-0.005119209,-0.1093515,-37.27845,-30.13558,21.64323
19.563757896,0.04191487,-0.04652058,-0.4827355,1.005013,0.004190596,-0.09925193,-37.27845,-30.13558,21.64323
19.573616981,0.2282626,-0.1060295,-0.4214326,1.000622,0.007084324,-0.09581053,-37.27845,-30.13558,21.64323
19.58347702,-0.3307806,0.07249729,-0.4827355,1.00161,0.009536966,-0.09292872,-37.27845,-30.13558,21.64323
19.593336105,-0.579244300000001,0.1915152,-0.6053416,1.002564,0.01100345,-0.09340915,-36.90714,-30.2066,21.25784
19.603196144,-0.5171283,0.1915152,-0.4827355,0.9962683,0.004618261,-0.0943317,-36.90714,-30.2066,21.25784
19.613055706,-0.02020105,0.2510241,-0.4827355,1.004136,-0.002136104,-0.09737603,-36.90714,-30.2066,21.25784
19.622915268,0.4767263,0.1915152,-0.6666446,1.00305,0.004659957,-0.09922,-36.90714,-30.2066,21.25784
19.63277483,0.663074000000001,0.1320062,-0.6053416,1.003741,0.00472182,-0.08437414,-36.90714,-30.2066,21.25784
19.642634869,0.3524944,0.01298836,-0.6053416,0.9991696,0.01293449,-0.08951087,-36.52823,-29.4568,22.52864
19.652493954,0.2903785,0.07249729,-0.727947499999999,1.002111,0.004662489,-0.0963314,-36.52823,-29.4568,22.52864
19.662353992,0.1661467,0.07249729,-0.789250600000002,1.003607,0.006148134,-0.09298578,-36.52823,-29.4568,22.52864
19.674677849,0.4146104,0.1320062,-0.789250600000002,1.003049,-0.0007109724,-0.1040573,-36.52823,-29.4568,22.52864
19.684537887,0.4767263,0.4295509,-0.789250600000002,0.998192,0.0002321375,-0.1006257,-36.89626,-30.49557,22.54126
19.694396973,0.2903785,0.310533,-0.6666446,0.9977398,0.003167727,-0.09532332,-36.89626,-30.49557,22.54126
19.704257011,0.4146104,0.4890598,-0.973159599999999,0.9996153,0.005602982,-0.09916309,-36.89626,-30.49557,22.54126
19.714116096,0.4767263,0.4295509,-0.727947499999999,0.9986631,0.005601801,-0.09723273,-36.89626,-30.49557,22.54126
19.723976135,0.5388422,0.4890598,-0.850553500000001,0.9991948,-0.0007286975,-0.09968973,-36.89626,-30.49557,22.54126
19.73383522,0.849421699999999,0.4890598,-0.850553500000001,1.001157,0.007590061,-0.0919803,-36.89626,-30.49557,22.54126
19.743695259,0.600958099999998,0.370042,-0.727947499999999,1.003529,0.01051991,-0.09486458,-36.89949,-30.50181,22.09316
19.753554821,0.5388422,0.4890598,-0.789250600000002,0.9997354,0.007590144,-0.08860564,-36.89949,-30.50181,22.09316
19.763413906,0.4767263,0.2510241,-0.850553500000001,0.9967473,0.01096665,-0.08949295,-36.89949,-30.50181,22.09316
19.773273945,-0.2065488,0.2510241,-0.789250600000002,0.9995849,0.01584712,-0.0923674,-36.89949,-30.50181,22.09316
19.78313303,-0.579244300000001,0.1320062,-1.157069,0.9997272,0.002217358,-0.09392206,-36.89949,-30.50181,22.09316
19.792993069,-0.4550124,0.2510241,-0.911856500000002,0.9957011,0.008985735,-0.09620355,-36.89828,-30.12742,22.53749
19.802852154,0.04191487,0.07249729,-0.850553500000001,0.9987456,0.004160633,-0.09245407,-36.89828,-30.12742,22.53749
19.812712192,-0.02020105,-0.1060295,-0.973159599999999,0.999985,0.01289668,-0.1015028,-36.89828,-30.12742,22.53749
19.822571278,-0.1444329,0.01298836,-1.034463,0.9972769,0.00756491,-0.08952921,-36.89828,-30.12742,22.53749
19.832431316,-0.4550124,-0.04652058,-0.850553500000001,1.002598,0.01198961,-0.09004691,-36.89828,-30.12742,22.53749
19.842290878,-0.4550124,0.01298836,-0.6666446,0.999608,0.00950675,-0.09625484,-36.53145,-29.46304,22.08055
19.854615211,-0.2065488,-0.4035742,-0.6666446,1.000219,0.004175403,-0.09199575,-36.53145,-29.46304,22.08055
19.864474773,-0.3307806,-0.3440652,-0.6666446,0.9976987,0.0104794,-0.09190663,-36.53145,-29.46304,22.08055
19.874334335,-0.3307806,-0.641609900000002,-0.4827355,1.002083,0.01197788,-0.09195647,-36.53145,-29.46304,22.08055
19.884193897,-0.3307806,-0.760627799999999,-0.789250600000002,0.9986711,0.006580528,-0.09578698,-36.52454,-30.13174,22.53556
19.894053936,-0.765591999999998,-0.5225921,-0.5440385,1.001025,0.01048168,-0.099142,-36.52454,-30.13174,22.53556
19.903913021,-0.827707900000002,-0.5225921,-0.4827355,0.9956837,0.01044547,-0.09619099,-36.52454,-30.13174,22.53556
19.91377306,-1.014056,-0.3440652,-0.6666446,0.9976524,0.009977967,-0.09574379,-36.52454,-30.13174,22.53556
19.923632145,-1.138287,-0.2845563,-0.5440385,0.9977333,0.00316587,-0.09580243,-36.52454,-30.13174,22.53556
19.933492184,-0.703476100000001,-0.4630831,-0.4214326,0.9981465,0.009007258,-0.09623823,-37.27523,-30.12934,22.09132
19.943351269,-0.2065488,-0.2845563,-0.5440385,1.003063,0.008569296,-0.0948744,-37.27523,-30.12934,22.09132
19.953210831,-0.0823169599999999,-0.3440652,-0.4827355,1.000041,0.007054024,-0.1025113,-37.27523,-30.12934,22.09132
19.963070393,-0.1444329,-0.1060295,-0.5440385,0.9986212,0.008030979,-0.09817003,-37.27523,-30.12934,22.09132
19.972929955,-0.3928965,-0.1060295,-0.6053416,1.003897,0.01244268,-0.1020416,-37.27523,-30.12934,22.09132
19.982789993,-0.579244300000001,-0.1655384,-0.5440385,1.001458,0.01242301,-0.1015278,-37.27523,-30.12934,22.09132
19.992649078,-0.579244300000001,0.01298836,-0.5440385,1.002023,0.01049586,-0.0977185,-36.90271,-30.50805,21.64507
20.002509117,-0.3928965,0.1320062,-0.3601296,1.00892,0.005200046,-0.0988199,-36.90271,-30.50805,21.64507
20.012368202,-0.2065488,0.07249729,-0.4214326,1.000556,0.01097138,-0.09721439,-36.90271,-30.50805,21.64507
20.024693012,-0.02020105,0.310533,-0.5440385,0.9946536,0.01481607,-0.09613942,-36.90271,-30.50805,21.64507
20.034552097,-0.1444329,0.370042,-0.4214326,0.9990973,0.01681969,-0.09139385,-36.9015,-30.13366,22.08939
20.044412136,-0.0823169599999999,0.2510241,-0.1149176,0.9975865,0.009470965,-0.1010183,-36.9015,-30.13366,22.08939
20.054271221,0.1040308,0.4295509,-0.2988266,0.9996585,0.004150674,-0.09725916,-36.9015,-30.13366,22.08939
20.06413126,0.4146104,0.370042,-0.3601296,1.001074,0.008542793,-0.09724227,-36.9015,-30.13366,22.08939
20.073990822,0.3524944,0.4890598,-0.4214326,0.9972965,0.00757048,-0.08809184,-36.9015,-30.13366,22.08939
20.083850384,-0.02020105,0.2510241,-0.4827355,0.9976922,0.01047754,-0.09238575,-36.90714,-30.2066,21.25784
20.093709946,-0.3928965,0.2510241,-0.3601296,1.001148,0.01002852,-0.09052199,-36.90714,-30.2066,21.25784
20.103569984,-0.5171283,0.1915152,-0.4827355,0.9992036,0.005132524,-0.09389,-36.90714,-30.2066,21.25784
20.11342907,-0.2065488,0.1915152,-0.4214326,0.9976698,0.01291229,-0.09188569,-36.90714,-30.2066,21.25784
20.123289108,-0.2686647,0.01298836,-0.4214326,0.9972321,0.01243441,-0.08852908,-36.90714,-30.2066,21.25784
20.133148193,-0.2065488,-0.04652058,-0.4214326,1.001503,0.01634164,-0.09478657,-36.9015,-30.13366,22.08939
20.143007278,-0.3307806,0.07249729,-0.2375236,1.00449,0.007594198,-0.09873655,-36.9015,-30.13366,22.08939
20.152867317,-0.1444329,0.01298836,-0.2375236,1.000054,0.006569303,-0.1020364,-36.9015,-30.13366,22.08939
20.162726879,-0.0823169599999999,0.1320062,-0.4214326,1.003445,0.006590151,-0.1044805,-36.9015,-30.13366,22.08939
20.172586441,0.4146104,0.01298836,-0.2375236,0.9987073,0.009031987,-0.09097482,-36.9015,-30.13366,22.08939
20.182446003,0.1661467,-0.2250474,-0.3601296,0.9970838,0.01336857,-0.09858227,-36.90438,-30.20126,21.64192
20.194770336,0.2282626,0.07249729,-0.2375236,1.00063,0.01245711,-0.09049411,-36.90438,-30.20126,21.64192
20.204630375,0.1040308,0.1915152,-0.4214326,1.002535,0.01294791,-0.09387152,-36.90438,-30.20126,21.64192
20.214489937,0.2282626,0.1320062,-0.3601296,0.9996312,0.01195449,-0.09240092,-36.90438,-30.20126,21.64192
20.224349022,0.3524944,0.1915152,-0.2988266,1.002141,0.007112092,-0.09199836,-36.90438,-30.20126,21.64192
20.234209061,0.4146104,0.1320062,-0.4214326,0.9995632,0.01437625,-0.09525471,-36.90116,-30.19502,22.09002
20.244068146,-0.02020105,0.07249729,-0.4827355,0.9942246,0.01580534,-0.09085377,-36.90116,-30.19502,22.09002
20.253928185,-0.5171283,-0.04652058,-0.3601296,0.999616,0.01487954,-0.09093843,-36.90116,-30.19502,22.09002
20.26378727,-0.4550124,0.01298836,-0.2375236,0.995147,0.01335692,-0.09711717,-36.90116,-30.19502,22.09002
20.273647308,-0.0823169599999999,-0.1060295,-0.3601296,1.002126,0.005643073,-0.09440653,-36.90116,-30.19502,22.09002
20.283506393,0.1661467,-0.1655384,-0.4214326,0.9976654,0.009981681,-0.09478555,-37.27523,-30.12934,22.09132
20.293366432,0.1661467,-0.2250474,-0.3601296,0.9990981,0.01291406,-0.09478122,-37.27523,-30.12934,22.09132
20.303225994,0.1040308,-0.2250474,-0.3601296,1.000059,0.01438241,-0.09478252,-37.27523,-30.12934,22.09132
20.313085556,-0.3307806,-0.04652058,-0.2988266,0.9981437,0.01144758,-0.09430079,-37.27523,-30.12934,22.09132
20.322945118,-0.3307806,-0.1655384,-0.3601296,0.9981385,0.008028531,-0.09768397,-37.27523,-30.12934,22.09132
20.332804203,-0.0823169599999999,-0.2250474,-0.3601296,0.9972531,0.009022787,-0.08999577,-36.90472,-30.1399,21.6413
20.342664242,-0.1444329,-0.2845563,-0.2988266,0.9991502,0.00853486,-0.09481892,-36.90472,-30.1399,21.6413
20.352523327,-0.0823169599999999,-0.1655384,-0.4827355,0.998679,0.007559255,-0.09434123,-36.90472,-30.1399,21.6413
20.362383366,0.1661467,-0.1655384,-0.1762206,0.9980431,0.01386005,-0.0995502,-36.90472,-30.1399,21.6413
20.374708176,-0.0823169599999999,-0.1655384,-0.2375236,1.000508,0.01388714,-0.0981475,-36.90472,-30.1399,21.6413
20.384567261,-0.2065488,-0.1655384,-0.1149176,0.9971352,0.01289499,-0.09523261,-36.15692,-30.20989,21.63806
20.3944273,-0.2686647,-0.3440652,-0.1149176,0.9961808,0.0114285,-0.09475218,-36.15692,-30.20989,21.63806
20.404286385,-0.02020105,-0.4035742,-0.2375236,0.9952099,0.01191019,-0.09377588,-36.15692,-30.20989,21.63806
20.414146423,0.2903785,-0.4035742,-0.1762206,1.002495,0.008054274,-0.1011002,-36.15692,-30.20989,21.63806
20.424005985,0.1040308,-0.1655384,-0.2988266,1.007895,0.01250125,-0.09586847,-36.15692,-30.20989,21.63806
20.43386507,-0.0823169599999999,-0.4630831,-0.05361458,0.9947063,0.0109253,-0.0956938,-36.53174,-30.51771,21.25905
20.443725109,-0.1444329,-0.5225921,-0.1762206,1.003027,0.01490595,-0.09194521,-36.53174,-30.51771,21.25905
20.453584194,-0.3307806,-0.4035742,-0.1149176,1.003455,0.0178223,-0.0938435,-36.53174,-30.51771,21.25905
20.463444233,-0.5171283,-0.641609900000002,-0.05361458,0.9990554,0.01485481,-0.09620183,-36.53174,-30.51771,21.25905
20.473303318,-0.02020105,-0.641609900000002,-0.1149176,0.9981964,0.003162748,-0.09772586,-36.53174,-30.51771,21.25905
20.483163357,0.787305800000002,-0.760627799999999,-0.1149176,0.9976566,0.00412046,-0.1005853,-36.90438,-30.20126,21.64192
20.493022442,1.097885,-0.879645599999998,-0.1149176,1.00338,0.0153597,-0.1015304,-36.90438,-30.20126,21.64192
20.502882481,0.599962799999998,-0.759873800000001,-0.1760545,0.9953105,0.01389178,-0.08465581,-36.90438,-30.20126,21.64192
20.512742043,-0.02163782,-0.699447899999997,-0.1145304,0.9981248,0.01193044,-0.09525485,-36.90438,-30.20126,21.64192
20.522601605,-0.0835314599999998,-0.698438499999999,0.00823866599999999,0.9975858,0.008982529,-0.1015016,-36.90438,-30.20126,21.64192
20.532461167,-0.2695597,-0.757014000000003,-0.1142814,1.000068,0.01194395,-0.09624083,-36.15525,-30.51668,21.6412
20.542320252,-0.2070467,-0.875025000000001,-0.2367439,1.002598,0.01150117,-0.09053023,-36.15525,-30.51668,21.6412
20.554645061,0.4139693,-1.052085,-0.1751654,0.9971287,0.01289313,-0.09571172,-36.15525,-30.51668,21.6412
20.5645051,0.4135274,-0.931876200000001,-0.05245493,0.9966099,0.01043923,-0.1000378,-36.15525,-30.51668,21.6412
20.574364185,0.4129885,-1.109083,0.00891396600000001,1.001015,0.01682577,-0.09429632,-36.15525,-30.51668,21.6412
20.584224224,0.1640841,-1.167217,-0.113607,0.998614,0.01193475,-0.09526178,-36.90639,-29.83311,21.63815
20.594083309,0.2259549,-0.987318099999998,-0.05223827,0.9981689,0.00657251,-0.09673829,-36.90639,-29.83311,21.63815
20.603943348,0.722403300000003,-1.10504,-0.1134564,0.9986032,0.01339634,-0.0947701,-36.90639,-29.83311,21.63815
20.613802433,0.2868992,-0.865653499999998,-0.2359007,1.00303,0.01246564,-0.09388264,-36.90639,-29.83311,21.63815
20.623661995,0.1002886,-0.864416599999999,0.009530597,0.9994692,0.01679057,-0.100025,-36.90639,-29.83311,21.63815
20.633521557,0.1623176,-0.803840599999998,0.00955712600000002,0.9996991,0.005138685,-0.09341781,-36.15726,-30.14853,21.63743
20.643381119,0.2241516,-0.9216807,-0.05171937,0.9961114,0.01287338,-0.09857258,-36.15726,-30.14853,21.63743
20.653241157,0.2238895,-0.8609206,0.00959082499999999,1.002874,0.01730357,-0.1010276,-36.15726,-30.14853,21.63743
20.663100243,0.2236278,-1.038273,-0.1129887,1.006431,0.01102489,-0.09681848,-36.15726,-30.14853,21.63743
20.672960281,0.3473837,-1.215439,0.2548749,0.9971077,0.01191069,-0.09811571,-36.15726,-30.14853,21.63743
20.682819366,0.2848705,-1.214006,0.0708768099999999,0.9951289,0.01432822,-0.09758791,-37.27845,-30.13558,21.64323
20.692679405,0.0982819899999999,-1.331424,0.0707877799999999,0.997539,0.02117484,-0.09421008,-37.27845,-30.13558,21.64323
20.70253849,-0.6468617,-1.329864,-0.1130946,0.995469,0.01917232,-0.1042607,-37.27845,-30.13558,21.64323
20.712398529,-0.708126099999999,-1.447361,-0.1131066,0.9962032,0.004599694,-0.09912292,-37.27845,-30.13558,21.64323
20.724722385,-0.1484394,-1.147656,0.1320712,0.9989865,0.003605947,-0.111151,-37.27845,-30.13558,21.64323
20.734582424,0.1621705,-1.205705,0.00941487600000002,1.003,0.006110409,-0.1016031,-36.52978,-29.76983,22.08369
20.744441509,0.1619473,-1.263681,0.1932735,1.000017,0.01681159,-0.09571981,-36.52978,-29.76983,22.08369
20.754301548,0.0996865000000002,-1.083754,0.1318048,0.9970577,0.008967086,-0.1043694,-36.52978,-29.76983,22.08369
20.76416111,0.03734784,-0.963430800000001,0.1316777,1.000496,0.01437186,-0.09862243,-36.52978,-29.76983,22.08369
20.774020672,-0.1489103,-1.140729,0.0702478399999998,1.000914,0.01484417,-0.1034164,-36.52978,-29.76983,22.08369
20.783880234,-0.0867438800000001,-0.722957699999999,0.1927078,1.002018,0.00756525,-0.1006184,-37.27523,-30.12934,22.09132
20.793740272,0.03757739,-0.900445600000003,0.1311242,1.001503,0.007553518,-0.1025279,-37.27523,-30.12934,22.09132
20.803599358,-0.02456624,-0.8993146,0.06965652,0.9990243,0.01142833,-0.1015015,-37.27523,-30.12934,22.09132
20.813459396,-0.02457437,-0.898278500000001,0.0695882899999997,1.002908,0.01389566,-0.101536,-37.27523,-30.12934,22.09132
20.823318481,-0.0865423700000003,-0.897056800000002,0.1921454,1,0.009971637,-0.1029653,-37.27523,-30.12934,22.09132
20.83317852,0.09993357,-0.776986800000001,0.0692210699999999,0.9971352,0.008500932,-0.09910328,-36.89828,-30.12742,22.53749
20.843037605,-0.02438476,-0.775973600000002,0.1917209,0.9999481,0.009956784,-0.1067983,-36.89828,-30.12742,22.53749
20.852897167,-0.02435414,-0.774961499999998,0.1301771,0.9994974,0.01386924,-0.1005292,-36.89828,-30.12742,22.53749
20.862757206,-0.02418699,-0.6549516,0.2526196,1.000036,0.0124231,-0.09815313,-36.89828,-30.12742,22.53749
20.872616291,0.1620936,-0.891977800000001,0.06843179,0.9950883,0.008946153,-0.1052999,-36.89828,-30.12742,22.53749
20.88247633,0.2860243,-0.950291599999997,0.06826883,1.000003,0.01192538,-0.1010321,-36.53099,-30.14421,21.63936
20.892335415,0.4720128,-0.829986699999999,0.374621,0.9979831,0.01286646,-0.1048289,-36.53099,-30.14421,21.63936
20.904660225,0.3471375,-1.126042,0.190201,1.001043,0.009510379,-0.09867125,-36.53099,-30.14421,21.63936
20.914519787,0.2846246,-0.946156400000001,0.3738518,1.000996,0.009008947,-0.1025084,-36.53099,-30.14421,21.63936
20.924379349,0.2223463,-1.063892,0.2508147,0.9985184,0.004584082,-0.10874,-36.53099,-30.14421,21.63936
20.934238434,-0.0883369900000002,-1.241045,0.2505382,0.9956195,0.0153094,-0.09662823,-36.52744,-30.19934,22.08809
20.944098473,-0.4606874,-1.180127,0.2502043,0.9960297,0.01480299,-0.1028679,-36.52744,-30.19934,22.08809
20.953957558,-0.273722,-1.000212,0.24989,0.9994228,0.01189508,-0.1077328,-36.52744,-30.19934,22.08809
20.963817596,-0.0869913999999997,-1.058464,0.1269894,0.9950095,0.0128295,-0.107662,-36.52744,-30.19934,22.08809
20.973677158,0.2235999,-1.057097,0.2492626,0.9940668,0.01038985,-0.10719,-36.52744,-30.19934,22.08809
20.98353672,0.5337035,-0.817808699999997,0.2488725,0.9959956,0.01381683,-0.1062302,-36.52454,-30.13174,22.53556
20.993396282,0.4089964,-0.816669400000001,0.0646316899999998,1.005341,0.005613788,-0.109787,-36.52454,-30.13174,22.53556
21.003256321,0.160058,-0.518398,0.1869062,1.005905,0.007592258,-0.1025903,-36.52454,-30.13174,22.53556
21.013115406,-0.2126239,-0.04189969,0.2478975,1.008229,0.009532241,-0.1097951,-36.52454,-30.13174,22.53556
21.022975445,-0.2123569,0.0770586700000001,0.2474706,0.9954225,0.009882766,-0.1158392,-36.52454,-30.13174,22.53556
21.03283453,0.03627596,0.136396,0.3696694,1.003464,0.002201663,-0.1069138,-36.89915,-30.56317,22.09379
21.042694569,0.719134700000002,0.01722554,0.2465799,0.9994562,0.0123928,-0.1048539,-36.89915,-30.56317,22.09379
21.052553654,0.8422682,0.1360535,0.3075539,0.9994511,0.01336781,-0.1043664,-36.89915,-30.56317,22.09379
21.062413216,0.4063989,0.3143533,0.4910574,0.9935871,0.01673521,-0.1009,-36.89915,-30.56317,22.09379
21.074737549,0.4056634,0.5519143,0.490248,0.9965288,0.008463205,-0.1077205,-36.89915,-30.56317,22.09379
21.084597588,0.6535005,0.3133722,0.4283677,1.000953,0.006067196,-0.108283,-36.52421,-30.1931,22.53619
21.094456673,0.5283698,0.313016,0.3665652,0.9960383,0.01187609,-0.1048096,-36.52421,-30.1931,22.53619
21.104316711,0.651918500000003,0.4315473,0.3048596,0.9951383,0.007495703,-0.1029169,-36.52421,-30.1931,22.53619
21.114176273,0.5270044,0.2526466,0.3044959,0.9947251,0.006048373,-0.09861042,-36.52421,-30.1931,22.53619
21.124035835,0.2159579,0.3714032,0.3040557,0.9960029,0.009913065,-0.1091384,-36.52421,-30.1931,22.53619
21.133895397,0.1535513,-0.04542024,0.3036545,0.9980727,0.007521529,-0.1029585,-36.90317,-29.82687,22.08625
21.143755436,0.401744,0.1330702,0.1806864,1.003438,0.006099859,-0.105443,-36.90317,-29.82687,22.08625
21.153614521,0.3391235,-0.04556768,0.1804787,1.003865,0.008527773,-0.1078246,-36.90317,-29.82687,22.08625
21.163473606,0.586985700000001,-0.3429617,0.241478,0.9985887,0.01241575,-0.09669496,-36.90317,-29.82687,22.08625
21.173333645,0.1517296,-0.580417100000001,0.05726569,1.001025,0.01487574,-0.09527133,-36.90317,-29.82687,22.08625
21.183193207,-0.2209614,-0.579706800000002,0.3022132,0.9980612,0.01288874,-0.09907945,-36.89794,-30.18878,22.53812
21.193052769,-0.2826632,-0.697903000000001,0.4244396,0.9995574,0.01046877,-0.0991212,-36.89794,-30.18878,22.53812
21.202912331,-0.2823277,-1.113365,0.1788293,1.002071,0.003674479,-0.1001728,-36.89794,-30.18878,22.53812
21.212772369,-0.0958203399999998,-1.409567,0.1786239,0.9955224,0.01137592,-0.1072024,-36.89794,-30.18878,22.53812
21.222631455,-0.0956609599999997,-1.229438,0.1170773,0.9945856,0.01284376,-0.1028639,-36.89794,-30.18878,22.53812
21.232491493,-0.5920584,-1.168385,0.2394015,1.001008,0.01242985,-0.09864612,-36.52543,-30.56748,22.09186
21.242350578,-1.025814,-1.226389,0.2391393,1.001946,0.00705639,-0.106372,-36.52543,-30.56748,22.09186
21.254675388,-0.713702200000002,-1.045974,0.1161579,0.9995311,0.00167322,-0.108779,-36.52543,-30.56748,22.09186
21.264534473,-0.2781895,-1.163435,0.177238,0.9999213,0.005066863,-0.1130688,-36.52543,-30.56748,22.09186
21.274394512,-0.0917069200000001,-1.0429,-0.00677811900000003,1.002388,0.01046489,-0.1068288,-36.52543,-30.56748,22.09186
21.284253597,-0.1537467,-1.100912,0.05449491,1.003868,0.01048151,-0.1058913,-36.89995,-29.82063,22.53435
21.294113636,-0.4640746,-1.099511,0.1769554,0.9970324,0.009448094,-0.1058026,-36.89995,-29.82063,22.53435
21.303972721,-0.711857800000001,-0.919658799999998,0.2380554,1.000044,0.00851933,-0.1010614,-36.89995,-29.82063,22.53435
21.31383276,-0.586809799999999,-0.918335399999998,0.1765497,0.9979722,0.009933996,-0.1082079,-36.89995,-29.82063,22.53435
21.323692322,-0.4617824,-1.036088,-0.1913938,0.9969832,0.002598862,-0.1154437,-36.89995,-29.82063,22.53435
21.333551884,-0.02676167,-1.213182,-0.00745617600000002,1.001894,0.003135912,-0.1135924,-37.27,-30.49125,22.54319
21.343411446,0.2836759,-1.092809,0.1150822,1.001369,0.009468267,-0.1106562,-37.27,-30.49125,22.54319
21.353271484,0.4074149,-1.031946,-0.00759136400000001,1.0004,0.007021194,-0.1121007,-37.27,-30.49125,22.54319
21.36313057,-0.02781068,-0.911744099999998,0.2375724,0.9965519,0.006516891,-0.1077373,-37.27,-30.49125,22.54319
21.372990608,-0.214221,-0.9701452,0.3598992,0.9959703,0.01429784,-0.1076633,-37.27,-30.49125,22.54319
21.382849693,-0.586471899999998,-0.8500023,0.2982982,0.997541,0.009457968,-0.1043722,-36.52621,-29.82495,22.53242
21.392709255,-0.4616399,-0.849065499999999,0.2366976,1.003887,0.005604588,-0.1088079,-36.52621,-29.82495,22.53242
21.402568817,-0.3989832,-0.788564800000001,0.1138327,1.002472,0.001700904,-0.1083415,-36.52621,-29.82495,22.53242
21.412428379,-0.2121733,-0.966213299999998,0.297541,1.000853,0.004574039,-0.1169198,-36.52621,-29.82495,22.53242
21.422287941,0.1605936,-0.7270387,0.05209005,0.9989353,0.008473587,-0.11063,-36.52621,-29.82495,22.53242
21.434612751,-0.150082,-0.725841299999999,0.1131573,0.9960571,0.01139322,-0.1038555,-36.90116,-30.19502,22.09002
21.444471836,-0.3983962,-0.784345100000001,0.2356211,0.9998505,0.01871705,-0.1062438,-36.90116,-30.19502,22.09002
21.454331875,-1.142877,-0.842831599999998,0.1740607,0.9936115,0.006977643,-0.1076915,-36.90116,-30.19502,22.09002
21.464191437,-1.32777,-0.782301299999999,0.2964672,0.9974599,0.007481947,-0.1120549,-36.90116,-30.19502,22.09002
21.474050999,-0.891680800000003,-0.840771600000003,0.1736622,1.001042,0.0002338265,-0.1068959,-36.90116,-30.19502,22.09002
21.483910561,-0.0834636700000003,-1.077695,0.1121795,0.9960063,-0.0008269376,-0.1183339,-36.52576,-30.50612,22.09123
21.493769646,0.04069742,-1.076379,0.1121157,1.001866,0.009962862,-0.1097008,-36.52576,-30.50612,22.09123
21.503629685,-0.2078564,-1.075064,0.05074885,0.9969471,0.01332958,-0.1086438,-36.52576,-30.50612,22.09123
21.51348877,-0.3317881,-0.895430100000001,0.1731756,0.9998114,0.009917793,-0.1168598,-36.52576,-30.50612,22.09123
21.523348808,-0.3314494,-0.775324999999998,0.1729388,0.9974563,0.005039771,-0.1144715,-36.52576,-30.50612,22.09123
21.53320837,0.04150635,-0.774351199999999,0.1113608,0.9995261,-0.001745826,-0.1121622,-36.89626,-30.49557,22.54126
21.543067932,0.2898203,-0.654342100000001,0.1725239,0.999503,0.0002004886,-0.1121455,-36.89626,-30.49557,22.54126
21.552927494,0.786090999999998,-0.653520199999997,0.1110235,0.9965208,0.003090419,-0.113037,-36.89626,-30.49557,22.54126
21.562787533,1.03347,-0.4741912,0.1109803,0.9978232,0.01037973,-0.1187444,-36.89626,-30.49557,22.54126
21.572646618,0.4733625,-0.3547085,-0.0728947999999999,0.9974737,0.007974095,-0.1106133,-36.89626,-30.49557,22.54126
21.582506657,-0.02394477,0.002809279,0.049745,0.9959016,0.0118371,-0.1148711,-36.52621,-29.82495,22.53242
21.592365742,-0.3344747,0.06235207,0.1110625,0.9989569,0.005550403,-0.1116133,-36.52621,-29.82495,22.53242
21.604690552,-0.2720093,0.4191583,-0.134112,1.000424,0.001169257,-0.1155048,-36.52621,-29.82495,22.53242
21.614549637,0.1630267,0.4187439,-0.0727561099999999,0.9959413,0.003548555,-0.1192544,-36.52621,-29.82495,22.53242
21.624409676,0.2869757,0.4183301,-0.01132322,0.9974974,0.002122158,-0.1140175,-36.52621,-29.82495,22.53242
21.634268761,0.2245188,0.3583518,-0.1338572,0.996968,0.009917961,-0.1101105,-36.52576,-30.50612,22.09123
21.644128799,0.03786955,0.3578643,0.05014288,0.9998968,0.01482442,-0.1062773,-36.52576,-30.50612,22.09123
21.653987884,0.03780245,0.3574896,-0.01122311,0.9994741,0.007027439,-0.1082538,-36.52576,-30.50612,22.09123
21.663847923,-0.2105331,0.3570032,-0.01120902,1.000454,0.008012919,-0.1073011,-36.52576,-30.50612,22.09123
21.673707485,-0.5208092,0.2969897,0.111334,1.001442,0.006071502,-0.10829,-36.52576,-30.50612,22.09123
21.683567047,-0.706385800000002,0.4154663,0.1112905,1.001927,0.003633631,-0.1107134,-36.52346,-29.8196,22.9165
21.693426609,-0.891729199999999,0.4744348,-0.01137833,0.9965317,0.001628826,-0.1135287,-36.52346,-29.8196,22.9165
21.703286648,-0.4559733,0.652290900000001,-0.134047,0.9989005,0.006998998,-0.1144755,-36.52346,-29.8196,22.9165
21.713145733,-0.0828222000000001,0.4136975,0.04991478,0.9988983,0.005533693,-0.1159254,-36.52346,-29.8196,22.9165
21.723005772,-0.02064127,0.2941787,-0.1340184,0.999315,0.01381726,-0.1139447,-36.52346,-29.8196,22.9165
21.732864857,-0.206807,0.3532808,-0.0726626199999999,1.002844,0.009971471,-0.1097146,-36.90438,-30.20126,21.64192
21.742723942,-0.4547963,0.5313638,0.1725251,0.9979425,0.007484395,-0.112541,-36.90438,-30.20126,21.64192
21.752583981,-0.702435099999999,0.5307338,0.1111595,0.9989671,0.007994436,-0.1087177,-36.90438,-30.20126,21.64192
21.762443542,-0.639339399999998,0.6489729,-0.01154764,0.9994371,-0.0003065142,-0.11742,-36.90438,-30.20126,21.64192
21.772303104,-0.3901508,0.767026100000001,0.1110151,1.002453,-0.002698725,-0.1136496,-36.90438,-30.20126,21.64192
21.784627914,0.1691148,0.765878100000001,-0.1342364,0.9975228,0.001641149,-0.1125843,-36.89949,-30.50181,22.09316
21.794486999,0.4791503,0.705444600000001,-0.01148102,0.9950826,0.005038673,-0.1091664,-36.89949,-30.50181,22.09316
21.804347038,0.2922007,0.7044651,-0.01135109,0.9984281,0.01383464,-0.1072231,-36.89949,-30.50181,22.09316
21.8142066,-0.2048595,0.9414665,-0.01129833,0.9959978,0.01088808,-0.1086509,-36.89949,-30.50181,22.09316
21.824066162,-0.639121000000001,0.999792800000002,0.1725864,0.9975192,0.003593033,-0.1111302,-36.89949,-30.50181,22.09316
21.833925724,-0.638396300000001,0.879594,-0.1952559,0.9976175,-0.0002847401,-0.1073307,-36.89794,-30.18878,22.53812
21.843784809,-0.3893063,0.937848600000001,-0.1339002,1.00052,0.004125862,-0.1058972,-36.89794,-30.18878,22.53812
21.853644848,-0.2647025,0.698597399999998,-0.0724482800000001,0.9989735,0.007996292,-0.1082385,-36.89794,-30.18878,22.53812
21.863503933,-0.3886604,0.876078499999998,0.05013318,1.002336,0.01093847,-0.1101784,-36.89794,-30.18878,22.53812
21.873363972,-0.3881917,0.993771699999998,-0.133704,0.9954776,0.01185136,-0.110073,-36.89794,-30.18878,22.53812
21.883223057,-0.4497225,1.111541,-0.1948198,1.002347,0.008988439,-0.1111534,-36.15249,-29.82927,22.53048
21.893083096,-0.3249844,1.169636,-0.1946521,1.001896,0.004112782,-0.1126257,-36.15249,-29.82927,22.53048
21.902942657,-0.138365,1.287166,-0.1330854,0.9984222,0.005533102,-0.1149603,-36.15249,-29.82927,22.53048
21.912802219,-0.01384231,0.988153599999998,-0.1942598,1.002889,0.005590409,-0.1102314,-36.15249,-29.82927,22.53048
21.922661781,0.607119600000002,0.986837699999997,-0.0714867599999999,0.999492,0.00166208,-0.1116538,-36.15249,-29.82927,22.53048
21.93252182,0.854762099999999,1.044995,-0.1940222,0.9930646,0.007445064,-0.1115134,-36.52547,-29.45146,22.91273
21.942380905,0.605302900000001,0.984061399999998,-0.2551585,0.9981248,0.003142324,-0.1029962,-36.52547,-29.45146,22.91273
21.954705715,0.5421392,1.041652,-0.00971921700000002,0.9991015,0.002174063,-0.1039767,-36.52547,-29.45146,22.91273
21.9645648,0.665670600000002,1.159343,-0.1322937,0.9994675,0.002631524,-0.1126036,-36.52547,-29.45146,22.91273
21.974424839,0.913064100000002,1.217414,-0.2547336,1.002399,0.009491729,-0.1068371,-36.52547,-29.45146,22.91273
21.984283924,0.787821899999999,1.037489,-0.1319039,0.995518,0.008445312,-0.1101023,-36.15048,-30.19741,22.53425
21.994143963,0.4765064,1.15511,-0.1930027,0.9956909,0.002147644,-0.1029699,-36.15048,-30.19741,22.53425
22.004003048,0.413831,1.034754,-0.1314573,0.997031,0.008471224,-0.1067692,-36.15048,-30.19741,22.53425
22.013863087,0.164828,0.914529599999998,-0.1926337,0.9980857,0.003131183,-0.1058709,-36.15048,-30.19741,22.53425
22.023722649,-0.0837646100000002,0.972833700000002,-0.131108,0.9950277,0.0118582,-0.1071913,-36.15048,-30.19741,22.53425
22.033582211,-0.642605099999999,0.912102900000001,-0.1921308,1.00046,0.00752634,-0.1073053,-36.52421,-30.1931,22.53619
