Time (s),Gyroscope X (deg/s),Gyroscope Y (deg/s),Gyroscope Z (deg/s),Accelerometer X (g),Accelerometer Y (g),Accelerometer Z (g),Magnetometer X (uT),Magnetometer Y (uT),Magnetometer Z (uT)
15.289416313,14.20434,6.79700699999999,-5.08046,1.014198,0.1846596,0.769012,-48.54382,-34.69543,2.285904
15.299275875,10.53951,15.30678,-6.24521700000002,1.018327,0.1763207,0.7415684,-48.90559,-34.66795,3.952195
15.309135437,7.99275200000001,23.22147,-7.10345900000001,1.035161,0.1739493,0.7183069,-48.90559,-34.66795,3.952195
15.318994999,5.75657900000002,30.18402,-7.77779200000001,1.043224,0.1925032,0.7159526,-48.90559,-34.66795,3.952195
15.328854084,1.656929,37.02755,-9.18776100000002,1.058963,0.1907132,0.7205051,-48.90559,-34.66795,3.952195
15.338713646,-2.442722,43.99009,-10.10731,1.057535,0.1780177,0.712272,-48.90559,-34.66795,3.952195
15.348572731,-6.48025699999999,50.11951,-9.80079199999999,1.048767,0.1755092,0.712855,-48.15813,-34.67658,3.948331
15.35843277,-11.57376,56.90353,-10.10731,1.060446,0.1795014,0.7117638,-48.15813,-34.67658,3.948331
15.368291855,-14.43109,63.9850900000001,-9.55557899999999,1.056994,0.1696989,0.7011878,-48.15813,-34.67658,3.948331
15.378151417,-16.4188,70.2930399999997,-8.94255000000001,1.054747,0.1585046,0.7059174,-48.15813,-34.67658,3.948331
15.388010502,-17.41266,76.9580400000002,-9.12645800000002,1.071475,0.1387972,0.7313895,-48.15813,-34.67658,3.948331
15.397870541,-17.03996,84.8727300000002,-9.24906400000001,1.078684,0.1150374,0.7368366,-47.86463,-34.71492,1.450183
15.407729626,-14.43109,92.2518400000002,-8.26821599999997,1.077486,0.1077778,0.75021,-47.86463,-34.71492,1.450183
15.417589188,-12.62973,99.988,-7.47127699999998,1.086759,0.1166421,0.7563822,-47.86463,-34.71492,1.450183
15.427448273,-11.13895,108.3788,-7.28736799999999,1.089003,0.1297883,0.7531068,-47.86463,-34.71492,1.450183
15.439773083,-8.46796500000002,117.7812,-6.79694399999997,1.082617,0.1671827,0.7482421,-47.86463,-34.71492,1.450183
15.449632168,-7.59834299999997,124.5057,-7.65518600000002,1.090276,0.1867333,0.75309,-47.14478,-34.77701,-2.394508
15.459491253,-7.59834299999997,130.9326,-9.43297400000002,1.099128,0.183895,0.7538983,-47.14478,-34.77701,-2.394508
15.469350815,-5.610633,136.9431,-10.90425,1.107147,0.1610724,0.747841,-47.14478,-34.77701,-2.394508
15.479210377,-1.076172,141.4062,-11.51728,1.123673,0.1583953,0.7734596,-47.14478,-34.77701,-2.394508
15.489069939,1.719045,145.8099,-12.43682,1.149007,0.171285,0.7770409,-47.14478,-34.77701,-2.394508
15.498929024,4.265797,149.4994,-13.60158,1.160068,0.1889064,0.7784696,-46.81062,-34.85795,-7.901628
15.508788586,5.321767,152.1178,-14.70503,1.160597,0.2025924,0.7934328,-46.81062,-34.85795,-7.901628
15.518648148,5.445999,154.7362,-16.36021,1.156794,0.1939364,0.8298331,-46.81062,-34.85795,-7.901628
15.52850771,4.700608,158.9018,-18.07669,1.141073,0.1734082,0.8428223,-46.81062,-34.85795,-7.901628
15.538366795,5.383883,162.5319,-18.32191,1.10142,0.166214,0.8347011,-46.81062,-34.85795,-7.901628
15.548226357,4.638493,165.5668,-18.1993,1.062506,0.1594482,0.8093219,-44.60506,-34.95512,-13.03432
15.558085441,5.75657900000002,166.8165,-16.85064,1.041149,0.1641877,0.825959,-44.60506,-34.95512,-13.03432
15.56794548,4.265797,168.1257,-15.99239,1.034258,0.1738794,0.8314103,-44.60506,-34.95512,-13.03432
15.577804565,2.961363,168.8398,-14.45982,1.032454,0.2017346,0.8671318,-44.60506,-34.95512,-13.03432
15.587664127,-3.250229,172.0533,-14.0307,1.043885,0.2348144,0.8375377,-44.60506,-34.95512,-13.03432
15.597523212,-8.96489200000003,174.0766,-13.29506,1.019583,0.2700129,0.8084707,-41.66002,-34.70436,-19.00683
15.609848022,-16.48092,174.7312,-14.70503,0.9834573,0.2661608,0.77493,-41.66002,-34.70436,-19.00683
15.619707107,-22.13347,173.6601,-16.115,0.9429997,0.2311785,0.7550849,-41.66002,-34.70436,-19.00683
15.629566193,-25.36349,172.6484,-16.97324,0.9001007,0.2205871,0.7570446,-41.66002,-34.70436,-19.00683
15.639425754,-28.71775,171.8748,-16.78933,0.8596314,0.2118305,0.7235243,-41.66002,-34.70436,-19.00683
15.649285316,-30.14642,170.5061,-15.93109,0.8267485,0.1913572,0.6620035,-37.21484,-34.83278,-24.5352
15.659144878,-28.46929,166.1024,-15.13415,0.776468,0.1541889,0.6015481,-37.21484,-34.83278,-24.5352
15.669003963,-24.49387,158.3663,-14.70503,0.747658,0.1065902,0.5637003,-37.21484,-34.83278,-24.5352
15.678863525,-17.9717,149.6185,-14.82764,0.706215,0.06671492,0.539036,-37.21484,-34.83278,-24.5352
15.688723087,-10.02086,142.0013,-15.07285,0.6515064,0.0597705,0.503338,-37.21484,-34.83278,-24.5352
15.698582649,-2.442722,134.8602,-15.56327,0.568202,0.05641706,0.4546602,-31.65249,-34.23785,-30.0769
15.708441734,5.445999,126.886,-15.99239,0.4743676,0.05010515,0.4204836,-31.65249,-34.23785,-30.0769
15.718301296,13.45895,116.948,-15.93109,0.4187223,0.01498197,0.398937,-31.65249,-34.23785,-30.0769
15.728160381,20.91286,108.8548,-14.82764,0.3974496,-0.04616527,0.3637426,-31.65249,-34.23785,-30.0769
15.73802042,35.82068,100.7616,-10.41382,0.3744707,-0.0668707,0.3466443,-31.65249,-34.23785,-30.0769
15.747879505,46.56674,93.7990700000001,-6.73564099999998,0.3466219,-0.0009792139,0.3356172,-26.07295,-33.98166,-33.50238
15.757739067,48.18175,88.3837599999998,-3.915704,0.2962416,0.1020279,0.2835343,-26.07295,-33.98166,-33.50238
15.767598152,43.27459,82.0163000000003,-3.302674,0.2298053,0.2000346,0.2335547,-26.07295,-33.98166,-33.50238
15.777458191,34.64048,74.5181699999998,-4.222218,0.1813797,0.2466945,0.2034907,-26.07295,-33.98166,-33.50238
15.789782047,23.08692,63.8065700000001,-6.429126,0.1751084,0.2002817,0.1691653,-26.07295,-33.98166,-33.50238
15.799641132,18.67669,54.40416,-6.91955000000002,0.1754743,0.1447282,0.1471272,-22.76812,-34.75697,-33.57592
15.809501171,17.18591,44.46616,-6.91955000000002,0.1687777,0.1105351,0.1282453,-22.76812,-34.75697,-33.57592
15.819360256,15.38455,33.3975,-5.93870199999998,0.1355382,0.09657735,0.1180589,-22.76812,-34.75697,-33.57592
15.829219818,13.58318,22.26933,-5.203066,0.09583562,0.08266889,0.1362377,-22.76812,-34.75697,-33.57592
15.839078903,11.40913,10.66509,-3.24137,0.09127186,0.09248366,0.1689712,-22.76812,-34.75697,-33.57592
15.848938465,7.37159299999998,0.4890598,-1.034463,0.1015034,0.1234563,0.2289867,-19.02757,-35.90993,-33.968
15.858798027,-0.2686647,-6.89004799999999,-0.1762206,0.119294,0.1461219,0.2619892,-19.02757,-35.90993,-33.968
15.868657589,-7.84680700000002,-13.9121,0.007688423,0.1273471,0.1330736,0.2670355,-19.02757,-35.90993,-33.968
15.878516674,-13.06454,-21.70777,0.5594154,0.121428,0.08285554,0.2551952,-19.02757,-35.90993,-33.968
15.888376236,-13.31301,-30.81264,1.785475,0.12181,0.03365357,0.2399194,-19.02757,-35.90993,-33.968
15.898235798,-12.1328,-41.82179,3.869777,0.1330548,0.03961009,0.2446014,-17.90437,-36.29102,-33.97003
15.90809536,-10.45567,-53.72358,5.15714,0.1584418,0.08766713,0.2829811,-17.90437,-36.29102,-33.97003
15.917954445,-11.76011,-63.8400999999999,5.034534,0.2008775,0.133549,0.3498514,-17.90437,-36.29102,-33.97003
15.927814007,-16.54304,-71.5762600000002,4.053687,0.2368813,0.1350605,0.4082926,-17.90437,-36.29102,-33.97003
15.937673569,-20.26999,-77.5271499999999,3.379353,0.2685329,0.1219006,0.4575671,-17.90437,-36.29102,-33.97003
15.947533131,-23.8106,-81.1571999999999,2.337202,0.2945851,0.09691332,0.4804657,-19.4033,-35.53746,-33.96984
15.957392216,-24.30752,-85.6203700000002,2.766323,0.2975855,0.05022332,0.4800289,-19.4033,-35.53746,-33.96984
15.969716072,-18.59286,-94.6657299999999,6.19929100000001,0.3027373,0.03325283,0.4841251,-19.4033,-35.53746,-33.96984
15.979576111,-13.00243,-104.3657,8.22229000000003,0.3464679,0.06835753,0.5288427,-19.4033,-35.53746,-33.96984
15.989435196,-8.71642900000001,-114.0656,10.06138,0.4141078,0.1277154,0.6261364,-19.4033,-35.53746,-33.96984
15.999294758,-7.97103800000001,-121.2067,9.632258,0.4945809,0.2124712,0.7181901,-22.38071,-35.47887,-32.22601
16.009153843,-12.38127,-124.2417,5.83147299999998,0.5642768,0.2601572,0.8124808,-22.38071,-35.47887,-32.22601
16.019013882,-19.40037,-122.6349,1.47896,0.6140788,0.2310605,0.851299,-22.38071,-35.47887,-32.22601
16.028872967,-23.68637,-119.3619,0.3755064,0.605392,0.1618233,0.8350248,-22.38071,-35.47887,-32.22601
16.038732529,-19.40037,-119.957,3.256747,0.582522,0.1094142,0.7980102,-22.38071,-35.47887,-32.22601
16.048591614,-12.38127,-124.2417,5.83147299999998,0.6039132,0.1099199,0.7526649,-26.4207,-35.41519,-30.98883
16.058451653,-3.125997,-133.7036,8.590108,0.6449706,0.1631377,0.8325551,-26.4207,-35.41519,-30.98883
16.068310738,-0.827707900000002,-139.952,7.48665400000003,0.7672892,0.2100376,0.9821554,-26.4207,-35.41519,-30.98883
16.0781703,-7.28776300000003,-134.0606,3.992383,0.8623918,0.2151113,1.07237,-26.4207,-35.41519,-30.98883
16.088029385,-11.38741,-122.7539,3.563262,0.8490455,0.2252076,1.071208,-26.4207,-35.41519,-30.98883
16.097888947,-10.76625,-113.1135,3.256747,0.7485536,0.1790729,0.9443043,-30.50934,-34.95234,-27.57862
16.107748508,0.973653600000002,-111.3282,3.072838,0.7075576,0.1228081,0.8303643,-30.50934,-34.95234,-27.57862
16.11760807,14.26646,-114.6607,2.275899,0.7534817,0.1020695,0.7715517,-30.50934,-34.95234,-27.57862
16.127467155,23.0248,-118.8859,1.47896,0.8112323,0.109153,0.7075341,-30.50934,-34.95234,-27.57862
16.139791966,34.20567,-123.8846,4.911928,0.8215631,0.1492951,0.7470199,-30.50934,-34.95234,-27.57862
16.149651051,33.83297,-124.7772,8.22229000000003,0.8313032,0.2222502,0.8438159,-34.59673,-35.23114,-24.54495
16.159510136,23.52173,-120.4926,8.83531999999998,0.8003512,0.279768,0.8131153,-34.59673,-35.23114,-24.54495
16.169369698,15.88147,-116.2675,7.60926000000002,0.7839934,0.2725935,0.7553048,-34.59673,-35.23114,-24.54495
16.179229736,13.45895,-114.9583,5.708868,0.8106544,0.2094277,0.7174933,-34.59673,-35.23114,-24.54495
16.189088821,18.61457,-116.565,4.789322,0.8257048,0.1277777,0.7089225,-34.59673,-35.23114,-24.54495
16.198947907,27.18657,-119.6,4.911928,0.8648723,0.07936334,0.811942,-37.9247,-35.4954,-19.85078
16.208807468,28.42889,-115.2558,5.15714,0.8913676,0.02862642,0.8446801,-37.9247,-35.4954,-19.85078
16.218666554,31.09987,-109.1264,10.67441,0.8497546,0.07449536,0.8470979,-37.9247,-35.4954,-19.85078
16.228526592,31.09987,-102.4019,14.84301,0.8325932,0.1696193,0.8203517,-37.9247,-35.4954,-19.85078
16.238385677,27.43503,-96.9270600000003,16.19168,0.8428281,0.2220224,0.7559562,-37.9247,-35.4954,-19.85078
16.248245239,25.69579,-95.61787,16.37559,0.856047,0.2522773,0.7473975,-40.50319,-36.13644,-15.15671
16.258104324,18.49034,-94.3681799999999,14.41389,0.9034485,0.2220603,0.7526966,-40.50319,-36.13644,-15.15671
16.267964363,12.58933,-90.8571500000002,12.94262,0.9141673,0.1860145,0.7177372,-40.50319,-36.13644,-15.15671
16.277823448,10.29104,-87.6436700000001,12.94262,0.887436,0.1796968,0.6533729,-40.50319,-36.13644,-15.15671
16.28768301,9.60776600000003,-86.0369299999997,13.00392,0.8803294,0.1579454,0.5794939,-40.50319,-36.13644,-15.15671
16.297542095,12.03029,-86.1559500000001,12.88132,0.8900186,0.1513878,0.4949614,-42.34148,-36.05606,-10.92214
16.307401657,18.49034,-89.7264900000002,12.94262,0.8971503,0.1538351,0.481942,-42.34148,-36.05606,-10.92214
16.31972599,21.16133,-93.3565299999999,11.77786,0.9552347,0.1605782,0.5856366,-42.34148,-36.05606,-10.92214
16.329585075,18.11765,-90.9166600000001,10.67441,0.9754305,0.1476133,0.5842808,-42.34148,-36.05606,-10.92214
16.339444637,17.18591,-88.0602300000002,11.34874,0.9335416,0.1403221,0.5555851,-44.18372,-36.35541,-7.515985
16.349304676,15.44666,-86.0964400000002,13.06523,0.9167274,0.1419407,0.5079186,-44.18372,-36.35541,-7.515985
16.359163761,15.50878,-86.0964400000002,15.45604,0.9061948,0.1495872,0.4956741,-44.18372,-36.35541,-7.515985
16.369022846,15.32243,-85.4418399999999,16.74341,0.9447816,0.1598124,0.5359423,-44.18372,-36.35541,-7.515985
16.378882408,11.90605,-82.58541,17.96947,0.9632975,0.1614208,0.5318584,-44.18372,-36.35541,-7.515985
16.388742447,9.73199700000002,-80.6811299999999,19.31813,0.9410141,0.1903073,0.501751,-44.52985,-36.29763,-3.673223
16.398601532,6.62620199999998,-79.4909500000002,18.88901,0.9143981,0.204528,0.4639144,-44.52985,-36.29763,-3.673223
16.408460617,4.762724,-80.2050599999998,17.54035,0.9132085,0.1937181,0.4389217,-44.52985,-36.29763,-3.673223
16.418320179,6.25350600000003,-81.3952299999998,16.6821,0.9330539,0.1696945,0.473897,-44.52985,-36.29763,-3.673223
16.428180218,6.75043299999998,-79.7289800000001,15.94647,0.967836,0.1527105,0.5341162,-44.52985,-36.29763,-3.673223
16.438039303,8.241216,-75.7418799999999,16.80471,0.9467002,0.1476132,0.5223945,-44.52985,-36.29763,-3.673223
16.447898388,10.04258,-72.9449599999998,18.15338,0.916904,0.1890787,0.4905835,-46.7426,-36.58643,0.1829643
16.45775795,9.42141799999999,-71.2787199999999,18.27598,0.8963413,0.2345149,0.457716,-46.7426,-36.58643,0.1829643
16.467617035,8.86237499999997,-70.1480500000001,17.41774,0.8829678,0.2605798,0.4327291,-46.7426,-36.58643,0.1829643
16.477477074,7.06101299999998,-70.8026400000001,16.19168,0.8915197,0.2626736,0.4517928,-46.7426,-36.58643,0.1829643
16.48980093,3.706754,-69.1958999999998,14.90432,0.9279206,0.2202227,0.4648125,-47.09994,-36.17833,2.741678
16.499660015,3.271943,-66.8155399999999,15.33344,0.9225196,0.2104048,0.4547435,-47.09994,-36.17833,2.741678
16.509520054,2.278088,-65.0302699999998,15.39474,0.9043679,0.2291355,0.4316795,-47.09994,-36.17833,2.741678
16.519379616,1.160001,-63.30452,14.4752,0.8940219,0.2391412,0.3993258,-47.09994,-36.17833,2.741678
16.529238701,0.663074000000001,-63.1259900000003,13.12653,0.8987551,0.2381628,0.3867909,-47.09994,-36.17833,2.741678
16.539097786,0.1040308,-61.8763000000002,10.91962,0.9340394,0.2117754,0.4037957,-47.45329,-35.3905,6.1288
16.548957825,1.03577,-57.65117,8.77401600000001,0.9453095,0.1744221,0.4081118,-47.45329,-35.3905,6.1288
16.558817387,4.265797,-53.24751,7.42535099999997,0.932108,0.1508721,0.3879749,-47.45329,-35.3905,6.1288
16.568676472,9.42141799999999,-49.49844,6.32189799999997,0.9280809,0.1345584,0.3294323,-47.45329,-35.3905,6.1288
16.578535557,16.44052,-47.35612,6.751019,0.9150285,0.1527681,0.2852064,-47.45329,-35.3905,6.1288
16.588395119,21.40979,-47.05858,6.751019,0.924125,0.1951345,0.2720167,-47.44334,-34.99918,7.789389
16.598255157,20.22959,-45.39233,6.19929100000001,0.9659906,0.2384127,0.2947868,-47.44334,-34.99918,7.789389
16.608114242,15.13608,-42.35737,6.62841199999998,0.999853,0.2498366,0.2766703,-47.44334,-34.99918,7.789389
16.617973328,9.794114,-40.09604,6.93492700000001,1.016199,0.247461,0.2534157,-47.44334,-34.99918,7.789389
16.627832889,2.961363,-37.77518,6.751019,1.013351,0.239513,0.21697,-47.44334,-34.99918,7.789389
16.637692928,-3.99562,-36.88255,6.751019,1.009138,0.2130289,0.1717618,-47.44334,-34.99918,7.789389
16.647552013,-9.77240000000001,-38.72733,7.73186600000001,1.016559,0.173571,0.1430503,-48.11333,-34.96187,9.905386
16.657411098,-12.00857,-39.38193,5.95407899999997,0.9927423,0.1338563,0.1195738,-48.11333,-34.96187,9.905386
16.669735908,-9.15124000000001,-39.14389,1.47896,0.8901979,0.09868824,0.06706817,-48.11333,-34.96187,9.905386
16.679594994,-5.300054,-39.97702,-0.4827355,0.8205606,0.06043036,0.02125546,-48.11333,-34.96187,9.905386
16.689454555,-1.386751,-43.42854,0.1915974,0.7781144,0.03860372,0.01065463,-47.41895,-34.95197,11.18212
16.699313641,1.097885,-46.76104,0.3755064,0.7841604,0.01833547,0.04154537,-47.41895,-34.95197,11.18212
16.709172726,3.271943,-47.05858,3.31805,0.8368013,-0.0180861,0.0668437,-47.41895,-34.95197,11.18212
16.719032764,4.638493,-46.34447,6.87362400000002,0.8841605,0.02722476,0.09961588,-47.41895,-34.95197,11.18212
16.728892326,4.265797,-43.78559,7.36404799999998,0.9067094,0.08184831,0.07914991,-47.41895,-34.95197,11.18212
16.738751411,3.334059,-41.16719,4.850626,0.8690704,0.1115225,0.03585044,-47.03448,-35.3075,12.40022
16.748610496,4.017333,-41.04818,2.275899,0.8479312,0.07748374,-0.03745306,-47.03448,-35.3075,12.40022
16.758470535,8.42756399999998,-43.1905,2.766323,0.8475629,0.02771476,-0.07237019,-47.03448,-35.3075,12.40022
16.768330097,10.10469,-45.63036,4.176292,0.8317149,0.05304375,-0.0283234,-47.03448,-35.3075,12.40022
16.778189182,8.42756399999998,-47.41563,5.095838,0.9065591,0.08446445,-0.001331377,-47.03448,-35.3075,12.40022
16.788048267,8.551796,-44.73773,3.869777,0.9481389,0.03872118,0.02979632,-46.64832,-35.28776,14.12666
16.797908306,10.41527,-42.00032,5.77016999999999,0.8988199,0.04633849,-0.028378,-46.64832,-35.28776,14.12666
16.807767868,9.66988199999998,-43.60706,7.793169,0.886054,0.1024412,-0.0900185,-46.64832,-35.28776,14.12666
16.817626953,7.80640399999998,-43.90461,6.19929100000001,0.8846578,0.1145191,-0.1100231,-46.64832,-35.28776,14.12666
16.827486038,10.29104,-43.42854,6.01538200000003,0.8654812,0.06416991,-0.125509,-46.64832,-35.28776,14.12666
16.839810848,14.45281,-45.45184,9.20313699999998,0.8794826,0.03082548,-0.09675883,-45.51396,-34.90316,16.22955
16.849669933,15.32243,-45.45184,13.18783,0.9253617,0.037685,-0.06285248,-45.51396,-34.90316,16.22955
16.859529495,16.12994,-46.22545,17.17253,0.9625561,0.1090296,-0.07092688,-45.51396,-34.90316,16.22955
16.86938858,13.52107,-47.35612,17.41774,1.005199,0.1784883,-0.07574046,-45.51396,-34.90316,16.22955
16.879248619,7.86851999999999,-46.88005,15.57865,1.026617,0.2091365,-0.128499,-45.51396,-34.90316,16.22955
16.889107704,1.656929,-47.53465,15.08823,0.9951339,0.2218562,-0.1657997,-45.12103,-35.61437,18.34762
16.898967266,-5.67275,-49.91501,14.22998,0.9384235,0.2280638,-0.1932118,-45.12103,-35.61437,18.34762
16.908826351,-13.87205,-51.04568,12.32959,0.8877057,0.2305876,-0.1790501,-45.12103,-35.61437,18.34762
16.91868639,-20.02153,-51.1647,9.38704699999999,0.8299428,0.2057891,-0.1674145,-45.12103,-35.61437,18.34762
16.928545475,-23.56213,-49.37943,4.421504,0.7877294,0.136453,-0.1309789,-45.12103,-35.61437,18.34762
16.938405037,-24.24541,-45.68987,2.398505,0.8065285,0.02039685,-0.1101831,-44.74131,-35.60711,19.17787
16.948264122,-18.53074,-39.73898,5.279747,0.8380364,0.009231556,-0.1773351,-44.74131,-35.60711,19.17787
16.958124161,-11.82222,-38.42978,7.24144199999999,0.81029,0.1410104,-0.2663962,-44.74131,-35.60711,19.17787
16.967983246,-13.00243,-43.60706,4.482807,0.8163513,0.2588622,-0.2563832,-44.74131,-35.60711,19.17787
16.977842331,-22.63039,-48.12974,-0.2375236,0.8781871,0.2199707,-0.1330009,-44.74131,-35.60711,19.17787
16.987701893,-27.91025,-43.96412,-3.24137,0.9893891,0.0975823,0.05701953,-42.86142,-37.09504,19.63139
16.997560978,-17.03996,-28.67032,-6.55173199999999,0.9495717,0.06549402,0.1584273,-42.86142,-37.09504,19.63139
17.007421017,-2.939649,-9.865495,-12.86594,0.8987419,0.05572772,0.0100383,-42.86142,-37.09504,19.63139
17.019744873,31.53468,9.41540100000002,1.724172,0.8289505,0.3435472,-0.8006978,-42.86142,-37.09504,19.63139
17.029604435,8.05486800000002,-28.43228,22.44459,0.6920701,1.086321,-1.072331,-42.86142,-37.09504,19.63139
17.039463997,-102.3872,-117.0411,-10.65903,1.651175,1.200031,-1.172734,-41.73023,-37.8327,20.46531
17.049323559,-133.3831,-132.811,-19.67057,2.114987,0.5250389,-0.07904902,-41.73023,-37.8327,20.46531
17.059182644,-191.5236,-153.5796,-35.79326,2.395669,-0.3763447,3.100332,-41.73023,-37.8327,20.46531
17.069042206,-7.90892299999997,35.89688,-5.448278,2.667907,-0.5822307,0.8903975,-41.73023,-37.8327,20.46531
17.078901768,66.3195999999999,54.82072,-54.42937,1.480518,-0.354752,-0.5250034,-41.73023,-37.8327,20.46531
17.08876133,68.2451900000001,32.0883,-33.27984,0.9542778,-0.3449186,-0.682744,-39.85954,-39.33846,19.63856
17.098620415,13.21049,-13.79308,7.36404799999998,0.5055723,-0.1595987,-0.8123152,-39.85954,-39.33846,19.63856
17.108479977,1.346349,-48.24876,21.15722,0.6863943,-0.06341308,-0.6343807,-39.85954,-39.33846,19.63856
17.118339539,7.99275200000001,-54.97327,22.13807,0.8937272,-0.007249156,-0.1619751,-39.85954,-39.33846,19.63856
17.128199101,2.588667,-48.78434,27.22622,1.14766,0.07149828,0.1240276,-39.85954,-39.33846,19.63856
17.138058186,16.50263,-33.07398,20.17637,1.311383,0.2666788,0.1396341,-37.59792,-41.18727,20.9261
17.147917271,10.10469,-18.37527,3.685868,1.271299,0.4675116,0.06762438,-37.59792,-41.18727,20.9261
17.157776833,-23.74848,-13.198,-4.038309,1.180559,0.5034241,-0.1330014,-37.59792,-41.18727,20.9261
17.167636871,-45.17847,-8.615807,-8.02300500000002,1.077543,0.3403412,-0.2967958,-37.59792,-41.18727,20.9261
17.177495956,-44.61943,-7.12808399999997,-12.0077,0.9412487,0.03387937,-0.3362547,-37.59792,-41.18727,20.9261
17.187355042,-26.60581,-7.90170000000001,-8.02300500000002,0.8853899,-0.2270309,-0.3568285,-36.85172,-40.45427,21.29878
17.199679852,14.76339,-9.80598499999999,0.2529004,0.8086807,-0.2408666,-0.3616024,-36.85172,-40.45427,21.29878
17.209538937,45.01384,-13.55505,2.643717,0.811816,0.002518843,-0.3480922,-36.85172,-40.45427,21.29878
17.219398499,48.80291,-14.80474,2.643717,0.9045925,0.2269843,-0.2713275,-36.85172,-40.45427,21.29878
17.229257584,38.2432,-11.71027,2.09199,1.004775,0.3084009,-0.2078555,-36.85172,-40.45427,21.29878
17.239117622,23.33538,-11.59125,3.072838,1.096197,0.2521252,-0.1185855,-36.47076,-41.18864,21.75248
17.248976708,6.68831799999999,-11.82929,6.99623000000001,1.19321,0.1967981,-0.04903439,-36.47076,-41.18864,21.75248
17.258836269,-1.635215,-6.11643200000001,6.56710899999998,1.199608,0.1956184,-0.1190986,-36.47076,-41.18864,21.75248
17.268695355,-5.85909699999999,1.143658,3.440656,1.068812,0.1315112,-0.2955585,-36.47076,-41.18864,21.75248
17.278555393,-9.83451600000002,-0.04652058,2.398505,0.9147549,-0.004458437,-0.375495,-36.47076,-41.18864,21.75248
17.288414478,-12.5055,-7.60415499999998,10.12268,0.8789515,-0.08251185,-0.3430579,-35.71932,-40.81754,22.57703
17.29827404,-8.40584900000001,-13.55505,17.72425,0.9812613,-0.02153471,-0.2850599,-35.71932,-40.81754,22.57703
17.308133125,-6.85295199999998,-15.75688,22.13807,1.108355,0.1460498,-0.1455308,-35.71932,-40.81754,22.57703
17.317993164,-5.36217,-7.84219100000002,20.7281,1.182595,0.2595382,-0.1624031,-35.71932,-40.81754,22.57703
17.327852249,-4.678895,1.61973,18.09207,1.125311,0.2429887,-0.2877557,-35.71932,-40.81754,22.57703
17.337711811,-9.02700799999998,3.583524,18.27598,0.989083,0.1461603,-0.3532401,-35.71811,-40.44316,23.02135
17.347570896,-10.33144,0.4890598,21.52504,0.9238583,0.1121204,-0.3228874,-35.71811,-40.44316,23.02135
17.357429981,-5.237938,4.654685,22.13807,0.9008501,0.1543878,-0.286742,-35.71811,-40.44316,23.02135
17.369754791,-5.486402,11.26018,20.11507,0.7947732,0.1427286,-0.2905997,-35.71811,-40.44316,23.02135
17.379613876,-8.28161699999999,16.02089,21.15722,0.7215033,0.1076634,-0.3847328,-35.71811,-40.44316,23.02135
17.389473438,-7.41199499999999,16.735,25.87755,0.6849672,0.111994,-0.4412003,-34.97865,-40.09522,22.18154
17.399333477,-13.00243,6.26142599999997,30.35267,0.8752563,0.1304653,-0.2472847,-34.97865,-40.09522,22.18154
17.409192562,-17.66112,-2.783932,31.82394,1.213085,0.2181878,0.02801398,-34.97865,-40.09522,22.18154
17.419051647,-22.94098,-5.223798,26.18407,1.631551,0.07545388,0.1660426,-34.97865,-40.09522,22.18154
17.428911209,-22.69251,2.333837,21.15722,1.81235,-0.2589306,0.1069735,-34.97865,-40.09522,22.18154
17.438771248,-11.51165,21.07915,9.632258,1.426806,-0.449759,-0.1704321,-36.10184,-39.71413,22.18357
17.448630333,-4.119852,23.10246,13.55565,0.9032093,-0.3547308,-0.4540001,-36.10184,-39.71413,22.18357
17.458489418,-4.989474,7.39209699999998,21.89286,0.6399413,-0.06780749,-0.528811,-36.10184,-39.71413,22.18357
17.46834898,1.719045,-7.30661099999998,27.28752,0.664497,0.2025086,-0.3917455,-36.10184,-39.71413,22.18357
17.478208542,5.259652,-7.66366400000002,24.03846,0.8395269,0.3618637,-0.2242171,-36.10184,-39.71413,22.18357
17.488068104,-4.3062,1.738747,18.5825,0.995753,0.2647264,-0.1544251,-36.10706,-39.35222,21.7317
17.497927189,-13.6857,7.57062300000002,18.76641,1.055754,0.09780187,-0.1705858,-36.10706,-39.35222,21.7317
17.507786751,-11.51165,8.522766,20.17637,1.065993,-0.0224386,-0.2072072,-36.10706,-39.35222,21.7317
17.517646313,-8.90277699999999,7.51111399999998,23.30283,1.060323,-0.08479144,-0.2114863,-36.10706,-39.35222,21.7317
17.527505875,-4.554663,6.0829,24.46758,1.038149,-0.1029613,-0.2031772,-36.10706,-39.35222,21.7317
17.53736496,1.781161,5.190266,26.67449,0.9981176,-0.08425228,-0.1804056,-37.61198,-38.61024,20.8997
17.54968977,4.82484,0.667586600000001,29.43313,0.9519728,0.02696324,-0.129931,-37.61198,-38.61024,20.8997
17.559548855,7.12312899999999,3.881069,32.9887,1.000975,0.181377,-0.2036021,-37.61198,-38.61024,20.8997
17.569408417,1.905392,10.7246,27.90055,0.9705934,0.3044274,-0.2783234,-37.61198,-38.61024,20.8997
17.579267502,-9.77240000000001,16.97304,25.32583,0.9413942,0.2098479,-0.3860461,-37.61198,-38.61024,20.8997
17.589126587,-15.17648,14.35464,24.95801,0.9076056,0.01980651,-0.3761467,-37.60921,-38.6049,21.28379
17.598986626,-11.57376,9.23687400000002,26.7358,1.00668,-0.1371072,-0.2806472,-37.60921,-38.6049,21.28379
17.608846188,-5.113706,7.92767700000003,29.49443,1.041443,-0.1699378,-0.1640158,-37.60921,-38.6049,21.28379
17.618705273,3.023479,9.17736400000001,29.49443,1.013048,-0.1660193,-0.09026054,-37.60921,-38.6049,21.28379
17.628564358,9.918345,9.41540100000002,30.29137,0.92643,-0.1088314,-0.07752179,-37.60921,-38.6049,21.28379
17.638424396,8.676027,5.130757,31.70134,0.8957255,-0.004020286,-0.08434603,-39.12016,-36.75847,20.44048
17.648283482,4.017333,2.095801,32.37567,0.9415328,0.08722957,-0.1249608,-39.12016,-36.75847,20.44048
17.658143043,-1.200403,2.274328,30.59789,0.9751578,0.08345073,-0.173871,-39.12016,-36.75847,20.44048
17.668002129,-4.927359,1.143658,30.04616,0.9603404,0.03885172,-0.2233938,-39.12016,-36.75847,20.44048
17.677862167,-4.244083,0.4890598,30.47528,0.941372,0.01381451,-0.2372315,-39.12016,-36.75847,20.44048
17.687721252,0.1040308,0.846113400000001,30.10746,0.9577063,-0.04688118,-0.2408518,-40.24535,-36.00923,20.43873
17.697580814,5.632347,1.381694,31.08831,0.9656392,-0.1135336,-0.2559033,-40.24535,-36.00923,20.43873
17.707439899,10.66374,1.679239,33.72434,0.9964396,-0.1512124,-0.2547435,-40.24535,-36.00923,20.43873
17.719764709,15.63301,1.441203,36.72818,1.003333,-0.0984104,-0.2050386,-40.24535,-36.00923,20.43873
17.729623794,18.86304,3.643033,37.15731,1.01607,-0.06815788,-0.2131112,-40.24535,-36.00923,20.43873
17.739483356,18.11765,3.345489,38.68988,0.9944713,-0.04249364,-0.1958148,-41.7463,-34.88752,20.43515
17.749342918,11.65759,-0.1060295,40.71288,0.9601843,0.01103072,-0.1158065,-41.7463,-34.88752,20.43515
17.75920248,2.029624,-3.795583,42.79718,1.01045,0.04672994,-0.05775927,-41.7463,-34.88752,20.43515
17.769061565,-2.194258,-0.2845563,46.47536,1.048171,0.09953691,-0.0794152,-41.7463,-34.88752,20.43515
17.778921127,-9.02700799999998,5.190266,44.14585,1.032623,0.09707028,-0.1812839,-41.7463,-34.88752,20.43515
17.788780212,-16.23246,10.24853,43.71672,1.029781,0.005502172,-0.3267344,-42.12208,-33.39903,21.25418
17.798640251,-16.97785,10.66509,45.188,1.021697,-0.1227738,-0.3866433,-42.12208,-33.39903,21.25418
17.808499336,-13.12666,9.35589100000001,47.2723,1.059842,-0.2444434,-0.3513154,-42.12208,-33.39903,21.25418
17.818358421,-4.3062,12.0933,50.70527,1.089422,-0.2737649,-0.3246701,-42.12208,-33.39903,21.25418
17.828217983,4.017333,17.03254,52.91217,1.094361,-0.2162327,-0.3065246,-42.12208,-33.39903,21.25418
17.838078022,6.19139099999999,20.60308,51.07309,1.054006,-0.1351228,-0.252553,-43.2513,-31.91349,21.24489
17.847937107,3.830986,20.7221,50.21484,1.052612,-0.1208213,-0.198742,-43.2513,-31.91349,21.24489
17.857796192,1.408465,21.55522,50.58266,1.087529,-0.1130022,-0.1426282,-43.2513,-31.91349,21.24489
17.867655754,-1.200403,21.55522,49.05009,1.111905,-0.1340212,-0.09571224,-43.2513,-31.91349,21.24489
17.877515793,2.40232,22.38835,46.72057,1.151773,-0.194982,-0.09583654,-43.2513,-31.91349,21.24489
17.887374878,8.42756399999998,21.19817,46.65927,1.165421,-0.2035277,-0.07118481,-44.3865,-30.43954,20.40342
17.899698734,17.68283,16.43745,49.90833,1.199775,-0.1213061,-0.02689418,-44.3865,-30.43954,20.40342
17.909558773,23.27327,9.05834700000001,48.13054,1.253777,-0.04105857,0.09329244,-44.3865,-30.43954,20.40342
17.919417858,33.95721,12.62888,48.00793,1.294611,0.104588,0.1662987,-44.3865,-30.43954,20.40342
17.92927742,41.97016,11.91478,41.81633,1.309914,0.2070192,0.1947387,-44.3865,-30.43954,20.40342
17.939136505,52.65409,13.93808,33.54043,1.244653,0.290226,0.217935,-45.15244,-27.55243,19.99367
17.948996544,64.08343,16.0804,21.77025,1.171994,0.2461938,0.1965558,-45.15244,-27.55243,19.99367
17.958855629,82.2833900000002,19.59143,17.47904,1.052044,0.195876,0.0382673,-45.15244,-27.55243,19.99367
17.968715191,103.0301,17.09205,14.5978,0.8967408,0.1821787,-0.133105,-45.15244,-27.55243,19.99367
17.978574276,124.8949,13.4025,9.325744,0.8077537,0.1591625,-0.2211621,-45.15244,-27.55243,19.99367
17.988434315,145.331,6.85651600000003,1.969384,0.7930147,0.1756142,-0.2112292,-46.95487,-26.03581,21.65228
17.9982934,172.2894,5.725846,-12.19161,0.8561944,0.1852003,-0.2695527,-46.95487,-26.03581,21.65228
18.008152962,201.9808,7.92767700000003,-31.25684,0.8344411,0.233309,-0.4950188,-46.95487,-26.03581,21.65228
18.018012047,218.8142,1.976783,-47.44083,0.7707396,0.3536381,-0.8270974,-46.95487,-26.03581,21.65228
18.027871132,213.6586,-14.50719,-52.65158,0.7442325,0.5950282,-1.015883,-46.95487,-26.03581,21.65228
18.037731171,168.9972,-48.60581,-48.66689,0.7269104,0.8779384,-0.9250758,-46.64832,-22.32853,23.72542
18.047590733,103.9618,-72.5284000000003,-53.38722,0.8397723,1.026148,-0.3393727,-46.64832,-22.32853,23.72542
18.057449818,54.70392,-68.5413099999997,-69.3873100000002,1.076019,1.024183,0.2648685,-46.64832,-22.32853,23.72542
18.069774628,-0.703476100000001,-14.44768,-94.7667500000002,1.21805,0.7341502,0.05673679,-46.64832,-22.32853,23.72542
18.079633713,-49.02966,2.988435,-103.104,0.9382515,0.3608426,-0.3401614,-46.64832,-22.32853,23.72542
18.089492798,-63.5647799999999,-4.50969,-102.1844,0.8011782,0.124328,-0.4111253,-45.14186,-19.34716,27.52835
18.09935236,-65.6146100000002,-11.8888,-98.99666,0.7959132,-0.08942489,-0.3035968,-45.14186,-19.34716,27.52835
18.109212399,-54.55797,-11.2342,-93.8472100000001,0.8379125,-0.3604216,-0.2604792,-45.14186,-19.34716,27.52835
18.119071484,-43.12864,-16.59,-79.4410000000003,0.959803,-0.5274347,-0.1869541,-45.14186,-19.34716,27.52835
18.128930569,-29.21468,-8.31826200000003,-68.7129700000001,1.107757,-0.4753406,-0.2696079,-45.14186,-19.34716,27.52835
18.138790131,-16.10822,-1.831789,-65.0961,1.038073,-0.3294677,-0.2645084,-41.75227,-21.93987,29.20173
18.148649693,-14.61744,0.965131299999997,-64.9121900000001,0.9901498,-0.2223948,-0.2763394,-41.75227,-21.93987,29.20173
18.158509254,-19.40037,3.524015,-65.6478300000001,0.9539331,-0.1922322,-0.3225302,-41.75227,-21.93987,29.20173
18.16836834,-28.28294,2.214819,-67.79343,0.9670918,-0.2183584,-0.3133542,-41.75227,-21.93987,29.20173
18.178227902,-37.72456,1.381694,-68.4677700000001,1.025735,-0.2615255,-0.2843648,-41.75227,-21.93987,29.20173
18.188087463,-43.99827,3.702542,-68.89688,1.061953,-0.3139283,-0.3294095,-37.9985,-23.8113,30.09745
18.197947025,-52.19757,4.535667,-68.3451499999998,1.011986,-0.3494072,-0.329476,-37.9985,-23.8113,30.09745
18.20780611,-63.6269,3.82156,-68.0386399999997,0.9753162,-0.4187844,-0.3170797,-37.9985,-23.8113,30.09745
18.217665672,-74.1866000000003,3.583524,-64.9121900000001,0.956285,-0.5098329,-0.2859497,-37.9985,-23.8113,30.09745
18.227524757,-80.0876199999999,4.535667,-58.4753700000002,0.9763445,-0.5248721,-0.191481,-37.9985,-23.8113,30.09745
18.237384796,-88.9080699999997,3.404998,-53.20331,0.963389,-0.4208421,-0.1889808,-35.36559,-26.4132,30.49441
18.249708653,-109.3442,3.643033,-48.54428,0.9393575,-0.5348287,-0.2935866,-35.36559,-26.4132,30.49441
18.259568691,-117.8541,2.274328,-42.96571,0.9735958,-0.716936,-0.2750058,-35.36559,-26.4132,30.49441
18.269427776,-106.2384,-1.058172,-41.67835,1.023959,-0.8184833,-0.2229103,-35.36559,-26.4132,30.49441
18.279286861,-83.3797600000002,-3.140985,-38.98102,1.067728,-0.9457595,-0.1388315,-35.36559,-26.4132,30.49441
18.289146423,-60.5832200000001,-5.223798,-30.3986,1.118413,-1.032703,-0.08613814,-33.87012,-29.34369,28.40376
18.299005508,-39.65015,-3.736075,-22.00009,1.118218,-1.103988,-0.01964903,-33.87012,-29.34369,28.40376
18.308865547,-25.42561,-2.724423,-11.57858,1.096579,-1.17064,0.1645887,-33.87012,-29.34369,28.40376
18.318724632,-2.132142,3.107453,2.275899,1.042134,-1.188416,0.3540192,-33.87012,-29.34369,28.40376
18.328584194,33.95721,12.98594,14.22998,0.9688459,-1.077754,0.7096468,-33.87012,-29.34369,28.40376
18.338443279,59.6110799999999,26.13741,23.60934,0.990419,-0.9280475,1.131819,-31.24515,-32.70505,27.1439
18.348303318,65.8847899999997,47.85817,29.00401,1.203258,-0.6824955,1.098272,-31.24515,-32.70505,27.1439
18.358162403,66.5680600000002,69.2813899999998,18.27598,1.162385,-0.1166257,0.141398,-31.24515,-32.70505,27.1439
18.368021965,47.25001,53.80907,2.950232,0.9141273,0.209912,-0.3046722,-31.24515,-32.70505,27.1439
18.37788105,19.98112,24.17362,2.827626,0.8885524,0.4621213,-0.59497,-31.24515,-32.70505,27.1439
18.387741089,-12.87819,-7.42562799999997,5.218443,1.069846,0.5062839,-0.5358437,-31.61566,-32.6945,27.59393
18.397600174,-50.27198,-21.82679,12.5135,1.382029,0.2812187,0.3462433,-31.61566,-32.6945,27.59393
18.407459736,-50.7689,15.00924,6.68971499999997,1.621231,0.1282655,0.3885048,-31.61566,-32.6945,27.59393
18.419784069,-8.84066099999998,41.55022,-18.68973,1.262994,-0.2868992,-0.3440268,-31.61566,-32.6945,27.59393
18.429643631,20.97498,28.93433,-9.61688199999998,0.9193139,-0.4756266,-0.4197891,-31.61566,-32.6945,27.59393
18.439502716,28.491,5.606828,11.83917,0.7723605,-0.2727161,-0.07527141,-32.00462,-31.60356,26.30428
18.449361801,22.65211,-0.1655384,17.41774,0.9441381,0.159524,0.2014679,-32.00462,-31.60356,26.30428
18.45922184,15.26031,13.70004,6.07668500000002,1.066846,0.3889742,0.1096491,-32.00462,-31.60356,26.30428
18.469081402,-7.84680700000002,16.02089,2.214596,0.9877726,0.3443295,-0.0597165,-32.00462,-31.60356,26.30428
18.478940487,-29.96007,9.89147200000003,5.83147299999998,0.9513836,0.289326,0.02180184,-32.00462,-31.60356,26.30428
18.488799572,-39.15322,11.91478,4.728019,1.004676,0.1914383,0.004881805,-32.00583,-31.97794,25.85995
18.498659611,-33.00375,13.16446,4.360201,0.9989593,0.07181477,-0.08901096,-32.00583,-31.97794,25.85995
18.508519173,-23.4379,11.55772,5.463655,0.9959105,-0.01634234,-0.1031291,-32.00583,-31.97794,25.85995
18.518378258,-12.81608,10.18902,6.3832,1.025261,-0.09832256,-0.1037601,-32.00583,-31.97794,25.85995
18.528237343,1.03577,10.01049,7.60926000000002,1.024079,-0.1295007,-0.1102359,-32.00583,-31.97794,25.85995
18.538097382,11.59548,9.89147200000003,8.528805,0.9993815,-0.07900958,-0.08310185,-32.38232,-31.97897,25.4778
18.547956944,16.44052,9.41540100000002,9.75486500000002,0.9902176,0.005626441,-0.07075618,-32.38232,-31.97897,25.4778
18.557816028,18.24188,8.64178400000002,9.87747100000001,1.002392,0.07881795,-0.04635204,-32.38232,-31.97897,25.4778
18.567675114,18.17976,9.83196299999999,9.57095500000001,1.016986,0.1043123,-0.0300521,-32.38232,-31.97897,25.4778
18.577534675,18.55246,11.3792,7.057533,0.9855063,0.06408665,-0.0419229,-32.38232,-31.97897,25.4778
18.587394714,19.54631,12.27183,5.218443,0.9777398,-0.009064256,-0.06591032,-32.38032,-32.34712,25.48157
18.599718571,17.74495,12.98594,3.195444,1.000512,-0.03968163,-0.109142,-32.38032,-32.34712,25.48157
18.609578133,8.73814300000001,13.81906,0.3755064,1.024211,-0.05601126,-0.1077008,-32.38032,-32.34712,25.48157
18.619437694,-3.436576,17.50862,-2.260523,1.040012,-0.08938303,-0.09047727,-32.38032,-32.34712,25.48157
18.62929678,-12.31915,22.38835,-3.731794,1.058193,-0.145834,-0.1343408,-32.76128,-31.61275,25.02786
18.639156341,-10.26933,25.18527,-3.609189,1.054018,-0.1644958,-0.1698995,-32.76128,-31.61275,25.02786
18.649015427,-2.629069,25.00674,-2.444432,1.05203,-0.08542921,-0.1025952,-32.76128,-31.61275,25.02786
18.658875465,1.905392,25.95888,-0.4214326,1.053181,0.07644952,-0.01930233,-32.76128,-31.61275,25.02786
18.66873455,2.464436,27.08955,0.4368094,1.028854,0.2034274,0.03051515,-32.76128,-31.61275,25.02786
18.678594112,-0.3928965,26.19692,0.927233400000001,0.9905769,0.2227194,0.07483066,-32.76128,-31.61275,25.02786
18.688453197,-0.2065488,23.10246,2.214596,0.9102659,0.1619855,0.1593226,-33.51994,-31.25379,23.74768
18.698313236,2.278088,17.33009,2.950232,0.8820755,0.09921056,0.2253242,-33.51994,-31.25379,23.74768
18.708172321,6.874665,12.0933,2.827626,0.8950044,0.04190749,0.2260939,-33.51994,-31.25379,23.74768
18.718031883,12.34087,6.14240899999998,2.214596,0.8850348,0.01198601,0.1862099,-33.51994,-31.25379,23.74768
18.727890968,12.15452,0.4890598,2.214596,0.9032035,0.01203075,0.1552826,-33.51994,-31.25379,23.74768
18.737751007,5.75657900000002,-2.426878,1.724172,0.9391675,0.04960719,0.09902079,-34.63988,-31.98248,23.37693
18.747610092,-3.436576,-4.50969,0.1915974,0.9867056,0.01378827,0.03766183,-34.63988,-31.98248,23.37693
18.757469654,-12.44338,-5.045271,0.620718400000002,1.040148,-0.01611034,-0.01606412,-34.63988,-31.98248,23.37693
18.769793987,-17.22631,-3.557548,1.662869,1.05155,0.01172608,-0.01647091,-34.63988,-31.98248,23.37693
18.779653072,-19.77306,-1.355717,1.846778,1.027816,0.07331551,-0.01657126,-33.51994,-31.25379,23.74768
18.789512634,-21.13961,-0.04652058,3.134141,1.018033,0.09799352,-0.03059955,-33.51994,-31.25379,23.74768
18.799371719,-18.46863,2.214819,4.789322,1.019134,0.1145018,-0.04293511,-33.51994,-31.25379,23.74768
18.809231758,-10.82837,3.166962,5.463655,0.9897909,0.1025267,-0.05268114,-33.51994,-31.25379,23.74768
18.819090843,-1.573099,1.857765,6.62841199999998,0.9887026,0.05699889,0.006850072,-33.51994,-31.25379,23.74768
18.828950405,6.25350600000003,1.500712,7.73186600000001,0.9851946,0.03231547,0.05077811,-34.26816,-31.61865,23.37123
18.83880949,10.29104,0.370042,7.91577499999999,0.9881142,0.0100138,0.06588266,-34.26816,-31.61865,23.37123
18.848669529,11.65759,-1.355717,7.91577499999999,0.9970812,-0.002556042,0.06660718,-34.26816,-31.61865,23.37123
18.858528614,11.40913,-3.140985,7.97707799999999,0.9899038,-0.01819854,0.06466067,-34.26816,-31.61865,23.37123
18.868388176,8.36544800000002,-5.223798,8.528805,0.9751779,0.002650895,0.07942249,-34.26816,-31.61865,23.37123
18.878247261,3.582522,-5.759378,7.60926000000002,0.9731864,0.02641162,0.06192102,-33.51794,-31.62193,23.75145
18.8881073,0.1661467,-6.53299399999998,6.62841199999998,0.9606827,0.01987823,0.03616731,-33.51794,-31.62193,23.75145
18.897966385,-2.691185,-7.78268199999998,6.81232100000002,0.9805897,0.005989766,0.04870477,-33.51794,-31.62193,23.75145
18.907825947,-6.10756099999998,-7.78268199999998,6.93492700000001,0.9926704,0.02119059,0.05105687,-33.51794,-31.62193,23.75145
18.917685032,-10.14509,-7.36611899999999,6.81232100000002,0.9988495,0.04888927,0.02628419,-33.51794,-31.62193,23.75145
18.927545071,-11.38741,-7.12808399999997,6.13798800000002,1.001933,0.04784598,0.0003546635,-33.51794,-31.62193,23.75145
18.937404156,-12.69185,-6.05692300000003,5.524958,1.052247,0.01569542,0.002241436,-34.64114,-31.24084,23.75348
18.949728012,-12.31915,-3.021967,5.218443,1.035649,-0.0251,-0.06687101,-34.64114,-31.24084,23.75348
18.959588051,-11.26318,-4.807235,5.034534,1.01222,-0.0583574,-0.05627537,-34.64114,-31.24084,23.75348
18.969447613,-9.08912500000002,-4.271655,5.708868,1.014123,-0.07077887,0.0006174073,-34.64114,-31.24084,23.75348
18.979306698,-7.10141600000002,-4.271655,4.973231,0.9848922,-0.05538122,0.02320714,-34.26418,-31.23892,24.19964
18.989165783,-7.16353100000001,-4.807235,4.605413,0.9967443,-0.0319457,0.01604801,-34.26418,-31.23892,24.19964
18.999025822,-8.40584900000001,-4.450181,4.237596,1.009456,0.01574067,-0.01439948,-34.26418,-31.23892,24.19964
19.008885384,-11.38741,-4.033619,3.31805,0.9973915,0.03263233,-0.02318977,-34.26418,-31.23892,24.19964
19.018744469,-15.30072,-4.50969,2.643717,0.9912014,0.002001184,-0.001796081,-34.26418,-31.23892,24.19964
19.028603554,-17.10208,-5.10478,2.459808,0.987377,-0.03400165,0.008976171,-34.27016,-31.2505,23.36746
19.038463593,-16.17034,-5.521342,3.011535,0.9737679,-0.03800366,0.01201156,-34.27016,-31.2505,23.36746
19.048323154,-15.11437,-6.652012,3.379353,0.9759047,-0.01805285,0.006878283,-34.27016,-31.2505,23.36746
19.05818224,-14.8659,-7.78268199999998,3.992383,0.9831982,0.01359905,-0.004459334,-34.27016,-31.2505,23.36746
19.068041325,-15.30072,-8.31826200000003,4.360201,0.9927957,0.02535002,-0.007851346,-34.27016,-31.2505,23.36746
19.077901363,-14.30686,-8.55629800000001,5.402352,1.006404,0.03765172,-0.00362869,-34.27217,-30.88235,23.36369
19.087760925,-13.99628,-10.16304,6.87362400000002,1.040458,0.04620073,-0.01027148,-34.27217,-30.88235,23.36369
19.09762001,-15.48706,-11.11518,7.67056300000001,1.091887,0.0585268,0.04085309,-34.27217,-30.88235,23.36369
19.107479095,-16.91573,-9.68696799999999,7.30274499999998,1.118528,-0.004509539,0.0375454,-34.27217,-30.88235,23.36369
19.119803906,-13.6857,-11.53174,6.751019,1.036007,-0.02312772,0.06875398,-34.27217,-30.88235,23.36369
19.129662991,-20.45634,-9.984512,4.298898,1.050793,-0.03796613,0.09956598,-34.26816,-31.61865,23.37123
19.139522553,-21.26385,-4.747726,2.337202,1.026143,-0.0746363,-0.01827523,-34.26816,-31.61865,23.37123
19.149382114,-22.56828,-6.77103000000002,2.582414,0.9543517,-0.102497,-0.1411206,-34.26816,-31.61865,23.37123
19.159241676,-27.91025,-14.32866,8.95792600000003,0.9164956,-0.1360012,-0.2918116,-34.26816,-31.61865,23.37123
19.169100761,-35.23993,-22.5409,12.5135,0.9421101,-0.1148668,-0.2963111,-34.26816,-31.61865,23.37123
19.178960323,-35.17781,-22.95746,14.41389,1.029697,-0.1079559,-0.2174749,-34.26615,-31.98679,23.375
19.188819885,-33.68703,-19.14889,14.41389,1.030044,-0.0106998,-0.1064432,-34.26615,-31.98679,23.375
19.198679447,-30.82969,-13.01947,13.67826,0.9870116,0.1204219,-0.2048759,-34.26615,-31.98679,23.375
19.208538532,-31.82355,-12.42438,13.24914,0.9310723,0.2378422,-0.2931772,-34.26615,-31.98679,23.375
19.218398094,-33.81126,-14.68572,9.75486500000002,0.9306129,0.2875103,-0.2831675,-34.26615,-31.98679,23.375
19.228257656,-30.39488,-13.67407,2.337202,0.9595745,0.2145603,-0.3402622,-34.6431,-31.98871,22.92883
19.238117218,-22.63039,-12.60291,-3.8544,0.8954064,0.139623,-0.4478,-34.6431,-31.98871,22.92883
19.247976303,-8.77854399999999,-15.93541,-7.90039899999997,0.8096304,0.08462377,-0.5079,-34.6431,-31.98871,22.92883
19.257835865,-0.5171283,-20.45808,-7.77779200000001,0.8027253,0.1057284,-0.3140268,-34.6431,-31.98871,22.92883
19.26769495,-1.014056,-21.64826,-6.12261100000003,0.8704177,0.128567,-0.3526556,-34.6431,-31.98871,22.92883
19.277554989,0.1661467,-19.32742,-10.35252,0.7954687,-0.01241183,-0.2684381,-33.89886,-32.00358,22.47688
19.287414074,-2.753301,-21.46974,-3.486583,0.8922369,0.01413064,-0.03718158,-33.89886,-32.00358,22.47688
19.299738884,-7.53622700000002,-11.47224,-5.632187,0.9954034,0.05818149,0.1764012,-33.89886,-32.00358,22.47688
19.309597969,-11.63588,0.01298836,-7.226065,0.9758106,-0.07810936,0.3418124,-33.89886,-32.00358,22.47688
19.319457054,-11.20107,11.73625,-6.61303499999999,1.00213,-0.2624305,0.5670223,-33.89886,-32.00358,22.47688
19.329316616,-1.945794,28.16072,-4.712642,1.064008,-0.464543,0.7652192,-33.52112,-32.74419,22.48248
19.339175701,21.40979,42.62139,-1.279675,1.174415,-0.685667,0.4512582,-33.52112,-32.74419,22.48248
19.34903574,62.0335999999998,46.84652,-4.590036,1.032245,-0.5534987,-0.1714345,-33.52112,-32.74419,22.48248
19.358894825,82.7181999999998,32.62389,-8.81994299999999,0.9575077,-0.442349,-0.4598262,-33.52112,-32.74419,22.48248
19.368754387,64.2697799999999,-0.1060295,0.8659304,1.123866,-0.2228992,-0.3371909,-33.52112,-32.74419,22.48248
19.378613472,26.00637,-12.95996,4.666717,1.471928,0.09664555,0.3544259,-32.77441,-33.12632,22.09831
19.388473511,8.17909999999999,11.08165,-3.609189,1.554347,0.3813179,0.5497294,-32.77441,-33.12632,22.09831
19.398332596,-21.38808,31.43371,-18.99624,0.9900452,0.3575362,0.0826848,-32.77441,-33.12632,22.09831
19.408192158,-44.30885,21.19817,-13.47897,0.6589893,0.2049709,-0.1117938,-32.77441,-33.12632,22.09831
19.418051243,-43.62557,6.49946299999999,-7.164762,0.751832,0.1805121,-0.1056562,-32.77441,-33.12632,22.09831
19.427911282,-36.79282,6.737498,-5.570884,0.9529148,0.1724531,-0.004603888,-33.15739,-32.0238,21.64083
19.437770367,-21.51231,10.66509,-6.73564099999998,1.060642,0.05932662,-0.06124353,-33.15739,-32.0238,21.64083
19.447629929,-6.48025699999999,10.12951,-3.8544,1.062114,0.00235357,-0.07516291,-33.15739,-32.0238,21.64083
19.457489014,0.4146104,10.84361,-0.3601296,1.0711,0.04970587,-0.05620258,-33.15739,-32.0238,21.64083
19.467349053,1.408465,13.58103,0.4368094,1.055794,0.07868974,-0.0768246,-33.15739,-32.0238,21.64083
19.479672909,-5.85909699999999,11.61723,3.379353,1.044398,0.01255542,-0.03792595,-33.16136,-32.40353,20.81242
19.489531994,-8.84066099999998,12.21232,4.421504,1.039632,-0.03746897,-0.0009026462,-33.16136,-32.40353,20.81242
19.499392033,-3.436576,12.56937,3.808474,1.000933,-0.09907266,0.0130258,-33.16136,-32.40353,20.81242
19.509251595,4.452145,10.18902,3.134141,0.9644561,-0.1358189,0.03240355,-33.16136,-32.40353,20.81242
19.51911068,11.90605,7.27307799999999,3.195444,0.952118,-0.1025408,-0.0179349,-33.16136,-32.40353,20.81242
19.528969765,17.37226,3.762051,2.888929,0.9604169,-0.04402009,-0.003662515,-33.15734,-33.13982,20.81997
19.538829804,17.62072,1.381694,2.275899,0.979126,0.004024969,0.04727145,-33.15734,-33.13982,20.81997
19.548689365,12.71356,1.262676,0.682021400000003,0.9768885,0.02052728,0.04121301,-33.15734,-33.13982,20.81997
19.55854845,7.49582399999998,0.727095499999998,-1.463584,0.9626253,0.01500924,0.03082734,-33.15734,-33.13982,20.81997
19.568407535,3.085595,0.4890598,-2.934855,0.9802036,-0.02585506,-0.007624819,-33.15734,-33.13982,20.81997
19.578267574,1.656929,0.01298836,-2.689644,0.9787123,-0.04700378,-0.06384838,-33.52785,-33.12927,21.26999
19.588127136,2.40232,-1.117681,-2.199219,0.9968684,-0.01181029,-0.06476854,-33.52785,-33.12927,21.26999
19.597986221,2.961363,-0.641609900000002,-1.58619,1.033543,0.03085103,-0.06445201,-33.52785,-33.12927,21.26999
19.607845306,3.209827,1.798256,-0.973159599999999,1.057407,0.05433289,-0.08759553,-33.52785,-33.12927,21.26999
19.617705345,7.30947700000003,4.178614,-0.5440385,1.057173,0.01143728,-0.106643,-33.52785,-33.12927,21.26999
19.627564907,13.58318,5.368793,1.172445,1.059869,-0.04252785,-0.09994884,-33.15412,-33.13359,21.26806
19.637423992,21.78248,6.85651600000003,2.337202,1.056966,-0.08084415,-0.05949889,-33.15412,-33.13359,21.26806
19.649748325,32.09373,8.225222,4.053687,1.025854,-0.04542489,-0.01371181,-33.15412,-33.13359,21.26806
19.659607887,34.7026,7.92767700000003,4.973231,0.9989917,0.03086544,0.02085886,-33.15412,-33.13359,21.26806
19.669466972,31.65891,7.630132,4.482807,0.9963735,0.08059375,0.05198462,-33.15412,-33.13359,21.26806
19.679326534,25.07463,8.998837,3.195444,1.001866,0.0777439,0.05763267,-33.15533,-33.50797,20.82373
19.689186096,19.67054,10.84361,2.337202,0.9787961,0.03943623,0.01834383,-33.15533,-33.50797,20.82373
19.699045658,15.50878,9.71294500000002,3.072838,0.9524232,0.01236214,-0.002114353,-33.15533,-33.50797,20.82373
19.708904743,12.89991,7.451605,3.501959,0.9625663,-0.006977767,0.007161854,-33.15533,-33.50797,20.82373
19.718764305,12.34087,6.38044500000002,3.134141,0.9858432,-0.02999255,0.04353423,-33.15533,-33.50797,20.82373
19.728623867,12.52721,6.02339100000001,3.011535,1.009715,-0.03943767,0.06371987,-33.90882,-32.39489,20.81629
19.738483429,12.65145,6.67798900000002,2.643717,1.012855,-0.02044769,0.05952258,-33.90882,-32.39489,20.81629
19.748342514,13.45895,7.154061,1.417657,0.9943687,-0.002653691,0.04699784,-33.90882,-32.39489,20.81629
19.758202076,11.40913,5.96388199999997,1.417657,0.9671827,0.01899816,0.04565123,-33.90882,-32.39489,20.81629
19.768061638,8.86237499999997,4.238123,1.724172,0.9604629,0.02518603,0.02471446,-33.90882,-32.39489,20.81629
19.7779212,6.99889700000002,2.036292,2.275899,0.9716935,0.0005153626,0.03728457,-33.53312,-31.65133,21.63899
19.787780285,6.874665,0.01298836,2.950232,0.9935352,-0.0104327,0.05077766,-33.53312,-31.65133,21.63899
19.797639847,8.48967900000002,-1.593753,3.256747,0.9947172,-0.01329529,0.06319585,-33.53312,-31.65133,21.63899
19.807499409,10.16681,-3.140985,3.31805,0.9907498,-0.002116138,0.06909713,-33.53312,-31.65133,21.63899
19.817358971,11.96817,-5.283307,3.992383,0.9853207,0.01295758,0.07888571,-33.53312,-31.65133,21.63899
19.829683304,13.02414,-7.66366400000002,4.482807,1.002101,0.03547041,0.07356534,-33.53714,-30.91504,21.63145
19.839542866,10.29104,-9.984512,3.563262,1.013903,0.0742969,0.1480007,-33.53714,-30.91504,21.63145
19.849401951,4.141565,-8.73482500000002,2.459808,1.032327,0.05843807,0.1576675,-33.53714,-30.91504,21.63145
19.859261036,2.09174,-7.66366400000002,0.4368094,0.9831836,0.01386524,0.06646465,-33.53714,-30.91504,21.63145
19.869121075,1.470581,-11.35322,0.743324399999998,0.9353456,-0.02084115,0.007912016,-33.53714,-30.91504,21.63145
19.878980637,0.787305800000002,-15.75688,1.356354,0.9405466,-0.04414459,0.01003722,-34.27736,-31.63647,22.09095
19.888839722,1.03577,-17.48264,0.8659304,0.9707686,-0.05451247,0.02868696,-34.27736,-31.63647,22.09095
19.898698807,1.222117,-16.64951,-0.2988266,0.9918205,-0.05773899,0.02692209,-34.27736,-31.63647,22.09095
19.908558369,0.04191487,-15.16179,-2.015311,0.9816639,-0.0603731,-0.002665747,-34.27736,-31.63647,22.09095
19.918418407,-2.132142,-15.16179,-3.547885,0.9773158,-0.04686132,-0.02261612,-34.27736,-31.63647,22.09095
19.928277493,-6.54237199999997,-14.74523,-4.590036,1.03203,-0.05860309,-0.03882941,-33.53116,-30.90346,22.46363
19.938136578,-8.71642900000001,-12.06733,-5.019157,1.06256,-0.06427112,-0.06518915,-33.53116,-30.90346,22.46363
19.94799614,-8.28161699999999,-8.199244,-4.528733,1.059508,-0.06921286,-0.07812573,-33.53116,-30.90346,22.46363
19.957856178,-8.15738599999999,-6.17594099999999,-4.160915,1.009949,-0.06494649,-0.1209905,-33.53116,-30.90346,22.46363
19.967715263,-8.34373400000002,-5.87839600000002,-3.180068,0.9573883,-0.05730732,-0.1657009,-33.53116,-30.90346,22.46363
19.977574348,-8.21950099999998,-7.24710100000002,-1.892705,0.9211165,-0.03226064,-0.1486798,-33.52593,-31.26537,22.9155
19.98743391,-7.59834299999997,-7.84219100000002,-0.3601296,0.9199703,0.003946768,-0.09324993,-33.52593,-31.26537,22.9155
19.999758244,-4.803127,-6.17594099999999,-0.4827355,0.9276711,0.03877935,-0.03604099,-33.52593,-31.26537,22.9155
20.009617805,-3.063881,-4.450181,-1.279675,0.9426711,0.0613251,-0.02839731,-33.52593,-31.26537,22.9155
20.019477367,-2.442722,-3.617057,-1.770099,0.9674295,0.0595389,-0.04409964,-33.52593,-31.26537,22.9155
20.029336929,-2.442722,-3.736075,-2.812249,1.02192,0.06446831,-0.02614589,-33.52392,-31.63351,22.91927
20.039196014,-3.001765,-2.30786,-4.344824,1.077798,0.01630616,-0.02495275,-33.52392,-31.63351,22.91927
20.049055576,-1.883678,-0.939154599999998,-4.835248,1.071602,-0.05729056,-0.04177833,-33.52392,-31.63351,22.91927
20.058915138,1.160001,0.4295509,-4.038309,1.038697,-0.1043523,-0.05656171,-33.52392,-31.63351,22.91927
20.0687747,5.94292600000003,0.727095499999998,-3.731794,1.015144,-0.1040928,-0.06149501,-33.52392,-31.63351,22.91927
20.078633785,8.80025999999999,1.02464,-3.547885,0.990756,-0.07757162,-0.0685908,-33.14898,-31.26345,23.36166
20.088493347,8.17909999999999,0.310533,-3.24137,0.9691072,-0.03776318,-0.04254872,-33.14898,-31.26345,23.36166
20.098352909,2.961363,-1.415226,-2.750947,0.9732412,0.01018059,0.0157801,-33.14898,-31.26345,23.36166
20.108212471,-6.10756099999998,0.01298836,-3.977006,1.015157,0.04761429,0.0370626,-33.14898,-31.26345,23.36166
20.118071556,-12.44338,3.702542,-6.429126,1.040053,0.03303838,-0.01564799,-33.14898,-31.26345,23.36166
20.127930641,-14.80379,4.119105,-6.79694399999997,1.018068,0.0219753,-0.05903516,-32.78048,-30.90585,22.90786
20.13779068,-15.92188,3.226471,-6.55173199999999,1.007896,-0.002362907,-0.03705242,-32.78048,-30.90585,22.90786
20.147650242,-13.49935,3.583524,-5.87739899999999,1.004596,-0.01114588,-0.0356419,-32.78048,-30.90585,22.90786
20.157509327,-11.26318,3.28598,-6.490429,0.996532,-0.008571371,0.02104029,-32.78048,-30.90585,22.90786
20.167368412,-12.19492,2.333837,-4.957854,0.9830803,0.02750615,0.07089403,-32.78048,-30.90585,22.90786
20.179693222,-21.57442,0.965131299999997,-6.30652000000001,0.9533109,0.1141665,0.1525552,-32.40073,-32.01461,22.91724
20.189552307,-31.20239,3.226471,-9.49427599999999,0.9461516,0.09630588,0.07823057,-32.40073,-32.01461,22.91724
20.199411869,-32.13413,1.976783,-12.92724,0.9430047,-0.06169559,-0.004521918,-32.40073,-32.01461,22.91724
20.209271908,-26.97851,-1.17719,-11.70118,0.9791851,-0.1987901,-0.05507291,-32.40073,-32.01461,22.91724
20.219130993,-19.27613,-5.521342,-6.98085300000002,1.063764,-0.1563378,-0.09377686,-32.40073,-32.01461,22.91724
20.228990078,-12.07069,-5.164289,-5.386975,1.125891,0.006251088,-0.09472776,-33.15216,-32.38571,22.0927
20.23884964,-9.08912500000002,0.5485688,-8.636034,1.081977,0.1097506,-0.03093249,-33.15216,-32.38571,22.0927
20.248709679,-14.30686,4.892721,-11.27206,1.009191,0.06749997,-0.095902,-33.15216,-32.38571,22.0927
20.258568764,-12.00857,6.0829,-8.88124700000001,0.9943802,0.01349131,-0.1891114,-33.15216,-32.38571,22.0927
20.268427849,-4.430431,5.96388199999997,-6.36782300000001,1.007734,0.02146148,-0.1715041,-33.15216,-32.38571,22.0927
20.278287411,-1.573099,7.98718600000001,-5.570884,1.036218,0.05263793,-0.1002462,-32.77964,-32.76441,21.64644
20.288146973,-0.2686647,12.39085,-6.67433799999998,1.048278,0.05540935,-0.03857799,-32.77964,-32.76441,21.64644
20.298006535,-0.765591999999998,17.62763,-8.51342899999998,1.058282,0.02151791,-0.01648421,-32.77964,-32.76441,21.64644
20.30786562,-3.125997,19.94848,-6.91955000000002,1.017841,0.02288718,-0.07483782,-32.77964,-32.76441,21.64644
20.317725182,-6.10756099999998,19.23438,-4.773945,0.9956737,0.05522427,-0.09341694,-32.77964,-32.76441,21.64644
20.327584744,-8.21950099999998,17.92518,-3.425279,1.011065,0.06518768,-0.06815466,-32.4019,-33.50502,21.65205
20.337444305,-7.10141600000002,18.57978,-3.24137,1.030597,0.02802768,-0.03184828,-32.4019,-33.50502,21.65205
20.349768162,3.334059,19.11536,-2.076613,0.9955862,-0.03178776,-0.06875245,-32.4019,-33.50502,21.65205
20.359628201,14.63916,17.80616,-1.402281,0.9894243,-0.05655212,-0.04012166,-32.4019,-33.50502,21.65205
20.369487286,24.63982,17.44911,-0.789250600000002,0.9935531,-0.07305577,-0.03888219,-32.4019,-33.50502,21.65205
20.379346848,34.08144,15.90187,0.682021400000003,1.000323,-0.05055907,-0.02489204,-32.4111,-33.52284,20.37178
20.389205933,39.36129,14.47366,2.214596,0.9952084,0.03037971,0.03001347,-32.4111,-33.52284,20.37178
20.399065971,37.74628,13.70004,1.846778,0.9775324,0.1096509,0.05920716,-32.4111,-33.52284,20.37178
20.408925057,30.0439,13.99759,0.4368094,0.9694903,0.1300257,0.06141054,-32.4111,-33.52284,20.37178
20.418784618,21.65825,14.11661,-0.5440385,0.9795914,0.09993281,0.0581374,-32.4111,-33.52284,20.37178
20.428643704,13.52107,13.16446,-1.708796,0.9878578,0.08157483,0.07415745,-32.78282,-33.88667,20.37748
20.438503742,4.265797,14.59268,-4.835248,1.012093,0.03219873,0.08585451,-32.78282,-33.88667,20.37748
20.448362827,-2.442722,16.25893,-6.429126,1.018337,-0.02245933,0.0292379,-32.78282,-33.88667,20.37748
20.458221912,-4.057736,16.25893,-4.160915,1.018713,-0.04654557,-0.03614185,-32.78282,-33.88667,20.37748
20.468081474,-0.765591999999998,11.85527,-0.4214326,0.9916164,0.07801257,0.02375786,-32.78282,-33.88667,20.37748
20.477941513,-2.815417,10.30803,0.4368094,0.9841794,0.1628707,0.09118874,-32.78963,-32.0397,20.80672
20.487800598,-5.921213,8.16571199999999,0.620718400000002,0.9717805,0.1574789,0.1100087,-32.78963,-32.0397,20.80672
20.497659683,-2.132142,5.96388199999997,0.682021400000003,0.9804156,0.07296234,0.1307364,-32.78963,-32.0397,20.80672
20.507519245,8.86237499999997,4.535667,1.233748,0.9679844,-0.009931615,0.1148796,-32.78963,-32.0397,20.80672
20.517379284,21.53402,1.322185,3.011535,0.9497343,-0.03894011,0.07847572,-32.78963,-32.0397,20.80672
20.52970314,31.9695,-3.200494,4.789322,0.9518691,0.03555634,0.0853036,-33.16056,-33.14606,20.37187
20.539562225,30.91352,-4.926253,5.524958,0.9627555,0.1101154,0.08817367,-33.16056,-33.14606,20.37187
20.549422264,22.58999,-5.64036,5.402352,0.9620774,0.1440979,0.06834374,-33.16056,-33.14606,20.37187
20.559281349,13.39684,-5.64036,4.789322,0.984224,0.1063843,0.0806482,-33.16056,-33.14606,20.37187
20.569140911,5.75657900000002,-3.736075,3.992383,1.013853,0.03118338,0.07048649,-33.16056,-33.14606,20.37187
20.578999996,4.452145,-3.498039,4.789322,0.9958167,-0.02852227,0.02279891,-33.53831,-32.40545,20.36626
20.588860035,6.81255000000002,-4.866744,4.911928,0.9850765,-0.01982328,0.03213019,-33.53831,-32.40545,20.36626
20.59871912,7.620056,-5.283307,4.298898,0.9881756,-0.00182131,0.02409156,-33.53831,-32.40545,20.36626
20.608578682,6.93678100000001,-5.10478,3.440656,0.999343,0.01338947,0.03124875,-33.53831,-32.40545,20.36626
20.618437767,5.073304,-4.807235,3.379353,1.000063,0.01918318,0.0173906,-33.53831,-32.40545,20.36626
20.628297806,2.464436,-4.450181,2.888929,1.009881,0.02172072,0.02206408,-33.15935,-32.77168,20.81619
20.638156891,-0.641360199999998,-4.331164,2.70502,1.013899,0.02666736,0.03402855,-33.15935,-32.77168,20.81619
20.648016453,-3.188113,-3.736075,2.153293,1.008535,0.02027778,0.02973827,-33.15935,-32.77168,20.81619
20.657876015,-5.05159,-3.379021,2.09199,0.9935995,0.03130282,0.0204602,-33.15935,-32.77168,20.81619
20.667735577,-8.34373400000002,-2.843441,1.540263,0.9990642,0.03576837,0.03048319,-33.15935,-32.77168,20.81619
20.677594662,-10.57991,-2.545896,1.47896,0.9932956,0.02451612,0.02807445,-33.16216,-31.661,21.25298
20.687454224,-11.01472,-2.188842,1.295051,0.9879422,0.01617652,0.02280917,-33.16216,-31.661,21.25298
20.699778557,-10.89049,-2.30786,1.785475,0.9893119,0.02055564,0.01947221,-33.16216,-31.661,21.25298
20.709638119,-11.38741,-1.534244,2.459808,1.014074,0.02999973,0.0139278,-33.16216,-31.661,21.25298
20.719497204,-10.70414,-0.760627799999999,2.888929,1.029569,0.02569885,-0.001663716,-33.16216,-31.661,21.25298
20.729357243,-8.53008099999998,-0.4035742,4.114989,1.024661,0.02760398,-0.001098495,-34.28133,-32.01619,21.26254
20.739216328,-6.10756099999998,0.1320062,4.850626,0.9919218,0.03415924,0.007569835,-34.28133,-32.01619,21.26254
20.74907589,-3.68504,0.786604499999998,4.789322,0.981954,0.02780832,0.02443029,-34.28133,-32.01619,21.26254
20.758934975,-0.3928965,0.846113400000001,4.728019,0.9889702,0.01034062,0.02130767,-34.28133,-32.01619,21.26254
20.768795013,3.520406,0.5485688,5.095838,0.998437,-0.003686514,0.02153357,-34.28133,-32.01619,21.26254
20.778654098,6.129274,0.608077699999999,5.647564,0.9929864,0.009916326,0.02843484,-32.41712,-32.4184,20.36046
20.788513184,5.88081099999999,0.01298836,6.26059400000001,0.9918094,0.02059202,0.02327052,-32.41712,-32.4184,20.36046
20.798372745,4.452145,-0.2250474,6.01538200000003,0.9929642,0.02992731,0.04441762,-32.41712,-32.4184,20.36046
20.808232784,2.153856,-0.04652058,5.402352,0.9942381,0.01879103,0.05628547,-32.41712,-32.4184,20.36046
20.818091869,0.5388422,0.370042,4.54411,0.9944692,-0.009460217,0.04837657,-32.41712,-32.4184,20.36046
20.827950954,0.2282626,0.1320062,3.93108,1.004325,-0.02985869,0.03560476,-33.16337,-32.03538,20.80865
20.837810516,0.973653600000002,0.1915152,3.624565,1.007603,-0.0225466,0.03130695,-33.16337,-32.03538,20.80865
20.847670555,0.911537699999999,0.4295509,3.134141,0.9984688,-0.008559723,0.01957519,-33.16337,-32.03538,20.80865
20.85752964,0.4767263,0.07249729,2.888929,0.9860949,0.002031818,0.01840334,-33.16337,-32.03538,20.80865
20.867388725,-1.014056,-0.2250474,2.337202,0.9866861,0.009388643,0.03235378,-33.16337,-32.03538,20.80865
20.879713535,-5.424286,1.381694,1.049839,1.011293,0.007206252,0.04108944,-33.16337,-32.03538,20.80865
20.88957262,-7.72257499999999,3.107453,-0.5440385,1.013998,-0.01578008,0.00395854,-33.16337,-32.03538,20.80865
20.899432182,-7.22564700000002,3.702542,-0.4214326,1.005561,-0.04127601,-0.02728434,-33.16337,-32.03538,20.80865
20.909291267,-4.989474,3.166962,0.3142034,1.013653,-0.05431319,-0.01936331,-33.16337,-32.03538,20.80865
20.919151306,-2.442722,3.107453,1.417657,1.003774,-0.01097497,0.01181201,-33.16337,-32.03538,20.80865
20.929010391,-2.629069,2.988435,0.0689914200000002,0.9907566,0.01923263,0.05250522,-33.16216,-31.661,21.25298
20.938869953,-5.85909699999999,3.762051,-1.463584,0.9968384,0.01788025,0.06678312,-33.16216,-31.661,21.25298
20.948729038,-7.90892299999997,5.487811,-1.831402,1.023541,-0.009279932,0.02783735,-33.16216,-31.661,21.25298
20.958589077,-4.616779,5.96388199999997,-1.647493,1.013534,-0.02065944,0.001527974,-33.16216,-31.661,21.25298
20.968448162,-2.380606,4.95223,-0.6053416,0.9906071,-0.01547411,0.01100329,-33.16216,-31.661,21.25298
20.978307724,-2.132142,3.583524,0.4981124,0.9985476,0.02599164,0.01986566,-33.5391,-31.66292,20.80681
20.988166809,-1.262519,3.762051,0.3755064,1.00392,0.04703057,0.03769702,-33.5391,-31.66292,20.80681
20.998026848,-1.076172,4.059596,0.3142034,1.005474,0.02767444,0.06290909,-33.5391,-31.66292,20.80681
21.007885933,1.160001,4.059596,0.743324399999998,1.003607,0.004736054,0.04932453,-33.5391,-31.66292,20.80681
21.017745495,5.321767,3.643033,1.601566,0.9908215,0.00167496,0.04181373,-33.5391,-31.66292,20.80681
21.027605057,8.676027,2.333837,2.643717,0.9797199,0.03858807,0.04947148,-33.54508,-31.6745,19.97463
21.037464619,8.86237499999997,1.381694,2.70502,0.972468,0.07258829,0.04986177,-33.54508,-31.6745,19.97463
21.049788475,4.576376,0.727095499999998,2.09199,1.006017,0.0588055,0.05837208,-33.54508,-31.6745,19.97463
21.059648514,1.843277,0.1320062,2.70502,1.059049,-0.03853305,0.05871157,-33.54508,-31.6745,19.97463
21.069507599,6.874665,0.667586600000001,3.624565,1.003712,-0.06722116,0.06548774,-33.91283,-31.6586,20.80875
21.079367161,10.60162,-1.058172,3.31805,0.9538217,-0.02727363,0.06557754,-33.91283,-31.6586,20.80875
21.089226246,8.30333200000001,-3.498039,2.766323,0.9838961,0.006609862,0.07645644,-33.91283,-31.6586,20.80875
21.099086285,3.396174,-5.64036,1.540263,1.052969,-0.02239824,0.09343676,-33.91283,-31.6586,20.80875
21.10894537,1.594813,-5.87839600000002,1.47896,1.075258,-0.06495347,0.1119279,-33.91283,-31.6586,20.80875
21.118804455,0.2282626,-6.41397600000001,1.356354,1.028941,-0.06225598,0.1619684,-33.91484,-31.29045,20.80498
21.128664017,-2.380606,-7.06857499999999,1.233748,1.009654,-0.06101982,0.1478777,-33.91484,-31.29045,20.80498
21.138524056,-1.200403,-8.13973500000002,1.295051,0.9511567,0.004377007,0.07738342,-33.91484,-31.29045,20.80498
21.148383141,-6.16967699999999,-10.28206,2.030687,0.9522535,0.1338822,0.09235752,-33.91484,-31.29045,20.80498
21.158242226,-17.28843,-8.43728100000002,-0.5440385,1.012594,0.2030334,0.0935187,-33.91484,-31.29045,20.80498
21.168101788,-32.44471,-5.699869,-1.157069,1.062347,0.1772876,-0.01187315,-33.91484,-31.29045,20.80498
21.177961826,-43.12864,-4.271655,-0.6666446,1.044809,0.07986041,-0.1279325,-33.92007,-30.92854,20.35311
21.187820911,-48.96754,-5.759378,-0.2375236,1.016617,-0.03662012,-0.1093457,-33.92007,-30.92854,20.35311
21.197679997,-48.4085,-6.94955700000003,-0.789250600000002,1.026276,-0.1551557,-0.07933579,-33.92007,-30.92854,20.35311
21.207539558,-42.13479,-6.830539,0.2529004,1.063964,-0.2591092,0.009818448,-33.92007,-30.92854,20.35311
21.217399597,-32.94164,-4.331164,3.011535,1.102338,-0.3067732,0.05535161,-33.92007,-30.92854,20.35311
21.229723454,-25.05292,-2.010315,8.65141099999999,1.113023,-0.3249821,0.1053616,-33.91405,-32.03298,20.36442
21.239583492,-21.69866,0.9056224,12.4522,1.086877,-0.3019746,0.07382204,-33.91405,-32.03298,20.36442
21.249442577,-25.11503,2.809908,15.14953,1.069353,-0.3143943,0.1769949,-33.91405,-32.03298,20.36442
21.259301663,-26.97851,6.97553399999999,18.88901,1.107988,-0.413601,0.2321525,-33.91405,-32.03298,20.36442
21.269161224,-20.95326,12.39085,22.32198,1.107446,-0.5118365,0.2495408,-34.29175,-32.4084,19.53794
21.279020786,-9.46182000000001,15.18777,24.89671,1.100477,-0.5708717,0.2247027,-34.29175,-32.4084,19.53794
21.288880348,4.141565,18.52027,27.47143,1.096269,-0.5894079,0.2226894,-34.29175,-32.4084,19.53794
21.298739433,16.62686,21.19817,30.23007,1.105829,-0.6013203,0.2674974,-34.29175,-32.4084,19.53794
21.308598995,26.25483,24.47116,34.64388,1.121071,-0.6040933,0.2706112,-34.29175,-32.4084,19.53794
21.318458557,32.03161,26.79201,39.73203,1.111914,-0.5624192,0.2456958,-34.29974,-32.05183,18.70199
21.328318119,32.28008,28.7558,43.77803,1.085551,-0.4711217,0.2583428,-34.29974,-32.05183,18.70199
21.338177204,27.86984,30.065,47.70142,1.075675,-0.3842477,0.2204016,-34.29974,-32.05183,18.70199
21.348036766,18.42822,30.36255,50.27615,1.053708,-0.3616181,0.2079673,-34.29974,-32.05183,18.70199
21.357896328,8.92449099999999,30.18402,53.15739,1.083745,-0.3987558,0.2254353,-34.29974,-32.05183,18.70199
21.36775589,4.327913,31.67174,56.95817,1.119294,-0.4831668,0.2107987,-36.54813,-30.92149,18.70227
21.377614975,4.82484,31.90978,61.73981,1.105232,-0.4941331,0.1744874,-36.54813,-30.92149,18.70227
21.387474537,7.49582399999998,31.07665,65.2340799999999,1.088318,-0.4681318,0.1409248,-36.54813,-30.92149,18.70227
21.397334099,9.483534,30.48156,68.36053,1.091627,-0.4442111,0.1535387,-36.54813,-30.92149,18.70227
21.409658432,13.95588,31.49322,72.4678299999999,1.1454,-0.4442334,0.1503761,-36.54813,-30.92149,18.70227
21.419517517,18.92515,32.44536,74.8586400000001,1.167903,-0.4197579,0.1358859,-40.30789,-29.06164,16.97436
21.429377556,22.27941,32.86192,75.71689,1.153775,-0.374597,0.1441356,-40.30789,-29.06164,16.97436
21.439236641,24.45347,33.04045,76.3912199999998,1.143087,-0.3368599,0.1110625,-40.30789,-29.06164,16.97436
21.449095726,24.26712,33.09996,76.94295,1.137482,-0.2965838,0.09423108,-40.30789,-29.06164,16.97436
21.458955288,22.15518,33.45701,77.9238000000002,1.142103,-0.2683006,0.0991959,-40.30789,-29.06164,16.97436
21.468815327,18.61457,33.57603,78.1690099999998,1.139525,-0.2182077,0.09773859,-42.95168,-26.17077,15.29399
21.478674412,12.15452,34.23063,77.9851,1.136894,-0.1905884,0.07261162,-42.95168,-26.17077,15.29399
21.488533497,6.31562199999998,33.57603,77.4946699999998,1.138422,-0.1807937,0.08561088,-42.95168,-26.17077,15.29399
21.498393059,3.085595,32.7429,76.3912199999998,1.119198,-0.1640515,0.0539198,-42.95168,-26.17077,15.29399
21.508253098,-0.951939799999999,31.55272,74.8586400000001,1.100175,-0.1653163,0.0211155,-42.95168,-26.17077,15.29399
21.518112183,-2.877533,29.88647,74.3682200000002,1.116055,-0.1338667,0.06524093,-46.72269,-22.84457,13.1029
21.527971268,-5.921213,29.82697,73.0195500000003,1.097191,-0.1287392,0.04973948,-46.72269,-22.84457,13.1029
21.537831307,-8.09526999999998,28.93433,71.24177,1.049493,-0.1306945,0.03027641,-46.72269,-22.84457,13.1029
21.547690869,-8.21950099999998,26.91103,69.7091900000002,1.040387,-0.1277936,0.04672347,-46.72269,-22.84457,13.1029
21.557549953,-7.22564700000002,26.25643,67.8700999999998,1.039139,-0.1550846,0.03884374,-46.72269,-22.84457,13.1029
21.567409038,-5.175822,25.00674,66.5214400000002,1.018999,-0.1737034,0.05239123,-49.31131,-19.16211,11.02995
21.579733848,-1.324635,23.93558,64.92756,1.006997,-0.1713057,0.07127131,-49.31131,-19.16211,11.02995
21.589592934,1.284233,23.99509,63.2110699999999,1.011375,-0.1873854,0.05525962,-49.31131,-19.16211,11.02995
21.599452495,3.644638,23.57853,62.9045599999998,1.002912,-0.1771128,0.0894901,-49.31131,-19.16211,11.02995
21.609312057,6.62620199999998,23.57853,61.6784999999999,1.003074,-0.1649961,0.07617246,-49.31131,-19.16211,11.02995
21.619171619,7.99275200000001,23.87607,59.96202,0.9779984,-0.1535359,0.07710577,-52.70612,-16.20749,8.904713
21.629030704,9.66988199999998,23.04295,58.1229300000001,0.9518665,-0.1245303,0.08778619,-52.70612,-16.20749,8.904713
21.638890266,10.35316,21.3767,56.09993,0.9292196,-0.1154945,0.08531003,-52.70612,-16.20749,8.904713
21.648749828,9.85623000000002,20.30553,54.13824,0.927071,-0.1388662,0.08658101,-52.70612,-16.20749,8.904713
21.65860939,11.84394,19.29388,52.66697,0.9288912,-0.1509583,0.1017874,-52.70612,-16.20749,8.904713
21.668468475,14.88762,18.81781,50.03093,0.9236115,-0.1666003,0.09550105,-54.60204,-12.8904,7.600159
21.678328037,19.35996,17.98469,47.88533,0.910625,-0.190089,0.09117511,-54.60204,-12.8904,7.600159
21.688187599,23.08692,17.03254,46.53666,0.8917354,-0.2008099,0.1316066,-54.60204,-12.8904,7.600159
21.698047161,27.00022,16.25893,45.37191,0.881658,-0.1853571,0.1237343,-54.60204,-12.8904,7.600159
21.707906246,27.37292,15.06875,44.08455,0.871998,-0.1220741,0.1526788,-54.60204,-12.8904,7.600159
21.717765808,23.45961,14.11661,40.83548,0.8703712,-0.1026035,0.1581375,-55.74727,-9.575701,6.739839
21.72762537,18.92515,13.99759,39.18031,0.862413,-0.1167336,0.1720284,-55.74727,-9.575701,6.739839
21.737484932,15.50878,13.4025,36.72818,0.8728486,-0.1371018,0.1659574,-55.74727,-9.575701,6.739839
21.747344017,13.83165,13.16446,34.09216,0.8703274,-0.1697209,0.1676348,-55.74727,-9.575701,6.739839
21.759668827,14.08011,13.16446,31.51743,0.8620715,-0.2082121,0.1741365,-55.74727,-9.575701,6.739839
21.769527912,16.87533,13.16446,30.04616,0.8528431,-0.2131578,0.1747055,-56.52598,-6.651288,4.601081
21.779386997,19.91901,13.52152,27.83925,0.839062,-0.2015856,0.1788331,-56.52598,-6.651288,4.601081
21.789247036,21.40979,13.46201,25.93886,0.8129727,-0.1789148,0.1870635,-56.52598,-6.651288,4.601081
21.799106598,22.09306,12.50986,24.22237,0.8167012,-0.1584274,0.191496,-56.52598,-6.651288,4.601081
21.808965683,21.90672,12.92643,21.34113,0.8333071,-0.1563347,0.191277,-56.52598,-6.651288,4.601081
21.818824768,23.14903,13.81906,17.84686,0.8199311,-0.1915168,0.1839828,-56.53201,-5.546845,4.589769
21.828684807,26.9381,13.10495,15.02692,0.7983606,-0.1907441,0.1814215,-56.53201,-5.546845,4.589769
21.838544369,27.99408,11.67674,12.26829,0.7813649,-0.1408429,0.1629169,-56.53201,-5.546845,4.589769
21.848403454,24.14289,9.772454,10.12268,0.7699287,-0.07961384,0.1674302,-56.53201,-5.546845,4.589769
21.858262539,16.81321,7.51111399999998,6.99623000000001,0.7835632,-0.03765813,0.1637564,-56.53201,-5.546845,4.589769
21.868122578,8.36544800000002,6.14240899999998,4.053687,0.7967561,-0.04145124,0.1592236,-56.1832,-2.685157,3.278026
21.87798214,0.663074000000001,5.130757,0.4981124,0.7799728,-0.0571297,0.170352,-56.1832,-2.685157,3.278026
21.887841225,-4.057736,3.643033,-2.812249,0.751439,-0.1070908,0.1506899,-56.1832,-2.685157,3.278026
21.89770031,-5.05159,1.679239,-4.651339,0.76233,-0.1064705,0.1606031,-56.1832,-2.685157,3.278026
21.907560348,-7.22564700000002,0.667586600000001,-7.04215600000001,0.8058542,-0.09193023,0.1720855,-56.1832,-2.685157,3.278026
21.91741991,-9.77240000000001,0.727095499999998,-10.47512,0.8209487,-0.09328066,0.1656293,-57.3064,-2.304061,3.280049
21.929744244,-10.89049,0.07249729,-14.95024,0.8007579,-0.08129082,0.1664975,-57.3064,-2.304061,3.280049
21.939603329,-11.57376,-0.1655384,-18.75103,0.8092102,-0.1065661,0.1541837,-57.3064,-2.304061,3.280049
21.949462891,-9.95874700000001,-0.4035742,-20.77403,0.7988201,-0.1421959,0.1501975,-57.3064,-2.304061,3.280049
21.959321976,-5.98332900000001,-1.058172,-22.79703,0.7925329,-0.1471139,0.151204,-57.3064,-2.304061,3.280049
21.969182014,-1.821563,-2.90295,-24.82002,0.7835921,-0.1263719,0.1237129,-57.30163,-2.666863,3.667903
21.9790411,-1.014056,-4.866744,-26.3526,0.7700107,-0.06898465,0.1469132,-57.30163,-2.666863,3.667903
21.988900661,-4.057736,-7.78268199999998,-29.41775,0.7961776,-0.0273225,0.1651014,-57.30163,-2.666863,3.667903
21.998759747,-8.90277699999999,-9.270405,-33.27984,0.8226926,-0.03207779,0.1320978,-57.30163,-2.666863,3.667903
22.008619785,-12.81608,-11.65076,-37.14193,0.8372477,-0.01050022,0.1421357,-57.30163,-2.666863,3.667903
22.01847887,-18.53074,-13.85259,-40.7588,0.8595172,-0.005838192,0.1648592,-56.92188,-3.775622,3.677283
22.028338432,-25.11503,-14.86425,-43.82396,0.8828878,-0.01103222,0.1520231,-56.92188,-3.775622,3.677283
22.038197517,-30.20854,-15.51884,-46.03086,0.8932447,-0.01433488,0.155202,-56.92188,-3.775622,3.677283
22.048057556,-34.80511,-16.53049,-49.34122,0.9152887,-0.04231317,0.1685485,-56.92188,-3.775622,3.677283
22.057916641,-37.41398,-17.30411,-53.01941,0.9221708,-0.04077832,0.172297,-56.92188,-3.775622,3.677283
22.067776203,-39.89862,-18.31576,-57.0041,0.9226362,-0.02613397,0.1834355,-56.14426,-7.01217,5.4351
22.077635288,-43.68769,-17.66117,-60.92749,0.9418225,-0.04692795,0.1729234,-56.14426,-7.01217,5.4351
22.087495327,-46.4829,-17.30411,-62.3987600000002,0.9543074,-0.08274046,0.1959239,-56.14426,-7.01217,5.4351
22.099819183,-44.18462,-14.26916,-64.5443699999999,1.001472,-0.1792887,0.1613722,-56.14426,-7.01217,5.4351
22.109678268,-34.3703,-12.18634,-63.3796099999998,1.009183,-0.223899,0.185325,-56.14426,-7.01217,5.4351
22.119538307,-22.94098,-11.8888,-65.7091299999999,1.033568,-0.2782498,0.1677467,-56.12301,-9.203237,6.737999
22.129397869,-9.21335600000002,-11.17469,-67.7321199999999,1.006529,-0.2415562,0.154545,-56.12301,-9.203237,6.737999
22.139256954,0.911537699999999,-13.55505,-72.0846400000003,0.9929605,-0.1457305,0.1766319,-56.12301,-9.203237,6.737999
22.149116039,-3.188113,-14.20965,-75.4563099999999,0.9822371,-0.1176327,0.1683962,-56.12301,-9.203237,6.737999
22.158976078,-13.37512,-15.99492,-76.6210600000002,0.9896096,-0.07668199,0.1710328,-56.12301,-9.203237,6.737999
22.16883564,-29.02833,-16.35197,-76.1919400000001,1.021335,-0.04677418,0.1559778,-54.60526,-12.89663,7.152062
22.178694725,-45.36482,-16.70902,-74.9045799999998,1.061369,-0.05962382,0.1385268,-54.60526,-12.89663,7.152062
22.188554764,-59.77571,-16.53049,-74.3528500000002,1.095123,-0.0884831,0.1488238,-54.60526,-12.89663,7.152062
22.198413849,-65.9872999999998,-14.98326,-76.4984599999999,1.117698,-0.1799147,0.1093944,-54.60526,-12.89663,7.152062
22.208273411,-60.5211,-13.67407,-77.90842,1.095743,-0.2691683,0.1070373,-54.60526,-12.89663,7.152062
22.218132496,-50.83102,-13.9121,-81.7705199999998,1.094303,-0.3456897,0.07766008,-51.95866,-16.21612,8.900849
22.227992535,-42.38326,-12.90045,-83.3643900000003,1.056715,-0.353677,0.1126307,-51.95866,-16.21612,8.900849
22.23785162,-34.99146,-15.57835,-81.6479000000001,1.044007,-0.2922702,0.1674796,-51.95866,-16.21612,8.900849
22.247711182,-42.25902,-15.99492,-79.8701199999998,1.071453,-0.2502955,0.1362947,-51.95866,-16.21612,8.900849
22.257570267,-53.06719,-15.16179,-77.3567000000001,1.093601,-0.2578741,0.1392695,-51.95866,-16.21612,8.900849
22.267430306,-61.7013099999999,-13.67407,-75.7015200000001,1.124305,-0.3368093,0.1688345,-49.695,-19.54911,9.371292
22.279754162,-60.4589799999999,-10.81764,-74.4754600000002,1.12548,-0.4995418,0.1118573,-49.695,-19.54911,9.371292
22.289614201,-49.71293,-9.56794999999997,-71.2876999999999,1.122221,-0.5628592,0.1041814,-49.695,-19.54911,9.371292
22.299473286,-36.10955,-8.97285999999998,-66.9351899999998,1.130166,-0.5272511,0.1082022,-49.695,-19.54911,9.371292
22.309332371,-27.04062,-8.08022700000001,-64.7282800000003,1.141872,-0.4926279,0.1001812,-49.695,-19.54911,9.371292
22.319191933,-19.27613,-7.723173,-61.9696400000001,1.111995,-0.4437269,0.1048533,-48.60481,-23.59314,10.68757
22.329051972,-13.56147,-8.49678899999997,-60.0692499999998,1.07105,-0.4217257,0.09939297,-48.60481,-23.59314,10.68757
22.338911057,-7.84680700000002,-9.50844099999999,-57.9236499999998,1.04353,-0.4356745,0.07810351,-48.60481,-23.59314,10.68757
22.348770142,-2.194258,-13.07898,-56.26846,1.036649,-0.4230503,0.08693369,-48.60481,-23.59314,10.68757
22.358629704,-2.753301,-13.2575,-56.32977,1.064804,-0.4554373,0.07811271,-48.60481,-23.59314,10.68757
22.368489742,-1.635215,-14.20965,-53.81634,1.076961,-0.436662,0.1250594,-45.59213,-27.3038,11.09391
22.378348827,-7.03929899999998,-13.61456,-50.01556,1.089455,-0.3975551,0.1429418,-45.59213,-27.3038,11.09391
22.388207913,-15.67341,-12.66241,-44.7435,1.089054,-0.3747231,0.1335562,-45.59213,-27.3038,11.09391
22.398067474,-23.06521,-11.2342,-39.77796,1.117227,-0.355976,0.1352297,-45.59213,-27.3038,11.09391
22.407927513,-24.24541,-8.97285999999998,-35.97717,1.094014,-0.3938361,0.08588345,-45.59213,-27.3038,11.09391
22.417786598,-14.43109,-9.62745900000001,-30.82772,1.030931,-0.4704171,0.05642589,-43.32806,-30.20194,11.94403
22.427645683,6.75043299999998,-11.71027,-27.70127,0.9640835,-0.534296,0.04917234,-43.32806,-30.20194,11.94403
22.437505245,32.71489,-13.43603,-26.04609,0.925889,-0.5730794,0.048431,-43.32806,-30.20194,11.94403
22.447365284,60.41859,-20.45808,-24.08439,0.9938545,-0.4770641,0.05833581,-43.32806,-30.20194,11.94403
22.45968914,77.1277700000002,-21.41023,-25.43305,1.131217,-0.2825896,0.07766648,-43.32806,-30.20194,11.94403
22.469548226,73.4629300000001,-20.5771,-25.12654,1.085892,-0.1645757,0.1224364,-41.81515,-31.30049,13.61198
22.479408264,56.62952,-19.2084,-22.91963,1.038599,-0.1219868,0.171869,-41.81515,-31.30049,13.61198
22.489267349,36.25549,-16.35197,-20.52881,1.010657,-0.1553145,0.174382,-41.81515,-31.30049,13.61198
22.499126911,21.28556,-14.15014,-17.15715,0.9806129,-0.2082303,0.148966,-41.81515,-31.30049,13.61198
22.508986473,15.63301,-12.66241,-14.092,0.9318956,-0.2588934,0.1195224,-41.81515,-31.30049,13.61198
22.518846035,18.30399,-13.13849,-10.22991,0.8599095,-0.2673634,0.1070594,-40.30579,-31.66184,15.3364
22.52870512,25.01251,-16.94706,-7.65518600000002,0.9239691,-0.2350679,0.1332541,-40.30579,-31.66184,15.3364
22.538564682,30.97564,-19.38692,-8.94255000000001,1.058377,-0.1921933,0.08953071,-40.30579,-31.66184,15.3364
22.548424244,35.32376,-20.87465,-11.02685,1.104171,-0.1045828,0.1164526,-40.30579,-31.66184,15.3364
22.558283806,34.57837,-19.98201,-13.60158,1.072742,-0.06778921,0.1402126,-40.30579,-31.66184,15.3364
22.568142891,27.24869,-20.10103,-13.60158,1.060142,-0.05517397,0.1601458,-38.79967,-32.02943,16.61272
22.578002453,15.26031,-17.78018,-13.47897,1.078433,-0.05544744,0.1737796,-38.79967,-32.02943,16.61272
22.587862015,-0.5171283,-14.44768,-12.37552,1.074875,-0.04903381,0.2055116,-38.79967,-32.02943,16.61272
22.597721577,-16.04611,-9.74647699999998,-10.96555,1.058626,-0.08666526,0.2006336,-38.79967,-32.02943,16.61272
22.607580662,-25.42561,-5.99741399999999,-9.43297400000002,1.014631,-0.1456333,0.1514055,-38.79967,-32.02943,16.61272
22.617439747,-27.84813,-5.045271,-7.83909500000001,0.9914672,-0.189203,0.1365127,-37.6705,-32.39895,17.44287
22.629764557,-25.86042,-4.212146,-6.30652000000001,0.9261807,-0.2565951,0.09710091,-37.6705,-32.39895,17.44287
22.639623642,-18.09593,-5.699869,-2.812249,0.8751676,-0.2644083,0.08051087,-37.6705,-32.39895,17.44287
22.649483681,-8.71642900000001,-9.62745900000001,0.007688423,0.9752157,-0.2036706,0.08007672,-37.6705,-32.39895,17.44287
22.659343243,-2.256374,-10.16304,-0.05361458,1.06357,-0.1610878,0.06719684,-37.6705,-32.39895,17.44287
22.669202328,2.40232,-10.87715,0.1302944,1.081709,-0.1156465,0.07403059,-36.91425,-33.50668,17.8344
22.679061413,5.13542,-10.40108,-0.6053416,1.0799,-0.1125573,0.12344,-36.91425,-33.50668,17.8344
22.688921451,6.99889700000002,-8.25875400000001,-0.911856500000002,1.063554,-0.1503516,0.07543407,-36.91425,-33.50668,17.8344
22.698781013,10.10469,-7.54464599999999,0.5594154,1.023751,-0.1273185,0.08290453,-36.91425,-33.50668,17.8344
22.708640099,10.41527,-5.99741399999999,1.662869,1.03021,-0.1077047,0.1074172,-36.91425,-33.50668,17.8344
22.718499184,8.241216,-4.152637,3.134141,1.003182,-0.1153014,0.0919247,-36.91702,-33.51203,17.45032
22.728359222,7.30947700000003,-3.914601,4.789322,1.005069,-0.1006571,0.09968858,-36.91702,-33.51203,17.45032
22.738218784,6.68831799999999,-3.021967,5.15714,0.9946477,-0.1056727,0.08446041,-36.91702,-33.51203,17.45032
22.748077869,8.36544800000002,-3.855092,6.62841199999998,0.9993897,-0.09639578,0.08159591,-36.91702,-33.51203,17.45032
22.757936954,10.29104,-5.045271,6.3832,1.052514,-0.0769389,0.08387816,-36.91702,-33.51203,17.45032
22.767796993,10.97432,-5.283307,6.13798800000002,1.059364,-0.05846049,0.06428929,-36.16357,-33.50908,18.27864
22.777656555,10.29104,-5.283307,6.13798800000002,1.058868,-0.03259073,0.08655787,-36.16357,-33.50908,18.27864
22.78751564,8.73814300000001,-4.5692,5.95407899999997,1.039469,-0.03173961,0.09977992,-36.16357,-33.50908,18.27864
22.797374725,5.383883,-4.033619,6.13798800000002,1.037515,-0.04298527,0.09012887,-36.16357,-33.50908,18.27864
22.809699535,3.209827,-2.724423,6.87362400000002,1.045861,-0.03899718,0.09579397,-36.16357,-33.50908,18.27864
22.81955862,1.594813,-1.415226,6.68971499999997,1.05608,-0.0481982,0.0835907,-36.16558,-33.14093,18.27487
22.829418659,1.594813,-0.939154599999998,6.99623000000001,1.034067,-0.0547397,0.07809883,-36.16558,-33.14093,18.27487
22.839277744,2.40232,-1.236699,6.93492700000001,1.015178,-0.04083148,0.06842224,-36.16558,-33.14093,18.27487
22.849137306,2.029624,-1.17719,7.057533,1.006739,-0.02385214,0.0744362,-36.16558,-33.14093,18.27487
22.858996391,0.4146104,-0.879645599999998,6.99623000000001,1.008551,-0.0149527,0.1075502,-36.16558,-33.14093,18.27487
22.86885643,-0.3928965,0.1915152,6.32189799999997,1.00237,-0.03218128,0.06963618,-36.91304,-33.1323,18.27873
22.878715515,1.097885,0.4295509,6.19929100000001,0.9773716,-0.0343694,0.06422362,-36.91304,-33.1323,18.27873
22.888575077,2.712899,0.370042,6.32189799999997,0.9813606,-0.0138077,0.08782106,-36.91304,-33.1323,18.27873
22.898434162,2.09174,0.608077699999999,6.32189799999997,0.9921188,0.01056267,0.07301822,-36.91304,-33.1323,18.27873
22.908294201,1.160001,0.608077699999999,6.07668500000002,0.9941229,0.007664128,0.07392358,-36.91304,-33.1323,18.27873
22.918153286,0.973653600000002,1.500712,5.586261,0.9963193,0.002867551,0.0872694,-36.91706,-32.396,18.27119
22.928012848,2.464436,2.333837,5.218443,0.9950281,-0.02297115,0.07748573,-36.91706,-32.396,18.27119
22.937872887,5.321767,2.750399,4.973231,0.9906306,-0.0288674,0.07270665,-36.91706,-32.396,18.27119
22.947731972,8.241216,3.047944,4.54411,0.9786298,0.007924432,0.05018663,-36.91706,-32.396,18.27119
22.957591057,7.49582399999998,2.869417,4.482807,0.9811456,0.02017168,0.06606771,-36.91706,-32.396,18.27119
22.967450619,5.508115,3.404998,4.728019,0.9883167,0.001771677,0.07347742,-36.91907,-32.02785,18.26742
22.979774952,5.88081099999999,2.988435,4.973231,0.9852194,0.001699432,0.06154096,-36.91907,-32.02785,18.26742
22.989634514,6.129274,2.988435,4.728019,0.9912795,0.00704091,0.04424848,-36.91907,-32.02785,18.26742
22.999493599,6.439854,2.988435,4.421504,0.999374,-0.0001369058,0.05749013,-36.91907,-32.02785,18.26742
23.009353638,7.24736100000001,2.750399,3.869777,0.9990056,-0.01084779,0.05692578,-36.91907,-32.02785,18.26742
23.019212723,7.55793999999999,2.15531,3.747171,0.9807999,-0.01445581,0.04613322,-37.28882,-31.64381,19.09776
23.029072285,6.874665,1.441203,3.869777,1.010448,0.02676475,0.06810171,-37.28882,-31.64381,19.09776
23.03893137,4.017333,1.976783,3.31805,1.022862,0.04631938,0.06281862,-37.28882,-31.64381,19.09776
23.048791409,0.1040308,2.214819,2.766323,1.020052,0.04242321,0.06857619,-37.28882,-31.64381,19.09776
23.058650494,-2.256374,2.512363,1.969384,1.028838,0.02310195,0.08601828,-37.28882,-31.64381,19.09776
23.068510056,-3.622924,3.702542,0.682021400000003,1.027503,-0.006166939,0.06997672,-37.66853,-31.65107,18.26751
23.078369617,-2.566953,3.881069,0.1915974,1.003925,-0.01372607,0.05635219,-37.66853,-31.65107,18.26751
23.088229179,-2.132142,3.762051,-0.1149176,0.9901131,-0.0006978418,0.05953418,-37.66853,-31.65107,18.26751
23.098088264,-3.560808,3.464506,0.007688423,0.9904204,-0.01281588,0.07140752,-37.66853,-31.65107,18.26751
23.10794735,-5.300054,3.047944,-0.05361458,0.9973369,-0.02738268,0.06351882,-37.66853,-31.65107,18.26751
23.117807388,-6.85295199999998,2.333837,-0.6053416,1.0056,-0.03122998,0.05618059,-37.66732,-31.27669,18.71184
23.12766695,-7.72257499999999,2.274328,-0.6666446,1.000569,-0.05021861,0.06519683,-37.66732,-31.27669,18.71184
23.137526035,-8.654313,2.15531,-0.6666446,1.004492,-0.06531637,0.05255432,-37.66732,-31.27669,18.71184
23.14738512,-9.71028300000003,2.15531,-0.4214326,1.01011,-0.06666563,0.06875564,-37.66732,-31.27669,18.71184
23.15970993,-12.1328,2.333837,-0.2988266,1.012775,-0.0768344,0.07581984,-38.03903,-31.64052,18.71754
23.169569016,-13.62359,2.571872,-0.2375236,1.003483,-0.09400399,0.06095219,-38.03903,-31.64052,18.71754
23.179428577,-15.30072,2.036292,-0.2375236,1.018484,-0.104522,0.07550479,-38.03903,-31.64052,18.71754
23.189288616,-18.28228,2.69089,-0.6053416,1.045335,-0.131993,0.08303665,-38.03903,-31.64052,18.71754
23.199147701,-20.95326,3.524015,-0.3601296,1.04087,-0.1612085,0.08860414,-38.03903,-31.64052,18.71754
23.209006786,-23.8106,4.119105,0.4981124,1.015797,-0.1989229,0.0824136,-38.03903,-31.64052,18.71754
23.218866825,-26.5437,3.28598,1.969384,1.014752,-0.2173683,0.09712802,-37.67175,-31.65731,17.81941
23.228726387,-31.6372,4.000087,2.827626,1.014797,-0.260184,0.09868282,-37.67175,-31.65731,17.81941
23.238585472,-35.61262,3.940578,4.728019,1.015669,-0.2698352,0.1182361,-37.67175,-31.65731,17.81941
23.248444557,-39.71227,4.119105,6.81232100000002,1.033719,-0.2954299,0.127826,-37.67175,-31.65731,17.81941
23.258304596,-43.99827,5.011739,8.65141099999999,1.039773,-0.3537775,0.1258097,-37.67175,-31.65731,17.81941
23.268163681,-44.55731,5.96388199999997,11.83917,1.062988,-0.4259856,0.150267,-38.05222,-32.03807,16.60885
23.278023243,-40.51978,7.451605,15.08823,1.060912,-0.4965597,0.1511386,-38.05222,-32.03807,16.60885
23.287882328,-33.37645,8.998837,19.31813,1.058272,-0.5725295,0.1419095,-38.05222,-32.03807,16.60885
23.297742367,-22.81674,9.593927,23.79325,1.072458,-0.6054685,0.1486174,-38.05222,-32.03807,16.60885
23.307601452,-11.88434,11.26018,28.32967,1.075679,-0.5884081,0.1487154,-38.05222,-32.03807,16.60885
23.317461014,-3.809272,11.97428,32.19176,1.08289,-0.5590857,0.1651529,-38.80888,-32.04725,15.33244
23.329785347,-1.200403,14.29513,36.17646,1.100063,-0.5740542,0.155677,-38.80888,-32.04725,15.33244
23.339644909,1.097885,16.13991,40.77418,1.088761,-0.5916094,0.1724619,-38.80888,-32.04725,15.33244
23.349503994,4.576376,17.92518,44.08455,1.081151,-0.630675,0.1540311,-38.80888,-32.04725,15.33244
23.359364033,8.92449099999999,18.99634,48.74357,1.088214,-0.6515469,0.1513583,-40.31023,-32.04246,14.44397
23.369223118,13.21049,20.00799,53.4639,1.117122,-0.6297963,0.1736523,-40.31023,-32.04246,14.44397
23.37908268,14.14223,21.97178,56.83557,1.119206,-0.6235309,0.1525906,-40.31023,-32.04246,14.44397
23.388941765,14.94973,23.10246,62.0463200000001,1.108057,-0.5924901,0.1515739,-40.31023,-32.04246,14.44397
23.398801804,15.63301,22.56688,67.0118600000002,1.12487,-0.5523918,0.1641319,-40.31023,-32.04246,14.44397
23.408660889,13.02414,22.86442,69.9544100000002,1.158845,-0.5526531,0.1439983,-41.8264,-29.83413,13.1488
23.418520451,12.52721,22.44786,73.5712799999998,1.176333,-0.5408148,0.1452865,-41.8264,-29.83413,13.1488
23.428379536,13.70742,21.97178,75.5942800000001,1.174413,-0.5126396,0.1369261,-41.8264,-29.83413,13.1488
23.438239575,13.08626,21.49571,76.4525200000003,1.12245,-0.5447297,0.1369167,-41.8264,-29.83413,13.1488
23.44809866,14.8255,22.15031,79.7015799999999,1.122012,-0.5880363,0.1384742,-41.8264,-29.83413,13.1488
23.457958222,20.16747,22.15031,84.6058200000001,1.164061,-0.5613054,0.1601437,-41.8264,-29.83413,13.1488
23.467817783,22.27941,22.92393,88.7744199999997,1.185018,-0.4730429,0.1601107,-44.09048,-26.93599,12.29867
23.477677345,18.24188,23.75705,90.6748199999997,1.211613,-0.3988178,0.1665876,-44.09048,-26.93599,12.29867
23.48753643,14.20434,26.49446,91.4717600000001,1.220818,-0.3875318,0.1699061,-44.09048,-26.93599,12.29867
23.497395992,16.12994,26.43496,92.3299999999997,1.203628,-0.3536622,0.1589361,-44.09048,-26.93599,12.29867
23.509720326,18.80092,27.92268,91.2878500000003,1.169463,-0.4193655,0.107115,-47.47961,-24.34239,10.68932
23.519579888,26.25483,27.80366,92.6978099999997,1.15209,-0.4238477,0.1207424,-47.47961,-24.34239,10.68932
23.529438973,35.01318,27.14906,94.2916899999999,1.168741,-0.366708,0.1363217,-47.47961,-24.34239,10.68932
23.539299011,41.41111,27.56563,94.23039,1.180645,-0.3098403,0.09062883,-47.47961,-24.34239,10.68932
23.549158096,42.77766,27.08955,93.4334599999999,1.140122,-0.2453781,0.1176272,-47.47961,-24.34239,10.68932
23.559017658,42.03228,26.43496,91.53306,1.111811,-0.1570248,0.1283603,-50.45487,-19.56453,7.646782
23.568876743,37.93262,26.01839,88.9583399999999,1.068423,-0.1599441,0.1011605,-50.45487,-19.56453,7.646782
23.578736782,36.25549,25.72085,88.65182,1.040289,-0.1996735,0.08397499,-50.45487,-19.56453,7.646782
23.588595867,37.68416,23.99509,87.9161800000001,1.051005,-0.1848093,0.1294716,-50.45487,-19.56453,7.646782
23.598454952,39.54764,25.54232,85.8931799999998,1.063763,-0.1794503,0.1010623,-50.45487,-19.56453,7.646782
23.608314991,42.96401,25.78036,84.2993099999999,1.05599,-0.1707162,0.1127476,-53.10506,-14.39183,6.775335
23.618174553,47.93329,26.43496,81.0502499999998,1.04225,-0.1620616,0.1173292,-53.10506,-14.39183,6.775335
23.628033638,51.72236,27.08955,77.6785800000002,0.9863094,-0.1420993,0.1226078,-53.10506,-14.39183,6.775335
23.637892723,53.39949,26.43496,75.4716700000001,0.9370711,-0.1060067,0.1312813,-53.10506,-14.39183,6.775335
23.647752762,51.34966,24.41165,73.8778000000002,0.9119214,-0.05697408,0.1598472,-53.10506,-14.39183,6.775335
23.657612324,45.69711,24.17362,70.62874,0.9307702,-0.05101183,0.148128,-55.76768,-9.243191,4.175515
23.667471409,41.65958,23.51902,67.5022899999998,0.9091967,-0.05596362,0.1761873,-55.76768,-9.243191,4.175515
23.677330494,39.48552,22.86442,63.5175900000003,0.8965889,-0.09154993,0.189005,-55.76768,-9.243191,4.175515
23.689655304,38.74013,22.86442,59.1037799999998,0.8778675,-0.1384869,0.1740206,-55.76768,-9.243191,4.175515
23.699514389,40.41726,23.57853,57.26469,0.88917,-0.1839956,0.2094154,-55.76768,-9.243191,4.175515
23.709374428,46.19404,24.23313,55.30299,0.892556,-0.2252051,0.2420841,-56.92184,-4.891647,2.856415
23.71923399,50.79062,25.06625,52.91217,0.8923848,-0.2519712,0.2418606,-56.92184,-4.891647,2.856415
23.729093075,56.31894,25.18527,50.21484,0.873136,-0.2468183,0.2340321,-56.92184,-4.891647,2.856415
23.73895216,58.86569,24.59018,48.00793,0.8603441,-0.227911,0.2453956,-56.92184,-4.891647,2.856415
23.748812199,58.1203,23.63803,45.86233,0.8396452,-0.2323954,0.2662583,-56.92184,-4.891647,2.856415
23.758671284,55.0145,22.80491,44.69757,0.8198149,-0.2194616,0.2585037,-57.3148,-3.064411,1.559217
23.768530846,48.55445,20.90063,42.67458,0.8174551,-0.2013943,0.280733,-57.3148,-3.064411,1.559217
23.778389931,41.349,21.01964,40.89679,0.8343471,-0.2211902,0.282242,-57.3148,-3.064411,1.559217
23.788249969,37.62204,21.61473,38.75118,0.8428903,-0.2589983,0.3014483,-57.3148,-3.064411,1.559217
23.798109055,36.25549,21.61473,35.93124,0.8309923,-0.2615884,0.2876993,-57.3148,-3.064411,1.559217
23.807968616,33.02547,22.20982,33.11131,0.8121786,-0.240335,0.2900635,-56.9691,-0.1467113,-0.1372385
23.817828655,27.55927,21.4362,30.53658,0.7586233,-0.1960923,0.276345,-56.9691,-0.1467113,-0.1372385
23.82768774,18.11765,20.7221,28.14577,0.7396328,-0.1457309,0.2554767,-56.9691,-0.1467113,-0.1372385
23.837546825,7.68217200000001,20.12701,25.69365,0.7187192,-0.1414886,0.2682698,-56.9691,-0.1467113,-0.1372385
23.847406387,-1.573099,18.57978,23.85456,0.7272028,-0.1973781,0.267198,-56.9691,-0.1467113,-0.1372385
23.85973072,-5.05159,16.02089,21.27983,0.722338,-0.249654,0.223219,-57.36735,3.158461,-1.065435
23.869590282,-3.436576,13.4025,18.7051,0.7143518,-0.2999208,0.2032614,-57.36735,3.158461,-1.065435
23.879449367,2.526551,9.65343599999998,17.29513,0.7040308,-0.3199077,0.218095,-57.36735,3.158461,-1.065435
23.889309406,7.68217200000001,7.27307799999999,16.19168,0.6830939,-0.3225071,0.2231635,-57.36735,3.158461,-1.065435
23.899168491,10.97432,4.773703,15.51735,0.6999254,-0.278986,0.2400629,-57.36735,3.158461,-1.065435
23.909028053,10.85008,3.702542,13.80086,0.698882,-0.2443491,0.2657677,-57.01085,4.608917,-2.362725
23.918887615,8.92449099999999,3.107453,11.41005,0.7049171,-0.2165563,0.2663954,-57.01085,4.608917,-2.362725
23.928747177,6.93678100000001,3.047944,8.95792600000003,0.6873814,-0.1826502,0.2659731,-57.01085,4.608917,-2.362725
23.938606262,4.700608,2.988435,5.95407899999997,0.6936508,-0.215819,0.230143,-57.01085,4.608917,-2.362725
23.948465824,5.508115,2.452855,3.256747,0.7358085,-0.2339741,0.2202842,-57.01085,4.608917,-2.362725
23.958325386,8.241216,1.976783,-0.1149176,0.7244342,-0.2394793,0.206503,-57.76512,6.464523,-1.929619
23.968184948,11.09855,-0.3440652,-2.750947,0.6999216,-0.2095762,0.193208,-57.76512,6.464523,-1.929619
23.978044033,8.42756399999998,-3.498039,-5.509581,0.6818921,-0.1489584,0.1800797,-57.76512,6.464523,-1.929619
23.987903595,1.097885,-7.42562799999997,-8.57473199999998,0.6764017,-0.08423822,0.1931634,-57.76512,6.464523,-1.929619
23.997763157,-8.90277699999999,-9.62745900000001,-12.92724,0.6832591,-0.1333508,0.1864216,-57.76512,6.464523,-1.929619
24.007622719,-14.43109,-12.66241,-15.37936,0.7051566,-0.2187113,0.2103074,-57.39017,6.834591,-1.487225
24.017481804,-17.53689,-15.04277,-17.46367,0.7179729,-0.259935,0.2169649,-57.39017,6.834591,-1.487225
24.027341843,-18.96556,-17.48264,-18.87363,0.7249248,-0.2813269,0.2056637,-57.39017,6.834591,-1.487225
24.039665699,-19.89729,-19.08938,-20.2836,0.7431325,-0.3234764,0.2122364,-57.39017,6.834591,-1.487225
24.049525261,-18.28228,-19.62496,-21.08054,0.7525079,-0.3500883,0.230567,-57.39017,6.834591,-1.487225
24.059384823,-15.79764,-20.22005,-21.50966,0.7548227,-0.3330161,0.2359493,-57.01043,5.725832,-1.477844
24.069244385,-14.67956,-20.39858,-23.10354,0.7681466,-0.3450718,0.2337409,-57.01043,5.725832,-1.477844
24.07910347,-12.62973,-20.87465,-23.22615,0.7792544,-0.3561071,0.249303,-57.01043,5.725832,-1.477844
24.088962555,-9.77240000000001,-20.5771,-24.2683,0.807931,-0.3236814,0.2640231,-57.01043,5.725832,-1.477844
24.098822594,-6.666604,-20.22005,-26.59781,0.7955935,-0.3024737,0.2389804,-57.01043,5.725832,-1.477844
24.108682156,-3.933504,-19.98201,-29.96948,0.8065453,-0.2966007,0.2221019,-57.00043,5.001119,-0.6381235
24.118541241,-0.2065488,-19.44643,-33.15723,0.8286836,-0.3056464,0.2231476,-57.00043,5.001119,-0.6381235
24.128401279,3.147711,-19.02987,-35.73196,0.8256173,-0.3198684,0.2010281,-57.00043,5.001119,-0.6381235
24.138260365,4.390029,-19.2084,-36.89672,0.8051915,-0.3512627,0.1823655,-57.00043,5.001119,-0.6381235
24.148119926,5.197536,-21.2317,-36.28368,0.7972441,-0.3284197,0.1936931,-57.00043,5.001119,-0.6381235
24.157979012,2.09174,-24.92126,-35.79326,0.7829315,-0.254506,0.2136889,-57.71739,1.720479,1.128048
24.16783905,-6.977184,-29.26541,-36.46759,0.7889591,-0.1591222,0.2014696,-57.71739,1.720479,1.128048
24.177698135,-18.84132,-32.47889,-38.6745,0.8238163,-0.1068091,0.1846423,-57.71739,1.720479,1.128048
24.187557697,-27.91025,-35.93041,-39.96186,0.8561744,-0.06367392,0.1917331,-57.71739,1.720479,1.128048
24.197416782,-34.3703,-37.12059,-43.08832,0.9018329,-0.04822437,0.1811496,-57.71739,1.720479,1.128048
24.209741592,-35.48839,-37.59666,-48.11516,0.9186196,-0.04705658,0.1933793,-56.95718,0.9924784,2.347989
24.219600678,-33.68703,-36.46599,-54.9811,0.9347365,-0.09219105,0.1874976,-56.95718,0.9924784,2.347989
24.229460716,-27.04062,-36.16845,-61.8470300000001,0.9437373,-0.1547682,0.2184683,-56.95718,0.9924784,2.347989
24.239319801,-17.16419,-33.31202,-65.5252200000001,0.9478106,-0.1945874,0.2310126,-56.95718,0.9924784,2.347989
24.249178886,-11.07683,-33.25251,-66.8125799999998,0.9433141,-0.1020253,0.2697146,-56.95718,0.9924784,2.347989
24.259038448,-16.04611,-31.52675,-69.0194899999999,0.9448476,-0.02791817,0.3038621,-57.29841,-2.660626,4.115999
24.268898487,-29.33891,-29.74148,-71.9007299999999,0.9664069,0.03268737,0.3237135,-57.29841,-2.660626,4.115999
24.278757572,-46.4829,-24.80224,-77.1114899999999,1.025278,-0.01166157,0.2966234,-57.29841,-2.660626,4.115999
24.288616657,-55.48971,-20.51759,-79.2570899999998,1.009662,-0.1174641,0.2782227,-57.29841,-2.660626,4.115999
24.298476219,-57.16684,-19.62496,-80.1153300000001,1.004786,-0.1896253,0.2518064,-57.29841,-2.660626,4.115999
24.308336258,-57.4774200000001,-19.56545,-80.6670600000002,1.023936,-0.2216589,0.2287408,-56.14632,-5.527997,6.252197
24.318195343,-58.7197400000003,-19.08938,-82.0157199999998,1.062728,-0.2183455,0.2421126,-56.14632,-5.527997,6.252197
24.328054428,-58.7197400000003,-18.91085,-84.1000300000002,1.080943,-0.2127819,0.2553176,-56.14632,-5.527997,6.252197
24.337914467,-54.68221,-16.17344,-85.7552100000002,1.074104,-0.2937503,0.2207085,-56.14632,-5.527997,6.252197
24.347774029,-46.11021,-15.39983,-84.5904500000001,1.059604,-0.3391003,0.2296373,-56.14632,-5.527997,6.252197
24.357633114,-37.04129,-15.28081,-83.3643900000003,1.094893,-0.3324221,0.2402123,-54.6181,-9.945215,7.569994
24.367492199,-30.64335,-13.85259,-83.3030899999998,1.139018,-0.2916166,0.2471157,-54.6181,-9.945215,7.569994
24.379817009,-28.9041,-13.07898,-86.4908399999999,1.126172,-0.2308722,0.2554786,-54.6181,-9.945215,7.569994
24.389676094,-33.00375,-10.93666,-89.2494800000001,1.106244,-0.2739771,0.2271261,-54.6181,-9.945215,7.569994
24.399535656,-36.10955,-9.92500399999998,-88.5138400000001,1.08646,-0.3115353,0.2500927,-54.6181,-9.945215,7.569994
24.409395218,-40.83036,-10.22255,-86.9812700000001,1.097874,-0.2890661,0.2458069,-53.08788,-14.73058,8.891562
24.41925478,-51.45218,-10.69862,-84.6517599999997,1.112119,-0.2227951,0.2365791,-53.08788,-14.73058,8.891562
24.429113865,-69.0309800000003,-10.22255,-84.52914,1.148329,-0.2408892,0.2569951,-53.08788,-14.73058,8.891562
24.438973904,-77.3545199999998,-1.891297,-85.4486899999998,1.169588,-0.4944644,0.1936938,-53.08788,-14.73058,8.891562
24.448832989,-61.5149599999999,1.143658,-82.0770299999999,1.138407,-0.7114256,0.155888,-53.08788,-14.73058,8.891562
24.458692551,-32.56894,1.679239,-76.1919400000001,1.10781,-0.8275631,0.1419264,-50.43526,-19.15451,10.65166
24.468551636,-4.368315,1.143658,-71.0424900000002,1.09556,-0.8126771,0.1177874,-50.43526,-19.15451,10.65166
24.478411675,15.44666,-1.17719,-67.4869199999999,1.11564,-0.6231135,0.1425818,-50.43526,-19.15451,10.65166
24.48827076,20.78863,-4.331164,-64.36046,1.114284,-0.3959037,0.1354139,-50.43526,-19.15451,10.65166
24.498130322,9.60776600000003,-7.36611899999999,-63.1344000000001,1.090703,-0.2890007,0.1505489,-50.43526,-19.15451,10.65166
24.507989407,-9.399704,-10.5796,-62.2761599999999,1.089365,-0.2257776,0.1439136,-48.91947,-23.59579,10.24109
24.517849445,-30.51912,-11.65076,-62.09225,1.113071,-0.2630988,0.1274471,-48.91947,-23.59579,10.24109
24.527708531,-45.55117,-11.8888,-59.39492,1.111982,-0.3701434,0.1327889,-48.91947,-23.59579,10.24109
24.537568092,-48.34638,-11.82929,-55.10371,1.099053,-0.4198448,0.1454921,-48.91947,-23.59579,10.24109
24.547428131,-42.07267,-10.87715,-52.09986,1.093765,-0.4408596,0.1338893,-48.91947,-23.59579,10.24109
24.559751987,-30.95393,-8.73482500000002,-51.97725,1.119054,-0.5525636,0.132107,-45.96792,-25.81532,11.91294
24.569611072,-15.79764,-5.10478,-52.09986,1.10203,-0.601863,0.1319335,-45.96792,-25.81532,11.91294
24.579471111,3.76887,-4.50969,-49.52513,1.072924,-0.5349481,0.1372259,-45.96792,-25.81532,11.91294
24.589330196,11.34701,-3.736075,-46.45998,1.054205,-0.4602331,0.1218304,-45.96792,-25.81532,11.91294
24.599189758,6.874665,-3.795583,-41.43314,1.05239,-0.3843169,0.127289,-45.96792,-25.81532,11.91294
24.60904932,-1.014056,-3.617057,-37.50975,1.073269,-0.3509758,0.1450032,-44.82899,-29.08023,11.94045
24.618908882,-4.927359,-3.736075,-34.75111,1.061762,-0.4056947,0.1140366,-44.82899,-29.08023,11.94045
24.628767967,-1.573099,-5.402325,-30.88902,1.039394,-0.4921365,0.08391553,-44.82899,-29.08023,11.94045
24.638627529,9.54565000000002,-6.830539,-27.82387,1.019045,-0.5365556,0.09533148,-44.82899,-29.08023,11.94045
24.648487091,21.28556,-7.06857499999999,-26.96563,1.003351,-0.5611171,0.0709087,-44.82899,-29.08023,11.94045
24.658346653,32.34219,-8.37777100000001,-23.28745,0.9479538,-0.5225825,0.09646263,-42.57462,-30.199,12.77235
24.668205738,39.11283,-10.63911,-18.50582,0.9564125,-0.4187462,0.1264495,-42.57462,-30.199,12.77235
24.6780653,35.32376,-10.63911,-14.88894,0.9769938,-0.3499846,0.1176317,-42.57462,-30.199,12.77235
24.687924862,28.491,-11.29371,-11.21076,1.014183,-0.3154763,0.1485409,-42.57462,-30.199,12.77235
24.697784424,23.14903,-10.10353,-9.18776100000002,1.037057,-0.3293296,0.1634323,-42.57462,-30.199,12.77235
24.707643509,23.52173,-10.10353,-6.67433799999998,1.009234,-0.371547,0.130887,-42.18566,-31.28993,14.06201
24.717503548,30.23025,-10.81764,-3.057462,1.000118,-0.3837839,0.1333097,-42.18566,-31.28993,14.06201
24.727362633,40.72784,-11.17469,0.682021400000003,1.021786,-0.3548821,0.1332448,-42.18566,-31.28993,14.06201
24.739686489,51.47389,-10.22255,3.685868,1.064827,-0.3067921,0.1387876,-42.18566,-31.28993,14.06201
24.749546528,59.9837799999997,-9.15138699999998,5.15714,1.072267,-0.268263,0.1442779,-42.18566,-31.28993,14.06201
24.75940609,67.7482599999998,-8.85384299999998,6.3832,1.04158,-0.2242049,0.1570671,-41.43222,-31.28699,14.89032
24.769265175,72.7796600000002,-8.615807,6.99623000000001,1.007395,-0.1909391,0.1549598,-41.43222,-31.28699,14.89032
24.779125214,75.2642899999998,-8.55629800000001,7.48665400000003,0.9836211,-0.168284,0.1535731,-41.43222,-31.28699,14.89032
24.788984299,75.7612200000001,-8.73482500000002,8.528805,0.9658352,-0.12322,0.1446229,-41.43222,-31.28699,14.89032
24.798843861,73.7113899999998,-9.50844099999999,10.85832,0.9749966,-0.05935313,0.1550945,-41.43222,-31.28699,14.89032
24.808702946,67.8103799999999,-10.40108,11.47135,1.006156,-0.0109188,0.1507464,-40.6776,-29.79362,16.98383
24.818562984,59.0520399999999,-11.11518,11.28744,1.025944,0.007734667,0.1472674,-40.6776,-29.79362,16.98383
24.82842207,52.40563,-11.82929,10.06138,1.059631,0.006549658,0.1410269,-40.6776,-29.79362,16.98383
24.838281631,47.43636,-10.52009,8.03838099999998,1.057772,-0.00613345,0.1371127,-40.6776,-29.79362,16.98383
24.848140717,43.89575,-9.92500399999998,6.44450299999999,1.023891,-0.009398203,0.1251089,-40.6776,-29.79362,16.98383
24.858000755,38.74013,-9.21089600000002,5.402352,1.011321,-0.007027094,0.1382464,-41.03891,-29.76525,18.71414
24.86785984,32.71489,-7.96120899999999,4.789322,0.9947875,-0.004216841,0.1480898,-41.03891,-29.76525,18.71414
24.877719402,25.19886,-7.06857499999999,4.605413,0.9896929,0.0205816,0.1550804,-41.03891,-29.76525,18.71414
24.887578964,15.88147,-6.53299399999998,4.728019,0.9937652,0.04396126,0.1513861,-41.03891,-29.76525,18.71414
24.897438526,6.439854,-6.11643200000001,4.237596,1.006599,0.03971253,0.1559594,-41.03891,-29.76525,18.71414
24.909762382,-2.504838,-5.759378,3.195444,1.00251,0.02267511,0.1640202,-41.03694,-29.01737,19.53878
24.919622421,-6.48025699999999,-5.759378,2.459808,0.9824562,0.008828016,0.1522092,-41.03694,-29.01737,19.53878
24.929481506,-10.14509,-6.05692300000003,1.969384,0.9835053,0.008368614,0.1569824,-41.03694,-29.01737,19.53878
24.939340591,-12.62973,-5.461833,1.540263,0.9852654,-0.004717096,0.16691,-41.03694,-29.01737,19.53878
24.949200153,-14.55532,-4.628708,1.785475,0.9971504,-0.006524824,0.1758302,-41.03694,-29.01737,19.53878
24.959060192,-15.42495,-3.379021,1.47896,1.00669,-0.02394872,0.1784224,-40.29517,-27.98292,19.52423
24.968919277,-13.49935,-2.367369,1.111142,1.005338,-0.04736381,0.166264,-40.29517,-27.98292,19.52423
24.978778362,-9.71028300000003,-1.950806,1.172445,0.9978374,-0.0737042,0.167107,-40.29517,-27.98292,19.52423
24.988638401,-5.175822,-1.593753,1.049839,0.989478,-0.06890788,0.168225,-40.29517,-27.98292,19.52423
24.998497963,-2.566953,-1.117681,1.785475,0.9906425,-0.04945225,0.1631015,-40.29517,-27.98292,19.52423
25.008357048,-1.262519,-0.701118900000002,2.275899,1.001873,-0.03568821,0.1736,-40.29551,-27.92156,19.5236
25.018216133,-1.014056,0.310533,2.459808,1.003205,-0.0259493,0.1722256,-40.29551,-27.92156,19.5236
25.028076172,-0.3928965,0.9056224,2.214596,0.9751986,-0.04673678,0.1451349,-40.29551,-27.92156,19.5236
25.037935734,1.532697,1.143658,2.459808,0.9745102,-0.06619181,0.1492933,-40.29551,-27.92156,19.5236
25.047794819,4.576376,1.738747,2.888929,0.9795752,-0.08025768,0.1495816,-40.29551,-27.92156,19.5236
25.057654858,7.43370899999999,2.036292,3.379353,0.9911535,-0.07824706,0.1393704,-40.29229,-27.91533,19.9717
25.067513943,9.794114,2.69089,3.685868,0.9942332,-0.0558566,0.1337651,-40.29229,-27.91533,19.9717
25.077373505,9.60776600000003,3.345489,3.685868,1.001432,-0.03434916,0.1424696,-40.29229,-27.91533,19.9717
25.089697838,8.11698399999998,4.476159,3.563262,1.007209,-0.03530037,0.134712,-40.29229,-27.91533,19.9717
25.099556923,7.80640399999998,5.011739,3.624565,0.9944057,-0.03690173,0.1272138,-40.29229,-27.91533,19.9717
25.109416485,6.81255000000002,4.95223,3.440656,0.9835278,-0.03751829,0.1182588,-40.66401,-28.27916,19.9774
25.11927557,5.011188,4.654685,3.072838,0.9902501,-0.02968206,0.1158331,-40.66401,-28.27916,19.9774
25.129135609,2.899247,3.881069,3.011535,0.9738375,-0.02062554,0.1041635,-40.66401,-28.27916,19.9774
25.138994694,0.2282626,2.333837,3.195444,0.9732412,-0.02261328,0.09457126,-40.66401,-28.27916,19.9774
25.148854256,-2.31849,1.262676,3.256747,0.9948764,-0.01506766,0.1091818,-40.66401,-28.27916,19.9774
25.158714294,-4.927359,0.9056224,2.888929,1.013566,-0.02317406,0.1093262,-40.67246,-27.92348,19.07743
25.16857338,-5.424286,1.262676,2.337202,1.011414,-0.03629421,0.1193093,-40.67246,-27.92348,19.07743
25.178432465,-4.678895,1.857765,1.969384,1.009925,-0.04217206,0.1125721,-40.67246,-27.92348,19.07743
25.188292027,-3.871388,2.274328,1.662869,0.9903684,-0.05064206,0.1060706,-40.67246,-27.92348,19.07743
25.198152065,-3.250229,3.226471,1.908081,0.9932639,-0.04183926,0.1108956,-40.67246,-27.92348,19.07743
25.20801115,-2.504838,3.762051,2.582414,0.9950663,-0.03600724,0.1046895,-41.03975,-27.90669,19.97556
25.217870235,-2.504838,3.524015,2.09199,0.9897243,-0.02006746,0.08573223,-41.03975,-27.90669,19.97556
25.227730274,-2.566953,2.750399,1.540263,0.9796247,-0.02303834,0.09591429,-41.03975,-27.90669,19.97556
25.237589836,-2.256374,2.393346,1.233748,0.9935542,-0.03993877,0.09796912,-41.03975,-27.90669,19.97556
25.247448921,-1.448867,2.095801,0.988536299999999,0.9880524,-0.05613233,0.07490931,-41.03975,-27.90669,19.97556
25.257308006,0.3524944,1.262676,1.172445,0.9723437,-0.05140429,0.07517309,-41.7921,-27.59751,19.52818
25.269632816,0.4146104,0.608077699999999,1.295051,0.9773166,-0.03571461,0.09488181,-41.7921,-27.59751,19.52818
25.279491901,-0.5171283,0.667586600000001,1.049839,0.9791088,-0.03232662,0.08578006,-41.7921,-27.59751,19.52818
25.289351463,-0.641360199999998,0.608077699999999,1.111142,0.9850002,-0.03910377,0.08132611,-41.7921,-27.59751,19.52818
25.299211025,-0.641360199999998,0.370042,0.743324399999998,1.000863,-0.04915818,0.08772396,-41.7921,-27.59751,19.52818
25.309070587,-0.3928965,0.5485688,0.4981124,1.00191,-0.05987101,0.08330584,-41.04619,-27.91917,19.07937
25.318929672,1.03577,0.846113400000001,0.5594154,0.9888624,-0.07214798,0.08434658,-41.04619,-27.91917,19.07937
25.328789711,2.215972,0.1320062,0.682021400000003,0.9911208,-0.05802125,0.08299602,-41.04619,-27.91917,19.07937
25.338648796,1.408465,0.310533,0.620718400000002,0.9900841,-0.04486439,0.09030983,-41.04619,-27.91917,19.07937
25.348508358,0.663074000000001,-0.2250474,0.743324399999998,0.9979111,-0.03942459,0.09503617,-41.04619,-27.91917,19.07937
25.358367443,-1.324635,-0.4035742,0.2529004,1.009659,-0.04615381,0.08954076,-41.42159,-27.60806,19.07816
25.368227482,-3.747156,-1.236699,-0.1149176,1.009413,-0.05341223,0.1009838,-41.42159,-27.60806,19.07816
25.378086567,-7.03929899999998,-0.939154599999998,-0.789250600000002,1.007014,-0.07818485,0.1185393,-41.42159,-27.60806,19.07816
25.387946129,-11.76011,-1.117681,-1.340978,0.9944445,-0.0972956,0.1128068,-41.42159,-27.60806,19.07816
25.397806168,-18.09593,-1.593753,-1.892705,0.9785217,-0.09151701,0.1341672,-41.42159,-27.60806,19.07816
25.407665253,-28.46929,-1.712771,-2.383129,0.9708244,-0.08422592,0.1501521,-41.79532,-27.60375,19.08009
25.417524338,-42.38326,-2.367369,-1.770099,0.9751202,-0.1065407,0.1585281,-41.79532,-27.60375,19.08009
25.4273839,-57.3531900000002,-1.831789,-0.2375236,1.006016,-0.1324748,0.1770369,-41.79532,-27.60375,19.08009
25.439708233,-74.2487199999998,-0.760627799999999,0.4981124,1.038674,-0.2221346,0.1968995,-41.79532,-27.60375,19.08009
25.449567795,-81.7026299999997,1.203167,1.785475,1.024794,-0.3351709,0.1918306,-41.79532,-27.60375,19.08009
25.459427357,-80.2739600000002,2.214819,5.341049,1.026297,-0.4276406,0.1847992,-41.42067,-28.28835,18.70099
25.469286919,-72.94428,3.583524,9.325744,1.035031,-0.5034761,0.1845139,-41.42067,-28.28835,18.70099
25.479146004,-62.9436199999998,4.238123,13.49435,1.04808,-0.5418391,0.1748994,-41.42067,-28.28835,18.70099
25.489005566,-52.57026,5.487811,17.41774,1.088727,-0.5502551,0.1704154,-41.42067,-28.28835,18.70099
25.498865128,-41.51363,6.97553399999999,21.40244,1.10912,-0.5276584,0.1789411,-41.42067,-28.28835,18.70099
25.50872469,-33.31433,8.16571199999999,23.91586,1.082968,-0.5333225,0.157702,-41.43585,-28.31775,16.58853
25.518583775,-26.60581,8.28473000000001,27.53273,1.047142,-0.5375776,0.1457175,-41.43585,-28.31775,16.58853
25.528443337,-19.58672,8.701293,29.92355,1.052861,-0.5628211,0.1482982,-41.43585,-28.31775,16.58853
25.538302899,-13.37512,9.53441800000002,33.60173,1.058316,-0.587164,0.1322014,-41.43585,-28.31775,16.58853
25.54816246,-6.72872000000001,8.82031100000003,38.19946,1.079725,-0.5694299,0.1392339,-41.43585,-28.31775,16.58853
25.558021545,-3.871388,8.46325700000001,41.26461,1.08134,-0.5411929,0.13897,-41.81402,-28.69405,15.69804
25.567881584,-5.486402,7.92767700000003,44.57497,1.094218,-0.5289644,0.1254721,-41.81402,-28.69405,15.69804
25.577740669,-7.47411100000001,7.33258699999997,48.55966,1.089356,-0.5099584,0.1443906,-41.81402,-28.69405,15.69804
25.587600231,-9.08912500000002,7.03504299999997,51.74742,1.093597,-0.5128948,0.1299294,-41.81402,-28.69405,15.69804
25.597459316,-10.14509,8.16571199999999,54.68996,1.102603,-0.5298476,0.1296579,-41.81402,-28.69405,15.69804
25.609784126,-8.84066099999998,8.998837,58.18423,1.11683,-0.5179929,0.1429728,-43.69186,-28.69029,14.42742
25.619643211,-7.16353100000001,10.01049,60.5750499999999,1.12589,-0.508213,0.1343006,-43.69186,-28.69029,14.42742
25.62950325,-4.989474,10.66509,62.23023,1.126681,-0.4984932,0.1291002,-43.69186,-28.69029,14.42742
25.639362335,-3.68504,10.60558,63.7628,1.116881,-0.4937024,0.1321555,-43.69186,-28.69029,14.42742
25.649221897,-3.622924,11.31969,66.1536199999999,1.124267,-0.5038763,0.1266932,-44.82874,-26.90954,13.58281
25.659080982,-3.436576,11.20067,68.2379200000001,1.10015,-0.5303594,0.1287302,-44.82874,-26.90954,13.58281
25.668941021,-2.566953,11.20067,70.9965600000003,1.104665,-0.5634878,0.1077807,-44.82874,-26.90954,13.58281
25.678800106,-1.697331,9.95097999999998,74.8586400000001,1.102507,-0.549757,0.1409921,-44.82874,-26.90954,13.58281
25.688659668,-5.05159,10.24853,76.7590400000001,1.107149,-0.5639436,0.1101374,-44.82874,-26.90954,13.58281
25.69851923,-7.10141600000002,8.58227499999998,81.29546,1.109872,-0.5483547,0.1083134,-44.82874,-26.90954,13.58281
25.708378792,-10.89049,6.43995299999998,84.3606099999998,1.162976,-0.50791,0.127545,-47.10191,-23.96697,11.5158
25.718237877,-15.36283,5.666337,87.5483599999998,1.180906,-0.4718046,0.1108222,-47.10191,-23.96697,11.5158
25.728097439,-18.77921,4.41665,89.9391799999998,1.193748,-0.4361514,0.1152529,-47.10191,-23.96697,11.5158
25.737957001,-20.39422,4.119105,90.7361200000002,1.174565,-0.4304915,0.1126988,-47.10191,-23.96697,11.5158
25.747816563,-17.90959,2.809908,91.1039399999998,1.153441,-0.4233798,0.1125807,-47.10191,-23.96697,11.5158
25.757675648,-12.38127,2.631382,91.9008800000002,1.159001,-0.4598982,0.0935045,-49.37355,-20.27742,10.2094
25.767534733,-1.386751,0.608077699999999,93.7399700000001,1.123952,-0.4406317,0.1233978,-49.37355,-20.27742,10.2094
25.777394772,6.99889700000002,-0.2845563,93.7399700000001,1.113598,-0.3881525,0.1278218,-49.37355,-20.27742,10.2094
25.789718628,15.69513,-2.783932,94.9047199999998,1.115723,-0.2688773,0.1374238,-49.37355,-20.27742,10.2094
25.799578667,14.88762,-2.188842,92.3299999999997,1.122048,-0.1913378,0.1672191,-53.08582,-16.21475,8.074465
25.809438229,12.4651,-1.534244,89.9391799999998,1.096853,-0.1769822,0.161949,-53.08582,-16.21475,8.074465
25.819297314,9.297187,-0.998663500000001,87.6709699999998,1.080501,-0.1877906,0.1731125,-53.08582,-16.21475,8.074465
25.829156399,10.41527,1.084149,85.46407,1.065629,-0.246917,0.1426359,-53.08582,-16.21475,8.074465
25.839016437,16.06782,1.262676,84.9123399999999,1.038503,-0.2539182,0.156381,-53.08582,-16.21475,8.074465
25.848875999,22.40364,1.61973,83.2571599999999,1.032964,-0.2422932,0.1551204,-54.61006,-11.4178,7.585076
25.858735085,27.06234,0.965131299999997,82.0923999999998,1.019315,-0.1616257,0.1579126,-54.61006,-11.4178,7.585076
25.868595123,26.50329,1.322185,79.7015799999999,0.9930753,-0.07029292,0.1796629,-54.61006,-11.4178,7.585076
25.878454208,20.78863,1.798256,76.1460100000001,0.9399476,-0.01922818,0.1674335,-54.61006,-11.4178,7.585076
25.88831377,14.94973,1.679239,71.9774000000002,0.9017175,-0.02593401,0.156421,-54.61006,-11.4178,7.585076
25.898172855,13.70742,1.798256,67.7475000000001,0.903791,-0.07750025,0.155477,-56.13104,-7.730646,6.722917
25.908032894,16.19205,2.333837,63.8240999999998,0.8912728,-0.1272196,0.1624238,-56.13104,-7.730646,6.722917
25.917891979,19.60843,2.274328,59.22638,0.8685211,-0.1527426,0.1577407,-56.13104,-7.730646,6.722917
25.927751064,23.89443,2.631382,56.46775,0.8440663,-0.1655166,0.1828998,-56.13104,-7.730646,6.722917
25.937611103,26.9381,3.166962,53.89302,0.8470582,-0.1532688,0.1978157,-56.13104,-7.730646,6.722917
25.947470665,27.6835,4.595177,51.5022,0.8475163,-0.1435087,0.2041211,-56.13104,-7.730646,6.722917
25.95732975,27.06234,6.32093599999998,48.25315,0.8356509,-0.1416954,0.1966384,-57.65298,-2.247179,7.058795
25.96965456,26.25483,8.04669499999999,44.26845,0.8055768,-0.1926667,0.1707601,-57.65298,-2.247179,7.058795
25.979513645,27.18657,8.34423899999999,42.18415,0.7965162,-0.2073292,0.1750783,-57.65298,-2.247179,7.058795
25.98937273,28.67735,9.35589100000001,39.36421,0.7864753,-0.2109067,0.153148,-57.65298,-2.247179,7.058795
25.999232769,29.29851,9.11785500000002,36.66688,0.7738466,-0.2052701,0.1289364,-58.05277,1.427032,6.190841
26.009092331,29.11216,7.21356999999998,33.96955,0.7546552,-0.1406723,0.1417351,-58.05277,1.427032,6.190841
26.018951416,23.0248,6.26142599999997,29.31052,0.754026,-0.09216425,0.1023798,-58.05277,1.427032,6.190841
26.028810501,16.0057,4.595177,25.87755,0.7502433,-0.1009497,0.1042764,-58.05277,1.427032,6.190841
26.03867054,9.297187,3.940578,22.56719,0.7518408,-0.1393343,0.1159097,-58.05277,1.427032,6.190841
26.048530102,4.079449,2.452855,20.17637,0.7236937,-0.1795558,0.09728263,-58.06883,4.372212,6.160676
26.058389187,1.532697,0.310533,16.6821,0.7045454,-0.2240382,0.08903375,-58.06883,4.372212,6.160676
26.068248272,1.222117,-1.831789,14.6591,0.7234872,-0.2895485,0.09300291,-58.06883,4.372212,6.160676
26.078108311,4.82484,-3.498039,13.18783,0.7332931,-0.3205668,0.1031438,-58.06883,4.372212,6.160676
26.087967396,8.42756399999998,-5.342815,11.16483,0.7366729,-0.3019966,0.1161907,-58.06883,4.372212,6.160676
26.097826958,8.986607,-6.71152099999998,8.89662299999997,0.7394719,-0.2669922,0.1011118,-57.32539,5.099874,6.149272
26.107686996,6.129274,-7.48513700000001,5.708868,0.7529559,-0.2727905,0.08026515,-57.32539,5.099874,6.149272
26.117546082,4.949072,-9.09187900000003,3.256747,0.7774059,-0.284294,0.0692772,-57.32539,5.099874,6.149272
26.127405167,3.520406,-10.52009,0.8659304,0.7676768,-0.2838768,0.07373218,-57.32539,5.099874,6.149272
26.139729977,-0.579244300000001,-12.12683,-1.58619,0.7148138,-0.2946062,0.06241508,-57.32539,5.099874,6.149272
26.149589062,-5.175822,-14.32866,-2.015311,0.7179826,-0.2516848,0.08142092,-57.70995,7.687461,6.572906
26.159448624,-14.12051,-14.09063,-4.222218,0.7387638,-0.2568063,0.0940199,-57.70995,7.687461,6.572906
26.169308662,-18.71709,-14.5667,-6.06130799999997,0.7725344,-0.2830847,0.1436328,-57.70995,7.687461,6.572906
26.179167748,-20.89115,-12.60291,-9.18776100000002,0.7922751,-0.3335024,0.1477179,-57.70995,7.687461,6.572906
26.189026833,-18.09593,-11.17469,-12.0077,0.7781063,-0.3585226,0.1271031,-57.70995,7.687461,6.572906
26.198886395,-12.94031,-10.69862,-15.19546,0.7819113,-0.3993948,0.1190367,-57.3222,6.222137,7.418236
26.208746433,-4.989474,-9.92500399999998,-16.91194,0.7953872,-0.4533946,0.09107459,-57.3222,6.222137,7.418236
26.218605518,3.76887,-9.44893200000001,-17.89279,0.794898,-0.462187,0.08334018,-57.3222,6.222137,7.418236
26.228464603,10.97432,-10.10353,-19.11885,0.7910507,-0.440856,0.07111584,-57.3222,6.222137,7.418236
26.238324642,13.2726,-11.47224,-19.73188,0.7646781,-0.403131,0.0718101,-57.3222,6.222137,7.418236
26.248183727,10.85008,-12.78143,-20.34491,0.758981,-0.375928,0.07260007,-57.32622,6.958432,7.410695
26.258043289,4.949072,-14.62621,-20.46751,0.77402,-0.3621593,0.07537712,-57.32622,6.958432,7.410695
26.267902374,-1.200403,-14.74523,-21.14185,0.7828142,-0.3596434,0.07671061,-57.32622,6.958432,7.410695
26.277762413,-4.865242,-14.74523,-22.3679,0.7838378,-0.3684099,0.07230925,-57.32622,6.958432,7.410695
26.287621498,-7.41199499999999,-15.93541,-23.16484,0.7937689,-0.3555873,0.09431909,-57.32622,6.958432,7.410695
26.29748106,-7.72257499999999,-15.51884,-25.12654,0.8131192,-0.3457114,0.08693866,-57.30493,3.651339,7.892727
26.307341099,-5.237938,-15.75688,-25.80087,0.8199285,-0.3194329,0.0712498,-57.30493,3.651339,7.892727
26.319664955,0.663074000000001,-16.70902,-29.35645,0.8381367,-0.2974067,0.06255058,-57.30493,3.651339,7.892727
26.32952404,6.62620199999998,-16.29246,-32.91202,0.8303226,-0.3072369,0.0549118,-57.30493,3.651339,7.892727
26.339384079,15.13608,-17.36362,-36.34499,0.8399689,-0.2759429,0.0722896,-57.30493,3.651339,7.892727
26.349243164,20.2917,-17.30411,-39.65535,0.8594777,-0.2217284,0.07965708,-57.66665,2.562795,8.73815
26.359102726,20.47805,-18.31576,-43.27223,0.8296601,-0.1119172,0.1064064,-57.66665,2.562795,8.73815
26.368962765,10.9122,-18.07773,-48.8508,0.8358321,-0.08408546,0.1170957,-57.66665,2.562795,8.73815
26.37882185,2.464436,-17.66117,-51.67074,0.8414387,-0.1189907,0.1387644,-57.66665,2.562795,8.73815
26.388680935,-2.194258,-16.76853,-54.85849,0.870814,-0.1887581,0.1506953,-57.66665,2.562795,8.73815
26.398540497,-2.256374,-15.69737,-56.45237,0.9011004,-0.2518362,0.1276881,-57.64737,-0.3761492,9.216412
26.408400059,-0.5171283,-15.16179,-57.8623400000002,0.9282089,-0.2811866,0.1524516,-57.64737,-0.3761492,9.216412
26.418259621,3.520406,-13.49554,-59.2110100000001,0.9482046,-0.3096966,0.1586348,-57.64737,-0.3761492,9.216412
26.428118706,8.86237499999997,-13.07898,-60.5596699999997,0.9541131,-0.2882869,0.1443553,-57.64737,-0.3761492,9.216412
26.437978745,9.23507000000002,-14.38817,-62.3987600000002,0.9287256,-0.1813583,0.1705379,-57.64737,-0.3761492,9.216412
26.44783783,-2.939649,-15.45933,-66.6899699999998,0.9430016,-0.09834373,0.214163,-56.51217,-1.850106,10.05788
26.457697392,-19.64883,-11.59125,-71.5942199999997,0.9814683,-0.2367917,0.1865696,-56.51217,-1.850106,10.05788
26.467556477,-19.21402,-9.15138699999998,-71.1037900000001,0.9780824,-0.3618798,0.1869998,-56.51217,-1.850106,10.05788
26.477416515,-11.63588,-9.15138699999998,-70.6133700000001,1.002966,-0.4395233,0.1855106,-56.51217,-1.850106,10.05788
26.489740372,-2.132142,-7.00906600000001,-67.8547400000002,1.019843,-0.4526235,0.1559284,-56.51217,-1.850106,10.05788
26.499600411,-0.2065488,-7.54464599999999,-67.1804000000001,1.041271,-0.4226786,0.1750437,-55.74175,-5.47262,10.53919
26.509459496,0.3524944,-6.41397600000001,-68.2225500000001,1.056185,-0.4050395,0.1721048,-55.74175,-5.47262,10.53919
26.519319058,-0.3928965,-6.41397600000001,-68.52907,1.030757,-0.3551098,0.1810349,-55.74175,-5.47262,10.53919
26.529178143,-9.399704,-8.08022700000001,-69.3873100000002,1.018712,-0.2651138,0.2020925,-55.74175,-5.47262,10.53919
26.539038181,-27.91025,-9.15138699999998,-71.5942199999997,1.01948,-0.2539362,0.1964255,-55.74175,-5.47262,10.53919
26.548897266,-46.60714,-7.06857499999999,-70.9198800000002,1.040086,-0.3657588,0.1741033,-54.58969,-10.63429,10.97027
26.558756828,-51.07948,-7.84219100000002,-67.3030100000001,1.057676,-0.4454075,0.1741388,-54.58969,-10.63429,10.97027
26.56861639,-47.47676,-8.08022700000001,-64.23785,1.074185,-0.4692187,0.1439922,-54.58969,-10.63429,10.97027
