Time (s),Gyroscope X (deg/s),Gyroscope Y (deg/s),Gyroscope Z (deg/s),Accelerometer X (g),Accelerometer Y (g),Accelerometer Z (g),Magnetometer X (uT),Magnetometer Y (uT),Magnetometer Z (uT)
44.126067162,0.00862774800000002,-0.01519001,0.2396686,1.005938,0.1037824,-0.01552313,-44.51375,-35.40376,16.35746
44.135922909,-0.1156041,-0.01519001,0.3009716,1.005031,0.09891172,-0.0145929,-44.51375,-35.40376,16.35746
44.145779133,-0.3019518,0.04431894,0.3622746,1.00455,0.1047687,-0.008786233,-44.51375,-35.40376,16.35746
44.15563488,-0.3019518,0.2228457,0.2396686,1.004422,0.1061968,-0.01691875,-44.51375,-35.40376,16.35746
44.165490627,-0.4882995,0.1633368,0.1170626,1.002979,0.104726,-0.01643139,-44.88748,-35.39944,16.35939
44.175346851,-0.4882995,0.3418636,0.2396686,1.001026,0.1027569,-0.01785777,-44.88748,-35.39944,16.35939
44.185202599,-0.5504155,0.2228457,-0.005543374,0.9971076,0.1032091,-0.01779811,-44.88748,-35.39944,16.35939
44.195058823,-0.6125314,0.4608815,-0.005543374,1.001074,0.09984116,-0.01692466,-44.88748,-35.39944,16.35939
44.20491457,-0.3019518,0.4013725,-0.005543374,0.9990292,0.1017517,-0.02167139,-44.88748,-35.39944,16.35939
44.217234612,-0.1156041,0.5203904,-0.005543374,1.002968,0.1017936,-0.01981038,-44.89146,-35.77917,15.53098
44.227090359,0.1328596,0.5203904,-0.1894524,0.9981211,0.09639258,-0.02122447,-44.89146,-35.77917,15.53098
44.236946583,0.0707436700000002,0.758426100000002,-0.0668463699999999,0.9971466,0.09882615,-0.01879405,-44.89146,-35.77917,15.53098
44.24680233,0.1328596,0.4013725,-0.1281494,1.002088,0.09790718,-0.01599704,-44.89146,-35.77917,15.53098
44.256658077,-0.1156041,0.4608815,-0.005543374,1.004018,0.09791697,-0.01794127,-44.89146,-35.77917,15.53098
44.266514301,0.1328596,0.4013725,0.05575962,0.9985719,0.1012682,-0.01975215,-44.13525,-35.77087,16.74338
44.276370049,0.1949755,0.4608815,0.05575962,1.002025,0.09935392,-0.01933833,-44.13525,-35.77087,16.74338
44.286226273,0.0707436700000002,0.2228457,0.2396686,1.000002,0.1027353,-0.02119776,-44.13525,-35.77087,16.74338
44.29608202,0.1328596,0.2823547,0.1783656,0.9961315,0.1002717,-0.02020498,-44.13525,-35.77087,16.74338
44.305937767,0.0707436700000002,0.1038279,-0.005543374,0.994665,0.1007472,-0.01970087,-44.13525,-35.77087,16.74338
44.315793991,-0.17772,0.1038279,0.1783656,1.001098,0.09838329,-0.0164581,-44.51174,-35.7719,16.36123
44.325649738,-0.6125314,0.1038279,0.1783656,0.995131,0.1026978,-0.01969105,-44.51174,-35.7719,16.36123
44.335505962,-0.798879099999998,0.04431894,0.05575962,1.005445,0.1013359,-0.01793275,-44.51174,-35.7719,16.36123
44.34536171,-0.860995099999998,-0.1342079,0.1170626,1.00445,0.098393,-0.02177699,-44.51174,-35.7719,16.36123
44.355217457,-0.5504155,-0.1937168,-0.1281494,1.013287,0.09945663,-0.01853958,-44.51174,-35.7719,16.36123
44.365073681,-0.6125314,-0.1342079,0.1170626,1.009331,0.1003861,-0.02087134,-44.51973,-35.41534,15.52528
44.377392769,-0.2398359,-0.3127347,-0.1281494,1.003089,0.09596948,-0.01602766,-44.51973,-35.41534,15.52528
44.387248516,0.00862774800000002,-0.1342079,0.05575962,1.002597,0.09401143,-0.01795397,-44.51973,-35.41534,15.52528
44.39710474,0.3192073,0.04431894,-0.1894524,1.001073,0.09935274,-0.01740797,-44.51973,-35.41534,15.52528
44.406960487,0.1949755,0.1038279,0.1170626,0.9989504,0.101241,-0.02790417,-44.51973,-35.41534,15.52528
44.416816712,0.0707436700000002,0.2228457,0.3009716,0.9991478,0.09836794,-0.01595124,-44.51651,-35.4091,15.97338
44.426672459,0.3813232,0.4013725,0.3622746,1.000092,0.09739038,-0.01932735,-44.51651,-35.4091,15.97338
44.436528206,0.2570914,0.2823547,0.4235776,1.000096,0.100321,-0.01642748,-44.51651,-35.4091,15.97338
44.44638443,0.1328596,0.2823547,0.4848806,0.9995407,0.1037153,-0.01830771,-44.51651,-35.4091,15.97338
44.456240177,0.0707436700000002,0.3418636,0.607486600000001,0.9975893,0.1027231,-0.01876747,-44.51651,-35.4091,15.97338
44.466096401,0.00862774800000002,0.2823547,0.4848806,1.001595,0.09985475,-0.01453598,-45.26719,-35.4067,15.52914
44.475952149,-0.17772,0.2823547,0.4235776,0.9976501,0.09981103,-0.01687612,-45.26719,-35.4067,15.52914
44.485807896,-0.05348817,0.2228457,0.5461836,0.9975706,0.1032059,-0.01972153,-45.26719,-35.4067,15.52914
44.49566412,0.0707436700000002,0.2228457,0.2396686,0.997172,0.1027392,-0.0134902,-45.26719,-35.4067,15.52914
44.505519867,0.0707436700000002,0.1038279,0.4235776,0.9981262,0.09981163,-0.0178413,-45.26719,-35.4067,15.52914
44.515376091,0.3192073,-0.01519001,0.1170626,1.004975,0.1008488,-0.01697176,-44.88824,-35.77293,15.97908
44.525231838,0.0707436700000002,-0.01519001,0.1783656,1.000124,0.1013053,-0.01354437,-44.88824,-35.77293,15.97908
44.535088062,0.0707436700000002,-0.2532257,0.1170626,1.003995,0.09986328,-0.01792451,-44.88824,-35.77293,15.97908
44.54494381,-0.2398359,-0.3127347,-0.005543374,1.003492,0.1032725,-0.01597177,-44.88824,-35.77293,15.97908
44.557263851,-0.17772,-0.4317526,0.2396686,1.000635,0.09887484,-0.01405137,-44.88824,-35.77293,15.97908
44.567119598,-0.17772,-0.5507704,0.1783656,1.004076,0.1018393,-0.0102418,-44.51776,-34.66746,16.34992
44.576975346,-0.17772,-0.3722436,0.2396686,0.9996173,0.1027607,-0.01352487,-44.51776,-34.66746,16.34992
44.58683157,-0.17772,-0.3722436,0.2396686,1.0017,0.0954904,-0.0107407,-44.51776,-34.66746,16.34992
44.596687317,0.0707436700000002,-0.3722436,0.3009716,0.9995725,0.0988421,-0.02026609,-44.51776,-34.66746,16.34992
44.606543541,0.1949755,-0.3127347,0.1783656,0.9942677,0.09246924,-0.02024427,-44.51776,-34.66746,16.34992
44.616399288,0.3192073,-0.3127347,0.3622746,0.9976494,0.0993226,-0.01735943,-44.5145,-35.77725,15.97715
44.626255035,0.1328596,-0.1937168,0.05575962,1.001601,0.09887974,-0.01502348,-44.5145,-35.77725,15.97715
44.636111259,0.00862774800000002,-0.0746989500000001,0.2396686,1.004481,0.1018195,-0.01647732,-44.5145,-35.77725,15.97715
44.645967007,-0.1156041,-0.0746989500000001,0.1170626,1.002106,0.09693588,-0.0155263,-44.5145,-35.77725,15.97715
44.655823231,-0.1156041,-0.0746989500000001,0.2396686,1.01091,0.09701336,-0.01565111,-44.5145,-35.77725,15.97715
44.665678501,-0.3640677,-0.1342079,0.1170626,1.007902,0.1003843,-0.0179758,-44.51651,-35.4091,15.97338
44.675534248,-0.1156041,-0.0746989500000001,0.2396686,1.009974,0.09506401,-0.01421663,-44.51651,-35.4091,15.97338
44.685389996,0.1328596,-0.3127347,0.1783656,0.9996455,0.09983939,-0.01402912,-44.51651,-35.4091,15.97338
44.69524622,0.3192073,-0.3127347,0.1170626,1.00506,0.09696727,-0.01413053,-44.51651,-35.4091,15.97338
44.705101967,0.3813232,-0.1937168,0.1783656,0.999733,0.09742321,-0.009737965,-44.51651,-35.4091,15.97338
44.714958191,0.505555,-0.2532257,0.1783656,0.9894572,0.09830783,-0.009104844,-44.14078,-35.78156,15.97521
44.727277756,0.505555,-0.2532257,0.05575962,0.9981399,0.09590972,-0.02027042,-44.14078,-35.78156,15.97521
44.73713398,0.3192073,-0.1937168,0.05575962,0.9937359,0.09879974,-0.01778726,-44.14078,-35.78156,15.97521
44.746989727,0.1949755,-0.2532257,0.1170626,0.9991174,0.09982395,-0.01689692,-44.14078,-35.78156,15.97521
44.756845951,0.2570914,-0.4317526,0.05575962,1.000619,0.09642896,-0.01742617,-44.14078,-35.78156,15.97521
44.766701698,0.00862774800000002,-0.3722436,-0.005543374,0.9975604,0.1007619,-0.02261721,-44.14203,-35.03992,16.35176
44.776557445,-0.05348817,-0.2532257,0.1170626,1.005408,0.1023017,-0.01984086,-44.14203,-35.03992,16.35176
44.78641367,-0.17772,-0.3722436,-0.005543374,1.00886,0.09941047,-0.02039366,-44.14203,-35.03992,16.35176
44.796269417,-0.17772,-0.3722436,0.1170626,1.003989,0.0959558,-0.021791,-44.14203,-35.03992,16.35176
44.806125641,0.00862774800000002,-0.3722436,0.2396686,1.003031,0.1003468,-0.01646909,-44.14203,-35.03992,16.35176
44.815981388,-0.1156041,-0.3722436,0.3009716,1.004052,0.09841469,-0.01506235,-44.88271,-35.76224,16.74724
44.825837135,0.00862774800000002,-0.3127347,0.3009716,0.9996317,0.09495319,-0.01934136,-44.88271,-35.76224,16.74724
44.835693359,0.00862774800000002,-0.4317526,0.3622746,1.000917,0.1037022,-0.02503623,-44.88271,-35.76224,16.74724
44.845549107,0.00862774800000002,-0.4912615,0.2396686,0.9956612,0.09978453,-0.01924399,-44.88271,-35.76224,16.74724
44.855405331,0.2570914,-0.610279400000001,0.3009716,0.9967256,0.1007942,-0.01206265,-44.88271,-35.76224,16.74724
44.865261078,0.2570914,-0.729297200000001,0.1783656,0.9996585,0.09984311,-0.01307088,-44.51651,-35.4091,15.97338
44.875116825,0.1328596,-0.7888062,0.1170626,0.9981747,0.1017784,-0.0125542,-44.51651,-35.4091,15.97338
44.884973049,0.2570914,-0.848315099999997,0.05575962,0.9987137,0.1003322,-0.01017809,-44.51651,-35.4091,15.97338
44.897293091,-0.05348817,-0.907824,-0.1894524,0.9996918,0.1003408,-0.01019195,-44.51651,-35.4091,15.97338
44.907148838,-0.17772,-1.026842,-0.1894524,1.002454,0.1022703,-0.02123662,-44.51651,-35.4091,15.97338
44.917004585,-0.17772,-0.967332999999999,-0.1281494,1.003547,0.09694137,-0.01746359,-44.5145,-35.77725,15.97715
44.926860809,-0.3019518,-1.026842,-0.1281494,1.002125,0.09645301,-0.01457224,-44.5145,-35.77725,15.97715
44.936716557,-0.2398359,-0.907824,-0.005543374,1.002514,0.09935822,-0.01934526,-44.5145,-35.77725,15.97715
44.946572781,0.00862774800000002,-0.7888062,-0.005543374,1.000056,0.09933299,-0.02026884,-44.5145,-35.77725,15.97715
44.956428528,-0.1155759,-0.5500413,-0.1280076,1.003503,0.09790523,-0.01985082,-44.5145,-35.77725,15.97715
44.966284275,0.1951293,-0.4303887,-0.1278661,1.001608,0.09497598,-0.01793173,-44.51006,-36.07869,16.36437
44.976140499,0.38131,-0.1919619,0.05599168,1.006035,0.09892777,-0.01269028,-44.51006,-36.07869,16.36437
44.985996246,0.3808505,-0.0727589700000001,0.05599838,1.005054,0.09305979,-0.01799702,-44.51006,-36.07869,16.36437
44.99585247,0.5667394,0.1651439,0.1785148,1.00797,0.09796254,-0.01512201,-44.51006,-36.07869,16.36437
45.005708218,0.3797773,0.343538,0.1783291,1.004146,0.09600037,-0.01029207,-44.51006,-36.07869,16.36437
45.015563488,0.3169894,0.283691,0.3618215,1.001556,0.09935518,-0.01789403,-44.89024,-35.40478,15.97531
45.025419235,0.3165522,0.3429371,0.2387803,0.9996144,0.100807,-0.01545811,-44.89024,-35.40478,15.97531
45.035275459,0.0677299600000001,0.1641104,0.5449569,1.000593,0.1008156,-0.01547198,-44.89024,-35.40478,15.97531
45.045131207,-0.2428176,0.2234505,0.2380077,0.9962118,0.1017593,-0.01300558,-44.89024,-35.40478,15.97531
45.054987431,-0.1183783,-0.0742813600000003,0.2990118,1.001143,0.09839629,-0.01310425,-44.89024,-35.40478,15.97531
45.067306995,-0.1181925,0.1042125,0.2372201,0.9961944,0.09882496,-0.01686369,-44.88949,-35.03129,16.35562
45.077163219,0.1922429,0.1635906,0.1755036,0.999155,0.09885822,-0.01498881,-44.88949,-35.03129,16.35562
45.087018967,0.2540393,-0.0745758800000001,0.1751677,1.000075,0.09885012,-0.01931478,-44.88949,-35.03129,16.35562
45.096875191,0.2537007,-0.2529903,0.1750824,1.003066,0.09742735,-0.01649422,-44.88949,-35.03129,16.35562
45.106730938,0.3155175,-0.3717091,-0.008988686,1.001533,0.1017899,-0.01739396,-44.88949,-35.03129,16.35562
45.116586685,0.4393335,-0.1333373,0.05215233,1.003985,0.1018133,-0.01694951,-44.89024,-35.40478,15.97531
45.126442909,0.3767048,-0.192548,-0.00925468699999997,1.001015,0.09982445,-0.02123676,-44.89024,-35.40478,15.97531
45.136298656,0.4383085,-0.4897574,0.1745504,0.9961995,0.102244,-0.01348052,-44.89024,-35.40478,15.97531
45.146154881,0.0653160699999998,-0.370143,0.2356149,0.998192,0.1003186,-0.01256676,-44.89024,-35.40478,15.97531
45.156010628,-0.0588417299999998,-0.3696221,0.2965449,0.9986298,0.1007965,-0.01592337,-44.89024,-35.40478,15.97531
45.165866375,-0.3070949,-0.607025299999998,0.234908,0.9991254,0.1008027,-0.01545118,-44.51604,-36.09027,15.53219
45.175722599,-0.5551533,-0.3683953,0.4184642,1.001022,0.09982631,-0.02075764,-44.51604,-36.09027,15.53219
45.185578346,-0.4923986,-0.3679139,0.2953903,1.004473,0.09693512,-0.02131043,-44.51604,-36.09027,15.53219
45.19543457,-0.305569,-0.3675266,0.2950001,1.003446,0.1032595,-0.01932562,-44.51604,-36.09027,15.53219
45.205290318,-0.1810313,-0.3075373,0.2334421,1.004048,0.09597252,-0.0174789,-44.51604,-36.09027,15.53219
45.215146065,-0.180882,-0.4855096,0.1718651,1.00204,0.1003345,-0.01741346,-44.51852,-35.04095,15.9696
45.225002289,0.1298077,-0.2470696,0.1103463,1.004469,0.09400451,-0.0242103,-44.51852,-35.04095,15.9696
45.237322331,0.5641422,-0.246607,0.2327406,1.0017,0.0954904,-0.0107407,-44.51852,-35.04095,15.9696
45.247178078,0.5014153,-0.1868257,0.2937897,0.9995059,0.1022407,-0.02215326,-44.51852,-35.04095,15.9696
45.257033825,0.1282265,-0.3650805,0.354666,0.9991175,0.104218,-0.01302624,-44.51852,-35.04095,15.9696
45.266890049,0.128007,-0.3646967,0.476865,1.005492,0.1018374,-0.01409558,-44.89346,-35.41102,15.52721
45.276745796,-0.05848205,-0.4832752,0.41504,0.9981566,0.1027497,-0.01302494,-44.89346,-35.41102,15.52721
45.28660202,-0.3068527,-0.4231405,0.2306675,1.003104,0.09695006,-0.0141028,-44.89346,-35.41102,15.52721
45.296457768,-0.182372,-0.3629506,0.1689785,1.001993,0.09934463,-0.02173394,-44.89346,-35.41102,15.52721
45.306313515,-0.1821235,-0.6003622,0.1074055,0.9971517,0.09785113,-0.01928155,-44.89346,-35.41102,15.52721
45.316169739,-0.1817972,-0.5400805,0.1684965,1.001966,0.09884877,-0.02413374,-44.51375,-35.40376,16.35746
45.326025486,0.0668167800000002,-0.420459,-0.07683082,1.002559,0.09448873,-0.0203454,-44.51375,-35.40376,16.35746
45.33588171,0.1288293,-0.3603659,-0.0767150700000002,0.9995695,0.09688836,-0.02219933,-44.51375,-35.40376,16.35746
45.345737457,0.3769751,-0.359932,0.04594879,1.003977,0.1003461,-0.01887857,-44.51375,-35.40376,16.35746
45.355593205,0.4385979,-0.2999523,-0.1993017,1.004007,0.09889013,-0.01793289,-44.51375,-35.40376,16.35746
45.365449429,0.2517383,-0.2996316,-0.0766186099999999,1.002488,0.09886236,-0.02174506,-44.89024,-35.40478,15.97531
45.375305176,0.4997883,-0.3587455,-0.1379024,1.003568,0.09743537,-0.01554291,-44.89024,-35.40478,15.97531
45.3851614,0.4370836,-0.4178412,-0.1991284,1.0035,0.1042512,-0.01452602,-44.89024,-35.40478,15.97531
45.395017147,0.0639562000000001,-0.357714,-0.0763878400000003,1.001618,0.1018141,-0.01116537,-44.89024,-35.40478,15.97531
45.407337189,-0.0603564899999999,-0.416568,0.04614556,0.9971857,0.09883729,-0.01591932,-44.89024,-35.40478,15.97531
45.417192936,-0.1843955,-0.4160634,-0.01529241,0.9990856,0.1003031,-0.01880922,-44.14078,-35.78156,15.97521
45.427048683,-0.1220284,-0.6535205,-0.07659545,1.002165,0.09695259,-0.01121419,-44.14078,-35.78156,15.97521
45.436904907,-0.1218752,-0.5337378,-0.01525401,1.000645,0.09692483,-0.01502637,-44.14078,-35.78156,15.97521
45.446760655,-0.1217026,-0.652029199999999,-0.1991246,0.9996795,0.1008255,-0.01066689,-44.14078,-35.78156,15.97521
45.456616879,-0.1214912,-0.4727582,-0.1376293,1.003542,0.09742794,-0.0174594,-44.14078,-35.78156,15.97521
45.466472626,-0.3076473,-0.4127489,-0.07624966,0.9962877,0.09592221,-0.01257672,-44.14002,-35.40807,16.35553
45.476328373,-0.0588947899999999,-0.1742882,-0.0761731300000001,0.9981717,0.09543056,-0.01835812,-44.14002,-35.40807,16.35553
45.486184597,0.003334122,-0.05520093,0.107716,1.004565,0.09744955,-0.01411941,-44.14002,-35.40807,16.35553
45.496040344,0.1896191,-0.1147527,-0.07617423,1.005505,0.0935414,-0.02039538,-44.14002,-35.40807,16.35553
45.505896568,0.3136908,0.0637313599999998,0.1689986,1.009939,0.09749504,-0.01467481,-44.14002,-35.40807,16.35553
45.515752316,0.2511614,0.0635205099999998,0.1075412,1.011871,0.09457608,-0.01903978,-44.51575,-35.03561,16.35369
45.525608063,0.3129423,0.2417619,0.2300698,1.01083,0.1004083,-0.01849653,-44.51575,-35.03561,16.35369
45.535464287,0.2505309,0.3009859,0.1685356,1.005546,0.09892346,-0.01268335,-44.51575,-35.03561,16.35369
45.545319557,0.1261209,-0.05631492,0.2908722,1.001591,0.1013182,-0.01356517,-44.51575,-35.03561,16.35369
45.555175304,0.2502919,0.3005665,0.3519061,1.001098,0.09887173,-0.01597479,-44.51575,-35.03561,16.35369
45.565031528,0.0637858500000003,0.3001329,0.3514641,0.9972667,0.09641925,-0.01210728,-44.51375,-35.40376,16.35746
45.577351093,0.1257236,0.002079703,0.2283063,0.9921985,0.09974326,-0.02207018,-44.51375,-35.40376,16.35746
45.587207317,0.001431404,0.2398699,0.1666588,0.9918302,0.09342644,-0.01876385,-44.51375,-35.40376,16.35746
45.597063064,0.1877578,0.2991336,0.2277332,0.9976898,0.09591655,-0.01738875,-44.51375,-35.40376,16.35746
45.606919289,0.2495794,0.1798895,0.2274086,0.9971589,0.09834143,-0.01831912,-44.51375,-35.40376,16.35746
45.616775036,0.1870524,0.179757,0.1044977,1.00254,0.09887721,-0.01791209,-44.88656,-36.07972,15.98222
45.626630783,0.1246821,-0.2962973,0.2268185,1.003934,0.09789283,-0.02416986,-44.88656,-36.07972,15.98222
45.636487007,0.0003716238,-0.4744893,0.2879136,1.000903,0.1032101,-0.02647778,-44.88656,-36.07972,15.98222
45.646342754,0.1245055,-0.4145152,0.287706,0.9994705,0.1002777,-0.02648211,-44.88656,-36.07972,15.98222
45.656198978,0.4349286,-0.5923719,0.1036474,1.001564,0.09642828,-0.01983565,-44.88656,-36.07972,15.98222
45.666054726,0.2482687,-0.651117999999998,0.1646662,0.9946824,0.0992875,-0.01971344,-45.26598,-35.03232,15.97347
45.675910473,0.2479179,-0.769149899999998,0.2870076,0.9971293,0.1002859,-0.01878149,-45.26598,-35.03232,15.97347
45.685766697,-0.0008961912,-0.7086188,0.3479116,0.9985662,0.1017548,-0.01974797,-45.26598,-35.03232,15.97347
45.695622444,-0.1873013,-0.707710000000002,0.4087968,1.011752,0.1057711,-0.0179852,-45.26598,-35.03232,15.97347
45.705478668,-0.6215849,-0.706839799999999,0.3469419,1.010254,0.1028201,-0.02278075,-45.26598,-35.03232,15.97347
45.715334415,-0.682822500000001,-0.825044599999999,0.3464099,1.007399,0.09939941,-0.01989373,-44.14078,-35.78156,15.97521
45.725190163,-0.681886899999999,-0.8240083,0.529826,1.005432,0.09693816,-0.02276167,-44.14078,-35.78156,15.97521
45.735046387,-0.3085494,-0.7635952,0.2228765,1.004548,0.09451523,-0.01797752,-44.14078,-35.78156,15.97521
45.747366428,0.0643573200000002,-0.4650574,0.1612814,0.9961756,0.09491377,-0.02168843,-44.14078,-35.78156,15.97521
45.757222176,0.3126816,-0.5239822,0.0998143099999999,0.9918433,0.09343016,-0.01780561,-44.14078,-35.78156,15.97521
45.767077923,0.2501144,-0.2258728,0.0996504600000001,0.9908173,0.0963373,-0.01872485,-44.88748,-35.39944,16.35939
45.776934147,0.001317145,0.01250267,0.2220735,0.995314,0.09884421,-0.00966299,-44.88748,-35.39944,16.35939
45.786789894,0.1253522,-0.2253806,0.2218716,0.9985249,0.1002784,-0.02407263,-44.88748,-35.39944,16.35939
45.796646118,0.2493876,-0.2250601,0.3441412,1.003014,0.102295,-0.01597321,-44.88748,-35.39944,16.35939
45.806501865,0.1248426,-0.2247213,0.4663149,1.010351,0.102848,-0.01559391,-44.88748,-35.39944,16.35939
45.816357613,-0.2477561,-0.3433822,0.465787,1.006491,0.09843436,-0.01557614,-44.89225,-35.03664,15.97154
45.826213837,-0.495772,-0.4619875,0.4653174,1.006938,0.09696221,-0.01990774,-44.89225,-35.03664,15.97154
45.836069584,-0.3088211,-0.2234089,0.342204,1.00892,0.09210436,-0.02237298,-44.89225,-35.03664,15.97154
45.845925808,-0.0601060900000001,-0.3420714,0.4029809,1.000197,0.0940029,-0.01456544,-44.89225,-35.03664,15.97154
45.855781555,0.126122,-0.4011507,0.4027635,0.9947749,0.0958963,-0.01590978,-44.89225,-35.03664,15.97154
45.865637302,0.3743103,-0.1032891,0.1571997,0.9952546,0.08955094,-0.02219976,-44.13726,-35.40272,16.73961
45.875493526,0.4979354,-0.2221024,0.1568867,0.9952865,0.09346586,-0.01641678,-44.13726,-35.40272,16.73961
45.885349274,0.4350966,-0.1029364,0.2179542,0.9957393,0.09541275,-0.0173652,-44.13726,-35.40272,16.73961
45.895205498,0.3723756,-0.16226,0.2177189,1.000222,0.09303346,-0.01361558,-44.13726,-35.40272,16.73961
45.905061245,0.4341018,-0.0430944,0.1561617,1.002094,0.0974206,-0.01600123,-44.13726,-35.40272,16.73961
45.917381287,0.2473652,-0.2810625,0.3396716,1.007075,0.09651276,-0.01032948,-44.88748,-35.39944,16.35939
45.927237034,-0.001253048,0.01661095,0.2779804,1.004491,0.09596382,-0.02083969,-44.88748,-35.39944,16.35939
45.937093258,-0.1873456,-0.04293754,0.2162897,1.007477,0.09942169,-0.01414426,-44.88748,-35.39944,16.35939
45.946949005,-0.1250334,0.2544368,0.2772633,1.00638,0.09840279,-0.02372122,-44.88748,-35.39944,16.35939
45.956804752,-0.2489911,0.1946643,0.09314083,1.0113,0.100407,-0.01994083,-44.88748,-35.39944,16.35939
45.966660976,-0.1866405,0.0753272199999998,-0.02958216,1.003492,0.09497277,-0.02322981,-44.51375,-35.40376,16.35746
45.976516724,-0.0623108300000001,0.1941757,-0.2134347,0.9976934,0.0895706,-0.02271355,-44.51375,-35.40376,16.35746
45.986372948,0.1861531,0.1344976,-0.1518059,0.9951808,0.09245928,-0.02504936,-44.51375,-35.40376,16.35746
45.996228695,0.620594099999998,0.2532531,-0.212822,1.001092,0.09447581,-0.02032459,-44.51375,-35.40376,16.35746
46.006084442,0.744085399999999,0.3718033,-0.1513479,1.002972,0.09984168,-0.0212645,-44.51375,-35.40376,16.35746
46.015940666,0.4948432,0.2522811,0.03263561,1.011727,0.1067405,-0.01893506,-45.25845,-35.38977,16.7454
46.025796413,-0.1887803,0.01385376,0.03263309,1.012584,0.1130617,-0.02224834,-45.25845,-35.38977,16.7454
46.035652637,-0.995601200000002,-0.2835588,0.2777078,1.015679,0.1028805,-0.01950317,-45.25845,-35.38977,16.7454
46.045508385,-1.677216,-0.5211636,0.15483,1.006458,0.09842508,-0.01797175,-45.25845,-35.38977,16.7454
46.055364132,-1.86136,-0.698998399999998,0.2158423,1.001113,0.09106418,-0.02179128,-45.25845,-35.38977,16.7454
46.065220356,-1.238253,-0.698120399999999,0.2768164,0.9928315,0.0958828,-0.0149238,-44.13802,-35.77622,16.3593
46.075076103,-0.615791999999999,-0.994545300000002,0.153959,0.9869219,0.09044907,-0.02255262,-44.13802,-35.77622,16.3593
46.084932327,-0.3666914,-1.052768,0.09246264,0.9859922,0.0924072,-0.01725165,-44.13802,-35.77622,16.3593
46.097251892,-0.179885,-0.991550000000001,0.09231751,0.9858758,0.09725627,-0.02152186,-44.13802,-35.77622,16.3593
46.107108116,-0.0555248,-1.168682,0.2148075,0.9932498,0.09635511,-0.01971776,-44.13802,-35.77622,16.3593
46.116963863,-0.05557209,-0.929252899999999,0.1533503,0.9985704,0.09589732,-0.02458946,-44.88271,-35.76224,16.74724
46.126820087,0.3170176,-0.928104400000002,0.2144607,1.003492,0.09887839,-0.01984244,-44.88271,-35.76224,16.74724
46.136675835,-0.05586144,-0.8079208,0.2142298,1.00444,0.1008315,-0.02031868,-44.88271,-35.76224,16.74724
46.146531582,-0.1178877,-0.985432899999998,-0.1537417,1.003568,0.09743537,-0.01554291,-44.88271,-35.76224,16.74724
46.156387806,-0.1176616,-0.9248543,-0.1536064,1.002438,0.1003128,-0.02412811,-44.88271,-35.76224,16.74724
46.166243553,0.006640026,-0.804712199999999,-0.3984906,1.00589,0.09791005,-0.02419759,-44.51651,-35.4091,15.97338
46.176099777,0.5034029,-0.625174599999998,-0.581841300000001,1.002928,0.1008055,-0.02365173,-44.51651,-35.4091,15.97338
46.185955524,0.4406742,-0.4458253,-0.5199037,0.9969897,0.1026872,-0.02690562,-44.51651,-35.4091,15.97338
46.195811272,0.1297167,-0.4453027,-0.580496,0.9974896,0.105624,-0.02353356,-44.51651,-35.4091,15.97338
46.205667496,-0.5534286,-0.444706,-0.579632000000002,1.004773,0.1095793,-0.02408319,-44.51651,-35.4091,15.97338
46.215523243,-0.987408200000002,-0.5035816,-0.578846300000003,1.00772,0.108632,-0.02413318,-44.5145,-35.77725,15.97715
46.225379467,-1.607034,-0.621854799999998,-0.8232542,1.013205,0.1052919,-0.01944756,-44.5145,-35.77725,15.97715
46.235235214,-1.356591,-0.680582600000002,-0.761051899999998,1.010757,0.1033166,-0.02134613,-44.5145,-35.77725,15.97715
46.245090962,-1.292732,-0.798540100000002,-0.637644100000001,1.008734,0.1023039,-0.02707624,-44.5145,-35.77725,15.97715
46.254947186,-0.980626700000001,-0.738046899999998,-0.698049799999999,1.006799,0.1037576,-0.0241612,-44.5145,-35.77725,15.97715
46.267267227,-0.730740800000001,-1.034283,-0.880689800000003,0.9998858,0.1031903,-0.02933865,-44.89149,-34.66314,16.35185
46.277122974,-0.916209700000001,-1.330492,-0.818396100000002,0.9979982,0.1012398,-0.02597381,-44.89149,-34.66314,16.35185
46.286978722,-0.790983199999999,-1.626272,-0.694858400000002,0.9971814,0.1003007,-0.01494851,-44.89149,-34.66314,16.35185
46.296834946,-0.914084899999999,-1.564832,-0.6326634,0.993304,0.09783527,-0.01443485,-44.89149,-34.66314,16.35185
46.306690693,-0.913014799999999,-1.622207,-0.5705851,0.9879096,0.09241328,-0.02015412,-44.89149,-34.66314,16.35185
46.316546917,-0.5393676,-2.096055,-0.4472816,0.9918417,0.08805922,-0.0226429,-44.88824,-35.77293,15.97908
46.326402664,-0.1660922,-2.033838,-0.4467391,0.990402,0.09342467,-0.01586831,-44.88824,-35.77293,15.97908
46.336258411,-0.1659226,-2.209736,-0.3849134,0.9909084,0.09196924,-0.01588781,-44.88824,-35.77293,15.97908
46.346114636,-0.4141389,-2.385487,-0.690887200000002,0.9997278,0.0896101,-0.01699182,-44.88824,-35.77293,15.97908
46.355970383,-0.165077,-2.322944,-0.6286972,1.003622,0.09452146,-0.01413068,-44.88824,-35.77293,15.97908
46.365826607,-0.0405793,-1.963104,-0.872984699999998,1.010041,0.09166539,-0.01232947,-44.51099,-35.39841,16.74154
46.375682354,0.02150959,-1.960451,-0.933326,1.016316,0.09316251,-0.01719827,-44.51099,-35.39841,16.74154
46.385538101,-0.04067237,-1.839083,-0.748341000000001,1.015016,0.09173257,-0.00617022,-44.51099,-35.39841,16.74154
46.395394325,-0.3511423,-1.539378,-0.808569199999998,1.011497,0.09265146,-0.01234189,-44.51099,-35.39841,16.74154
46.405250073,-0.4128367,-1.359067,-0.623644599999998,1.01113,0.08779992,-0.007585622,-44.51099,-35.39841,16.74154
46.415106297,-0.2880473,-1.059983,-0.5615776,1.00866,0.08435379,-0.0123715,-44.13634,-36.08301,16.36244
46.424962044,-0.03922188,-0.642164200000002,-0.3770595,1.004729,0.08529066,-0.01278676,-44.13634,-36.08301,16.36244
46.437282086,0.5196488,0.0728762399999999,-0.0701836199999998,1.007234,0.08093482,-0.01238001,-44.13634,-36.08301,16.36244
46.447137833,0.767440200000001,0.4893472,0.4200782,1.006681,0.08237727,-0.01571437,-44.13634,-36.08301,16.36244
46.45699358,0.890727599999998,0.964542400000003,0.4196661,1.004648,0.08331463,-0.02046948,-44.50974,-36.14005,16.365
46.466849804,1.3864,1.617518,0.664197000000001,1.009021,0.08090377,-0.02486493,-44.50974,-36.14005,16.365
46.476705551,1.570986,1.674939,0.969781300000001,1.010478,0.08335514,-0.02342742,-44.50974,-36.14005,16.365
46.486561775,1.693148,2.208023,0.846014999999999,1.009045,0.08823401,-0.01665702,-44.50974,-36.14005,16.365
46.496417523,1.566828,2.383664,0.599663400000002,1.011005,0.09069341,-0.0142682,-44.50974,-36.14005,16.365
46.50627327,1.378668,2.32118,0.7212273,1.006111,0.08430256,-0.02000278,-44.50974,-36.14005,16.365
46.516129494,1.439052,2.199378,0.5363548,1.004591,0.08378636,-0.02429827,-44.14002,-35.40807,16.35553
46.525985241,1.68565,2.018126,0.4743973,1.00465,0.0842915,-0.01950285,-44.14002,-35.40807,16.35553
46.535841465,2.118071,2.015385,0.3512147,0.9991013,0.08907838,-0.02752977,-44.14002,-35.40807,16.35553
46.545697212,2.550027,2.131872,0.3509084,0.9994841,0.09198172,-0.03278191,-44.14002,-35.40807,16.35553
46.555552959,2.857189,2.01027,0.4118668,0.9985241,0.09100182,-0.0322973,-44.14002,-35.40807,16.35553
46.565409183,3.163946,1.948198,0.4726718,0.9949595,0.1011843,-0.03359816,-44.51651,-35.4091,15.97338
46.575264931,2.849411,1.648356,0.4107943,1.000304,0.1080567,-0.03026194,-44.51651,-35.4091,15.97338
46.585121155,2.286867,1.586777,0.777826799999998,0.9978542,0.1051046,-0.03312713,-44.51651,-35.4091,15.97338
46.594976902,1.539014,1.168389,0.7767343,1.001159,0.1085185,-0.03889582,-44.51651,-35.4091,15.97338
46.607296944,1.102274,0.869216100000001,1.020457,1.003183,0.1056255,-0.03655308,-44.88748,-35.39944,16.35939
46.617152691,0.976833299999998,0.749162600000002,0.957930499999998,0.9924721,0.09919786,-0.03837147,-44.88748,-35.39944,16.35939
46.627008915,1.348165,0.569863,0.956688799999998,0.991881,0.1050232,-0.04070988,-44.88748,-35.39944,16.35939
46.636864662,1.408568,0.3907887,0.8328812,0.9902924,0.1108344,-0.04447179,-44.88748,-35.39944,16.35939
46.646720409,1.40678,0.03339376,0.647926099999998,0.9923406,0.111366,-0.0373085,-44.88748,-35.39944,16.35939
46.656576633,0.970435299999998,-0.4425141,0.4633957,0.990026,0.107476,-0.03107875,-44.88548,-35.76759,16.36316
46.666432381,0.658909999999998,-1.096183,0.2177365,0.9885898,0.1064955,-0.02962896,-44.88548,-35.76759,16.36316
46.676288605,0.720295699999999,-1.629994,-0.02757567,0.9910598,0.1055476,-0.02871376,-44.88548,-35.76759,16.36316
46.686144352,1.216162,-2.103925,-0.0888440100000002,0.9930509,0.1026454,-0.02876663,-44.88548,-35.76759,16.36316
46.696000099,1.525136,-2.339206,-0.1499776,0.9911684,0.1041139,-0.02201862,-44.88548,-35.76759,16.36316
46.705856323,1.274776,-2.63355,-0.1499048,0.995895,0.1075277,-0.03116196,-44.88548,-35.76759,16.36316
46.71571207,0.838441899999997,-2.9276,0.2791734,1.000861,0.1100333,-0.02354441,-44.88347,-36.13573,16.36693
46.725568294,0.09232949,-3.102263,0.462674,0.9973602,0.1148634,-0.02489134,-44.88347,-36.13573,16.36693
46.735424042,-0.839057000000002,-3.217384,0.768357600000001,1.002856,0.1139673,-0.01731005,-44.88347,-36.13573,16.36693
46.745279789,-1.396871,-3.153928,1.073753,1.007249,0.1081448,-0.02317219,-44.88347,-36.13573,16.36693
46.755136013,-1.581327,-2.852459,1.194991,1.010174,0.106215,-0.02562616,-44.88347,-36.13573,16.36693
46.76499176,-1.641301,-2.78933,1.19351,1.010776,0.1033222,-0.01990876,-44.13249,-35.76553,17.12746
46.777311802,-1.390397,-2.844329,1.068953,1.008857,0.1023392,-0.01797291,-44.13249,-35.76553,17.12746
46.787167549,-0.767823500000001,-2.543287,0.945023800000001,1.002096,0.0988859,-0.0145513,-44.13249,-35.76553,17.12746
46.797023773,-0.580628300000001,-2.421149,0.821327099999999,1.004015,0.09596323,-0.01987451,-44.13249,-35.76553,17.12746
46.80687952,-0.331494,-2.001657,0.5752183,1.003544,0.09889325,-0.01600947,-45.26121,-35.39512,16.36132
46.816735744,-0.3933106,-1.880182,0.5132121,1.000562,0.1017832,-0.01690097,-45.26121,-35.39512,16.36132
46.826591492,-0.3928751,-1.580481,0.5738897,1.001561,0.1027742,-0.01451085,-45.26121,-35.39512,16.36132
46.836447239,-0.3302267,-1.34046,0.4506206,0.9987274,0.1008244,-0.00873653,-45.26121,-35.39512,16.36132
46.846303463,-0.2056191,-1.160399,0.5726029,1.013774,0.1023897,-0.01612577,-45.26121,-35.39512,16.36132
46.85615921,-0.3296512,-0.5642635,0.3880709,1.008356,0.1028196,-0.01844091,-44.50898,-35.76656,16.74531
46.866015434,-0.1429869,0.03127291,0.3262035,1.01362,0.1038104,-0.02617477,-44.50898,-35.76656,16.74531
46.875871181,-0.3909979,0.5070808,0.5707747,1.011649,0.1067183,-0.02468453,-44.50898,-35.76656,16.74531
46.885726929,-0.3283519,1.041707,0.3250191,1.015551,0.1038202,-0.028119,-44.50898,-35.76656,16.74531
46.895583153,0.04473655,1.040305,0.0795336700000001,1.002988,0.09789351,-0.02176038,-44.50898,-35.76656,16.74531
46.9054389,0.1687951,1.098526,-0.2270619,1.003052,0.09693521,-0.01793578,-44.50898,-35.76656,16.74531
46.915295124,0.1685441,1.096978,-0.5331569,1.002174,0.09451412,-0.01267251,-44.89024,-35.40478,15.97531
46.925150871,0.2301947,1.095525,-0.593693999999999,1.002108,0.09840118,-0.01407636,-44.89024,-35.40478,15.97531
46.935006618,0.4160973,1.213055,-1.021665,0.9996794,0.09643149,-0.01453757,-44.89024,-35.40478,15.97531
46.94732666,0.6016358,1.032792,-1.142629,0.992781,0.1012389,-0.01391947,-44.89024,-35.40478,15.97531
46.957183361,0.352514,0.734136799999999,-1.018684,0.9946694,0.1036778,-0.016801,-44.51174,-35.7719,16.36123
46.967039108,-0.1447195,0.5548375,-1.201275,0.9936506,0.09828716,-0.02449917,-44.51174,-35.7719,16.36123
46.976895332,-0.330788,0.613780300000003,-0.9548426,0.9962515,0.09347075,-0.01738889,-44.51174,-35.7719,16.36123
46.98675108,-0.578680000000001,0.672555600000001,-0.769849799999998,0.9970337,0.09293522,-0.03225974,-44.51174,-35.7719,16.36123
46.996607304,0.1050097,0.671748299999999,-0.5849932,1.00093,0.09101219,-0.03520671,-44.51174,-35.7719,16.36123
47.006463051,0.4774367,0.670867100000003,-0.2778397,1.003433,0.09446762,-0.02802522,-44.51174,-35.7719,16.36123
47.016318798,0.4766615,0.729383900000002,-0.1549039,1.009224,0.1027967,-0.02659986,-44.51174,-35.7719,16.36123
47.026175022,0.2276772,0.609524700000001,-0.03227669,1.008237,0.1013209,-0.02851504,-44.51174,-35.7719,16.36123
47.036030769,-0.3312814,0.608852599999998,0.0902928400000002,1.006787,0.1003367,-0.0280235,-44.51174,-35.7719,16.36123
47.045886993,-0.765403600000002,0.6083121,0.0901409099999999,1.005319,0.09983534,-0.02848601,-44.51174,-35.7719,16.36123
47.055742741,-0.640366399999999,0.250644,0.0900662000000002,1.003419,0.09788109,-0.02607941,-45.26321,-35.02697,16.35755
47.065598488,-0.4531168,0.1313113,-0.2164079,1.002444,0.1003147,-0.02364899,-45.26321,-35.02697,16.35755
47.075454712,-0.762854100000001,0.01225933,-0.2161938,0.9931905,0.09584997,-0.02451318,-45.26321,-35.02697,16.35755
47.085310459,-1.010203,-0.2255675,-0.399812,0.9966278,0.09637224,-0.02312016,-45.26321,-35.02697,16.35755
47.095166683,-1.195185,-0.4632639,-0.2767038,0.9976573,0.09590727,-0.01978436,-45.26321,-35.02697,16.35755
47.10502243,-1.317779,-0.2841739,-0.3375823,0.9950904,0.09731578,-0.02740308,-45.26321,-35.02697,16.35755
47.117342472,-1.067305,-0.521558,-0.2757108,1.004932,0.09351295,-0.02661704,-44.88548,-35.76759,16.36316
47.127198219,-0.941810700000002,-0.8182046,-0.275403,1.007877,0.09207719,-0.02715033,-44.88548,-35.76759,16.36316
47.137054443,-0.816415500000002,-0.816952599999998,-0.0913406300000001,1.005018,0.08572584,-0.02716318,-44.88548,-35.76759,16.36316
47.146910191,-0.3807347,-0.815833,-0.1525866,0.9996756,0.08080713,-0.02856616,-44.88548,-35.76759,16.36316
47.156765938,0.5510921,-0.636393699999998,0.03137924,0.9991866,0.08080283,-0.02855922,-44.88548,-35.76759,16.36316
47.166622162,1.171149,-0.3382179,0.0926620800000002,0.9977656,0.08129135,-0.02470125,-44.88548,-35.76759,16.36316
47.176477909,1.852524,-0.2187378,0.1538872,0.9927837,0.09001043,-0.02359826,-44.88548,-35.76759,16.36316
47.186334133,1.539579,-0.3970086,0.0925064199999998,0.9967781,0.08811526,-0.01935839,-44.88548,-35.76759,16.36316
47.19618988,0.978816300000002,0.01984708,0.0923709700000002,0.9943862,0.0846914,-0.0183948,-44.88548,-35.76759,16.36316
47.206045628,0.6671439,-0.03961203,0.2147839,1.004052,0.09011501,-0.02232039,-44.51099,-35.39841,16.74154
47.215901852,0.604189999999998,0.1983987,0.7047455,1.009916,0.09114167,-0.0219161,-44.51099,-35.39841,16.74154
47.225757599,0.04442689,0.01986565,1.010202,1.014289,0.09751892,-0.0185702,-44.51099,-35.39841,16.74154
47.235613823,-0.7007272,-0.3370634,1.315333,1.017152,0.09752433,-0.02388215,-44.51099,-35.39841,16.74154
47.24546957,-1.506964,-0.693375900000003,1.497512,1.013324,0.09360841,-0.02098545,-44.51099,-35.39841,16.74154
47.255325317,-1.318704,-0.573580600000001,1.495651,1.011931,0.08678153,-0.02150242,-44.88748,-35.39944,16.35939
47.265181542,-0.1993902,-0.3348804,1.554979,1.008923,0.08526997,-0.02818109,-44.88748,-35.39944,16.35939
47.275037289,0.980457899999999,-0.03698992,1.614194,1.007308,0.09546779,-0.02998881,-44.88748,-35.39944,16.35939
47.284893513,1.289611,-0.09635895,1.734734,0.9993888,0.1066014,-0.02690678,-44.88748,-35.39944,16.35939
47.297213078,0.4183148,-0.2150947,1.915766,0.9988521,0.1095128,-0.02783296,-44.88748,-35.39944,16.35939
47.307069302,-0.699848400000001,-0.5122945,1.974586,1.001394,0.1041913,-0.0255181,-44.13726,-35.40272,16.73961
47.316925049,-1.319855,-0.5117071,2.217182,1.002521,0.1037541,-0.01499546,-44.13726,-35.40272,16.73961
47.326781273,-1.814871,-0.689479099999998,2.336907,1.002619,0.0954823,-0.01506667,-44.13726,-35.40272,16.73961
47.33663702,-1.812533,-0.985933299999999,2.150063,0.9971806,0.09981231,-0.01543182,-44.13726,-35.40272,16.73961
47.346492767,-1.499677,-1.04426,1.963492,0.9932641,0.08854757,-0.02553425,-44.13726,-35.40272,16.73961
47.356348991,-0.690637600000001,-0.745515799999998,1.838535,0.9933342,0.08759112,-0.02123053,-44.88949,-35.03129,16.35562
47.366204739,0.1174051,-0.5660152,1.713716,0.9916581,0.09581849,-0.0292836,-44.88949,-35.03129,16.35562
47.376060963,0.738065499999999,-0.624794600000002,1.405299,0.9945869,0.1007249,-0.02545034,-44.88949,-35.03129,16.35562
47.38591671,0.613101800000002,-0.5645196,1.097308,0.9926117,0.1055847,-0.02250598,-44.88949,-35.03129,16.35562
47.395772457,-0.194746,-0.44483,0.912059099999999,1.002836,0.1095677,-0.02261809,-44.88949,-35.03129,16.35562
47.405628681,-0.877366699999998,-0.5039111,0.972255000000002,1.011222,0.1047788,-0.02181962,-44.51375,-35.40376,16.35746
47.415484429,-1.186591,-0.02750572,0.4808987,1.013206,0.09699218,-0.0267056,-44.51375,-35.40376,16.35746
47.425340653,-0.750542499999998,-0.0868492700000002,0.2351597,1.007697,0.09349051,-0.03911582,-44.51375,-35.40376,16.35746
47.4351964,0.2438256,-0.02728734,0.1122776,1.006824,0.08570035,-0.03821073,-44.51375,-35.40376,16.35746
47.445052147,1.050461,0.03225588,-0.2554889,1.004864,0.09642313,-0.02898752,-44.51375,-35.40376,16.35746
47.454908371,1.235216,0.1511772,-0.5002837,1.005875,0.09644103,-0.02660577,-45.26121,-35.39512,16.36132
47.467227936,0.612429699999999,0.03201543,-0.989710600000001,1.003282,0.1066302,-0.02839963,-45.26121,-35.39512,16.36132
47.47708416,0.2391991,0.03195651,-1.049828,0.9984258,0.1036677,-0.02835541,-45.26121,-35.39512,16.36132
47.486940861,-0.1955811,0.0913879000000002,-1.171039,0.997886,0.1002314,-0.03508551,-45.26121,-35.39512,16.36132
47.496796608,-0.505798,-0.2060847,-1.230929,0.9950441,0.09681435,-0.03124025,-45.26121,-35.39512,16.36132
47.506652355,-0.3188344,-0.2057884,-1.290647,0.9878047,0.0962892,-0.02443271,-45.26121,-35.39512,16.36132
47.516508579,-0.2563376,-0.2055673,-1.288968,0.9920921,0.09824825,-0.03118608,-45.26121,-35.39512,16.36132
47.526364327,-0.3180535,-0.0864594699999999,-1.409859,0.9914339,0.1025897,-0.03976564,-45.26121,-35.39512,16.36132
47.536220551,-0.3799259,-0.0862948100000001,-1.530655,1.002228,0.1036706,-0.03655597,-45.26121,-35.39512,16.36132
47.546076298,-0.3794877,-0.4431279,-1.52881,0.9983426,0.1046204,-0.03361738,-45.26121,-35.39512,16.36132
47.555932045,-0.5652027,-0.4426648,-1.649457,1.000764,0.1017058,-0.03798929,-45.2592,-35.76327,16.36509
47.565788269,-0.440339,-0.4421088,-1.892559,1.000714,0.1031562,-0.04037233,-45.2592,-35.76327,16.36509
47.575644016,0.1191207,-0.4414414,-1.828898,1.004553,0.1056106,-0.04376072,-45.2592,-35.76327,16.36509
47.58550024,0.1191662,-0.738244700000001,-1.94911,0.9972668,0.104584,-0.04079035,-45.2592,-35.76327,16.36509
47.595355987,0.1810739,-1.034769,-2.069133,0.9983426,0.1046204,-0.03361738,-45.2592,-35.76327,16.36509
47.605211735,0.05655612,-1.628259,-2.18914,0.9973861,0.1016886,-0.03458689,-44.51575,-35.03561,16.35369
47.615067959,-0.2539774,-1.923684,-2.186371,0.9939929,0.1045966,-0.02972199,-44.51575,-35.03561,16.35369
47.624923706,-0.812467600000001,-2.159229,-1.815846,0.9973044,0.1036183,-0.03888223,-44.51575,-35.03561,16.35369
47.637243748,-0.749173699999998,-2.572233,-1.874279,0.9973514,0.1046081,-0.03456176,-44.51575,-35.03561,16.35369
47.647099495,-0.934580399999999,-2.807001,-1.565641,0.9940428,0.1031461,-0.02733895,-44.51575,-35.03561,16.35369
47.656955719,-1.057638,-3.219776,-1.379823,0.9983007,0.1070496,-0.03455468,-44.88949,-35.03129,16.35562
47.666811466,-1.304637,-3.156167,-1.255619,0.9944227,0.1040957,-0.03452434,-44.88949,-35.03129,16.35562
47.67666769,-1.489307,-3.568485,-1.254061,0.9895911,0.1045578,-0.02965958,-44.88949,-35.03129,16.35562
47.686523437,-1.922033,-4.099191,-1.252543,0.9856951,0.1069693,-0.02622931,-44.88949,-35.03129,16.35562
47.696379185,-2.230042,-4.272382,-1.373538,0.9930596,0.1041125,-0.02683758,-44.88949,-35.03129,16.35562
47.706235409,-2.661702,-4.38594,-1.310509,0.9862405,0.1011309,-0.02724475,-44.13802,-35.77622,16.3593
47.716091156,-2.285819,-4.499355,-1.247637,0.9874327,0.08753018,-0.02354293,-44.13802,-35.77622,16.3593
47.72594738,-1.786235,-4.612647,-1.368619,0.9844815,0.08945253,-0.02300544,-44.13802,-35.77622,16.3593
47.735803127,-1.225261,-4.785268,-1.305635,0.9884399,0.08949996,-0.01970706,-44.13802,-35.77622,16.3593
47.745658874,-0.789046899999997,-4.898144,-1.120202,0.9923684,0.09149186,-0.01687105,-44.13802,-35.77622,16.3593
47.755515099,-1.222594,-4.773105,-1.241343,0.9977875,0.09155034,-0.01407259,-44.13249,-35.76553,17.12746
47.765370846,-1.469347,-4.410224,-0.933557500000002,1.007173,0.08824093,-0.01040069,-44.13249,-35.76553,17.12746
47.77522707,-1.467364,-4.16678,-0.871178200000002,1.002726,0.08867763,-0.01320883,-44.13249,-35.76553,17.12746
47.785082817,-1.403484,-3.804717,-0.7475742,1.013873,0.0897238,-0.02006765,-44.13249,-35.76553,17.12746
47.794938564,-1.091375,-3.324017,-0.685505500000001,1.01685,0.08390325,-0.02207601,-44.13249,-35.76553,17.12746
47.807258606,-0.4068746,-2.486234,-0.4393329,1.016791,0.08779217,-0.02300075,-44.50622,-35.76121,17.12939
47.81711483,0.02838929,-1.888209,-0.5612908,1.017399,0.0844127,-0.01728754,-44.50622,-35.76121,17.12939
47.826970577,0.1525659,-0.874764400000001,-0.683133999999998,1.019288,0.08294605,-0.02355643,-44.50622,-35.76121,17.12939
47.836826324,0.4627783,0.1375002,-0.4372758,1.013873,0.08532973,-0.02393833,-44.50622,-35.76121,17.12939
47.846682548,0.3999641,0.910588500000001,-0.497914,1.015354,0.08192917,-0.02590495,-44.50622,-35.76121,17.12939
47.856539249,0.3994812,1.682781,-0.4359471,1.014799,0.09020599,-0.02343119,-44.13927,-35.03458,16.73584
47.866394997,0.2126512,2.394456,-0.680476799999997,1.011348,0.0847975,-0.03013644,-44.13927,-35.03458,16.73584
47.876250744,0.584806400000002,3.10507,-0.4957516,1.013387,0.08337355,-0.02538552,-44.13927,-35.03458,16.73584
47.886106968,0.832418499999999,3.814847,-0.617619400000002,1.014676,0.08626508,-0.03592188,-44.13927,-35.03458,16.73584
47.895962715,1.26595,4.464168,-0.5555792,1.015178,0.08578467,-0.03545388,-44.13927,-35.03458,16.73584
47.905818939,1.326535,4.874862,-0.4935783,1.014612,0.09112901,-0.03635911,-44.13049,-36.13367,17.13123
47.915674686,1.326118,5.170875,-0.4934232,1.012665,0.09306739,-0.03391901,-44.13049,-36.13367,17.13123
47.925530434,1.45035,5.289893,-0.3708172,1.009758,0.0896318,-0.03486497,-44.13049,-36.13367,17.13123
47.935386658,1.512466,5.587438,-0.1869083,1.011736,0.09551395,-0.02813473,-44.13049,-36.13367,17.13123
47.945242405,1.512466,5.289893,-0.0643022699999998,1.010201,0.09352874,-0.03483839,-44.13049,-36.13367,17.13123
47.955098629,1.823045,5.111366,0.1196067,0.9984958,0.08952908,-0.03566372,-44.13601,-36.14437,16.36307
47.964954376,1.760929,4.813821,0.3035157,0.9931008,0.09680084,-0.03025427,-44.13601,-36.14437,16.36307
47.977274418,1.13977,4.159223,0.4261217,0.9924453,0.1030961,-0.03690059,-44.13601,-36.14437,16.36307
47.987130165,0.3322632,3.683151,0.671333700000002,0.9904304,0.1074562,-0.03731427,-44.13601,-36.14437,16.36307
47.996986389,-0.1646641,3.088062,0.8552427,0.9923275,0.1069683,-0.04213743,-44.13601,-36.14437,16.36307
48.006842136,-0.4131278,2.61199,1.100455,0.9933425,0.1055227,-0.04072649,-44.13325,-36.13902,16.74715
48.016697884,-0.599475599999999,2.135919,1.284364,0.992386,0.106985,-0.03782532,-44.13325,-36.13902,16.74715
48.026554108,-0.723707399999999,1.778866,1.284364,0.9937845,0.1045371,-0.04505391,-44.13325,-36.13902,16.74715
48.036409855,-0.2888959,1.421812,1.590879,0.998203,0.1070218,-0.04174152,-44.13325,-36.13902,16.74715
48.046266079,0.02168363,1.124267,1.345667,0.9981735,0.1089662,-0.04220388,-44.13325,-36.13902,16.74715
48.056121826,0.3943791,0.826722499999999,1.284364,0.9908435,0.1045095,-0.04549142,-44.13726,-35.40272,16.73961
48.065977573,0.6428428,0.469669,1.100455,0.9926872,0.1118179,-0.04737282,-44.13726,-35.40272,16.73961
48.075833797,1.077654,-0.00640253000000003,1.100455,0.9972032,0.1099363,-0.04074427,-44.13726,-35.40272,16.73961
48.085689545,0.704958700000003,-0.00640253000000003,0.9165457,0.9977155,0.1079943,-0.04076796,-44.13726,-35.40272,16.73961
48.095545769,0.518611,-0.482474,0.5487277,0.9927654,0.1162343,-0.03775267,-44.13726,-35.40272,16.73961
48.105401516,-0.04043229,-1.018054,0.610030700000002,0.9938614,0.1123707,-0.0325297,-44.5145,-35.77725,15.97715
48.115257263,-0.3510118,-1.375108,0.5487277,0.999844,0.1056195,-0.03027595,-44.5145,-35.77725,15.97715
48.125113487,-0.4752437,-1.613144,0.4261217,1.000273,0.1090243,-0.03169093,-44.5145,-35.77725,15.97715
48.134969234,-0.2888959,-1.79167,0.3035157,1.000882,0.1022276,-0.02888177,-44.5145,-35.77725,15.97715
48.147289753,-0.1646641,-1.672653,0.1809097,1.004353,0.09934202,-0.0279972,-44.5145,-35.77725,15.97715
48.157145977,0.2080314,-1.732162,-0.002999276,0.9984605,0.09635418,-0.03225122,-44.50697,-36.1347,16.74908
48.167001724,0.456495,-1.732162,-0.1869083,1.000946,0.09687528,-0.02892785,-44.50697,-36.1347,16.74908
48.176857948,0.6428428,-1.732162,-0.3095143,1.00433,0.1012883,-0.02798045,-44.50697,-36.1347,16.74908
48.186713696,0.3943791,-1.613144,-0.3095143,1.006268,0.1017884,-0.02896224,-44.50697,-36.1347,16.74908
48.196569443,0.580726900000002,-1.672653,-0.4321202,1.000412,0.09783485,-0.03130815,-44.50697,-36.1347,16.74908
48.206425667,0.580726900000002,-1.613144,-0.4321202,1.000993,0.09835358,-0.02412406,-44.14002,-35.40807,16.35553
48.216281414,0.3322632,-1.315599,-0.5547262,1.00199,0.09299684,-0.02753786,-44.14002,-35.40807,16.35553
48.226137638,1.015538,-1.315599,-0.4321202,1.001022,0.08713257,-0.03188636,-44.14002,-35.40807,16.35553
48.235993385,1.264002,-1.077563,-0.4321202,1.004929,0.0964417,-0.02419629,-44.14002,-35.40807,16.35553
48.245849133,1.326118,-1.018054,-0.3095143,1.006923,0.09549319,-0.02231592,-44.14002,-35.40807,16.35553
48.255705357,1.015538,-0.8990365,-0.002999276,1.004452,0.09595268,-0.02371442,-44.13601,-36.14437,16.36307
48.265561104,0.456495,-0.7800187,-0.002999276,1.007803,0.1032852,-0.02274189,-44.13601,-36.14437,16.36307
48.275417328,-0.1025482,-0.7800187,0.1196067,1.00732,0.09888869,-0.02612651,-44.13601,-36.14437,16.36307
48.285273075,-0.2888959,-0.720509799999998,0.1809097,1.0088,0.09890532,-0.02518907,-44.13601,-36.14437,16.36307
48.295128822,-0.2888959,-0.7800187,0.3648187,1.008797,0.1008572,-0.02373495,-44.13601,-36.14437,16.36307
48.304985046,-0.2888959,-0.661000799999998,0.1809097,1.007836,0.09548324,-0.02712101,-43.76429,-35.78053,16.35736
48.317305088,-0.1646641,-0.8395277,0.1196067,1.002968,0.0973995,-0.02368106,-43.76429,-35.78053,16.35736
48.327160835,-0.1646641,-0.8990365,-0.002999276,1.004903,0.09643427,-0.02611278,-43.76429,-35.78053,16.35736
48.337016583,-0.1646641,-0.720509799999998,-0.0643022699999998,1.000981,0.09883831,-0.024599,-43.76429,-35.78053,16.35736
48.346872807,0.2080314,-0.661000799999998,0.0583037200000001,1.002901,0.1007981,-0.02556822,-43.76429,-35.78053,16.35736
48.356728554,0.518611,-0.2444383,0.0583037200000001,1.001801,0.1061252,-0.02982038,-44.13525,-35.77087,16.74338
48.366584778,0.829190499999998,0.0531064,0.1196067,1.001202,0.1065777,-0.03747521,-44.13525,-35.77087,16.74338
48.376440525,0.704958700000003,0.1721243,0.1809097,0.9973651,0.1051003,-0.0331202,-44.13525,-35.77087,16.74338
48.386296272,0.2701473,0.0531064,0.3035157,0.9939222,0.1094586,-0.03063835,-44.13525,-35.77087,16.74338
48.396152973,0.1459155,-0.1254204,0.3035157,0.993852,0.1104151,-0.03494207,-44.13525,-35.77087,16.74338
48.406009197,-0.1025482,0.0531064,0.0583037200000001,0.9920062,0.1060354,-0.03063993,-44.13325,-36.13902,16.74715
48.415864945,-0.04043229,0.2911422,0.3035157,0.9891245,0.1065128,-0.02628204,-44.13325,-36.13902,16.74715
48.425720692,0.3322632,0.2911422,0.1809097,0.9944957,0.1006989,-0.03215805,-44.13325,-36.13902,16.74715
48.435576916,0.704958700000003,0.5291778,-0.1256053,0.9969441,0.1026742,-0.03025948,-44.13325,-36.13902,16.74715
48.445432663,1.13977,0.5291778,-0.2482113,0.9968783,0.1065613,-0.03166334,-44.13325,-36.13902,16.74715
48.455288887,0.704958700000003,0.1126153,-0.4934232,0.9978095,0.1099741,-0.032127,-44.51099,-35.39841,16.74154
48.465144634,0.3322632,0.0531064,-0.738635199999999,0.9997933,0.1109756,-0.02927163,-44.51099,-35.39841,16.74154
48.475000382,-0.22678,-0.00640253000000003,-1.106453,0.997983,0.1041648,-0.02451131,-44.51099,-35.39841,16.74154
48.487320423,-0.22678,-0.1849293,-1.229059,0.9956503,0.09685207,-0.02262298,-44.51099,-35.39841,16.74154
48.49717617,0.3322632,-0.4229651,-1.229059,0.9965606,0.09928243,-0.02549064,-44.51099,-35.39841,16.74154
48.507032395,0.2701473,-0.482474,-1.474271,0.9955165,0.1031609,-0.02688063,-43.76429,-35.78053,16.35736
48.516888142,0.2701473,-0.720509799999998,-1.351665,0.9999964,0.09443378,-0.02893493,-43.76429,-35.78053,16.35736
48.526744366,0.1459155,-0.5419829,-1.167756,1.004998,0.09450838,-0.02085919,-43.76429,-35.78053,16.35736
48.536600113,0.02168363,-0.482474,-1.106453,1.002981,0.09300916,-0.02659349,-43.76429,-35.78053,16.35736
48.54645586,0.3322632,-0.00640253000000003,-0.922544200000002,1.001984,0.08908935,-0.03140435,-43.76429,-35.78053,16.35736
48.556312084,0.7670746,0.1721243,-0.922544200000002,0.9995861,0.09054613,-0.02656589,-44.13325,-36.13902,16.74715
48.566167831,1.077654,0.826722499999999,-0.677332199999998,1.003854,0.08810556,-0.0386273,-44.13325,-36.13902,16.74715
48.576024055,1.45035,1.183776,-0.738635199999999,1.000536,0.08908201,-0.02994618,-44.13325,-36.13902,16.74715
48.585879803,1.823045,1.600339,-0.5547262,1.003026,0.08813965,-0.02759362,-44.13325,-36.13902,16.74715
48.59573555,2.009393,1.481321,-0.861241200000001,1.004437,0.08569554,-0.03386395,-44.13325,-36.13902,16.74715
48.605591774,1.947277,1.719357,-0.9838473,1.011828,0.09163433,-0.02481439,-44.88271,-35.76224,16.74724
48.615447521,2.257857,1.778866,-1.167756,1.015709,0.08824229,-0.03016953,-44.88271,-35.76224,16.74724
48.625304222,2.50632,1.778866,-1.106453,1.016722,0.08923705,-0.02682116,-44.88271,-35.76224,16.74724
48.635159969,3.003247,1.54083,-1.351665,1.019093,0.09216691,-0.02970544,-44.88271,-35.76224,16.74724
48.645016193,3.003247,1.302794,-1.290362,1.009792,0.09061796,-0.03150274,-44.88271,-35.76224,16.74724
48.654871941,2.879016,1.124267,-1.04515,1.003804,0.09785569,-0.0337523,-44.13726,-35.40272,16.73961
48.667191982,2.50632,1.183776,-0.738635199999999,1.006094,0.1071092,-0.03706124,-44.13726,-35.40272,16.73961
48.677047729,2.133625,1.183776,-0.5547262,1.001762,0.106114,-0.03269511,-44.13726,-35.40272,16.73961
48.686903953,1.698813,1.421812,-0.2482113,0.9987478,0.105089,-0.03936959,-44.13726,-35.40272,16.73961
48.696759701,1.574582,1.421812,-0.002999276,0.9976612,0.1109082,-0.0421802,-44.13726,-35.40272,16.73961
48.706615925,1.823045,1.600339,0.3035157,0.9958076,0.1099439,-0.03545312,-44.88071,-36.13039,16.75101
48.716471672,2.319973,1.719357,0.4874247,0.9943187,0.1128541,-0.03444894,-44.88071,-36.13039,16.75101
48.726327419,2.444204,1.778866,0.671333700000002,0.9932623,0.1128232,-0.04018454,-44.88071,-36.13039,16.75101
48.736183643,1.885161,1.957392,0.610030700000002,0.9992298,0.1177852,-0.02872693,-44.88071,-36.13039,16.75101
48.746039391,1.077654,2.135919,0.671333700000002,0.9990852,0.1255556,-0.03249289,-44.88071,-36.13039,16.75101
48.755895615,0.3943791,2.135919,0.977848700000001,0.998966,0.128451,-0.03869634,-44.50697,-36.1347,16.74908
48.765751362,-0.1646641,1.897883,0.793939699999999,1.000982,0.1206736,-0.04118672,-44.50697,-36.1347,16.74908
48.775607109,-0.599475599999999,1.54083,0.610030700000002,0.9995396,0.1196913,-0.04021604,-44.50697,-36.1347,16.74908
48.785463333,-0.3510118,1.54083,0.5487277,0.997055,0.1196586,-0.0430561,-44.50697,-36.1347,16.74908
48.79531908,-0.3510118,1.183776,0.1809097,0.9994824,0.1206515,-0.04356152,-44.50697,-36.1347,16.74908
48.805175304,0.1459155,1.064758,-0.002999276,0.9945952,0.1230506,-0.04107562,-44.13525,-35.77087,16.74338
48.815031052,-0.04043229,0.945740400000001,-0.4934232,0.9906579,0.1195915,-0.0458407,-44.13525,-35.77087,16.74338
48.824886799,0.0837995400000001,0.767213600000002,-0.738635199999999,0.988292,0.1205692,-0.03908993,-44.13525,-35.77087,16.74338
48.837207794,-0.1025482,0.588686800000003,-1.474271,0.9889358,0.110853,-0.03630591,-44.13525,-35.77087,16.74338
48.847063541,0.2701473,0.3506511,-1.719483,0.9904362,0.1069696,-0.03731846,-44.13525,-35.77087,16.74338
48.856919289,1.201886,0.1126153,-2.025998,0.9872448,0.101147,-0.02534213,-44.50697,-36.1347,16.74908
48.866775513,1.823045,0.1721243,-2.087301,0.9873244,0.1021461,-0.01862604,-44.50697,-36.1347,16.74908
48.87663126,1.885161,0.2316332,-2.209907,0.9823011,0.1049947,-0.0257184,-44.50697,-36.1347,16.74908
48.886487484,1.636697,-0.00640253000000003,-2.025998,0.991209,0.1094959,-0.01430658,-44.50697,-36.1347,16.74908
48.896343231,1.201886,-0.0659114500000002,-1.842089,0.9946405,0.1061107,-0.01678006,-44.50697,-36.1347,16.74908
48.906198978,0.891306400000001,-0.3039472,-1.351665,1.006338,0.1096201,-0.01691716,-44.88271,-35.76224,16.74724
48.916055202,0.580726900000002,-0.2444383,-1.229059,1.017686,0.1107238,-0.008923198,-44.88271,-35.76224,16.74724
48.92591095,0.02168363,-0.1254204,-0.6160293,1.023852,0.1170719,-0.01758309,-44.88271,-35.76224,16.74724
48.935767174,-0.5373596,-0.3039472,-0.5547262,1.024855,0.116111,-0.01664709,-44.88271,-35.76224,16.74724
48.945622921,-1.158519,0.1126153,-0.1869083,1.014727,0.1116674,-0.009831457,-44.88271,-35.76224,16.74724
48.955478668,-1.655446,0.3506511,-0.002999276,1.007866,0.106721,-0.01504661,-43.76153,-35.77519,16.74145
48.965334892,-1.841794,0.826722499999999,-0.002999276,0.9961706,0.1046769,-0.01345957,-43.76153,-35.77519,16.74145
48.975190639,-1.59333,1.302794,-0.002999276,0.9900967,0.09444922,-0.00147933,-43.76153,-35.77519,16.74145
48.985046864,-1.158519,1.719357,-0.0643022699999998,0.9914207,0.09442128,-0.01204083,-43.76153,-35.77519,16.74145
48.994902611,-0.2888959,2.373955,0.0583037200000001,0.9899217,0.09928159,-0.01006164,-43.76153,-35.77519,16.74145
49.007222652,-0.04043229,2.909535,-0.1256053,0.9977774,0.09789442,-0.009226916,-44.13601,-36.14437,16.36307
49.0170784,0.0837995400000001,3.088062,0.2422127,1.006471,0.1072169,-0.009272149,-44.13601,-36.14437,16.36307
49.026935101,-0.661591500000002,3.266589,0.3035157,1.009443,0.106277,-0.007405645,-44.13601,-36.14437,16.36307
49.036790848,-0.8479392,3.504625,0.1809097,1.01087,0.1048135,-0.01175112,-44.13601,-36.14437,16.36307
49.046647072,-0.3510118,3.921187,0.2422127,1.00992,0.1018835,-0.0122415,-44.13601,-36.14437,16.36307
49.056502819,0.3322632,3.802169,0.3035157,1.010354,0.1043133,-0.01414398,-44.51174,-35.7719,16.36123
49.066359043,0.704958700000003,3.802169,0.2422127,1.011029,0.09851208,-0.00557698,-44.51174,-35.7719,16.36123
49.07621479,0.6428428,3.802169,0.2422127,0.9990656,0.1129913,-0.009117868,-44.51174,-35.7719,16.36123
49.086070538,0.02168363,3.921187,0.2422127,0.9912589,0.1080455,-0.01192354,-44.51174,-35.7719,16.36123
49.095926762,-0.599475599999999,3.683151,0.3648187,0.9941819,0.1090445,-0.01195677,-44.51174,-35.7719,16.36123
49.105782509,-0.910055099999997,3.802169,0.4261217,0.9868628,0.1075202,-0.01186532,-43.76228,-36.14868,16.36114
49.115638733,-1.220635,3.623642,0.671333700000002,0.997515,0.109537,-0.01822971,-43.76228,-36.14868,16.36114
49.12549448,-1.531214,3.445116,0.793939699999999,0.9981313,0.1076247,-0.01058744,-43.76228,-36.14868,16.36114
49.135350227,-2.152373,3.147571,0.732636699999998,0.9985301,0.1124855,-0.0129481,-43.76228,-36.14868,16.36114
49.145206451,-2.462953,3.147571,0.5487277,0.9976972,0.105195,-0.008684962,-43.76228,-36.14868,16.36114
49.155062199,-2.276605,2.671499,0.1196067,1.001062,0.09642026,-0.02078696,-44.13877,-36.14971,15.97898
49.164918423,-1.655446,2.61199,-0.002999276,0.9991102,0.09933367,-0.01785935,-44.13877,-36.14971,15.97898
49.177237988,-0.8479392,2.731009,-0.2482113,1.001064,0.09739714,-0.01982034,-44.13877,-36.14971,15.97898
49.187094212,-0.3510118,2.61199,-0.3095143,0.9975517,0.09490069,-0.02841694,-44.13877,-36.14971,15.97898
49.196949959,0.2701473,2.373955,-0.4321202,1.000082,0.09543478,-0.02173971,-44.13877,-36.14971,15.97898
49.20680666,0.1459155,2.135919,-0.0643022699999998,1.002095,0.09790903,-0.01551792,-44.13601,-36.14437,16.36307
49.216662407,-0.1646641,1.838374,0.2422127,1.013207,0.1023631,-0.0218683,-44.13601,-36.14437,16.36307
49.226518631,-0.661591500000002,1.421812,0.4261217,1.017157,0.1009434,-0.02049898,-44.13601,-36.14437,16.36307
49.236374378,-1.096403,1.421812,0.977848700000001,1.021742,0.09273442,-0.014404,-44.13601,-36.14437,16.36307
49.246230602,-1.034287,1.183776,1.161758,1.008544,0.08480881,-0.02051239,-44.13601,-36.14437,16.36307
49.25608635,-0.1646641,0.945740400000001,1.529576,1.003243,0.08527217,-0.01420333,-43.76505,-36.15403,15.97705
49.265942097,0.6428428,0.826722499999999,1.958697,0.9998024,0.09158427,-0.00978823,-43.76505,-36.15403,15.97705
49.275798321,0.6428428,0.588686800000003,1.836091,0.9948176,0.09395555,-0.01448917,-43.76505,-36.15403,15.97705
49.285654068,0.456495,0.767213600000002,2.081303,0.9869864,0.09876732,-0.01050335,-43.76505,-36.15403,15.97705
49.295510292,0.1459155,0.886231499999998,2.203909,0.9701888,0.1034552,-0.01837077,-43.76505,-36.15403,15.97705
49.305366039,-0.4131278,1.064758,2.571727,0.9900934,0.1089599,-0.02483759,-44.51404,-36.45842,15.53596
49.315221787,-0.785823300000002,1.183776,2.878242,0.9900029,0.1094223,-0.031062,-44.51404,-36.45842,15.53596
49.325078011,-1.220635,1.064758,2.878242,1.012911,0.1174136,-0.03036265,-44.51404,-36.45842,15.53596
49.334933758,-1.841794,1.005249,2.755635,1.027594,0.1204752,-0.02719169,-44.51404,-36.45842,15.53596
49.3472538,-2.276605,0.3506511,2.694333,1.026615,0.1194897,-0.02814445,-44.51404,-36.45842,15.53596
49.357109547,-2.400837,0.0531064,2.510424,1.021719,0.1165161,-0.03097497,-44.51772,-35.78349,15.52905
49.366965771,-1.966026,-0.1849293,2.142606,1.006108,0.1168779,-0.02739502,-44.51772,-35.78349,15.52905
49.376821995,-1.717562,-0.661000799999998,1.897394,0.992866,0.1226099,-0.02476192,-44.51772,-35.78349,15.52905
49.386678219,-1.779678,-1.077563,1.713485,0.9806959,0.1215421,-0.02124307,-44.51772,-35.78349,15.52905
49.396533966,-1.966026,-1.553635,1.652182,0.969522,0.1151176,-0.02113804,-44.51772,-35.78349,15.52905
49.40639019,-1.655446,-1.79167,1.284364,0.96763,0.1102365,-0.02067307,-44.13831,-36.83089,15.5378
49.416245937,-0.972170899999998,-2.029706,0.610030700000002,0.9651859,0.1067978,-0.02354245,-44.13831,-36.83089,15.5378
49.426101685,0.02168363,-1.851179,0.4261217,0.970034,0.1043875,-0.02890308,-44.13831,-36.83089,15.5378
49.435957909,1.015538,-1.613144,-0.002999276,0.978251,0.1088269,-0.03233713,-44.13831,-36.83089,15.5378
49.445813656,2.009393,-1.434617,-0.3095143,0.9914088,0.1162529,-0.02958679,-44.13831,-36.83089,15.5378
49.45566988,2.133625,-1.553635,-0.677332199999998,1.001759,0.1173425,-0.02301632,-44.51772,-35.78349,15.52905
49.465525627,2.071509,-2.148724,-1.04515,1.008976,0.1198139,-0.02980711,-44.51772,-35.78349,15.52905
49.475381851,1.264002,-2.624796,-0.9838473,1.016503,0.1170036,-0.01843732,-44.51772,-35.78349,15.52905
49.485237599,0.3943791,-3.041358,-1.412968,1.017138,0.1146084,-0.009840998,-44.51772,-35.78349,15.52905
49.495093346,0.02168363,-3.457921,-1.474271,1.01072,0.1091648,-0.01890025,-44.51772,-35.78349,15.52905
49.50494957,0.3943791,-3.874483,-1.290362,1.00103,0.1095932,-0.01157054,-44.144,-35.7878,15.52712
49.517269135,0.2701473,-3.993501,-1.167756,0.996125,0.1046639,-0.01681343,-44.144,-35.7878,15.52712
49.527125359,0.2701473,-4.350554,-1.106453,1.000557,0.1027582,-0.01641347,-44.144,-35.7878,15.52712
49.53698206,-0.4131278,-4.291046,-0.9838473,0.9942085,0.1007522,-0.01729832,-44.144,-35.7878,15.52712
49.546837807,-0.5373596,-4.350554,-0.922544200000002,0.9958268,0.09739063,-0.009203367,-44.144,-35.7878,15.52712
49.556693554,-0.785823300000002,-4.112519,-1.04515,0.9885246,0.09391816,-0.009607796,-44.88347,-36.13573,16.36693
49.566549778,-0.4752437,-4.172028,-1.04515,0.9939652,0.09544753,-0.00392204,-44.88347,-36.13573,16.36693
49.576405525,-0.3510118,-4.231537,-1.106453,0.9925319,0.0920267,-0.004409681,-44.88347,-36.13573,16.36693
49.586261749,-0.1646641,-4.112519,-0.9838473,0.9978598,0.0920592,-0.008318938,-44.88347,-36.13573,16.36693
49.596117496,-0.04043229,-3.993501,-0.738635199999999,1.008475,0.0999243,-0.01223745,-44.88347,-36.13573,16.36693
49.605973244,-0.3510118,-3.814974,-0.4321202,1.018764,0.1034375,-0.008041654,-44.88623,-36.14108,15.98285
49.615829468,-0.4131278,-3.279394,-0.3095143,1.022137,0.09954711,-0.01531054,-44.88623,-36.14108,15.98285
49.625685215,-0.3510118,-3.219885,-0.2482113,1.023139,0.09858628,-0.01437454,-44.88623,-36.14108,15.98285
49.635541439,-0.04043229,-3.041358,-0.002999276,1.016354,0.1009849,-0.007548803,-44.88623,-36.14108,15.98285
49.645397186,-0.04043229,-2.743814,0.1196067,1.010423,0.1028684,-0.01032357,-44.88623,-36.14108,15.98285
49.655252933,0.0837995400000001,-2.208233,0.2422127,1.006996,0.1047902,-0.008820906,-44.13877,-36.14971,15.97898
49.665109157,0.1459155,-1.851179,0.4874247,1.000677,0.1008397,-0.00924339,-44.13877,-36.14971,15.97898
49.674964905,-0.22678,-1.315599,0.671333700000002,1.003135,0.09598247,-0.01267381,-44.13877,-36.14971,15.97898
49.687285423,0.02168363,-0.661000799999998,0.793939699999999,1.004079,0.1033046,-0.008791867,-44.13877,-36.14971,15.97898
49.697141647,-0.1646641,-0.5419829,0.8552427,1.011387,0.1018964,-0.01226231,-44.13877,-36.14971,15.97898
49.706997394,-0.661591500000002,-0.00640253000000003,0.732636699999998,1.010895,0.1048209,-0.009834626,-44.51174,-35.7719,16.36123
49.716853619,-1.034287,0.2316332,0.8552427,1.011864,0.1028739,-0.01226086,-44.51174,-35.7719,16.36123
49.726709366,-1.28275,0.6481957,0.9165457,1.008878,0.1028332,-0.01605223,-44.51174,-35.7719,16.36123
49.736565113,-1.469098,0.886231499999998,0.671333700000002,1.00402,0.09889384,-0.01697464,-44.51174,-35.7719,16.36123
49.746421337,-0.972170899999998,1.481321,0.4261217,1.000165,0.09399362,-0.01696106,-44.51174,-35.7719,16.36123
49.756277084,-0.4752437,1.600339,0.2422127,0.9947836,0.0929694,-0.0178514,-44.13877,-36.14971,15.97898
49.766133308,0.2080314,1.719357,-0.1869083,0.9917854,0.09390188,-0.0216344,-44.13877,-36.14971,15.97898
49.775989056,0.3322632,2.135919,-0.4321202,0.9932483,0.09098418,-0.02455506,-44.13877,-36.14971,15.97898
49.785844803,0.7670746,2.07641,-0.677332199999998,1.000168,0.09204173,-0.01841518,-44.13877,-36.14971,15.97898
49.795701027,0.953422400000001,1.838374,-0.677332199999998,0.9986406,0.09494087,-0.02028573,-44.13877,-36.14971,15.97898
49.805556774,0.953422400000001,1.719357,-0.677332199999998,1.009364,0.1008838,-0.01799241,-44.51651,-35.4091,15.97338
49.815412998,0.580726900000002,1.54083,-0.6160293,1.013592,0.1067318,-0.02567051,-44.51651,-35.4091,15.97338
49.825268745,0.1459155,1.243285,-0.3095143,1.018083,0.1053312,-0.02047514,-44.51651,-35.4091,15.97338
49.835125446,-0.5373596,1.005249,-0.0643022699999998,1.021342,0.1131261,-0.02572701,-44.51651,-35.4091,15.97338
49.844981194,-1.096403,0.826722499999999,0.1196067,1.014919,0.1086576,-0.03429876,-44.51651,-35.4091,15.97338
49.857301235,-1.034287,0.1126153,-0.0643022699999998,1.001922,0.1003011,-0.02603767,-44.13802,-35.77622,16.3593
49.867156982,-0.661591500000002,0.1126153,-0.002999276,0.9896749,0.09530541,-0.03165566,-44.13802,-35.77622,16.3593
49.877013206,-0.3510118,-0.0659114500000002,-0.0643022699999998,0.9887488,0.09531164,-0.02780881,-44.13802,-35.77622,16.3593
49.886868954,0.1459155,0.0531064,0.0583037200000001,0.9805152,0.08842637,-0.02774957,-44.13802,-35.77622,16.3593
49.896725178,0.580726900000002,0.1126153,-0.1869083,0.9828617,0.09623129,-0.02819634,-44.13802,-35.77622,16.3593
49.906580925,0.704958700000003,0.3506511,-0.0643022699999998,0.9837936,0.1001325,-0.0281767,-44.88748,-35.39944,16.35939
49.916436672,0.580726900000002,0.0531064,0.1809097,0.9895955,0.1074884,-0.02675972,-44.88748,-35.39944,16.35939
49.926292896,0.456495,-0.2444383,0.1809097,1.000322,0.106597,-0.03027451,-44.88748,-35.39944,16.35939
49.936148643,-0.1646641,-0.5419829,0.3648187,1.007691,0.1110649,-0.02411224,-44.88748,-35.39944,16.35939
49.946004868,-0.661591500000002,-0.601491900000001,0.1809097,1.014939,0.1130572,-0.02899072,-44.88748,-35.39944,16.35939
49.955860615,-0.661591500000002,-1.077563,0.0583037200000001,1.013561,0.1076993,-0.02709951,-43.76505,-36.15403,15.97705
49.965716362,-0.3510118,-1.315599,-0.002999276,1.012122,0.1047651,-0.02758295,-43.76505,-36.15403,15.97705
49.975573063,-0.04043229,-1.315599,0.1809097,1.002839,0.1066389,-0.02503883,-43.76505,-36.15403,15.97705
49.985429287,0.3943791,-1.553635,-0.2482113,0.9979989,0.1017282,-0.0254905,-43.76505,-36.15403,15.97705
49.995285034,0.3943791,-1.79167,-0.3708172,0.994215,0.1007541,-0.0168192,-43.76505,-36.15403,15.97705
50.005140781,0.3322632,-1.672653,-0.677332199999998,0.9912349,0.1007152,-0.02013145,-44.51375,-35.40376,16.35746
50.014997005,0.2080314,-1.613144,-0.7999382,0.9887127,0.1016483,-0.02487962,-44.51375,-35.40376,16.35746
50.027317047,0.6428428,-1.613144,-0.922544200000002,0.9969875,0.1012219,-0.02835555,-44.51375,-35.40376,16.35746
50.037172794,0.953422400000001,-1.25609,-1.04515,1.003866,0.1047086,-0.02315297,-44.51375,-35.40376,16.35746
50.047028542,0.829190499999998,-1.25609,-1.167756,1.003876,0.1071527,-0.02025729,-44.51375,-35.40376,16.35746
50.056884766,0.580726900000002,-1.196581,-1.290362,1.005416,0.1032804,-0.01839512,-44.13325,-36.13902,16.74715
50.066740513,0.6428428,-0.8990365,-1.351665,1.007354,0.09596922,-0.02615164,-44.13325,-36.13902,16.74715
50.076596737,0.891306400000001,-0.8395277,-1.474271,1.006991,0.09307144,-0.01946213,-44.13325,-36.13902,16.74715
50.086452484,1.388234,-0.5419829,-1.290362,1.015299,0.09314276,-0.02005913,-44.13325,-36.13902,16.74715
50.096308231,1.885161,-0.720509799999998,-1.167756,1.014164,0.09699521,-0.02815684,-44.13325,-36.13902,16.74715
50.106164455,2.195741,-0.5419829,-1.229059,1.010409,0.09358816,-0.01950648,-44.13433,-36.45116,16.36621
50.116021156,2.195741,-0.482474,-0.922544200000002,1.002574,0.09595775,-0.01793722,-44.13433,-36.45116,16.36621
50.125876904,2.195741,-0.4229651,-0.4934232,0.9922043,0.09925669,-0.02207438,-44.13433,-36.45116,16.36621
50.135732651,1.512466,-0.5419829,-0.3708172,1.000548,0.09738541,-0.02172989,-44.13433,-36.45116,16.36621
50.145588875,1.015538,-0.5419829,-0.1869083,1.001522,0.09836902,-0.02125626,-44.13433,-36.45116,16.36621
50.155444622,1.015538,-0.601491900000001,-0.1256053,1.002867,0.09981197,-0.02893046,-44.50529,-36.44149,16.75222
50.165300846,0.829190499999998,-0.7800187,0.2422127,1.006343,0.1037626,-0.02175865,-44.50529,-36.44149,16.75222
50.175156593,0.704958700000003,-0.8395277,0.4261217,1.003902,0.1071601,-0.0183408,-44.50529,-36.44149,16.75222
50.185012341,0.3322632,-0.720509799999998,0.793939699999999,1.003825,0.1076263,-0.02360696,-44.50529,-36.44149,16.75222
50.197332382,-0.5373596,-0.7800187,1.284364,1.005274,0.1086105,-0.02409851,-44.50529,-36.44149,16.75222
50.207188606,-0.8479392,-1.137072,1.590879,0.9990755,0.1022531,-0.01783422,-44.13601,-36.14437,16.36307
50.217044354,-0.5373596,-1.018054,1.897394,0.9975207,0.1046564,-0.02210458,-44.13601,-36.14437,16.36307
50.226900101,-0.22678,-1.018054,1.958697,0.990714,0.1011901,-0.02203682,-44.13601,-36.14437,16.36307
50.236756325,0.2701473,-0.9585455,2.02,0.9858013,0.1040702,-0.02098409,-44.13601,-36.14437,16.36307
50.246613026,0.2080314,-0.8395277,2.081303,0.9886571,0.1035853,-0.02725848,-44.13601,-36.14437,16.36307
50.256468773,0.456495,-0.720509799999998,2.02,0.991952,0.1089493,-0.03205217,-44.51174,-35.7719,16.36123
50.26632452,0.3943791,-0.3634561,2.02,0.9968178,0.1182614,-0.02581333,-44.51174,-35.7719,16.36123
50.276180744,-0.1025482,-0.0659114500000002,1.958697,0.9957448,0.1201787,-0.03105306,-44.51174,-35.7719,16.36123
50.286036491,-0.5373596,0.0531064,1.713485,0.9998014,0.1163484,-0.02395521,-44.51174,-35.7719,16.36123
50.295892716,-1.034287,0.3506511,1.40697,1.001232,0.1134214,-0.02927149,-44.51174,-35.7719,16.36123
50.305748463,-0.785823300000002,0.3506511,0.8552427,1.004741,0.10957,-0.02647881,-44.13726,-35.40272,16.73961
50.31560421,-0.4752437,0.5291778,0.5487277,1.002869,0.1051829,-0.02409315,-44.13726,-35.40272,16.73961
50.325460434,0.2701473,0.469669,-0.0643022699999998,1.00134,0.1075936,-0.02644702,-44.13726,-35.40272,16.73961
50.335316181,0.891306400000001,0.5291778,-0.4934232,1.002906,0.1037287,-0.02266835,-44.13726,-35.40272,16.73961
50.345172405,1.388234,0.588686800000003,-0.738635199999999,1.000973,0.1022536,-0.02217406,-44.13726,-35.40272,16.73961
50.355028153,1.574582,0.588686800000003,-0.9838473,1.004835,0.1027616,-0.0255792,-44.50974,-36.14005,16.365
50.3648839,1.823045,0.707704699999999,-1.290362,0.9989677,0.09978124,-0.02791674,-44.50974,-36.14005,16.365
50.377204418,2.382088,0.886231499999998,-1.474271,0.9965996,0.09489951,-0.02648658,-44.50974,-36.14005,16.365
50.387060642,2.8169,1.183776,-1.535574,0.9941273,0.09438212,-0.02885171,-44.50974,-36.14005,16.365
50.39691639,2.8169,1.243285,-1.596877,0.9980097,0.09587259,-0.02985287,-44.50974,-36.14005,16.365
50.406772614,2.568436,1.302794,-1.596877,0.9955599,0.1017086,-0.0249767,-43.76353,-35.40704,16.73768
50.416628361,2.009393,1.183776,-1.65818,1.000022,0.09834683,-0.02363107,-43.76353,-35.40704,16.73768
50.426484108,1.512466,0.945740400000001,-1.351665,1.002891,0.1022597,-0.02507653,-43.76353,-35.40704,16.73768
50.436340332,0.891306400000001,0.826722499999999,-1.04515,1.008878,0.1033217,-0.01556892,-43.76353,-35.40704,16.73768
50.446196079,0.1459155,0.3506511,-0.6160293,1.012275,0.09846187,-0.02188794,-43.76353,-35.40704,16.73768
50.456052303,-0.22678,0.0531064,-0.3708172,1.012687,0.09893233,-0.02716103,-44.50974,-36.14005,16.365
50.465908051,-0.4752437,-0.1849293,-0.0643022699999998,1.005814,0.09935308,-0.02849713,-44.50974,-36.14005,16.365
50.475763798,-0.2888959,-0.0659114500000002,0.2422127,1.003803,0.09736726,-0.03423562,-44.50974,-36.14005,16.365
50.485620022,0.3943791,0.0531064,0.4261217,0.9989416,0.09537976,-0.0337039,-44.50974,-36.14005,16.365
50.495476723,0.518611,-0.0659114500000002,0.671333700000002,0.9969752,0.09731257,-0.03270116,-44.50974,-36.14005,16.365
50.50533247,1.015538,0.1721243,0.8552427,0.9897082,0.09580313,-0.02877674,-44.50974,-36.14005,16.365
50.515188217,1.326118,0.1721243,0.793939699999999,0.9897848,0.09045447,-0.02786457,-44.50974,-36.14005,16.365
50.525044441,1.947277,0.1721243,0.732636699999998,0.98739,0.08947093,-0.02496354,-44.50974,-36.14005,16.365
50.537364483,2.568436,-0.1849293,0.732636699999998,0.9924111,0.08955111,-0.01545044,-44.50974,-36.14005,16.365
50.54722023,2.941132,-0.3634561,0.8552427,0.9987274,0.09203625,-0.01647789,-44.50974,-36.14005,16.365
50.557075977,3.127479,-0.5419829,1.284364,0.9972153,0.09689284,-0.01545695,-44.51651,-35.4091,15.97338
50.566932201,2.568436,-0.7800187,1.468273,0.9975185,0.1075851,-0.01968383,-44.51651,-35.4091,15.97338
50.576787949,1.512466,-0.5419829,1.958697,1.005833,0.111564,-0.01641435,-44.51651,-35.4091,15.97338
50.586644173,0.1459155,-0.3039472,2.203909,1.013095,0.1101428,-0.02323865,-44.51651,-35.4091,15.97338
50.59649992,-0.599475599999999,0.1721243,2.633029,1.017391,0.1091749,-0.03193364,-44.51651,-35.4091,15.97338
50.606355667,-0.599475599999999,0.588686800000003,3.184757,1.02378,0.1082633,-0.03059479,-44.50697,-36.1347,16.74908
50.616212368,-0.4131278,1.064758,3.307363,1.017047,0.1014002,-0.02816074,-44.50697,-36.1347,16.74908
50.626068592,-0.3510118,1.421812,3.491271,1.020518,0.1029087,-0.02340549,-44.50697,-36.1347,16.74908
50.635924339,-0.4752437,1.54083,3.368665,1.019585,0.1024246,-0.02052108,-44.50697,-36.1347,16.74908
50.645780086,-0.4131278,1.659848,3.06215,1.017161,0.09947993,-0.02146979,-44.50697,-36.1347,16.74908
50.65563631,0.02168363,1.957392,2.755635,1.010797,0.09551649,-0.02524613,-44.13601,-36.14437,16.36307
50.665492058,0.3943791,1.838374,2.510424,1.000469,0.09638625,-0.02844598,-44.13601,-36.14437,16.36307
50.675348282,0.6428428,1.897883,2.326514,0.9955541,0.1021951,-0.02497252,-44.13601,-36.14437,16.36307
50.685204029,0.456495,1.778866,1.958697,0.9915816,0.1055612,-0.02632509,-44.13601,-36.14437,16.36307
50.695059776,0.518611,1.421812,1.468273,0.9890326,0.1059984,-0.03347306,-44.13601,-36.14437,16.36307
50.704916,0.3322632,0.945740400000001,1.284364,0.9840775,0.1152133,-0.02997027,-44.14203,-35.03992,16.35176
50.717236042,-0.2888959,0.5291778,0.610030700000002,0.9827924,0.1108583,-0.02040472,-44.14203,-35.03992,16.35176
50.727091789,-0.5373596,0.1126153,0.4261217,0.9832671,0.1142761,-0.01846585,-44.14203,-35.03992,16.35176
50.73694849,-0.2888959,-0.1254204,0.4261217,0.9910528,0.1138454,-0.02193484,-44.14203,-35.03992,16.35176
50.746804237,-0.1646641,-0.1254204,0.4874247,0.9968719,0.1109535,-0.02827178,-44.14203,-35.03992,16.35176
50.756660461,0.518611,-0.3039472,0.4261217,0.9992269,0.1202255,-0.0267895,-45.26121,-35.39512,16.36132
50.766516209,0.953422400000001,-0.4229651,0.4261217,1.005166,0.1193208,-0.02256899,-45.26121,-35.39512,16.36132
50.776371956,0.829190499999998,-0.8990365,0.3035157,0.9998253,0.1192846,-0.01961797,-45.26121,-35.39512,16.36132
50.78622818,0.518611,-1.196581,0.1809097,0.9961216,0.1154039,-0.007617949,-45.26121,-35.39512,16.36132
50.796083927,0.2701473,-1.077563,0.1196067,0.9860235,0.1090158,-0.0003399467,-45.26121,-35.39512,16.36132
50.805940151,-0.04043229,-1.077563,0.3035157,0.9870111,0.106586,-0.001812126,-44.87995,-35.75689,17.13132
50.815795898,-0.2888959,-0.8395277,0.4261217,0.9981394,0.1086035,-0.009141697,-44.87995,-35.75689,17.13132
50.825651646,-0.5373596,-0.4229651,0.671333700000002,1.013319,0.1121597,-0.005015242,-44.87995,-35.75689,17.13132
50.83550787,-0.972170899999998,-0.1849293,0.977848700000001,1.031337,0.1079026,-0.01489196,-44.87995,-35.75689,17.13132
50.845364571,-1.655446,0.1721243,1.100455,1.027802,0.1073525,-0.02347181,-44.87995,-35.75689,17.13132
50.855220318,-1.841794,0.6481957,1.161758,1.025991,0.1039589,-0.01580744,-45.26321,-35.02697,16.35755
50.865076065,-1.779678,1.124267,1.161758,1.007885,0.101844,-0.01796323,-45.26321,-35.02697,16.35755
50.874932289,-1.655446,1.421812,0.977848700000001,0.9992403,0.09058268,-0.01601827,-45.26321,-35.02697,16.35755
50.887252331,-1.034287,2.314446,0.610030700000002,0.9876757,0.08467013,-0.008236147,-45.26321,-35.02697,16.35755
50.897108078,-0.04043229,2.61199,0.1809097,0.9847201,0.07926781,-0.01446921,-45.26321,-35.02697,16.35755
50.906963825,1.015538,3.088062,0.1809097,0.9929985,0.08567764,-0.0116579,-45.26321,-35.02697,16.35755
50.916820049,2.009393,3.266589,0.3035157,0.9987187,0.09056909,-0.01840694,-45.26321,-35.02697,16.35755
50.926675796,1.947277,3.683151,0.3035157,1.00749,0.09942541,-0.01318602,-45.26321,-35.02697,16.35755
50.936532021,1.201886,3.683151,0.4261217,1.011302,0.110172,-0.01123285,-45.26321,-35.02697,16.35755
50.946387768,-0.22678,3.623642,0.3648187,1.007524,0.1004116,-0.009823784,-45.26321,-35.02697,16.35755
50.956243515,-0.910055099999997,3.504625,0.4261217,1.010533,0.09801749,-0.006532478,-44.51174,-35.7719,16.36123
50.966100216,-0.723707399999999,3.564133,0.3035157,1.010028,0.08726761,-0.01715839,-44.51174,-35.7719,16.36123
50.97595644,-0.5373596,3.445116,0.1196067,1.001364,0.08527723,-0.008426122,-44.51174,-35.7719,16.36123
50.985812187,-0.1025482,3.385607,0.1196067,0.9968252,0.08910513,-0.01503791,-44.51174,-35.7719,16.36123
50.995667934,-0.1646641,3.326098,-0.0643022699999998,0.9870535,0.08706901,-0.01587423,-44.51174,-35.7719,16.36123
51.005524158,-0.3510118,3.266589,-0.002999276,0.9909576,0.09003035,-0.01398808,-45.26321,-35.02697,16.35755
51.015379906,-0.3510118,3.147571,0.0583037200000001,0.9929702,0.0842049,-0.01502433,-45.26321,-35.02697,16.35755
51.02523613,-0.661591500000002,2.790517,0.4261217,0.9939288,0.08420794,-0.01647556,-45.26321,-35.02697,16.35755
51.035091877,-0.599475599999999,2.790517,0.2422127,1.00166,0.0862027,-0.0218401,-45.26321,-35.02697,16.35755
51.044947624,-0.3510118,2.552482,0.3648187,1.004222,0.08137516,-0.01760456,-45.26321,-35.02697,16.35755
51.057267666,0.3943791,2.314446,0.1196067,1.012495,0.07997188,-0.02204712,-45.26397,-35.40047,15.97724
51.067124367,1.574582,2.195428,-0.002999276,1.006134,0.07405657,-0.02727758,-45.26397,-35.40047,15.97724
51.076980114,2.071509,2.135919,-0.0643022699999998,1.004089,0.08426677,-0.02476627,-45.26397,-35.40047,15.97724
51.086836338,2.50632,1.838374,-0.0643022699999998,0.9985892,0.09102039,-0.02750608,-45.26397,-35.40047,15.97724
51.096692085,1.885161,1.719357,-0.002999276,1.003895,0.09788169,-0.02704459,-45.26397,-35.40047,15.97724
51.106548309,1.015538,1.421812,-0.2482113,1.004848,0.09446568,-0.03187901,-45.26196,-35.76862,15.98101
51.116404057,0.3943791,0.588686800000003,-0.1869083,1.009223,0.09791418,-0.03095385,-45.26196,-35.76862,15.98101
51.126259804,0.3943791,0.2911422,-0.002999276,1.008909,0.08917189,-0.02575197,-45.26196,-35.76862,15.98101
51.136116028,0.3322632,-0.1849293,0.0583037200000001,0.9990479,0.09248072,-0.02845869,-45.26196,-35.76862,15.98101
51.145971775,0.6428428,-0.8990365,-0.0643022699999998,1.003348,0.09395505,-0.03473713,-45.26196,-35.76862,15.98101
51.155827999,0.829190499999998,-1.077563,0.1196067,1.000885,0.09539326,-0.03468988,-44.51174,-35.7719,16.36123
51.165683746,0.891306400000001,-1.375108,0.610030700000002,0.9999544,0.09686296,-0.02987223,-44.51174,-35.7719,16.36123
51.175540447,1.015538,-1.613144,0.671333700000002,1.00025,0.1021825,-0.03941553,-44.51174,-35.7719,16.36123
51.185396195,0.580726900000002,-2.029706,0.8552427,0.9954456,0.09923483,-0.03553834,-44.51174,-35.7719,16.36123
51.195252419,0.518611,-2.624796,1.039152,0.994945,0.1002037,-0.03552303,-44.51174,-35.7719,16.36123
51.205108166,-0.04043229,-2.92234,1.223061,0.9926167,0.09582152,-0.03073483,-44.5145,-35.77725,15.97715
51.214963913,0.0837995400000001,-3.51743,1.284364,0.9878047,0.0962892,-0.02443271,-44.5145,-35.77725,15.97715
51.227283955,0.6428428,-4.112519,1.223061,0.9833862,0.09380456,-0.0277451,-44.5145,-35.77725,15.97715
51.237139702,0.6428428,-4.529081,1.40697,0.9940681,0.1026651,-0.02590577,-44.5145,-35.77725,15.97715
51.246995926,0.3322632,-4.469573,1.345667,0.9959977,0.1021864,-0.02833331,-44.5145,-35.77725,15.97715
51.256851673,0.0837995400000001,-4.945644,1.40697,0.9978782,0.1080408,-0.0287899,-44.14203,-35.03992,16.35176
51.266707897,-0.4752437,-5.421715,1.100455,1.000889,0.1027179,-0.02791934,-44.14203,-35.03992,16.35176
51.276564121,-1.034287,-5.540733,1.039152,0.9934474,0.1060409,-0.03257722,-44.14203,-35.03992,16.35176
51.286420345,-1.406982,-5.421715,0.977848700000001,0.9900874,0.1006583,-0.03257476,-44.14203,-35.03992,16.35176
51.296276093,-1.28275,-5.18368,1.284364,0.9978137,0.1041166,-0.03696849,-44.14203,-35.03992,16.35176
51.306132317,-1.220635,-4.767117,1.223061,0.995757,0.1109059,-0.03831948,-45.26321,-35.02697,16.35755
51.315988064,-0.910055099999997,-4.648099,1.284364,1.002582,0.1134009,-0.03791649,-45.26321,-35.02697,16.35755
51.325843811,-1.034287,-4.58859,1.161758,1.006522,0.1100256,-0.03895953,-45.26321,-35.02697,16.35755
51.335700035,-0.972170899999998,-4.945644,1.100455,1.015535,0.1067453,-0.0266565,-45.26321,-35.02697,16.35755
51.345555782,-1.096403,-5.005153,0.671333700000002,1.013633,0.1082082,-0.02134585,-45.26321,-35.02697,16.35755
51.355412006,-0.599475599999999,-5.362206,0.3648187,1.004389,0.1056991,-0.01979767,-44.88673,-35.02594,16.7397
51.365267754,-0.1025482,-5.421715,-0.002999276,1.002561,0.09155998,-0.02276614,-44.88673,-35.02594,16.7397
51.375123978,0.704958700000003,-5.540733,-0.1869083,0.9928055,0.09587537,-0.01684028,-44.88673,-35.02594,16.7397
51.384980202,1.13977,-5.71926,-0.2482113,0.9853766,0.09480794,-0.02441061,-44.88673,-35.02594,16.7397
51.397300243,1.13977,-5.362206,-0.3095143,0.9868802,0.1060604,-0.01187788,-44.88673,-35.02594,16.7397
51.407155991,0.518611,-5.18368,-0.4934232,0.9907321,0.1046128,-0.01769539,-45.26045,-35.02163,16.74163
51.417012215,-0.723707399999999,-5.243188,-0.6160293,0.994103,0.1085337,-0.01818955,-45.26045,-35.02163,16.74163
51.426867962,-1.096403,-4.707608,-0.6160293,0.9974787,0.1070856,-0.02304188,-45.26045,-35.02163,16.74163
51.436724186,-1.344867,-4.410063,-0.5547262,1.00444,0.1008315,-0.02031868,-45.26045,-35.02163,16.74163
51.446579933,-1.344867,-4.172028,-0.7999382,1.009377,0.1008875,-0.01703417,-45.26045,-35.02163,16.74163
51.45643568,-0.910055099999997,-3.933992,-0.7999382,1.007454,0.09697395,-0.01799819,-44.51299,-35.03026,16.73777
51.466291905,-0.661591500000002,-3.636448,-0.861241200000001,1.012792,0.09945047,-0.01901176,-44.51299,-35.03026,16.73777
51.476147652,-0.723707399999999,-3.219885,-0.861241200000001,1.015234,0.1014239,-0.01759231,-44.51299,-35.03026,16.73777
51.486004353,-0.972170899999998,-2.981849,-0.738635199999999,1.013226,0.1062743,-0.01704357,-44.51299,-35.03026,16.73777
51.4958601,-1.406982,-2.327251,-0.7999382,1.013687,0.1091999,-0.01654625,-44.51299,-35.03026,16.73777
51.505716324,-2.028141,-1.851179,-0.7999382,1.017929,0.111146,-0.02665347,-44.50822,-35.39306,17.12562
51.515572071,-2.649301,-1.434617,-0.7999382,1.013022,0.1135395,-0.02560494,-44.50822,-35.39306,17.12562
51.525428295,-3.27046,-0.8395277,-0.9838473,1.011601,0.109634,-0.02561764,-44.50822,-35.39306,17.12562
51.535284042,-4.140083,-0.482474,-1.412968,1.002243,0.1139277,-0.02640643,-44.50822,-35.39306,17.12562
51.54513979,-4.574894,-0.2444383,-1.903392,0.9964861,0.1017023,-0.02882355,-44.50822,-35.39306,17.12562
51.554996014,-4.202199,-0.0659114500000002,-2.393816,0.9975965,0.09442525,-0.0255464,-44.50822,-35.39306,17.12562
51.567316055,-2.835649,0.41016,-2.700331,0.9854084,0.08993473,-0.02636898,-44.50822,-35.39306,17.12562
51.577172279,-1.966026,0.588686800000003,-2.945543,0.9825829,0.08456953,-0.0230196,-44.50822,-35.39306,17.12562
51.587028503,-1.034287,0.945740400000001,-3.006846,0.9904257,0.08317865,-0.02314311,-44.50822,-35.39306,17.12562
51.596884251,-0.22678,0.826722499999999,-2.822937,0.9927337,0.08706682,-0.02985199,-44.50822,-35.39306,17.12562
51.606740475,0.2701473,0.826722499999999,-2.822937,0.9997277,0.08521604,-0.0208625,-44.88472,-35.39409,16.74347
51.616596222,0.3943791,0.767213600000002,-2.455119,1.006967,0.09404089,-0.020412,-44.88472,-35.39409,16.74347
51.626451969,0.02168363,0.826722499999999,-2.332513,1.004635,0.08770498,-0.01755704,-44.88472,-35.39409,16.74347
51.636308193,-0.4131278,0.588686800000003,-2.455119,1.005013,0.08718928,-0.02619237,-44.88472,-35.39409,16.74347
51.64616394,-0.22678,0.767213600000002,-2.455119,1.007553,0.08479648,-0.02145676,-44.88472,-35.39409,16.74347
51.656020164,-0.22678,0.886231499999998,-2.516422,1.008076,0.08139288,-0.02197214,-44.51099,-35.39841,16.74154
51.665875912,-0.04043229,1.481321,-2.393816,1.007507,0.08038943,-0.0286813,-44.51099,-35.39841,16.74154
51.675732613,-0.1646641,1.719357,-2.577725,1.005106,0.08379809,-0.02238871,-44.51099,-35.39841,16.74154
51.68558836,-0.2888959,2.373955,-2.393816,1.010923,0.07944083,-0.03017558,-44.51099,-35.39841,16.74154
51.695444584,-0.1646641,3.147571,-2.025998,1.016797,0.07412341,-0.03461697,-44.51099,-35.39841,16.74154
51.705300331,0.1459155,3.445116,-1.719483,1.012864,0.07359497,-0.03648217,-44.13325,-36.13902,16.74715
51.715156078,0.456495,3.861678,-1.412968,1.02105,0.07949038,-0.0408619,-44.13325,-36.13902,16.74715
51.725012302,0.891306400000001,4.218732,-1.290362,1.018195,0.0804637,-0.0341042,-44.13325,-36.13902,16.74715
51.737332344,1.015538,4.516277,-0.7999382,1.015663,0.07895274,-0.04174805,-44.13325,-36.13902,16.74715
51.747188091,0.953422400000001,4.218732,-0.3708172,1.016683,0.08483185,-0.03356657,-44.50822,-35.39306,17.12562
51.757043838,1.13977,4.040205,-0.3708172,1.003527,0.07887112,-0.03486698,-44.50822,-35.39306,17.12562
51.766900539,1.388234,3.861678,-0.0643022699999998,1.001972,0.08127439,-0.03913733,-44.50822,-35.39306,17.12562
51.776756763,1.574582,3.504625,0.3035157,0.9935353,0.08653685,-0.04328547,-44.50822,-35.39306,17.12562
51.786612511,1.388234,3.028553,0.5487277,0.9964997,0.0890123,-0.03899403,-44.50822,-35.39306,17.12562
51.796468258,0.953422400000001,2.731009,0.8552427,0.9945231,0.09289513,-0.03701629,-44.50822,-35.39306,17.12562
51.806324482,0.518611,2.433464,1.284364,0.9959955,0.09632709,-0.03365391,-44.51174,-35.7719,16.36123
51.816180229,0.02168363,1.838374,1.40697,0.9929756,0.09578869,-0.04032421,-44.51174,-35.7719,16.36123
51.826036453,-0.4131278,1.481321,1.713485,0.9998821,0.0963541,-0.03562588,-44.51174,-35.7719,16.36123
51.8358922,-0.22678,0.886231499999998,1.713485,1.003184,0.09732582,-0.04381113,-44.51174,-35.7719,16.36123
51.845747948,0.0837995400000001,0.41016,1.713485,0.9969679,0.09242822,-0.03753427,-44.51174,-35.7719,16.36123
51.855604172,0.7670746,0.2911422,1.958697,0.9979821,0.09049423,-0.03660665,-44.50697,-36.1347,16.74908
51.865460873,1.45035,-0.1254204,2.02,0.9950354,0.09534718,-0.0331693,-44.50697,-36.1347,16.74908
51.87531662,1.698813,-0.3634561,2.02,0.9954044,0.1021524,-0.03599233,-44.50697,-36.1347,16.74908
51.885172367,1.698813,-0.482474,2.02,0.994362,0.1070078,-0.0364157,-44.50697,-36.1347,16.74908
51.895028591,1.388234,-0.601491900000001,2.081303,1.000107,0.1109298,-0.04221487,-44.50697,-36.1347,16.74908
51.904884338,1.201886,-0.8395277,1.897394,1.00064,0.1143643,-0.03596389,-44.50772,-36.5082,16.36877
51.91720438,0.7670746,-0.9585455,2.02,1.006325,0.1221752,-0.04268779,-44.50772,-36.5082,16.36877
51.927060127,0.2080314,-1.196581,1.774788,1.0075,0.1144282,-0.03510273,-44.50772,-36.5082,16.36877
51.936916351,-0.4131278,-1.375108,1.590879,1.006482,0.11392,-0.0384469,-44.50772,-36.5082,16.36877
51.946772099,-0.661591500000002,-1.613144,1.468273,1.004577,0.1129408,-0.03555281,-44.88748,-35.39944,16.35939
51.956628799,-0.661591500000002,-2.089215,1.345667,1.005195,0.1037057,-0.03420196,-44.88748,-35.39944,16.35939
51.966484547,-0.4752437,-2.089215,1.223061,1.002276,0.1056373,-0.03126886,-44.88748,-35.39944,16.35939
51.976340771,0.02168363,-2.148724,1.223061,0.9939401,0.1040933,-0.03403828,-44.88748,-35.39944,16.35939
51.986196518,0.3943791,-2.38676,1.161758,0.9919714,0.1045608,-0.03448548,-44.88748,-35.39944,16.35939
51.996052742,0.518611,-2.267742,0.671333700000002,0.9860381,0.109373,-0.0348395,-44.88748,-35.39944,16.35939
52.005908489,0.3943791,-2.089215,0.610030700000002,0.9856257,0.1084142,-0.03004972,-44.14002,-35.40807,16.35553
52.015764236,0.0837995400000001,-2.148724,0.4874247,0.9866985,0.1021028,-0.02868067,-44.14002,-35.40807,16.35553
52.025620461,0.2080314,-2.148724,0.0583037200000001,0.994092,0.1012072,-0.02543921,-44.14002,-35.40807,16.35553
52.035476208,0.7670746,-2.089215,-0.1869083,0.9990545,0.09687664,-0.02410889,-44.14002,-35.40807,16.35553
52.045332909,1.201886,-1.910688,-0.1869083,1.003857,0.09445336,-0.03282338,-44.14002,-35.40807,16.35553
52.055188656,1.512466,-1.851179,-0.3708172,1.006348,0.09888194,-0.02563352,-44.88347,-36.13573,16.36693
52.06504488,1.388234,-1.732162,-0.3095143,1.007742,0.1105913,-0.02076257,-44.88347,-36.13573,16.36693
52.074900627,0.6428428,-1.79167,-0.1256053,1.003789,0.1095689,-0.02454845,-44.88347,-36.13573,16.36693
52.087220669,-0.4131278,-1.79167,-0.0643022699999998,1.005239,0.1115299,-0.02407337,-44.88347,-36.13573,16.36693
52.097076416,-0.5373596,-1.672653,-0.0643022699999998,1.004989,0.1013409,-0.0155302,-44.51174,-35.7719,16.36123
52.10693264,-0.661591500000002,-1.613144,-0.0643022699999998,0.9948328,0.09103052,-0.01595167,-44.51174,-35.7719,16.36123
52.116788387,-0.3510118,-1.196581,-0.0643022699999998,0.9914994,0.08614388,-0.0135494,-44.51174,-35.7719,16.36123
52.126644611,0.6428428,-0.7800187,-0.4934232,0.9905559,0.0832158,-0.01356067,-44.51174,-35.7719,16.36123
52.136500835,1.45035,-0.1849293,-0.4934232,0.9915963,0.08128924,-0.01071656,-44.51174,-35.7719,16.36123
52.14635706,2.257857,0.469669,-0.738635199999999,0.998335,0.08278324,-0.01750878,-44.51575,-35.03561,16.35369
52.156212807,2.941132,1.064758,-0.738635199999999,1.002082,0.08521158,-0.02760489,-44.51575,-35.03561,16.35369
52.166069031,3.189595,1.778866,-1.106453,1.013433,0.08826904,-0.01767767,-44.51575,-35.03561,16.35369
52.175924778,3.313827,2.195428,-1.106453,1.020798,0.08541228,-0.01828595,-44.51575,-35.03561,16.35369
52.185780525,3.189595,2.790517,-1.290362,1.018235,0.09414545,-0.01913412,-44.51575,-35.03561,16.35369
52.195636749,2.941132,3.445116,-1.412968,1.021645,0.09368344,-0.02062422,-44.51575,-35.03561,16.35369
52.205492497,2.50632,4.099714,-1.229059,1.019744,0.09124075,-0.01870093,-44.515,-34.66211,16.734
52.215348721,2.071509,4.456768,-1.167756,1.011416,0.0867698,-0.02341197,-44.515,-34.66211,16.734
52.225204945,1.947277,4.516277,-0.9838473,1.017164,0.09264556,-0.0272779,-44.515,-34.66211,16.734
52.235061169,1.388234,4.754313,-0.7999382,1.013763,0.08578661,-0.0316001,-44.515,-34.66211,16.734
52.244916916,1.574582,4.813821,-0.9838473,1.004026,0.08571351,-0.02810756,-44.515,-34.66211,16.734
52.257236958,1.885161,4.397259,-1.106453,1.006037,0.07842277,-0.03059374,-44.88271,-35.76224,16.74724
52.267092705,2.692668,4.040205,-1.04515,1.001701,0.07889104,-0.02525679,-44.88271,-35.76224,16.74724
52.276948929,3.251711,3.504625,-1.106453,0.9923776,0.08026527,-0.02607072,-44.88271,-35.76224,16.74724
52.286804676,3.748639,3.385607,-0.677332199999998,0.9932951,0.08318592,-0.02797594,-44.88271,-35.76224,16.74724
52.296660423,3.997102,3.028553,-0.6160293,0.9917542,0.08608134,-0.03080474,-44.51375,-35.40376,16.35746
52.306517124,3.934986,2.909535,-0.1256053,0.990687,0.08751204,-0.03604865,-44.51375,-35.40376,16.35746
52.316373348,4.059218,2.552482,0.3035157,0.9877041,0.0943076,-0.03355279,-44.51375,-35.40376,16.35746
52.326229096,3.562291,2.492973,0.732636699999998,0.9915829,0.09774994,-0.03309982,-44.51375,-35.40376,16.35746
52.336084843,2.8169,2.195428,1.284364,0.9929373,0.10066,-0.03884496,-44.51375,-35.40376,16.35746
52.345941067,2.133625,2.254937,1.652182,0.9983,0.1065612,-0.03503799,-44.88347,-36.13573,16.36693
52.355796814,1.201886,2.195428,2.081303,0.9995937,0.1123833,-0.04267449,-44.88347,-36.13573,16.36693
52.365653038,0.3943791,1.897883,2.265212,1.006952,0.1095247,-0.04376188,-44.88347,-36.13573,16.36693
52.375508785,-0.1025482,1.957392,2.449121,1.01563,0.1129841,-0.05008597,-44.88347,-36.13573,16.36693
52.385364533,-0.4131278,2.195428,2.142606,1.01474,0.1105593,-0.04578095,-44.88347,-36.13573,16.36693
52.395221233,-0.04043229,2.07641,2.449121,1.013223,0.1163909,-0.04427251,-44.88347,-36.13573,16.36693
52.405077458,-0.723707399999999,1.600339,2.449121,1.004799,0.1260512,-0.04359172,-44.50898,-35.76656,16.74531
52.414933205,-1.779678,1.005249,1.958697,0.99843,0.1318509,-0.03913921,-44.50898,-35.76656,16.74531
52.427253246,-3.767387,-0.1849293,1.529576,0.9888824,0.1230435,-0.02949347,-44.50898,-35.76656,16.74531
52.437108994,-4.823358,-0.9585455,1.100455,0.9857473,0.1157722,-0.01465497,-44.50898,-35.76656,16.74531
52.446965218,-5.81721300000001,-1.672653,0.977848700000001,0.9852321,0.1069724,-0.02430588,-44.51852,-35.04095,15.9696
52.456820965,-5.87932799999999,-2.089215,0.4874247,0.984662,0.1093861,-0.02811098,-44.51852,-35.04095,15.9696
52.466676712,-5.69298,-2.624796,0.1196067,0.9852153,0.1001325,-0.03155136,-44.51852,-35.04095,15.9696
52.476533413,-5.009706,-2.862831,-0.1256053,0.9885473,0.1128303,-0.02717889,-44.51852,-35.04095,15.9696
52.486389637,-4.450662,-3.100867,-0.3708172,0.9861053,0.1064629,-0.03246902,-44.51852,-35.04095,15.9696
52.496245384,-3.767387,-3.100867,-0.3708172,0.9928932,0.106018,-0.03736151,-44.51099,-35.39841,16.74154
52.506101132,-2.897764,-2.981849,-0.4934232,0.9968835,0.1099803,-0.02828016,-44.51099,-35.39841,16.74154
52.515957356,-2.028141,-2.505778,-0.0643022699999998,1.01353,0.1086669,-0.02852849,-44.51099,-35.39841,16.74154
52.525813103,-1.034287,-2.38676,0.1196067,1.02051,0.106324,-0.02098056,-44.51099,-35.39841,16.74154
52.535669327,-0.4131278,-1.970197,0.4874247,1.026185,0.1112025,-0.03108345,-44.51099,-35.39841,16.74154
52.545525074,0.518611,-1.732162,0.732636699999998,1.024729,0.1190045,-0.02332968,-44.51375,-35.40376,16.35746
52.555381775,0.580726900000002,-1.732162,0.977848700000001,1.018003,0.1170258,-0.01606251,-44.51375,-35.40376,16.35746
52.565237522,0.2080314,-1.79167,0.9165457,1.010662,0.1228187,-0.01111701,-44.51375,-35.40376,16.35746
52.575093746,-0.3510118,-1.553635,0.671333700000002,1.001914,0.1247098,-0.005225966,-44.51375,-35.40376,16.35746
52.584949493,-1.158519,-1.137072,0.4874247,0.9873542,0.1133838,-0.006551642,-44.51375,-35.40376,16.35746
52.597269535,-1.779678,-0.7800187,-0.0643022699999998,0.9868101,0.1114109,-0.01231093,-44.88748,-35.39944,16.35939
52.607125282,-1.90391,-0.3039472,-0.5547262,0.9808947,0.1108578,-0.01606488,-44.88748,-35.39944,16.35939
52.616981506,-1.344867,-0.00640253000000003,-0.738635199999999,0.9859489,0.1026476,-0.01141421,-44.88748,-35.39944,16.35939
52.626837253,-1.28275,0.6481957,-1.351665,0.990282,0.1002256,-0.0186844,-44.88748,-35.39944,16.35939
52.636693001,-1.034287,1.183776,-1.65818,0.9995949,0.1051955,-0.0130248,-44.88748,-35.39944,16.35939
52.646549702,-1.344867,1.362303,-1.964695,1.014659,0.1053011,-0.0204266,-44.89225,-35.03664,15.97154
52.656405926,-1.344867,1.719357,-2.148604,1.019636,0.101951,-0.01717141,-44.89225,-35.03664,15.97154
52.666261673,-1.28275,1.54083,-2.332513,1.018625,0.0975391,-0.02342383,-44.89225,-35.03664,15.97154
52.67611742,-1.158519,1.183776,-2.516422,1.013771,0.09555346,-0.022413,-44.89225,-35.03664,15.97154
52.685973644,-0.5373596,1.243285,-2.577725,1.004592,0.09355136,-0.01559029,-44.89225,-35.03664,15.97154
52.695829391,0.02168363,1.362303,-2.700331,0.994767,0.09491757,-0.01735552,-44.88949,-35.03129,16.35562
52.705685615,0.3943791,1.600339,-2.88424,0.9944433,0.08373124,-0.01504932,-44.88949,-35.03129,16.35562
52.715541363,0.7670746,1.362303,-3.252058,0.9836248,0.08361983,-0.01920886,-44.88949,-35.03129,16.35562
52.725398064,1.13977,1.302794,-3.435967,0.9899909,0.08465452,-0.01785327,-44.88949,-35.03129,16.35562
52.735253811,1.636697,0.945740400000001,-3.681179,0.9865962,0.0821915,-0.01782567,-44.88949,-35.03129,16.35562
52.745110035,2.133625,0.588686800000003,-3.865088,0.9884413,0.09047683,-0.01874044,-44.88949,-35.03129,16.35562
52.754965782,2.382088,0.2316332,-3.865088,0.9899296,0.09147219,-0.01635725,-44.51375,-35.40376,16.35746
52.767285824,2.071509,-0.1254204,-3.619876,0.9966951,0.09785611,-0.01687901,-44.51375,-35.40376,16.35746
52.777141571,0.953422400000001,-0.1849293,-2.822937,1.006368,0.1032816,-0.02032547,-44.51375,-35.40376,16.35746
52.786997795,-0.04043229,0.0531064,-2.148604,1.002912,0.1037306,-0.02218923,-44.51375,-35.40376,16.35746
52.796853542,-0.910055099999997,0.2911422,-1.229059,1.009149,0.1052166,-0.02993277,-44.51174,-35.7719,16.36123
52.806710243,-1.406982,-0.1254204,-0.738635199999999,1.010638,0.1023063,-0.03093695,-44.51174,-35.7719,16.36123
52.81656599,-1.779678,-0.0659114500000002,-0.2482113,1.01084,0.09357575,-0.02382552,-44.51174,-35.7719,16.36123
52.826422214,-1.717562,-0.00640253000000003,0.0583037200000001,1.008536,0.08822414,-0.01808745,-44.51174,-35.7719,16.36123
52.836277962,-1.28275,0.0531064,0.2422127,1.011559,0.08192816,-0.01722527,-44.51174,-35.7719,16.36123
52.846133709,-0.2888959,0.2316332,0.5487277,1.000782,0.07987601,-0.0199642,-44.14078,-35.78156,15.97521
52.855989933,0.2701473,0.41016,0.793939699999999,0.9998087,0.082798,-0.01705046,-44.14078,-35.78156,15.97521
52.86584568,0.456495,0.2911422,0.977848700000001,0.9949085,0.08079936,-0.01939349,-44.14078,-35.78156,15.97521
52.875701904,0.704958700000003,0.5291778,1.100455,0.9973503,0.07837871,-0.02184471,-44.14078,-35.78156,15.97521
52.885558128,0.891306400000001,0.826722499999999,1.345667,0.9979449,0.07499553,-0.01708975,-44.14078,-35.78156,15.97521
52.895414352,1.201886,1.005249,1.713485,1.002744,0.08331227,-0.01660876,-44.50974,-36.14005,16.365
52.9052701,1.574582,1.362303,2.02,1.007365,0.0940192,-0.02712664,-44.50974,-36.14005,16.365
52.915126324,0.7670746,1.481321,2.203909,1.008276,0.1057261,-0.02176963,-44.50974,-36.14005,16.365
52.924982071,-0.3510118,1.659848,2.510424,1.017051,0.1087249,-0.0213902,-44.50974,-36.14005,16.365
52.934837818,-1.779678,1.362303,2.878242,1.017011,0.1077369,-0.02523156,-44.50974,-36.14005,16.365
52.94715786,-2.152373,1.302794,3.246059,1.014113,0.1062569,-0.02376515,-44.51375,-35.40376,16.35746
52.957014561,-2.276605,1.421812,3.307363,1.015157,0.1023785,-0.02237516,-44.51375,-35.40376,16.35746
52.966870308,-1.966026,1.421812,3.307363,1.009802,0.09696762,-0.02521969,-44.51375,-35.40376,16.35746
52.976726532,-1.531214,1.183776,3.184757,1.00289,0.1017713,-0.02555984,-44.51375,-35.40376,16.35746
52.986582279,-1.158519,1.362303,2.816939,0.9915504,0.1021347,-0.03162476,-44.51375,-35.40376,16.35746
52.996438503,-0.4131278,1.600339,2.449121,0.9876658,0.09917895,-0.03207354,-44.13676,-36.51786,15.98275
53.00629425,0.3943791,1.719357,1.958697,0.981744,0.1030181,-0.03243593,-44.13676,-36.51786,15.98275
53.016149998,0.829190499999998,1.659848,1.284364,0.985583,0.1103549,-0.03147033,-44.13676,-36.51786,15.98275
53.026006222,1.264002,1.54083,0.977848700000001,0.9881731,0.102606,-0.02773904,-44.13676,-36.51786,15.98275
53.035862923,1.13977,1.362303,0.793939699999999,0.9973537,0.1104675,-0.02924114,-44.13676,-36.51786,15.98275
53.04571867,0.891306400000001,0.826722499999999,0.4874247,1.004653,0.1119862,-0.03076996,-44.5145,-35.77725,15.97715
53.060502529,0.891306400000001,0.2316332,0.1809097,1.007146,0.1046979,-0.0337422,-44.5145,-35.77725,15.97715
53.065430641,0.891306400000001,-0.00640253000000003,0.3035157,1.007694,0.1047189,-0.02943704,-44.5145,-35.77725,15.97715
53.075286388,0.6428428,-0.3634561,0.3035157,1.001802,0.1066136,-0.02933707,-44.5145,-35.77725,15.97715
53.085142612,0.6428428,-0.720509799999998,0.3648187,0.994938,0.1085015,-0.02874411,-44.5145,-35.77725,15.97715
53.09499836,0.2080314,-1.375108,0.671333700000002,0.995961,0.1080347,-0.02588743,-44.50772,-36.5082,16.36877
53.104854107,-0.1646641,-1.494126,0.8552427,0.9881268,0.1064986,-0.02770554,-44.50772,-36.5082,16.36877
53.117174625,-0.661591500000002,-1.732162,0.8552427,0.9920582,0.1060502,-0.02680695,-44.50772,-36.5082,16.36877
53.127030849,-0.785823300000002,-2.029706,1.161758,0.9905838,0.105547,-0.02774858,-44.50772,-36.5082,16.36877
53.136886597,-0.785823300000002,-2.029706,1.284364,0.995011,0.1051047,-0.02637782,-44.50772,-36.5082,16.36877
53.146742821,-0.5373596,-2.089215,1.40697,0.9935724,0.09826487,-0.03024863,-44.13249,-35.76553,17.12746
53.156598568,-0.1025482,-2.089215,1.100455,0.9975286,0.1012411,-0.02452951,-44.13249,-35.76553,17.12746
53.166454315,0.0837995400000001,-1.970197,1.039152,0.9980632,0.09686431,-0.02505327,-44.13249,-35.76553,17.12746
53.176310539,0.1459155,-2.148724,1.039152,1.000499,0.09932429,-0.02362963,-44.13249,-35.76553,17.12746
53.18616724,0.02168363,-2.267742,0.610030700000002,0.9942381,0.09880774,-0.01683596,-44.13249,-35.76553,17.12746
53.196022987,-0.5373596,-2.327251,0.4874247,0.9961604,0.09344476,-0.0240966,-44.88824,-35.77293,15.97908
53.205878735,-0.4752437,-2.624796,0.0583037200000001,1.002098,0.09156309,-0.02084272,-44.88824,-35.77293,15.97908
53.215734959,-0.22678,-2.743814,-0.002999276,1.003596,0.09011999,-0.01991784,-44.88824,-35.77293,15.97908
53.225590706,-0.04043229,-2.624796,0.1196067,1.002558,0.0891178,-0.0251827,-44.88824,-35.77293,15.97908
53.23544693,0.0837995400000001,-2.446269,0.1196067,1.008435,0.09063661,-0.02333685,-44.88824,-35.77293,15.97908
53.245302677,-0.04043229,-2.267742,0.2422127,1.007247,0.09349734,-0.03623416,-44.50898,-35.76656,16.74531
53.255158424,0.456495,-1.553635,0.4261217,1.009778,0.08963737,-0.0334276,-44.50898,-35.76656,16.74531
53.265015125,0.829190499999998,-0.8990365,0.4874247,1.010646,0.09449691,-0.03723256,-44.50898,-35.76656,16.74531
53.274871349,0.953422400000001,-0.661000799999998,0.1809097,1.009142,0.09593817,-0.03863656,-44.50898,-35.76656,16.74531
53.287190914,1.264002,0.0531064,0.1196067,1.013028,0.09987079,-0.03722116,-44.50898,-35.76656,16.74531
53.297047138,1.326118,0.2911422,-0.002999276,1.010117,0.1027811,-0.03284232,-44.50898,-35.76656,16.74531
53.306902886,1.326118,0.2316332,-0.1256053,1.00819,0.1052135,-0.02848154,-44.50898,-35.76656,16.74531
53.31675911,1.201886,-0.1849293,-0.4934232,1.001808,0.106127,-0.02934126,-44.50898,-35.76656,16.74531
53.326614857,0.829190499999998,-0.601491900000001,-0.738635199999999,0.9999799,0.100776,-0.02456837,-44.50898,-35.76656,16.74531
53.336471558,0.7670746,-0.8990365,-0.861241200000001,0.994084,0.1002285,-0.02688496,-44.50898,-35.76656,16.74531
53.346327305,1.015538,-1.375108,-0.861241200000001,0.9912124,0.09436187,-0.02737274,-44.50697,-36.1347,16.74908
53.356183529,1.388234,-1.672653,-1.04515,0.9878762,0.09191556,-0.02303304,-44.50697,-36.1347,16.74908
53.366039276,1.636697,-2.029706,-0.9838473,0.9851885,0.09963658,-0.03395116,-44.50697,-36.1347,16.74908
53.375895023,1.512466,-2.267742,-0.677332199999998,0.9841975,0.1084124,-0.02715418,-44.50697,-36.1347,16.74908
53.385751247,1.077654,-2.624796,-0.3708172,0.9880785,0.11332,-0.02525128,-44.50697,-36.1347,16.74908
53.395606995,0.02168363,-2.92234,-0.0643022699999998,0.9836304,0.121568,-0.02128468,-44.50898,-35.76656,16.74531
53.405463696,-1.406982,-3.100867,0.3648187,0.9855044,0.1274204,-0.0222204,-44.50898,-35.76656,16.74531
53.415319443,-2.462953,-3.279394,0.4261217,0.9924543,0.1221395,-0.01948882,-44.50898,-35.76656,16.74531
53.425175667,-3.27046,-3.219885,0.793939699999999,0.9983486,0.112922,-0.02588021,-44.50898,-35.76656,16.74531
53.435031414,-3.021996,-3.457921,1.161758,1.008195,0.1081441,-0.02558167,-44.50898,-35.76656,16.74531
53.447351456,-2.338721,-3.398412,1.345667,1.011212,0.1067288,-0.02084462,-45.25368,-35.75258,17.13326
53.457207203,-2.028141,-3.457921,1.039152,1.00868,0.1101003,-0.02413448,-45.25368,-35.75258,17.13326
53.467063427,-1.779678,-3.219885,0.8552427,1.012685,0.1062551,-0.02086961,-45.25368,-35.75258,17.13326
53.476920128,-1.344867,-2.981849,0.5487277,1.007285,0.1057138,-0.02271401,-45.25368,-35.75258,17.13326
53.486775875,-0.972170899999998,-2.565287,0.2422127,0.9989381,0.1061198,-0.02450843,-45.25368,-35.75258,17.13326
53.496631622,-0.785823300000002,-2.267742,-0.3095143,0.9950682,0.1085386,-0.01916166,-44.51299,-35.03026,16.73777
53.506487846,-0.8479392,-1.732162,-1.04515,0.995393,0.1119137,-0.0282426,-44.51299,-35.03026,16.73777
53.516343594,-1.096403,-1.196581,-1.351665,0.9921241,0.1065572,-0.02153242,-44.51299,-35.03026,16.73777
53.526199818,-1.469098,-0.661000799999998,-1.65818,0.9926855,0.1026763,-0.01965638,-44.51299,-35.03026,16.73777
53.536055565,-1.469098,0.0531064,-2.332513,0.9959999,0.1036518,-0.02688337,-44.51299,-35.03026,16.73777
53.545911312,-1.717562,0.2316332,-2.88424,0.9980278,0.09929534,-0.02551144,-44.51375,-35.40376,16.35746
53.555768013,-1.717562,0.5291778,-3.129452,1.010876,0.09212158,-0.02240071,-44.51375,-35.40376,16.35746
53.565624237,-1.034287,1.005249,-3.374664,1.012805,0.09506012,-0.0219242,-44.51375,-35.40376,16.35746
53.575479984,-0.4752437,1.005249,-3.681179,1.016317,0.08925688,-0.02058564,-44.51375,-35.40376,16.35746
53.585335731,0.1459155,1.302794,-3.742482,1.017295,0.0892655,-0.02059951,-44.51375,-35.40376,16.35746
53.595191955,0.6428428,1.124267,-3.803785,1.018868,0.08589093,-0.01585841,-44.88748,-35.39944,16.35939
53.605047703,1.264002,1.302794,-3.619876,1.009984,0.08871991,-0.01906231,-44.88748,-35.39944,16.35939
53.614903927,1.947277,1.421812,-3.49727,1.008445,0.08819815,-0.02479517,-44.88748,-35.39944,16.35939
53.627224445,2.319973,1.778866,-3.129452,1.008489,0.08723427,-0.02240793,-44.88748,-35.39944,16.35939
53.637080192,1.823045,2.016901,-2.822937,1.006422,0.09157956,-0.02665459,-44.88748,-35.39944,16.35939
53.646936417,1.201886,2.195428,-2.332513,1.004441,0.08862615,-0.03096409,-44.13601,-36.14437,16.36307
53.656792164,0.953422400000001,2.61199,-1.65818,0.9994935,0.09393732,-0.03036955,-44.13601,-36.14437,16.36307
53.666647911,0.3322632,3.028553,-1.229059,1.005941,0.08815991,-0.02907259,-44.13601,-36.14437,16.36307
53.676504135,0.02168363,3.20708,-0.922544200000002,1.010256,0.08719765,-0.03633022,-44.13601,-36.14437,16.36307
53.686359882,0.3322632,3.504625,-0.4934232,1.013223,0.07844464,-0.04171757,-44.13601,-36.14437,16.36307
53.696216583,0.704958700000003,3.385607,-0.3095143,1.017654,0.0848386,-0.03405957,-44.13601,-36.14437,16.36307
53.70607233,0.829190499999998,3.028553,-0.0643022699999998,1.018036,0.09164758,-0.03592435,-44.13601,-36.14437,16.36307
53.715928554,0.7670746,2.731009,0.2422127,1.017537,0.09359331,-0.03494241,-44.13601,-36.14437,16.36307
53.725784302,0.580726900000002,2.195428,0.3648187,1.011702,0.0945278,-0.03149696,-44.13601,-36.14437,16.36307
53.735640526,0.3322632,1.54083,0.610030700000002,1.006315,0.09399016,-0.03238312,-44.13601,-36.14437,16.36307
53.745496273,-0.1646641,1.362303,0.8552427,0.996981,0.09682599,-0.03270536,-44.134,-36.51252,16.36684
53.75535202,-0.1646641,0.945740400000001,1.345667,0.9890781,0.09722327,-0.03786056,-44.134,-36.51252,16.36684
53.765208721,-0.1646641,0.588686800000003,1.345667,0.9869685,0.1035093,-0.04352783,-44.134,-36.51252,16.36684
53.775064945,-0.4752437,0.41016,1.590879,0.9826106,0.09811262,-0.04494887,-44.134,-36.51252,16.36684
53.784920692,-0.3510118,0.2911422,1.468273,0.9855452,0.1025325,-0.0411198,-44.134,-36.51252,16.36684
53.797240734,0.1459155,-0.0659114500000002,1.590879,0.9914795,0.1026027,-0.03641179,-44.5125,-36.14539,15.98092
53.807096481,0.2080314,-0.2444383,1.284364,0.9953625,0.1001876,-0.04080031,-44.5125,-36.14539,15.98092
53.816952705,0.3943791,-0.3039472,1.039152,0.9948714,0.1075061,-0.03450195,-44.5125,-36.14539,15.98092
53.826808453,0.456495,-0.720509799999998,0.9165457,1.006082,0.1080824,-0.03705287,-44.5125,-36.14539,15.98092
53.836665153,0.456495,-0.720509799999998,0.732636699999998,1.005171,0.1095576,-0.03079784,-44.5125,-36.14539,15.98092
53.846520901,0.3943791,-0.9585455,0.4874247,1.004186,0.1090587,-0.03174641,-44.50974,-36.14005,16.365
53.856377125,0.2701473,-1.434617,0.5487277,1.006021,0.1149,-0.03555686,-44.50974,-36.14005,16.365
53.866232872,-0.1646641,-1.553635,0.4874247,1.006036,0.1163691,-0.03314868,-44.50974,-36.14005,16.365
53.876088619,-0.785823300000002,-1.79167,0.2422127,1.001829,0.1032038,-0.03032463,-44.50974,-36.14005,16.365
53.885944843,-0.723707399999999,-1.613144,0.3648187,0.9964868,0.1021908,-0.02834024,-44.50974,-36.14005,16.365
53.895801544,-0.4131278,-1.732162,0.3648187,0.9900679,0.1006528,-0.03401213,-44.13877,-36.14971,15.97898
53.905657291,0.2080314,-1.672653,0.0583037200000001,0.9872404,0.09382229,-0.03211268,-44.13877,-36.14971,15.97898
53.915513039,0.953422400000001,-1.494126,-0.2482113,0.9883357,0.09386431,-0.02350234,-44.13877,-36.14971,15.97898
53.925369263,1.698813,-1.196581,-0.3708172,0.9907347,0.08899035,-0.03124486,-44.13877,-36.14971,15.97898
53.93522501,2.382088,-1.196581,-0.4321202,0.9961843,0.09638093,-0.01975937,-44.13877,-36.14971,15.97898
53.945081234,2.692668,-1.196581,-0.3095143,0.9976747,0.09884159,-0.01592625,-44.13525,-35.77087,16.74338
53.954936981,2.319973,-1.196581,-0.1256053,0.9972023,0.09688912,-0.0164152,-44.13525,-35.77087,16.74338
53.9672575,1.885161,-1.196581,-0.0643022699999998,1.004977,0.09792,-0.0193925,-44.13525,-35.77087,16.74338
53.977113247,1.698813,-1.25609,0.1196067,1.00352,0.1003511,-0.01647602,-44.13525,-35.77087,16.74338
53.986969471,1.264002,-1.137072,0.610030700000002,1.006949,0.09940624,-0.01701206,-44.13525,-35.77087,16.74338
53.996825218,0.580726900000002,-1.137072,0.9165457,1.011265,0.1033265,-0.0199157,-44.14002,-35.40807,16.35553
54.006681442,-0.1646641,-0.9585455,1.284364,1.005065,0.09599226,-0.01461803,-44.14002,-35.40807,16.35553
54.016537189,-0.785823300000002,-0.8395277,1.529576,1.007879,0.1018422,-0.01844236,-44.14002,-35.40807,16.35553
54.026392937,-1.158519,-0.661000799999998,1.590879,1.007878,0.09695969,-0.02279634,-44.14002,-35.40807,16.35553
54.036249638,-0.910055099999997,-0.5419829,1.836091,1.006092,0.08917949,-0.01708616,-44.14002,-35.40807,16.35553
54.046105862,-0.785823300000002,-0.3039472,1.897394,1.00447,0.09058733,-0.02711436,-43.76429,-35.78053,16.35736
54.055961609,-0.04043229,0.0531064,1.836091,1.001607,0.08569942,-0.0261564,-43.76429,-35.78053,16.35736
54.065817356,0.704958700000003,0.588686800000003,1.652182,0.9986897,0.08860791,-0.02225668,-43.76429,-35.78053,16.35736
54.07567358,1.388234,0.886231499999998,1.468273,1.003597,0.08670279,-0.0228219,-43.76429,-35.78053,16.35736
54.085529327,1.698813,1.243285,1.40697,0.992843,0.09051558,-0.01880285,-43.76429,-35.78053,16.35736
54.095385551,2.009393,1.600339,1.284364,0.9923091,0.09098671,-0.02166646,-44.50974,-36.14005,16.365
54.105241776,2.444204,1.838374,0.9165457,0.9936895,0.09390424,-0.02549511,-44.50974,-36.14005,16.365
54.115098,2.319973,2.07641,0.8552427,0.9976139,0.09735958,-0.02168829,-44.50974,-36.14005,16.365
54.124953747,2.568436,2.195428,0.8552427,1.006866,0.09645335,-0.0256614,-44.50974,-36.14005,16.365
54.137273788,2.319973,2.433464,0.671333700000002,1.008139,0.1056871,-0.0318312,-44.50974,-36.14005,16.365
54.147129536,2.133625,2.552482,0.5487277,1.010056,0.1100873,-0.03086299,-44.50697,-36.1347,16.74908
54.15698576,1.885161,2.433464,0.1809097,1.009216,0.101818,-0.0280456,-44.50697,-36.1347,16.74908
54.166842461,1.823045,2.373955,0.4874247,1.010152,0.1047442,-0.02851346,-44.50697,-36.1347,16.74908
54.176698208,2.009393,1.957392,0.2422127,1.004424,0.09838557,-0.02369348,-44.50697,-36.1347,16.74908
54.186553955,1.885161,1.957392,0.5487277,1.001006,0.1022629,-0.01977845,-44.50697,-36.1347,16.74908
54.196410179,1.823045,1.897883,0.793939699999999,0.9959854,0.1026712,-0.02880824,-44.14278,-35.41341,15.97144
54.206265926,1.326118,1.838374,0.793939699999999,0.9944698,0.1050856,-0.03020386,-44.14278,-35.41341,15.97144
54.21612215,1.45035,1.600339,1.223061,0.9969564,0.1021895,-0.02978454,-44.14278,-35.41341,15.97144
54.225977898,1.015538,1.778866,1.652182,0.9964601,0.106089,-0.02686936,-44.14278,-35.41341,15.97144
54.235834599,0.518611,1.838374,1.897394,0.9977502,0.1094689,-0.03692242,-44.14278,-35.41341,15.97144
54.245690346,0.2080314,1.838374,1.836091,1.003216,0.1056348,-0.03415747,-44.1345,-35.39738,17.12369
54.25554657,-0.1646641,1.778866,1.958697,1.003661,0.110997,-0.03268096,-44.1345,-35.39738,17.12369
54.265402317,-0.3510118,1.957392,2.142606,1.000264,0.1026746,-0.03797397,-44.1345,-35.39738,17.12369
54.275258064,-0.04043229,1.719357,1.958697,1.003628,0.1065937,-0.03894725,-44.1345,-35.39738,17.12369
54.285114288,0.518611,1.659848,1.713485,1.00757,0.1041952,-0.03902367,-44.1345,-35.39738,17.12369
54.294970989,0.953422400000001,1.243285,1.590879,1.005139,0.1100368,-0.03271014,-44.88271,-35.76224,16.74724
54.307290554,1.015538,1.124267,1.345667,1.003135,0.1173294,-0.02974484,-44.88271,-35.76224,16.74724
54.317146778,0.7670746,1.005249,1.161758,1.003039,0.122184,-0.03257769,-44.88271,-35.76224,16.74724
54.327002525,0.2701473,1.005249,1.223061,0.9986013,0.1245763,-0.03297345,-44.88271,-35.76224,16.74724
54.336858749,-0.661591500000002,1.064758,1.161758,0.9927061,0.1245172,-0.03480673,-44.88271,-35.76224,16.74724
54.346714497,-1.28275,0.886231499999998,1.039152,0.9878182,0.1264279,-0.03280414,-44.50622,-35.76121,17.12939
54.356570244,-1.344867,0.469669,0.671333700000002,0.9922828,0.1206259,-0.03339594,-44.50622,-35.76121,17.12939
54.366426945,-1.779678,0.0531064,0.3648187,0.9943541,0.1104231,-0.03399076,-44.50622,-35.76121,17.12939
54.376283169,-1.28275,-0.1254204,-0.1869083,0.9978696,0.1109677,-0.02684828,-44.50622,-35.76121,17.12939
54.386138916,-0.910055099999997,-0.4229651,-0.4321202,0.9934488,0.1070177,-0.0316106,-44.50622,-35.76121,17.12939
54.395994663,-0.661591500000002,-0.720509799999998,-0.677332199999998,0.9941037,0.1090222,-0.01770623,-44.88748,-35.39944,16.35939
54.405850887,-0.3510118,-1.25609,-0.861241200000001,0.9892055,0.1040948,-0.02247,-44.88748,-35.39944,16.35939
54.415706635,-0.599475599999999,-1.25609,-0.9838473,0.9911597,0.1026467,-0.02394767,-44.88748,-35.39944,16.35939
54.425563336,-0.599475599999999,-1.553635,-1.04515,0.9989041,0.1051336,-0.02787066,-44.88748,-35.39944,16.35939
54.435419083,-0.4752437,-1.494126,-0.861241200000001,1.000785,0.1065938,-0.03219793,-44.88748,-35.39944,16.35939
54.445275307,-0.3510118,-1.494126,-1.106453,1.004358,0.1022726,-0.02509734,-45.25568,-35.38443,17.12949
54.455131054,-0.785823300000002,-1.434617,-0.9838473,1.007758,0.1042491,-0.02512912,-45.25568,-35.38443,17.12949
54.464987278,-1.220635,-1.315599,-0.9838473,1.003888,0.1061795,-0.02026567,-45.25568,-35.38443,17.12949
54.477306843,-1.717562,-1.196581,-1.04515,1.009342,0.103807,-0.01700903,-45.25568,-35.38443,17.12949
54.487163544,-1.655446,-1.196581,-1.412968,1.009378,0.09307625,-0.0238089,-45.25568,-35.38443,17.12949
54.497019768,-0.972170899999998,-1.196581,-1.474271,1.006566,0.08771477,-0.01950127,-44.1345,-35.39738,17.12369
54.506875515,-0.1646641,-1.25609,-1.65818,1.006206,0.08677073,-0.01087851,-44.1345,-35.39738,17.12369
54.516731262,0.6428428,-1.25609,-1.903392,1.004233,0.08870168,-0.0103549,-44.1345,-35.39738,17.12369
54.526587486,0.7670746,-1.077563,-2.025998,0.9988049,0.1003582,-0.003470373,-44.1345,-35.39738,17.12369
54.536443234,0.2701473,-0.7800187,-1.780786,1.002176,0.09988505,-0.007835206,-44.1345,-35.39738,17.12369
54.546299457,-0.723707399999999,-0.5419829,-1.474271,0.9977984,0.09887686,-0.006822927,-44.51099,-35.39841,16.74154
54.556155682,-1.406982,-0.2444383,-1.04515,0.9948213,0.09639773,-0.01207261,-44.51099,-35.39841,16.74154
54.566011906,-1.59333,-0.00640253000000003,-0.6160293,1.003605,0.0959812,-0.01411811,-44.51099,-35.39841,16.74154
54.575867653,-1.28275,0.1126153,-0.3095143,1.013937,0.09364799,-0.01188906,-44.51099,-35.39841,16.74154
54.585723877,-1.096403,0.3506511,0.1196067,1.011999,0.09705354,-0.007519905,-44.51099,-35.39841,16.74154
54.595579624,-1.158519,0.588686800000003,0.1809097,1.011136,0.09561303,-0.0003317669,-44.14278,-35.41341,15.97144
54.605435371,-1.344867,1.064758,0.2422127,1.005263,0.08921358,-0.006052476,-44.14278,-35.41341,15.97144
54.615292072,-0.972170899999998,1.421812,0.3648187,1.001461,0.08432822,-0.00220591,-44.14278,-35.41341,15.97144
54.625148296,-0.4752437,1.957392,0.671333700000002,0.9997907,0.08376931,-0.01752121,-44.14278,-35.41341,15.97144
54.635004043,0.1459155,2.433464,0.4874247,0.9983625,0.08376753,-0.01462567,-44.14278,-35.41341,15.97144
54.647324085,0.7670746,3.028553,0.5487277,0.9923757,0.09198215,-0.01590862,-45.26196,-35.76862,15.98101
54.657179832,1.201886,3.20708,0.5487277,1.002066,0.1003419,-0.01549697,-45.26196,-35.76862,15.98101
54.667036056,0.7670746,3.445116,0.4874247,1.010796,0.1038162,-0.01798808,-45.26196,-35.76862,15.98101
54.676892281,-0.4131278,3.564133,0.2422127,1.014678,0.1092122,-0.01560187,-45.26196,-35.76862,15.98101
54.686748505,-1.406982,3.504625,0.3648187,1.019078,0.1038801,-0.02050158,-45.26196,-35.76862,15.98101
54.696604252,-2.028141,3.504625,0.3035157,1.019677,0.09415095,-0.02107141,-44.13802,-35.77622,16.3593
54.706460476,-1.90391,3.504625,0.1809097,1.020497,0.09753218,-0.02968016,-44.13802,-35.77622,16.3593
54.716316223,-1.096403,2.969044,-0.002999276,1.01568,0.09018675,-0.0306319,-44.13802,-35.77622,16.3593
54.72617197,-0.4131278,2.909535,-0.1256053,1.008856,0.09257423,-0.02668089,-44.13802,-35.77622,16.3593
54.736028671,-0.04043229,2.790517,-0.4934232,0.9999681,0.09296104,-0.03230135,-44.13802,-35.77622,16.3593
54.745884895,0.0837995400000001,2.790517,-0.9838473,0.9882054,0.08943311,-0.03695547,-44.50974,-36.14005,16.365
54.755740642,1.015538,2.492973,-0.922544200000002,0.9808988,0.09181815,-0.03251841,-44.50974,-36.14005,16.365
54.76559639,1.388234,2.61199,-1.04515,0.9770417,0.0898467,-0.03008407,-44.50974,-36.14005,16.365
54.775452614,1.885161,2.195428,-1.04515,0.9795125,0.0893872,-0.02868557,-44.50974,-36.14005,16.365
54.785308361,2.568436,2.016901,-1.290362,0.9849553,0.08359376,-0.02929123,-44.50974,-36.14005,16.365
54.795165062,2.941132,1.659848,-1.229059,0.9892206,0.09238163,-0.03167386,-44.891,-35.77828,15.59499
54.805020809,2.941132,1.124267,-1.167756,0.9931037,0.09875458,-0.02832102,-44.891,-35.77828,15.59499
54.814877033,2.630552,0.469669,-0.861241200000001,1.005822,0.1042374,-0.02366402,-44.891,-35.77828,15.59499
54.827196598,1.264002,-0.5419829,-0.4321202,1.00621,0.1110483,-0.02504968,-44.891,-35.77828,15.59499
54.837052822,-0.1646641,-1.613144,-0.002999276,1.005266,0.1076317,-0.02554425,-44.891,-35.77828,15.59499
54.846908569,-1.034287,-2.029706,0.4874247,1.004409,0.101799,-0.02174767,-44.51375,-35.40376,16.35746
54.85676527,-1.344867,-2.565287,0.793939699999999,1.000422,0.09588482,-0.03228315,-44.51375,-35.40376,16.35746
54.866621017,-0.910055099999997,-2.624796,1.223061,0.9926991,0.09438035,-0.02595618,-44.51375,-35.40376,16.35746
54.876477241,-0.599475599999999,-2.684305,1.529576,0.9911683,0.09532575,-0.02975997,-44.51375,-35.40376,16.35746
54.886332989,-0.2888959,-2.565287,1.713485,0.9887531,0.0938482,-0.02877962,-44.51375,-35.40376,16.35746
54.896189213,-0.04043229,-2.624796,1.897394,0.9864204,0.08653542,-0.02689129,-45.26121,-35.39512,16.36132
54.90604496,0.0837995400000001,-2.505778,1.774788,0.9898353,0.08509839,-0.02886889,-45.26121,-35.39512,16.36132
54.915900707,0.6428428,-2.148724,1.897394,0.9981123,0.09053136,-0.02702421,-45.26121,-35.39512,16.36132
54.925757408,0.829190499999998,-2.148724,1.897394,1.00047,0.09687469,-0.02796267,-45.26121,-35.39512,16.36132
54.935613632,0.891306400000001,-2.208233,1.836091,1.01223,0.09454324,-0.02862917,-45.26121,-35.39512,16.36132
54.945469379,0.7670746,-2.208233,1.713485,1.014972,0.1091609,-0.02998247,-44.14278,-35.41341,15.97144
54.955325127,0.456495,-2.446269,1.590879,1.023307,0.1102165,-0.02769637,-44.14278,-35.41341,15.97144
54.965181351,0.3943791,-2.089215,1.468273,1.014362,0.111075,-0.03714562,-44.14278,-35.41341,15.97144
54.975037098,-0.2888959,-1.910688,1.468273,1.005067,0.113922,-0.03459312,-44.14278,-35.41341,15.97144
54.984893799,-0.4752437,-1.910688,1.468273,1.007117,0.1110364,-0.03033389,-44.14278,-35.41341,15.97144
54.99721384,-0.3510118,-1.910688,1.223061,0.9960079,0.1046305,-0.02543763,-44.51575,-35.03561,16.35369
55.007069588,-0.22678,-2.089215,1.161758,0.9891397,0.1035878,-0.02774454,-44.51575,-35.03561,16.35369
55.016925812,0.580726900000002,-2.208233,1.039152,0.9887792,0.09824968,-0.02299246,-44.51575,-35.03561,16.35369
55.026781559,0.891306400000001,-2.684305,0.8552427,0.9795871,0.09575544,-0.0176113,-44.51575,-35.03561,16.35369
55.03663826,1.45035,-2.862831,0.793939699999999,0.9887844,0.1060628,-0.0157386,-44.51575,-35.03561,16.35369
55.046494007,1.201886,-2.565287,1.100455,0.994163,0.1095273,-0.01291082,-44.51375,-35.40376,16.35746
55.056350231,-0.1646641,-2.565287,1.100455,0.9968771,0.1187666,-0.02101792,-44.51375,-35.40376,16.35746
55.066205978,-1.220635,-2.862831,1.284364,1.000681,0.1197463,-0.02825185,-44.51375,-35.40376,16.35746
55.076061726,-1.841794,-3.100867,1.039152,1.003598,0.1168378,-0.03215157,-44.51375,-35.40376,16.35746
55.08591795,-1.966026,-2.981849,0.9165457,1.007563,0.1129815,-0.03176144,-44.51375,-35.40376,16.35746
55.095774651,-2.338721,-3.041358,0.732636699999998,1.00433,0.1100764,-0.02023909,-44.88472,-35.39409,16.74347
55.105630398,-2.276605,-3.457921,0.4261217,1.003439,0.1027692,-0.02028806,-44.88472,-35.39409,16.74347
55.115486145,-2.090257,-3.219885,0.1196067,1.004997,0.09841401,-0.01747182,-44.88472,-35.39409,16.74347
55.125342369,-1.717562,-2.743814,-0.1869083,0.9952409,0.09345286,-0.01977064,-44.88472,-35.39409,16.74347
55.135198116,-1.034287,-2.862831,-0.4934232,0.9966199,0.09539352,-0.02456591,-44.88472,-35.39409,16.74347
55.14505434,-0.4131278,-2.38676,-0.738635199999999,0.997041,0.09781957,-0.02742663,-44.50898,-35.76656,16.74531
55.154910564,0.02168363,-1.910688,-1.167756,0.9964839,0.100237,-0.03027349,-44.50898,-35.76656,16.74531
55.167230606,0.7670746,-1.613144,-1.351665,0.998886,0.1017108,-0.03221208,-44.50898,-35.76656,16.74531
55.17708683,0.580726900000002,-1.25609,-1.596877,1.006138,0.1105394,-0.03080333,-44.50898,-35.76656,16.74531
55.186942577,0.0837995400000001,-1.196581,-1.903392,1.004728,0.1100548,-0.02695374,-44.50898,-35.76656,16.74531
55.196798325,-0.2888959,-1.137072,-1.780786,1.007298,0.1057175,-0.02175577,-44.50822,-35.39306,17.12562
55.206654549,-0.599475599999999,-1.137072,-1.842089,0.9966597,0.1002872,-0.01733718,-44.50822,-35.39306,17.12562
55.21651125,-0.5373596,-1.25609,-1.842089,0.9976349,0.09834202,-0.0192843,-44.50822,-35.39306,17.12562
55.226366997,-0.5373596,-1.25609,-1.903392,0.9932367,0.09635139,-0.02067601,-44.50822,-35.39306,17.12562
55.236222744,-0.4752437,-1.494126,-1.65818,1.001524,0.09592871,-0.0231937,-44.50822,-35.39306,17.12562
55.246078968,-0.3510118,-1.553635,-1.474271,0.9972247,0.09445437,-0.01691526,-44.51099,-35.39841,16.74154
55.255934715,-0.785823300000002,-1.375108,-1.290362,1.000543,0.09836042,-0.02124239,-44.51099,-35.39841,16.74154
55.265790939,-0.8479392,-1.553635,-0.677332199999998,1.002541,0.09546002,-0.02081614,-44.51099,-35.39841,16.74154
