Time (s),Gyroscope X (deg/s),Gyroscope Y (deg/s),Gyroscope Z (deg/s),Accelerometer X (g),Accelerometer Y (g),Accelerometer Z (g),Magnetometer X (uT),Magnetometer Y (uT),Magnetometer Z (uT)
25.267988205,-0.2488386,6.351208,1.871783,0.4464532,-0.4712456,0.9280001,-20.94817,-15.91589,-31.33627
25.277898789,-0.9301572,6.70071999999997,1.626331,0.4496224,-0.4615786,0.9145908,-20.94817,-15.91589,-31.33627
25.287808895,-0.2488386,7.807507,1.687694,0.4555107,-0.4814943,0.8932766,-20.57391,-15.91586,-31.33821
25.300196648,2.538374,9.78807399999997,2.853589,0.4520019,-0.4903625,0.8745239,-20.57391,-15.91586,-31.33821
25.310106754,5.139772,11.88514,3.467218,0.4390091,-0.4701795,0.8709372,-20.57391,-15.91586,-31.33821
25.320016861,7.55535600000002,12.75892,3.835396,0.4175044,-0.4419117,0.8573999,-20.57391,-15.91586,-31.33821
25.329926491,10.03288,12.58417,3.344493,0.3961841,-0.3972109,0.8334067,-20.57391,-15.91586,-31.33821
25.339836598,11.7052,12.40941,2.730864,0.3893546,-0.3711952,0.817798,-20.94332,-16.29048,-31.33511
25.349747181,12.20071,11.59388,2.301323,0.3914036,-0.3533217,0.8001323,-20.94332,-16.29048,-31.33511
25.359657288,12.13877,10.37059,1.871783,0.3842425,-0.3355229,0.7902338,-20.94332,-16.29048,-31.33511
25.369567394,11.33358,8.15701899999998,1.319517,0.3790213,-0.3225859,0.7730825,-20.94332,-16.29048,-31.33511
25.379477024,11.33358,5.652184,0.767250500000003,0.3716381,-0.2985613,0.7488228,-20.94332,-16.29048,-31.33511
25.389387131,11.39551,3.14735,0.03089567,0.3595492,-0.2754777,0.7414058,-20.57529,-15.91743,-31.72368
25.399297714,11.08582,1.399791,-0.766822200000002,0.3613247,-0.2628641,0.7385924,-20.57529,-15.91743,-31.72368
25.409207821,10.65226,-0.3477675,-0.5213705,0.3890542,-0.2606374,0.7273073,-20.57529,-15.91743,-31.72368
25.419117928,11.58133,-0.988539100000001,-0.03046724,0.4132182,-0.2597429,0.7482167,-20.57529,-15.91743,-31.72368
25.429027557,10.03288,-2.619594,0.2149844,0.3881302,-0.2337923,0.7639866,-20.57529,-15.91743,-31.72368
25.438938141,7.05985200000002,-7.454507,-0.214556,0.3605009,-0.219142,0.7571374,-20.19619,-16.29199,-31.72448
25.448848248,5.015896,-12.52243,-0.214556,0.3678396,-0.2141698,0.7633447,-20.19619,-16.29199,-31.72448
25.458758354,2.228683,-14.6195,-0.950910899999997,0.3730256,-0.1898125,0.7730622,-20.19619,-16.29199,-31.72448
25.468667984,-1.4876,-17.06608,-3.221339,0.3723672,-0.1908824,0.7552953,-20.19619,-16.29199,-31.72448
25.478578091,-2.354732,-19.04665,-4.080419,0.4060678,-0.2477922,0.7325172,-20.19619,-16.29199,-31.72448
25.488488674,-0.1869005,-18.69714,-3.221339,0.4203521,-0.2760925,0.7571648,-19.45114,-15.91577,-31.34405
25.498398781,-2.354732,-20.96896,-3.098613,0.4142688,-0.2613958,0.8010134,-19.45114,-15.91577,-31.34405
25.508308888,-5.451635,-24.23107,-3.528153,0.4271649,-0.274312,0.803689,-19.45114,-15.91577,-31.34405
25.518218517,-5.389697,-26.03688,-3.528153,0.4230279,-0.3000836,0.7992342,-19.45114,-15.91577,-31.34405
25.528129101,-3.655432,-26.67765,-3.957693,0.4190689,-0.332104,0.8048193,-19.45114,-15.91577,-31.34405
25.538039208,-0.4346527,-26.15339,-4.9395,0.4321267,-0.3924927,0.8153399,-20.9371,-16.66351,-30.94849
25.547949314,2.66225,-25.0466,-5.36904,0.4353902,-0.4276458,0.8539684,-20.9371,-16.66351,-30.94849
25.557859421,4.334577,-25.62912,-4.080419,0.4567341,-0.4611149,0.8934011,-20.9371,-16.66351,-30.94849
25.570247173,6.502409,-23.99806,-1.073637,0.4938439,-0.4467693,0.9526932,-20.9371,-16.66351,-30.94849
25.58015728,5.077834,-23.00778,0.1536215,0.4875551,-0.4329156,0.9278753,-20.9371,-16.66351,-30.94849
25.59006691,6.997913,-22.94953,-1.319088,0.5146106,-0.468104,0.9024225,-20.93411,-16.66011,-30.11331
25.599977016,9.04186800000002,-18.34762,-0.4600076,0.5344769,-0.5250116,0.9133834,-20.93411,-16.66011,-30.11331
25.6098876,10.40451,-14.56125,0.6445247,0.5168915,-0.5247352,0.9154685,-20.93411,-16.66011,-30.11331
25.619797707,10.83807,-12.93019,1.503605,0.5039834,-0.5025569,0.9224579,-20.93411,-16.66011,-30.11331
25.629707813,10.90001,-11.64865,1.933146,0.4918793,-0.4819203,0.9107033,-20.93411,-16.66011,-30.11331
25.639617443,13.06784,-10.89137,2.914952,0.4743675,-0.4662442,0.8903229,-22.04905,-17.0314,-29.27114
25.649528026,18.33258,-8.095279,4.387662,0.4716614,-0.4256835,0.8646896,-22.04905,-17.0314,-29.27114
25.659438133,21.80111,-4.600161,3.099041,0.4522071,-0.4090494,0.8467344,-22.04905,-17.0314,-29.27114
25.66934824,22.97793,-1.745815,1.012702,0.458325,-0.4312846,0.8450892,-22.04905,-17.0314,-29.27114
25.679258346,25.82708,0.933775699999999,2.117234,0.4739788,-0.4232801,0.8550811,-22.04905,-17.0314,-29.27114
25.68916893,26.81809,1.982311,3.589944,0.4786225,-0.3704244,0.8453069,-22.72388,-17.77882,-28.81555
25.69907856,24.09282,1.458043,3.099041,0.4785984,-0.3204413,0.8538028,-22.72388,-17.77882,-28.81555
25.708988666,20.74816,1.516295,2.301323,0.471631,-0.2993754,0.818956,-22.72388,-17.77882,-28.81555
25.718898773,21.11979,0.642515800000001,3.958122,0.4765447,-0.3183261,0.7990978,-22.72388,-17.77882,-28.81555
25.728808403,26.01289,-1.046791,6.596727,0.455422,-0.3059571,0.8041772,-22.72388,-17.77882,-28.81555
25.738719463,28.55235,-3.143862,7.578534,0.4394918,-0.264101,0.873266,-22.7225,-17.77725,-28.43008
25.748629093,29.04786,-2.50309,5.614921,0.4597911,-0.2303086,0.8896288,-22.7225,-17.77725,-28.43008
25.7585392,27.37553,0.9920276,2.853589,0.4657332,-0.2187373,0.862762,-22.7225,-17.77725,-28.43008
25.768449306,21.49142,1.574547,1.871783,0.4719327,-0.2299589,0.8343006,-22.7225,-17.77725,-28.43008
25.77835989,19.0139,2.331823,3.896759,0.5109357,-0.1929429,0.8663571,-22.7225,-17.77725,-28.43008
25.78826952,18.02289,7.28324000000001,6.10582399999999,0.5217154,-0.1842554,0.926335,-22.41386,-17.4008,-27.98315
25.798179626,15.79312,8.97254599999999,5.246743,0.4920462,-0.2084495,0.913484,-22.41386,-17.4008,-27.98315
25.808089733,13.56335,6.70071999999997,4.14221,0.4907129,-0.2671745,0.9054226,-22.41386,-17.4008,-27.98315
25.818000317,13.68722,11.30262,4.878565,0.5413821,-0.3368679,0.9011286,-22.41386,-17.4008,-27.98315
25.827910423,18.39451,19.34139,6.84217800000002,0.5506788,-0.3226018,0.9184232,-22.41386,-17.4008,-27.98315
25.837820053,19.88103,25.16659,8.00807399999998,0.5308728,-0.3527229,0.9544177,-22.03151,-18.15178,-28.4325
25.850208282,17.40351,24.58407,8.00807399999998,0.4963793,-0.4128023,0.8583047,-22.03151,-18.15178,-28.4325
25.860118389,19.26165,20.7977,10.21714,0.446568,-0.4321792,0.7942952,-22.03151,-18.15178,-28.4325
25.870028019,23.65925,18.23461,10.03305,0.4601051,-0.3950146,0.8227469,-22.03151,-18.15178,-28.4325
25.879938126,19.07583,18.46762,9.60350899999999,0.4471448,-0.3792049,0.8172102,-22.02021,-18.89915,-27.98048
25.889848232,17.34157,16.48705,10.46259,0.4364354,-0.3888313,0.7629871,-22.02021,-18.89915,-27.98048
25.899758816,23.84506,16.48705,12.4262,0.4110321,-0.361333,0.7974966,-22.02021,-18.89915,-27.98048
25.909668446,28.92398,14.50648,14.083,0.4018146,-0.2723915,0.8610751,-22.02021,-18.89915,-27.98048
25.919578552,30.906,16.25404,11.81257,0.4597994,-0.2522466,0.9600658,-22.02021,-18.89915,-27.98048
25.929488659,34.37453,22.3705,9.11260599999998,0.4981538,-0.232393,0.9564822,-21.65565,-18.14993,-27.98473
25.939399242,31.58732,21.49672,8.06943700000002,0.4582762,-0.1879129,0.9345799,-21.65565,-18.14993,-27.98473
25.949309349,26.32258,16.95306,9.235332,0.4722899,-0.1514758,1.008637,-21.65565,-18.14993,-27.98473
25.959218979,22.42049,19.39965,9.54214699999998,0.4900673,-0.08604679,1.054524,-21.65565,-18.14993,-27.98473
25.969129086,17.58932,21.32196,8.25352600000003,0.480195,-0.03623095,0.9608362,-21.65565,-18.14993,-27.98473
25.979039669,12.13877,23.18603,7.33308200000001,0.4907257,-0.01060873,0.9210562,-20.90713,-18.14987,-27.98862
25.988949776,4.148763,25.80736,8.00807399999998,0.473546,-0.04719445,0.919531,-20.90713,-18.14987,-27.98862
25.998859882,-1.79729,27.67143,10.33986,0.4577934,-0.1384079,0.9454776,-20.90713,-18.14987,-27.98862
26.008769512,-5.699387,28.71996,12.73302,0.4435078,-0.1803434,0.9338066,-20.90713,-18.14987,-27.98862
26.018679619,-11.39769,26.27338,15.55571,0.4268126,-0.1883932,0.917582,-20.90713,-18.14987,-27.98862
26.028590202,-15.67141,20.33168,17.15115,0.3775092,-0.1940956,0.8714246,-20.52317,-18.89903,-27.98826
26.038500309,-16.22886,16.25404,16.78297,0.3557183,-0.2088948,0.8748887,-20.52317,-18.89903,-27.98826
26.048409939,-19.51157,16.07928,14.88072,0.3191147,-0.2615135,0.8201386,-20.52317,-18.89903,-27.98826
26.058320045,-21.74134,15.03075,13.71482,0.2927622,-0.2949882,0.7860681,-20.52317,-18.89903,-27.98826
26.068230629,-20.44064,13.45795,13.28528,0.3013626,-0.2744947,0.7904465,-20.52317,-18.89903,-27.98826
26.078140736,-16.97211,11.9434,11.01486,0.2987015,-0.2658574,0.779485,-20.1616,-18.1532,-28.8277
26.088050842,-12.3887,7.05023200000001,8.80579200000003,0.2914211,-0.247145,0.7590302,-20.1616,-18.1532,-28.8277
26.097960472,-8.73435200000001,4.02113,7.63989600000002,0.3242697,-0.2369328,0.7794412,-20.1616,-18.1532,-28.8277
26.107871056,-5.018068,3.322106,7.08763000000002,0.3277438,-0.2251559,0.7982137,-20.1616,-18.1532,-28.8277
26.120258808,-3.779308,1.691051,5.553557,0.3281965,-0.2134613,0.8083708,-20.1616,-18.1532,-28.8277
26.130168438,-1.177909,-1.920571,3.467218,0.3078325,-0.2199702,0.8176388,-19.05312,-17.40915,-30.12074
26.140079021,-1.673414,-7.27975100000002,1.442243,0.2982519,-0.2304727,0.8723955,-19.05312,-17.40915,-30.12074
26.149989128,-3.71737,-8.91080699999998,-0.214556,0.310014,-0.2671366,0.8797249,-19.05312,-17.40915,-30.12074
26.159899235,-4.02706,-10.83312,-0.5213705,0.2923976,-0.2605349,0.8861739,-19.05312,-17.40915,-30.12074
26.169808865,-6.194891,-16.0758,-1.56454,0.2826524,-0.2413758,0.8643044,-19.05312,-17.40915,-30.12074
26.179718971,-6.25683000000001,-17.5321,-3.03725,0.2970072,-0.2398921,0.835372,-19.43547,-16.65816,-29.67139
26.189629555,-4.150936,-14.38649,-3.650879,0.2948167,-0.2607661,0.8357334,-19.43547,-16.65816,-29.67139
26.199539661,-1.983104,-13.39621,-3.528153,0.2874308,-0.2613725,0.8300357,-19.43547,-16.65816,-29.67139
26.209449768,-1.983104,-12.63893,-3.834968,0.3037373,-0.2625449,0.8452422,-19.43547,-16.65816,-29.67139
26.219359398,-4.64644,-12.11466,-4.325871,0.304118,-0.2650342,0.8317777,-19.43547,-16.65816,-29.67139
26.229269981,-9.04404300000003,-16.94958,-3.957693,0.2915243,-0.2653796,0.7953998,-19.42092,-17.78195,-29.66792
26.239180088,-9.663423,-21.66799,-3.159976,0.2929425,-0.2790452,0.7746488,-19.42092,-17.78195,-29.66792
26.249090195,-6.194891,-26.6194,-2.116806,0.2919317,-0.281753,0.8159338,-19.42092,-17.78195,-29.66792
26.259000301,-7.557528,-30.87179,-2.546346,0.2920032,-0.2800041,0.8726034,-19.42092,-17.78195,-29.66792
26.268910885,-8.85822799999998,-33.55138,-5.184951,0.3469672,-0.3157905,0.9453208,-19.42092,-17.78195,-29.66792
26.278820515,-12.26482,-31.97858,-6.90311299999998,0.4092639,-0.3439295,0.9791286,-19.79704,-17.40398,-28.83195
26.288730621,-14.1849,-29.47375,-8.13037100000001,0.436786,-0.3040103,0.9440886,-19.79704,-17.40398,-28.83195
26.298640728,-16.97211,-25.57087,-9.72580600000002,0.4610364,-0.2660064,0.92155,-19.79704,-17.40398,-28.83195
26.308551312,-19.07801,-17.7651,-9.05081500000002,0.4583242,-0.2803226,0.8787456,-19.79704,-17.40398,-28.83195
26.318461418,-12.45063,-10.07585,-6.289484,0.4409409,-0.1943445,0.8578721,-19.79704,-17.40398,-28.83195
26.328371048,-4.088998,-2.386586,-6.289484,0.4113044,-0.1099981,0.8322994,-20.54556,-17.40405,-28.82806
26.338281155,0.43248,4.778405,-9.35762899999997,0.3725399,-0.1481051,0.8698564,-20.54556,-17.40405,-28.82806
26.348191261,-1.301785,7.28324000000001,-9.84853300000002,0.3757907,-0.1649677,0.9763091,-20.54556,-17.40405,-28.82806
26.358101845,-9.663423,8.098766,-11.3826,0.3825394,-0.1502981,0.9840268,-20.54556,-17.40405,-28.82806
26.368011952,-16.10498,8.27352199999998,-14.57348,0.3870485,-0.1650691,0.929629,-20.54556,-17.40405,-28.82806
26.377921581,-20.50258,5.82694100000001,-16.23028,0.3666794,-0.1801217,0.8807409,-21.29568,-17.40593,-29.27388
26.387831688,-23.10398,-0.1730116,-18.56207,0.3565795,-0.1887038,0.8394836,-21.29568,-17.40593,-29.27388
26.400219441,-32.39468,-18.69714,-18.80752,0.2881711,-0.1585569,0.9272256,-21.29568,-17.40593,-29.27388
26.410129547,-49.24184,-44.15324,-15.12574,0.2776262,0.02556094,1.115811,-21.29568,-17.40593,-29.27388
26.420039654,-66.3367399999998,-53.53181,-17.76435,0.2882285,0.1933936,1.011197,-21.29568,-17.40593,-29.27388
26.429950237,-81.5115699999998,-52.48327,-30.77328,0.3040531,0.01463978,0.6286139,-20.55041,-17.02945,-28.82921
26.439860344,-90.8022699999999,-51.25998,-27.15287,0.3083155,-0.3570671,0.370654,-20.55041,-17.02945,-28.82921
26.449769974,-79.6534199999999,-45.26003,-13.59167,0.4183803,-0.6068573,0.3684521,-20.55041,-17.02945,-28.82921
26.459680081,-58.9661099999998,-29.35724,-5.859943,0.5946646,-0.6023102,0.5411496,-20.55041,-17.02945,-28.82921
26.469590664,-33.57151,-3.668129,-6.84175,0.6450076,-0.6585059,0.6161745,-20.55041,-17.02945,-28.82921
26.479500771,-3.779308,4.60365,-5.000863,0.5744267,-0.6328866,0.6774979,-21.31807,-15.91095,-30.11367
26.489410401,12.69621,4.312389,-4.694048,0.5574095,-0.5040218,0.885462,-21.31807,-15.91095,-30.11367
26.499320507,14.98792,-2.619594,-3.834968,0.4792297,-0.4122992,0.9031215,-21.31807,-15.91095,-30.11367
26.509231091,8.48442599999998,-18.46413,-3.221339,0.4682288,-0.2708577,0.9973162,-21.31807,-15.91095,-30.11367
26.519141197,-13.44164,-26.79416,-4.571322,0.4792765,-0.2525319,0.9517211,-21.31807,-15.91095,-30.11367
26.529051304,-35.36771,-33.26012,-7.76219299999999,0.4988171,-0.3864427,0.7931563,-22.74973,-15.90767,-29.27103
26.538960934,-40.44663,-31.27956,-8.37582199999997,0.5854963,-0.5108862,0.8030494,-22.74973,-15.90767,-29.27103
26.548871517,-30.90817,-24.40583,-8.31446000000002,0.6528978,-0.5232422,0.8762881,-22.74973,-15.90767,-29.27103
26.558781624,-18.64444,-12.52243,-12.42577,0.700722,-0.5561013,0.8761072,-22.74973,-15.90767,-29.27103
26.56869173,-2.478608,-1.512807,-14.94165,0.6800528,-0.5571638,0.8143508,-22.74973,-15.90767,-29.27103
26.578601837,14.3066,7.574499,-14.57348,0.6358792,-0.5131721,0.8020881,-23.49664,-15.9059,-28.81743
26.588512421,22.48243,10.72011,-9.97125800000001,0.5905069,-0.4149127,0.8795074,-23.49664,-15.9059,-28.81743
26.59842205,12.57234,9.67157,-4.448596,0.5376664,-0.3124246,0.9488614,-23.49664,-15.9059,-28.81743
26.608332157,-2.850237,9.84632599999999,-3.834968,0.5008742,-0.286117,0.9681031,-23.49664,-15.9059,-28.81743
26.618242264,-17.34374,5.069665,-5.73721700000003,0.4753452,-0.3103915,0.9297648,-23.49664,-15.9059,-28.81743
26.62815237,-28.49259,-2.910854,-6.53493500000002,0.4674949,-0.3570934,0.8248518,-24.23408,-16.65358,-28.42576
26.638062954,-31.40368,-6.17296399999999,-6.289484,0.4914959,-0.4196984,0.7555502,-24.23408,-16.65358,-28.42576
26.647972584,-27.56352,-3.668129,-5.98266900000002,0.5233631,-0.4375535,0.6951167,-24.23408,-16.65358,-28.42576
26.65788269,-16.47661,0.933775699999999,-5.79858000000001,0.5165496,-0.46031,0.6239647,-24.23408,-16.65358,-28.42576
26.667792797,-1.363724,8.27352199999998,-5.491766,0.525303,-0.4777857,0.598799,-24.23408,-16.65358,-28.42576
26.68018055,15.35955,12.75892,-1.257725,0.4886036,-0.4299664,0.6522745,-24.24192,-16.28238,-29.26209
26.690090656,27.62328,14.15697,1.749057,0.4796102,-0.3082252,0.7760892,-24.24192,-16.28238,-29.26209
26.700000763,31.4015,14.9725,0.6445247,0.4632735,-0.2558489,0.8178828,-24.24192,-16.28238,-29.26209
26.709911346,24.21669,11.9434,-3.650879,0.4338264,-0.280903,0.8256708,-24.24192,-16.28238,-29.26209
26.719820976,10.34257,5.011413,-6.71902399999997,0.4335726,-0.3490706,0.8641118,-24.24192,-16.28238,-29.26209
26.729731083,-3.159927,-2.677846,-6.22812100000001,0.4680993,-0.3445837,0.8983938,-23.12399,-15.9077,-29.26909
26.73964119,-13.13195,-9.085562,-4.264508,0.5057244,-0.3004711,0.8997802,-23.12399,-15.9077,-29.26909
26.749551773,-15.36172,-13.1632,-1.99408,0.5153996,-0.3362609,0.8000595,-23.12399,-15.9077,-29.26909
26.75946188,-8.548538,-12.75544,-1.441814,0.534498,-0.3833241,0.7477123,-23.12399,-15.9077,-29.26909
26.769371509,-2.726361,-7.454507,-1.748629,0.5478657,-0.4155072,0.7737829,-23.12399,-15.9077,-29.26909
26.779281616,-0.744343000000003,-0.3477675,-2.423621,0.5424832,-0.430938,0.8030196,-23.11754,-16.28046,-28.81822
26.7891922,0.680232200000002,3.904626,-3.03725,0.5182719,-0.4428282,0.8122873,-23.11754,-16.28046,-28.81822
26.799102306,2.35256,5.94344499999998,-3.650879,0.5031304,-0.4288632,0.8302861,-23.11754,-16.28046,-28.81822
26.809011936,3.591321,6.75897199999999,-4.387233,0.4848657,-0.4101555,0.8353813,-23.11754,-16.28046,-28.81822
26.818922043,3.591321,6.81722400000001,-4.816774,0.4755541,-0.4083317,0.8354796,-23.11754,-16.28046,-28.81822
26.828832626,2.042869,5.535681,-4.387233,0.4735996,-0.4088434,0.8350141,-24.22576,-17.40434,-28.80892
26.838742733,-0.1249625,3.904626,-3.46679,0.4745439,-0.4093364,0.8311608,-24.22576,-17.40434,-28.80892
26.84865284,-2.292794,2.623082,-2.914524,0.4724682,-0.3972281,0.8336614,-24.22576,-17.40434,-28.80892
26.858562469,-3.283803,2.098815,-2.484983,0.4732256,-0.3973306,0.8120466,-24.22576,-17.40434,-28.80892
26.86847353,-2.168918,1.749303,-2.116806,0.4699679,-0.3941213,0.784249,-24.22576,-17.40434,-28.80892
26.87838316,0.0608516599999998,0.933775699999999,-1.503177,0.4743295,-0.3945743,0.7798842,-23.86281,-16.65695,-29.26289
26.888293266,1.237675,1.108532,-0.644096300000003,0.4891457,-0.3801675,0.8110535,-23.86281,-16.65695,-29.26289
26.898203373,-0.001086392,1.225035,0.0922585699999997,0.4937123,-0.3614895,0.8490681,-23.86281,-16.65695,-29.26289
26.908113956,-2.602484,1.341539,0.0922585699999997,0.5022536,-0.3434658,0.8447878,-23.86281,-16.65695,-29.26289
26.918023586,-4.212874,1.05028,-0.09183015,0.502035,-0.3445551,0.8222151,-23.86281,-16.65695,-29.26289
26.927933693,-3.593493,1.283287,-0.766822200000002,0.5077862,-0.3538105,0.800013,-23.86281,-16.65695,-29.26289
26.9378438,-1.921166,2.390074,-0.828185100000001,0.5160644,-0.3546998,0.7956091,-23.86281,-16.65695,-29.26289
26.950231552,-0.4346527,3.72987,-0.828185100000001,0.5171642,-0.3363359,0.7813166,-23.86281,-16.65695,-29.26289
26.960141659,0.1227897,4.137634,-1.135,0.5083686,-0.3252236,0.7949163,-23.86281,-16.65695,-29.26289
26.970051765,0.43248,3.496862,-1.319088,0.4984706,-0.3210176,0.7883137,-23.48855,-16.65692,-29.26483
26.979962349,-0.001086392,2.564831,-1.135,0.4935206,-0.3196469,0.7840472,-23.48855,-16.65692,-29.26483
26.989871979,-0.806281,0.875523700000001,-0.582733500000001,0.4929381,-0.3114089,0.7845876,-23.48855,-16.65692,-29.26483
26.999782085,-2.292794,-0.580775400000001,-0.5213705,0.495398,-0.3011266,0.7980777,-23.48855,-16.65692,-29.26483
27.009692192,-4.088998,-1.512807,-0.3986447,0.4979402,-0.3010452,0.807658,-23.48855,-16.65692,-29.26483
27.019602776,-5.451635,-2.328334,-0.705459200000001,0.5013556,-0.3107623,0.7955577,-23.48508,-17.03308,-29.64915
27.029512882,-5.327759,-2.153579,-1.196362,0.5053913,-0.325283,0.7906221,-23.48508,-17.03308,-29.64915
27.039422512,-3.965122,-1.687563,-1.56454,0.5009893,-0.3268022,0.7887321,-23.48508,-17.03308,-29.64915
27.049332619,-3.097989,-0.8720351,-2.055443,0.5015818,-0.3325958,0.792049,-23.48508,-17.03308,-29.64915
27.059243202,-3.469617,0.0599961999999999,-2.300895,0.5032862,-0.3339173,0.8136316,-23.48508,-17.03308,-29.64915
27.069153309,-4.274812,0.642515800000001,-2.423621,0.5029896,-0.3426038,0.8222193,-23.49825,-15.90773,-29.26714
27.079063416,-5.141944,1.225035,-2.669072,0.4957729,-0.3499515,0.825118,-23.49825,-15.90773,-29.26714
27.088973045,-6.13295399999998,1.982311,-3.098613,0.4873967,-0.3491132,0.8199193,-23.49825,-15.90773,-29.26714
27.098883629,-6.00907800000001,3.030846,-3.589516,0.4821533,-0.3554517,0.8256875,-23.49825,-15.90773,-29.26714
27.108793736,-6.194891,4.137634,-3.650879,0.4782918,-0.3691331,0.8145885,-23.49825,-15.90773,-29.26714
27.118703842,-5.947139,4.836657,-3.773605,0.4774001,-0.3759298,0.8150316,-23.11567,-16.65845,-29.65225
27.128613949,-7.00008600000001,4.894909,-3.03725,0.4817455,-0.3729765,0.8130904,-23.11567,-16.65845,-29.65225
27.138524532,-6.50458200000001,4.836657,-2.546346,0.4807589,-0.3734811,0.8116557,-23.11567,-16.65845,-29.65225
27.148434162,-6.50458200000001,4.370642,-2.116806,0.479929,-0.3846359,0.8130296,-23.11567,-16.65845,-29.65225
27.158344269,-6.69039600000003,3.43861,-1.748629,0.4753739,-0.3828202,0.8001195,-23.11567,-16.65845,-29.65225
27.168254375,-7.062024,2.390074,-1.441814,0.4738499,-0.3862829,0.7905074,-23.87251,-15.90776,-29.26519
27.178164959,-6.25683000000001,2.157067,-1.257725,0.4811432,-0.3886514,0.783702,-23.87251,-15.90776,-29.26519
27.188075066,-5.513573,1.924059,-1.196362,0.471833,-0.3848757,0.786214,-23.87251,-15.90776,-29.26519
27.197984695,-5.080007,1.341539,-0.766822200000002,0.4767742,-0.3813731,0.7953146,-23.87251,-15.90776,-29.26519
27.207894802,-5.141944,0.642515800000001,-0.2759189,0.4780243,-0.3648821,0.7934923,-23.87251,-15.90776,-29.26519
27.217805386,-5.327759,-0.3477675,0.1536215,0.4789606,-0.3556232,0.8002675,-23.11567,-16.65845,-29.65225
27.230192661,-5.76132499999998,-1.512807,0.3377102,0.4855402,-0.3449441,0.7868333,-23.11567,-16.65845,-29.65225
27.240102768,-5.76132499999998,-1.978823,0.6445247,0.4844624,-0.3411059,0.7815872,-23.11567,-16.65845,-29.65225
27.250013351,-6.00907800000001,-2.21183,0.767250500000003,0.4966576,-0.3346263,0.7863191,-23.11567,-16.65845,-29.65225
27.259923458,-6.318768,-1.920571,1.012702,0.4919154,-0.331684,0.8041484,-23.11567,-16.65845,-29.65225
27.269833088,-7.557528,-2.153579,0.767250500000003,0.4869516,-0.3308083,0.7979581,-23.4943,-16.66345,-30.87095
27.279743195,-8.36272300000002,-2.328334,0.828613499999998,0.4835843,-0.3366759,0.7965097,-23.4943,-16.66345,-30.87095
27.289653778,-8.176909,-2.386586,0.3377102,0.4896003,-0.3487203,0.796854,-23.4943,-16.66345,-30.87095
27.299563885,-8.176909,-2.037075,-0.03046724,0.4934092,-0.3492126,0.786252,-23.4943,-16.66345,-30.87095
27.309473515,-8.42466199999997,-1.978823,-0.3372818,0.492432,-0.3521513,0.7828804,-23.4943,-16.66345,-30.87095
27.319383621,-8.42466199999997,-1.396303,-0.828185100000001,0.492908,-0.3531276,0.7804686,-23.11243,-17.03488,-30.10081
27.329294205,-8.48660000000001,-1.221547,-0.766822200000002,0.5030517,-0.3530637,0.7683713,-23.11243,-17.03488,-30.10081
27.339204311,-8.11497100000001,-1.279799,-0.03046724,0.5227764,-0.3654153,0.7700273,-23.11243,-17.03488,-30.10081
27.349114418,-7.18590000000003,-1.687563,0.5217989,0.531564,-0.4036005,0.7716122,-23.11243,-17.03488,-30.10081
27.359024048,-5.637449,-1.862319,0.5217989,0.538242,-0.4218901,0.781512,-23.11243,-17.03488,-30.10081
27.368935108,-4.522564,-1.629311,1.319517,0.5344214,-0.4257942,0.7858427,-23.49777,-16.28729,-30.48664
27.378844738,-3.841246,-1.687563,1.626331,0.5147253,-0.4183058,0.7812732,-23.49777,-16.28729,-30.48664
27.388754845,-3.469617,-1.512807,1.503605,0.4965038,-0.4151854,0.7723395,-23.49777,-16.28729,-30.48664
27.398664951,-2.912175,-1.978823,1.503605,0.4835979,-0.4076401,0.7624257,-23.49777,-16.28729,-30.48664
27.408575535,-1.735352,-2.386586,1.933146,0.4857119,-0.4192407,0.7642496,-23.49777,-16.28729,-30.48664
27.418485165,-0.9301572,-2.79435,2.546775,0.4881905,-0.4191925,0.767588,-23.87389,-15.90933,-29.65066
27.428395271,-0.744343000000003,-2.852602,2.914952,0.4774176,-0.4149451,0.771077,-23.87389,-15.90933,-29.65066
27.438305378,-0.2488386,-3.668129,3.099041,0.4637762,-0.4219201,0.7677956,-23.87389,-15.90933,-29.65066
27.448215962,0.804108299999999,-4.075893,2.608138,0.4652415,-0.4238538,0.7653684,-23.87389,-15.90933,-29.65066
27.458126068,1.733179,-4.425405,2.117234,0.4701773,-0.417427,0.7773696,-23.87389,-15.90933,-29.65066
27.468035698,1.547365,-3.37687,2.301323,0.4743602,-0.4240662,0.7960128,-23.8658,-16.66035,-30.09807
27.477945805,-0.1869005,-3.027358,1.626331,0.4710285,-0.4279641,0.8003391,-23.8658,-16.66035,-30.09807
27.487856388,-0.9301572,-3.143862,1.258154,0.4785008,-0.4424346,0.7968125,-23.8658,-16.66035,-30.09807
27.500243664,-0.1869005,-2.79435,0.951339199999998,0.4818593,-0.4531569,0.7779838,-23.8658,-16.66035,-30.09807
27.510153771,1.299613,-2.910854,0.6445247,0.482118,-0.4686321,0.7850807,-23.8658,-16.66035,-30.09807
27.520064354,2.724188,-2.677846,0.460436,0.4811928,-0.4705681,0.7879574,-23.48993,-16.65849,-29.6503
27.529974461,4.210701,-2.619594,-0.214556,0.4709391,-0.4721525,0.7875614,-23.48993,-16.65849,-29.6503
27.539884091,5.88302899999997,-2.444838,-1.809992,0.4601276,-0.4654863,0.7901066,-23.48993,-16.65849,-29.6503
27.549794197,7.24566599999997,-2.328334,-2.669072,0.4629111,-0.4533326,0.7896817,-23.48993,-16.65849,-29.6503
27.55970478,8.54636400000002,-1.862319,-3.46679,0.4715001,-0.4426011,0.7815111,-23.48993,-16.65849,-29.6503
27.569614887,9.72318700000001,-1.046791,-4.141782,0.4728086,-0.4285188,0.7825531,-24.61916,-16.28581,-30.09533
27.579524994,10.15675,-0.930287099999998,-3.957693,0.4760267,-0.4134605,0.7802228,-24.61916,-16.28581,-30.09533
27.589434624,9.90900100000002,-1.105043,-3.528153,0.485287,-0.4060427,0.7859485,-24.61916,-16.28581,-30.09533
27.599345207,9.47543500000001,-1.862319,-2.484983,0.4905822,-0.4011407,0.7835314,-24.61916,-16.28581,-30.09533
27.609255314,9.97093999999998,-2.969106,-1.380451,0.5007491,-0.403016,0.7714209,-24.61916,-16.28581,-30.09533
27.61916542,10.52838,-4.017641,0.03089567,0.5022303,-0.3976243,0.7791258,-23.86419,-16.65852,-29.64836
27.629075527,10.21869,-4.658412,1.258154,0.5056149,-0.3771135,0.7993976,-23.86419,-16.65852,-29.64836
27.638986111,8.85605400000001,-5.532192,1.749057,0.4982088,-0.358706,0.8139936,-23.86419,-16.65852,-29.64836
27.64889574,7.24566599999997,-6.69723099999998,1.994509,0.5092331,-0.337705,0.8169125,-23.86419,-16.65852,-29.64836
27.658805847,6.19271900000002,-7.27975100000002,2.117234,0.5114592,-0.3202271,0.816048,-23.86419,-16.65852,-29.64836
27.668715954,5.75915199999997,-7.04674300000001,2.055871,0.5248291,-0.309491,0.7972696,-24.22576,-17.40434,-28.80892
27.678626537,5.263648,-6.17296399999999,2.178597,0.5380235,-0.2985979,0.8092242,-24.22576,-17.40434,-28.80892
27.688536644,4.086825,-4.949672,2.608138,0.5375431,-0.2898191,0.8203307,-24.22576,-17.40434,-28.80892
27.698446274,2.290622,-3.842885,2.362686,0.5347849,-0.2970816,0.8289507,-24.22576,-17.40434,-28.80892
27.70835638,0.804108299999999,-3.027358,1.933146,0.535284,-0.3053629,0.8202481,-24.22576,-17.40434,-28.80892
27.718266964,-0.1869005,-1.745815,1.196791,0.5367497,-0.3048573,0.8207181,-24.23061,-17.02975,-28.81008
27.728177071,-2.168918,-0.580775400000001,0.3377102,0.5294536,-0.3010267,0.8289737,-24.23061,-17.02975,-28.81008
27.7380867,-4.894192,0.351256,-0.03046724,0.524931,-0.2928526,0.8266692,-24.23061,-17.02975,-28.81008
27.747997761,-7.929157,1.225035,-0.214556,0.513639,-0.298871,0.8152098,-24.23061,-17.02975,-28.81008
27.757907391,-9.663423,1.865807,-0.705459200000001,0.5068743,-0.3101343,0.8099156,-24.23061,-17.02975,-28.81008
27.767817497,-10.34474,3.205602,-1.073637,0.5044963,-0.3223252,0.8021738,-24.23222,-17.03157,-29.25979
27.78020525,-11.33575,4.254138,-1.503177,0.5032004,-0.3432303,0.794364,-24.23222,-17.03157,-29.25979
27.790115356,-12.07901,4.661901,-2.055443,0.5107649,-0.3732626,0.7816099,-24.23222,-17.03157,-29.25979
27.800025463,-11.76932,5.360925,-2.669072,0.5178223,-0.3959934,0.7756312,-24.23222,-17.03157,-29.25979
27.80993557,-11.14994,5.477429,-3.03725,0.5112361,-0.4164321,0.7769965,-24.23222,-17.03157,-29.25979
27.819846153,-9.60148500000001,5.593933,-3.712242,0.5030305,-0.4311148,0.7702523,-24.99181,-16.28401,-29.64367
27.829755783,-7.557528,5.127917,-4.448596,0.4897626,-0.4313144,0.7636514,-24.99181,-16.28401,-29.64367
27.83966589,-6.75233400000001,4.487145,-5.123589,0.4847738,-0.4275248,0.7584412,-24.99181,-16.28401,-29.64367
27.849575996,-5.88520100000001,3.904626,-5.36904,0.4926401,-0.4303313,0.75931,-24.99181,-16.28401,-29.64367
27.85948658,-5.080007,3.496862,-5.246314,0.4961054,-0.4297785,0.7640832,-24.99181,-16.28401,-29.64367
27.869396687,-4.274812,3.380358,-4.9395,0.5025714,-0.4286664,0.7760348,-24.2336,-17.03314,-29.64526
27.879306316,-3.965122,3.263854,-4.509959,0.4872996,-0.4211107,0.7738256,-24.2336,-17.03314,-29.64526
27.889216423,-3.779308,2.681334,-4.571322,0.4853428,-0.4230869,0.7714297,-24.2336,-17.03314,-29.64526
27.899127007,-2.230856,2.331823,-4.755411,0.4951045,-0.4278515,0.7641053,-24.2336,-17.03314,-29.64526
27.909037113,-0.4965908,2.623082,-4.878137,0.5004343,-0.4258583,0.7616684,-24.2336,-17.03314,-29.64526
27.918946743,0.618294100000002,2.506578,-4.9395,0.4989192,-0.4180969,0.7660556,-24.61271,-16.65858,-29.64446
27.92885685,1.361551,2.739586,-4.448596,0.502737,-0.407365,0.7694529,-24.61271,-16.65858,-29.64446
27.938767433,1.423489,2.390074,-3.957693,0.5083967,-0.4169075,0.7856624,-24.61271,-16.65858,-29.64446
27.94867754,1.609303,1.749303,-3.589516,0.5074109,-0.4071677,0.7962999,-24.61271,-16.65858,-29.64446
27.958587646,2.166745,1.749303,-3.528153,0.5097832,-0.4052237,0.7914893,-24.61271,-16.65858,-29.64446
27.968497276,2.97194,1.691051,-3.46679,0.5061964,-0.3955958,0.7867851,-23.87065,-16.28575,-30.09922
27.97840786,3.405506,1.982311,-3.098613,0.5006613,-0.3791592,0.790787,-23.87065,-16.28575,-30.09922
27.988317966,3.157754,2.506578,-2.546346,0.509483,-0.3751359,0.7974544,-23.87065,-16.28575,-30.09922
27.998228073,2.66225,2.972594,-2.300895,0.5099745,-0.371226,0.8022775,-23.87065,-16.28575,-30.09922
28.008138657,1.980931,2.914342,-1.809992,0.5069839,-0.3639753,0.8052345,-23.87065,-16.28575,-30.09922
28.018048763,1.609303,2.797838,-1.441814,0.5074732,-0.36153,0.8081272,-24.23845,-16.65855,-29.64641
28.027958393,0.804108299999999,2.85609,-1.380451,0.4981666,-0.3597036,0.8087055,-24.23845,-16.65855,-29.64641
28.0378685,-0.06302445,3.089098,-1.012274,0.5005668,-0.3596962,0.804362,-24.23845,-16.65855,-29.64641
28.050256729,-0.9301572,3.030846,-0.2759189,0.5117221,-0.3620416,0.7927194,-24.23845,-16.65855,-29.64641
28.060166359,-1.177909,3.380358,0.5217989,0.5154104,-0.3789338,0.7988148,-23.86095,-17.03494,-30.09691
28.070076466,-1.177909,3.322106,1.135428,0.5110378,-0.3750718,0.8060833,-23.86095,-17.03494,-30.09691
28.079987049,-1.549538,3.496862,1.442243,0.4974155,-0.37911,0.808103,-23.86095,-17.03494,-30.09691
28.089897156,-1.425662,3.030846,1.196791,0.4811182,-0.36964,0.8035153,-23.86095,-17.03494,-30.09691
28.099806786,-1.425662,2.914342,0.889976299999999,0.476031,-0.3629748,0.7920829,-23.86095,-17.03494,-30.09691
28.109716892,-1.735352,3.205602,0.583161800000002,0.4789976,-0.3570674,0.8021782,-23.49478,-16.28389,-29.65145
28.119627476,-2.540546,3.263854,0.705887599999999,0.4902776,-0.3632504,0.7981914,-23.49478,-16.28389,-29.65145
28.129537582,-3.469617,3.205602,1.196791,0.4978247,-0.3810967,0.7980027,-23.49478,-16.28389,-29.65145
28.139447689,-3.965122,3.089098,1.81042,0.5093126,-0.4071714,0.7910005,-23.49478,-16.28389,-29.65145
28.149357319,-2.912175,3.263854,1.994509,0.5189021,-0.442997,0.7781891,-23.49478,-16.28389,-29.65145
28.159267902,-0.3727147,3.904626,2.178597,0.5258985,-0.4618571,0.7707963,-23.86095,-17.03494,-30.09691
28.169178009,2.042869,4.953161,2.546775,0.5221576,-0.4691342,0.7789451,-23.86095,-17.03494,-30.09691
28.179088116,4.210701,5.652184,2.976315,0.5147236,-0.4595219,0.7805185,-23.86095,-17.03494,-30.09691
28.188998699,5.635276,6.05994799999998,2.976315,0.5014708,-0.4465429,0.7908108,-23.86095,-17.03494,-30.09691
28.198908806,6.31659499999999,5.88519199999999,2.730864,0.4880907,-0.4282644,0.7948976,-23.86095,-17.03494,-30.09691
28.208818436,6.44047100000002,5.011413,1.994509,0.4755186,-0.4056717,0.7874818,-23.49777,-16.28729,-30.48664
28.218728542,6.62628499999997,3.962878,1.81042,0.468992,-0.3951081,0.7832912,-23.49777,-16.28729,-30.48664
28.228639126,7.865046,3.43861,1.564968,0.4698228,-0.3951724,0.7688782,-23.49777,-16.28729,-30.48664
28.238549233,9.47543500000001,3.43861,1.626331,0.4652997,-0.3840717,0.7699543,-23.49777,-16.28729,-30.48664
28.248459339,10.46644,3.205602,1.135428,0.4666345,-0.3709514,0.7724302,-23.49777,-16.28729,-30.48664
28.258368969,11.08582,2.681334,0.767250500000003,0.4654733,-0.3564248,0.7715774,-23.11243,-17.03488,-30.10081
28.268279553,10.96195,1.924059,0.705887599999999,0.4653206,-0.3452847,0.7697324,-23.11243,-17.03488,-30.10081
28.278189659,10.7142,0.875523700000001,0.828613499999998,0.4676781,-0.3433484,0.7634814,-23.11243,-17.03488,-30.10081
28.288099766,10.34257,-0.1730116,0.889976299999999,0.4696068,-0.3394355,0.7654103,-23.11243,-17.03488,-30.10081
28.298009396,10.03288,-1.105043,1.196791,0.4741263,-0.3378552,0.7788235,-23.11243,-17.03488,-30.10081
28.307920456,9.90900100000002,-1.920571,1.012702,0.4751664,-0.334396,0.7889203,-23.50124,-15.91113,-30.10232
28.317830086,10.09482,-2.386586,1.074065,0.4634977,-0.3267035,0.8044444,-23.50124,-15.91113,-30.10232
28.330217362,9.41349700000002,-3.260366,0.2763473,0.454475,-0.304002,0.8094807,-23.50124,-15.91113,-30.10232
28.340127945,7.80310800000002,-3.726381,-0.582733500000001,0.460742,-0.2932373,0.8133357,-23.50124,-15.91113,-30.10232
28.350038052,6.006905,-3.609878,-1.135,0.4823108,-0.2983053,0.8126223,-23.50124,-15.91113,-30.10232
28.359948158,4.520391,-2.969106,-0.950910899999997,0.4936624,-0.3034755,0.8168044,-23.11728,-16.66029,-30.10196
28.369858742,3.033878,-2.619594,-0.644096300000003,0.5016361,-0.314031,0.819061,-23.11728,-16.66029,-30.10196
28.379768849,2.786126,-2.21183,-0.3986447,0.5031512,-0.3164266,0.8209517,-23.11728,-16.66029,-30.10196
28.389678478,2.476436,-1.629311,-0.4600076,0.4993939,-0.3173708,0.8349047,-23.11728,-16.66029,-30.10196
28.399588585,1.237675,-1.279799,-0.214556,0.4979544,-0.3188383,0.8358686,-23.11728,-16.66029,-30.10196
28.409499168,-0.5585288,-0.5225234,-0.214556,0.5044847,-0.3259854,0.8444035,-23.49478,-16.28389,-29.65145
28.419409275,-2.540546,0.1765001,-0.03046724,0.5093158,-0.3293692,0.8347331,-23.49478,-16.28389,-29.65145
28.429319382,-3.965122,0.875523700000001,0.6445247,0.5097789,-0.3313278,0.8299142,-23.49478,-16.28389,-29.65145
28.439229012,-5.080007,1.574547,1.074065,0.5138447,-0.3409547,0.8336537,-23.49478,-16.28389,-29.65145
28.449139595,-5.451635,2.098815,1.196791,0.5116744,-0.3440177,0.8091653,-23.49478,-16.28389,-29.65145
28.459049702,-5.575511,2.506578,1.319517,0.5010512,-0.3626192,0.8004968,-23.10758,-17.40948,-30.09965
28.468959808,-5.265821,3.089098,1.319517,0.500658,-0.3694048,0.8018957,-23.10758,-17.40948,-30.09965
28.478869438,-5.080007,3.263854,1.135428,0.4938496,-0.3728859,0.8014553,-23.10758,-17.40948,-30.09965
28.488780499,-4.956131,3.322106,1.012702,0.4850852,-0.3788306,0.7981356,-23.10758,-17.40948,-30.09965
28.498690128,-4.894192,3.089098,0.889976299999999,0.4831343,-0.3866574,0.7894587,-23.10758,-17.40948,-30.09965
28.508600235,-4.64644,3.030846,1.258154,0.486104,-0.3905044,0.7884454,-23.11728,-16.66029,-30.10196
28.518510819,-4.274812,3.322106,1.135428,0.4877122,-0.3982174,0.7931806,-23.11728,-16.66029,-30.10196
28.528420925,-4.02706,2.914342,1.258154,0.4862866,-0.4045557,0.7897905,-23.11728,-16.66029,-30.10196
28.538330555,-3.71737,2.390074,1.442243,0.4845596,-0.4303148,0.7819523,-23.11728,-16.66029,-30.10196
28.548240662,-2.10698,1.865807,1.749057,0.4862507,-0.4565213,0.7731192,-23.11728,-16.66029,-30.10196
28.558151245,0.5563561,2.215319,1.871783,0.493585,-0.4598441,0.7691879,-22.8054,-16.66026,-30.10358
28.568061352,3.467444,2.914342,1.687694,0.4807845,-0.4429756,0.7804624,-22.8054,-16.66026,-30.10358
28.577971458,5.077834,2.623082,0.951339199999998,0.4729314,-0.4260159,0.7974535,-22.8054,-16.66026,-30.10358
28.587881088,6.006905,1.807555,0.583161800000002,0.4731754,-0.4154055,0.7859982,-22.8054,-16.66026,-30.10358
28.597792148,6.93597599999999,1.283287,0.705887599999999,0.4933359,-0.4175346,0.7944403,-22.8054,-16.66026,-30.10358
28.610179424,7.49341799999997,2.157067,0.460436,0.5043478,-0.4319016,0.8024055,-23.12027,-16.66368,-30.93714
28.620090008,9.28962000000002,2.390074,-0.09183015,0.5023046,-0.4241666,0.8029561,-23.12027,-16.66368,-30.93714
28.629999638,13.19172,3.089098,-0.5213705,0.5054769,-0.4081565,0.7972715,-23.12027,-16.66368,-30.93714
28.639909744,16.72219,4.720153,-0.582733500000001,0.5091322,-0.3862897,0.7978635,-23.12027,-16.66368,-30.93714
28.649819851,17.77513,6.99197999999999,-0.09183015,0.5136571,-0.3822675,0.8146541,-23.12027,-16.66368,-30.93714
28.659730434,16.10281,8.44827800000003,0.5217989,0.5102131,-0.3676873,0.8296679,-23.49292,-16.66188,-30.48548
28.669640541,13.62528,8.215271,1.135428,0.5008668,-0.3629547,0.8297859,-23.49292,-16.66188,-30.48548
28.679550171,12.32458,7.39974399999998,1.871783,0.4883758,-0.3417833,0.828602,-23.49292,-16.66188,-30.48548
28.689460277,12.20071,6.00169699999999,2.424049,0.4773523,-0.3264468,0.8206434,-23.49292,-16.66188,-30.48548
28.699370861,11.39551,4.312389,2.976315,0.4604215,-0.3048631,0.8161422,-23.49292,-16.66188,-30.48548
28.709280968,10.83807,3.613366,3.28313,0.4662532,-0.3126132,0.8035525,-22.73817,-17.03485,-30.10275
28.719190597,10.96195,4.195886,3.467218,0.4722259,-0.319802,0.80537,-22.73817,-17.03485,-30.10275
28.729100704,11.2097,5.127917,3.160404,0.4731329,-0.3105584,0.8092645,-22.73817,-17.03485,-30.10275
28.739011288,11.08582,5.535681,2.853589,0.4647745,-0.2980035,0.8195087,-22.73817,-17.03485,-30.10275
28.748921394,10.65226,5.302673,2.669501,0.4602296,-0.2883776,0.816734,-22.73817,-17.03485,-30.10275
28.758831501,10.59032,4.836657,3.099041,0.4538347,-0.2855503,0.8163318,-22.80055,-17.03486,-30.10243
28.768742084,9.72318700000001,3.962878,3.528581,0.441617,-0.2798464,0.8236851,-22.80055,-17.03486,-30.10243
28.778651714,6.997913,2.448327,3.774033,0.4246278,-0.2712155,0.8459871,-22.80055,-17.03486,-30.10243
28.788561821,3.28163,1.108532,4.326299,0.4337256,-0.27339,0.8722971,-22.80055,-17.03486,-30.10243
28.798471928,-0.682404900000003,0.351256,4.75584,0.4270626,-0.2626491,0.9026803,-22.80055,-17.03486,-30.10243
28.808382511,-6.50458200000001,-0.755531299999998,4.571751,0.4176575,-0.2418495,0.9158701,-22.42468,-17.033,-29.65466
28.818292618,-11.76932,-1.571059,4.326299,0.4313844,-0.2601959,0.897855,-22.42468,-17.033,-29.65466
28.828202248,-13.07002,-0.4060195,4.203574,0.4730436,-0.2986492,0.8621621,-22.42468,-17.033,-29.65466
28.838112354,-11.83125,2.390074,4.326299,0.517151,-0.3465778,0.8633555,-22.42468,-17.033,-29.65466
28.848022938,-9.72536099999999,6.52596399999999,4.387662,0.5273857,-0.3793891,0.8692843,-22.42468,-17.033,-29.65466
28.857933044,-8.11497100000001,9.96283000000002,5.001291,0.5207935,-0.3939772,0.8769306,-22.41984,-17.40759,-29.65351
28.867843151,-7.309776,11.65214,5.614921,0.4953267,-0.3933412,0.8738093,-22.41984,-17.40759,-29.65351
28.877752781,-7.49559099999998,12.87543,6.28991200000003,0.4830685,-0.3842437,0.8811856,-22.41984,-17.40759,-29.65351
28.89014101,-8.548538,14.33173,7.21035599999999,0.4656082,-0.374634,0.9063793,-22.41984,-17.40759,-29.65351
28.90005064,-9.911175,14.91425,7.63989600000002,0.4664359,-0.359578,0.9093529,-22.41984,-17.40759,-29.65351
28.9099617,-12.01707,14.73949,7.51716999999999,0.4712022,-0.3649468,0.891027,-22.42767,-17.0364,-30.48984
28.91987133,-13.37971,15.43851,7.21035599999999,0.4669557,-0.3690725,0.8535865,-22.42767,-17.0364,-30.48984
28.929781437,-13.19389,16.6618,6.65808999999999,0.4618014,-0.3765886,0.8190127,-22.42767,-17.0364,-30.48984
28.939691544,-11.76932,18.35111,6.35127500000001,0.4588415,-0.3834681,0.8084307,-22.42767,-17.0364,-30.48984
28.949602127,-9.911175,19.63266,6.22854899999998,0.4562352,-0.3806559,0.7959895,-22.42767,-17.0364,-30.48984
28.959511757,-8.61047599999998,19.92392,5.86037199999999,0.4344665,-0.3600821,0.7953675,-21.69184,-16.29054,-31.33122
28.969421864,-7.86721900000001,19.22489,4.817203,0.4085923,-0.3430728,0.7717122,-21.69184,-16.29054,-31.33122
28.979332447,-7.12396199999998,17.65209,3.774033,0.3911366,-0.3259041,0.7585437,-21.69184,-16.29054,-31.33122
28.989242554,-6.69039600000003,15.72977,3.037678,0.3773999,-0.3290263,0.7504871,-21.69184,-16.29054,-31.33122
28.99915266,-7.12396199999998,13.3997,3.099041,0.3740077,-0.33198,0.7500187,-21.69184,-16.29054,-31.33122
29.00906229,-8.053034,10.4871,3.651307,0.3692655,-0.3397694,0.7552925,-21.31758,-16.29051,-31.33317
29.018972874,-7.557528,8.27352199999998,4.203574,0.3808451,-0.3623819,0.7612768,-21.31758,-16.29051,-31.33317
29.02888298,-5.141944,6.584216,4.203574,0.3959567,-0.3834312,0.7797229,-21.31758,-16.29051,-31.33317
29.038793087,-4.150936,4.720153,3.589944,0.3913289,-0.3921367,0.7950728,-21.31758,-16.29051,-31.33317
29.048703194,-4.894192,3.030846,2.055871,0.386955,-0.3902267,0.7999275,-21.31758,-16.29051,-31.33317
29.058613777,-5.451635,1.807555,0.583161800000002,0.3848776,-0.3932413,0.7845616,-20.94978,-15.91772,-31.78598
29.068523407,-3.841246,1.924059,0.03089567,0.3975894,-0.3964973,0.7805811,-20.94978,-15.91772,-31.78598
29.078433514,-1.425662,2.331823,-0.3372818,0.406417,-0.3983246,0.7809675,-20.94978,-15.91772,-31.78598
29.088344097,0.1847278,2.681334,-0.214556,0.4049464,-0.3881011,0.7925729,-20.94978,-15.91772,-31.78598
29.098254204,0.989922399999999,2.215319,-0.1531931,0.390727,-0.3839089,0.7936927,-20.94978,-15.91772,-31.78598
29.10816431,1.237675,1.05028,-0.03046724,0.3785828,-0.3835326,0.8019702,-21.32946,-15.60715,-32.17046
29.11807394,1.423489,-0.4060195,-0.1531931,0.3786567,-0.386421,0.8057916,-21.32946,-15.60715,-32.17046
29.127984524,1.361551,-1.804067,-0.214556,0.3862542,-0.4022899,0.8128179,-21.32946,-15.60715,-32.17046
29.13789463,1.361551,-2.50309,-0.03046724,0.4013492,-0.4170063,0.8370683,-21.32946,-15.60715,-32.17046
29.150281906,1.733179,-2.328334,0.03089567,0.4271494,-0.4257615,0.8631802,-20.58094,-15.60709,-32.17435
29.16019249,0.866046300000002,-2.328334,-0.3986447,0.4275959,-0.4052896,0.8829988,-20.58094,-15.60709,-32.17435
29.170102596,-0.3727147,-2.444838,-1.073637,0.4183466,-0.3739256,0.8760911,-20.58094,-15.60709,-32.17435
29.180012703,-0.992095199999997,-1.862319,-1.56454,0.4244009,-0.3593692,0.8636479,-20.58094,-15.60709,-32.17435
29.189923286,-1.177909,0.293004,-1.503177,0.4450516,-0.3649061,0.8682216,-20.58094,-15.60709,-32.17435
29.199832916,-1.549538,3.263854,-0.5213705,0.4649276,-0.3903496,0.8693087,-21.32647,-15.60375,-31.33528
29.209743023,-2.230856,5.244421,0.583161800000002,0.4661534,-0.4053304,0.8759198,-21.32647,-15.60375,-31.33528
29.21965313,-2.230856,6.70071999999997,1.564968,0.4699058,-0.4304818,0.8785985,-21.32647,-15.60375,-31.33528
29.229563713,-1.611476,7.28324000000001,2.23996,0.4548704,-0.4369495,0.8830159,-21.32647,-15.60375,-31.33528
29.23947382,-0.992095199999997,7.574499,1.933146,0.4349507,-0.4459145,0.885061,-21.32647,-15.60375,-31.33528
29.24938345,-0.806281,7.16673599999998,1.196791,0.4190768,-0.4247652,0.8877495,-20.96005,-15.23253,-32.17356
29.259293556,-1.363724,6.93372799999998,1.503605,0.4305029,-0.4096571,0.8752604,-20.96005,-15.23253,-32.17356
29.26920414,-1.115971,7.574499,2.362686,0.4474275,-0.412468,0.853478,-20.96005,-15.23253,-32.17356
29.279114246,-0.1869005,9.03079800000001,3.344493,0.456467,-0.4022382,0.8409784,-20.96005,-15.23253,-32.17356
29.289024353,0.43248,10.54535,4.510388,0.4470241,-0.384873,0.8464633,-20.96005,-15.23253,-32.17356
29.298934937,0.494418,11.18612,5.18538,0.4389088,-0.3665863,0.8394578,-20.59064,-14.8579,-32.17667
29.308844566,0.989922399999999,11.71039,5.308106,0.4370175,-0.369504,0.8423367,-20.59064,-14.8579,-32.17667
29.318754673,1.175737,12.35116,4.326299,0.4243004,-0.3740556,0.8366621,-20.59064,-14.8579,-32.17667
29.32866478,1.609303,12.52592,2.608138,0.3992971,-0.372939,0.831619,-20.59064,-14.8579,-32.17667
29.338575363,1.795117,11.65214,1.564968,0.3815101,-0.3722797,0.8145022,-20.59064,-14.8579,-32.17667
29.34848547,2.66225,10.42885,1.442243,0.3916507,-0.3678273,0.8072357,-19.84511,-14.86124,-33.01574
29.3583951,2.724188,10.42885,1.38088,0.4124897,-0.3771687,0.8257069,-19.84511,-14.86124,-33.01574
29.368305683,3.343568,8.564782,1.994509,0.4391014,-0.4128276,0.8040963,-19.84511,-14.86124,-33.01574
29.37821579,6.502409,8.73953799999999,3.589944,0.4707943,-0.4332035,0.8190325,-19.84511,-14.86124,-33.01574
29.388125897,12.94397,11.82689,4.510388,0.4659114,-0.4391149,0.8127963,-19.84511,-14.86124,-33.01574
29.398036003,19.81909,14.56473,4.571751,0.4500108,-0.4348044,0.8408212,-19.84373,-14.85967,-32.63027
29.407946587,21.98692,17.65209,3.160404,0.4286513,-0.4476762,0.840933,-19.84373,-14.85967,-32.63027
29.417856217,21.05785,19.5744,0.3990731,0.399197,-0.4427384,0.8354764,-19.84373,-14.85967,-32.63027
29.430244446,19.26165,17.36083,-0.889547900000002,0.361383,-0.3903728,0.833294,-19.84373,-14.85967,-32.63027
29.440154076,16.47443,11.82689,0.5217989,0.3359193,-0.3258415,0.8099515,-19.84373,-14.85967,-32.63027
29.450064182,15.23567,6.584216,1.933146,0.3397048,-0.3061065,0.7730758,-19.08876,-15.23238,-32.1833
29.459974289,12.88203,4.428894,2.301323,0.3381972,-0.321268,0.7513816,-19.08876,-15.23238,-32.1833
29.469884873,10.65226,3.671618,0.767250500000003,0.3233784,-0.3503103,0.7028292,-19.08876,-15.23238,-32.1833
29.479794979,12.69621,2.040563,0.03089567,0.3140995,-0.3743232,0.6758661,-19.08876,-15.23238,-32.1833
29.489704609,16.66025,0.0599961999999999,0.1536215,0.3013236,-0.3842712,0.6581522,-19.08876,-15.23238,-32.1833
29.499614716,19.88103,-2.969106,-0.5213705,0.2881742,-0.3956287,0.6500354,-18.70699,-15.92067,-32.5686
29.509525299,23.59731,-8.03702600000001,-0.582733500000001,0.2662425,-0.3870866,0.6671007,-18.70699,-15.92067,-32.5686
29.519435406,25.70321,-13.80397,-0.889547900000002,0.2576273,-0.3600312,0.6692813,-18.70699,-15.92067,-32.5686
29.529345513,29.29561,-19.2214,-1.441814,0.269457,-0.3593471,0.6792597,-18.70699,-15.92067,-32.5686
29.539256096,35.92299,-24.52233,-1.380451,0.2872532,-0.3409772,0.7195508,-18.70699,-15.92067,-32.5686
29.549165726,38.64826,-28.25046,-1.871354,0.2894786,-0.277646,0.7722893,-18.34024,-15.23232,-32.18719
29.559075832,35.17973,-29.6485,-3.712242,0.2875358,-0.2337612,0.824937,-18.34024,-15.23232,-32.18719
29.568985939,30.906,-31.16305,-5.430403,0.3051432,-0.2454851,0.8592674,-18.34024,-15.23232,-32.18719
29.578896522,27.62328,-34.54167,-5.184951,0.3337668,-0.2925493,0.8774154,-18.34024,-15.23232,-32.18719
29.588806629,24.21669,-38.5028,-2.423621,0.3932991,-0.36673,0.9215055,-18.34024,-15.23232,-32.18719
29.598716259,19.88103,-41.4154,1.81042,0.4626799,-0.4422157,0.9707775,-18.68024,-17.41069,-30.50815
29.608626842,13.19172,-42.28918,6.28991200000003,0.5125107,-0.5157511,0.9755886,-18.68024,-17.41069,-30.50815
29.618536949,15.17374,-41.00764,10.58532,0.5661471,-0.5831997,0.9295084,-18.68024,-17.41069,-30.50815
29.628447056,20.99591,-39.14357,12.79438,0.5791832,-0.6243359,0.9127884,-18.68024,-17.41069,-30.50815
29.638357162,32.02089,-35.3572,13.46937,0.5604604,-0.6358621,0.8855157,-18.68024,-17.41069,-30.50815
29.648267746,46.94796,-30.81354,12.48757,0.5342135,-0.6100178,0.8835299,-19.79518,-17.78198,-29.66598
29.658177376,65.7151899999999,-24.81359,11.62849,0.4816306,-0.5256929,0.909066,-19.79518,-17.78198,-29.66598
29.668087482,76.6162799999999,-20.79421,8.13079899999997,0.4252704,-0.4140387,0.8844026,-19.79518,-17.78198,-29.66598
29.677998066,80.6422500000002,-15.20202,8.06943700000002,0.4610956,-0.3579136,0.962711,-19.79518,-17.78198,-29.66598
29.687908173,76.30659,-7.97877500000003,5.001291,0.4425367,-0.3264366,0.9064336,-19.79518,-17.78198,-29.66598
29.697818279,72.1567399999998,-8.27003499999999,4.694477,0.4460588,-0.3234241,0.824314,-21.28647,-17.77556,-28.05208
29.710206032,78.5363599999998,-8.211782,9.17396900000002,0.5086946,-0.3233422,0.8765528,-21.28647,-17.77556,-28.05208
29.720116138,84.9159799999997,-7.68751500000001,10.64668,0.5362239,-0.2834103,0.9375442,-21.28647,-17.77556,-28.05208
29.730025768,81.7571400000002,-8.67779800000001,7.63989600000002,0.5228669,-0.2617051,0.9478957,-21.28647,-17.77556,-28.05208
29.739936352,72.2186800000001,-12.81369,2.730864,0.4910898,-0.2301534,0.9378363,-21.28647,-17.77556,-28.05208
29.749846458,65.9629400000001,-13.10495,-1.503177,0.4926494,-0.1464415,0.9018875,-20.89169,-18.89252,-26.3802
29.759756565,63.85704,-6.11471200000003,-3.957693,0.5072409,-0.02533999,0.8454205,-20.89169,-18.89252,-26.3802
29.769666672,68.6882099999998,3.263854,-4.387233,0.4752035,0.05875027,0.7761739,-20.89169,-18.89252,-26.3802
29.779577255,75.1917,7.98226299999999,-3.589516,0.4541894,0.1121426,0.7445534,-20.89169,-18.89252,-26.3802
29.789486885,77.6692300000003,7.39974399999998,-0.950910899999997,0.4385152,0.1399856,0.8221893,-20.89169,-18.89252,-26.3802
29.799396992,72.0328700000001,6.87547600000002,0.460436,0.4298044,0.1301752,0.914875,-21.25165,-19.63651,-25.09105
29.809307098,65.4674299999999,1.05028,1.687694,0.4271983,0.1154354,0.9772215,-21.25165,-19.63651,-25.09105
29.819217682,54.44246,-2.619594,2.362686,0.4519944,0.1605524,1.016186,-21.25165,-19.63651,-25.09105
29.829127789,39.32958,-2.79435,0.5217989,0.4796967,0.1956874,0.9931159,-21.25165,-19.63651,-25.09105
29.839037418,31.58732,3.089098,-1.319088,0.5017868,0.2230769,0.9858916,-21.25165,-19.63651,-25.09105
29.848948002,22.97793,9.08905000000002,-2.178169,0.5292107,0.2114949,1.023973,-21.59592,-21.50298,-23.47722
29.858858108,8.23667399999998,15.55502,-3.282701,0.5443913,0.1300025,1.073707,-21.59592,-21.50298,-23.47722
29.868768215,0.989922399999999,19.63266,0.03089567,0.5162648,0.0322076,0.9820853,-21.59592,-21.50298,-23.47722
29.878678799,6.93597599999999,20.50644,-0.3372818,0.5365373,-0.06985451,0.9797775,-21.59592,-21.50298,-23.47722
29.888588905,13.56335,23.59379,0.0922585699999997,0.5436319,-0.1684153,0.9363212,-21.59592,-21.50298,-23.47722
29.898498535,18.89002,23.47729,2.23996,0.5107985,-0.2390987,0.9419159,-21.21036,-22.25031,-23.02715
29.908408642,16.59831,25.69086,2.853589,0.5381547,-0.3033901,1.007016,-21.21036,-22.25031,-23.02715
29.918319225,17.7132,29.65199,6.41263799999999,0.5150174,-0.3249741,1.014289,-21.21036,-22.25031,-23.02715
29.928229332,18.33258,29.65199,9.235332,0.5115526,-0.204072,1.05642,-21.21036,-22.25031,-23.02715
29.938139439,18.7042,33.67138,8.00807399999998,0.4885586,-0.1031602,1.030416,-21.21036,-22.25031,-23.02715
29.948049068,25.02188,33.67138,2.914952,0.4691889,-0.02234887,0.9528677,-20.84741,-21.50292,-23.48112
29.957959652,35.79911,32.9141,0.583161800000002,0.4720154,0.03324187,1.00747,-20.84741,-21.50292,-23.48112
29.967869759,34.18872,29.24423,-1.257725,0.3958584,0.08624766,1.033975,-20.84741,-21.50292,-23.48112
29.977779865,18.76614,20.73944,-2.791798,0.3246398,0.07202294,0.9865236,-20.84741,-21.50292,-23.48112
29.990167618,5.697214,23.47729,-0.5213705,0.3374007,-0.01558902,0.9839013,-20.84741,-21.50292,-23.48112
30.000077724,3.591321,34.60341,6.35127500000001,0.4170927,-0.1336023,1.035195,-19.3469,-21.87897,-23.87321
30.009987831,0.2466658,45.26352,12.4262,0.4924385,-0.2126267,1.042135,-19.3469,-21.87897,-23.87321
30.019898415,-4.33675,44.97226,17.94886,0.4831984,-0.2029697,0.9630587,-19.3469,-21.87897,-23.87321
30.029808044,-7.43365200000003,37.86552,23.71698,0.4222022,-0.1410009,0.9049761,-19.3469,-21.87897,-23.87321
30.039718151,-14.24684,30.29277,26.84649,0.2791798,-0.05927143,0.8343394,-19.3469,-21.87897,-23.87321
30.049628735,-21.67941,25.57436,26.96921,0.1829236,-0.004113471,0.7630932,-18.58683,-23.00609,-24.70882
30.059538841,-25.14794,24.11806,23.3488,0.1519307,-0.01874358,0.7277507,-18.58683,-23.00609,-24.70882
30.069448948,-27.00608,23.65204,19.97384,0.1887675,-0.01649576,0.6986154,-18.58683,-23.00609,-24.70882
30.079359531,-28.30678,21.0307,18.62386,0.2321401,-0.0004164523,0.703123,-18.58683,-23.00609,-24.70882
30.089269161,-28.6784,18.58412,18.43977,0.2252641,-0.02588395,0.6703662,-18.58683,-23.00609,-24.70882
30.099179268,-27.74933,13.34144,17.8875,0.2036638,-0.06448643,0.6645469,-17.47326,-22.63637,-25.93647
30.109089375,-27.25383,8.15701899999998,17.70341,0.1706499,-0.1035564,0.6895601,-17.47326,-22.63637,-25.93647
30.118999958,-25.5815,6.17645200000001,17.02842,0.1877297,-0.08140842,0.7121172,-17.47326,-22.63637,-25.93647
30.128910065,-22.05103,2.739586,14.20573,0.2097448,-0.07063443,0.7734456,-17.47326,-22.63637,-25.93647
30.138819695,-20.56452,-4.134145,10.09441,0.2081648,-0.09631708,0.7800113,-17.47326,-22.63637,-25.93647
30.148730278,-20.19289,-10.19235,8.49897699999999,0.1842885,-0.105115,0.7302371,-16.37287,-21.1413,-26.7821
30.158640385,-13.75133,-17.5321,5.98309800000002,0.1605987,-0.1006452,0.7141606,-16.37287,-21.1413,-26.7821
30.168550491,-11.45963,-21.02721,1.933146,0.1630737,-0.119375,0.7428223,-16.37287,-21.1413,-26.7821
30.178460598,-10.2828,-21.14372,0.0922585699999997,0.2059441,-0.1067233,0.74203,-16.37287,-21.1413,-26.7821
30.188371182,-5.637449,-22.134,-0.766822200000002,0.255743,-0.05979634,0.7894178,-16.37287,-21.1413,-26.7821
30.198280811,-3.407679,-24.63884,-1.99408,0.3108521,-0.03161366,0.8558378,-17.5118,-20.01944,-27.22943
30.208190918,-5.389697,-28.30871,-1.625903,0.3188163,-0.0343692,0.8663093,-17.5118,-20.01944,-27.22943
30.218101502,-9.53954700000003,-34.94943,0.828613499999998,0.3253339,-0.01859598,0.9004454,-17.5118,-20.01944,-27.22943
30.228011608,-16.66242,-40.25036,1.135428,0.3281013,-0.02839309,0.9680568,-17.5118,-20.01944,-27.22943
30.237921715,-22.23685,-46.48332,-0.5213705,0.3180743,-0.06546934,0.948216,-17.5118,-20.01944,-27.22943
30.247831345,-24.83825,-53.59006,-2.116806,0.3273487,-0.0743901,0.8885312,-18.25248,-20.39069,-26.38921
30.260219574,-20.75033,-52.94929,-2.914524,0.3279295,-0.0616621,0.8170671,-18.25248,-20.39069,-26.38921
30.270129204,-20.99809,-50.44445,-3.89633,0.3149541,-0.09511977,0.8476943,-18.25248,-20.39069,-26.38921
30.280039787,-23.47561,-48.75515,-4.448596,0.3501936,-0.1031932,0.8890883,-18.25248,-20.39069,-26.38921
30.289949894,-25.82925,-44.61926,-1.56454,0.4528177,-0.06754268,0.9724045,-19.00424,-20.01433,-25.93676
30.299860001,-27.93515,-42.17268,-1.625903,0.5405546,-0.07315627,1.081512,-19.00424,-20.01433,-25.93676
30.309770107,-33.32376,-43.68723,-3.89633,0.5986556,-0.1010043,1.087991,-19.00424,-20.01433,-25.93676
30.319680691,-40.32276,-38.79406,-3.282701,0.6062793,-0.1439282,1.113564,-19.00424,-20.01433,-25.93676
30.329590321,-42.92416,-28.71647,1.012702,0.5619865,-0.06901848,1.173532,-19.00424,-20.01433,-25.93676
30.339500427,-48.62246,-20.09518,1.749057,0.5073006,0.08641624,1.172672,-20.87255,-20.01108,-25.09185
30.349411011,-59.7093700000002,-8.561295,-0.889547900000002,0.4525166,0.08815,1.077639,-20.87255,-20.01108,-25.09185
30.359321117,-72.8402399999998,-5.93995599999998,-1.871354,0.4052206,-0.009447878,0.9765928,-20.87255,-20.01108,-25.09185
30.369231224,-77.4236500000001,-18.87189,-1.319088,0.3533659,0.01110525,0.9508007,-20.87255,-20.01108,-25.09185
30.379141808,-92.4746000000001,-27.60969,-2.791798,0.3412165,0.07658755,0.8918096,-20.87255,-20.01108,-25.09185
30.389051437,-100.7124,-30.93005,-2.239532,0.3150068,0.03268611,0.7165017,-22.00801,-19.26538,-25.9235
30.398961544,-98.2967799999999,-21.26022,-0.582733500000001,0.447086,-0.02464518,0.7499499,-22.00801,-19.26538,-25.9235
30.408871651,-95.50957,0.9920276,-3.46679,0.6060449,-0.1777353,0.7652257,-22.00801,-19.26538,-25.9235
30.418782234,-91.0500299999999,8.91429399999998,-4.632685,0.5893262,-0.3006711,0.6598868,-22.00801,-19.26538,-25.9235
30.428692341,-76.3706999999998,-0.05650773,-4.141782,0.5342423,-0.2710402,0.615939,-22.00801,-19.26538,-25.9235
30.438601971,-59.2757999999997,-11.29914,-4.019056,0.4574027,-0.2474007,0.6845094,-23.10048,-17.02129,-26.76009
30.448512554,-57.4176600000001,-11.88166,-1.809992,0.4487454,-0.2757199,0.760746,-23.10048,-17.02129,-26.76009
30.458422661,-62.4965800000001,-7.62926299999999,-2.853161,0.443772,-0.2924013,0.8283831,-23.10048,-17.02129,-26.76009
30.468332768,-69.0620199999998,-1.862319,-8.25309699999997,0.4991173,-0.3650625,0.8950895,-23.10048,-17.02129,-26.76009
30.478242874,-75.9371400000002,4.836657,-12.18032,0.5744268,-0.3533829,0.9093558,-23.10048,-17.02129,-26.76009
30.488153458,-83.4935800000002,8.73953799999999,-17.33481,0.6059018,-0.3116814,0.9280687,-22.81018,-15.58871,-27.60131
30.498063088,-83.0600100000003,6.64246800000002,-17.76435,0.5668382,-0.3109285,0.8866612,-22.81018,-15.58871,-27.60131
30.507973194,-74.1409399999997,-1.512807,-17.21208,0.5100815,-0.3975119,0.7819348,-22.81018,-15.58871,-27.60131
30.517883778,-62.0630100000002,-11.99816,-12.97804,0.5401546,-0.4874847,0.8434778,-22.81018,-15.58871,-27.60131
30.527793884,-67.0180599999999,-14.6195,-5.553129,0.5300041,-0.4704788,0.8748953,-22.81018,-15.58871,-27.60131
30.54018116,-69.0620199999998,-20.09518,-6.044032,0.4757459,-0.5062897,0.6442024,-23.87841,-15.2176,-28.43213
30.550091744,-56.98409,-19.74567,-4.755411,0.4758827,-0.5608615,0.4983496,-23.87841,-15.2176,-28.43213
30.56000185,-40.26082,-8.32828599999997,-5.675855,0.5127656,-0.6032106,0.5644684,-23.87841,-15.2176,-28.43213
30.56991148,-32.33275,3.322106,-9.84853300000002,0.5538267,-0.6282988,0.6767586,-23.87841,-15.2176,-28.43213
30.57982254,-26.01507,9.90457699999998,-14.2053,0.5602366,-0.6440406,0.7111659,-23.87841,-15.2176,-28.43213
30.58973217,-15.54754,11.53563,-14.38939,0.612359,-0.6749467,0.7032756,-23.9008,-13.72262,-29.27192
30.599642277,-5.451635,13.5162,-13.10077,0.6511127,-0.6087922,0.7451317,-23.9008,-13.72262,-29.27192
30.60955286,-3.841246,19.28314,-12.11896,0.6219828,-0.5188074,0.8708417,-23.9008,-13.72262,-29.27192
30.619462967,-8.42466199999997,18.64237,-10.58489,0.5126188,-0.5171673,0.8891498,-23.9008,-13.72262,-29.27192
30.629372597,-7.86721900000001,15.43851,-11.50533,0.4444917,-0.5054194,0.8874573,-23.9008,-13.72262,-29.27192
30.639282703,-9.663423,12.0599,-14.6962,0.4276848,-0.5247468,0.8471507,-24.28289,-13.35145,-30.10631
30.649193287,-10.59249,10.25409,-15.24847,0.4382695,-0.5466532,0.8046529,-24.28289,-13.35145,-30.10631
30.659103393,-11.52156,10.13759,-14.14394,0.4652083,-0.5401993,0.7689151,-24.28289,-13.35145,-30.10631
30.6690135,-8.61047599999998,12.46766,-13.16213,0.480893,-0.5309636,0.7357006,-24.28289,-13.35145,-30.10631
30.678924084,-1.054033,15.49677,-11.93487,0.4920572,-0.5067235,0.7083899,-24.28289,-13.35145,-30.10631
30.688833713,5.635276,16.83656,-11.99623,0.4910522,-0.4784571,0.7388374,-23.53575,-13.35296,-30.49567
30.69874382,7.12178899999997,18.17636,-11.81215,0.4906682,-0.4447501,0.7885219,-23.53575,-13.35296,-30.49567
30.708653927,6.19271900000002,21.32196,-11.62806,0.4816542,-0.4154543,0.8497804,-23.53575,-13.35296,-30.49567
30.71856451,3.715197,24.11806,-12.0576,0.4877932,-0.3328093,0.8776433,-23.53575,-13.35296,-30.49567
30.728474617,-3.71737,25.92387,-9.41899200000002,0.4149824,-0.3366254,0.8778111,-23.53575,-13.35296,-30.49567
30.738384247,-8.98210400000001,20.73944,-11.19852,0.4253164,-0.3474426,0.8238657,-23.52281,-14.47858,-30.94192
30.74829483,-6.13295399999998,17.59384,-10.09398,0.4597974,-0.3795649,0.8108487,-23.52281,-14.47858,-30.94192
30.758204937,-5.451635,17.82685,-10.46216,0.4865905,-0.3912268,0.8350113,-23.52281,-14.47858,-30.94192
30.768115044,-9.35373199999999,17.06957,-11.87351,0.5171503,-0.4097445,0.8370061,-23.52281,-14.47858,-30.94192
30.778025627,-14.24684,16.83656,-11.56669,0.5274178,-0.3969334,0.8518814,-23.52281,-14.47858,-30.94192
30.787935734,-16.91018,17.47733,-11.50533,0.484591,-0.3966399,0.8244302,-22.46242,-14.47849,-30.94744
30.797845364,-14.30878,17.36083,-12.60986,0.4848519,-0.3584642,0.7992337,-22.46242,-14.47849,-30.94744
30.80775547,-11.39769,18.29286,-11.44397,0.4967141,-0.3406901,0.8323734,-22.46242,-14.47849,-30.94744
30.8201437,-16.10498,19.80741,-10.15535,0.4980626,-0.3163431,0.8493286,-22.46242,-14.47849,-30.94744
30.830053329,-19.57351,20.44818,-9.11217699999998,0.4830188,-0.3530589,0.8175328,-22.46242,-14.47849,-30.94744
30.839963913,-18.21087,21.38021,-4.878137,0.5514247,-0.3102846,0.7672486,-22.08816,-14.47846,-30.94938
30.84987402,-21.43165,24.35106,0.1536215,0.4848529,-0.4379671,0.8015851,-22.08816,-14.47846,-30.94938
30.859784126,-22.79429,24.87533,0.951339199999998,0.5067767,-0.5365002,0.8213727,-22.08816,-14.47846,-30.94938
30.86969471,-18.27281,25.80736,2.23996,0.5076631,-0.5682341,0.8706094,-22.08816,-14.47846,-30.94938
30.879604816,-16.53855,23.18603,2.976315,0.5297958,-0.5527692,0.9012378,-22.08816,-14.47846,-30.94938
30.889514446,-18.39669,22.07924,2.792227,0.5389706,-0.5046685,0.8985925,-21.34401,-14.48337,-32.17393
30.899424553,-22.67041,25.80736,1.871783,0.5196885,-0.4677052,0.8735687,-21.34401,-14.48337,-32.17393
30.909335136,-23.66142,30.70053,0.828613499999998,0.5040962,-0.4932387,0.8490547,-21.34401,-14.48337,-32.17393
30.919245243,-22.79429,33.72963,1.38088,0.4768139,-0.5415743,0.8499453,-21.34401,-14.48337,-32.17393
30.929154873,-17.90118,32.85585,1.687694,0.4702801,-0.558571,0.860456,-21.34401,-14.48337,-32.17393
30.939065933,-12.76033,32.85585,4.449025,0.4937834,-0.5233862,0.8571119,-20.21937,-14.86127,-33.01379
30.948975563,-10.46862,32.7976,5.062654,0.4907593,-0.4851816,0.8453905,-20.21937,-14.86127,-33.01379
30.95888567,-10.59249,35.30243,7.21035599999999,0.485629,-0.5051199,0.8462654,-20.21937,-14.86127,-33.01379
30.968796253,-10.84025,35.59369,7.148993,0.4713678,-0.5102177,0.8324388,-20.21937,-14.86127,-33.01379
30.97870636,-8.67241400000003,36.64223,7.45580799999998,0.4750925,-0.5148957,0.8563811,-20.21937,-14.86127,-33.01379
30.98861599,-7.062024,36.23447,6.22854899999998,0.4447718,-0.5011317,0.8721182,-19.48354,-14.11542,-33.85517
30.998526096,-6.13295399999998,34.83642,4.878565,0.4192301,-0.4602952,0.8611027,-19.48354,-14.11542,-33.85517
31.00843668,-5.947139,34.54516,5.246743,0.3808998,-0.4511164,0.8533556,-19.48354,-14.11542,-33.85517
31.018346787,-6.50458200000001,34.13739,4.75584,0.3882104,-0.3920212,0.8248722,-19.48354,-14.11542,-33.85517
31.028256893,-6.87620999999998,33.67138,3.037678,0.3782934,-0.4014837,0.8004128,-19.48354,-14.11542,-33.85517
31.038167477,-7.86721900000001,33.67138,1.442243,0.3522177,-0.4048188,0.7809453,-17.62493,-13.36948,-34.70239
31.048077106,-7.74334299999998,32.21508,-1.135,0.3339093,-0.3890606,0.7783386,-17.62493,-13.36948,-34.70239
31.057987213,-7.18590000000003,29.41899,-3.282701,0.2885889,-0.4119895,0.766601,-17.62493,-13.36948,-34.70239
31.06789732,-5.451635,26.44814,-5.062225,0.2704025,-0.4147044,0.754267,-17.62493,-13.36948,-34.70239
31.077807903,-5.080007,24.35106,-6.84175,0.261587,-0.3960459,0.7271038,-17.62493,-13.36948,-34.70239
31.090195179,-7.557528,20.9142,-8.74399900000002,0.2507004,-0.3945451,0.6686352,-16.50838,-12.99636,-35.09485
31.100105763,-6.93814800000003,18.35111,-9.78716900000001,0.2409562,-0.4441572,0.6616726,-16.50838,-12.99636,-35.09485
31.110015869,-7.24783800000001,14.62299,-10.27807,0.241568,-0.4370184,0.6343455,-16.50838,-12.99636,-35.09485
31.119925976,-6.62845799999998,11.36088,-11.32124,0.201391,-0.434397,0.5819172,-16.50838,-12.99636,-35.09485
31.129836559,-4.460626,5.419177,-11.50533,0.1903126,-0.4493242,0.6284955,-16.50838,-12.99636,-35.09485
31.139746189,-7.74334299999998,0.46776,-10.70761,0.1650109,-0.4605491,0.67523,-15.0162,-12.62165,-35.10379
31.149656296,-13.25583,-7.39625499999999,-11.93487,0.1386412,-0.4793985,0.6566222,-15.0162,-12.62165,-35.10379
31.159566879,-17.34374,-16.71657,-12.85531,0.1601546,-0.5210808,0.6076496,-15.0162,-12.62165,-35.10379
31.169476986,-15.91917,-20.79421,-13.28485,0.1984128,-0.5637164,0.5215435,-15.0162,-12.62165,-35.10379
31.179387093,-2.478608,-23.7068,-13.7144,0.2436586,-0.6371546,0.5561675,-15.00949,-13.37424,-35.93666
31.189296722,7.98892199999997,-29.18249,-11.56669,0.2753238,-0.6999752,0.6140354,-15.00949,-13.37424,-35.93666
31.199207306,7.12178899999997,-35.3572,-6.65766099999999,0.2955498,-0.7137775,0.6151969,-15.00949,-13.37424,-35.93666
31.209117413,9.10380600000001,-35.70671,-3.834968,0.29265,-0.7033131,0.5831228,-15.00949,-13.37424,-35.93666
31.219027519,24.09282,-33.78439,-4.571322,0.2994562,-0.6798333,0.6067441,-15.00949,-13.37424,-35.93666
31.228938103,39.70121,-32.09509,-7.946282,0.2986338,-0.6502568,0.6088694,-15.75017,-13.74549,-35.09644
31.238848209,54.5044,-29.47375,-7.27128999999997,0.3504873,-0.6481231,0.7087571,-15.75017,-13.74549,-35.09644
31.248757839,72.8380599999999,-20.32819,-4.694048,0.4023529,-0.5830563,0.8834885,-15.75017,-13.74549,-35.09644
31.258668423,75.6872100000001,-18.69714,-2.975887,0.404124,-0.4850791,0.9801565,-15.75017,-13.74549,-35.09644
31.268578529,62.49441,-21.31847,-4.264508,0.3852324,-0.2893935,0.988357,-15.75017,-13.74549,-35.09644
31.278488636,59.1497500000002,-21.20197,-7.70083,0.4409035,-0.273619,0.9043999,-16.11868,-13.73899,-33.48837
31.288398266,68.4404600000001,-12.40592,-7.33265300000001,0.4514799,-0.2167535,0.9056411,-16.11868,-13.73899,-33.48837
31.298309326,66.14875,-7.74576700000002,-2.116806,0.4860784,-0.2234399,1.029157,-16.11868,-13.73899,-33.48837
31.308218956,49.85905,-3.260366,4.326299,0.5495351,-0.2695118,1.155025,-16.11868,-13.73899,-33.48837
31.318129063,29.97693,-0.3477675,9.41941999999998,0.5557476,-0.3534008,1.138084,-16.11868,-13.73899,-33.48837
31.328039646,18.45645,0.9920276,13.53074,0.5870906,-0.44297,1.180892,-17.20534,-16.29541,-32.63947
31.337949753,14.24467,9.32205800000003,14.20573,0.6027726,-0.4998202,1.213019,-17.20534,-16.29541,-32.63947
31.347859383,12.32458,16.31229,15.49435,0.5586118,-0.5009482,1.101543,-17.20534,-16.29541,-32.63947
31.360247612,7.67923199999999,24.23456,18.62386,0.502033,-0.4625785,0.9697977,-17.20534,-16.29541,-32.63947
31.370157719,1.547365,21.26371,22.42836,0.3982759,-0.4495504,0.8330387,-17.20534,-16.29541,-32.63947
31.380068302,-8.98210400000001,19.22489,28.31919,0.3554248,-0.3409856,0.8346385,-17.57475,-16.67004,-32.63637
31.389977932,-13.31777,20.21518,31.01916,0.3023598,-0.2476431,0.823747,-17.57475,-16.67004,-32.63637
31.399888039,-14.37072,24.35106,28.87146,0.300734,-0.1901832,0.8755218,-17.57475,-16.67004,-32.63637
31.409798145,-16.7863,27.67143,22.55108,0.3342881,-0.2032579,0.9850807,-17.57475,-16.67004,-32.63637
31.419708729,-22.67041,26.79765,15.92389,0.3534877,-0.2507475,1.037404,-17.57475,-16.67004,-32.63637
31.429618836,-29.73135,30.52577,15.31026,0.4358687,-0.2427669,1.069346,-17.20832,-16.29881,-33.47465
31.439528465,-34.43864,38.27328,15.49435,0.49064,-0.3237801,1.022685,-17.20832,-16.29881,-33.47465
31.449439049,-38.03105,30.70053,18.01023,0.4449605,-0.4042086,0.9563097,-17.20832,-16.29881,-33.47465
31.459349156,-42.55252,21.38021,18.99203,0.4598558,-0.4402442,0.983781,-17.20832,-16.29881,-33.47465
31.469259262,-44.53454,17.47733,20.0352,0.4210919,-0.3991045,0.8758979,-17.20832,-16.29881,-33.47465
31.479169846,-46.39268,7.224988,19.48294,0.3302988,-0.3531035,0.8021393,-16.10067,-15.23894,-33.86922
31.489079952,-49.1799,1.05028,18.25568,0.2650864,-0.3271914,0.7198477,-16.10067,-15.23894,-33.86922
31.498989582,-46.82625,-2.153579,16.29206,0.1910993,-0.3496685,0.5835371,-16.10067,-15.23894,-33.86922
31.508899689,-42.30478,-3.027358,16.10798,0.1591101,-0.3862717,0.5206884,-16.10067,-15.23894,-33.86922
31.518810272,-35.80128,-0.4060195,14.083,0.1643358,-0.412377,0.5228669,-16.10067,-15.23894,-33.86922
31.528720379,-28.80228,-0.639027300000002,9.54214699999998,0.1776398,-0.4445933,0.5426959,-14.61956,-14.1166,-34.26594
31.538630486,-22.29879,-1.745815,5.18538,0.2328616,-0.4324495,0.6013255,-14.61956,-14.1166,-34.26594
31.548541069,-14.37072,-1.163295,0.03089567,0.2568333,-0.4228746,0.6136518,-14.61956,-14.1166,-34.26594
31.558450699,-6.38070599999998,-5.82345200000001,-4.755411,0.2468771,-0.4584506,0.6024632,-14.61956,-14.1166,-34.26594
31.568360805,-3.593493,-12.28942,-6.53493500000002,0.2477385,-0.4872707,0.6526798,-14.61956,-14.1166,-34.26594
31.578271389,-2.292794,-15.90104,-6.044032,0.2464931,-0.5191206,0.6846498,-15.01482,-12.62008,-34.71832
31.588181496,1.547365,-17.00783,-5.73721700000003,0.2456386,-0.5034589,0.715012,-15.01482,-12.62008,-34.71832
31.598091602,4.953958,-16.13405,-6.90311299999998,0.2416184,-0.4572228,0.7585714,-15.01482,-12.62008,-34.71832
31.608002186,7.617294,-21.31847,-10.09398,0.2308455,-0.4683369,0.7917279,-15.01482,-12.62008,-34.71832
31.617911816,8.67023999999999,-28.25046,-13.95985,0.2323829,-0.4982774,0.8112007,-15.01482,-12.62008,-34.71832
31.627821922,2.786126,-31.74557,-18.37798,0.268703,-0.4962896,0.8267233,-15.38747,-12.61828,-34.26666
31.640210152,-2.354732,-30.81354,-18.07116,0.2896208,-0.5768008,0.8648863,-15.38747,-12.61828,-34.26666
31.650119781,2.848064,-28.36696,-18.93024,0.3284828,-0.603264,0.9042037,-15.38747,-12.61828,-34.26666
31.660029888,-0.992095199999997,-27.37668,-22.79611,0.366364,-0.5685347,0.8719142,-15.38747,-12.61828,-34.26666
31.669940472,-8.42466199999997,-30.40578,-23.28701,0.3513565,-0.4764776,0.7084521,-15.38747,-12.61828,-34.26666
31.679850578,-6.93814800000003,-31.16305,-16.78254,0.3059573,-0.4289729,0.6285219,-16.5054,-12.99296,-34.25967
31.689760208,8.732179,-30.81354,-10.33944,0.2451745,-0.3644452,0.6895337,-16.5054,-12.99296,-34.25967
31.699671268,9.59931099999998,-31.27956,-10.15535,0.1834049,-0.3257792,0.8147235,-16.5054,-12.99296,-34.25967
31.709580898,2.538374,-37.16301,-19.29842,0.2070841,-0.4087823,0.8331578,-16.5054,-12.99296,-34.25967
31.719491005,-0.8682191,-36.93,-26.47788,0.3580478,-0.5227872,0.9251133,-16.5054,-12.99296,-34.25967
31.729401588,-5.947139,-24.81359,-28.80967,0.5166926,-0.5265328,1.036938,-16.86421,-13.73565,-32.6493
31.739311695,-8.73435200000001,-10.01759,-28.31877,0.5985079,-0.5173832,1.015116,-16.86421,-13.73565,-32.6493
31.749221325,-11.83125,-6.28946699999999,-24.82108,0.6316347,-0.4643476,1.065099,-16.86421,-13.73565,-32.6493
31.759131432,-16.60048,1.807555,-20.34159,0.6273026,-0.3555953,1.103796,-16.86421,-13.73565,-32.6493
31.769042015,-22.4846,10.66185,-16.90527,0.4826153,-0.3415438,0.9823074,-16.86421,-13.73565,-32.6493
31.778952122,-27.87321,8.85604200000002,-12.67123,0.3032453,-0.4247346,0.798071,-17.98352,-14.1119,-33.02777
31.788862228,-31.7753,-7.04674300000001,-7.02583799999998,0.1966072,-0.3814541,0.8924962,-17.98352,-14.1119,-33.02777
31.798772812,-37.53555,-17.93986,-10.21671,0.2430742,-0.3891569,0.8848128,-17.98352,-14.1119,-33.02777
31.808682442,-45.03005,-23.53205,-15.61665,0.3053536,-0.5241432,0.696556,-17.98352,-14.1119,-33.02777
31.818592548,-60.9481299999999,-20.6777,-18.31661,0.4123141,-0.6718769,0.6542494,-17.98352,-14.1119,-33.02777
31.828503132,-67.82326,-5.998208,-15.73937,0.5126844,-0.7568939,0.5672866,-17.60602,-14.4883,-33.47828
31.838413238,-55.55952,7.224988,-9.60308100000002,0.5029775,-0.7679676,0.4184535,-17.60602,-14.4883,-33.47828
31.848323345,-18.76832,-0.2312636,0.3377102,0.3916579,-0.6873361,0.4339448,-17.60602,-14.4883,-33.47828
31.858233929,22.29661,-10.30885,2.608138,0.3895887,-0.4888828,0.6551985,-17.60602,-14.4883,-33.47828
31.868143558,38.27663,-17.00783,-1.196362,0.3076473,-0.3703106,0.6236153,-17.60602,-14.4883,-33.47828
31.878053665,31.09181,-23.99806,-8.68263700000001,0.2638983,-0.3948786,0.5724793,-18.37046,-13.36614,-33.86332
31.887963772,19.0139,-21.55148,-11.50533,0.3536802,-0.4921287,0.5830051,-18.37046,-13.36614,-33.86332
31.897874355,16.53637,-11.06613,-10.76898,0.4293452,-0.6243973,0.6063924,-18.37046,-13.36614,-33.86332
31.907784462,27.62328,-5.007925,-9.17354000000002,0.4828388,-0.7343416,0.6872723,-18.37046,-13.36614,-33.86332
31.920172214,40.38252,0.817271699999998,-8.13037100000001,0.5612684,-0.7505637,0.8300061,-18.37046,-13.36614,-33.86332
31.930082321,47.56734,6.99197999999999,-9.05081500000002,0.5505744,-0.7070114,0.8395182,-18.74173,-13.36277,-33.02619
31.939992428,49.61129,9.205554,-10.09398,0.5192103,-0.6447615,0.8579888,-18.74173,-13.36277,-33.02619
31.949903011,49.48742,11.36088,-9.17354000000002,0.5191505,-0.5860165,0.8732656,-18.74173,-13.36277,-33.02619
31.959812641,48.49641,13.69096,-5.430403,0.501359,-0.5514615,0.8477318,-18.74173,-13.36277,-33.02619
31.969722748,48.68222,13.05018,-0.705459200000001,0.4830912,-0.502272,0.840546,-18.74173,-13.36277,-33.02619
31.979633331,48.06284,10.37059,4.510388,0.482467,-0.4925924,0.8386956,-19.4757,-14.48662,-33.01884
31.989543438,48.06284,7.45799500000003,8.80579200000003,0.4621363,-0.4671372,0.8409738,-19.4757,-14.48662,-33.01884
31.999453545,48.12478,2.157067,11.4444,0.4451155,-0.4599861,0.8584645,-19.4757,-14.48662,-33.01884
32.009364128,42.42648,-1.338051,10.95349,0.4501206,-0.422552,0.86587,-19.4757,-14.48662,-33.01884
32.019273758,34.37453,-1.978823,8.80579200000003,0.4402936,-0.3961184,0.8445299,-19.4757,-14.48662,-33.01884
32.029183865,31.15375,-1.804067,6.596727,0.4237818,-0.3665206,0.7949433,-19.46462,-15.23424,-32.63106
32.039094448,30.03887,-3.784633,5.73764600000002,0.3940235,-0.3534484,0.7693771,-19.46462,-15.23424,-32.63106
32.049004555,28.42848,-7.221499,6.84217800000002,0.3988756,-0.3180452,0.7594848,-19.46462,-15.23424,-32.63106
32.058914661,25.82708,-9.02730999999998,7.51716999999999,0.4205899,-0.2935297,0.7599274,-19.46462,-15.23424,-32.63106
32.068824291,23.96894,-10.48361,8.37625100000002,0.4525504,-0.276702,0.7491804,-19.46462,-15.23424,-32.63106
32.078734875,23.907,-11.47389,9.29669499999999,0.4712091,-0.304473,0.7718704,-19.07849,-15.91757,-31.79571
32.088644981,24.89801,-12.58068,11.13758,0.4829895,-0.3377127,0.7849845,-19.07849,-15.91757,-31.79571
32.098555088,24.03088,-14.32824,13.46937,0.4710684,-0.3547814,0.7945842,-19.07849,-15.91757,-31.79571
32.108465672,23.28762,-15.26027,15.2489,0.471418,-0.3877702,0.7900398,-19.07849,-15.91757,-31.79571
32.118375778,23.10181,-15.55153,17.02842,0.4911658,-0.4227882,0.8150722,-19.07849,-15.91757,-31.79571
32.128285408,23.96894,-14.32824,17.08978,0.5183167,-0.4110976,0.8537918,-19.82701,-15.91763,-31.79182
32.138195992,23.59731,-13.39621,15.49435,0.5225374,-0.3721117,0.8818617,-19.82701,-15.91763,-31.79182
32.148106098,22.85405,-12.81369,13.65346,0.5122471,-0.3168904,0.8967295,-19.82701,-15.91763,-31.79182
32.158016205,23.53537,-11.12438,12.4262,0.5079777,-0.2898084,0.8935883,-19.82701,-15.91763,-31.79182
32.167926788,23.84506,-8.32828599999997,11.32167,0.4961077,-0.2631962,0.9116412,-19.82701,-15.91763,-31.79182
32.177836895,21.42948,-5.357436,10.21714,0.5015996,-0.2640455,0.9216682,-20.94332,-16.29048,-31.33511
32.187746525,16.35056,-3.08561,9.35805800000003,0.4954199,-0.1291682,0.9538342,-20.94332,-16.29048,-31.33511
32.200134754,10.40451,0.0599961999999999,9.41941999999998,0.5189594,-0.309069,0.8928783,-20.94332,-16.29048,-31.33511
32.210044384,10.52838,1.749303,8.86715399999999,0.5064048,-0.3301214,0.8837311,-20.94332,-16.29048,-31.33511
32.219954491,11.33358,2.739586,8.62170300000002,0.4948756,-0.3530881,0.8769625,-21.31758,-16.29051,-31.33317
32.229865074,11.27164,3.555114,7.026268,0.4830875,-0.3283845,0.9007639,-21.31758,-16.29051,-31.33317
32.239775181,8.36055000000001,3.72987,6.35127500000001,0.4703401,-0.3270983,0.8989697,-21.31758,-16.29051,-31.33317
32.249685288,7.49341799999997,4.195886,6.044461,0.4717381,-0.3271157,0.8922344,-21.31758,-16.29051,-31.33317
32.259595871,8.85605400000001,5.82694100000001,4.571751,0.4631844,-0.3068576,0.8924485,-21.31758,-16.29051,-31.33317
32.269505501,8.67023999999999,6.93372799999998,2.546775,0.4505737,-0.2925778,0.8715333,-21.3162,-16.28894,-30.9477
32.279415608,7.98892199999997,7.69100299999997,1.135428,0.4490012,-0.3043584,0.8474615,-21.3162,-16.28894,-30.9477
32.289326191,9.16574500000002,8.73953799999999,-0.214556,0.4547403,-0.3150835,0.8223686,-21.3162,-16.28894,-30.9477
32.299236298,9.84706299999998,9.67157,-1.503177,0.4488923,-0.3331956,0.8030958,-21.3162,-16.28894,-30.9477
32.309146404,10.03288,9.78807399999997,-2.607709,0.4384713,-0.3343793,0.7868589,-21.3162,-16.28894,-30.9477
32.319056988,9.16574500000002,8.97254599999999,-3.098613,0.4200998,-0.3323126,0.7620744,-20.9371,-16.66351,-30.94849
32.328966618,8.42248799999999,6.99197999999999,-2.730435,0.4042955,-0.3384441,0.7396122,-20.9371,-16.66351,-30.94849
32.338876724,9.41349700000002,5.011413,-2.607709,0.3762304,-0.3393821,0.7196989,-20.9371,-16.66351,-30.94849
32.348787308,10.46644,2.506578,-3.46679,0.3501764,-0.3358765,0.71036,-20.9371,-16.66351,-30.94849
32.358697414,11.27164,-0.813783199999999,-4.203145,0.3232048,-0.3357665,0.7029277,-20.9371,-16.66351,-30.94849
32.368607521,11.89102,-5.124428,-4.632685,0.3184274,-0.3430864,0.7053239,-21.684,-16.66174,-30.49489
32.378518105,11.45745,-10.42536,-3.405427,0.3505374,-0.3483716,0.7309203,-21.684,-16.66174,-30.49489
32.388428211,11.39551,-15.20202,-0.950910899999997,0.3934464,-0.3481344,0.767017,-21.684,-16.66174,-30.49489
32.398337841,11.7052,-18.87189,1.135428,0.4116496,-0.3646747,0.8061115,-21.684,-16.66174,-30.49489
32.408248425,10.52838,-21.66799,1.196791,0.4114002,-0.3562634,0.8393008,-21.684,-16.66174,-30.49489
32.418158531,9.59931099999998,-23.18254,0.583161800000002,0.4177821,-0.3493414,0.8498513,-20.92579,-17.41087,-30.49647
32.428068638,11.58133,-23.12428,0.2763473,0.4427814,-0.3509479,0.8539308,-20.92579,-17.41087,-30.49647
32.437978268,15.17374,-22.0175,-0.4600076,0.4566401,-0.360933,0.8585377,-20.92579,-17.41087,-30.49647
32.447889328,18.14676,-18.93014,-1.135,0.4966623,-0.4068013,0.8929135,-20.92579,-17.41087,-30.49647
32.457798958,20.87204,-14.91076,-0.889547900000002,0.5501717,-0.465775,0.8920258,-20.92579,-17.41087,-30.49647
32.470187187,27.49941,-8.96905800000002,0.5217989,0.5961255,-0.5103215,0.8865025,-20.93411,-16.66011,-30.11331
32.480096817,32.76414,-4.658412,0.951339199999998,0.5947692,-0.501014,0.9081841,-20.93411,-16.66011,-30.11331
32.490006924,38.52438,-1.687563,0.3990731,0.5719258,-0.4863565,0.8912073,-20.93411,-16.66011,-30.11331
32.499917507,43.78912,3.846374,-0.03046724,0.5712865,-0.4283919,0.9444168,-20.93411,-16.66011,-30.11331
32.509827614,43.85106,9.08905000000002,-0.1531931,0.5496454,-0.3523903,0.9734526,-20.93411,-16.66011,-30.11331
32.519737721,41.55935,11.65214,0.951339199999998,0.5295421,-0.2938942,0.9889131,-22.0345,-18.15518,-29.26768
32.529648304,35.73717,11.9434,1.933146,0.4938447,-0.2645868,1.023049,-22.0345,-18.15518,-29.26768
32.539557934,27.99491,11.06962,1.074065,0.503687,-0.2678461,1.025338,-22.0345,-18.15518,-29.26768
32.549468041,20.87204,14.15697,0.5217989,0.5684485,-0.2964319,1.06056,-22.0345,-18.15518,-29.26768
32.559378624,15.97893,17.82685,3.405856,0.6210046,-0.3032187,1.027858,-22.0345,-18.15518,-29.26768
32.569288731,11.39551,20.50644,8.31488799999999,0.6023989,-0.2595708,0.9812655,-21.65103,-18.52478,-28.04782
32.579198837,12.94397,29.36073,9.66487199999998,0.6008296,-0.2757401,0.9523629,-21.65103,-18.52478,-28.04782
32.589109421,20.12878,36.70048,11.4444,0.590188,-0.3338546,0.990967,-21.65103,-18.52478,-28.04782
32.599019051,19.0139,37.98203,12.91711,0.5777755,-0.3509217,1.095643,-21.65103,-18.52478,-28.04782
32.608929157,10.59032,38.15678,15.67844,0.6008149,-0.3708432,1.125547,-21.65103,-18.52478,-28.04782
32.618839741,6.62628499999997,39.61308,18.19431,0.5999431,-0.3122724,1.10914,-20.52777,-18.90425,-29.27316
32.628749847,7.80310800000002,42.93344,17.82614,0.5400952,-0.2658125,1.049502,-20.52777,-18.90425,-29.27316
32.638659954,12.69621,47.53535,16.53752,0.468857,-0.2539542,0.9830182,-20.52777,-18.90425,-29.27316
32.648570537,17.21769,54.23432,13.96028,0.4629896,-0.2881741,0.9429913,-20.52777,-18.90425,-29.27316
32.658480167,15.48343,57.9042,14.32845,0.4559648,-0.354198,0.9435769,-20.52777,-18.90425,-29.27316
32.668390274,15.97893,59.1857400000001,14.81936,0.4689268,-0.3917097,0.9715364,-19.0351,-18.9091,-30.50159
32.678300381,20.87204,59.0109799999998,15.61707,0.4754842,-0.368847,0.9701875,-19.0351,-18.9091,-30.50159
32.688210964,29.54336,55.63237,16.2307,0.4625071,-0.3237866,0.9019452,-19.0351,-18.9091,-30.50159
32.698121071,34.3126,49.51591,17.27387,0.4227831,-0.3009294,0.9173496,-19.0351,-18.9091,-30.50159
32.708030701,28.36654,46.19555,17.02842,0.3705788,-0.2788464,0.906936,-19.0351,-18.9091,-30.50159
32.717941284,21.98692,47.82661,16.72161,0.324649,-0.2720969,0.8228979,-16.79925,-18.15973,-30.51558
32.727851391,26.75615,54.29258,18.13295,0.3101964,-0.2482744,0.7766149,-16.79925,-18.15973,-30.51558
32.737761497,38.95795,59.0692400000003,20.0352,0.293302,-0.1830176,0.7791265,-16.79925,-18.15973,-30.51558
32.75014925,47.25765,61.9818300000002,19.17612,0.2712749,-0.1491591,0.816528,-16.79925,-18.15973,-30.51558
32.760059357,50.97393,63.8458899999999,19.85111,0.2482275,-0.1348473,0.8269197,-16.79925,-18.15973,-30.51558
32.76996994,54.25665,58.07895,19.85111,0.2103094,-0.1120347,0.9229739,-14.9261,-18.53757,-31.35933
32.779880047,42.55036,49.63242,18.19431,0.1623279,-0.1109648,0.8706074,-14.9261,-18.53757,-31.35933
32.789789677,35.05585,40.66161,15.06481,0.1318599,-0.1097298,0.7143658,-14.9261,-18.53757,-31.35933
32.799700737,37.78113,32.44809,17.02842,0.1401533,-0.08744483,0.6909098,-14.9261,-18.53757,-31.35933
32.809610367,35.11779,31.51606,20.15793,0.1379801,-0.02684621,0.7883256,-14.9261,-18.53757,-31.35933
32.819520473,24.89801,30.46752,19.0534,0.1160244,-0.04733652,0.8167215,-12.73807,-18.91199,-31.36953
32.829431057,17.15575,31.45781,18.68522,0.1479345,-0.0793067,0.8392609,-12.73807,-18.91199,-31.36953
32.839341164,17.27963,34.31215,18.07159,0.1518588,-0.1126614,0.8490858,-12.73807,-18.91199,-31.36953
32.849250793,20.31459,36.52573,16.72161,0.148702,-0.1598741,0.9150622,-12.73807,-18.91199,-31.36953
32.859161854,23.65925,38.44804,15.2489,0.1332457,-0.1787471,0.9592541,-12.73807,-18.91199,-31.36953
32.869071484,27.18972,36.99174,14.45118,0.152688,-0.1861191,0.9868743,-11.98147,-19.66296,-31.82083
32.87898159,26.69421,31.98207,13.83755,0.1293225,-0.1895249,1.040845,-11.98147,-19.66296,-31.82083
32.888892174,24.7122,25.05009,12.67165,0.1318996,-0.1823567,1.014461,-11.98147,-19.66296,-31.82083
32.89880228,17.89901,20.62294,11.81257,0.1229363,-0.1318283,0.9625429,-11.98147,-19.66296,-31.82083
32.908712387,14.12079,21.72972,12.36484,0.1451351,-0.06878129,0.912341,-11.98147,-19.66296,-31.82083
32.918622017,11.58133,25.98212,17.27387,0.185476,0.008425457,0.9312085,-11.22948,-20.03906,-32.20903
32.9285326,7.74116999999998,27.96269,20.34202,0.1716384,0.04964117,0.9652221,-11.22948,-20.03906,-32.20903
32.938442707,-2.540546,21.61322,19.42157,0.1159443,0.04043566,1.006969,-11.22948,-20.03906,-32.20903
32.948353291,-17.71537,15.49677,15.18753,0.06184551,-0.02893306,0.9431466,-11.22948,-20.03906,-32.20903
32.958263397,-26.07701,10.31234,12.91711,0.03955182,-0.1056969,0.8727383,-11.22948,-20.03906,-32.20903
32.968173504,-26.32476,6.64246800000002,11.50576,0.04258621,-0.1368273,0.8460941,-10.85869,-19.66287,-31.82667
32.978083134,-25.14794,5.127917,9.29669499999999,0.07276767,-0.1782204,0.8320948,-10.85869,-19.66287,-31.82667
32.987993717,-27.06802,2.797838,8.68306499999997,0.1139823,-0.1820225,0.8412914,-10.85869,-19.66287,-31.82667
32.997903824,-29.23585,2.273571,9.48078300000003,0.08994074,-0.1621259,0.8089956,-10.85869,-19.66287,-31.82667
33.007813931,-31.34174,-0.2312636,9.29669499999999,0.04117768,-0.09024318,0.7633501,-10.85869,-19.66287,-31.82667
33.020201683,-30.35073,-9.95934199999999,7.148993,-0.03866937,-0.05011116,0.6534393,-9.743753,-19.29158,-32.66884
33.03011179,-26.01507,-17.88161,5.246743,-0.07794128,-0.06873049,0.6167064,-9.743753,-19.29158,-32.66884
33.040022373,-22.29879,-24.46408,1.933146,-0.06361751,-0.1453029,0.5886948,-9.743753,-19.29158,-32.66884
33.04993248,-17.03405,-29.82326,-3.159976,-0.01471244,-0.1963845,0.6248743,-9.743753,-19.29158,-32.66884
33.05984211,-12.94614,-31.62907,-9.41899200000002,0.06215226,-0.2243923,0.648945,-9.743753,-19.29158,-32.66884
33.069752693,-9.29179500000003,-32.38634,-14.02121,0.08509146,-0.1936429,0.6330926,-10.13394,-18.16939,-33.05582
33.0796628,-4.832254,-34.07565,-18.13253,0.08046725,-0.1467455,0.6185628,-10.13394,-18.16939,-33.05582
33.089572907,2.538374,-37.33776,-20.77113,0.06629186,-0.1003398,0.6257253,-10.13394,-18.16939,-33.05582
33.09948349,4.89202,-44.03674,-22.18248,0.06227755,-0.07605193,0.6441703,-10.13394,-18.16939,-33.05582
33.109393597,-1.239847,-52.19201,-21.44612,0.0910517,-0.05352988,0.7107962,-10.13394,-18.16939,-33.05582
33.119303226,-8.85822799999998,-58.3084700000001,-21.13931,0.1220227,-0.05573601,0.7719553,-10.897,-17.04567,-33.05539
33.129214287,-14.6804,-62.5026099999998,-21.56885,0.1506978,-0.07277774,0.7826203,-10.897,-17.04567,-33.05539
33.139123917,-16.72436,-64.3084300000002,-22.42793,0.1963866,-0.09307182,0.7796617,-10.897,-17.04567,-33.05539
33.149034023,-17.77731,-63.3763900000001,-23.28701,0.1983369,-0.0962254,0.7277656,-10.897,-17.04567,-33.05539
33.158944607,-15.67141,-68.5608099999998,-24.94381,0.1557957,-0.07384095,0.6586852,-10.897,-17.04567,-33.05539
33.168854713,-10.22087,-74.2112600000002,-26.1097,0.1666641,-0.0634044,0.6817018,-11.99739,-18.54074,-32.20975
33.178764343,-11.39769,-75.3762999999999,-25.00517,0.2275247,-0.0834925,0.7755963,-11.99739,-18.54074,-32.20975
33.188675404,-24.03305,-72.28894,-23.4711,0.2909291,-0.1022834,0.8329839,-11.99739,-18.54074,-32.20975
33.198585033,-34.06701,-71.3569100000002,-22.36657,0.319588,-0.09445549,0.8711836,-11.99739,-18.54074,-32.20975
33.20849514,-35.92516,-69.6675999999999,-22.55066,0.3951003,-0.08047079,0.9555664,-11.99739,-18.54074,-32.20975
33.218405724,-36.66841,-66.1724899999999,-22.18248,0.4109563,-0.1440596,0.9967698,-14.56016,-17.78679,-30.97812
33.22831583,-45.95912,-69.5511000000001,-22.79611,0.4013499,-0.1726243,1.027879,-14.56016,-17.78679,-30.97812
33.23822546,-51.59548,-75.4345500000001,-25.43471,0.3919254,-0.1840301,1.001481,-14.56016,-17.78679,-30.97812
33.24813652,-50.10897,-76.3083299999997,-31.93918,0.4347009,-0.2379999,1.056424,-14.56016,-17.78679,-30.97812
33.25804615,-43.10997,-69.0268300000001,-31.75509,0.5045587,-0.2695832,1.155921,-14.56016,-17.78679,-30.97812
33.267956257,-48.68439,-63.5511499999998,-20.40295,0.5336922,-0.2900405,1.254908,-16.41231,-18.90549,-29.68003
33.27786684,-69.6194599999999,-61.3958199999997,-3.650879,0.5373034,-0.2996556,1.262013,-16.41231,-18.90549,-29.68003
33.290254116,-78.2288399999999,-57.4346899999999,7.45580799999998,0.6030979,-0.3462582,1.186189,-16.41231,-18.90549,-29.68003
33.3001647,-62.2488299999999,-59.0657400000003,4.019485,0.6972736,-0.3846807,1.217233,-16.41231,-18.90549,-29.68003
33.310074806,-54.38269,-56.96867,-1.687266,0.7544673,-0.3995728,1.29343,-19.04043,-18.15494,-29.28325
33.319984913,-60.7623100000002,-49.62893,-3.098613,0.6637053,-0.411365,1.107409,-19.04043,-18.15494,-29.28325
33.329895496,-66.0270499999999,-39.31833,-6.47357199999998,0.6136861,-0.4376793,1.015026,-19.04043,-18.15494,-29.28325
33.339805126,-66.3986800000001,-21.20197,-10.46216,0.6216497,-0.4353178,0.9837579,-19.04043,-18.15494,-29.28325
33.349715233,-58.3467299999999,-2.50309,-17.64162,0.583762,-0.4905559,0.8008001,-19.04043,-18.15494,-29.28325
33.359625816,-34.00507,-1.745815,-17.82571,0.5458277,-0.5243462,0.7337037,-20.93459,-16.28055,-28.89382
33.369535923,-22.36072,-10.65837,-11.75078,0.570253,-0.4206371,0.8527678,-20.93459,-16.28055,-28.89382
33.37944603,-31.09399,-15.37677,-5.614491,0.4878526,-0.3879092,0.723625,-20.93459,-16.28055,-28.89382
33.389356613,-32.085,-20.21169,-3.03725,0.4467833,-0.466719,0.5842339,-20.93459,-16.28055,-28.89382
33.399266243,-27.00608,-16.36706,1.687694,0.5049988,-0.4969376,0.6944108,-20.93459,-16.28055,-28.89382
33.40917635,-28.86422,-8.03702600000001,2.485412,0.5348872,-0.4553079,0.7966853,-22.05252,-16.65524,-28.88683
33.419086933,-27.6874,-8.211782,1.442243,0.5198388,-0.3891081,0.7895831,-22.05252,-16.65524,-28.88683
33.42899704,-23.04204,-15.14377,-1.748629,0.5261062,-0.3705383,0.8026131,-22.05252,-16.65524,-28.88683
33.438907147,-18.33475,-16.42531,-7.27128999999997,0.5762619,-0.4448803,0.838146,-22.05252,-16.65524,-28.88683
33.44881773,-19.20188,-5.240932,-9.23490300000001,0.6143885,-0.5073272,0.8589845,-22.05252,-16.65524,-28.88683
33.45872736,-17.83924,2.739586,-15.06438,0.6243004,-0.5117743,0.81901,-22.06359,-15.90761,-29.2746
33.468637467,-11.89319,7.51624699999999,-17.5189,0.5620341,-0.6260409,0.8121025,-22.06359,-15.90761,-29.2746
33.47854805,-0.8682191,9.55506599999997,-20.46432,0.5961584,-0.610544,0.8200527,-22.06359,-15.90761,-29.2746
33.488458157,7.67923199999999,13.69096,-17.02799,0.5689159,-0.5803308,0.8214663,-22.06359,-15.90761,-29.2746
33.498368263,10.59032,14.85599,-13.34622,0.5251666,-0.535879,0.8034409,-22.06359,-15.90761,-29.2746
33.508278847,12.20071,15.90453,-10.70761,0.5169992,-0.4764042,0.7919087,-22.81615,-15.59551,-29.27167
33.518188477,12.69621,18.58412,-7.63946799999999,0.4447992,-0.4879556,0.7949002,-22.81615,-15.59551,-29.27167
33.528098583,16.04087,17.76859,-9.97125800000001,0.4332695,-0.4765367,0.7806782,-22.81615,-15.59551,-29.27167
33.538009167,20.74816,17.24433,-9.29626599999999,0.4293492,-0.4480579,0.7655391,-22.81615,-15.59551,-29.27167
33.547919274,22.42049,15.38026,-7.394016,0.4292877,-0.4305289,0.7800612,-22.81615,-15.59551,-29.27167
33.55782938,20.99591,11.65214,-4.694048,0.4327822,-0.4138634,0.8065487,-22.81372,-15.9095,-29.72042
33.570217132,17.65126,7.16673599999998,-1.135,0.4569007,-0.4249394,0.8566684,-22.81372,-15.9095,-29.72042
33.580127239,16.59831,5.011413,1.81042,0.4782423,-0.428414,0.8833367,-22.81372,-15.9095,-29.72042
33.590037823,16.28862,3.263854,3.405856,0.4804408,-0.4011944,0.8911803,-22.81372,-15.9095,-29.72042
33.599947929,14.24467,2.681334,2.792227,0.4712699,-0.3436965,0.8748426,-22.81372,-15.9095,-29.72042
33.609857559,12.20071,5.302673,1.503605,0.479459,-0.3180511,0.8451679,-21.6764,-17.0332,-29.7228
33.619768143,13.8111,9.38030999999998,1.135428,0.4953156,-0.3277504,0.806544,-21.6764,-17.0332,-29.7228
33.629678249,19.13777,12.93368,1.749057,0.5147465,-0.3609821,0.8027818,-21.6764,-17.0332,-29.7228
33.639588356,21.3056,14.91425,4.080848,0.5199325,-0.388811,0.846723,-21.6764,-17.0332,-29.7228
33.649498939,19.07583,14.27347,5.98309800000002,0.517135,-0.3692647,0.8828909,-21.6764,-17.0332,-29.7228
33.659409046,15.17374,12.1764,6.10582399999999,0.4983266,-0.3240105,0.8660807,-21.67155,-17.40779,-29.72165
33.669318676,13.43947,9.43856100000003,5.614921,0.4540991,-0.2646854,0.8188691,-21.67155,-17.40779,-29.72165
33.679229259,13.31559,7.10848400000002,5.492195,0.4161939,-0.2294404,0.787764,-21.67155,-17.40779,-29.72165
33.689139366,12.0149,6.17645200000001,6.16718700000003,0.413977,-0.19643,0.8009687,-21.67155,-17.40779,-29.72165
33.699049473,7.18372799999999,5.710437,6.84217800000002,0.4083015,-0.1856718,0.8323032,-21.67155,-17.40779,-29.72165
33.708960056,-0.3727147,3.43861,7.27171900000003,0.4110045,-0.1850191,0.858211,-21.29729,-17.40776,-29.72359
33.718870163,-7.24783800000001,0.409508,7.76262199999999,0.4456382,-0.2229155,0.8533168,-21.29729,-17.40776,-29.72359
33.728779793,-8.61047599999998,-0.813783199999999,7.45580799999998,0.4735102,-0.2603664,0.857131,-21.29729,-17.40776,-29.72359
33.738690376,-7.86721900000001,-0.580775400000001,5.86037199999999,0.4814117,-0.2690082,0.8545996,-21.29729,-17.40776,-29.72359
33.748600483,-6.56652,-0.3477675,4.449025,0.4847136,-0.2836624,0.8256619,-21.29729,-17.40776,-29.72359
33.75851059,-3.345741,1.574547,4.203574,0.5014589,-0.3029037,0.8148155,-21.30352,-17.03474,-30.11021
33.768421173,-1.115971,3.555114,3.958122,0.5105736,-0.3089719,0.8382185,-21.30352,-17.03474,-30.11021
33.77833128,-2.478608,4.370642,3.651307,0.4927033,-0.3076198,0.8614403,-21.30352,-17.03474,-30.11021
33.78824091,-3.779308,4.079382,2.853589,0.4743922,-0.2957655,0.8540061,-21.30352,-17.03474,-30.11021
33.798151493,-3.407679,3.322106,1.749057,0.4526481,-0.2912765,0.8369514,-21.30352,-17.03474,-30.11021
33.8080616,-2.912175,2.623082,0.828613499999998,0.4417025,-0.2837044,0.8274999,-21.68748,-16.28558,-30.11057
33.817971706,-3.71737,1.749303,0.03089567,0.4390953,-0.275039,0.8218198,-21.68748,-16.28558,-30.11057
33.82788229,-4.832254,1.05028,-0.3986447,0.4395116,-0.2755585,0.8141301,-21.68748,-16.28558,-30.11057
33.837792397,-5.451635,0.5260119,-0.889547900000002,0.4488308,-0.2949393,0.7942282,-21.68748,-16.28558,-30.11057
33.850180149,-5.203883,-0.1147597,-0.889547900000002,0.4651483,-0.3602481,0.7830787,-21.68748,-16.28558,-30.11057
33.860090256,-3.221865,0.5842639,-0.644096300000003,0.4754358,-0.3925441,0.7947724,-22.06035,-16.28404,-29.72316
33.869999886,-1.859228,0.933775699999999,-1.135,0.4643134,-0.3921327,0.8073621,-22.06035,-16.28404,-29.72316
33.879910946,-1.425662,0.1182482,-1.073637,0.4534396,-0.3889135,0.7998015,-22.06035,-16.28404,-29.72316
33.889820576,0.1227897,-0.988539100000001,-0.828185100000001,0.4471018,-0.3958127,0.7935722,-22.06035,-16.28404,-29.72316
33.899730682,2.414498,-1.512807,-0.3986447,0.4429362,-0.416721,0.7920309,-22.06035,-16.28404,-29.72316
33.909641266,4.210701,-2.153579,-0.4600076,0.442361,-0.4438408,0.7995381,-21.31322,-16.28555,-30.11252
33.919551373,6.56434699999999,-3.08561,-0.2759189,0.4435342,-0.4622636,0.7970037,-21.31322,-16.28555,-30.11252
33.929461479,9.41349700000002,-4.483657,0.583161800000002,0.446613,-0.4748343,0.7964113,-21.31322,-16.28555,-30.11252
33.939372063,12.69621,-6.58072700000001,1.442243,0.4454024,-0.4681383,0.7815823,-21.31322,-16.28555,-30.11252
33.949281692,16.78412,-7.92052300000001,1.564968,0.4436844,-0.4673118,0.758076,-21.31322,-16.28555,-30.11252
33.959191799,23.4115,-8.79430199999998,1.749057,0.4496604,-0.4949868,0.7362291,-22.06035,-16.28404,-29.72316
33.969102383,30.59631,-9.14381400000001,2.730864,0.4583853,-0.5336925,0.731089,-22.06035,-16.28404,-29.72316
33.979012489,37.96694,-9.37682200000001,3.651307,0.4709092,-0.5567979,0.73322,-22.06035,-16.28404,-29.72316
33.988923073,44.84206,-9.84283699999999,4.019485,0.4755283,-0.5400438,0.7741024,-22.06035,-16.28404,-29.72316
33.998833179,49.92098,-11.35739,4.019485,0.4628235,-0.4823982,0.7947705,-22.06035,-16.28404,-29.72316
34.008742809,54.62828,-13.97873,4.387662,0.4498265,-0.4044168,0.8107753,-22.03797,-17.77902,-28.88336
34.018652916,56.98192,-16.0758,4.633114,0.4516166,-0.3442391,0.8174018,-22.03797,-17.77902,-28.88336
34.028563499,57.84906,-17.70685,5.246743,0.4688066,-0.3581313,0.8085074,-22.03797,-17.77902,-28.88336
34.038473606,57.9109899999999,-18.17287,7.08763000000002,0.4847245,-0.368526,0.8226957,-22.03797,-17.77902,-28.88336
34.048383713,57.04386,-16.89132,8.06943700000002,0.5199543,-0.3873363,0.8505738,-22.03797,-17.77902,-28.88336
34.058294296,56.98192,-15.95929,9.787598,0.5196939,-0.4023455,0.8552779,-22.41547,-17.40263,-28.43286
34.068203926,59.3975100000002,-17.29909,12.36484,0.5574374,-0.4476701,0.9064839,-22.41547,-17.40263,-28.43286
34.078114033,60.1407599999997,-16.89132,14.69663,0.5861155,-0.4583688,0.9248737,-22.41547,-17.40263,-28.43286
34.088024616,63.1137899999999,-13.74572,14.63527,0.5844926,-0.4031069,0.9266973,-22.41547,-17.40263,-28.43286
34.097934723,68.93596,-7.16324699999999,13.96028,0.5608608,-0.3059327,0.9294838,-22.41547,-17.40263,-28.43286
34.10784483,73.8910100000003,-2.910854,14.88072,0.5053072,-0.1697168,0.9645162,-22.39495,-18.51961,-26.75904
34.117755413,70.23666,3.322106,11.56712,0.4513792,-0.06949753,0.9728848,-22.39495,-18.51961,-26.75904
34.130142689,62.0608400000001,7.10848400000002,8.00807399999998,0.4438835,-0.1038197,0.9170272,-22.39495,-18.51961,-26.75904
34.140053272,57.72518,6.64246800000002,7.27171900000003,0.4868107,-0.1562561,0.8932333,-22.39495,-18.51961,-26.75904
34.149963379,54.07084,8.098766,8.06943700000002,0.5429388,-0.1773081,0.9060184,-22.39495,-18.51961,-26.75904
34.159873009,53.32758,12.87543,8.19216299999999,0.594967,-0.1387554,0.9225996,-23.12802,-19.26233,-25.14672
34.169783592,54.5044,17.36083,9.35805800000003,0.6006687,-0.1136506,0.8881427,-23.12802,-19.26233,-25.14672
34.179693699,60.6981999999999,22.72001,11.19895,0.5813389,-0.05329756,0.8858426,-23.12802,-19.26233,-25.14672
34.189603806,65.6532399999999,25.05009,12.79438,0.5044571,0.005433049,0.8960679,-23.12802,-19.26233,-25.14672
34.199514389,62.0608400000001,23.47729,12.48757,0.4496898,0.08157029,0.937415,-23.12802,-19.26233,-25.14672
34.209424496,51.46944,21.49672,10.40123,0.3940225,0.1099309,0.9304363,-22.36522,-20.00623,-23.86341
34.219334126,41.74516,20.85595,6.65808999999999,0.3945711,0.08801682,0.9105986,-22.36522,-20.00623,-23.86341
34.229244709,33.69321,18.64237,4.449025,0.3851114,0.0617191,0.9109911,-22.36522,-20.00623,-23.86341
34.239154816,24.89801,15.61327,1.871783,0.4392942,0.01162809,0.9384856,-22.36522,-20.00623,-23.86341
34.249065399,20.93398,17.41908,-0.644096300000003,0.4946175,-0.05032178,0.9202756,-22.36522,-20.00623,-23.86341
34.258975506,24.21669,24.0598,-0.950910899999997,0.5674092,-0.03871077,0.9273623,-21.98473,-20.37923,-23.47874
34.268885613,26.26065,31.39955,0.1536215,0.5518551,-0.02691168,0.9026164,-21.98473,-20.37923,-23.47874
34.278796196,28.18073,34.07914,0.5217989,0.5242041,-0.03519952,0.8668051,-21.98473,-20.37923,-23.47874
34.288705826,35.17973,32.04033,3.71267,0.4302255,-0.05082095,0.7917052,-21.98473,-20.37923,-23.47874
34.298615933,45.64726,25.2831,5.369469,0.3320694,-0.05881589,0.7949604,-21.98473,-20.37923,-23.47874
34.308526516,45.64726,17.94335,4.633114,0.3256407,-0.1111194,0.8220405,-20.86494,-20.38254,-24.31976
34.318436623,41.99291,14.73949,6.22854899999998,0.3577195,-0.120811,0.8394451,-20.86494,-20.38254,-24.31976
34.328346729,37.22368,14.62299,8.68306499999997,0.4091546,-0.104261,0.9154248,-20.86494,-20.38254,-24.31976
34.338257313,34.12678,21.14721,11.01486,0.438289,-0.05229204,0.956315,-20.86494,-20.38254,-24.31976
34.348166943,40.38252,25.98212,9.72623500000002,0.4513468,-0.02366956,0.9280556,-20.86494,-20.38254,-24.31976
34.358077049,51.03587,21.0307,9.84896099999999,0.4352773,-0.02554003,0.9800488,-19.72948,-21.12824,-23.48811
34.367987633,48.99191,15.78803,9.17396900000002,0.3854186,0.01773701,0.9371039,-19.72948,-21.12824,-23.48811
34.377897739,41.99291,9.08905000000002,3.589944,0.3389724,0.01275887,0.8366671,-19.72948,-21.12824,-23.48811
34.387807846,32.02089,3.089098,-0.214556,0.3142138,-0.04209478,0.7899553,-19.72948,-21.12824,-23.48811
34.400195599,26.75615,6.46771199999997,1.994509,0.3322358,-0.03335453,0.9362952,-19.71679,-21.87403,-22.65062
34.410105705,22.17274,15.43851,9.91032400000003,0.3386766,0.01896415,1.005727,-19.71679,-21.87403,-22.65062
34.420016289,19.88103,19.92392,12.4262,0.3674689,0.07173953,1.109526,-19.71679,-21.87403,-22.65062
34.429926396,17.09381,21.38021,7.026268,0.3949878,0.05849521,1.107263,-19.71679,-21.87403,-22.65062
34.439836025,23.47343,24.40932,1.074065,0.5079282,0.0608803,1.108635,-19.71679,-21.87403,-22.65062
34.449746609,29.72918,32.50634,1.749057,0.5631369,0.0842279,1.083792,-19.33284,-22.62319,-22.65026
34.459656716,26.63227,30.23451,5.308106,0.4604308,0.1387787,1.098069,-19.33284,-22.62319,-22.65026
34.469566822,13.25366,18.99188,7.578534,0.3580991,0.1635287,1.161601,-19.33284,-22.62319,-22.65026
34.479477406,-10.53056,10.54535,5.430832,0.3020915,0.1034283,1.113223,-19.33284,-22.62319,-22.65026
34.489387512,-31.65143,8.73953799999999,6.16718700000003,0.2528038,-0.001778181,0.9521249,-19.33284,-22.62319,-22.65026
34.499297142,-40.38469,10.42885,11.13758,0.2563455,-0.1446004,0.7965298,-18.5857,-22.6247,-23.03962
34.509207726,-34.74833,14.44823,16.59888,0.2911649,-0.2009369,0.78815,-18.5857,-22.6247,-23.03962
34.519117832,-21.9891,18.17636,17.3966,0.3213379,-0.2089241,0.76477,-18.5857,-22.6247,-23.03962
34.529027939,-10.59249,18.46762,15.98525,0.3033566,-0.124224,0.7794252,-18.5857,-22.6247,-23.03962
34.538938522,-4.33675,19.16664,13.83755,0.2630397,-0.01119186,0.7949558,-18.5857,-22.6247,-23.03962
34.548848629,1.237675,18.64237,8.49897699999999,0.2174587,0.05597876,0.7679756,-18.58869,-22.6281,-23.8748
34.558759213,2.166745,16.02103,4.264936,0.1993822,0.09697518,0.7698564,-18.58869,-22.6281,-23.8748
34.568668842,-5.575511,14.68124,3.405856,0.1799584,0.1109467,0.7994188,-18.58869,-22.6281,-23.8748
34.578578949,-13.37971,12.81718,3.774033,0.1951097,0.07089361,0.799492,-18.58869,-22.6281,-23.8748
34.588489532,-16.7863,10.77836,3.528581,0.2460642,0.03475891,0.8146253,-18.58869,-22.6281,-23.8748
34.598399639,-17.15793,9.49681400000001,4.75584,0.2786551,-0.002959018,0.8491242,-17.47375,-22.25681,-24.71697
34.608309746,-14.80428,4.428894,5.062654,0.2690158,-0.02958963,0.8792859,-17.47375,-22.25681,-24.71697
34.618220329,-13.31777,-5.47394,3.71267,0.2151938,-0.06345284,0.8363438,-17.47375,-22.25681,-24.71697
34.628129959,-14.74234,-13.22145,3.467218,0.194581,-0.0130269,0.7926958,-17.47375,-22.25681,-24.71697
34.638040066,-13.25583,-16.13405,1.38088,0.19923,0.01617745,0.8034108,-17.47375,-22.25681,-24.71697
34.647950649,-11.5835,-17.99811,-3.834968,0.216297,-0.004847599,0.8218391,-17.48207,-21.50605,-24.33381
34.657860756,-10.59249,-19.68742,-7.20992699999999,0.2396132,-0.04609728,0.7584479,-17.48207,-21.50605,-24.33381
34.667770863,-8.98210400000001,-23.06603,-6.35084600000001,0.2614214,-0.02202075,0.7675296,-17.48207,-21.50605,-24.33381
34.680158615,-11.64544,-25.27961,-3.957693,0.3011841,0.06708914,0.8392991,-17.48207,-21.50605,-24.33381
34.690068722,-15.60948,-28.59997,-4.387233,0.3036461,0.1002994,0.8798309,-17.48207,-21.50605,-24.33381
34.699979305,-18.83025,-33.66789,-5.859943,0.2866606,0.08015179,0.8688101,-18.23357,-21.50951,-25.1651
34.709889412,-25.14794,-39.72609,-6.596298,0.2842876,0.06259754,0.8552707,-18.23357,-21.50951,-25.1651
34.719799042,-30.7843,-43.80373,-5.553129,0.2947474,0.05063072,0.8598958,-18.23357,-21.50951,-25.1651
34.729709625,-33.01406,-45.31828,-5.36904,0.3368245,0.0167852,0.8703249,-18.23357,-21.50951,-25.1651
34.739619732,-37.04004,-44.4445,-6.22812100000001,0.400614,-0.0169273,0.947776,-18.23357,-21.50951,-25.1651
34.749529839,-45.2778,-39.26008,-5.062225,0.4589556,-0.0344061,0.9898542,-18.61107,-21.13311,-24.7146
34.759440422,-50.10897,-34.36691,-4.387233,0.4615773,0.04668345,1.006696,-18.61107,-21.13311,-24.7146
34.769350529,-54.75432,-30.69704,-4.448596,0.4299991,0.1583298,1.014454,-18.61107,-21.13311,-24.7146
34.779260158,-63.7353399999998,-26.44465,-6.78038700000001,0.3940881,0.1911802,0.9842744,-18.61107,-21.13311,-24.7146
34.789170742,-69.2478299999997,-18.23112,-7.08720199999999,0.4081844,0.1644939,1.040145,-18.61107,-21.13311,-24.7146
34.799080849,-74.8841899999999,-9.90108999999998,-10.70761,0.4456501,0.1056143,1.096065,-19.37414,-20.00939,-24.71416
34.808991432,-85.3517199999997,-0.639027300000002,-14.08257,0.4702885,0.0006624586,1.086975,-19.37414,-20.00939,-24.71416
34.818901539,-96.0670100000001,-1.338051,-11.87351,0.4138164,-0.07870413,0.9707701,-19.37414,-20.00939,-24.71416
34.828811645,-99.2258500000003,-13.1632,-8.92808800000003,0.4045031,-0.09200319,0.9530019,-19.37414,-20.00939,-24.71416
34.838722229,-111.6754,-19.80392,-6.90311299999998,0.3964189,0.009705566,0.9513534,-19.37414,-20.00939,-24.71416
34.848631859,-122.9481,-26.67765,-5.36904,0.3339455,0.03066615,0.7489639,-20.51097,-19.26525,-25.93128
34.858541965,-113.9052,-36.58049,-2.853161,0.2663388,-0.03220671,0.5676705,-20.51097,-19.26525,-25.93128
34.868452549,-104.4906,-30.75529,0.460436,0.3509698,-0.03989782,0.6575865,-20.51097,-19.26525,-25.93128
34.878362656,-102.075,-16.48356,-2.730435,0.3935772,-0.08834984,0.654949,-20.51097,-19.26525,-25.93128
34.888272762,-97.1818899999999,-8.73605099999999,-8.68263700000001,0.4384828,-0.1573265,0.7092924,-20.51097,-19.26525,-25.93128
34.898183346,-93.7753000000001,-2.910854,-11.32124,0.535096,-0.2569285,0.8109694,-20.53012,-18.1467,-27.21964
34.908092976,-90.8642100000002,-2.852602,-9.97125800000001,0.5908034,-0.3486741,0.8429738,-20.53012,-18.1467,-27.21964
34.918003082,-87.2718000000002,-3.551625,-12.11896,0.5741382,-0.4018259,0.8245279,-20.53012,-18.1467,-27.21964
34.927913666,-85.41366,-0.2895156,-16.04619,0.5802286,-0.4357827,0.8064795,-20.53012,-18.1467,-27.21964
34.937823772,-81.63544,-2.386586,-15.12574,0.5124093,-0.460948,0.7915739,-20.53012,-18.1467,-27.21964
34.950211525,-68.5045699999999,-6.40597199999999,-15.80074,0.4769002,-0.3947088,0.9349507,-21.68311,-16.28061,-28.88993
34.960121632,-68.9381399999998,-14.79425,-15.92346,0.4153742,-0.3478893,0.8551649,-21.68311,-16.28061,-28.88993
34.970031738,-71.7253499999997,-28.54172,-13.40758,0.376535,-0.3926339,0.7347063,-21.68311,-16.28061,-28.88993
34.979942322,-70.1769000000001,-32.26984,-10.8917,0.4193862,-0.4965688,0.6908836,-21.68311,-16.28061,-28.88993
34.989852428,-69.30977,-28.77472,-9.05081500000002,0.4667792,-0.5903797,0.6249989,-21.68311,-16.28061,-28.88993
34.999763012,-57.6654099999998,-19.39616,-8.00764499999998,0.5571364,-0.7080665,0.6200181,-21.70308,-14.84623,-29.27982
35.009672642,-38.65043,-7.454507,-6.41221000000002,0.6292483,-0.727284,0.6677192,-21.70308,-14.84623,-29.27982
35.019582748,-17.90118,2.040563,-7.27128999999997,0.6389844,-0.6993789,0.6961444,-21.70308,-14.84623,-29.27982
35.029493332,2.476436,9.67157,-8.62127400000002,0.6309371,-0.672028,0.7540201,-21.70308,-14.84623,-29.27982
35.039403439,18.08482,17.65209,-10.03262,0.5590559,-0.5834222,0.8100131,-21.70308,-14.84623,-29.27982
35.049313545,22.23467,18.93363,-13.40758,0.4728419,-0.4848298,0.8628442,-23.15389,-13.72439,-29.72553
35.059224129,16.4125,17.18607,-17.08936,0.3968853,-0.4348948,0.8576373,-23.15389,-13.72439,-29.72553
35.069133759,8.54636400000002,13.22494,-22.9802,0.3716155,-0.4514779,0.8059034,-23.15389,-13.72439,-29.72553
35.079043865,0.0608516599999998,8.44827800000003,-24.51427,0.401017,-0.4837602,0.7742062,-23.15389,-13.72439,-29.72553
35.088954449,-4.33675,7.92401099999998,-22.48929,0.4486786,-0.5001186,0.7774976,-23.15389,-13.72439,-29.72553
35.098864555,-6.25683000000001,5.419177,-18.43934,0.4895598,-0.5326264,0.7682601,-22.83369,-14.47512,-30.11031
35.108774662,-5.947139,0.0599961999999999,-13.40758,0.5083553,-0.5581355,0.7592735,-22.83369,-14.47512,-30.11031
35.118685246,-2.850237,-6.58072700000001,-8.98945100000001,0.5289504,-0.5888189,0.7766445,-22.83369,-14.47512,-30.11031
35.128594875,3.839073,-11.06613,-6.596298,0.5053606,-0.572102,0.7846566,-22.83369,-14.47512,-30.11031
35.138504982,10.21869,-11.41564,-5.675855,0.5225,-0.476761,0.8033792,-22.83369,-14.47512,-30.11031
35.148415566,10.7142,-8.96905800000002,-5.062225,0.4725858,-0.3871713,0.8092393,-22.82399,-15.22431,-30.108
35.158325672,7.617294,-7.39625499999999,-6.22812100000001,0.4193068,-0.4178251,0.8229722,-22.82399,-15.22431,-30.108
35.168236256,9.78512499999999,-7.27975100000002,-8.62127400000002,0.4596052,-0.4391684,0.8176558,-22.82399,-15.22431,-30.108
35.178146362,11.02389,-2.328334,-6.41221000000002,0.5952315,-0.2744671,0.8371852,-22.82399,-15.22431,-30.108
35.188055992,-0.5585288,0.875523700000001,-4.878137,0.5286714,-0.4031191,0.8715151,-22.82399,-15.22431,-30.108
35.197966576,-2.788299,-0.05650773,-5.553129,0.5690197,-0.461749,0.8750728,-23.19687,-15.22277,-29.72059
35.207876682,2.476436,1.632799,-5.491766,0.5579529,-0.4515526,0.9045327,-23.19687,-15.22277,-29.72059
35.217786789,2.66225,1.166783,-4.878137,0.5446314,-0.3434962,0.9241019,-23.19687,-15.22277,-29.72059
35.230174542,-4.150936,2.331823,-4.203145,0.5103906,-0.2305304,0.9122069,-23.19687,-15.22277,-29.72059
35.240084648,-9.78729900000003,6.00169699999999,-2.853161,0.5084931,-0.1778504,0.8842461,-23.19687,-15.22277,-29.72059
35.249995232,-16.97211,7.574499,-1.56454,0.5000173,-0.2443722,0.8858019,-23.87251,-15.90776,-29.26519
35.259905338,-21.67941,8.33177500000003,0.2149844,0.5665279,-0.3623006,0.8916036,-23.87251,-15.90776,-29.26519
35.269815445,-21.06002,11.24437,1.933146,0.6172689,-0.4363469,0.8892005,-23.87251,-15.90776,-29.26519
35.279726029,-19.94514,14.15697,1.994509,0.6189278,-0.450375,0.8914925,-23.87251,-15.90776,-29.26519
35.289635658,-18.95413,16.37054,1.258154,0.5709491,-0.4054012,0.8907954,-23.87251,-15.90776,-29.26519
35.299546242,-18.52057,17.12782,0.6445247,0.5088576,-0.3481354,0.8634218,-23.19687,-15.22277,-29.72059
35.309456348,-18.70638,17.18607,0.705887599999999,0.4566756,-0.2906794,0.8489221,-23.19687,-15.22277,-29.72059
35.319366455,-20.93615,16.89481,1.503605,0.4562958,-0.2679502,0.8385136,-23.19687,-15.22277,-29.72059
35.329277039,-24.03305,17.36083,2.23996,0.4724978,-0.2789332,0.8320485,-23.19687,-15.22277,-29.72059
35.339187145,-26.8822,17.53559,2.178597,0.4908718,-0.3117305,0.8210965,-23.19687,-15.22277,-29.72059
35.349096775,-28.98809,17.18607,2.301323,0.4968024,-0.3413803,0.7925149,-23.2047,-14.85158,-30.55692
35.359007359,-28.92616,17.18607,2.117234,0.5023763,-0.3656015,0.783179,-23.2047,-14.85158,-30.55692
35.368917465,-27.74933,17.47733,1.81042,0.4941324,-0.3754261,0.7783881,-23.2047,-14.85158,-30.55692
35.378827572,-27.19189,17.82685,0.951339199999998,0.4848684,-0.3701629,0.7871518,-23.2047,-14.85158,-30.55692
35.388738155,-27.99709,17.82685,-0.3372818,0.4601572,-0.3579231,0.775938,-23.2047,-14.85158,-30.55692
35.398648262,-26.8822,17.53559,-1.748629,0.4266394,-0.3579913,0.7498388,-22.84313,-14.10576,-31.39636
35.408557892,-24.09499,18.05985,-3.712242,0.4334874,-0.3413189,0.769573,-22.84313,-14.10576,-31.39636
35.418468475,-25.14794,17.94335,-5.98266900000002,0.4454792,-0.3488432,0.7857375,-22.84313,-14.10576,-31.39636
35.428378582,-26.3867,18.17636,-8.06900800000002,0.432325,-0.4284872,0.7925308,-22.84313,-14.10576,-31.39636
35.438288689,-22.23685,16.31229,-10.83034,0.4554633,-0.4549468,0.7767755,-22.84313,-14.10576,-31.39636
35.448199272,-17.77731,16.02103,-11.93487,0.4696756,-0.4606061,0.7732453,-22.46701,-14.48372,-32.23233
35.458109379,-17.46762,16.83656,-12.11896,0.4893146,-0.4476363,0.7961977,-22.46701,-14.48372,-32.23233
35.468019962,-14.61847,19.5744,-12.30305,0.5014915,-0.4492106,0.8373681,-22.46701,-14.48372,-32.23233
35.477929592,-14.12296,22.66176,-12.24169,0.5021952,-0.4454298,0.9103709,-22.46701,-14.48372,-32.23233
35.487839699,-17.40568,21.90448,-12.30305,0.4627166,-0.4314737,0.8916226,-22.46701,-14.48372,-32.23233
35.497750282,-15.91917,22.31225,-13.34622,0.4805198,-0.4101821,0.8407031,-21.35046,-14.1106,-32.62479
35.510137558,-13.00808,26.79765,-12.48714,0.4991938,-0.4730672,0.823786,-21.35046,-14.1106,-32.62479
35.520048142,-11.76932,28.95297,-10.4008,0.4925719,-0.5108371,0.849044,-21.35046,-14.1106,-32.62479
35.529958248,-14.12296,30.40927,-8.19173300000002,0.4950473,-0.5217617,0.8868809,-21.35046,-14.1106,-32.62479
35.539868355,-16.22886,30.35102,-6.289484,0.4915175,-0.5372217,0.9060168,-20.60008,-14.48854,-33.46271
35.549778938,-13.81327,28.25395,-5.430403,0.495164,-0.5894971,0.9142777,-20.60008,-14.48854,-33.46271
35.559689045,-12.01707,27.61317,-3.957693,0.5154305,-0.6120589,0.9091384,-20.60008,-14.48854,-33.46271
35.569598675,-6.93814800000003,26.9724,-5.36904,0.5302145,-0.589385,0.8515338,-20.60008,-14.48854,-33.46271
35.579509258,-1.301785,31.69081,-3.712242,0.5230647,-0.637913,0.8603996,-20.60008,-14.48854,-33.46271
35.589419365,7.05985200000002,34.3704,-2.116806,0.5274527,-0.5525074,0.8638089,-19.12543,-12.99343,-34.31029
35.599329948,11.89102,34.54516,0.03089567,0.50108,-0.5315979,0.9390968,-19.12543,-12.99343,-34.31029
35.609240055,11.76714,31.80732,0.767250500000003,0.4482498,-0.5149581,0.9089661,-19.12543,-12.99343,-34.31029
35.619150162,12.88203,29.36073,-1.441814,0.428975,-0.4772638,0.8378519,-19.12543,-12.99343,-34.31029
35.629060745,14.67823,37.51601,-2.178169,0.4230416,-0.4654248,0.7976523,-19.12543,-12.99343,-34.31029
35.638970375,15.29761,42.11792,-1.871354,0.370955,-0.5015689,0.7782068,-17.61225,-14.11527,-33.8649
35.648880482,16.16475,37.86552,-0.3372818,0.3446257,-0.4916168,0.7972428,-17.61225,-14.11527,-33.8649
35.658791065,15.79312,33.67138,2.608138,0.3727055,-0.4699439,0.7952068,-17.61225,-14.11527,-33.8649
35.668701172,13.31559,29.7685,5.308106,0.3479207,-0.4362789,0.8019024,-17.61225,-14.11527,-33.8649
35.678611278,8.79411600000002,26.38988,4.14221,0.3174526,-0.3882057,0.7957822,-17.61225,-14.11527,-33.8649
35.688521862,3.467444,26.8559,2.301323,0.3059309,-0.3236207,0.7492635,-15.74256,-14.11695,-34.32435
35.698431492,5.94496599999999,24.11806,0.03089567,0.2313478,-0.2876229,0.670967,-15.74256,-14.11695,-34.32435
35.708342552,13.50141,18.93363,-0.644096300000003,0.2207597,-0.275235,0.6543419,-15.74256,-14.11695,-34.32435
35.718252182,14.61629,18.0016,1.38088,0.2362981,-0.2597252,0.7095197,-15.74256,-14.11695,-34.32435
35.728162289,5.263648,20.85595,1.196791,0.2411434,-0.2855318,0.770283,-15.74256,-14.11695,-34.32435
35.738072872,-5.88520100000001,20.50644,-3.650879,0.2190504,-0.3460937,0.7383935,-15.00027,-13.74386,-34.71486
35.747982979,-10.09699,16.77831,-8.86672600000002,0.2003597,-0.4166188,0.7404973,-15.00027,-13.74386,-34.71486
35.757893085,-9.84923700000002,16.13754,-10.09398,0.2347578,-0.3934228,0.7364924,-15.00027,-13.74386,-34.71486
35.767803669,-1.4876,19.28314,-9.17354000000002,0.2262854,-0.3867897,0.6333809,-15.00027,-13.74386,-34.71486
35.780190945,17.89901,19.69091,-2.239532,0.2268943,-0.3928143,0.6856725,-15.00027,-13.74386,-34.71486
35.790101528,22.1108,15.78803,1.81042,0.2195002,-0.4565825,0.7482167,-13.55592,-14.49294,-34.72001
35.800011158,11.02389,8.564782,4.571751,0.2472027,-0.5526494,0.7622054,-13.55592,-14.49294,-34.72001
35.809922218,-2.788299,4.312389,9.91032400000003,0.2560044,-0.6493639,0.6966584,-13.55592,-14.49294,-34.72001
35.819831848,-3.71737,-0.4060195,16.66024,0.2587005,-0.6723778,0.6465437,-13.55592,-14.49294,-34.72001
35.829741955,5.5114,0.759019800000003,20.09657,0.3019575,-0.6534228,0.7384602,-13.55592,-14.49294,-34.72001
35.839652538,24.95995,5.88519199999999,18.74658,0.2794656,-0.6380946,0.7565362,-12.81039,-14.49628,-35.55909
35.849562645,39.26764,2.797838,16.78297,0.2879484,-0.6115603,0.8041703,-12.81039,-14.49628,-35.55909
35.859472275,48.86804,3.322106,13.40801,0.3389093,-0.5689155,0.864483,-12.81039,-14.49628,-35.55909
35.869383335,55.24766,7.10848400000002,9.35805800000003,0.3813195,-0.5157671,0.9139011,-12.81039,-14.49628,-35.55909
35.879292965,51.53137,13.28319,8.62170300000002,0.3666057,-0.4081781,0.9402024,-12.81039,-14.49628,-35.55909
35.889203072,47.25765,10.37059,8.31488799999999,0.312121,-0.317029,0.8836945,-13.18166,-14.49291,-34.72196
35.899113655,42.05485,0.409508,10.21714,0.2951058,-0.2628062,0.9091813,-13.18166,-14.49291,-34.72196
35.909023762,33.44546,-6.34771999999997,12.54893,0.3122692,-0.227444,0.9553533,-13.18166,-14.49291,-34.72196
35.918934345,21.73917,-8.61954700000002,11.01486,0.2965677,-0.1859656,0.9509733,-13.18166,-14.49291,-34.72196
35.928844452,7.24566599999997,-8.67779800000001,10.46259,0.3152789,-0.1734698,0.9782525,-13.18166,-14.49291,-34.72196
35.938754082,1.547365,-5.76519999999999,14.14436,0.380872,-0.1235916,0.995744,-12.41237,-15.98966,-34.33577
35.948664665,-0.001086392,5.186169,12.18075,0.4265773,-0.02118959,1.185666,-12.41237,-15.98966,-34.33577
35.958574772,-12.45063,13.16669,6.16718700000003,0.4155493,-0.03487543,1.190959,-12.41237,-15.98966,-34.33577
35.968484879,-34.43864,4.545397,3.651307,0.336989,-0.1326106,1.045066,-12.41237,-15.98966,-34.33577
35.978395462,-57.6654099999998,-3.959389,7.701259,0.2946169,-0.2259875,0.9046296,-12.41237,-15.98966,-34.33577
35.988305569,-73.8312499999998,-0.1147597,16.10798,0.2827872,-0.3149643,0.7913091,-13.16574,-15.61513,-34.33303
35.998215199,-70.7343400000002,0.293004,23.90107,0.3057826,-0.3985627,0.7900593,-13.16574,-15.61513,-34.33303
36.008125782,-71.7253499999997,-10.07585,23.71698,0.2666308,-0.5590443,0.8849037,-13.16574,-15.61513,-34.33303
36.018035889,-73.6454300000001,-18.46413,19.85111,0.2316878,-0.6820275,0.8143044,-13.16574,-15.61513,-34.33303
36.027946472,-65.9651100000002,-11.7069,11.99666,0.2430152,-0.7923366,0.6454093,-13.16574,-15.61513,-34.33303
36.037856579,-35.6774,3.555114,11.19895,0.2569996,-0.7444647,0.5870197,-12.8074,-14.49288,-34.72391
36.050244331,1.980931,10.25409,7.27171900000003,0.2226732,-0.5332462,0.7294307,-12.8074,-14.49288,-34.72391
36.060154438,5.573338,-0.2312636,1.687694,0.2089538,-0.4756232,0.8418183,-12.8074,-14.49288,-34.72391
36.070064545,0.2466658,-7.221499,0.03089567,0.2210527,-0.457983,0.7549153,-12.8074,-14.49288,-34.72391
36.079975128,1.609303,-5.47394,0.460436,0.2236099,-0.4171755,0.6706557,-12.8074,-14.49288,-34.72391
36.089885235,9.22768300000001,-3.37687,-0.644096300000003,0.1843706,-0.3579772,0.6805359,-13.19435,-13.74712,-35.55945
36.099794865,8.979931,-8.44479099999997,-3.650879,0.162547,-0.3883944,0.7578406,-13.19435,-13.74712,-35.55945
36.109705448,0.804108299999999,-13.1632,-4.816774,0.166274,-0.4230669,0.7945473,-13.19435,-13.74712,-35.55945
36.119615555,-1.79729,-14.50299,-5.553129,0.1822953,-0.4424365,0.760659,-13.19435,-13.74712,-35.55945
36.129526138,1.485427,-16.36706,-8.19173300000002,0.2057288,-0.4775232,0.7635697,-13.19435,-13.74712,-35.55945
36.139436245,3.901011,-16.54181,-10.64625,0.2047373,-0.5094893,0.7724889,-13.20751,-12.62176,-35.17744
36.149346352,3.157754,-18.81364,-12.30305,0.2167464,-0.5023705,0.8074768,-13.20751,-12.62176,-35.17744
36.159256935,4.830081,-18.9884,-11.81215,0.2298391,-0.4573839,0.8494292,-13.20751,-12.62176,-35.17744
36.169166565,-1.239847,-23.06603,-11.44397,0.2209349,-0.4197472,0.8358377,-13.20751,-12.62176,-35.17744
36.179076672,-3.779308,-26.67765,-11.13715,0.2342399,-0.4378253,0.7770149,-13.20751,-12.62176,-35.17744
36.188987255,1.113798,-27.02717,-10.15535,0.2720526,-0.4660498,0.7596716,-13.19621,-13.36912,-34.72542
36.198897362,6.502409,-28.54172,-10.52352,0.3129064,-0.495636,0.8464855,-13.19621,-13.36912,-34.72542
36.208807468,5.5114,-29.76501,-14.32802,0.3781508,-0.5698153,0.9707091,-13.19621,-13.36912,-34.72542
36.218718052,1.671241,-27.37668,-16.16891,0.4002294,-0.615106,0.972604,-13.19621,-13.36912,-34.72542
36.228627682,-0.4965908,-27.08542,-16.96663,0.40078,-0.587263,1.011197,-13.19621,-13.36912,-34.72542
36.238538265,3.839073,-27.84269,-17.08936,0.3891458,-0.4873661,1.0427,-14.31276,-13.74224,-34.33296
36.248448372,8.79411600000002,-35.12419,-16.8439,0.340349,-0.2986936,0.8921984,-14.31276,-13.74224,-34.33296
36.258358479,8.60830200000001,-34.42516,-20.34159,0.3395235,-0.2118238,0.7228088,-14.31276,-13.74224,-34.33296
36.268269062,4.458453,-35.3572,-18.13253,0.3076211,-0.3025193,0.7004124,-14.31276,-13.74224,-34.33296
36.278179169,-4.460626,-32.61935,-10.03262,0.3301233,-0.3951373,0.8311505,-14.31276,-13.74224,-34.33296
36.288088799,-10.90218,-24.69709,-7.02583799999998,0.3819452,-0.5081334,0.8884978,-14.6168,-14.11346,-33.495
36.297999859,-7.49559099999998,-11.29914,-11.56669,0.4676207,-0.623822,0.906141,-14.6168,-14.11346,-33.495
36.307909489,-0.8682191,9.32205800000003,-17.15072,0.5362999,-0.6747947,0.9157298,-14.6168,-14.11346,-33.495
36.317820072,8.42248799999999,24.0598,-18.37798,0.5048345,-0.6321097,0.9014204,-14.6168,-14.11346,-33.495
36.330207348,17.96095,23.9433,-13.89848,0.4695173,-0.5194381,1.022537,-14.6168,-14.11346,-33.495
36.340117931,11.02389,19.51615,-9.72580600000002,0.4580506,-0.4782302,1.049326,-16.49432,-13.74059,-33.87189
36.350028038,-4.956131,14.68124,-5.553129,0.4012168,-0.4263347,0.908551,-16.49432,-13.74059,-33.87189
36.359938145,-14.9901,-0.813783199999999,2.117234,0.2861109,-0.3435051,0.7958897,-16.49432,-13.74059,-33.87189
36.369848728,-17.03405,-14.85251,8.80579200000003,0.24172,-0.2879191,0.7760237,-16.49432,-13.74059,-33.87189
36.379758835,-17.2818,-24.46408,10.89213,0.192476,-0.3394442,0.6820248,-16.49432,-13.74059,-33.87189
36.389668465,-24.2808,-28.0757,9.17396900000002,0.1781165,-0.4767798,0.5991357,-15.3667,-14.11509,-33.87658
36.399579048,-28.43065,-23.64855,8.98988099999998,0.2352809,-0.5953414,0.5987775,-15.3667,-14.11509,-33.87658
36.409489155,-23.59948,-11.41564,11.68985,0.3570467,-0.6484346,0.6328294,-15.3667,-14.11509,-33.87658
36.419399738,-3.345741,7.34149200000003,13.96028,0.4671524,-0.6650591,0.621617,-15.3667,-14.11509,-33.87658
36.429309845,27.12778,22.60351,11.81257,0.501816,-0.6483147,0.588277,-15.3667,-14.11509,-33.87658
36.439219952,56.85805,29.06947,5.98309800000002,0.4598435,-0.6153904,0.586964,-15.3683,-14.11692,-34.32629
36.449130535,83.0578400000002,31.10829,1.258154,0.4367031,-0.5603907,0.683576,-15.3683,-14.11692,-34.32629
36.459040165,97.7371599999999,30.17626,-3.159976,0.419001,-0.4977271,0.8426095,-15.3683,-14.11692,-34.32629
36.468950272,91.0478399999998,28.13744,-8.92808800000003,0.3999602,-0.4179509,0.9388684,-15.3683,-14.11692,-34.32629
36.478860855,74.01488,30.99179,-16.41436,0.373163,-0.3592223,0.9217417,-15.3683,-14.11692,-34.32629
36.488770962,62.2466500000001,32.50634,-19.85069,0.3035516,-0.321666,0.7579414,-16.49294,-13.73902,-33.48643
36.498681545,63.3615400000001,22.60351,-15.30983,0.2140549,-0.2945114,0.6931683,-16.49294,-13.73902,-33.48643
36.508591652,67.2636299999998,3.43861,-4.387233,0.1633369,-0.2784844,0.8205059,-16.49294,-13.73902,-33.48643
36.518501282,52.15075,-19.80392,6.28991200000003,0.1815423,-0.2474579,0.9631513,-16.49294,-13.73902,-33.48643
36.528412342,20.99591,-38.85231,12.4262,0.2210089,-0.2314246,0.9681748,-16.49294,-13.73902,-33.48643
36.538321972,-1.921166,-49.74543,15.49435,0.2762204,-0.2417341,0.9042147,-15.34592,-15.6119,-33.4865
