Time (s),Gyroscope X (deg/s),Gyroscope Y (deg/s),Gyroscope Z (deg/s),Accelerometer X (g),Accelerometer Y (g),Accelerometer Z (g),Magnetometer X (uT),Magnetometer Y (uT),Magnetometer Z (uT)
13.719871044,4.582329,0.351256,2.301323,0.2377901,0.05614697,0.9387251,-17.07183,-27.15915,-17.37951
13.729783058,-0.682404900000003,1.399791,2.608138,0.2431938,0.07134936,0.958943,-17.07183,-27.15915,-17.37951
13.739694595,-5.389697,-1.512807,3.344493,0.1968021,0.04055479,0.928917,-17.07183,-27.15915,-17.37951
13.749605656,-8.48660000000001,-7.454507,3.099041,0.1586274,-0.005795148,0.8713422,-17.07183,-27.15915,-17.37951
13.75951767,-11.088,-15.31852,3.221767,0.1445347,-0.04934203,0.8289285,-16.69943,-26.78113,-16.54743
13.769429207,-11.21187,-24.11457,4.203574,0.141205,-0.07567801,0.8071768,-16.69943,-26.78113,-16.54743
13.779340267,-9.22985600000001,-28.89123,4.510388,0.1791871,-0.06064783,0.8093264,-16.69943,-26.78113,-16.54743
13.789251804,-8.98210400000001,-31.45431,5.614921,0.2184234,-0.03326655,0.8528404,-16.69943,-26.78113,-16.54743
13.799163818,-8.053034,-28.65822,6.16718700000003,0.2821886,-0.01163015,0.9450653,-16.69943,-26.78113,-16.54743
13.809074879,-8.23884800000001,-24.23107,7.578534,0.334166,-0.008216957,1.010869,-17.82221,-26.78122,-16.5416
13.818986416,-5.947139,-18.93014,7.76262199999999,0.3777207,-0.00789219,1.062326,-17.82221,-26.78122,-16.5416
13.82889843,-0.992095199999997,-15.55153,5.79900900000001,0.3910014,-0.001344391,1.077611,-17.82221,-26.78122,-16.5416
13.83880949,1.175737,-16.54181,2.792227,0.3866497,-0.0008862261,1.082937,-17.82221,-26.78122,-16.5416
13.848721027,0.680232200000002,-17.24084,0.5217989,0.3901652,-0.009087743,1.082369,-17.82221,-26.78122,-16.5416
13.858632088,1.423489,-17.59035,-1.073637,0.3686162,-0.01547722,1.023947,-18.57259,-26.40329,-15.70368
13.868544102,3.033878,-16.94958,-1.932717,0.3553646,-0.01981919,0.9664213,-18.57259,-26.40329,-15.70368
13.878455162,8.05085899999999,-15.78454,-2.669072,0.3213737,-0.02647514,0.8865049,-18.57259,-26.40329,-15.70368
13.888366699,13.19172,-18.34762,-4.755411,0.2684158,-0.02843845,0.8221602,-18.57259,-26.40329,-15.70368
13.898278713,13.50141,-23.06603,-4.509959,0.2664373,-0.04262111,0.8033578,-18.57259,-26.40329,-15.70368
13.908189774,9.04186800000002,-27.49318,-2.484983,0.259441,-0.05521998,0.8215847,-18.56613,-26.77605,-15.25281
13.918101311,2.166745,-32.4446,-1.196362,0.2775485,-0.05498511,0.8233394,-18.56613,-26.77605,-15.25281
13.928013325,-3.965122,-35.88146,-1.932717,0.3134012,-0.07006537,0.8209867,-18.56613,-26.77605,-15.25281
13.937924385,-7.929157,-39.31833,-1.319088,0.3475192,-0.05115702,0.8323209,-18.56613,-26.77605,-15.25281
13.950313568,-10.59249,-45.55129,-2.669072,0.3926623,0.004362585,0.8649241,-18.56613,-26.77605,-15.25281
13.960225105,-10.2828,-49.10466,-1.871354,0.4127782,0.02660049,0.897537,-20.06017,-26.77277,-14.40985
13.970137119,-5.88520100000001,-47.06584,0.2763473,0.4591613,0.03324872,0.9461285,-20.06017,-26.77277,-14.40985
13.98004818,2.290622,-43.86198,-0.828185100000001,0.5802513,0.006633206,0.9453114,-20.06017,-26.77277,-14.40985
13.989959717,7.05985200000002,-41.99792,-1.380451,0.5881636,-0.002490888,0.9432569,-20.06017,-26.77277,-14.40985
13.999871731,5.139772,-38.09504,-2.607709,0.5876302,-0.02568647,0.9594326,-20.06017,-26.77277,-14.40985
14.009782791,-0.9301572,-24.69709,-3.528153,0.6406813,-0.05660585,0.946732,-21.54452,-27.51868,-13.56457
14.019694328,-4.832254,-16.60007,-7.51674200000002,0.5899219,-0.1135405,0.8416675,-21.54452,-27.51868,-13.56457
14.029605389,-7.49559099999998,-18.87189,-9.05081500000002,0.5018458,-0.09004574,0.8157497,-21.54452,-27.51868,-13.56457
14.039517403,-7.74334299999998,-23.06603,-9.11217699999998,0.4263144,-0.04476763,0.8465197,-21.54452,-27.51868,-13.56457
14.04942894,-5.080007,-26.09513,-9.11217699999998,0.4857259,-0.05633269,0.9044725,-21.54452,-27.51868,-13.56457
14.05934,0.866046300000002,-26.21164,-7.33265300000001,0.5496665,-0.07485344,0.9191228,-22.2323,-27.14049,-12.66273
14.069252014,6.997913,-23.88156,-6.84175,0.5245058,-0.04942835,0.9272075,-22.2323,-27.14049,-12.66273
14.079163551,9.16574500000002,-24.81359,-6.65766099999999,0.5292205,-0.04262893,0.9180861,-22.2323,-27.14049,-12.66273
14.089074612,10.03288,-25.86213,-7.08720199999999,0.527244,-0.01315632,0.9029357,-22.2323,-27.14049,-12.66273
14.098986626,9.97093999999998,-24.87184,-7.76219299999999,0.5701288,-0.01366795,0.8881309,-22.2323,-27.14049,-12.66273
14.108897686,10.03288,-19.86217,-8.49854900000003,0.5742481,0.00575294,0.8834206,-22.60033,-27.51354,-12.27417
14.118809223,10.96195,-14.44474,-9.29626599999999,0.5611649,0.04052307,0.8880947,-22.60033,-27.51354,-12.27417
14.128720284,10.03288,-10.42536,-10.33944,0.5564239,0.04541728,0.9083378,-22.60033,-27.51354,-12.27417
14.138632298,8.60830200000001,-6.23121499999997,-11.75078,0.566402,0.03491151,0.9153779,-22.60033,-27.51354,-12.27417
14.148543835,7.24566599999997,-1.454555,-12.67123,0.5929863,0.02216531,0.917928,-22.60033,-27.51354,-12.27417
14.158454895,6.62628499999997,2.448327,-12.5485,0.5841926,0.0323029,0.9305611,-22.96052,-28.2578,-11.04926
14.168366909,7.18372799999999,4.836657,-11.56669,0.5680672,0.03356962,0.9331195,-22.96052,-28.2578,-11.04926
14.178278446,10.34257,7.45799500000003,-11.56669,0.5771677,0.008469697,0.9328681,-22.96052,-28.2578,-11.04926
14.188189507,11.82908,12.64242,-12.5485,0.5708503,0.01719091,0.9469091,-22.96052,-28.2578,-11.04926
14.198101521,11.33358,18.1181,-13.34622,0.5546385,0.002075617,0.9695259,-22.96052,-28.2578,-11.04926
14.208013058,8.79411600000002,22.19574,-16.53709,0.5386964,0.004901179,0.9917793,-22.94921,-29.00516,-10.59724
14.217924118,8.979931,26.44814,-18.19389,0.5347587,-0.006620342,1.023429,-22.94921,-29.00516,-10.59724
14.230313301,8.29861200000002,31.39955,-20.70977,0.5659703,-0.0284618,1.0374,-22.94921,-29.00516,-10.59724
14.240225315,11.2097,36.00146,-22.79611,0.5695114,-0.09006032,1.024473,-22.94921,-29.00516,-10.59724
14.250136852,12.5104,41.94316,-21.75294,0.5767907,-0.0392654,1.078522,-22.94921,-29.00516,-10.59724
14.260047913,14.12079,47.41884,-23.04156,0.5393895,-0.03839229,1.056306,-22.57656,-29.00696,-11.0489
14.269959927,18.39451,48.81689,-22.79611,0.5280701,-0.05076643,1.034721,-22.57656,-29.00696,-11.0489
14.279871464,25.88902,52.71977,-20.70977,0.498096,-0.01560685,1.061641,-22.57656,-29.00696,-11.0489
14.289782524,29.35755,57.7294400000003,-20.77113,0.5117268,-0.008149638,1.064446,-22.57656,-29.00696,-11.0489
14.299694061,32.64027,62.3313399999999,-19.85069,0.4968915,0.0198728,1.081095,-22.57656,-29.00696,-11.0489
14.309606075,31.09181,62.6808500000001,-21.69157,0.4568435,-0.01450303,1.09324,-21.8308,-29.01003,-11.82373
14.319517136,35.3036,63.43813,-21.20067,0.3838964,-0.02424368,1.073203,-21.8308,-29.01003,-11.82373
14.329428673,37.34756,62.6225999999999,-21.75294,0.3260903,0.02862696,1.029435,-21.8308,-29.01003,-11.82373
14.33934021,38.46244,63.0303599999998,-21.87566,0.2917625,0.06204409,1.011249,-21.8308,-29.01003,-11.82373
14.349251747,39.39151,62.6808500000001,-24.08473,0.3025501,0.07316584,0.9795331,-21.8308,-29.01003,-11.82373
14.359162808,40.56834,61.3410599999998,-23.77791,0.2554055,0.08759361,0.9767042,-19.64899,-29.39151,-13.56853
14.369074822,40.13477,61.1080499999999,-22.73474,0.2300482,0.1080383,0.9597892,-19.64899,-29.39151,-13.56853
14.378986359,36.6043,58.2537100000002,-22.36657,0.1955148,0.1152552,0.9385496,-19.64899,-29.39151,-13.56853
14.388897419,32.57833,55.74887,-20.83249,0.1845346,0.1203703,0.9228399,-19.64899,-29.39151,-13.56853
14.398808956,28.42848,53.5353,-20.46432,0.1597985,0.1194264,0.8937728,-19.64899,-29.39151,-13.56853
14.40872097,24.34057,50.79745,-19.97341,0.1385588,0.1234418,0.8776706,-18.15147,-29.77096,-14.79581
14.418632031,20.99591,48.52563,-19.05297,0.0942778,0.1490894,0.8811319,-18.15147,-29.77096,-14.79581
14.428543568,16.84606,44.97226,-17.64162,0.09887665,0.1287598,0.8766325,-18.15147,-29.77096,-14.79581
14.438455582,13.50141,41.88491,-16.04619,0.09561179,0.1151406,0.8760918,-18.15147,-29.77096,-14.79581
14.448366642,9.04186800000002,38.09853,-14.75756,0.1151474,0.05952429,0.8563343,-18.15147,-29.77096,-14.79581
14.458278179,7.98892199999997,35.06943,-13.0394,0.1428971,0.0005463685,0.823034,-16.27992,-30.15063,-16.08928
14.468190193,9.72318700000001,31.80732,-10.83034,0.1362267,-0.004086801,0.787053,-16.27992,-30.15063,-16.08928
14.478101254,13.43947,28.4287,-9.90989499999997,0.1108517,0.01000715,0.7609728,-16.27992,-30.15063,-16.08928
14.488012791,16.28862,23.53554,-8.06900800000002,0.09054381,0.03108397,0.7603408,-16.27992,-30.15063,-16.08928
14.497924328,16.47443,18.35111,-6.289484,0.08598244,0.03631108,0.7508146,-16.27992,-30.15063,-16.08928
14.510313988,17.58932,11.59388,-3.89633,0.07419455,0.02881956,0.7369491,-15.15205,-30.90496,-17.37771
14.520225048,17.89901,5.76868899999999,-1.99408,0.09755139,0.03490817,0.7329324,-15.15205,-30.90496,-17.37771
14.530136585,19.38552,-0.755531299999998,-0.214556,0.1207529,0.03213548,0.7034097,-15.15205,-30.90496,-17.37771
14.540048599,21.18173,-6.988491,1.135428,0.1363766,0.02451451,0.6921708,-15.15205,-30.90496,-17.37771
14.549959659,22.79212,-12.34767,3.037678,0.1649605,0.03254285,0.6756346,-15.1585,-30.53219,-17.82857
14.559871197,24.03088,-16.71657,5.98309800000002,0.1996196,0.02563077,0.6618235,-15.1585,-30.53219,-17.82857
14.569782734,25.26964,-20.6777,9.235332,0.2297937,0.04105879,0.6659687,-15.1585,-30.53219,-17.82857
14.579694271,26.07483,-24.81359,13.34665,0.2549765,0.04564087,0.6475203,-15.1585,-30.53219,-17.82857
14.589605331,26.07483,-28.83298,17.70341,0.2709625,0.06430162,0.6546991,-15.1585,-30.53219,-17.82857
14.599516868,25.45545,-33.55138,21.44655,0.2860263,0.08200356,0.6662016,-15.15988,-30.53376,-18.21404
14.609428883,23.84506,-38.85231,25.06696,0.2971352,0.09963399,0.6734187,-15.15988,-30.53376,-18.21404
14.619339943,21.67723,-44.09499,28.31919,0.3073136,0.1236183,0.6926906,-15.15988,-30.53376,-18.21404
14.62925148,19.0139,-48.98816,31.14189,0.3173772,0.1407136,0.6927115,-15.15988,-30.53376,-18.21404
14.639163494,16.4125,-52.71628,32.73732,0.3367571,0.1613534,0.699392,-15.15988,-30.53376,-18.21404
14.649074554,13.43947,-56.2114,33.41232,0.3650951,0.1758436,0.7141113,-16.65094,-30.52708,-16.53589
14.658986092,10.83807,-59.2987500000001,34.33276,0.3807831,0.2206908,0.7229078,-16.65094,-30.52708,-16.53589
14.668898106,8.29861200000002,-59.7647699999999,33.53504,0.429105,0.2305209,0.7258875,-16.65094,-30.52708,-16.53589
14.678809166,5.573338,-60.6385500000001,33.65777,0.4542944,0.2448626,0.7195081,-16.65094,-30.52708,-16.53589
14.688720703,2.910002,-62.3278599999998,32.43051,0.4597653,0.2581487,0.7440341,-16.65094,-30.52708,-16.53589
14.698632717,0.0608516599999998,-65.24046,30.65099,0.4741604,0.2623407,0.7698573,-19.271,-30.14747,-15.23853
14.708543777,-2.788299,-68.7355700000001,29.66918,0.5098625,0.265231,0.7738678,-19.271,-30.14747,-15.23853
14.718455315,-5.203883,-71.8811800000001,29.17828,0.5008229,0.3025577,0.7943668,-19.271,-30.14747,-15.23853
14.728366375,-8.36272300000002,-72.9297200000001,27.88965,0.5629509,0.2989607,0.792808,-19.271,-30.14747,-15.23853
14.738278389,-11.21187,-73.4539799999997,27.39875,0.5733354,0.3040279,0.8100314,-19.271,-30.14747,-15.23853
14.748189449,-15.29979,-73.5122400000002,27.39875,0.5802676,0.3041587,0.818611,-22.57397,-30.14433,-14.38616
14.758100986,-19.44963,-73.8034999999997,26.11013,0.5874131,0.2975713,0.8401081,-22.57397,-30.14433,-14.38616
14.768013,-22.4846,-73.9200000000001,23.65561,0.5792555,0.2994989,0.8574821,-22.57397,-30.14433,-14.38616
14.777924061,-24.09499,-74.0364999999999,22.12154,0.6390657,0.2910593,0.8626347,-22.57397,-30.14433,-14.38616
14.790313721,-24.46662,-76.65784,23.53289,0.6203721,0.3117435,0.8759096,-22.57397,-30.14433,-14.38616
14.800224781,-28.80228,-74.2695099999998,21.13973,0.6477333,0.2942752,0.9009886,-24.82648,-29.0121,-12.25787
14.810136795,-33.63345,-72.9297200000001,19.48294,0.5984444,0.2946824,0.9110503,-24.82648,-29.0121,-12.25787
14.820047855,-38.65043,-74.2112600000002,20.89428,0.5884266,0.2820012,0.9206616,-24.82648,-29.0121,-12.25787
14.829959393,-42.1809,-74.9102800000001,19.42157,0.6031019,0.253656,0.9357021,-24.82648,-29.0121,-12.25787
14.839871407,-43.79129,-74.44427,19.23748,0.6272567,0.2094281,0.9505491,-24.82648,-29.0121,-12.25787
14.849782467,-41.06601,-74.61902,17.64205,0.685741,0.1515357,0.9592257,-27.06281,-29.38191,-11.02439
14.859694004,-38.21686,-70.9491500000003,14.32845,0.7283287,0.1245368,0.9797789,-27.06281,-29.38191,-11.02439
14.869606018,-37.28779,-64.7744400000002,13.89891,0.7334755,0.112049,0.9902117,-27.06281,-29.38191,-11.02439
14.879517078,-36.23484,-56.61916,10.64668,0.6878994,0.1109383,0.9791018,-27.06281,-29.38191,-11.02439
14.889428616,-35.73934,-49.22116,8.62170300000002,0.655288,0.1076787,0.9899452,-27.06281,-29.38191,-11.02439
14.89934063,-35.36771,-43.51247,7.27171900000003,0.6189994,0.0918093,1.008901,-28.94107,-28.24965,-8.89805
14.90925169,-33.50957,-41.35715,6.53536400000002,0.5869704,0.08031177,1.019204,-28.94107,-28.24965,-8.89805
14.919163227,-32.02306,-41.59016,5.73764600000002,0.6046559,0.04472607,1.033208,-28.94107,-28.24965,-8.89805
14.929075241,-31.2798,-39.31833,4.449025,0.6369455,0.007578697,0.9913687,-28.94107,-28.24965,-8.89805
14.938986301,-31.34174,-35.5902,4.264936,0.6584867,-0.02311803,0.9102984,-28.94107,-28.24965,-8.89805
14.948897839,-29.79329,-30.9883,4.019485,0.6666284,-0.02237546,0.8468472,-30.43836,-27.86994,-7.606527
14.958808899,-25.02406,-27.14367,2.608138,0.6318355,-0.02602523,0.787605,-30.43836,-27.86994,-7.606527
14.968720913,-18.89219,-24.75534,0.3377102,0.6368151,-0.006653343,0.7713627,-30.43836,-27.86994,-7.606527
14.978631973,-15.85723,-19.68742,-1.135,0.6606089,0.01697542,0.7828239,-30.43836,-27.86994,-7.606527
14.98854351,-16.72436,-13.57096,-1.319088,0.6431323,0.05364535,0.7904322,-30.43836,-27.86994,-7.606527
14.998455524,-18.33475,-10.54186,-0.3372818,0.6137202,0.06494661,0.7965413,-30.80777,-28.24457,-7.603426
15.008366585,-17.71537,-12.17292,0.0922585699999997,0.6339569,0.04529614,0.7919018,-30.80777,-28.24457,-7.603426
15.018278122,-17.83924,-15.37677,-1.441814,0.6510215,0.07036306,0.8163991,-30.80777,-28.24457,-7.603426
15.028190136,-22.60847,-15.02726,-2.669072,0.6870617,0.07805885,0.8113155,-30.80777,-28.24457,-7.603426
15.038101196,-27.25383,-12.28942,-2.853161,0.6737823,0.07346296,0.7984434,-30.80777,-28.24457,-7.603426
15.048012733,-28.1829,-11.64865,-4.755411,0.6405468,0.04232208,0.7634917,-31.56759,-27.49727,-8.051554
15.057924747,-27.81127,-12.17292,-6.78038700000001,0.6503023,0.03560292,0.7532735,-31.56759,-27.49727,-8.051554
15.070313931,-29.29778,-9.95934199999999,-9.41899200000002,0.6434023,0.02865947,0.7398465,-31.56759,-27.49727,-8.051554
15.080224991,-29.17391,-7.51275900000002,-10.64625,0.6145535,0.02878598,0.7401142,-31.56759,-27.49727,-8.051554
15.090136528,-26.13894,-9.37682200000001,-12.91668,0.5811251,0.004622308,0.742183,-31.56759,-27.49727,-8.051554
15.100048542,-23.72336,-16.13405,-16.53709,0.5829662,-0.01516464,0.7554786,-31.56274,-27.87186,-8.0504
15.109959602,-24.71437,-21.31847,-20.1575,0.6318516,-0.04552905,0.7663479,-31.56274,-27.87186,-8.0504
15.11987114,-25.76732,-21.20197,-22.36657,0.6693687,-0.01464338,0.7417187,-31.56274,-27.87186,-8.0504
15.129783154,-25.45763,-18.63888,-24.63699,0.685044,-0.008339411,0.7041634,-31.56274,-27.87186,-8.0504
15.139694214,-23.97111,-16.36706,-25.80289,0.6967929,-0.02233165,0.6890766,-31.56274,-27.87186,-8.0504
15.149605751,-20.99809,-15.20202,-25.43471,0.7140973,-0.04250589,0.6839806,-31.56274,-27.87186,-8.0504
15.159517765,-17.65343,-14.15348,-25.25062,0.7055015,-0.0415335,0.7051935,-31.56274,-27.87186,-8.0504
15.169428825,-15.73335,-13.10495,-24.39154,0.6908231,-0.02952706,0.7183735,-31.56274,-27.87186,-8.0504
15.179340363,-15.73335,-11.99816,-22.79611,0.6769879,-0.008310155,0.7292064,-31.56274,-27.87186,-8.0504
15.1892519,-16.97211,-11.18263,-21.44612,0.6380808,0.01398773,0.7282742,-31.56274,-27.87186,-8.0504
15.199163437,-18.39669,-11.18263,-20.28023,0.6111591,0.0136359,0.7251598,-31.55144,-28.61922,-7.59838
15.209074497,-19.69739,-14.15348,-19.78932,0.5724248,0.03260903,0.7371682,-31.55144,-28.61922,-7.59838
15.218986511,-20.13095,-21.02721,-21.13931,0.5600799,0.04361255,0.7383159,-31.55144,-28.61922,-7.59838
15.228898048,-20.99809,-27.78444,-23.10292,0.602164,0.048059,0.7465993,-31.55144,-28.61922,-7.59838
15.238809109,-21.9891,-29.82326,-25.74153,0.6642301,0.04345418,0.7378318,-31.55144,-28.61922,-7.59838
15.248720646,-22.23685,-27.43493,-27.70514,0.6888452,0.05628187,0.7213643,-31.54174,-29.36842,-7.596073
15.25863266,-22.36072,-22.48351,-30.09829,0.6938164,0.05613719,0.6814642,-31.54174,-29.36842,-7.596073
15.26854372,-22.85623,-18.40588,-32.24599,0.6939384,0.06912312,0.6609028,-31.54174,-29.36842,-7.596073
15.278455257,-23.72336,-16.83307,-33.53461,0.6864808,0.07823545,0.659592,-31.54174,-29.36842,-7.596073
15.288367271,-23.53755,-16.54181,-33.96416,0.6872193,0.07837147,0.6840741,-31.54174,-29.36842,-7.596073
15.298278332,-23.66142,-16.94958,-33.41189,0.6854561,0.08039845,0.7052309,-31.54819,-28.99565,-8.046939
15.308189869,-23.84724,-18.52238,-31.87782,0.6868073,0.07182446,0.7315701,-31.54819,-28.99565,-8.046939
15.318101883,-24.71437,-20.73595,-30.71192,0.6757207,0.04737635,0.7185454,-31.54819,-28.99565,-8.046939
15.328012943,-26.3867,-23.00778,-29.97557,0.6871547,0.02663936,0.7125396,-31.54819,-28.99565,-8.046939
15.337924481,-28.61647,-25.10485,-29.73012,0.6958017,0.01642533,0.6855027,-31.54819,-28.99565,-8.046939
15.350313664,-30.16492,-26.73591,-29.17785,0.7224186,-0.006060042,0.6798251,-31.16263,-29.74298,-7.596865
15.360225678,-30.28879,-27.08542,-28.99376,0.7256644,-0.0114751,0.6562312,-31.16263,-29.74298,-7.596865
15.370136738,-28.30678,-27.14367,-29.48466,0.7371073,-0.03171966,0.651669,-31.16263,-29.74298,-7.596865
15.380048275,-24.34274,-25.33786,-30.28238,0.7406705,-0.04721346,0.6472114,-31.16263,-29.74298,-7.596865
15.389960289,-20.62646,-24.11457,-31.14146,0.7380325,-0.04051533,0.6362368,-30.77084,-30.86334,-6.760169
15.399871349,-18.64444,-23.18254,-31.26419,0.741479,-0.0189967,0.6637174,-30.77084,-30.86334,-6.760169
15.409782887,-17.71537,-22.60002,-30.40511,0.7496926,-0.01406592,0.659833,-30.77084,-30.86334,-6.760169
15.419694424,-16.72436,-22.65827,-29.60739,0.7496227,-0.005321812,0.663253,-30.77084,-30.86334,-6.760169
15.429605961,-16.22886,-22.89128,-28.62558,0.7408748,-0.001501817,0.6729625,-30.77084,-30.86334,-6.760169
15.439517021,-16.22886,-22.60002,-27.64378,0.7427239,-0.02567483,0.6819074,-30.39311,-31.23947,-7.146429
15.449429035,-16.22886,-22.134,-26.35516,0.7393374,-0.03447929,0.6751578,-30.39311,-31.23947,-7.146429
15.459340572,-15.4856,-22.65827,-24.33018,0.736321,-0.03455904,0.6670225,-30.39311,-31.23947,-7.146429
15.469251633,-14.37072,-23.53205,-23.22565,0.7444683,-0.02819935,0.6583467,-30.39311,-31.23947,-7.146429
15.479163647,-11.27381,-24.11457,-22.73474,0.7702334,-0.03648501,0.6815809,-30.39311,-31.23947,-7.146429
15.489075184,-8.67241400000003,-25.10485,-24.14609,0.7760832,-0.0354451,0.6810536,-30.38284,-31.92466,-6.758846
15.498986244,-6.318768,-22.60002,-26.47788,0.7893087,-0.02014555,0.7011998,-30.38284,-31.92466,-6.758846
15.508898258,-5.327759,-18.63888,-27.95059,0.7637774,-0.0244212,0.6860424,-30.38284,-31.92466,-6.758846
15.518809796,-3.903184,-16.54181,-28.9324,0.7386851,-0.01213138,0.6853961,-30.38284,-31.92466,-6.758846
15.528720856,-2.912175,-15.66803,-29.4233,0.7246183,0.0231114,0.6900824,-30.38284,-31.92466,-6.758846
15.53863287,-2.045042,-15.26027,-29.11649,0.709867,0.05824619,0.6755679,-30.00373,-32.29922,-6.759639
15.548544407,0.0608516599999998,-14.67775,-29.05512,0.7281246,0.08026205,0.6697839,-30.00373,-32.29922,-6.759639
15.558455467,1.175737,-14.26999,-29.23921,0.7236935,0.1126258,0.6570762,-30.00373,-32.29922,-6.759639
15.568367481,0.742170199999999,-14.56125,-29.17785,0.7125424,0.1200909,0.6274592,-30.00373,-32.29922,-6.759639
15.578278541,0.989922399999999,-15.31852,-29.11649,0.7283064,0.097421,0.6122776,-30.00373,-32.29922,-6.759639
15.588190079,0.927984400000002,-16.65832,-28.50286,0.7351492,0.08482242,0.5972454,-30.73796,-33.04325,-5.468546
15.598102093,1.175737,-17.59035,-29.54603,0.7456491,0.06165695,0.5926725,-30.73796,-33.04325,-5.468546
15.608013153,2.228683,-18.34762,-31.44828,0.726014,0.05454287,0.5769615,-30.73796,-33.04325,-5.468546
15.61792469,3.653259,-18.58063,-33.96416,0.7231543,0.04917881,0.5779125,-30.73796,-33.04325,-5.468546
15.630313873,3.777135,-20.73595,-35.25278,0.721235,0.04819767,0.5803246,-30.73796,-33.04325,-5.468546
15.640225887,3.405506,-23.41554,-35.49823,0.7162403,0.03174473,0.5985071,-29.22638,-34.16692,-5.472869
15.650136948,3.28163,-27.49318,-33.84143,0.7341734,0.004820039,0.5991222,-29.22638,-34.16692,-5.472869
15.660048485,3.839073,-32.91061,-31.20283,0.7344877,0.01985724,0.5996996,-29.22638,-34.16692,-5.472869
15.669960499,3.343568,-38.26979,-28.50286,0.7239103,0.06858776,0.5789952,-29.22638,-34.16692,-5.472869
15.679871559,2.228683,-41.47365,-27.21424,0.7180227,0.04801601,0.5529841,-29.22638,-34.16692,-5.472869
15.689783096,1.857055,-44.03674,-25.31199,0.7246823,0.1053177,0.5542645,-28.46517,-34.91265,-4.639274
15.69969511,0.43248,-44.561,-24.88245,0.7248026,0.1246442,0.5409477,-28.46517,-34.91265,-4.639274
15.709606171,-0.3107767,-43.45422,-25.06653,0.7217665,0.1506474,0.51378,-28.46517,-34.91265,-4.639274
15.719517708,-1.054033,-44.09499,-25.74153,0.6899054,0.1458182,0.500598,-28.46517,-34.91265,-4.639274
15.729429722,-1.611476,-46.42507,-26.04834,0.6713722,0.148537,0.5084701,-28.46517,-34.91265,-4.639274
15.739340782,-1.983104,-49.16291,-26.72333,0.6579369,0.1387424,0.5219735,-28.44741,-36.03277,-3.736387
15.749252319,-3.655432,-51.25998,-26.47788,0.6550531,0.1358049,0.5234211,-28.44741,-36.03277,-3.736387
15.759164333,-3.903184,-54.28908,-25.06653,0.6487249,0.1450084,0.5369853,-28.44741,-36.03277,-3.736387
15.769075394,-4.584502,-58.6579799999998,-23.59382,0.6511662,0.1333298,0.5229604,-28.44741,-36.03277,-3.736387
15.778986931,-5.88520100000001,-63.4346400000002,-21.63021,0.6699007,0.1224231,0.5251153,-28.44741,-36.03277,-3.736387
15.788898468,-7.18590000000003,-66.2889900000002,-18.68479,0.6973724,0.1028127,0.510806,-28.79791,-37.52621,-2.509177
15.798810005,-8.23884800000001,-67.5705299999998,-16.47573,0.7423755,0.09362968,0.5016857,-28.79791,-37.52621,-2.509177
15.808721065,-8.79629,-67.2792700000003,-15.00302,0.7686323,0.08315203,0.4749644,-28.79791,-37.52621,-2.509177
15.818633079,-7.929157,-65.7064700000001,-13.59167,0.8297135,0.09316549,0.4826289,-28.79791,-37.52621,-2.509177
15.828544617,-6.07101500000003,-63.7841600000002,-13.34622,0.8802059,0.07922934,0.478708,-28.79791,-37.52621,-2.509177
15.838455677,-4.088998,-62.2113499999998,-13.83712,0.9218903,0.06713071,0.4763213,-28.42043,-37.52253,-1.611699
15.848367691,-2.912175,-60.1142800000002,-13.7144,0.9412935,0.07509971,0.470433,-28.42043,-37.52253,-1.611699
15.858279228,-2.912175,-57.7842000000002,-13.28485,0.9275665,0.07734855,0.4696147,-28.42043,-37.52253,-1.611699
15.868190289,-2.850237,-55.62888,-12.30305,0.9092992,0.08142076,0.4573266,-28.42043,-37.52253,-1.611699
15.878101826,-1.983104,-53.88132,-10.46216,0.8735907,0.113401,0.4458659,-28.42043,-37.52253,-1.611699
15.88801384,-0.8682191,-53.59006,-9.17354000000002,0.8474574,0.1280847,0.441884,-28.78063,-38.26678,-0.386797
15.8979249,0.0608516599999998,-55.27937,-7.63946799999999,0.8212093,0.1466112,0.4312065,-28.78063,-38.26678,-0.386797
15.910314083,-0.3727147,-58.4832200000001,-6.41221000000002,0.8054597,0.1714793,0.4027084,-28.78063,-38.26678,-0.386797
15.920226097,-0.5585288,-60.4055400000003,-6.84175,0.8265539,0.1954326,0.3897086,-28.78063,-38.26678,-0.386797
15.930137634,0.1847278,-60.87156,-7.51674200000002,0.8470376,0.2241946,0.3705044,-28.78063,-38.26678,-0.386797
15.940048695,1.671241,-60.9298100000002,-8.74399900000002,0.8510772,0.2416228,0.3556983,-29.51809,-38.63438,1.352854
15.949960709,1.547365,-61.04631,-9.60308100000002,0.8439157,0.2462507,0.3303469,-29.51809,-38.63438,1.352854
15.959872246,-0.9301572,-60.6967999999998,-10.15535,0.8264809,0.2285566,0.3260689,-29.51809,-38.63438,1.352854
15.969783306,-4.150936,-59.9395300000002,-10.58489,0.8172428,0.2250528,0.3270913,-29.51809,-38.63438,1.352854
15.97969532,-6.62845799999998,-60.05603,-10.64625,0.8364484,0.2185331,0.3326322,-29.51809,-38.63438,1.352854
15.989606857,-7.86721900000001,-61.4540800000002,-9.97125800000001,0.8544205,0.2177219,0.3199764,-29.87966,-39.3802,2.192288
15.999517918,-9.04404300000003,-62.91038,-9.05081500000002,0.8734707,0.2130726,0.3125669,-29.87966,-39.3802,2.192288
16.009429932,-10.90218,-63.8424099999998,-8.13037100000001,0.9067651,0.2381422,0.2985014,-29.87966,-39.3802,2.192288
16.019340992,-13.62746,-62.8521200000001,-7.51674200000002,0.9123021,0.2468241,0.2764208,-29.87966,-39.3802,2.192288
16.029252529,-16.84824,-61.2793199999999,-7.33265300000001,0.9180572,0.2748834,0.2506259,-29.87966,-39.3802,2.192288
16.039164543,-21.12196,-59.2405,-8.43718500000001,0.897531,0.3134077,0.2491518,-29.4992,-39.37311,3.924947
16.049075603,-26.51057,-58.4832200000001,-10.33944,0.9097954,0.3638169,0.2167234,-29.4992,-39.37311,3.924947
16.058987141,-34.43864,-57.8424499999998,-11.3826,0.9161198,0.4202168,0.2319255,-29.4992,-39.37311,3.924947
16.068899155,-44.34873,-56.96867,-12.36441,0.956544,0.4760035,0.233844,-29.4992,-39.37311,3.924947
16.078810215,-54.56851,-58.8327400000001,-15.30983,1.034615,0.459098,0.2454935,-29.4992,-39.37311,3.924947
16.088721752,-67.3277499999999,-58.01721,-10.27807,1.07687,0.439731,0.2425729,-29.49782,-39.37154,4.310415
16.098633766,-80.8921800000002,-57.02692,-5.430403,1.068856,0.4168552,0.2448954,-29.49782,-39.37154,4.310415
16.108544827,-95.38569,-56.50266,-1.503177,1.047595,0.3903761,0.2386735,-29.49782,-39.37154,4.310415
16.118456364,-111.6135,-55.27937,2.976315,1.064479,0.3309673,0.2419629,-29.49782,-39.37154,4.310415
16.128368378,-132.1149,-52.94929,6.044461,1.061662,0.2317365,0.2802207,-29.49782,-39.37154,4.310415
16.138279438,-139.6095,-47.93962,15.12617,1.03098,0.1733655,0.223937,-29.86213,-40.50058,3.030931
16.148190975,-147.8472,-43.97849,19.17612,1.02147,0.09216799,0.2028373,-29.86213,-40.50058,3.030931
16.158102512,-151.5635,-40.83288,22.73517,0.9818199,-0.009805525,0.1746754,-29.86213,-40.50058,3.030931
16.16801405,-151.8732,-40.54162,24.76015,0.9796189,-0.05166056,0.1494487,-29.86213,-40.50058,3.030931
16.17792511,-150.3867,-41.47365,27.33739,0.9672657,-0.09699846,0.1314951,-29.86213,-40.50058,3.030931
16.19031477,-145.9891,-43.57072,29.17828,0.96126,-0.1300663,0.1270089,-30.25341,-40.13988,-0.3732433
16.200226784,-138.6185,-44.4445,29.11691,0.9670592,-0.1280771,0.1226471,-30.25341,-40.13988,-0.3732433
16.210137844,-129.6374,-45.60954,28.99419,0.9553074,-0.1418913,0.1048979,-30.25341,-40.13988,-0.3732433
16.220049381,-120.2848,-47.99787,28.50328,0.9542718,-0.1424214,0.09866185,-30.25341,-40.13988,-0.3732433
16.229960918,-110.1889,-52.13376,28.38056,0.9642339,-0.1656184,0.08929218,-30.63962,-40.1535,-3.712017
16.239872456,-100.7124,-58.2502199999999,28.31919,0.9559343,-0.1583988,0.09902019,-30.63962,-40.1535,-3.712017
16.249783516,-92.4126599999998,-65.3569599999998,29.301,0.9551582,-0.1641597,0.1119533,-30.63962,-40.1535,-3.712017
16.25969553,-84.05103,-71.9976799999999,30.71235,0.9538081,-0.1475319,0.1428067,-30.63962,-40.1535,-3.712017
16.269607067,-78.2288399999999,-77.0656100000002,31.81688,0.9503794,-0.1358706,0.1558803,-30.63962,-40.1535,-3.712017
16.279518128,-72.90218,-81.20149,36.11229,0.9760483,-0.1451819,0.1685452,-32.53304,-39.03849,-5.82582
16.289430142,-66.3986800000001,-85.1626300000001,36.29637,0.9587363,-0.1657388,0.1728898,-32.53304,-39.03849,-5.82582
16.299341679,-53.32975,-80.7937300000001,40.16224,0.9194286,-0.08584899,0.1526585,-32.53304,-39.03849,-5.82582
16.309252739,-42.36671,-79.5121799999997,40.46905,0.9496917,-0.02867176,0.1666842,-32.53304,-39.03849,-5.82582
16.319164753,-36.91616,-78.8131599999998,42.92357,0.9769727,0.02844356,0.1759354,-32.53304,-39.03849,-5.82582
16.32907629,-33.75732,-75.2015400000002,41.94176,0.975648,0.05995823,0.1790385,-34.05939,-36.79131,-5.889203
16.338987351,-32.33275,-72.1724400000002,44.45764,1.000312,0.1847581,0.2507053,-34.05939,-36.79131,-5.889203
16.348899365,-33.69538,-63.3763900000001,42.12585,1.010405,0.198942,0.2502263,-34.05939,-36.79131,-5.889203
16.358810902,-37.28779,-55.86189,41.26677,0.9492253,0.2493564,0.2083938,-34.05939,-36.79131,-5.889203
16.368721962,-46.39268,-57.14343,40.65314,0.8614159,0.2176196,0.0961573,-34.05939,-36.79131,-5.889203
16.378633976,-57.91316,-71.7646700000001,42.00312,0.8863885,0.1469703,-0.03082593,-35.94064,-35.66244,-4.598041
16.388545036,-70.1769000000001,-93.4926599999999,44.94854,0.9515622,0.1449228,-0.1149898,-35.94064,-35.66244,-4.598041
16.398456574,-78.3527199999999,-110.3275,42.18721,0.9656198,0.1842918,-0.2238535,-35.94064,-35.66244,-4.598041
16.408368588,-79.7153600000002,-115.9779,33.65777,1.134216,0.2922085,-0.1075352,-35.94064,-35.66244,-4.598041
16.418279648,-74.5744999999999,-104.1528,25.37378,1.358079,0.251804,-0.1161167,-35.94064,-35.66244,-4.598041
16.428191185,-66.5225499999998,-80.3277099999998,20.0352,1.484766,0.09465544,-0.05783534,-37.84128,-33.03519,-3.311494
16.438103199,-55.18789,-72.9879700000002,20.89428,1.56234,-0.08273918,-0.1394408,-37.84128,-33.03519,-3.311494
16.448014259,-42.80028,-86.3276699999998,20.15793,1.947267,-0.1415147,-0.1510748,-37.84128,-33.03519,-3.311494
16.457925797,-36.9781,-95.1819599999999,24.02379,2.170384,-0.1084006,-0.09865977,-37.84128,-33.03519,-3.311494
16.470315456,-13.00808,-49.33767,42.43266,1.360273,-0.1936002,0.005256681,-37.84128,-33.03519,-3.311494
16.480226994,7.92698399999999,-31.92033,39.36452,0.4886248,-0.09810558,-0.05326809,-37.84962,-31.90435,-1.580351
16.490138054,12.69621,-40.01735,28.74874,0.4318249,0.03892517,-0.1387385,-37.84962,-31.90435,-1.580351
16.500050068,5.94496599999999,-52.36677,24.26924,0.5195059,0.1208125,-0.2662458,-37.84962,-31.90435,-1.580351
16.509961605,-5.76132499999998,-66.5802499999997,22.12154,0.7066782,0.02359344,-0.3905847,-37.84962,-31.90435,-1.580351
16.519872666,-12.8842,-74.8520299999999,21.01701,0.9139386,-0.1513845,-0.411433,-37.84962,-31.90435,-1.580351
16.52978468,-14.06102,-66.2889900000002,19.66702,1.161343,-0.3109523,-0.3619668,-38.91618,-30.83445,0.5419664
16.539696217,-11.95513,-46.19206,19.97384,1.292118,-0.4140711,-0.3662639,-38.91618,-30.83445,0.5419664
16.549607277,-9.663423,-28.13395,19.36021,1.121073,-0.3844683,-0.4173023,-38.91618,-30.83445,0.5419664
16.559519291,-10.2828,-17.00783,19.66702,0.9322009,-0.2791048,-0.4014092,-38.91618,-30.83445,0.5419664
16.569430828,-18.14894,-14.85251,19.97384,0.8906261,-0.1120842,-0.3499755,-38.91618,-30.83445,0.5419664
16.579341888,-28.80228,-17.88161,21.01701,0.9566001,-0.01932929,-0.2928289,-39.29741,-29.70207,2.660524
16.589253902,-40.075,-18.75539,23.71698,1.003513,0.004907481,-0.2196371,-39.29741,-29.70207,2.660524
16.599164963,-52.52455,-23.35729,26.23286,0.975005,-0.0008820174,-0.1454677,-39.29741,-29.70207,2.660524
16.6090765,-65.7793000000002,-31.33781,28.07374,0.937023,-0.007371054,-0.08994143,-39.29741,-29.70207,2.660524
16.618988514,-78.2907899999999,-40.42512,29.48509,0.9139663,-0.0435474,-0.09188983,-39.29741,-29.70207,2.660524
16.628899574,-87.70537,-47.64836,30.89644,0.921406,-0.1043765,-0.1528638,-38.9199,-30.07846,2.210019
16.638811111,-92.7223499999998,-54.11433,36.4191,0.9420993,-0.1157538,-0.2462817,-38.9199,-30.07846,2.210019
16.648723125,-87.5814900000001,-46.19206,34.88503,1.004942,-0.1182604,-0.3198636,-38.9199,-30.07846,2.210019
16.658634186,-79.4056700000002,-28.65822,33.96458,1.067924,-0.1531293,-0.3701347,-38.9199,-30.07846,2.210019
16.668545723,-72.8402399999998,-8.03702600000001,30.34417,1.076999,-0.2460385,-0.356913,-38.9199,-30.07846,2.210019
16.678457737,-70.8582200000002,4.195886,27.82829,0.9828003,-0.3100496,-0.3194961,-40.06021,-28.95816,1.377216
16.688368797,-73.0260499999997,4.195886,26.90785,0.9003372,-0.3253811,-0.2727404,-40.06021,-28.95816,1.377216
16.698280334,-77.2378400000002,-1.629311,26.96921,0.8749343,-0.3008094,-0.2416116,-40.06021,-28.95816,1.377216
16.708192348,-80.7683099999999,-7.51275900000002,27.95102,0.8861011,-0.2565678,-0.2452614,-40.06021,-28.95816,1.377216
16.718103409,-82.5645099999998,-12.23117,28.87146,0.9138999,-0.1918748,-0.2719764,-40.06021,-28.95816,1.377216
16.728014946,-82.6883899999998,-14.67775,30.52826,0.9491689,-0.1323851,-0.2915927,-40.44578,-28.21083,0.9271431
16.737926483,-82.2548199999999,-13.62922,31.81688,0.9720467,-0.09483851,-0.3054788,-40.44578,-28.21083,0.9271431
16.750316143,-81.5734999999998,-9.551578,33.16687,0.9813822,-0.07299565,-0.3231854,-40.44578,-28.21083,0.9271431
16.760227203,-81.75932,-6.23121499999997,33.41232,0.9621037,-0.08480224,-0.3096414,-40.44578,-28.21083,0.9271431
16.770139217,-82.81226,-4.367153,32.30779,0.9490442,-0.08635687,-0.297527,-40.44578,-28.21083,0.9271431
16.780050754,-85.1659099999998,-3.551625,31.08053,0.9384649,-0.07810631,-0.2704853,-40.46492,-27.09228,-0.3612118
16.789961815,-88.0770000000003,-4.367153,29.91463,0.9332824,-0.08831555,-0.263303,-40.46492,-27.09228,-0.3612118
16.799873829,-89.7493299999999,-5.299184,29.301,0.9328128,-0.09611653,-0.270553,-40.46492,-27.09228,-0.3612118
16.809784889,-90.3687099999997,-6.17296399999999,28.68737,0.9398941,-0.1105422,-0.2644726,-40.46492,-27.09228,-0.3612118
16.819696426,-89.9351399999998,-5.415688,28.50328,0.9439449,-0.1333477,-0.2776262,-40.46492,-27.09228,-0.3612118
16.82960844,-87.89118,-5.76519999999999,29.17828,0.9396762,-0.1728463,-0.3109808,-42.35673,-25.97544,-2.025303
16.839519501,-84.6084700000002,-8.27003499999999,30.28281,0.9092101,-0.1840361,-0.3386228,-42.35673,-25.97544,-2.025303
16.849431038,-80.33474,-9.49332599999999,28.56465,0.9040183,-0.1764496,-0.359171,-42.35673,-25.97544,-2.025303
16.859343052,-76.6184599999997,-10.1341,26.47831,0.9231825,-0.163727,-0.3827913,-42.35673,-25.97544,-2.025303
16.869254112,-72.7783,-9.66808199999998,23.16471,0.9219459,-0.1375323,-0.3773236,-42.35673,-25.97544,-2.025303
16.879165649,-70.6724,-8.44479099999997,20.77156,0.9269236,-0.106454,-0.3800435,-42.75014,-24.85691,-3.31171
16.889077663,-69.9910900000001,-6.58072700000001,19.11476,0.9043342,-0.09410326,-0.3749508,-42.75014,-24.85691,-3.31171
16.898988724,-69.9910900000001,-5.007925,18.01023,0.8986216,-0.1165352,-0.386091,-42.75014,-24.85691,-3.31171
16.908900261,-69.18589,-7.33800299999997,16.10798,0.8924208,-0.123363,-0.3788768,-42.75014,-24.85691,-3.31171
16.918812275,-67.3896900000001,-11.47389,15.86252,0.9234419,-0.1267671,-0.3619006,-42.75014,-24.85691,-3.31171
16.928723335,-65.1599199999998,-15.02726,16.2307,0.9460804,-0.1205556,-0.3404615,-43.13223,-24.48574,-4.146098
16.938634872,-63.9830999999998,-17.35734,16.04661,0.9548426,-0.1475345,-0.3282381,-43.13223,-24.48574,-4.146098
16.94854641,-64.7882900000002,-17.35734,16.72161,0.9644152,-0.1741006,-0.3318648,-43.13223,-24.48574,-4.146098
16.958457947,-66.0270499999999,-17.59035,17.27387,0.9546828,-0.1854181,-0.340493,-43.13223,-24.48574,-4.146098
16.968369007,-68.1948900000002,-16.77482,17.33524,0.9363371,-0.1967481,-0.3307957,-43.13223,-24.48574,-4.146098
16.978281021,-69.8052699999999,-15.02726,16.90569,0.9179023,-0.1915392,-0.3104238,-43.14838,-23.36379,-4.599272
16.988192558,-73.21187,-14.736,16.78297,0.9439251,-0.1833536,-0.2904433,-43.14838,-23.36379,-4.599272
16.998103619,-76.6184599999997,-13.33796,16.66024,0.9742444,-0.1776062,-0.283483,-43.14838,-23.36379,-4.599272
17.008015633,-79.46761,-9.26031799999999,16.41479,1.009382,-0.1154974,-0.2651482,-43.14838,-23.36379,-4.599272
17.01792717,-82.8741999999997,-5.240932,17.94886,1.010501,-0.1227291,-0.259925,-43.14838,-23.36379,-4.599272
17.030316353,-87.89118,0.700767799999999,17.64205,1.009343,-0.01747809,-0.24961,-43.15461,-22.99076,-4.985894
17.040228367,-100.4027,4.894909,20.0352,0.999635,0.01048121,-0.2574966,-43.15461,-22.99076,-4.985894
17.050139427,-103.4996,8.215271,19.42157,0.9924427,0.1068005,-0.1785226,-43.15461,-22.99076,-4.985894
17.060050964,-112.7903,12.29291,20.58747,0.9894634,0.1506426,-0.1316276,-43.15461,-22.99076,-4.985894
17.069962978,-123.5056,17.36083,20.28065,1.026825,0.08902158,-0.1367051,-43.17722,-21.49604,-5.889934
17.079874039,-132.6105,18.05985,21.32382,1.234712,-0.04661488,-0.1457734,-43.17722,-21.49604,-5.889934
17.089785576,-135.2738,21.20546,22.18291,1.417315,-0.1273828,-0.1720081,-43.17722,-21.49604,-5.889934
17.09969759,-131.2478,39.20531,18.43977,1.53005,-0.08803121,-0.1473401,-43.17722,-21.49604,-5.889934
17.10960865,-125.4876,64.5449099999998,14.38982,1.478356,-0.02178937,-0.1517025,-43.17722,-21.49604,-5.889934
17.119520187,-117.2498,86.6806600000001,8.80579200000003,1.366691,0.06574035,-0.1140748,-42.80894,-21.50281,-7.562241
17.129432201,-108.021,105.9038,2.914952,1.366834,0.1128834,-0.09263512,-42.80894,-21.50281,-7.562241
17.139343262,-102.1369,118.2532,-2.484983,1.260397,0.3084464,0.009044832,-42.80894,-21.50281,-7.562241
17.149254799,-108.083,129.0881,-10.52352,1.240915,0.3777489,0.05001999,-42.80894,-21.50281,-7.562241
17.159166336,-121.5235,137.5929,-16.78254,1.173323,0.4356202,0.05919332,-42.80894,-21.50281,-7.562241
17.169077873,-139.5475,138.3502,-18.25525,1.199297,0.3340242,-0.05408075,-41.7011,-21.51971,-11.74398
17.178988934,-158.6244,136.4278,-20.09614,1.11561,0.3126898,-0.1336353,-41.7011,-21.51971,-11.74398
17.188900948,-176.8962,129.4376,-17.94844,1.051698,0.1790303,-0.3235972,-41.7011,-21.51971,-11.74398
17.198812485,-186.5585,118.894,-10.09398,1.0214,-0.01133617,-0.496962,-41.7011,-21.51971,-11.74398
17.208723545,-185.01,107.2436,5.308106,0.9847386,-0.1466637,-0.6065205,-41.7011,-21.51971,-11.74398
17.218635559,-170.7024,98.6805600000003,11.01486,1.015366,-0.2392928,-0.6847262,-38.78319,-21.53516,-15.6139
17.228547096,-147.2278,99.8456,14.45118,1.137562,-0.232419,-0.6814892,-38.78319,-21.53516,-15.6139
17.23845911,-121.8332,111.2047,13.1012,1.262183,-0.1643102,-0.6562594,-38.78319,-21.53516,-15.6139
17.248370171,-100.5885,126.1172,8.49897699999999,1.270369,-0.02208087,-0.5497528,-38.78319,-21.53516,-15.6139
17.258281708,-88.01506,139.2239,1.503605,1.200546,0.1870729,-0.5333089,-38.78319,-21.53516,-15.6139
17.268193722,-84.11296,138.5249,-11.87351,1.077752,0.2813519,-0.476327,-35.8401,-18.55202,-19.04367
17.278104782,-86.9621100000002,137.3016,-17.5189,0.9687271,0.3455986,-0.4470415,-35.8401,-18.55202,-19.04367
17.288016319,-94.08499,131.9424,-19.72796,0.8767577,0.3868633,-0.4027018,-35.8401,-18.55202,-19.04367
17.297927857,-100.7743,123.9037,-17.21208,0.822951,0.3586223,-0.3899082,-35.8401,-18.55202,-19.04367
17.310317516,-107.6494,113.7096,-15.18711,0.8092339,0.2825967,-0.3384307,-35.8401,-18.55202,-19.04367
17.320228577,-112.5425,105.2048,-11.3826,0.8190852,0.2008142,-0.3318643,-32.89645,-15.25148,-21.18951
17.330140114,-114.8962,95.7097200000002,-6.53493500000002,0.8251199,0.1524425,-0.3245598,-32.89645,-15.25148,-21.18951
17.340052128,-116.9401,84.7001,-5.000863,0.7915722,0.1399241,-0.3204917,-32.89645,-15.25148,-21.18951
17.349963188,-117.9311,73.5157200000002,-4.571322,0.788086,0.1374092,-0.3295992,-32.89645,-15.25148,-21.18951
17.359874725,-118.4886,64.2536499999997,-2.607709,0.772319,0.1905609,-0.3266985,-32.89645,-15.25148,-21.18951
17.369786263,-121.09,57.6129399999999,-1.932717,0.7557523,0.2213541,-0.3325822,-28.81468,-13.01037,-22.8882
17.3796978,-124.5585,51.08871,-0.766822200000002,0.7403513,0.2405499,-0.3337524,-28.81468,-13.01037,-22.8882
17.389609814,-129.7613,44.09848,1.196791,0.7268999,0.2341617,-0.3178253,-28.81468,-13.01037,-22.8882
17.399520874,-135.4596,36.52573,3.835396,0.7212353,0.1915152,-0.3002912,-28.81468,-13.01037,-22.8882
17.409432411,-140.6005,28.71996,6.90354199999998,0.7017249,0.1230114,-0.2804005,-28.81468,-13.01037,-22.8882
17.419344425,-143.4496,20.21518,10.40123,0.6872634,0.03123706,-0.2722353,-27.35804,-10.01532,-23.35493
17.429255486,-143.9451,11.53563,14.02164,0.6898187,-0.04671485,-0.2574132,-27.35804,-10.01532,-23.35493
17.439167023,-141.7153,3.904626,16.72161,0.7163457,-0.1204577,-0.2365427,-27.35804,-10.01532,-23.35493
17.449079037,-137.9371,-1.804067,18.74658,0.7469931,-0.1620961,-0.205413,-27.35804,-10.01532,-23.35493
17.458990097,-134.7783,-5.124428,20.7102,0.782921,-0.1881085,-0.1655853,-27.35804,-10.01532,-23.35493
17.468901634,-131.9911,-7.221499,22.98062,0.8198707,-0.1879926,-0.1385573,-27.02258,-7.018527,-23.3661
17.478813648,-128.3987,-7.10499500000003,23.77834,0.8250731,-0.2167886,-0.0941425,-27.02258,-7.018527,-23.3661
17.488724709,-124.063,-3.260366,20.95565,0.8534805,-0.202014,-0.02468384,-27.02258,-7.018527,-23.3661
17.498636246,-121.5235,0.1765001,21.07837,0.9103401,-0.2212219,0.06157099,-27.02258,-7.018527,-23.3661
17.508547783,-121.3377,1.865807,23.41016,0.917493,-0.2438942,0.1602664,-27.02258,-7.018527,-23.3661
17.51845932,-123.6914,2.215319,26.04877,0.9552861,-0.2835788,0.2705691,-27.44857,-2.896178,-22.92714
17.528370381,-123.7533,1.341539,29.11691,0.982756,-0.379758,0.3570631,-27.44857,-2.896178,-22.92714
17.538282395,-126.107,-3.435122,30.28281,0.9671963,-0.2921036,0.4682273,-27.44857,-2.896178,-22.92714
17.548193932,-123.6294,-9.02730999999998,30.34417,0.9246816,-0.3350535,0.51587,-27.44857,-2.896178,-22.92714
17.558104992,-121.1519,-18.11462,28.38056,0.9022819,-0.272369,0.5030503,-27.44857,-2.896178,-22.92714
17.568017006,-116.073,-26.56115,24.69878,0.9042717,-0.2147747,0.4784474,-27.85677,-0.2740401,-22.93327
17.577928543,-109.0121,-32.4446,21.692,0.8969374,-0.1385382,0.4247653,-27.85677,-0.2740401,-22.93327
17.590317726,-97.8012699999997,-38.91056,18.19431,0.8320103,-0.01614938,0.3402328,-27.85677,-0.2740401,-22.93327
17.60022974,-88.01506,-43.74548,14.45118,0.809251,0.07634361,0.2795992,-27.85677,-0.2740401,-22.93327
17.6101408,-78.8482300000001,-48.40564,11.19895,0.8069411,0.1507602,0.2369021,-27.85677,-0.2740401,-22.93327
17.620052338,-69.6194599999999,-50.21144,8.80579200000003,0.8865408,0.2056039,0.2432535,-27.52261,3.418139,-20.82649
17.629964352,-58.5325399999999,-38.09504,2.792227,1.2129,0.1961538,0.3477277,-27.52261,3.418139,-20.82649
17.639875412,-47.69339,-19.04665,-0.03046724,1.83603,0.08480914,0.4718261,-27.52261,3.418139,-20.82649
17.649786949,-36.91616,-5.240932,-3.405427,2.495189,-0.121311,0.1839445,-27.52261,3.418139,-20.82649
17.659698963,-27.00608,-9.085562,-0.4600076,2.042561,-0.232766,-0.0253221,-27.52261,3.418139,-20.82649
17.669610023,-14.80428,-3.551625,6.90354199999998,1.016733,-0.1887895,-0.1110935,-27.93479,7.176088,-17.88083
17.679522037,-15.17591,-9.78458600000001,6.65808999999999,0.5716083,-0.0544589,-0.0638281,-27.93479,7.176088,-17.88083
17.689433575,-34.37671,-16.01755,0.767250500000003,0.4380944,0.1111636,0.03262107,-27.93479,7.176088,-17.88083
17.699344635,-62.8682099999997,-15.43503,-4.141782,0.5237976,0.1944785,-0.09533858,-27.93479,7.176088,-17.88083
17.709256649,-83.9890800000001,-23.88156,-1.932717,0.7278386,0.2641579,-0.2388882,-27.93479,7.176088,-17.88083
17.719167709,-93.6514200000001,-34.71642,0.5217989,0.892687,0.250399,-0.296683,-27.56104,7.935766,-15.3153
17.729079246,-95.1379300000001,-34.54167,2.792227,1.005957,0.08833447,-0.3127348,-27.56104,7.935766,-15.3153
17.73899126,-92.9081599999997,-23.41554,5.73764600000002,1.069474,-0.08623841,-0.283755,-27.56104,7.935766,-15.3153
17.748902321,-84.7942800000001,-12.63893,7.76262199999999,1.058379,-0.2874981,-0.2662671,-27.56104,7.935766,-15.3153
17.758813858,-74.5125699999999,-6.34771999999997,10.52395,1.005523,-0.4164598,-0.2311057,-27.56104,7.935766,-15.3153
17.768725872,-66.1509200000002,-6.63897900000002,10.40123,0.908532,-0.5404248,-0.1546894,-27.57957,10.19536,-12.36697
17.778636932,-63.7972800000001,-12.23117,6.47400099999998,1.003016,-0.5072276,-0.05738977,-27.57957,10.19536,-12.36697
17.788548469,-62.2488299999999,-14.50299,-2.975887,1.147627,-0.2913497,-0.00783268,-27.57957,10.19536,-12.36697
17.798460484,-62.0010800000002,-8.73605099999999,-10.46216,1.173527,-0.1734894,-0.06202506,-27.57957,10.19536,-12.36697
17.808371544,-61.8772000000003,-4.308901,-9.84853300000002,1.065553,-0.09164031,-0.1003343,-27.57957,10.19536,-12.36697
17.818283558,-63.4256499999999,-6.58072700000001,-4.141782,0.9447773,-0.05535344,-0.1052177,-27.21873,11.70057,-10.70317
17.828195095,-67.6374399999998,-14.56125,1.319517,0.8588192,-0.0690625,-0.1112363,-27.21873,11.70057,-10.70317
17.838106155,-73.21187,-26.03688,5.308106,0.8322641,-0.1277602,-0.1469135,-27.21873,11.70057,-10.70317
17.848018169,-78.1049700000003,-38.15329,9.91032400000003,0.8456732,-0.1645602,-0.1698501,-27.21873,11.70057,-10.70317
17.85792923,-81.5734999999998,-44.61926,11.38303,0.9328737,-0.2043599,-0.2006914,-27.21873,11.70057,-10.70317
17.87031889,-81.5115699999998,-40.89113,9.41941999999998,1.021076,-0.177554,-0.1989278,-27.23055,13.20758,-8.587711
17.88022995,-80.9541199999999,-32.91061,7.51716999999999,1.066994,-0.152611,-0.1742181,-27.23055,13.20758,-8.587711
17.890141964,-82.0690099999999,-26.91066,7.45580799999998,1.044801,-0.1395666,-0.1297514,-27.23055,13.20758,-8.587711
17.900053501,-81.75932,-22.07575,5.124017,1.038911,-0.1530617,-0.100017,-27.23055,13.20758,-8.587711
17.909965038,-83.6174499999998,-22.83302,6.28991200000003,0.9780025,-0.1664,-0.09474097,-27.23055,13.20758,-8.587711
17.919876575,-81.82125,-22.48351,3.589944,0.9979787,-0.2010596,-0.09467646,-27.23453,14.34339,-5.63592
17.929787636,-79.15792,-24.52233,2.853589,0.9873253,-0.2245549,-0.1120202,-27.23453,14.34339,-5.63592
17.93969965,-74.1409399999997,-26.91066,2.055871,0.9608554,-0.2341882,-0.1296054,-27.23453,14.34339,-5.63592
17.949611187,-65.9031800000002,-25.92038,0.0922585699999997,0.9521151,-0.2371935,-0.1271438,-27.23453,14.34339,-5.63592
17.959522247,-58.6564199999999,-23.06603,-1.135,0.960924,-0.2287867,-0.1166058,-27.23453,14.34339,-5.63592
17.969434261,-53.63944,-21.14372,-1.012274,0.9714946,-0.1975295,-0.09824928,-26.10902,14.72671,-3.52284
17.979345798,-53.5775,-21.37673,0.5217989,0.9916481,-0.0982076,-0.06704386,-26.10902,14.72671,-3.52284
17.989256859,-59.7093700000002,-23.53205,-0.1531931,1.025318,-0.006609911,-0.06194343,-26.10902,14.72671,-3.52284
17.999168873,-64.4786000000002,-22.36701,-0.3986447,1.039311,-0.02360284,-0.1001185,-26.10902,14.72671,-3.52284
18.00908041,-70.8582200000002,-18.46413,-2.362258,1.033651,0.05495951,-0.08321745,-26.10902,14.72671,-3.52284
18.01899147,-81.3876899999998,-16.71657,-2.484983,1.021629,0.06539514,-0.09888196,-26.50454,16.60305,-2.691483
18.028903484,-92.3507200000001,-15.14377,-1.257725,0.9943024,0.05678811,-0.1034882,-26.50454,16.60305,-2.691483
18.038815022,-99.1019699999997,-12.63893,-3.405427,0.9684714,0.04284875,-0.1115048,-26.50454,16.60305,-2.691483
18.048726559,-104.5525,-12.46418,-4.141782,0.9771161,0.005076989,-0.1233602,-26.50454,16.60305,-2.691483
18.058638096,-104.9861,-10.60011,-4.387233,0.9910747,-0.06412011,-0.1306725,-26.50454,16.60305,-2.691483
18.068549156,-106.7204,-9.95934199999999,-3.89633,1.006845,-0.09020142,-0.1492381,-26.11139,15.86435,-0.121336
18.07846117,-105.7913,-8.03702600000001,-3.159976,1.03514,-0.1767004,-0.1615998,-26.11139,15.86435,-0.121336
18.088372707,-101.3317,-4.949672,-4.080419,0.98707,-0.2095747,-0.2146719,-26.11139,15.86435,-0.121336
18.098283768,-98.7922799999998,-4.075893,-4.816774,0.9759745,-0.2398811,-0.2354179,-26.11139,15.86435,-0.121336
18.108195782,-95.8812000000002,-3.609878,-5.675855,0.9709466,-0.2675709,-0.2336353,-26.11139,15.86435,-0.121336
18.118107319,-94.2088599999997,-3.08561,-7.20992699999999,0.9609124,-0.279285,-0.2244975,-26.47807,15.87295,2.000683
18.128018379,-92.3507200000001,-2.386586,-8.74399900000002,0.9624715,-0.2816576,-0.2182857,-26.47807,15.87295,2.000683
18.137930393,-90.6784000000002,-1.745815,-10.46216,0.9418047,-0.2619827,-0.2078802,-26.47807,15.87295,2.000683
18.150319576,-89.37769,-1.221547,-11.75078,0.9457442,-0.2614315,-0.2045518,-26.47807,15.87295,2.000683
18.160231113,-88.4486200000002,-1.629311,-13.34622,0.9313623,-0.2775634,-0.1954033,-25.71712,15.50704,4.118017
18.170143127,-92.1649100000002,-2.386586,-13.95985,0.9411066,-0.2755079,-0.19644,-25.71712,15.50704,4.118017
18.180054188,-93.2178599999999,-1.571059,-14.81893,0.9478048,-0.3181773,-0.2131116,-25.71712,15.50704,4.118017
18.189965725,-90.30677,0.817271699999998,-20.21886,0.9979568,-0.2647339,-0.2189813,-25.71712,15.50704,4.118017
18.199877739,-92.5984699999998,4.02113,-23.65519,0.9986589,-0.1924306,-0.2089029,-25.71712,15.50704,4.118017
18.209788799,-96.3766899999998,5.535681,-27.03015,0.9924095,-0.123195,-0.2127053,-25.70954,15.51567,6.238089
18.219700337,-101.9511,5.94344499999998,-29.97557,1.007116,-0.06348832,-0.2345308,-25.70954,15.51567,6.238089
18.229612351,-109.6314,3.613366,-30.09829,1.04523,-0.006447352,-0.2657136,-25.70954,15.51567,6.238089
18.239523411,-118.8602,0.759019800000003,-28.9324,1.069007,0.07033478,-0.2889497,-25.70954,15.51567,6.238089
18.249435425,-128.5225,-0.4060195,-26.17107,1.067247,0.1333304,-0.2913947,-25.70954,15.51567,6.238089
18.259346485,-138.6804,0.5842639,-22.18248,1.054891,0.1928601,-0.282241,-25.32584,15.14633,7.52219
18.269258022,-148.9002,2.331823,-18.43934,1.047544,0.223733,-0.2949317,-25.32584,15.14633,7.52219
18.279170036,-157.9431,3.904626,-15.43256,1.07119,0.2453334,-0.3002882,-25.32584,15.14633,7.52219
18.289081097,-165.066,6.00169699999999,-14.26666,1.118886,0.2628912,-0.3015726,-25.32584,15.14633,7.52219
18.298992634,-170.5785,8.91429399999998,-14.2053,1.155538,0.2677301,-0.2980381,-25.32584,15.14633,7.52219
18.308904648,-175.9052,12.87543,-13.95985,1.179158,0.2529803,-0.3007556,-25.318,14.77513,8.358524
18.318815708,-180.9841,18.0016,-13.40758,1.197672,0.2241582,-0.2934363,-25.318,14.77513,8.358524
18.328727245,-185.3197,24.23456,-11.93487,1.205783,0.1631909,-0.2891159,-25.318,14.77513,8.358524
18.338639259,-188.9741,30.75878,-8.74399900000002,1.186713,0.1024727,-0.2648559,-25.318,14.77513,8.358524
18.34855032,-191.9471,36.58398,-5.614491,1.137162,0.04128889,-0.2571228,-25.318,14.77513,8.358524
18.358462334,-194.2388,39.20531,-0.3372818,1.06365,-0.02458619,-0.2549611,-25.29564,13.66024,10.5463
18.368373871,-195.9731,38.33154,6.044461,0.9852502,-0.0856435,-0.2469603,-25.29564,13.66024,10.5463
18.378284931,-196.7163,38.68105,8.68306499999997,0.9465614,-0.1176179,-0.2424941,-25.29564,13.66024,10.5463
18.388196945,-197.7074,37.39951,10.83077,0.9181685,-0.09945372,-0.2243446,-25.29564,13.66024,10.5463
18.398108006,-199.4416,37.1665,10.2785,0.8845254,-0.06056277,-0.2170522,-25.29564,13.66024,10.5463
18.408019543,-201.2378,37.1665,9.91032400000003,0.873886,-0.02283569,-0.2090199,-26.00238,10.66681,11.39461
18.417931557,-203.8392,35.76845,11.56712,0.8527423,0.03512773,-0.2002755,-26.00238,10.66681,11.39461
18.43032074,-206.6884,33.32187,13.71482,0.8267002,0.07766383,-0.1627791,-26.00238,10.66681,11.39461
18.440232277,-207.9891,30.87529,13.5921,0.8124495,0.09891289,-0.1447399,-26.00238,10.66681,11.39461
18.450143814,-206.3167,28.95297,14.69663,0.8317766,0.08221254,-0.139268,-26.00238,10.66681,11.39461
18.460055351,-202.2288,27.78793,12.73302,0.8663776,0.1069776,-0.1216572,-26.74281,9.915731,10.9511
18.469966412,-194.4866,23.65204,11.19895,0.8759326,0.09259761,-0.1127184,-26.74281,9.915731,10.9511
18.479878426,-182.6564,19.63266,7.82398500000003,0.8990117,0.0797656,-0.118299,-26.74281,9.915731,10.9511
18.489789963,-173.3657,15.67152,4.939929,0.9397527,-0.005977061,-0.1082034,-26.74281,9.915731,10.9511
18.499701023,-159.3058,15.089,4.694477,0.9625454,-0.04577854,-0.07794922,-26.74281,9.915731,10.9511
18.509613037,-147.9091,13.57445,4.203574,0.9883249,-0.1201499,-0.08300452,-26.33784,7.670019,11.40578
18.519524574,-134.5925,11.82689,7.82398500000003,0.9716151,-0.1803936,-0.06644579,-26.33784,7.670019,11.40578
18.529436588,-119.108,8.098766,10.09441,0.9201347,-0.1896413,-0.0429837,-26.33784,7.670019,11.40578
18.539347649,-108.7024,2.215319,11.75121,0.8387156,-0.1595691,-0.03194705,-26.33784,7.670019,11.40578
18.549259186,-99.04003,-5.532192,10.33986,0.7883229,-0.09437034,-0.05361409,-26.33784,7.670019,11.40578
18.5591712,-90.30677,-13.62922,6.90354199999998,0.7984968,0.01033015,-0.08326064,-26.32516,6.924227,12.24327
18.56908226,-84.1748999999997,-19.33791,3.896759,0.8383729,0.08436824,-0.1133861,-26.32516,6.924227,12.24327
18.578993797,-79.46761,-22.36701,0.951339199999998,0.868451,0.1302296,-0.1306445,-26.32516,6.924227,12.24327
18.588905334,-76.55652,-22.30876,-1.257725,0.8730885,0.144306,-0.1387563,-26.32516,6.924227,12.24327
18.598816872,-73.7693100000001,-20.15343,-2.055443,0.8938934,0.1188492,-0.1424794,-26.32516,6.924227,12.24327
18.608728886,-75.9371400000002,-19.45441,-0.705459200000001,0.9174742,0.09164412,-0.1159898,-26.69967,7.304021,13.52896
18.618639946,-78.3527199999999,-22.0175,0.3377102,0.9098305,0.0484733,-0.1013219,-26.69967,7.304021,13.52896
18.628551483,-81.0779999999999,-26.26989,3.28313,0.9234942,0.01717159,-0.09301391,-26.69967,7.304021,13.52896
18.638463497,-81.4496199999998,-32.5611,4.387662,0.9189364,-0.01100967,-0.09363966,-26.69967,7.304021,13.52896
18.648374557,-80.1489300000001,-39.14357,5.553557,0.9344442,-0.02429626,-0.07514542,-26.69967,7.304021,13.52896
18.658286095,-76.86621,-43.39597,8.31488799999999,0.9444485,-0.03576398,-0.0666715,-25.93548,6.561687,15.19773
18.668198109,-72.2208599999999,-47.29885,10.09441,0.9377937,-0.05087247,-0.06575029,-25.93548,6.561687,15.19773
18.678109169,-66.2128700000001,-53.24055,11.38303,0.9418199,-0.05222731,-0.05619339,-25.93548,6.561687,15.19773
18.688020706,-59.3996800000003,-57.9589599999998,10.58532,0.9628993,-0.04900903,-0.04724389,-25.93548,6.561687,15.19773
18.69793272,-52.2768,-61.3375700000001,9.84896099999999,1.00529,-0.05415907,-0.02030122,-25.93548,6.561687,15.19773
18.710321903,-43.54353,-60.87156,9.66487199999998,1.035697,-0.03470749,0.01123761,-25.9279,6.570315,17.31781
18.720232963,-36.85423,-57.6676999999998,9.29669499999999,1.052402,-0.02128677,0.03470027,-25.9279,6.570315,17.31781
18.730144978,-31.03205,-53.1823,8.56033999999998,1.04842,0.003993634,0.05747295,-25.9279,6.570315,17.31781
18.740056515,-27.74933,-48.6969,7.701259,1.037946,0.03205034,0.07024086,-25.9279,6.570315,17.31781
18.749967575,-27.12995,-48.9299,8.62170300000002,1.05474,0.04429353,0.05336156,-25.9279,6.570315,17.31781
18.759879589,-26.13894,-52.30852,9.97168700000001,1.059823,0.07688987,0.06265472,-24.05041,6.577523,19.04268
18.769791126,-24.90018,-52.65803,10.95349,1.131127,0.1050574,0.08715115,-24.05041,6.577523,19.04268
18.779702663,-23.22786,-48.63864,12.61029,1.180702,0.1491892,0.1570898,-24.05041,6.577523,19.04268
18.789614201,-21.1839,-38.44455,11.62849,1.186397,0.1230798,0.1573433,-24.05041,6.577523,19.04268
18.799525261,-18.5825,-30.52228,10.95349,1.140645,0.1167602,0.1706886,-24.05041,6.577523,19.04268
18.809437275,-18.21087,-25.33786,10.15578,1.075602,0.1344766,0.1906145,-22.98243,6.586236,21.15724
18.819348812,-21.92716,-22.07575,8.19216299999999,1.02959,0.1153384,0.1635435,-22.98243,6.586236,21.15724
18.829259872,-26.94414,-21.72624,7.33308200000001,1.013423,0.07219344,0.110108,-22.98243,6.586236,21.15724
18.839171886,-30.66042,-22.65827,6.71945300000003,1.015347,0.05683088,0.04132529,-22.98243,6.586236,21.15724
18.849083424,-31.7753,-22.36701,5.92173499999998,1.031928,0.05188975,-0.01647996,-22.98243,6.586236,21.15724
18.858995438,-30.59848,-19.80392,4.14221,1.054444,0.06559395,-0.04588655,-22.61626,7.337287,21.6027
18.868906498,-25.82925,-14.91076,3.160404,1.083178,0.04784673,-0.07796096,-22.61626,7.337287,21.6027
18.878818035,-16.60048,-9.37682200000001,1.81042,1.092925,-0.002042896,-0.0918279,-22.61626,7.337287,21.6027
18.888730049,-5.080007,-4.949672,2.117234,1.055405,-0.0370811,-0.1200437,-22.61626,7.337287,21.6027
18.898641109,5.82109000000002,-4.367153,2.301323,1.025854,-0.04390064,-0.1486253,-22.61626,7.337287,21.6027
18.908552647,13.68722,-6.63897900000002,2.914952,0.9952765,-0.04490461,-0.1752381,-21.48241,6.589755,21.98463
18.918464184,19.57134,-8.85255399999999,1.933146,0.964524,-0.04160915,-0.2138245,-21.48241,6.589755,21.98463
18.928375721,23.4115,-11.12438,2.117234,0.9541026,-0.05059798,-0.2392364,-21.48241,6.589755,21.98463
18.938287735,28.18073,-12.75544,2.055871,0.9471812,-0.06730863,-0.2661726,-21.48241,6.589755,21.98463
18.948198795,34.99392,-11.64865,0.2763473,0.9497234,-0.0465,-0.2799821,-21.48241,6.589755,21.98463
18.958110332,41.49741,-8.96905800000002,-1.380451,0.9557777,-0.03730935,-0.298703,-21.85667,6.589725,21.98658
18.968022346,47.0099,-4.833169,-1.441814,0.944091,-0.02841121,-0.3311864,-21.85667,6.589725,21.98658
18.977933407,50.23067,-4.075893,-1.503177,0.9386956,0.007361968,-0.3385807,-21.85667,6.589725,21.98658
18.99032259,50.91199,-5.18268,-1.809992,0.9843241,0.08556433,-0.3274381,-21.85667,6.589725,21.98658
19.000234604,48.37253,-4.716664,-0.828185100000001,0.9900607,0.1109356,-0.3105166,-21.86476,7.340746,22.43398
19.010146141,42.98392,-5.82345200000001,1.687694,0.9661562,0.1209079,-0.2934235,-21.86476,7.340746,22.43398
19.020057201,35.79911,-9.02730999999998,4.203574,0.9519706,0.1334103,-0.2792844,-21.86476,7.340746,22.43398
19.029969215,26.75615,-12.63893,5.98309800000002,0.9516683,0.1252086,-0.2706934,-21.86476,7.340746,22.43398
19.039880753,17.34157,-16.83307,7.88534800000001,0.9528562,0.1067935,-0.2717874,-21.86476,7.340746,22.43398
19.049791813,9.35155899999998,-19.86217,9.11260599999998,0.9547574,0.07825735,-0.2628721,-21.12892,8.086597,21.5926
19.059703827,3.095816,-22.60002,9.97168700000001,0.9724616,0.03780334,-0.2527418,-21.12892,8.086597,21.5926
19.069615364,-1.425662,-23.82331,9.72623500000002,0.9816459,0.004454292,-0.2544894,-21.12892,8.086597,21.5926
19.079527378,-3.655432,-23.53205,9.91032400000003,0.990698,-0.03432939,-0.2754784,-21.12892,8.086597,21.5926
19.089438438,-3.097989,-23.06603,10.09441,0.9815361,-0.08144772,-0.2704258,-21.12892,8.086597,21.5926
19.099349976,0.0608516599999998,-21.26022,9.05124299999999,0.9609821,-0.1046409,-0.2991997,-21.13239,8.462762,21.97691
19.109261513,4.148763,-19.04665,7.946711,0.9488733,-0.1208317,-0.3068781,-21.13239,8.462762,21.97691
19.11917305,7.98892199999997,-17.24084,6.47400099999998,0.9449214,-0.1145601,-0.3034387,-21.13239,8.462762,21.97691
19.12908411,11.02389,-16.30881,5.369469,0.948619,-0.1024274,-0.3101142,-21.13239,8.462762,21.97691
19.138996124,12.38652,-15.37677,4.633114,0.9568748,-0.08576728,-0.296155,-21.13239,8.462762,21.97691
19.148907661,12.94397,-14.6195,4.694477,0.9591348,-0.05997919,-0.2840002,-20.77108,9.588408,22.42122
19.158819675,12.20071,-13.80397,5.001291,0.9554843,-0.03965276,-0.2823905,-20.77108,9.588408,22.42122
19.168730736,10.7142,-14.26999,5.553557,0.9549816,-0.02942213,-0.2717542,-20.77108,9.588408,22.42122
19.178642273,9.35155899999998,-15.49328,4.75584,0.9513707,-0.006636062,-0.2634063,-20.77108,9.588408,22.42122
19.188554287,8.17473599999999,-16.60007,4.14221,0.9546815,0.0006656017,-0.2657891,-20.77108,9.588408,22.42122
19.198465347,7.369542,-18.46413,3.774033,0.9563439,0.01078137,-0.2825426,-20.77592,9.963004,22.42007
19.208376885,7.05985200000002,-19.80392,3.037678,0.9503431,0.01990682,-0.2848271,-20.77592,9.963004,22.42007
19.218288899,7.30760400000002,-21.14372,1.81042,0.9446597,0.03431502,-0.2976429,-20.77592,9.963004,22.42007
19.228199959,6.87403699999997,-22.134,0.6445247,0.955283,0.03145323,-0.3140855,-20.77592,9.963004,22.42007
19.238111973,6.19271900000002,-22.0175,-0.214556,0.9538031,0.02801343,-0.3193765,-20.77592,9.963004,22.42007
19.248023033,5.325586,-21.20197,-1.012274,0.9543174,0.02217906,-0.3237416,-19.65177,9.964662,22.7997
19.25793457,4.520391,-20.15343,-1.748629,0.9450944,0.01575628,-0.3246594,-19.65177,9.964662,22.7997
19.270323753,3.467444,-18.93014,-2.730435,0.9325136,-0.009700012,-0.3415181,-19.65177,9.964662,22.7997
19.280235767,3.157754,-19.62917,-2.975887,0.9209252,-0.02977067,-0.3506677,-19.65177,9.964662,22.7997
19.290147305,3.777135,-21.26022,-3.46679,0.9132445,-0.0400383,-0.3487445,-19.65177,9.964662,22.7997
19.300058842,5.697214,-22.65827,-3.650879,0.9217806,-0.06128123,-0.3518458,-19.65016,9.966492,23.24941
19.309970379,8.23667399999998,-23.5903,-4.325871,0.9262173,-0.0680366,-0.3562533,-19.65016,9.966492,23.24941
19.319881439,10.90001,-24.34758,-4.632685,0.929772,-0.07085191,-0.3467018,-19.65016,9.966492,23.24941
19.329793453,13.43947,-24.40583,-5.307677,0.9315774,-0.06114959,-0.3500149,-19.65016,9.966492,23.24941
19.33970499,15.48343,-22.83302,-6.044032,0.9314051,-0.04465389,-0.3475026,-19.65016,9.966492,23.24941
19.349616051,16.908,-20.91071,-7.33265300000001,0.9385674,-0.02367595,-0.3397466,-19.28885,11.09214,23.69371
19.359528065,17.89901,-19.27966,-8.19173300000002,0.9433817,-0.0231661,-0.34651,-19.28885,11.09214,23.69371
19.369439602,18.33258,-17.88161,-8.62127400000002,0.9513023,-0.02350532,-0.3374624,-19.28885,11.09214,23.69371
19.379351616,18.51839,-16.42531,-8.68263700000001,0.9631112,-0.01941753,-0.3255405,-19.28885,11.09214,23.69371
19.389262676,18.02289,-14.21173,-8.06900800000002,0.9733836,-0.01733555,-0.3227406,-19.28885,11.09214,23.69371
19.399174214,17.03188,-12.52243,-6.90311299999998,0.9586779,-0.01461152,-0.3230667,-18.53734,11.0956,24.525
19.409086228,15.54536,-12.05641,-5.36904,0.9503732,-0.02056539,-0.3292716,-18.53734,11.0956,24.525
19.418997288,13.50141,-11.8234,-3.773605,0.9542369,-0.01615113,-0.3287978,-18.53734,11.0956,24.525
19.428908825,11.2097,-10.48361,-2.362258,0.9639483,-0.01216152,-0.3307816,-18.53734,11.0956,24.525
19.438820362,8.29861200000002,-8.73605099999999,-1.257725,0.9604919,-0.006856024,-0.3278334,-18.53734,11.0956,24.525
19.448731899,5.077834,-7.16324699999999,-0.644096300000003,0.9620146,-0.005345209,-0.320635,-17.05,11.84491,24.51491
19.458643913,1.113798,-5.240932,-0.5213705,0.9635724,-0.0043039,-0.3105591,-17.05,11.84491,24.51491
19.468554974,-2.41667,-3.318618,-1.073637,0.9598832,-0.0130176,-0.2990593,-17.05,11.84491,24.51491
19.478466511,-5.88520100000001,-1.105043,-0.214556,0.9506851,-0.01698839,-0.2946792,-17.05,11.84491,24.51491
19.488378525,-7.99109600000001,-0.2312636,-0.214556,0.9567412,-0.0348656,-0.2972552,-17.05,11.84491,24.51491
19.498289585,-9.22985600000001,0.0599961999999999,-0.582733500000001,0.9710119,-0.04293352,-0.297921,-17.79852,11.84485,24.5188
19.508201599,-9.22985600000001,-0.05650773,-0.644096300000003,0.9759319,-0.04675878,-0.2994325,-17.79852,11.84485,24.5188
19.518113136,-8.42466199999997,-0.3477675,-0.766822200000002,0.9794128,-0.0466857,-0.2937023,-17.79852,11.84485,24.5188
19.528024197,-7.062024,-0.4642715,-0.5213705,0.9813518,-0.04032853,-0.287916,-17.79852,11.84485,24.5188
19.537936211,-5.82326300000003,-0.639027300000002,-0.5213705,0.9779551,-0.04084564,-0.2859674,-17.79852,11.84485,24.5188
19.550325394,-4.33675,-0.5225234,-0.1531931,0.9666987,-0.03416254,-0.2790965,-17.80013,11.84302,24.06909
19.560236931,-3.593493,-0.3477675,0.03089567,0.9650109,-0.02307638,-0.2876499,-17.80013,11.84302,24.06909
19.570148945,-3.036051,0.351256,0.03089567,0.9647278,-0.007613965,-0.2971475,-17.80013,11.84302,24.06909
19.580060005,-3.469617,1.574547,-0.214556,0.9596124,0.0009878842,-0.3090468,-17.80013,11.84302,24.06909
19.589971542,-4.150936,2.739586,-0.09183015,0.9580737,-0.002482484,-0.3200993,-17.80013,11.84302,24.06909
19.599883556,-5.451635,3.671618,-0.09183015,0.9467115,-0.002195962,-0.331036,-17.41296,11.09752,24.96888
19.609794617,-7.18590000000003,3.962878,0.1536215,0.9373234,0.003978227,-0.3333088,-17.41296,11.09752,24.96888
19.619706631,-8.42466199999997,3.322106,0.3990731,0.9338782,0.005874891,-0.3332643,-17.41296,11.09752,24.96888
19.629617691,-8.85822799999998,2.215319,0.6445247,0.9289214,0.01358359,-0.3307663,-17.41296,11.09752,24.96888
19.639529228,-9.04404300000003,1.108532,0.767250500000003,0.9289775,0.009710344,-0.3298323,-17.41296,11.09752,24.96888
19.649441242,-8.73435200000001,0.0599961999999999,0.828613499999998,0.9318586,0.00874407,-0.3361075,-17.41643,11.47368,25.35319
19.659352302,-8.11497100000001,-0.580775400000001,0.583161800000002,0.9310737,-0.002875077,-0.3308959,-17.41643,11.47368,25.35319
19.66926384,-7.49559099999998,-0.639027300000002,0.1536215,0.9281709,-0.01411525,-0.3410272,-17.41643,11.47368,25.35319
19.679175854,-6.25683000000001,-0.4642715,-0.5213705,0.9282684,-0.02723524,-0.3468775,-17.41643,11.47368,25.35319
19.689086914,-4.64644,-0.1730116,-1.503177,0.9312724,-0.03643025,-0.3508077,-17.41643,11.47368,25.35319
19.698998928,-2.788299,0.409508,-2.239532,0.9263886,-0.03648842,-0.3502828,-17.03247,10.72452,25.35355
19.708910465,-1.425662,0.46776,-2.975887,0.923854,-0.03266338,-0.3545553,-17.03247,10.72452,25.35355
19.718821526,-0.2488386,0.293004,-3.282701,0.9266976,-0.02925887,-0.3593605,-17.03247,10.72452,25.35355
19.72873354,0.866046300000002,-0.3477675,-3.344064,0.9296157,-0.02630349,-0.3574472,-17.03247,10.72452,25.35355
19.738645077,1.733179,-0.813783199999999,-3.221339,0.9314121,-0.01172777,-0.3559262,-17.03247,10.72452,25.35355
19.748556137,2.042869,-1.454555,-3.221339,0.9303235,0.003324338,-0.3490936,-17.03385,10.72295,24.96808
19.758468151,2.104807,-1.687563,-3.03725,0.9291588,0.0144344,-0.3542906,-17.03385,10.72295,24.96808
19.768379211,1.733179,-1.629311,-3.03725,0.93097,0.02365192,-0.3576071,-17.03385,10.72295,24.96808
19.778291225,0.866046300000002,-1.978823,-2.791798,0.937261,0.03199018,-0.3542486,-17.03385,10.72295,24.96808
19.788202763,-0.3727147,-2.095326,-2.607709,0.9390941,0.04268247,-0.3537141,-17.03385,10.72295,24.96808
19.798113823,-1.4876,-1.804067,-2.362258,0.9366462,0.04460146,-0.3517581,-17.0387,11.09755,24.96693
19.808025837,-2.478608,-1.745815,-2.055443,0.9353105,0.03733428,-0.3474727,-17.0387,11.09755,24.96693
19.817937374,-3.531555,-2.153579,-1.99408,0.9378247,0.03398638,-0.3446373,-17.0387,11.09755,24.96693
19.830326557,-3.965122,-2.153579,-1.871354,0.9437458,0.02823409,-0.3461709,-17.0387,11.09755,24.96693
19.840238571,-3.779308,-2.037075,-1.687266,0.9360589,0.01601202,-0.3471415,-17.78398,10.72106,24.52226
19.850149631,-3.407679,-2.095326,-1.625903,0.9385442,0.009722236,-0.3505675,-17.78398,10.72106,24.52226
19.860061645,-2.850237,-2.037075,-1.441814,0.9347038,0.003368801,-0.3510545,-17.78398,10.72106,24.52226
19.869973183,-2.664423,-2.270082,-1.441814,0.9342278,-0.001020791,-0.3549206,-17.78398,10.72106,24.52226
19.879884243,-2.230856,-2.386586,-1.319088,0.9357581,-0.006335295,-0.3549702,-17.78398,10.72106,24.52226
19.889796257,-1.859228,-2.270082,-1.441814,0.9352242,-0.0005111141,-0.3525256,-17.40811,10.72292,24.97003
19.899707794,-1.611476,-2.153579,-1.380451,0.9307625,-0.001573572,-0.3596938,-17.40811,10.72292,24.97003
19.909618855,-1.611476,-2.095326,-1.257725,0.9316872,0.008654895,-0.352912,-17.40811,10.72292,24.97003
19.919530869,-1.983104,-2.095326,-1.380451,0.9267363,0.01051296,-0.3566951,-17.40811,10.72292,24.97003
19.929442406,-2.354732,-2.095326,-1.196362,0.9271948,0.01635693,-0.3528191,-17.40811,10.72292,24.97003
19.939353943,-2.850237,-2.677846,-1.196362,0.9290515,0.02218345,-0.3556784,-17.41804,11.47185,24.90348
19.94926548,-3.283803,-2.50309,-1.073637,0.9300002,0.02461956,-0.355671,-17.41804,11.47185,24.90348
19.95917654,-3.655432,-2.677846,-0.889547900000002,0.9334036,0.02416453,-0.3581063,-17.41804,11.47185,24.90348
19.969088554,-3.71737,-2.561342,-0.582733500000001,0.9329245,0.02416355,-0.3571416,-17.41804,11.47185,24.90348
19.979000092,-3.593493,-2.677846,-0.5213705,0.9305595,0.01295493,-0.3624761,-17.41804,11.47185,24.90348
19.988912106,-3.407679,-2.386586,-0.4600076,0.9340658,0.007187566,-0.3611065,-17.78423,11.10089,25.806
19.998823166,-3.159927,-2.21183,-0.2759189,0.9297528,0.005226863,-0.3548376,-17.78423,11.10089,25.806
20.008734703,-2.974113,-2.037075,-0.1531931,0.934515,0.01009985,-0.3615714,-17.78423,11.10089,25.806
20.018646717,-2.664423,-1.629311,-0.1531931,0.9336699,0.007229903,-0.3519795,-17.78423,11.10089,25.806
20.028557777,-2.230856,-1.745815,-0.1531931,0.9317287,-0.0005918406,-0.3596962,-17.78423,11.10089,25.806
20.038469315,-1.983104,-1.687563,-0.214556,0.9307746,-0.0001039053,-0.3568032,-16.65337,10.34995,25.35276
20.048381329,-2.045042,-1.862319,-0.5213705,0.9287425,0.004222202,-0.3591564,-16.65337,10.34995,25.35276
20.058292389,-2.354732,-2.037075,-0.5213705,0.9271936,0.009039173,-0.3615108,-16.65337,10.34995,25.35276
20.068204403,-2.602484,-2.095326,-0.4600076,0.9251874,0.009964085,-0.3653273,-16.65337,10.34995,25.35276
20.078115463,-3.159927,-2.153579,-0.5213705,0.9340234,0.0115558,-0.3601167,-16.65337,10.34995,25.35276
20.088027,-3.097989,-2.037075,-0.214556,0.9325256,0.01249697,-0.3620172,-17.02762,10.34993,25.35471
20.097939014,-2.974113,-1.454555,-0.09183015,0.9379864,0.007241242,-0.3601821,-17.02762,10.34993,25.35471
20.110328198,-2.788299,-1.105043,-0.03046724,0.9366369,0.004844922,-0.3515427,-17.02762,10.34993,25.35471
20.120239735,-2.664423,-0.6972793,0.1536215,0.9374757,0.01112625,-0.3577507,-17.02762,10.34993,25.35471
20.130151272,-2.726361,-0.05650773,0.3990731,0.9335425,0.0125295,-0.3581851,-17.02762,10.34993,25.35471
20.140062809,-2.788299,-0.1147597,0.3377102,0.9350029,0.0159591,-0.3548146,-17.02117,9.97716,25.80557
20.149974823,-2.664423,-0.05650773,0.5217989,0.9359913,0.015489,-0.3543468,-17.02117,9.97716,25.80557
20.159885883,-2.664423,0.0599961999999999,0.3990731,0.9315902,0.01884828,-0.3504424,-17.02117,9.97716,25.80557
20.169797421,-3.097989,0.001744238,0.3377102,0.9305296,0.02123208,-0.3556985,-17.02117,9.97716,25.80557
20.179709435,-3.345741,-0.2312636,0.3990731,0.929072,0.0217063,-0.3542413,-17.02117,9.97716,25.80557
20.189620495,-3.469617,-0.2312636,0.2763473,0.9369735,0.01843029,-0.350495,-17.02277,9.97533,25.35586
20.199532032,-3.779308,-0.1730116,0.2763473,0.9355683,0.01161478,-0.352448,-17.02277,9.97533,25.35586
20.209444046,-3.469617,-0.05650773,0.3377102,0.9385563,0.0111919,-0.3476769,-17.02277,9.97533,25.35586
20.219355106,-3.531555,0.351256,0.2763473,0.9377335,0.001504282,-0.3438925,-17.02277,9.97533,25.35586
20.22926712,-3.159927,0.933775699999999,0.03089567,0.9376137,0.005344406,-0.3510682,-17.02277,9.97533,25.35586
20.239178658,-3.036051,1.05028,0.1536215,0.9302616,0.002316535,-0.3563022,-16.64367,9.600764,25.35507
20.249089718,-2.912175,0.817271699999998,-0.03046724,0.9283485,0.003289857,-0.3509962,-16.64367,9.600764,25.35507
20.259001732,-2.664423,0.875523700000001,-0.09183015,0.9273596,0.001320705,-0.3543613,-16.64367,9.600764,25.35507
20.268912792,-2.540546,0.5260119,0.0922585699999997,0.9277915,0.005687365,-0.3548164,-16.64367,9.600764,25.35507
20.278824806,-1.983104,0.409508,-0.1531931,0.9292848,0.001817048,-0.3567766,-16.64367,9.600764,25.35507
20.288736343,-1.673414,0.293004,-0.2759189,0.9301569,0.008603555,-0.3591403,-17.39542,9.97713,25.80752
20.298647404,-1.673414,0.1182482,-0.3372818,0.9290581,0.01584547,-0.362443,-17.39542,9.97713,25.80752
20.308559418,-1.859228,0.1182482,-0.5213705,0.9325207,0.01249443,-0.3624973,-17.39542,9.97713,25.80752
20.318470955,-1.921166,0.351256,-0.3986447,0.9311472,0.01252462,-0.3533614,-17.39542,9.97713,25.80752
20.328382969,-1.673414,0.700767799999999,-0.3986447,0.9340679,0.01401798,-0.3528983,-17.39542,9.97713,25.80752
20.338294029,-1.425662,0.875523700000001,-0.2759189,0.9325603,0.01495406,-0.3557591,-16.65337,10.34995,25.35276
20.348205566,-1.363724,0.933775699999999,-0.3372818,0.9375901,0.01021017,-0.3476745,-16.65337,10.34995,25.35276
20.35811758,-0.8682191,0.9920276,-0.2759189,0.9385011,0.009211964,-0.3553721,-16.65337,10.34995,25.35276
20.368028641,-1.177909,0.9920276,-0.2759189,0.9320367,0.01785675,-0.3557349,-16.65337,10.34995,25.35276
20.377940178,-1.239847,0.817271699999998,-0.1531931,0.9237697,0.02070303,-0.347957,-16.65337,10.34995,25.35276
20.390329838,-0.992095199999997,0.351256,-0.3986447,0.9280306,0.01629519,-0.3667518,-17.03086,10.72635,25.80326
20.400241375,-0.992095199999997,0.1182482,-0.4600076,0.9329393,0.01880535,-0.361979,-17.03086,10.72635,25.80326
20.410152435,-0.8682191,0.351256,-0.4600076,0.9355074,0.01011964,-0.36014,-17.03086,10.72635,25.80326
20.420064449,-0.682404900000003,0.5842639,-0.3986447,0.9315559,0.01346461,-0.3600811,-17.03086,10.72635,25.80326
20.429975987,-0.3727147,0.700767799999999,-0.5213705,0.9311031,0.01250169,-0.3576826,-17.03086,10.72635,25.80326
20.439887524,-0.3727147,0.817271699999998,-0.582733500000001,0.9276548,0.01342112,-0.359085,-17.39703,9.9753,25.35781
20.449799061,-0.3727147,0.933775699999999,-0.4600076,0.9318965,0.02217402,-0.3643477,-17.39703,9.9753,25.35781
20.459710121,-0.3727147,0.759019800000003,-0.3372818,0.9247269,0.01582648,-0.3556808,-17.39703,9.9753,25.35781
20.469622135,-0.1869005,0.46776,-0.4600076,0.9300742,0.01636534,-0.3581275,-17.39703,9.9753,25.35781
20.479533672,-0.1249625,0.46776,-0.3372818,0.9251611,0.02165772,-0.3542055,-17.39703,9.9753,25.35781
20.489445686,-0.3107767,0.2347521,-0.3986447,0.9306462,0.01641472,-0.3499697,-17.01632,9.602564,25.80672
20.499356747,-0.3727147,0.1765001,-0.3372818,0.9290403,0.02022644,-0.3590525,-17.01632,9.602564,25.80672
20.509268284,-0.4965908,0.2347521,-0.3372818,0.9309918,0.02512668,-0.3537562,-17.01632,9.602564,25.80672
20.519180298,-0.682404900000003,0.5260119,-0.1531931,0.9348809,0.0237005,-0.3576429,-17.01632,9.602564,25.80672
20.529091358,-0.8682191,0.700767799999999,-0.3986447,0.9319735,0.02562872,-0.3528016,-17.01632,9.602564,25.80672
20.539003372,-0.8682191,0.759019800000003,-0.214556,0.9314687,0.02366309,-0.3566513,-16.65798,10.72481,25.41585
20.548914909,-0.806281,0.875523700000001,-0.1531931,0.9305292,0.01879282,-0.3585957,-16.65798,10.72481,25.41585
20.55882597,-0.806281,0.9920276,-0.09183015,0.9324228,0.02317516,-0.3595443,-16.65798,10.72481,25.41585
20.568737984,-1.301785,0.933775699999999,0.03089567,0.9349124,0.01981452,-0.3591096,-16.65798,10.72481,25.41585
20.578649044,-1.611476,0.875523700000001,0.1536215,0.9285911,0.02268,-0.3523098,-16.65798,10.72481,25.41585
20.588561058,-1.859228,0.933775699999999,0.2763473,0.9290461,0.02510749,-0.352778,-16.64852,9.97536,25.35391
20.598472595,-2.10698,0.9920276,0.1536215,0.9261223,0.0226369,-0.354688,-16.64852,9.97536,25.35391
20.608383655,-2.045042,0.759019800000003,0.1536215,0.9334762,0.01932425,-0.3566988,-16.64852,9.97536,25.35391
20.618295669,-1.859228,0.642515800000001,-0.03046724,0.9285662,0.02022801,-0.3576076,-16.64852,9.97536,25.35391
20.628207207,-1.301785,0.642515800000001,0.03089567,0.9320853,0.01007713,-0.3601086,-16.64852,9.97536,25.35391
20.638119221,-0.5585288,0.933775699999999,-0.214556,0.9346267,0.01064579,-0.350045,-16.64691,9.97719,25.80362
20.648030281,0.0608516599999998,0.933775699999999,-0.1531931,0.9355902,0.007723698,-0.3548749,-16.64691,9.97719,25.80362
20.657941818,0.3705419,0.9920276,-0.214556,0.9399917,0.00680367,-0.3558821,-16.64691,9.97719,25.80362
20.667853832,0.680232200000002,1.166783,-0.2759189,0.9311525,0.009600572,-0.3562619,-16.64691,9.97719,25.80362
20.680243015,0.804108299999999,1.283287,-0.4600076,0.9277559,0.009083463,-0.3543133,-17.39841,9.973731,24.97234
20.690154076,0.866046300000002,1.166783,-0.766822200000002,0.9261749,0.01534717,-0.3580982,-17.39841,9.973731,24.97234
20.70006609,1.175737,1.283287,-0.950910899999997,0.9257122,0.01437916,-0.3566599,-17.39841,9.973731,24.97234
20.709977627,1.423489,0.875523700000001,-1.196362,0.9242354,0.01191659,-0.3605039,-17.39841,9.973731,24.97234
20.719889641,2.042869,0.9920276,-1.503177,0.9309669,0.01730885,-0.3653318,-17.39841,9.973731,24.97234
20.729800701,2.476436,1.399791,-1.380451,0.9280783,0.01436875,-0.3643644,-16.64691,9.97719,25.80362
20.739712238,2.538374,1.574547,-1.56454,0.9295956,0.008071925,-0.3668211,-16.64691,9.97719,25.80362
20.749623775,2.786126,1.749303,-1.56454,0.9257532,0.008059013,-0.3600635,-16.64691,9.97719,25.80362
20.759535313,2.600312,1.516295,-1.56454,0.9320101,0.01101359,-0.3663437,-16.64691,9.97719,25.80362
20.769446373,2.290622,1.574547,-1.503177,0.9319437,0.01244249,-0.3711352,-16.64691,9.97719,25.80362
20.779358387,2.228683,2.098815,-1.380451,0.935949,0.01449139,-0.3596348,-17.02117,9.97716,25.80557
20.789269924,1.980931,2.623082,-1.196362,0.9345114,0.01741505,-0.3533599,-17.02117,9.97716,25.80557
20.799181938,1.547365,3.263854,-1.012274,0.9344593,0.01641235,-0.3596082,-17.02117,9.97716,25.80557
20.809092998,1.547365,3.43861,-1.196362,0.9325305,0.01786536,-0.3552592,-17.02117,9.97716,25.80557
20.819004536,1.237675,3.43861,-1.073637,0.9394516,0.01603924,-0.3500537,-17.02117,9.97716,25.80557
20.82891655,1.299613,3.962878,-1.257725,0.9355594,0.01648819,-0.3476139,-17.39703,9.9753,25.35781
20.83882761,1.299613,3.962878,-1.196362,0.9302188,0.0149772,-0.345654,-17.39703,9.9753,25.35781
20.848739624,1.299613,3.846374,-1.319088,0.9316636,0.01352066,-0.3495183,-17.39703,9.9753,25.35781
20.858651161,1.485427,3.72987,-1.441814,0.9366208,0.008251211,-0.3491191,-17.39703,9.9753,25.35781
20.868562221,1.733179,4.137634,-1.56454,0.9375901,0.01021017,-0.3476745,-17.39703,9.9753,25.35781
20.878474236,2.104807,4.254138,-1.871354,0.9410536,0.006371789,-0.3482123,-17.39703,9.9753,25.35781
20.888385296,2.414498,4.60365,-2.055443,0.9425415,0.005425516,-0.347272,-17.39703,9.9753,25.35781
20.89829731,2.228683,5.127917,-2.300895,0.9366587,0.01168553,-0.341414,-17.39703,9.9753,25.35781
20.908208847,2.538374,5.360925,-2.362258,0.9351569,0.01213682,-0.3442781,-17.39703,9.9753,25.35781
20.918119907,2.910002,5.360925,-2.791798,0.9345666,0.01402915,-0.3519425,-17.39703,9.9753,25.35781
20.928031921,2.910002,5.244421,-3.03725,0.9370745,0.008726789,-0.352001,-17.78237,10.72289,24.97198
20.937943459,3.219692,5.535681,-2.975887,0.9447721,0.01510078,-0.3568314,-17.78237,10.72289,24.97198
20.947855473,3.591321,6.05994799999998,-2.975887,0.9462129,0.01852019,-0.3553814,-17.78237,10.72289,24.97198
20.960244656,3.28163,6.93372799999998,-2.362258,0.9491355,0.01367303,-0.3621629,-17.78237,10.72289,24.97198
20.970155716,2.414498,7.807507,-1.99408,0.9456167,0.02089732,-0.3630426,-17.78237,10.72289,24.97198
20.98006773,1.05186,8.50653100000001,-1.809992,0.9436756,0.02380726,-0.3582037,-17.77913,10.34647,24.52341
20.989979267,-0.6204669,9.26380600000001,-1.257725,0.9568371,0.03126859,-0.3534741,-17.77913,10.34647,24.52341
20.999890327,-2.540546,10.02108,-0.644096300000003,0.9597471,0.02787836,-0.3597657,-17.77913,10.34647,24.52341
21.009802341,-5.018068,10.54535,-0.03046724,0.9509634,0.03509445,-0.349553,-17.77913,10.34647,24.52341
21.019713879,-7.062024,11.36088,0.705887599999999,0.9504849,0.03216688,-0.3519689,-17.77913,10.34647,24.52341
21.029625893,-7.929157,11.9434,1.626331,0.9510797,0.022472,-0.3529993,-17.78237,10.72289,24.97198
21.039536953,-8.36272300000002,13.10844,2.301323,0.9647755,0.01581671,-0.3603727,-17.78237,10.72289,24.97198
21.04944849,-7.681405,14.33173,2.914952,0.9713525,-0.003501154,-0.3615225,-17.78237,10.72289,24.97198
21.059360027,-5.82326300000003,16.48705,3.405856,0.9949257,-0.01388531,-0.3637303,-17.78237,10.72289,24.97198
21.069271564,-2.602484,19.10839,3.835396,1.020383,-0.01452638,-0.3615693,-17.78237,10.72289,24.97198
21.079183579,0.494418,22.487,3.958122,1.024707,0.0001230208,-0.3519085,-18.14555,9.97524,25.3617
21.089094639,2.724188,27.96269,5.308106,1.034088,0.005652654,-0.3365933,-18.14555,9.97524,25.3617
21.099006176,4.148763,29.53549,6.53536400000002,1.013586,0.02102308,-0.3151744,-18.14555,9.97524,25.3617
21.10891819,4.89202,30.52577,6.84217800000002,1.018518,0.06159424,-0.2635728,-18.14555,9.97524,25.3617
21.11882925,4.148763,33.49662,6.78081600000001,1.044094,0.1005271,-0.2035302,-18.14555,9.97524,25.3617
21.128741264,3.405506,37.69077,5.614921,1.074285,0.1313344,-0.1320606,-18.52578,9.968412,23.69328
21.138652802,0.1227897,43.80722,4.387662,1.06644,0.1524492,-0.06174424,-18.52578,9.968412,23.69328
21.148563862,-6.87620999999998,48.40913,5.614921,1.035003,0.159548,-0.01963245,-18.52578,9.968412,23.69328
21.158475876,-17.40568,50.44794,9.35805800000003,1.015216,0.1667493,0.0142096,-18.52578,9.968412,23.69328
21.168387413,-28.43065,50.56445,13.46937,1.038933,0.1500985,0.01868092,-18.52578,9.968412,23.69328
21.17829895,-38.2788,49.1664,17.08978,0.9909969,0.1294893,-0.006941604,-19.27754,10.34478,24.14573
21.188210487,-44.41067,47.06933,18.25568,0.942535,0.07641996,-0.02653345,-19.27754,10.34478,24.14573
21.198121548,-45.64943,44.97226,18.01023,0.9350112,0.04940029,-0.07658034,-19.27754,10.34478,24.14573
21.208033562,-42.6764,41.24413,16.2307,0.8696241,0.00352288,-0.1646304,-19.27754,10.34478,24.14573
21.217945099,-34.81027,34.3704,13.77619,0.8190667,-0.06208707,-0.2601514,-19.27754,10.34478,24.14573
21.227857113,-20.87421,26.04037,12.67165,0.7614934,-0.1088471,-0.3502002,-19.64184,9.215733,22.86625
21.240246296,-1.549538,17.12782,9.66487199999998,0.7832407,-0.1338222,-0.3568098,-19.64184,9.215733,22.86625
21.250157356,11.51939,15.49677,7.51716999999999,0.8735825,-0.1320137,-0.3187404,-19.64184,9.215733,22.86625
21.26006937,22.48243,18.35111,5.001291,0.9443488,-0.09558536,-0.2893824,-19.64184,9.215733,22.86625
21.269980908,30.53437,20.56469,2.424049,0.9646628,-0.041058,-0.2949688,-19.64184,9.215733,22.86625
21.279892922,36.23267,18.75887,-0.3372818,0.9446644,0.005049093,-0.3314489,-21.50989,8.839157,22.42742
21.289803982,38.46244,13.92396,-1.748629,0.922022,0.04834349,-0.3429551,-21.50989,8.839157,22.42742
21.299715519,36.17074,8.50653100000001,-1.56454,0.922079,0.0861736,-0.3407829,-21.50989,8.839157,22.42742
21.309627533,29.6053,3.089098,-0.3986447,0.9140612,0.1128037,-0.3285274,-21.50989,8.839157,22.42742
21.319538593,20.8101,-2.328334,1.81042,0.9088457,0.1152603,-0.3097366,-21.50989,8.839157,22.42742
21.329450607,13.87304,-7.221499,4.080848,0.9210383,0.1024746,-0.2801647,-21.89038,9.212153,22.04275
21.339362145,9.90900100000002,-10.83312,5.369469,0.9493763,0.0908716,-0.2483336,-21.89038,9.212153,22.04275
21.349273205,8.732179,-12.69718,6.22854899999998,0.9815312,0.08512197,-0.2188994,-21.89038,9.212153,22.04275
21.359185219,9.04186800000002,-12.81369,6.41263799999999,1.007884,0.07640602,-0.1865504,-21.89038,9.212153,22.04275
21.369096279,9.22768300000001,-11.5904,6.596727,1.027044,0.05011075,-0.1609743,-21.89038,9.212153,22.04275
21.379008293,9.72318700000001,-10.36711,6.84217800000002,1.027439,0.01324356,-0.1655449,-21.53713,10.70874,21.58647
21.38891983,11.64327,-8.61954700000002,6.78081600000001,1.017014,-0.03306001,-0.1873641,-21.53713,10.70874,21.58647
21.398830891,14.43048,-7.57101099999998,6.53536400000002,0.9932237,-0.06936984,-0.2133146,-21.53713,10.70874,21.58647
21.408742905,16.72219,-7.04674300000001,6.53536400000002,0.9752495,-0.11295,-0.2528116,-21.53713,10.70874,21.58647
21.418654442,18.82808,-6.69723099999998,7.148993,0.9386454,-0.1411788,-0.2790698,-21.53713,10.70874,21.58647
21.428566456,21.61529,-5.93995599999998,7.76262199999999,0.9168349,-0.1559882,-0.2775263,-20.78376,10.3342,21.58373
21.438477516,24.65026,-5.357436,7.08763000000002,0.9581897,-0.1326485,-0.2705509,-20.78376,10.3342,21.58373
21.448389053,26.38452,-5.066176,5.676283,0.9524123,-0.1017039,-0.2731723,-20.78376,10.3342,21.58373
21.458301067,26.44646,-4.833169,4.817203,0.9582194,-0.08263745,-0.2567736,-20.78376,10.3342,21.58373
21.468212128,25.64127,-5.82345200000001,3.528581,0.9618581,-0.04370607,-0.2378217,-20.78376,10.3342,21.58373
21.478124142,24.40251,-7.57101099999998,1.994509,0.9893827,-0.03060598,-0.2086994,-20.4192,11.08342,21.57948
21.488035202,22.73018,-7.74576700000002,0.767250500000003,1.017861,-0.05433132,-0.1774303,-20.4192,11.08342,21.57948
21.497946739,21.11979,-5.998208,0.767250500000003,1.030682,-0.08459915,-0.154703,-20.4192,11.08342,21.57948
21.507858753,19.63328,-3.318618,1.074065,1.017452,-0.1211159,-0.1524231,-20.4192,11.08342,21.57948
21.520247936,18.95196,-1.338051,0.889976299999999,1.005936,-0.1513927,-0.1664429,-21.17418,11.45613,21.13251
21.530159474,17.96095,0.1765001,1.012702,0.9857011,-0.1566196,-0.1907786,-21.17418,11.45613,21.13251
21.540071011,16.04087,1.108532,1.135428,0.967859,-0.1418427,-0.1967573,-21.17418,11.45613,21.13251
21.549982548,14.18273,1.399791,1.749057,0.9704961,-0.1219603,-0.2024111,-21.17418,11.45613,21.13251
21.559894562,12.32458,2.098815,1.933146,0.9947001,-0.09007384,-0.1889781,-21.17418,11.45613,21.13251
21.569805622,10.03288,3.322106,1.442243,1.003817,-0.06858426,-0.1807565,-21.18711,12.58174,21.57875
21.579717636,7.24566599999997,4.778405,0.705887599999999,1.008488,-0.04863683,-0.1787462,-21.18711,12.58174,21.57875
21.589629173,4.086825,5.535681,0.2763473,0.991102,-0.03484643,-0.189057,-21.18711,12.58174,21.57875
21.599540234,0.989922399999999,6.23470400000003,-0.2759189,0.9695587,-0.0356188,-0.1927042,-21.18711,12.58174,21.57875
21.609452248,-2.292794,5.76868899999999,-0.889547900000002,0.9538847,-0.02997523,-0.1886804,-21.18711,12.58174,21.57875
21.619363785,-5.203883,4.661901,-1.748629,0.9533727,-0.02804213,-0.1886628,-20.44021,12.57997,21.12515
21.629275799,-6.75233400000001,3.205602,-2.239532,0.9559417,-0.04258103,-0.193585,-20.44021,12.57997,21.12515
21.639186859,-7.18590000000003,1.924059,-2.791798,0.9668254,-0.0672585,-0.2101754,-20.44021,12.57997,21.12515
21.649098396,-6.318768,0.759019800000003,-2.853161,0.9763389,-0.09629438,-0.2224608,-20.44021,12.57997,21.12515
21.659009933,-4.956131,-0.2895156,-2.546346,0.9729321,-0.1153534,-0.243203,-20.44021,12.57997,21.12515
21.668921471,-2.788299,-1.571059,-2.362258,0.9722986,-0.124703,-0.2682277,-21.19357,12.95451,21.12789
21.678833485,-0.682404900000003,-1.978823,-2.484983,0.960934,-0.1205152,-0.2748169,-21.19357,12.95451,21.12789
21.688744545,-0.1249625,-1.745815,-2.607709,0.9642216,-0.1059085,-0.2709087,-21.19357,12.95451,21.12789
21.698656082,-0.6204669,-1.105043,-2.669072,0.9686614,-0.07486182,-0.2784255,-21.19357,12.95451,21.12789
21.708568096,-2.602484,-0.8720351,-3.159976,0.9598079,-0.03280846,-0.2819047,-21.19357,12.95451,21.12789
21.718479156,-5.76132499999998,-0.813783199999999,-3.834968,0.9572059,-0.005603795,-0.265374,-21.55813,12.20529,21.13214
21.72839117,-9.84923700000002,-0.580775400000001,-4.080419,0.9541462,0.009903715,-0.2594806,-21.55813,12.20529,21.13214
21.738302708,-13.62746,-0.4060195,-4.816774,0.9625241,0.01345655,-0.2489709,-21.55813,12.20529,21.13214
21.748213768,-16.66242,-0.4642715,-5.062225,0.9610691,0.01246875,-0.248964,-21.55813,12.20529,21.13214
21.758125782,-18.33475,-1.338051,-5.246314,0.9524716,0.003684127,-0.2393398,-21.55813,12.20529,21.13214
21.768037319,-19.26382,-2.79435,-5.246314,0.9515531,0.006141809,-0.2306721,-20.43375,12.20721,21.57602
21.777948856,-18.5825,-4.541909,-5.246314,0.9560503,-0.001557676,-0.2302849,-20.43375,12.20721,21.57602
21.787860393,-17.40568,-5.998208,-5.184951,0.96687,-0.007244142,-0.230903,-20.43375,12.20721,21.57602
21.800249577,-15.36172,-6.988491,-5.246314,0.9746051,-0.01060677,-0.243481,-20.43375,12.20721,21.57602
21.810161591,-13.56552,-6.988491,-5.36904,0.9713807,-0.02225374,-0.2377669,-20.43375,12.20721,21.57602
21.820073128,-11.76932,-6.81373500000001,-5.614491,0.9734648,-0.03630883,-0.2417211,-21.17581,11.83438,22.03078
21.829984665,-10.34474,-6.40597199999999,-5.79858000000001,0.9666852,-0.04221391,-0.2421779,-21.17581,11.83438,22.03078
21.839896202,-9.60148500000001,-5.648696,-6.16675799999997,0.9674884,-0.05326379,-0.224493,-21.17581,11.83438,22.03078
21.849807262,-9.22985600000001,-4.716664,-6.596298,0.9760666,-0.03668427,-0.2268627,-21.17581,11.83438,22.03078
21.859719276,-9.35373199999999,-3.959389,-6.84175,0.9710395,-0.02267072,-0.2238419,-21.17581,11.83438,22.03078
21.869630814,-10.22087,-3.493374,-7.08720199999999,0.9734313,-0.009984778,-0.2141764,-20.79532,11.46138,22.41545
21.879542828,-11.70738,-3.668129,-6.78038700000001,0.970486,-0.006125038,-0.2107623,-20.79532,11.46138,22.41545
21.889453888,-13.07002,-4.075893,-5.92130599999998,0.9850107,0.009593444,-0.2064705,-20.79532,11.46138,22.41545
21.899365425,-13.81327,-4.308901,-5.184951,0.9746124,0.02549466,-0.2005065,-20.79532,11.46138,22.41545
21.909277439,-14.80428,-4.774917,-4.387233,0.9779435,0.03768501,-0.1951744,-20.79532,11.46138,22.41545
21.919188499,-15.67141,-5.299184,-3.589516,0.9752156,0.04531197,-0.2138245,-20.78562,10.71219,22.41776
21.929100513,-16.35273,-6.81373500000001,-3.159976,0.9585159,0.0396989,-0.227632,-20.78562,10.71219,22.41776
21.939012051,-16.41467,-7.62926299999999,-2.300895,0.9551567,0.03481101,-0.2271534,-20.78562,10.71219,22.41776
21.948923111,-15.9811,-7.10499500000003,-1.99408,0.9704469,0.0145819,-0.237993,-20.78562,10.71219,22.41776
21.958835125,-14.1849,-6.87198700000002,-2.362258,0.9655904,0.007708597,-0.2427955,-20.78562,10.71219,22.41776
21.968746185,-12.01707,-6.52247499999999,-2.669072,0.9731305,-0.01160477,-0.2453946,-20.78402,10.71402,22.86747
21.978658199,-9.663423,-6.23121499999997,-2.914524,0.9664328,-0.03015013,-0.2526586,-20.78402,10.71402,22.86747
21.988569736,-6.87620999999998,-5.76519999999999,-3.03725,0.9704885,-0.03685553,-0.2464988,-20.78402,10.71402,22.86747
21.99848175,-4.584502,-5.124428,-3.03725,0.9637637,-0.03785408,-0.2358797,-20.78402,10.71402,22.86747
22.008392811,-3.469617,-5.007925,-2.669072,0.9705467,-0.02316668,-0.224801,-20.78402,10.71402,22.86747
22.018304348,-3.159927,-5.124428,-2.055443,0.9802589,-0.003566882,-0.2084348,-20.03065,10.33949,22.86473
22.028216362,-4.02706,-4.949672,-0.828185100000001,0.9936553,0.009382592,-0.1743812,-20.03065,10.33949,22.86473
22.038127422,-5.575511,-4.250649,0.460436,1.000154,0.01929243,-0.1489269,-20.03065,10.33949,22.86473
22.048039436,-6.69039600000003,-2.969106,1.442243,1.009972,0.03455712,-0.1273089,-20.03065,10.33949,22.86473
22.057950974,-7.557528,-0.930287099999998,1.564968,1.021286,0.05034265,-0.1023402,-20.03065,10.33949,22.86473
22.067862034,-8.053034,0.9920276,1.135428,1.009494,0.08991778,-0.1091698,-20.40976,10.71405,22.86552
22.080252171,-9.97311299999999,2.157067,0.0922585699999997,0.990045,0.1114329,-0.1208506,-20.40976,10.71405,22.86552
22.090163231,-11.33575,2.273571,-0.214556,0.9826948,0.09133284,-0.1458848,-20.40976,10.71405,22.86552
22.100075245,-11.5835,2.623082,-0.4600076,0.9860204,0.04571976,-0.1611043,-20.40976,10.71405,22.86552
22.109986782,-9.84923700000002,3.322106,-0.3372818,0.9901536,-0.0241116,-0.1736117,-20.40976,10.71405,22.86552
22.119897842,-5.76132499999998,4.487145,-1.012274,0.9905597,-0.06926613,-0.1868805,-19.64993,9.966753,23.31366
22.129809856,-0.6204669,5.302673,-2.178169,0.9810439,-0.06023159,-0.1982561,-19.64993,9.966753,23.31366
22.139720917,4.148763,5.186169,-3.528153,0.9686887,-0.02021342,-0.2117999,-19.64993,9.966753,23.31366
22.149632931,7.12178899999997,3.962878,-4.878137,0.949782,0.02791634,-0.2348321,-19.64993,9.966753,23.31366
22.159544468,7.55535600000002,2.157067,-5.184951,0.9425465,0.04616428,-0.2514492,-19.64993,9.966753,23.31366
22.169455528,7.30760400000002,0.2347521,-4.878137,0.9393921,0.05186637,-0.2662669,-20.39383,9.591837,23.25446
22.179367542,6.62628499999997,-0.2312636,-3.957693,0.9516626,0.04131198,-0.2741332,-20.39383,9.591837,23.25446
22.189279079,5.82109000000002,0.5260119,-3.46679,0.9589342,0.04283452,-0.2785118,-20.39383,9.591837,23.25446
22.199191093,4.953958,0.759019800000003,-3.712242,0.9578229,0.05153336,-0.2813245,-20.39383,9.591837,23.25446
22.209102154,4.148763,0.409508,-4.264508,0.9546444,0.07039365,-0.2830901,-20.39383,9.591837,23.25446
22.219013691,2.290622,-0.3477675,-4.632685,0.9549934,0.08788793,-0.2762545,-20.76648,9.593637,23.70612
22.228925705,-0.3727147,-1.512807,-4.571322,0.9543812,0.09367136,-0.2814921,-20.76648,9.593637,23.70612
22.238836765,-2.850237,-2.736098,-3.89633,0.9678419,0.07689813,-0.2759664,-20.76648,9.593637,23.70612
22.248748779,-4.088998,-3.08561,-3.098613,0.9773097,0.05661909,-0.2824312,-20.76648,9.593637,23.70612
22.25865984,-4.088998,-2.561342,-2.546346,0.9708027,0.04109969,-0.2675894,-20.76648,9.593637,23.70612
22.268571854,-3.841246,-2.153579,-2.300895,0.9732093,0.04306158,-0.2690391,-20.40006,9.964863,22.86783
22.278483391,-2.912175,-2.037075,-1.99408,0.9794437,0.05283383,-0.2695118,-20.40006,9.964863,22.86783
22.288394451,-2.726361,-1.804067,-2.669072,0.986497,0.07716966,-0.2684546,-20.40006,9.964863,22.86783
22.298306465,-4.150936,-1.338051,-2.300895,0.9932854,0.09429886,-0.2539985,-20.40006,9.964863,22.86783
22.308218002,-6.38070599999998,-0.1147597,-2.669072,0.9961843,0.09968331,-0.2511085,-20.40006,9.964863,22.86783
22.318130016,-8.85822799999998,1.574547,-1.932717,1.026865,0.09293569,-0.223588,-20.0258,9.964893,22.86589
22.328041077,-11.27381,3.322106,-1.56454,1.025676,0.07745251,-0.2145572,-20.0258,9.964893,22.86589
22.337952614,-13.6894,4.778405,-0.766822200000002,1.008927,0.06230566,-0.1967373,-20.0258,9.964893,22.86589
22.347864151,-14.80428,5.069665,0.0922585699999997,1.019842,0.04983974,-0.195961,-20.0258,9.964893,22.86589
22.360253811,-14.43265,4.60365,1.074065,1.005415,0.04246465,-0.1809918,-20.38898,9.217241,23.25561
22.370165825,-14.6804,5.535681,1.687694,1.0335,0.05658372,-0.1437052,-20.38898,9.217241,23.25561
22.380076885,-15.9811,8.33177500000003,1.442243,1.02676,0.07167506,-0.1156931,-20.38898,9.217241,23.25561
22.389988422,-16.60048,12.35116,1.258154,1.019547,0.06774385,-0.1084502,-20.38898,9.217241,23.25561
22.399900436,-17.2818,15.32201,1.503605,0.9986216,0.05533743,-0.1131409,-20.38898,9.217241,23.25561
22.409811497,-16.97211,17.01132,2.055871,0.9531431,0.03574091,-0.1363786,-20.01449,9.217533,23.31791
22.419723511,-15.54754,17.06957,2.853589,0.9220883,-0.005990167,-0.1618178,-20.01449,9.217533,23.31791
22.429634571,-11.89319,15.96278,3.896759,0.9061096,-0.05001302,-0.1979752,-20.01449,9.217533,23.31791
22.439546585,-6.87620999999998,14.04047,4.326299,0.9021891,-0.07689591,-0.2302886,-20.01449,9.217533,23.31791
22.449458122,-1.79729,11.88514,4.387662,0.8961549,-0.07364148,-0.2426953,-20.01449,9.217533,23.31791
22.459369183,1.918993,10.19584,4.080848,0.9051722,-0.05659401,-0.2493873,-20.75977,8.841047,22.87324
22.469281197,3.529382,7.92401099999998,3.774033,0.9222642,-0.03907828,-0.2787183,-20.75977,8.841047,22.87324
22.479192734,4.086825,5.127917,3.467218,0.9209018,-0.01636376,-0.2895981,-20.75977,8.841047,22.87324
22.489104748,3.467444,3.496862,3.774033,0.9345655,-0.01620646,-0.2921242,-20.75977,8.841047,22.87324
22.499015808,3.28163,2.040563,5.18538,0.9333746,-0.04632516,-0.3004765,-20.75977,8.841047,22.87324
22.508927345,4.768144,0.9920276,6.596727,0.9224514,-0.07702971,-0.3049015,-20.75492,8.466453,22.87439
22.518839359,7.369542,0.642515800000001,7.21035599999999,0.9225359,-0.06430279,-0.2817698,-20.75492,8.466453,22.87439
22.52875042,9.22768300000001,-0.3477675,6.41263799999999,0.936927,-0.02914164,-0.2677441,-20.75492,8.466453,22.87439
22.538662434,10.03288,-2.328334,5.369469,0.9579174,0.01134298,-0.2715098,-20.75492,8.466453,22.87439
22.548573494,10.28063,-3.609878,4.203574,0.9724372,0.03242476,-0.2614203,-20.75492,8.466453,22.87439
22.558485508,9.59931099999998,-4.250649,3.589944,0.9868,0.02489258,-0.2524803,-21.14533,9.588378,22.42317
22.568397045,9.35155899999998,-4.89142,3.589944,0.9832149,0.007452609,-0.2410395,-21.14533,9.588378,22.42317
22.578308105,10.15675,-5.415688,3.71267,0.9782782,-0.0192141,-0.2291676,-21.14533,9.588378,22.42317
22.588220119,11.89102,-5.415688,4.14221,0.9800893,-0.04145559,-0.22165,-21.14533,9.588378,22.42317
22.598131657,13.8111,-5.007925,4.080848,0.9803582,-0.0544864,-0.2106956,-21.14533,9.588378,22.42317
22.608043671,15.29761,-4.774917,4.019485,0.9739986,-0.04676279,-0.2019425,-21.52097,9.58678,22.03965
22.617954731,15.85505,-4.250649,3.651307,0.9807331,-0.03502746,-0.1990457,-21.52097,9.58678,22.03965
22.630343914,15.91699,-3.435122,2.976315,0.9859151,-0.01652579,-0.1965695,-21.52097,9.58678,22.03965
22.640255928,15.48343,-2.386586,2.362686,0.9940161,-0.006287772,-0.2052191,-21.52097,9.58678,22.03965
22.650167465,15.04986,-1.046791,1.564968,0.9993949,-0.004269062,-0.2028546,-21.52097,9.58678,22.03965
22.660079479,14.61629,0.293004,0.767250500000003,1.000728,0.002020889,-0.2085869,-21.15018,9.962974,22.42201
22.669990539,14.36854,0.700767799999999,0.1536215,0.9918633,0.0023658,-0.2142645,-21.15018,9.962974,22.42201
22.679902077,13.99691,1.108532,0.03089567,0.9788608,-0.008915274,-0.2079774,-21.15018,9.962974,22.42201
22.689814091,13.93497,1.166783,-0.09183015,0.9789882,-0.02494656,-0.2143274,-21.15018,9.962974,22.42201
22.699725151,14.49242,1.341539,0.2149844,0.9760408,-0.02791723,-0.2191215,-21.15018,9.962974,22.42201
22.709637165,15.73118,1.807555,0.460436,0.9815359,-0.03315512,-0.2139255,-21.15641,10.336,22.03539
22.719548225,17.03188,3.089098,0.583161800000002,0.9884455,-0.03937751,-0.2149912,-21.15641,10.336,22.03539
22.729460239,18.14676,4.195886,0.460436,0.994171,-0.02132909,-0.2077215,-21.15641,10.336,22.03539
22.739371777,17.96095,5.186169,0.3990731,0.9939827,-0.001427103,-0.2027856,-21.15641,10.336,22.03539
22.749282837,16.4125,6.351208,0.583161800000002,0.9929941,0.009774684,-0.1906979,-21.15641,10.336,22.03539
22.759194851,14.49242,8.33177500000003,0.6445247,0.9988168,0.01762972,-0.1858978,-20.79346,11.08339,21.58142
22.769106388,12.0149,9.84632599999999,0.6445247,1.002312,0.01819779,-0.1782438,-20.79346,11.08339,21.58142
22.779018402,9.47543500000001,11.88514,0.767250500000003,1.004905,0.01440331,-0.1682098,-20.79346,11.08339,21.58142
22.788929462,7.05985200000002,14.09872,0.951339199999998,1.003536,0.006630958,-0.1677687,-20.79346,11.08339,21.58142
22.798841,4.89202,16.5453,1.749057,1.019362,-0.004299477,-0.1631863,-20.79346,11.08339,21.58142
22.808752537,3.962949,18.93363,1.994509,1.015016,-0.01505779,-0.1704202,-20.41596,10.707,21.13092
22.818664074,3.28163,20.68119,2.608138,0.9885504,-0.02712775,-0.1904225,-20.41596,10.707,21.13092
22.828576088,3.343568,21.38021,3.099041,0.9716001,-0.04237906,-0.192288,-20.41596,10.707,21.13092
22.838487148,4.396515,20.85595,3.958122,0.9638312,-0.05269254,-0.199007,-20.41596,10.707,21.13092
22.848399162,5.5114,21.14721,4.387662,0.9815871,-0.06312409,-0.1963598,-20.41596,10.707,21.13092
22.858310699,7.98892199999997,23.47729,4.387662,1.009562,-0.06662317,-0.1903998,-21.53873,10.70691,21.13676
22.86822176,10.65226,25.57436,3.589944,1.007952,-0.04720381,-0.1816127,-21.53873,10.70691,21.13676
22.878133774,12.26265,27.55492,2.669501,1.002856,-0.03029934,-0.1819331,-21.53873,10.70691,21.13676
22.888045311,13.06784,28.66171,1.933146,0.9913553,-0.01593853,-0.1898937,-21.53873,10.70691,21.13676
22.897957325,13.50141,29.01122,0.828613499999998,0.9800549,0.01144896,-0.2107337,-21.53873,10.70691,21.13676
22.907868385,12.13877,28.60346,0.0922585699999997,0.9826069,0.006169531,-0.2064711,-21.91922,11.0799,20.75208
22.920257568,10.15675,27.84618,-0.09183015,0.983652,0.004265436,-0.202172,-21.91922,11.0799,20.75208
22.930169582,9.22768300000001,28.71996,0.2763473,0.9848674,-0.002427987,-0.1868628,-21.91922,11.0799,20.75208
22.94008112,9.04186800000002,31.51606,0.6445247,1.004323,-0.01174433,-0.1602159,-21.91922,11.0799,20.75208
22.949993134,9.47543500000001,34.66166,0.889976299999999,1.009373,-0.01159953,-0.1444164,-21.91922,11.0799,20.75208
22.959904194,10.21869,35.8267,0.2149844,0.9913182,-0.008392448,-0.1370257,-22.67904,11.8272,20.30396
22.969816208,10.21869,36.11796,0.2149844,1.002633,-0.006752536,-0.1284766,-22.67904,11.8272,20.30396
22.979727745,10.52838,35.01117,-0.2759189,0.9754894,0.01229245,-0.1304995,-22.67904,11.8272,20.30396
22.989638805,10.15675,33.55487,-0.889547900000002,0.9764491,0.01131972,-0.1333958,-22.67904,11.8272,20.30396
22.999550819,8.979931,33.32187,-0.3372818,0.9972757,0.003435204,-0.1144346,-22.67904,11.8272,20.30396
23.00946188,7.98892199999997,34.48691,0.1536215,1.013719,-0.008397596,-0.0983401,-23.73919,11.44729,19.02573
23.019373894,8.05085899999999,36.40922,-0.766822200000002,1.014646,-0.001583062,-0.09542231,-23.73919,11.44729,19.02573
23.029285431,7.74116999999998,38.44804,-1.257725,1.023502,0.001970752,-0.08587739,-23.73919,11.44729,19.02573
23.039197445,7.80310800000002,40.89462,-1.380451,1.027956,0.007419275,-0.07435848,-23.73919,11.44729,19.02573
23.049108505,8.54636400000002,43.45771,-1.99408,1.023705,-0.001826058,-0.07053949,-23.73919,11.44729,19.02573
23.059020042,9.04186800000002,44.85575,-3.405427,1.010109,0.006832095,-0.05114974,-23.36631,11.44575,18.63832
23.068932056,8.17473599999999,47.06933,-3.344064,1.015305,0.007540677,-0.02046295,-23.36631,11.44575,18.63832
23.078843117,6.31659499999999,50.04018,-4.080419,0.9959107,0.01079578,-0.0005754121,-23.36631,11.44575,18.63832
23.088755131,4.086825,52.31201,-4.080419,1.007775,0.00857107,0.009383363,-23.36631,11.44575,18.63832
23.098666191,2.724188,52.60327,-3.528153,0.9898658,0.01989831,-0.007181081,-23.36631,11.44575,18.63832
23.108578205,1.918993,49.92368,-2.300895,1.00122,0.002534478,-0.01700493,-23.75162,11.81326,16.90451
23.118489742,3.405506,49.98193,-2.791798,0.9944013,-0.01338662,0.01464251,-23.75162,11.81326,16.90451
23.128400803,4.396515,50.7392,-3.650879,1.00394,-0.02143373,0.02938558,-23.75162,11.81326,16.90451
23.138312817,6.19271900000002,53.4188,-5.062225,1.013339,-0.01491923,0.04758807,-23.75162,11.81326,16.90451
23.148224354,8.42248799999999,58.6614700000001,-7.02583799999998,1.008351,0.009846399,0.06700552,-23.75162,11.81326,16.90451
23.158136368,7.98892199999997,62.5643499999998,-8.55991099999998,1.00475,0.03019832,0.07341647,-24.88521,12.18097,15.23883
23.168047428,5.697214,65.94296,-10.76898,0.9909158,0.04263544,0.07410742,-24.88521,12.18097,15.23883
23.177959442,2.848064,63.1468699999999,-11.87351,0.9773005,0.02079154,0.008306138,-24.88521,12.18097,15.23883
23.190348625,-2.788299,56.91391,-9.05081500000002,0.9770297,0.0562604,0.02342984,-24.88521,12.18097,15.23883
23.200260162,-7.49559099999998,57.03042,-9.60308100000002,0.9557903,0.04735356,0.03989231,-25.63348,11.80108,13.95898
23.210172176,-11.33575,58.89448,-8.86672600000002,1.010814,0.00500845,0.06310925,-25.63348,11.80108,13.95898
23.220083237,-11.95513,62.3313399999999,-7.82355600000003,1.013612,0.0232717,0.1189034,-25.63348,11.80108,13.95898
23.229995251,-11.70738,69.61284,-10.8917,1.011334,0.0316204,0.1449086,-25.63348,11.80108,13.95898
23.239906788,-11.45963,70.0788500000001,-12.36441,0.9854864,0.05547293,0.1318621,-25.63348,11.80108,13.95898
23.249817848,-8.73435200000001,70.8943800000001,-13.46894,0.9850705,0.0745292,0.1612826,-27.13809,11.79234,11.84669
23.259729862,-7.062024,73.16621,-13.53031,0.9756024,0.09017846,0.2099704,-27.13809,11.79234,11.84669
23.269641399,-5.947139,78.0593700000002,-14.94165,0.9840164,0.06668128,0.239986,-27.13809,11.79234,11.84669
23.279552937,-7.18590000000003,81.6127400000002,-15.06438,0.9610254,0.06419769,0.2838765,-27.13809,11.79234,11.84669
23.289464474,-6.87620999999998,83.7098099999997,-16.29164,0.9318881,0.07734482,0.2712693,-27.13809,11.79234,11.84669
23.299376488,-4.894192,87.3214299999999,-18.07116,0.8971596,0.1215334,0.2742856,-27.87666,10.66326,10.56916
23.309287548,-12.20288,84.0010699999998,-19.48251,0.9126309,0.1174961,0.3000442,-27.87666,10.66326,10.56916
23.319199085,-18.89219,84.0010699999998,-18.93024,0.8947833,0.1091038,0.3140779,-27.87666,10.66326,10.56916
23.329111099,-24.03305,85.3408699999998,-18.13253,0.914448,0.0472133,0.2995591,-27.87666,10.66326,10.56916
23.33902216,-23.53755,81.03022,-14.51211,0.8666941,0.01766987,0.2335421,-27.87666,10.66326,10.56916
23.348934174,-22.11297,77.88461,-12.24169,0.837177,0.001359875,0.2447501,-28.62791,10.27998,8.454132
23.358845711,-21.92716,78.6418899999998,-11.62806,0.8197394,-0.01413613,0.2904232,-28.62791,10.27998,8.454132
23.368757248,-21.80328,80.6224600000001,-9.90989499999997,0.9028392,-0.08285479,0.3026413,-28.62791,10.27998,8.454132
23.378668785,-20.00708,85.3408699999998,-8.80536299999997,0.9110554,-0.1362021,0.3737535,-28.62791,10.27998,8.454132
23.388579846,-14.6804,86.21465,-8.19173300000002,0.8880188,-0.1492017,0.3532331,-28.62791,10.27998,8.454132
23.39849186,-2.850237,87.0301699999998,-7.946282,0.8144033,-0.1224565,0.3584135,-29.75178,9.518412,5.442781
23.408403397,0.866046300000002,81.3214800000001,-10.15535,0.8182281,-0.07343265,0.3596651,-29.75178,9.518412,5.442781
23.418315411,6.254657,76.7195700000002,-9.60308100000002,0.8382634,-0.04196839,0.3952211,-29.75178,9.518412,5.442781
23.428226471,6.93597599999999,75.3797799999999,-9.54171799999998,0.8124257,-0.01274492,0.3894127,-29.75178,9.518412,5.442781
23.438138485,6.56434699999999,76.4865599999998,-9.72580600000002,0.8591172,-0.03594071,0.3854652,-29.75178,9.518412,5.442781
23.448050022,4.89202,76.3118099999998,-7.946282,0.8428907,-0.0142388,0.4020852,-29.75936,9.509785,3.322708
23.457961083,3.343568,76.4283100000002,-9.66444299999998,0.8565014,-0.01996272,0.3875165,-29.75936,9.509785,3.322708
23.467873097,0.3086039,76.66132,-11.32124,0.9067555,-0.03962818,0.4013255,-29.75936,9.509785,3.322708
23.48026228,-2.788299,69.8458499999999,-5.430403,0.8914506,-0.004045244,0.3810573,-29.75936,9.509785,3.322708
23.490174294,-4.33675,69.0303199999999,-2.975887,0.9372793,-0.005002686,0.3667025,-29.75936,9.509785,3.322708
23.500085831,-3.159927,70.2536099999998,0.5217989,0.9402537,0.01261623,0.3912804,-31.63477,9.124844,0.8280525
23.509996891,-0.2488386,71.12739,3.835396,0.9397773,0.02725077,0.4096283,-31.63477,9.124844,0.8280525
23.519908905,2.600312,69.9623499999997,7.51716999999999,0.897275,0.04039602,0.4288352,-31.63477,9.124844,0.8280525
23.529820442,4.644268,68.9720700000003,8.37625100000002,0.8716193,0.04313325,0.45742,-31.63477,9.124844,0.8280525
23.539731979,4.89202,67.80703,10.64668,0.8622044,0.03246866,0.4804836,-31.63477,9.124844,0.8280525
23.549643516,3.715197,66.5837299999998,10.64668,0.8266703,0.04478794,0.5106641,-30.89891,9.49061,-1.361312
23.55955553,2.042869,64.0788999999997,9.84896099999999,0.8085842,0.06431589,0.4864734,-30.89891,9.49061,-1.361312
23.569466591,0.3086039,61.3410599999998,8.74442899999999,0.8024423,0.07824597,0.4760595,-30.89891,9.49061,-1.361312
23.579378128,-1.239847,60.0012599999998,6.47400099999998,0.827335,0.1053645,0.5033789,-30.89891,9.49061,-1.361312
23.589290142,-1.425662,60.0595199999997,2.669501,0.8442343,0.07156923,0.4905134,-30.89891,9.49061,-1.361312
23.599201202,0.1847278,57.9624500000002,2.117234,0.8756601,0.03179042,0.5043625,-30.52738,9.107417,-3.482177
23.609113216,2.600312,56.38964,1.871783,0.8808076,-0.00508738,0.4863034,-30.52738,9.107417,-3.482177
23.619024753,6.62628499999997,55.34111,1.135428,0.8737239,-0.01821947,0.4954044,-30.52738,9.107417,-3.482177
23.628936767,10.21869,54.17607,0.6445247,0.8629349,0.01626342,0.5327061,-30.52738,9.107417,-3.482177
23.638847828,12.57234,53.88481,1.012702,0.8824294,0.01988968,0.5306294,-30.52738,9.107417,-3.482177
23.648759365,13.93497,52.60327,3.344493,0.8892369,0.02922398,0.5378309,-30.16395,9.475245,-5.155637
23.658670902,14.67823,53.71006,2.424049,0.8854226,0.02727444,0.5450556,-30.16395,9.475245,-5.155637
23.668582439,14.74017,53.76831,2.424049,0.8514878,0.05211562,0.5551381,-30.16395,9.475245,-5.155637
23.678494453,13.31559,53.47705,1.442243,0.8200659,0.06166136,0.6015875,-30.16395,9.475245,-5.155637
23.688405514,12.07683,51.90424,1.749057,0.8035474,0.05614255,0.6055448,-30.16395,9.475245,-5.155637
23.698317528,11.45745,49.22466,3.528581,0.8014249,0.05969428,0.6411198,-30.154,8.346231,-6.437068
23.708229065,10.46644,47.06933,3.958122,0.7838244,0.08898276,0.6280332,-30.154,8.346231,-6.437068
23.718141079,7.74116999999998,44.681,4.939929,0.7685008,0.1140725,0.6413063,-30.154,8.346231,-6.437068
23.728052139,4.706205,43.69072,4.326299,0.7744682,0.1151736,0.6523021,-30.154,8.346231,-6.437068
23.737963676,1.795117,42.11792,4.203574,0.7852642,0.1036212,0.6425222,-30.154,8.346231,-6.437068
23.74787569,0.2466658,40.71987,4.694477,0.7830992,0.07690684,0.638523,-29.77948,7.966435,-7.722753
23.760264873,0.804108299999999,39.55483,4.019485,0.7871289,0.0682368,0.6398684,-29.77948,7.966435,-7.722753
23.770176887,1.918993,39.67133,3.528581,0.7784544,0.03527016,0.6613362,-29.77948,7.966435,-7.722753
23.780087948,5.077834,39.08881,3.221767,0.7720426,0.01589789,0.6809528,-29.77948,7.966435,-7.722753
23.789999485,7.369542,37.39951,2.055871,0.763346,0.005110403,0.6785606,-29.77948,7.966435,-7.722753
23.799911499,8.85605400000001,36.05971,1.933146,0.7723801,-0.00246309,0.6923512,-29.79676,8.706999,-9.845133
23.809822559,9.72318700000001,35.47719,1.994509,0.7530998,0.01279816,0.6897503,-29.79676,8.706999,-9.845133
23.819734573,9.59931099999998,35.47719,2.976315,0.7445163,0.01450416,0.6653529,-29.79676,8.706999,-9.845133
23.829645634,8.79411600000002,34.95292,3.71267,0.721487,0.0483377,0.7003627,-29.79676,8.706999,-9.845133
23.839557648,8.36055000000001,33.84613,4.326299,0.7128779,0.07198168,0.6991594,-29.79676,8.706999,-9.845133
23.849469185,6.06884200000002,32.56459,5.492195,0.7214833,0.05565291,0.7085741,-29.41926,8.330604,-10.29564
23.859380245,3.467444,31.69081,6.71945300000003,0.7226058,0.04354523,0.7084831,-29.41926,8.330604,-10.29564
23.869292259,1.671241,30.46752,8.00807399999998,0.7261575,0.02902102,0.7040321,-29.41926,8.330604,-10.29564
23.879203796,1.485427,29.7685,9.41941999999998,0.7342986,0.02269455,0.6799067,-29.41926,8.330604,-10.29564
23.88911581,0.866046300000002,29.36073,9.48078300000003,0.7440233,0.009378411,0.7066169,-29.41926,8.330604,-10.29564
23.899026871,2.538374,30.00151,9.91032400000003,0.7416329,0.00401023,0.705643,-28.67373,8.327266,-11.13471
23.908938885,4.768144,30.70053,10.15578,0.7318943,0.006835754,0.7129542,-28.67373,8.327266,-11.13471
23.918850422,7.369542,31.57431,10.09441,0.7157453,0.007602396,0.7126285,-28.67373,8.327266,-11.13471
23.928761959,9.10380600000001,32.15683,9.41941999999998,0.6754012,0.01379982,0.6957573,-28.67373,8.327266,-11.13471
23.938673496,9.66124900000002,32.33158,8.25352600000003,0.6272041,0.08768886,0.7552745,-28.67373,8.327266,-11.13471
23.948584557,9.59931099999998,30.35102,6.35127500000001,0.5801136,0.1467746,0.7623457,-28.30223,8.324158,-11.90759
23.958496571,5.82109000000002,28.54521,6.47400099999998,0.6003873,0.12568,0.7596169,-28.30223,8.324158,-11.90759
23.968408108,0.3086039,27.38017,7.88534800000001,0.6315581,0.08332942,0.745602,-28.30223,8.324158,-11.90759
23.978320122,-2.602484,27.38017,8.80579200000003,0.6628348,0.07346862,0.7322828,-28.30223,8.324158,-11.90759
23.988231182,-2.478608,28.13744,8.86715399999999,0.6904333,0.05148529,0.7275597,-28.30223,8.324158,-11.90759
23.998143196,-0.806281,29.24423,8.49897699999999,0.6779709,0.03633449,0.7342963,-27.93581,8.695385,-12.74587
24.008054733,0.927984400000002,29.59374,7.63989600000002,0.6557462,0.03424082,0.7580156,-27.93581,8.695385,-12.74587
24.017966747,3.033878,28.3122,6.28991200000003,0.626062,0.04223417,0.781391,-27.93581,8.695385,-12.74587
24.027877808,3.715197,28.07919,4.633114,0.6215853,0.03872482,0.7698852,-27.93581,8.695385,-12.74587
24.040266991,1.361551,27.72968,3.774033,0.6374939,0.02539844,0.7797326,-27.93581,8.695385,-12.74587
24.050179005,1.980931,26.04037,4.203574,0.6538339,0.01399948,0.7862278,-27.94712,9.442745,-13.19789
24.060090542,1.423489,24.70058,5.676283,0.6855259,0.01483823,0.7782578,-27.94712,9.442745,-13.19789
24.070002556,1.485427,23.59379,7.08763000000002,0.6971638,0.02127608,0.7762723,-27.94712,9.442745,-13.19789
24.079913616,2.228683,23.71029,7.578534,0.6942231,0.01733328,0.7709916,-27.94712,9.442745,-13.19789
24.089825153,3.653259,23.65204,7.27171900000003,0.6781818,0.01815598,0.7812287,-27.19674,9.064811,-14.03581
24.099736691,5.573338,23.47729,6.16718700000003,0.6513814,0.01835519,0.7906009,-27.19674,9.064811,-14.03581
24.109648228,6.997913,23.24428,4.387662,0.6284856,0.0242049,0.7582008,-27.19674,9.064811,-14.03581
24.119560242,7.80310800000002,22.31225,3.037678,0.5784288,0.09129019,0.8191305,-27.19674,9.064811,-14.03581
24.129471302,7.55535600000002,18.29286,1.749057,0.5032578,0.1691905,0.8755629,-27.19674,9.064811,-14.03581
24.139383316,4.396515,12.75892,1.503605,0.5122098,0.139623,0.8555965,-27.5823,9.812142,-14.48589
24.149294853,-0.3727147,7.86575900000002,1.81042,0.5418439,0.1328276,0.8764042,-27.5823,9.812142,-14.48589
24.159206867,-4.088998,3.788122,2.23996,0.5845942,0.1307826,0.8467056,-27.5823,9.812142,-14.48589
24.169117928,-6.13295399999998,1.691051,2.301323,0.6290092,0.1249564,0.8318512,-27.5823,9.812142,-14.48589
24.179029465,-7.681405,-0.5225234,0.951339199999998,0.6093317,0.143674,0.8422412,-27.5823,9.812142,-14.48589
24.188941479,-8.79629,-3.726381,-1.319088,0.5997357,0.1168176,0.8287066,-27.5823,9.812142,-14.48589
24.198852539,-8.548538,-6.81373500000001,-2.975887,0.5838125,0.07258412,0.8453648,-27.5823,9.812142,-14.48589
24.208764553,-8.300786,-10.30885,-4.080419,0.5812471,0.04298297,0.8466318,-27.5823,9.812142,-14.48589
24.218675613,-7.80528100000003,-13.0467,-4.080419,0.5792562,-0.01193345,0.8265978,-27.5823,9.812142,-14.48589
24.228587627,-7.062024,-15.37677,-3.46679,0.5897517,-0.02193053,0.8369977,-27.5823,9.812142,-14.48589
24.238499165,-6.38070599999998,-18.23112,-2.300895,0.5970882,-0.0237888,0.8349968,-27.21427,10.1852,-14.87445
24.248410225,-5.82326300000003,-19.97868,-0.2759189,0.628758,-0.03222991,0.8140009,-27.21427,10.1852,-14.87445
24.258322239,-6.13295399999998,-21.90099,1.749057,0.6403442,-0.01362382,0.82122,-27.21427,10.1852,-14.87445
24.268233776,-6.56652,-23.93981,2.853589,0.6370824,0.010559,0.8175701,-27.21427,10.1852,-14.87445
24.27814579,-7.61946700000001,-25.86213,4.203574,0.6356021,-0.0006858869,0.8031041,-27.21427,10.1852,-14.87445
24.288056851,-8.36272300000002,-27.43493,5.676283,0.6377414,-0.01276104,0.8068451,-27.5823,9.812142,-14.48589
24.297968865,-7.86721900000001,-29.70676,6.41263799999999,0.629327,-0.007064593,0.8035998,-27.5823,9.812142,-14.48589
24.307880402,-6.62845799999998,-31.80383,7.08763000000002,0.6476275,-0.01380693,0.768334,-27.5823,9.812142,-14.48589
24.320269585,-3.469617,-33.26012,6.71945300000003,0.6403625,0.03662079,0.7865031,-27.5823,9.812142,-14.48589
24.330181599,-2.478608,-34.94943,6.10582399999999,0.6451514,0.03760524,0.7778225,-27.5823,9.812142,-14.48589
24.340092659,-2.292794,-36.52224,5.676283,0.6690738,0.02861784,0.7636167,-27.96327,10.5647,-13.65107
24.350004673,-2.354732,-37.86203,5.492195,0.6710505,0.03304349,0.7708303,-27.96327,10.5647,-13.65107
24.35991621,-3.159927,-39.43483,5.98309800000002,0.6822602,0.02779948,0.7610886,-27.96327,10.5647,-13.65107
24.369827747,-3.841246,-40.19211,6.35127500000001,0.6953745,0.01816311,0.7412166,-27.96327,10.5647,-13.65107
24.379739285,-4.212874,-41.64841,6.16718700000003,0.692907,0.03080361,0.7538078,-27.96327,10.5647,-13.65107
24.389651299,-4.770316,-42.7552,5.86037199999999,0.7036091,0.01969015,0.7353887,-27.95383,10.19533,-12.36502
24.399562359,-4.64644,-43.80373,5.86037199999999,0.7045365,0.02309075,0.7344425,-27.95383,10.19533,-12.36502
24.409473896,-5.080007,-44.4445,5.553557,0.7006572,0.02452203,0.7392895,-27.95383,10.19533,-12.36502
24.41938591,-5.327759,-46.07556,6.044461,0.6975954,0.01173575,0.7118636,-27.95383,10.19533,-12.36502
24.42929697,-5.513573,-48.05612,6.84217800000002,0.7113945,0.002207377,0.7111923,-27.95383,10.19533,-12.36502
24.439208984,-5.327759,-49.51242,7.148993,0.6838601,0.02129725,0.7187765,-28.32995,10.5733,-11.52905
24.449120522,-5.141944,-49.51242,6.044461,0.7126902,0.004575672,0.6972716,-28.32995,10.5733,-11.52905
24.459032536,-5.080007,-51.08522,5.553557,0.725324,0.003718111,0.6885061,-28.32995,10.5733,-11.52905
24.468943596,-5.018068,-52.77453,5.492195,0.7382479,0.01251917,0.6716397,-28.32995,10.5733,-11.52905
24.47885561,-4.460626,-53.64831,4.387662,0.748498,0.01605298,0.6739692,-28.32995,10.5733,-11.52905
24.48876667,-4.088998,-53.64831,3.405856,0.7577975,0.01812537,0.6772581,-27.94487,10.20553,-9.85948
24.498678208,-3.283803,-54.11433,3.160404,0.7548859,-0.009704778,0.6468497,-27.94487,10.20553,-9.85948
24.508590222,-2.292794,-55.04636,4.080848,0.72907,-0.01046555,0.6557263,-27.94487,10.20553,-9.85948
24.518501282,-0.744343000000003,-54.81335,2.178597,0.7428971,-0.01656471,0.6617998,-27.94487,10.20553,-9.85948
24.528413296,0.866046300000002,-56.09489,1.871783,0.7319742,-0.01873684,0.6431602,-27.94487,10.20553,-9.85948
24.538324833,2.104807,-56.73566,1.687694,0.7488589,-0.01034907,0.6305758,-28.6904,10.20887,-9.020408
24.548236847,1.918993,-57.7842000000002,2.23996,0.7603199,-0.001076341,0.6146863,-28.6904,10.20887,-9.020408
24.558147907,0.804108299999999,-59.0074900000001,2.730864,0.7670657,0.00188431,0.6084017,-28.6904,10.20887,-9.020408
24.568059921,-0.2488386,-60.05603,3.467218,0.7743683,0.007813296,0.6122149,-28.6904,10.20887,-9.020408
24.577971458,-1.239847,-60.4055400000003,2.792227,0.7775967,0.01995015,0.6074643,-28.6904,10.20887,-9.020408
24.587882519,-2.292794,-60.5802999999999,1.626331,0.789854,0.01134002,0.6005713,-29.44241,10.96506,-7.284217
24.600272655,-4.02706,-61.2793199999999,1.871783,0.7888389,-0.0003988761,0.5832168,-29.44241,10.96506,-7.284217
24.610183716,-5.018068,-61.6288300000002,1.81042,0.7903359,-0.01695024,0.5667673,-29.44241,10.96506,-7.284217
24.62009573,-5.327759,-62.4443600000002,2.117234,0.8010936,-0.02901036,0.5526629,-29.44241,10.96506,-7.284217
24.630007267,-4.150936,-62.7938699999999,2.117234,0.8192078,-0.03511345,0.5476532,-29.44241,10.96506,-7.284217
24.639918804,-2.230856,-65.2987100000002,3.71267,0.8355049,-0.05849044,0.4882872,-30.1898,11.34639,-5.611119
24.649830341,-0.806281,-65.9977300000002,2.730864,0.8000076,0.01067289,0.5409334,-30.1898,11.34639,-5.611119
24.659741402,-1.177909,-63.7258999999997,0.0922585699999997,0.8410216,-0.003965343,0.5178891,-30.1898,11.34639,-5.611119
24.669653416,-1.301785,-65.4734600000002,0.583161800000002,0.8362607,0.01384091,0.503647,-30.1898,11.34639,-5.611119
24.679564953,-1.735352,-65.4734600000002,-0.828185100000001,0.858318,-0.00975788,0.4811985,-30.1898,11.34639,-5.611119
24.689476967,-2.168918,-65.4734600000002,-1.012274,0.8618808,0.003768081,0.4630097,-30.1739,10.60426,-3.874206
24.699388027,-3.036051,-64.3666799999998,-1.99408,0.8628617,0.004757455,0.4644477,-30.1739,10.60426,-3.874206
24.709300041,-3.965122,-64.3084300000002,-1.932717,0.8630838,-0.006834261,0.4725311,-30.1739,10.60426,-3.874206
24.719211578,-3.903184,-64.8909499999997,-1.257725,0.8609948,-0.003513409,0.4634495,-30.1739,10.60426,-3.874206
24.729123592,-3.903184,-64.7744400000002,-1.932717,0.8696337,-0.003975525,0.4470412,-30.1739,10.60426,-3.874206
24.739034653,-4.33675,-64.8327000000001,-2.484983,0.8729066,-0.005474022,0.4306755,-29.80661,11.7367,-1.759542
24.748946667,-5.699387,-65.93948,-2.484983,0.8929461,-0.02181247,0.4106949,-29.80661,11.7367,-1.759542
24.758857727,-7.062024,-66.23074,-2.730435,0.9125078,-0.03083413,0.4003705,-29.80661,11.7367,-1.759542
24.768769264,-8.67241400000003,-67.0462599999998,-1.625903,0.9020299,-0.02765728,0.3836831,-29.80661,11.7367,-1.759542
24.778681278,-9.22985600000001,-67.74529,-2.116806,0.9435697,-0.05446532,0.3499894,-29.80661,11.7367,-1.759542
24.788592339,-9.41567000000003,-67.2792700000003,-0.828185100000001,0.9434571,-0.05452392,0.3389464,-30.16844,11.3707,0.3636312
24.798504353,-8.98210400000001,-66.6384999999999,-1.625903,0.9410092,-0.06333661,0.3283468,-30.16844,11.3707,0.3636312
24.80841589,-8.548538,-66.92976,0.03089567,0.9418917,-0.0594716,0.3235629,-30.16844,11.3707,0.3636312
24.818327904,-6.814272,-65.9977300000002,-0.644096300000003,0.9595206,-0.0621643,0.3229018,-30.16844,11.3707,0.3636312
24.828238964,-4.832254,-66.7549999999997,0.889976299999999,0.9507264,-0.03910447,0.30297,-30.16844,11.3707,0.3636312
24.838150978,-3.71737,-66.9880100000002,-0.214556,0.9255869,-0.0385465,0.2839999,-29.77828,10.6286,2.098598
24.848062515,-3.469617,-67.45403,0.2149844,0.9355846,-0.02294892,0.2758487,-29.77828,10.6286,2.098598
24.857973576,-4.398688,-67.2210200000001,-0.09183015,0.9312453,-0.01858184,0.2869615,-29.77828,10.6286,2.098598
24.86788559,-5.637449,-68.2113000000001,1.626331,0.9599335,-0.0353773,0.2515328,-29.77828,10.6286,2.098598
24.880274773,-6.38070599999998,-69.0850799999998,1.196791,0.9380683,-0.03436592,0.2186108,-29.77828,10.6286,2.098598
24.890186787,-6.62845799999998,-69.1433299999999,0.5217989,0.9491222,-0.04017881,0.1930215,-29.77416,11.01339,4.602985
24.900098324,-6.814272,-69.0268300000001,1.687694,0.9717916,-0.05346347,0.194644,-29.77416,11.01339,4.602985
24.910009861,-7.43365200000003,-70.4248799999998,2.424049,0.9807065,-0.07622097,0.1790448,-29.77416,11.01339,4.602985
24.919921398,-7.37171500000001,-72.63846,6.10582399999999,0.9879559,-0.07861244,0.1679182,-29.77416,11.01339,4.602985
