Time (s),Gyroscope X (deg/s),Gyroscope Y (deg/s),Gyroscope Z (deg/s),Accelerometer X (g),Accelerometer Y (g),Accelerometer Z (g),Magnetometer X (uT),Magnetometer Y (uT),Magnetometer Z (uT)
84.940398216,-0.781594699999999,-0.2904653,0.00845497799999999,0.9853949,0.03139616,0.06466428,-58.28419,-14.34994,5.52178
84.950257301,-0.719478800000001,-0.2904653,-0.114151,0.9965506,0.03000386,0.05634714,-58.28419,-14.34994,5.52178
84.960116863,-0.3467833,-0.2309563,0.0697579799999998,0.9931884,0.02315606,0.05489968,-58.28419,-14.34994,5.52178
84.969975948,-0.2846674,-0.3499742,0.0697579799999998,0.9902503,0.02947618,0.06026608,-58.67395,-12.51647,4.672679
84.97983551,-0.4710151,-0.2309563,0.192364,0.991118,0.03384728,0.05597781,-58.67395,-12.51647,4.672679
84.989694595,-0.4710151,-0.3499742,0.0697579799999998,0.9893018,0.02752311,0.06074231,-58.67395,-12.51647,4.672679
84.99955368,-0.595246899999998,-0.2309563,0.192364,0.9868202,0.02944419,0.05983549,-58.67395,-12.51647,4.672679
85.011877537,-0.2846674,-0.1119384,0.192364,0.9931697,0.02803298,0.0578163,-58.29699,-12.51455,5.118844
85.021737099,-0.2846674,-0.05242953,0.192364,0.9917161,0.02851222,0.05927866,-58.29699,-12.51455,5.118844
85.031596184,-0.2846674,0.0665883399999999,0.253667,0.9931234,0.02753155,0.05397913,-58.29699,-12.51455,5.118844
85.041455746,-0.03620372,0.00707940400000002,0.31497,0.9931667,0.02607925,0.05588305,-58.29699,-12.51455,5.118844
85.051314354,-0.03620372,0.364133,0.253667,0.9921973,0.0275378,0.05782598,-58.29699,-12.51455,5.118844
85.061173439,0.0259122,0.4831509,0.376273,0.9935734,0.02752472,0.05109745,-58.29699,-12.51455,5.118844
85.071032524,0.0259122,0.602168700000001,0.560182,0.9980909,0.02222595,0.05482196,-58.65793,-14.34563,5.523712
85.080892086,0.0259122,0.661677700000001,0.437576,0.9980714,0.02661444,0.05725525,-58.65793,-14.34563,5.523712
85.090751171,0.3986077,0.780695500000001,0.498879,0.9916836,0.02850294,0.05688304,-58.65793,-14.34563,5.523712
85.100610733,0.709187300000001,0.721186599999998,0.621485000000002,0.9942251,0.02318138,0.05919791,-58.65793,-14.34563,5.523712
85.110469818,0.833419100000002,0.780695500000001,0.437576,0.9911512,0.02995094,0.05498606,-58.65793,-14.34563,5.523712
85.120328903,0.709187300000001,0.9592223,0.437576,0.9858087,0.02893786,0.05697044,-58.66269,-13.98283,5.135858
85.130187511,0.771303199999998,0.661677700000001,0.498879,0.989759,0.02800657,0.05882308,-58.66269,-13.98283,5.135858
85.140047073,0.584955500000001,0.5426598,0.621485000000002,0.9888142,0.02849568,0.06171587,-58.66269,-13.98283,5.135858
85.149906158,0.2122599,0.5426598,0.437576,0.9888242,0.02654565,0.06074087,-58.66269,-13.98283,5.135858
85.15976572,0.0880281100000002,0.364133,0.437576,0.9883041,0.02750893,0.05931882,-58.66269,-13.98283,5.135858
85.169624805,-0.0983196299999999,0.364133,0.437576,0.9898314,0.02851543,0.06457674,-58.2862,-13.9818,5.518009
85.179483891,-0.3467833,0.3046241,0.376273,0.9882737,0.02896495,0.05837313,-58.2862,-13.9818,5.518009
85.191807747,-0.0983196299999999,0.364133,0.31497,0.9942316,0.02318324,0.05967702,-58.2862,-13.9818,5.518009
85.201667309,0.0880281100000002,0.4236419,0.682787900000001,0.9912429,0.02607131,0.0583064,-58.2862,-13.9818,5.518009
85.211526394,0.150144,0.1856062,0.376273,0.9912075,0.02850235,0.05784822,-58.29699,-12.51455,5.118844
85.221385956,0.0880281100000002,0.2451152,0.31497,0.9902439,0.02947432,0.05978695,-58.29699,-12.51455,5.118844
85.231245041,0.0880281100000002,0.0665883399999999,0.131061,0.9917992,0.02316543,0.06066994,-58.29699,-12.51455,5.118844
85.241103649,0.3986077,0.2451152,0.192364,0.9897562,0.02605283,0.05688983,-58.29699,-12.51455,5.118844
85.250962734,0.150144,0.1856062,0.192364,0.990803,0.02412812,0.06021307,-58.29699,-12.51455,5.118844
85.260822296,-0.03620372,0.1260973,0.192364,0.9937109,0.02805215,0.06164233,-58.29096,-13.61899,5.130156
85.270681381,0.0259122,0.1260973,0.192364,0.9897786,0.02801214,0.06026044,-58.29096,-13.61899,5.130156
85.280540943,-0.0983196299999999,0.4236419,0.131061,0.9903371,0.02657156,0.06407393,-58.29096,-13.61899,5.130156
85.290400028,-0.1604356,0.2451152,0.31497,0.9888148,0.02459005,0.0583285,-58.29096,-13.61899,5.130156
85.300259113,-0.2846674,0.2451152,0.131061,0.9902474,0.02752244,0.05833283,-58.29096,-13.61899,5.130156
85.310118675,-0.3467833,0.2451152,0.00845497799999999,0.9883004,0.0206727,0.05303158,-58.29096,-13.61899,5.130156
85.31997776,-0.1604356,-0.05242953,0.00845497799999999,0.9892873,0.02654253,0.05881745,-58.28419,-14.34994,5.52178
85.329836369,-0.1604356,0.2451152,0.0697579799999998,0.9911895,0.02947365,0.05737747,-58.28419,-14.34994,5.52178
85.339695931,-0.2225515,-0.05242953,-0.114151,0.9849201,0.02358432,0.05885473,-58.28419,-14.34994,5.52178
85.349555016,-0.03620372,-0.1119384,-0.05284801,0.9883084,0.02604548,0.058348,-58.28419,-14.34994,5.52178
85.359414101,-0.03620372,-0.1714474,0.0697579799999998,0.9927369,0.02658009,0.0606854,-58.28419,-14.34994,5.52178
85.371737957,-0.2225515,-0.05242953,0.00845497799999999,0.9932637,0.02561866,0.06258657,-58.29301,-12.13482,5.947253
85.381597519,0.150144,-0.05242953,0.00845497799999999,0.9902858,0.02265108,0.05685358,-58.29301,-12.13482,5.947253
85.391456604,0.2122599,-0.1119384,0.00845497799999999,0.9942887,0.01782902,0.05915183,-58.29301,-12.13482,5.947253
85.401316166,0.3364918,0.1856062,0.00845497799999999,0.9937701,0.01976917,0.05869639,-58.29301,-12.13482,5.947253
85.411175251,0.4607236,0.1856062,-0.114151,0.9917516,0.02608119,0.05973683,-58.2862,-13.9818,5.518009
85.421034336,0.0880281100000002,-0.1119384,0.00845497799999999,0.9942338,0.02464854,0.06112696,-58.2862,-13.9818,5.518009
85.430893898,-0.03620372,0.00707940400000002,0.00845497799999999,0.9892223,0.03091802,0.0578969,-58.2862,-13.9818,5.518009
85.440752506,-0.4088992,0.1260973,-0.114151,0.9922574,0.02853138,0.0631047,-58.2862,-13.9818,5.518009
85.450611591,-0.595246899999998,0.0665883399999999,-0.114151,0.9937152,0.0265887,0.06067153,-58.2862,-13.9818,5.518009
85.460471153,-0.4710151,0.0665883399999999,0.00845497799999999,0.9996333,0.0203074,0.05861737,-57.91724,-13.62331,5.128224
85.470330238,-0.4710151,0.1260973,-0.29806,0.996701,0.02174688,0.06010891,-57.91724,-13.62331,5.128224
85.480189324,-0.595246899999998,0.364133,-0.175454,0.9937238,0.0236618,0.05872991,-57.91724,-13.62331,5.128224
85.490048885,-0.595246899999998,0.364133,-0.236757,0.9941716,0.02658372,0.05826898,-57.91724,-13.62331,5.128224
85.499907971,-0.4088992,0.4831509,-0.236757,0.990782,0.02314568,0.05780908,-57.91724,-13.62331,5.128224
85.509767532,-0.2225515,0.4236419,-0.359363,0.9858361,0.0255281,0.05598288,-58.65993,-13.97748,5.519941
85.519626618,-0.03620372,0.661677700000001,-0.236757,0.9877462,0.02943794,0.05598865,-58.65993,-13.97748,5.519941
85.529485226,-0.0983196299999999,0.602168700000001,-0.175454,0.9863796,0.02701256,0.06125886,-58.65993,-13.97748,5.519941
85.541809559,-0.0983196299999999,0.899713400000003,-0.420666,0.9955471,0.03047626,0.05492784,-58.65993,-13.97748,5.519941
85.551668167,-0.0983196299999999,0.9592223,-0.175454,0.9942554,0.0173313,0.0562729,-58.65993,-13.97748,5.519941
85.561527729,0.2743759,0.899713400000003,0.00845497799999999,0.9902965,0.02118949,0.05636189,-58.66797,-12.50489,5.504858
85.571386814,0.709187300000001,0.899713400000003,0.00845497799999999,0.991321,0.02169953,0.06018519,-58.66797,-12.50489,5.504858
85.581246376,0.647071399999998,0.8402045,-0.114151,0.9888242,0.02654565,0.06074087,-58.66797,-12.50489,5.504858
85.591105461,0.709187300000001,0.8402045,0.192364,0.9898183,0.02411766,0.05974781,-58.66797,-12.50489,5.504858
85.600964546,1.019767,0.721186599999998,0.00845497799999999,0.9922949,0.02317159,0.06114214,-58.66797,-12.50489,5.504858
85.610824108,0.957650999999999,0.5426598,0.192364,0.9928064,0.0251352,0.06450582,-58.28419,-14.34994,5.52178
85.620683193,0.771303199999998,0.4831509,0.376273,0.9937688,0.02758042,0.06547113,-58.28419,-14.34994,5.52178
85.630541801,0.957650999999999,0.2451152,0.0697579799999998,0.9878858,0.02264256,0.06024211,-58.28419,-14.34994,5.52178
85.640401363,0.709187300000001,-0.05242953,0.0697579799999998,0.9878931,0.02752691,0.06507522,-58.28419,-14.34994,5.52178
85.650260448,0.584955500000001,-0.2309563,0.131061,0.9898611,0.02657097,0.0650391,-58.28419,-14.34994,5.52178
85.660119533,0.150144,-0.4094831,0.192364,0.9873918,0.03240138,0.0684779,-58.29096,-13.61899,5.130156
85.669979095,-0.03620372,-0.826045699999999,0.192364,0.9869099,0.02849331,0.06557659,-58.29096,-13.61899,5.130156
85.67983818,-0.03620372,-0.945063499999998,0.0697579799999998,0.9869546,0.01922976,0.06070578,-58.29096,-13.61899,5.130156
85.689697742,0.4607236,-1.12359,0.0697579799999998,0.9893727,0.02266104,0.06165867,-58.29096,-13.61899,5.130156
85.699556827,0.3986077,-1.361626,-0.05284801,0.9869149,0.02312424,0.06121841,-58.29096,-13.61899,5.130156
85.711880684,0.3364918,-1.480644,-0.114151,0.9913204,0.02560516,0.06357256,-59.03563,-14.72104,4.697234
85.721739769,0.4607236,-1.659171,-0.175454,0.9917501,0.02949837,0.06264088,-59.03563,-14.72104,4.697234
85.731599331,0.150144,-1.71868,-0.114151,0.9912574,0.02705189,0.06023126,-59.03563,-14.72104,4.697234
85.741458416,-0.0983196299999999,-1.659171,-0.236757,0.9917306,0.0294928,0.06120352,-59.03563,-14.72104,4.697234
85.751317024,-0.3467833,-1.421135,-0.29806,0.991779,0.02706548,0.06261994,-59.03563,-14.72104,4.697234
85.761176586,-0.3467833,-1.540153,-0.114151,0.9902987,0.0226548,0.05781183,-58.2862,-13.9818,5.518009
85.771035671,-0.1604356,-1.480644,-0.236757,0.9918289,0.02122097,0.06113231,-58.2862,-13.9818,5.518009
85.780894756,-0.1604356,-1.540153,-0.236757,0.9976336,0.02174249,0.05674119,-58.2862,-13.9818,5.518009
85.790754318,-0.1604356,-1.064081,-0.359363,0.9936573,0.02266636,0.05297206,-58.2862,-13.9818,5.518009
85.800613403,-0.2846674,-1.12359,-0.29806,0.9950421,0.0285145,0.05204328,-58.2862,-13.9818,5.518009
85.810472965,-0.4710151,-0.588010000000002,-0.05284801,0.9966106,0.02220932,0.05388451,-58.66269,-13.98283,5.135858
85.82033205,-0.2225515,-0.528501,0.0697579799999998,0.9961345,0.02220873,0.05484969,-58.66269,-13.98283,5.135858
85.830190659,0.0259122,-0.2904653,-0.175454,0.9911821,0.02458929,0.05254437,-58.66269,-13.98283,5.135858
85.840049744,0.4607236,-0.05242953,0.00845497799999999,0.989759,0.02800657,0.05882308,-58.66269,-13.98283,5.135858
85.849909306,0.2743759,0.1260973,-0.114151,0.9955868,0.02658178,0.0544152,-58.66269,-13.98283,5.135858
85.859768391,0.4607236,0.3046241,0.0697579799999998,0.9867616,0.02942748,0.0555234,-58.28821,-13.61365,5.514239
85.869627953,0.5228395,0.3046241,0.131061,0.9951289,0.02560989,0.05585112,-58.28821,-13.61365,5.514239
85.879487038,0.2743759,0.3046241,0.00845497799999999,0.9887317,0.02993685,0.05693721,-58.28821,-13.61365,5.514239
85.891810894,0.150144,0.3046241,0.0697579799999998,0.9946014,0.02608288,0.05346663,-58.28821,-13.61365,5.514239
85.901669979,-0.2225515,0.4236419,0.0697579799999998,0.9877853,0.02505502,0.05499271,-58.28821,-13.61365,5.514239
85.911529541,-0.3467833,0.364133,0.131061,0.9917197,0.02656034,0.05782453,-59.03567,-13.60502,5.518102
85.921388626,-0.657362800000001,0.4236419,0.0697579799999998,0.9897981,0.02362365,0.05782714,-59.03567,-13.60502,5.518102
85.931248188,-0.905826499999999,0.364133,0.0697579799999998,0.9932253,0.02609596,0.06019515,-59.03567,-13.60502,5.518102
85.941107273,-0.905826499999999,0.4831509,0.31497,0.9897793,0.02850057,0.06074376,-59.03567,-13.60502,5.518102
85.950965881,-0.719478800000001,0.364133,0.192364,0.990811,0.02510685,0.06165881,-59.03567,-13.60502,5.518102
85.960824966,-0.4088992,-0.1119384,0.376273,0.9878229,0.0240893,0.05690082,-58.2862,-13.9818,5.518009
85.970684528,-0.3467833,0.2451152,0.253667,0.9917624,0.02461959,0.05924515,-58.2862,-13.9818,5.518009
85.980543613,-0.4088992,0.4236419,0.376273,0.9903494,0.02608684,0.06454886,-58.2862,-13.9818,5.518009
85.990403175,-0.843710600000002,0.1856062,-0.05284801,0.9887296,0.0328656,0.05935796,-58.2862,-13.9818,5.518009
86.00026226,-1.278522,-0.05242953,-0.05284801,0.9907162,0.02703274,0.05640522,-58.2862,-13.9818,5.518009
86.010121346,-1.15429,-0.1119384,0.0697579799999998,0.9908023,0.02363969,0.05972975,-58.65993,-13.97748,5.519941
86.019980907,-1.278522,-0.05242953,0.0697579799999998,0.9893206,0.02264619,0.0578257,-58.65993,-13.97748,5.519941
86.029839993,-1.092174,-0.3499742,0.00845497799999999,0.9897923,0.02411023,0.05783133,-58.65993,-13.97748,5.519941
86.039698601,-0.657362800000001,-0.4689921,-0.05284801,0.9937253,0.02463867,0.05969653,-58.65993,-13.97748,5.519941
86.049558163,-0.657362800000001,-0.4094831,0.0697579799999998,0.9942049,0.02268737,0.05727722,-58.65993,-13.97748,5.519941
86.059417248,-0.4710151,-0.1714474,0.00845497799999999,0.9927825,0.02219902,0.06016857,-57.91047,-14.35426,5.519848
86.071741104,-0.843710600000002,-0.3499742,0.0697579799999998,0.9951304,0.02658676,0.05681774,-57.91047,-14.35426,5.519848
86.081600189,-0.843710600000002,-0.2904653,0.0697579799999998,0.9907675,0.0221651,0.05588421,-57.91047,-14.35426,5.519848
86.091459751,-0.595079399999997,-0.2309025,0.0697553199999999,0.9917797,0.0187658,0.0553619,-57.91047,-14.35426,5.519848
86.101318836,-0.2217926,-0.1115946,0.0695136999999999,0.9888249,0.01824597,0.05348283,-57.91047,-14.35426,5.519848
86.111178398,-0.0974187599999999,-0.1709447,0.2532584,0.9893588,0.01777484,0.05634644,-59.04445,-12.50592,5.122707
86.121037483,0.2130686,-0.2302202,-0.05351695,0.9951369,0.02658861,0.05729686,-59.04445,-12.50592,5.122707
86.130896568,0.150568,-0.2298563,0.0690599900000001,0.9931567,0.02802927,0.05685805,-59.04445,-12.50592,5.122707
86.14075613,-0.2842374,-0.1701334,-0.05359425,0.9908406,0.02316239,0.06212118,-59.04445,-12.50592,5.122707
86.150614738,-0.3459768,-0.1699571,-0.1148492,0.9927332,0.01974385,0.05439816,-59.04445,-12.50592,5.122707
86.160473824,-0.2834654,-0.2886493,0.00782407099999998,0.9889182,0.01973727,0.06164047,-58.28419,-14.34994,5.52178
86.170333386,-0.0968786299999998,-0.3477583,-0.1147532,0.9943025,0.01832117,0.06059339,-58.28419,-14.34994,5.52178
86.180192471,-0.2209693,-0.2285092,-0.2371188,0.9955795,0.02609148,0.05345277,-58.28419,-14.34994,5.52178
86.190051556,-0.2206917,-0.4065621,-0.236898,0.9882093,0.02943482,0.05406523,-58.28419,-14.34994,5.52178
86.199911118,-0.530916,-0.525144,-0.1753745,0.9893437,0.02069987,0.05780894,-58.28419,-14.34994,5.52178
86.209770203,-0.592501599999998,-0.4649942,-0.2365535,0.9956584,0.0266022,0.05968554,-57.91724,-13.62331,5.128224
86.219629765,-0.7161258,-0.642862099999998,-0.3589201,0.9887505,0.02505992,0.05402059,-57.91724,-13.62331,5.128224
86.22948885,-0.3428625,-0.701563600000001,-0.2359018,0.9936855,0.0241391,0.05633848,-57.91724,-13.62331,5.128224
86.241812706,-0.590553800000001,-0.4623892,-0.4192865,0.9923369,0.02513647,0.0659501,-57.91724,-13.62331,5.128224
86.251671791,-1.21062,-0.5213173,-0.3576109,0.9902763,0.02508955,0.05831189,-57.91724,-13.62331,5.128224
86.261530399,-1.457368,-0.4017754,-0.4797292,0.9898313,0.02412137,0.06070606,-58.29624,-12.14106,5.499156
86.271389961,-1.269326,-0.2228001,-0.4792421,0.990769,0.02753603,0.06072151,-58.29624,-12.14106,5.499156
86.281249046,-1.143598,-0.5200088,-0.3561304,0.9882042,0.02162172,0.04681137,-58.29624,-12.14106,5.499156
86.291108608,-1.017968,-0.697807699999998,-0.3557024,0.9910925,0.02554017,0.04680327,-58.29624,-12.14106,5.499156
86.300967693,-0.954573999999997,-0.696968600000003,-0.2326303,0.995173,0.02464601,0.05823835,-58.29624,-12.14106,5.499156
86.310826778,-1.01551,-0.696037099999999,-0.2936219,0.9966063,0.02806683,0.058726,-58.2862,-13.9818,5.518009
86.32068634,-0.890120100000001,-0.576350599999998,-0.2932916,0.989262,0.02262948,0.05351359,-58.2862,-13.9818,5.518009
86.330545425,-0.8268471,-0.635079600000001,-0.3542647,0.99264,0.02264661,0.05011119,-58.2862,-13.9818,5.518009
86.340404987,-0.639499799999998,-0.574847600000003,-0.170084,0.9912227,0.02557731,0.05638572,-58.2862,-13.9818,5.518009
86.350264072,-0.4524269,-0.633858900000001,-0.1086445,0.9936579,0.01876074,0.04958469,-58.2862,-13.9818,5.518009
86.360122681,-0.07945574,-0.3952138,-0.1697917,0.993629,0.02119363,0.04960564,-58.2862,-13.9818,5.518009
86.369981766,0.4172787,-0.2757743,-0.04710723,0.9901866,0.02604042,0.0525708,-58.2862,-13.9818,5.518009
86.379841328,0.5408889,-0.1564661,0.01408166,0.9916481,0.02653991,0.05255419,-58.2862,-13.9818,5.518009
86.389700413,0.602227900000002,-0.156363,0.0753669699999999,0.9881883,0.02845239,0.05166124,-58.2862,-13.9818,5.518009
86.399559975,0.601530000000001,0.0816634899999998,0.0751952900000002,0.9935691,0.02898816,0.05206827,-58.2862,-13.9818,5.518009
86.40941906,0.600871899999999,0.2599756,0.01374008,0.99169,0.02411074,0.05349148,-58.65993,-13.97748,5.519941
86.421742916,0.724141000000002,0.675924400000002,0.197435,0.9976241,0.01978689,0.05432882,-58.65993,-13.97748,5.519941
86.431602001,1.157965,0.5561136,0.5036635,0.9897843,0.0231315,0.05638558,-58.65993,-13.97748,5.519941
86.441461563,1.156549,0.614886600000002,0.3805789,0.9887382,0.02554464,0.05354566,-58.65993,-13.97748,5.519941
86.451320648,1.217193,0.6139835,0.3801394,0.9950717,0.02657005,0.05250565,-58.65993,-13.97748,5.519941
86.46118021,1.029492,0.732136700000002,0.5022679,0.992148,0.02508263,0.05205556,-58.28896,-13.98714,5.133926
86.471038818,0.841870800000001,0.731217099999998,0.317882,0.9907719,0.02509571,0.05878408,-58.28896,-13.98714,5.133926
86.480897904,0.778736499999999,0.611393000000001,0.3175598,0.9893119,0.02557309,0.05976731,-58.28896,-13.98714,5.133926
86.490756989,0.839874400000002,0.5512282,0.4397862,0.9908051,0.02119937,0.05779232,-58.28896,-13.98714,5.133926
86.500616551,0.714685099999999,0.4911017,0.2555173,0.9893633,0.02070544,0.05924631,-58.28896,-13.98714,5.133926
86.510475636,0.838019299999999,0.4309946,0.2552156,0.9873222,0.02066409,0.05304545,-58.2862,-13.9818,5.518009
86.520335198,0.712851900000002,0.3709069,0.1322313,0.9937072,0.02560997,0.05922578,-58.2862,-13.9818,5.518009
86.530194283,0.650055199999998,0.4894029,0.132046,0.990225,0.02556313,0.05496223,-58.2862,-13.9818,5.518009
86.540053368,0.2768749,0.3698451,0.0706156099999998,0.9879278,0.02460744,0.06505008,-58.2862,-13.9818,5.518009
86.54991293,0.2765856,0.309965,0.1317722,0.9897988,0.02411208,0.05831045,-58.2862,-13.9818,5.518009
86.559771538,-0.03418529,0.2501229,0.0703614200000001,0.9898813,0.02267092,0.0630891,-58.2862,-13.9818,5.518009
86.569630623,-0.03416187,0.1308469,0.1928213,0.989275,0.02263319,0.05447184,-58.2862,-13.9818,5.518009
86.579490185,0.02795795,0.309172,0.0700501,0.9897836,0.02264307,0.05590227,-58.2862,-13.9818,5.518009
86.591814041,-0.0962787400000003,0.2493833,0.1312624,0.9888127,0.02312475,0.05687857,-58.2862,-13.9818,5.518009
86.601673126,-0.1581567,0.1301269,0.1311745,0.992224,0.0236396,0.05635509,-58.2862,-13.9818,5.518009
86.611532211,-0.2820338,0.1300382,0.0697838099999998,0.9907386,0.02459799,0.05590516,-57.91248,-13.98611,5.516078
86.621391773,-0.5921615,0.1298749,0.2535666,0.9907762,0.02363226,0.05781327,-57.91248,-13.98611,5.516078
86.631250858,-0.777570399999999,0.1892768,0.1920799,0.9892967,0.01971001,0.05348846,-57.91248,-13.98611,5.516078
86.64111042,-0.590324,-0.0488285,0.00812223599999999,0.9912921,0.01973837,0.05633545,-57.91248,-13.98611,5.516078
86.650969505,-0.279081,0.010667,0.00797726200000001,0.9922963,0.0197544,0.05823807,-57.91248,-13.98611,5.516078
86.66082859,-0.2165951,0.1295406,0.2530252,0.991711,0.02069911,0.0520248,-58.29096,-13.61899,5.130156
86.670688152,0.1562554,0.06988768,0.06883691,0.9936919,0.01535283,0.04907625,-58.29096,-13.61899,5.130156
86.68054676,0.03186631,0.3078543,0.2525824,0.9869033,0.01970334,0.0573561,-58.29096,-13.61899,5.130156
86.690405846,0.1559996,0.1291277,0.06849095,0.9883264,0.02507418,0.05881875,-58.29096,-13.61899,5.130156
86.700265407,0.03172789,0.0695126900000002,0.1296887,0.9907401,0.02557486,0.05687178,-58.29096,-13.61899,5.130156
86.710124493,-0.0923291899999998,-0.04961118,0.0682805699999997,0.9907286,0.02654802,0.05688015,-59.04169,-12.50057,5.50679
86.719983578,-0.5267125,0.1884495,0.0682718199999997,0.9916886,0.02752792,0.05639554,-59.04169,-12.50057,5.50679
86.72984314,-0.5259728,0.1288907,0.1907536,0.9888619,0.02557992,0.06264898,-59.04169,-12.50057,5.50679
86.739702225,-0.4010219,-0.10912,-0.05454397,0.9903038,0.02167978,0.05732432,-59.04169,-12.50057,5.50679
86.749561787,-0.2143265,0.00990409799999998,-0.05449472,0.9921604,0.02899196,0.05640117,-59.04169,-12.50057,5.50679
86.759420872,-0.1519023,0.00992903499999999,0.006799705,0.9926835,0.02998242,0.05975647,-57.90724,-14.34802,5.967945
86.771744728,-0.2756227,0.1288379,-0.05449469,0.989395,0.01583223,0.05728792,-57.90724,-14.34802,5.967945
86.781603813,0.0971458800000001,-0.1687751,0.00678046800000001,0.986862,0.01822689,0.05303144,-57.90724,-14.34802,5.967945
86.791463375,0.4695633,0.0693604200000003,0.0679787,0.993239,0.02219404,0.05776603,-57.90724,-14.34802,5.967945
86.801321983,0.468993,-0.04978195,-0.05471267,0.9892765,0.02800412,0.05930914,-57.90724,-14.34802,5.967945
86.811181068,0.1580195,0.06926107,0.00660129600000002,0.9906902,0.02702531,0.05448873,-58.65671,-13.97124,5.968038
86.82104063,-0.0904866199999999,0.1286083,-0.177316,0.9930836,0.02703198,0.05062108,-58.65671,-13.97124,5.968038
86.830899715,0.03383935,0.2473525,-0.05460279,0.9911611,0.0192128,0.04626969,-58.65671,-13.97124,5.968038
86.8407588,0.1579701,0.1281921,0.1294133,0.9932845,0.01341892,0.05337853,-58.65671,-13.97124,5.968038
86.850618362,0.3439634,0.1874092,0.1905922,0.9869335,0.009459199,0.05056043,-58.65671,-13.97124,5.968038
86.860477447,1.399014,0.1277396,0.2516558,0.989725,0.02262636,0.05159017,-58.2862,-13.9818,5.518009
86.870337009,1.273103,0.1275605,0.374042,0.9908731,0.01877761,0.06064611,-58.2862,-13.9818,5.518009
86.880196094,1.209427,0.781718100000001,0.2511009,0.9952142,0.02612246,0.06256302,-58.2862,-13.9818,5.518009
86.890054703,0.959561599999999,1.31598,0.3732567,0.9932079,0.02316163,0.05633704,-58.2862,-13.9818,5.518009
86.899913788,0.958414799999997,0.779102000000002,0.3727109,0.9902691,0.02459925,0.05734945,-58.2862,-13.9818,5.518009
86.90977335,1.329789,0.5401064,0.678488099999998,0.9892894,0.01921972,0.05252603,-58.66395,-13.24118,5.5124
86.919632435,1.700678,0.4204102,0.738977399999998,0.9951527,0.01975795,0.052447,-58.66395,-13.24118,5.5124
86.929491997,1.698601,0.598221999999999,0.554275,0.9912965,0.02266898,0.05923532,-58.66395,-13.24118,5.5124
86.941815853,1.385315,0.4783024,0.6757029,0.9896824,0.03335522,0.05791092,-58.66395,-13.24118,5.5124
86.951674938,0.948959200000002,0.06140083,0.613570500000002,0.9878865,0.02313099,0.06072542,-58.66395,-13.24118,5.5124
86.961534023,0.3269787,-0.05782498,0.6741412,0.9912083,0.02899078,0.05833153,-58.65993,-13.97748,5.519941
86.971393585,-0.04591285,-0.2363539,0.61203,0.9868729,0.02555342,0.06028111,-58.65993,-13.97748,5.519941
86.98125267,-0.1079516,-0.4144904,0.550016,0.9907091,0.0309365,0.05931347,-58.65993,-13.97748,5.519941
86.991112232,-0.2319698,-0.4139511,0.610570400000001,0.9893184,0.02557494,0.06024644,-58.65993,-13.97748,5.519941
87.000971317,-0.4178311,-0.591808399999999,0.487159,0.9908051,0.02119937,0.05779232,-58.65993,-13.97748,5.519941
87.010829926,-0.1067852,-0.82897,0.3638448,0.9898103,0.01874487,0.05443139,-58.66675,-12.13051,5.949184
87.020689011,-0.2306098,-0.708948299999999,0.5471812,0.9893307,0.02069616,0.05685069,-58.66675,-12.13051,5.949184
87.030548573,-0.4164142,-0.886435100000001,0.3014553,0.9894587,0.01926799,0.0649832,-58.66675,-12.13051,5.949184
87.040407658,-0.540006,-1.123339,0.3010381,0.9889168,0.0187604,0.06067385,-58.66675,-12.13051,5.949184
87.05026722,-0.5394253,-1.062494,0.2393763,0.9937832,0.02416695,0.06352532,-58.66675,-12.13051,5.949184
87.060126305,-0.4145159,-1.120631,0.2390371,0.994571,0.02314484,0.04865029,-58.28498,-13.60741,5.962336
87.06998539,0.02060156,-1.238222,0.3612658,0.9927651,0.0192647,0.05631046,-58.28498,-13.60741,5.962336
87.079844952,0.5173274,-1.117686,0.2381868,0.9902474,0.01873432,0.05059148,-58.28498,-13.60741,5.962336
87.089704037,1.199582,-1.354262,0.4829263,0.9917522,0.02217556,0.05634946,-58.28498,-13.60741,5.962336
87.099563599,1.632672,-1.174221,0.604829400000001,0.9912602,0.02021752,0.05442316,-58.28498,-13.60741,5.962336
87.111887455,2.312936,-1.053342,0.5427309,0.990787,0.01777661,0.0534509,-58.65993,-13.97748,5.519941
87.12174654,3.179263,-1.230508,0.725765699999999,0.989358,0.01289234,0.05199245,-58.65993,-13.97748,5.519941
87.131605148,3.547751,-1.288471,0.908647399999999,0.9882476,0.02456347,0.05258597,-58.65993,-13.97748,5.519941
87.141464233,3.481296,-1.405759,0.907563900000002,0.9979869,0.03537842,0.05876803,-58.65993,-13.97748,5.519941
87.151323795,3.352711,-0.987635900000002,0.783818100000002,0.993614,0.03290679,0.05880949,-58.65993,-13.97748,5.519941
87.16118288,2.97594,-0.986245899999997,0.966588499999999,0.9920744,0.03238501,0.05307664,-58.66474,-12.49865,5.952955
87.171042442,2.661877,-0.5685381,1.149072,0.999326,0.03242544,0.04674403,-58.66474,-12.49865,5.952955
87.180901527,2.534438,-0.5081095,1.270157,0.9955137,0.02558448,0.04817823,-58.66474,-12.49865,5.952955
87.190760613,2.531313,-0.2695476,1.574961,0.998868,0.02705949,0.04430927,-58.66474,-12.49865,5.952955
87.200620174,2.590289,0.0875828300000003,1.572945,0.9921855,0.01532878,0.04622231,-58.66474,-12.49865,5.952955
87.21047926,2.46292,0.3254712,1.509762,0.9975287,0.02122435,0.04859192,-58.65549,-13.59686,6.412364
87.220338821,2.087307,0.860343800000001,1.569111,1.008329,0.02230706,0.05228072,-58.65549,-13.59686,6.412364
87.23019743,1.339645,1.156528,1.689785,0.9969861,0.02022832,0.04379925,-58.65549,-13.59686,6.412364
87.240056515,0.7170376,1.392961,1.810288,0.9932086,0.01925601,0.05294967,-58.65549,-13.59686,6.412364
87.2499156,0.3436561,1.212815,1.930658,0.9908782,0.0178026,0.06015861,-58.65549,-13.59686,6.412364
87.259775162,-0.2775445,1.449253,1.74444,0.9923086,0.01926968,0.05871301,-58.29624,-12.14106,5.499156
87.269634247,-0.5255815,1.031057,2.048629,0.9859113,0.01920258,0.05592842,-58.29624,-12.14106,5.499156
87.279493809,-0.773287500000003,0.791857100000001,2.168662,0.9922992,0.02170814,0.06017132,-58.29624,-12.14106,5.499156
87.291817665,-1.206573,0.3741636,2.042825,0.9850134,0.0162875,0.05927102,-58.29624,-12.14106,5.499156
87.30167675,-1.515461,0.1357701,2.101562,0.9870544,0.01632886,0.06547187,-58.29624,-12.14106,5.499156
87.311535835,-1.699906,-0.1023614,2.037677,0.9875456,0.01340441,0.06304418,-58.67198,-11.76859,5.497317
87.321395397,-1.325212,-0.5187019,2.035175,0.9904462,0.01244408,0.05964034,-58.67198,-11.76859,5.497317
87.331254482,-1.44772,-0.815501600000001,1.971354,0.9895142,0.008542842,0.0596207,-58.67198,-11.76859,5.497317
87.341113091,-1.383942,-1.230778,1.785008,0.9876013,0.01146738,0.06542304,-58.67198,-11.76859,5.497317
87.350972653,-1.320049,-1.645589,2.027939,0.9850865,0.0172848,0.06550799,-58.67198,-11.76859,5.497317
87.360831738,-1.815104,-2.238275,1.780411,0.9890043,0.02073827,0.06883568,-57.91528,-12.87543,5.952863
87.370690823,-2.247499,-2.830254,1.594401,0.9894826,0.01781011,0.06544976,-57.91528,-12.87543,5.952863
87.380550385,-3.300119,-3.421508,1.776134,0.988565,0.01488946,0.06735499,-57.91528,-12.87543,5.952863
87.39040947,-3.730591,-4.131074,1.590129,0.9885144,0.01585148,0.06448863,-57.91528,-12.87543,5.952863
87.400269032,-4.658581,-5.25759,1.833785,0.9924374,0.022724,0.07119951,-57.91528,-12.87543,5.952863
87.410128117,-5.403972,-5.674153,1.895088,0.9878562,0.02898107,0.06365041,-58.65952,-12.86056,6.404822
87.419987202,-5.838783,-6.15022499999999,1.956391,0.9962488,0.02028841,0.06154064,-58.65952,-12.86056,6.404822
87.429846764,-6.08724699999999,-6.804823,2.017694,0.9978106,0.009587318,0.05903208,-58.65952,-12.86056,6.404822
87.439705372,-5.90089900000001,-6.98335,2.1403,0.999657,0.01006141,0.05134258,-58.65952,-12.86056,6.404822
87.449564457,-5.466087,-7.39991200000002,2.508117,0.9933032,0.008542,0.05046191,-58.65952,-12.86056,6.404822
87.459424019,-4.96916,-7.75696599999997,2.630723,0.9918677,0.003655876,0.04852434,-58.289,-12.87112,5.954794
87.471747875,-4.348001,-8.05450999999997,2.937238,0.9848078,0.01378777,0.04200166,-58.289,-12.87112,5.954794
87.48160696,-2.981451,-8.23303699999998,3.243753,0.99285,-0.006587081,0.03979829,-58.289,-12.87112,5.954794
87.491466045,-0.993741299999998,-8.64960000000003,3.366359,0.9869224,-0.002261386,0.03944008,-58.289,-12.87112,5.954794
87.501325607,0.993968100000003,-9.30419799999998,3.427662,0.9900435,-0.01243514,0.04410173,-58.65952,-12.86056,6.404822
87.511184693,2.48475,-10.07781,3.488966,0.9917194,0.004590041,0.03847114,-58.65952,-12.86056,6.404822
87.521044254,2.48475,-10.0183,3.243753,0.9953369,0.003699005,0.05182965,-58.65952,-12.86056,6.404822
87.53090334,2.17417,-10.31585,2.937238,0.9878175,0.003094014,0.03803492,-58.65952,-12.86056,6.404822
87.540762425,1.987823,-10.61339,3.182451,0.9913431,-0.002705511,0.04033173,-58.65952,-12.86056,6.404822
87.550621987,1.615127,-10.61339,3.121147,0.9946322,0.003144993,0.03554223,-58.65952,-12.86056,6.404822
87.560481071,0.807620300000002,-10.6729,3.182451,0.9974062,0.008983765,0.02884318,-59.03249,-12.48275,6.787066
87.57033968,0.248577,-10.91094,2.998541,0.9876423,-0.0008617421,0.02171126,-59.03249,-12.48275,6.787066
87.580199242,0.248577,-11.3275,2.875936,0.9867409,0.00256912,0.03037865,-59.03249,-12.48275,6.787066
87.590058327,-0.06200255,-11.26799,2.75333,0.9900916,0.005996015,0.02796382,-59.03249,-12.48275,6.787066
87.599917412,0.000113368,-11.14898,2.324208,0.987617,-0.004774793,0.0164074,-59.03249,-12.48275,6.787066
87.609776974,0.1864611,-11.3275,2.630723,0.9872293,-0.00230907,0.02601773,-58.65679,-11.73919,7.609773
87.619636059,-0.06200255,-11.56554,2.508117,0.9944168,0.01577746,0.03085992,-58.65679,-11.73919,7.609773
87.629495621,-1.428553,-11.3275,2.508117,0.9957648,0.01868571,0.02463566,-58.65679,-11.73919,7.609773
87.641819477,-3.043566,-11.20848,2.385511,0.988929,0.01325823,0.02085368,-58.65679,-11.73919,7.609773
87.651678562,-3.913189,-11.26799,2.324208,0.992731,0.0132611,0.01265313,-59.0153,-12.8215,8.903293
87.661537647,-4.720696,-11.38701,2.385511,0.9899734,-0.01210208,0.003373591,-59.0153,-12.8215,8.903293
87.671397209,-4.410117,-11.3275,2.324208,0.9926683,-0.01933281,0.01525415,-59.0153,-12.8215,8.903293
87.681256294,-3.913189,-10.31585,2.078996,1.005188,-0.03281226,0.02454594,-59.0153,-12.8215,8.903293
87.691114902,-2.981451,-10.13732,1.588573,1.014134,-0.02439425,0.04221986,-59.0153,-12.8215,8.903293
87.700974464,-2.484523,-5.674153,1.036846,1.03621,-0.01392856,0.05589033,-58.26984,-12.46199,8.895658
87.710833549,-6.45994200000003,-4.305448,0.5464218,0.989548,-0.05589346,0.005406079,-58.26984,-12.46199,8.895658
87.720692635,-4.285885,-10.13732,2.508117,0.9204699,-0.05791553,-0.1110303,-58.26984,-12.46199,8.895658
87.730552196,-2.111828,-17.21889,1.220755,0.9748655,-0.07994848,-0.01615164,-58.26984,-12.46199,8.895658
87.740411282,-0.1862344,-17.21889,1.711179,1.010557,-0.04462045,-0.02259179,-58.26984,-12.46199,8.895658
87.750270843,-1.242205,-19.59925,1.098149,0.9697708,-0.0689556,-0.05719741,-58.27064,-11.71945,9.336214
87.760129929,0.621272500000002,-24.30045,-0.618335199999998,0.9908243,-0.1008519,-0.04818267,-58.27064,-11.71945,9.336214
87.769989014,4.286111,-26.32375,-1.599183,1.02492,-0.1672074,-0.04587422,-58.27064,-11.71945,9.336214
87.779848576,14.03831,-27.57344,-1.353971,1.041243,-0.231324,-0.05335675,-58.27064,-11.71945,9.336214
87.789707184,31.1823,-27.69246,-1.047456,1.054056,-0.3306473,-0.09798476,-58.27064,-11.71945,9.336214
87.799566269,57.8300300000002,-27.81148,0.791633600000001,1.054287,-0.4236976,-0.1270461,-58.27064,-11.71945,9.336214
87.809425831,91.99378,-29.00166,1.282058,1.072718,-0.4957004,-0.1662524,-58.26144,-11.70164,10.61649
87.821749687,139.8852,-28.70411,2.937238,1.074375,-0.5210212,-0.1746361,-58.26144,-11.70164,10.61649
87.831608772,174.8564,-29.12067,4.163299,1.057163,-0.5061988,-0.2039761,-58.26144,-11.70164,10.61649
87.841467857,201.1315,-30.54889,7.841478,1.02448,-0.506598,-0.233224,-58.26144,-11.70164,10.61649
87.851327419,221.1949,-30.84643,11.15184,1.032467,-0.5454058,-0.2197686,-58.24792,-12.04751,12.22061
87.861186504,240.5751,-28.22804,14.70741,1.00717,-0.57182,-0.1966293,-58.24792,-12.04751,12.22061
87.871046066,258.5887,-26.32375,18.32429,1.051771,-0.4842796,-0.1855046,-58.24792,-12.04751,12.22061
87.880905151,272.1299,-25.19308,18.20168,1.134649,-0.4050193,-0.1371386,-58.24792,-12.04751,12.22061
87.890764236,279.8944,-24.89554,17.03693,1.143903,-0.3873724,-0.1246624,-58.24792,-12.04751,12.22061
87.900623798,284.9879,-24.65751,17.77256,1.11143,-0.3344951,-0.09164695,-57.87383,-9.818886,13.92442
87.910482407,282.876,-25.43112,19.12123,1.115168,-0.2679765,-0.01015415,-57.87383,-9.818886,13.92442
87.920341492,274.0555,-25.13358,20.40859,1.130658,-0.2361499,0.005707262,-57.87383,-9.818886,13.92442
87.930201054,262.2535,-26.08572,21.32814,1.148054,-0.2456844,0.01735884,-57.87383,-9.818886,13.92442
87.940060139,251.1969,-26.44277,21.81856,1.178614,-0.2570675,0.02401521,-57.87383,-9.818886,13.92442
87.949919224,240.3266,-26.56179,21.63465,1.201453,-0.255931,0.0136361,-57.1385,-5.386582,15.53967
87.959778786,228.8973,-26.26425,20.34729,1.220984,-0.242586,0.02257515,-57.1385,-5.386582,15.53967
87.969637871,214.4864,-26.85933,19.79556,1.236458,-0.1995347,0.0471571,-57.1385,-5.386582,15.53967
87.979497433,196.0379,-24.30045,18.26299,1.268248,-0.1655677,0.07622185,-57.1385,-5.386582,15.53967
87.991821289,167.4646,-19.3017,17.28214,1.296023,-0.1593577,0.1094224,-57.1385,-5.386582,15.53967
88.001680374,144.9787,-13.82688,17.40475,1.282678,-0.2427302,0.09788735,-54.22668,-2.536569,15.495
88.011539459,128.8906,-9.66125199999999,19.85687,1.29206,-0.3040042,0.08621493,-54.22668,-2.536569,15.495
88.021399021,117.7719,-5.555135,22.4929,1.294589,-0.3181176,0.07983019,-54.22668,-2.536569,15.495
88.031258106,108.1439,-1.627546,24.82241,1.284393,-0.3201395,0.08379205,-54.22668,-2.536569,15.495
88.041116714,100.2552,3.014151,27.39713,1.282677,-0.3381527,0.08558127,-54.22668,-2.536569,15.495
88.050976276,95.34805,7.95339299999998,30.46228,1.266738,-0.3733897,0.06969748,-53.4985,0.3937426,15.01288
88.060835361,95.4722700000002,12.47607,34.26307,1.25609,-0.3939578,0.06009167,-53.4985,0.3937426,15.01288
88.070694447,98.14326,17.71286,37.69604,1.261986,-0.3769459,0.04098324,-53.4985,0.3937426,15.01288
88.080554009,101.0006,23.42571,41.19031,1.259198,-0.3624183,0.02868638,-53.4985,0.3937426,15.01288
88.090413094,103.361,28.24594,44.01025,1.237876,-0.3436454,0.02435671,-53.4985,0.3937426,15.01288
88.100272656,104.5412,33.83978,46.52367,1.228953,-0.315575,0.004594404,-52.40413,3.677194,13.75689
88.110131741,103.92,39.13607,48.97579,1.235249,-0.3008901,0.012775,-52.40413,3.677194,13.75689
88.119990826,101.6839,44.31335,51.1827,1.221344,-0.302047,-0.00332937,-52.40413,3.677194,13.75689
88.129850388,99.1992299999997,48.77652,53.2057,1.210924,-0.2933919,-0.006462207,-52.40413,3.677194,13.75689
88.139708996,95.1617000000001,52.6446,54.79958,1.197633,-0.2687682,-0.02667054,-52.40413,3.677194,13.75689
88.149568081,88.8879899999997,54.84643,56.57736,1.181566,-0.2432838,-0.07031282,-50.5607,5.466951,11.61592
88.159427643,80.6886800000001,56.15563,57.7421200000001,1.181953,-0.2078032,-0.08247808,-50.5607,5.466951,11.61592
88.171751499,66.96107,56.92924,58.9068800000002,1.163725,-0.1744474,-0.09822958,-50.5607,5.466951,11.61592
88.181610584,54.35154,57.10777,60.1329299999998,1.150569,-0.1463675,-0.1054723,-50.5607,5.466951,11.61592
88.191469669,41.36932,56.27465,61.6042100000002,1.145069,-0.1401023,-0.1086954,-50.5607,5.466951,11.61592
88.201329231,30.0021,54.84643,62.76896,1.125544,-0.1408867,-0.1419677,-49.46548,6.891846,9.098503
88.211188316,21.86491,52.52559,63.7498100000002,1.114279,-0.1347785,-0.1733828,-49.46548,6.891846,9.098503
88.221047878,16.15025,49.90719,64.54675,1.093757,-0.1355771,-0.2080786,-49.46548,6.891846,9.098503
88.230906963,12.36118,46.09862,65.2210799999998,1.078588,-0.123642,-0.2336384,-49.46548,6.891846,9.098503
88.240766048,9.00692200000002,42.29005,65.6502100000002,1.052796,-0.0990689,-0.2378554,-49.46548,6.891846,9.098503
88.25062561,5.279966,38.12442,65.8341099999998,1.022745,-0.0744937,-0.2314694,-48.74325,8.69455,6.963331
88.260484695,0.9318522,34.13732,65.2823899999999,0.9965647,-0.06454268,-0.2410754,-48.74325,8.69455,6.963331
88.270343304,-2.608755,30.44777,64.54675,0.9691547,-0.06576617,-0.2430911,-48.74325,8.69455,6.963331
88.280202866,-3.416262,26.40116,63.5045999999999,0.9442132,-0.07770256,-0.2528995,-48.74325,8.69455,6.963331
88.290061951,-3.788957,22.29505,62.64635,0.9074513,-0.06193675,-0.2440961,-48.74325,8.69455,6.963331
88.299921036,-4.037421,18.78402,61.3589900000003,0.881786,-0.04367431,-0.2445346,-47.63612,11.25863,6.931142
88.309780598,-5.155508,15.15397,59.5199100000001,0.8433576,-0.008937428,-0.2336306,-47.63612,11.25863,6.931142
88.319639683,-7.51591300000002,11.58344,57.25169,0.8297243,0.01816503,-0.2408747,-47.63612,11.25863,6.931142
88.329499245,-10.1869,8.72700900000001,54.98348,0.8157579,0.02773151,-0.2520957,-47.63612,11.25863,6.931142
88.341823101,-12.36095,3.728258,51.244,0.7740914,0.03417402,-0.2524059,-47.63612,11.25863,6.931142
88.351682186,-12.60942,-0.0803133500000001,46.52367,0.7488179,0.04034255,-0.2347425,-46.89991,12.71636,6.4641
88.361541271,-12.42307,-3.174778,41.68073,0.728271,0.03297205,-0.2052806,-46.89991,12.71636,6.4641
88.371400833,-11.24287,-6.03120700000002,37.38952,0.7035919,0.02257522,-0.1944743,-46.89991,12.71636,6.4641
88.381259918,-8.94457799999998,-8.53058099999998,32.91441,0.6831059,0.01983402,-0.2282286,-46.89991,12.71636,6.4641
88.391118527,-6.149363,-11.92259,28.43929,0.6687055,0.03136479,-0.2336764,-46.89991,12.71636,6.4641
88.400978088,-5.403972,-15.73116,23.47374,0.6639876,0.04260032,-0.210992,-46.15491,13.75705,6.897649
88.410837174,-6.58417399999999,-18.82563,18.26299,0.6591164,0.05135096,-0.2017439,-46.15491,13.75705,6.897649
88.420696259,-9.503621,-21.92009,13.66526,0.6636315,0.0314047,-0.2110814,-46.15491,13.75705,6.897649
88.430555821,-10.87017,-25.01456,9.19014499999998,0.6562914,0.01571579,-0.225006,-46.15491,13.75705,6.897649
88.440414906,-11.61556,-28.46608,4.408511,0.6501053,0.01326779,-0.2143961,-46.15491,13.75705,6.897649
88.450274468,-12.23672,-31.50103,-1.047456,0.6309128,0.01257806,-0.2232331,-45.40152,14.87602,8.546834
88.460133553,-12.92,-33.16728,-6.99384700000001,0.5959511,-0.01451224,-0.2277555,-45.40152,14.87602,8.546834
88.469992638,-12.42307,-36.55929,-12.2046,0.5805216,-0.06180968,-0.2169131,-45.40152,14.87602,8.546834
88.4798522,-10.68382,-38.99916,-16.55711,0.5786741,-0.08411912,-0.1926359,-45.40152,14.87602,8.546834
88.489711285,-9.503621,-40.07032,-19.68357,0.5867078,-0.08838489,-0.1812856,-45.40152,14.87602,8.546834
88.499569893,-10.43536,-42.6292,-22.81002,0.5759432,-0.1045924,-0.195645,-45.02461,15.99397,9.813867
88.509429455,-11.49133,-43.87889,-25.81387,0.5760825,-0.1283406,-0.1704498,-45.02461,15.99397,9.813867
88.521753311,-13.47904,-45.06907,-28.75641,0.5695674,-0.1623468,-0.1399752,-45.02461,15.99397,9.813867
88.531612396,-14.78347,-44.05742,-29.55335,0.5583411,-0.1907565,-0.1630565,-45.02461,15.99397,9.813867
88.541471481,-15.90156,-44.35496,-30.04377,0.5583636,-0.1887972,-0.1596859,-45.02461,15.99397,9.813867
88.551331043,-19.19371,-44.95005,-31.08592,0.57113,-0.1725595,-0.1420004,-45.3796,15.2905,11.87178
88.561190128,-24.10086,-44.23594,-32.12807,0.5867162,-0.1889047,-0.1255885,-45.3796,15.2905,11.87178
88.57104969,-28.32475,-43.58134,-32.4959,0.5859829,-0.2122784,-0.1281714,-45.3796,15.2905,11.87178
88.580908775,-30.56092,-42.45068,-33.17023,0.5820165,-0.2220927,-0.1406568,-45.3796,15.2905,11.87178
88.59076786,-31.679,-40.90344,-33.78326,0.5824203,-0.2182069,-0.143505,-45.3796,15.2905,11.87178
88.600627422,-32.98344,-38.40407,-34.33498,0.6040223,-0.2029943,-0.1604565,-45.73643,13.9014,13.16844
88.610486507,-35.28172,-36.20224,-34.51889,0.6308241,-0.190715,-0.1933204,-45.73643,13.9014,13.16844
88.620345116,-38.6981,-35.19059,-34.33498,0.6715899,-0.2026497,-0.2280253,-45.73643,13.9014,13.16844
88.630204677,-40.99639,-35.78568,-33.72195,0.712701,-0.2019272,-0.2621491,-45.73643,13.9014,13.16844
88.640063763,-43.23256,-36.67831,-33.72195,0.7617512,-0.1903624,-0.2785642,-45.73643,13.9014,13.16844
88.649922848,-45.46873,-38.04702,-34.7641,0.8083168,-0.1876184,-0.3055606,-45.71402,13.20074,15.73654
88.65978241,-48.26395,-39.9513,-34.7028,0.8561484,-0.1969894,-0.322135,-45.71402,13.20074,15.73654
88.669641495,-51.05917,-42.6292,-34.51889,0.8900784,-0.2093342,-0.3203268,-45.71402,13.20074,15.73654
88.679501057,-54.28919,-44.95005,-34.45759,0.8988407,-0.2151272,-0.328647,-45.71402,13.20074,15.73654
88.691824913,-59.8175099999998,-46.91385,-34.08977,0.9145616,-0.1819053,-0.3305074,-45.71402,13.20074,15.73654
88.701683998,-66.7123799999997,-48.16353,-33.59935,0.929006,-0.1559652,-0.324744,-45.69724,11.74508,16.96788
88.711543083,-76.5266999999997,-49.05617,-34.5802,0.9332127,-0.1428,-0.3275681,-45.69724,11.74508,16.96788
88.721402645,-85.03658,-49.05617,-36.6032,0.9249182,-0.2071782,-0.3466819,-45.69724,11.74508,16.96788
88.73126173,-87.4590999999999,-48.75862,-36.6032,0.954465,-0.2804496,-0.361139,-45.69724,11.74508,16.96788
88.741121292,-84.6017600000001,-48.75862,-36.05147,0.9659193,-0.291033,-0.3556412,-45.69724,11.74508,16.96788
88.7509799,-83.0488699999998,-49.35371,-35.86756,0.99334,-0.2484424,-0.3523182,-46.04775,10.30621,19.09735
88.760838985,-84.9123500000002,-48.5801,-36.23538,1.006978,-0.2341795,-0.3442458,-46.04775,10.30621,19.09735
88.77069807,-87.5212100000002,-47.74697,-36.48059,1.007822,-0.2579971,-0.3391876,-46.04775,10.30621,19.09735
88.780557632,-89.88161,-47.09237,-35.25453,1.020604,-0.2617722,-0.337964,-46.04775,10.30621,19.09735
88.790416717,-93.1116399999998,-45.84269,-33.59935,1.017257,-0.2363926,-0.3099086,-46.04775,10.30621,19.09735
88.800276279,-100.0065,-43.87889,-33.17023,1.003175,-0.2076831,-0.27688,-46.01132,8.144541,22.51271
88.810135364,-109.7587,-40.66541,-32.92501,1.021384,-0.1889391,-0.2525422,-46.01132,8.144541,22.51271
88.81999445,-120.3805,-36.73782,-32.37329,1.037068,-0.214668,-0.2731092,-46.01132,8.144541,22.51271
88.829854011,-126.7164,-32.69121,-31.63765,1.02346,-0.264916,-0.2747769,-46.01132,8.144541,22.51271
88.839713097,-130.5054,-29.53724,-32.5572,1.030772,-0.2759523,-0.2505351,-46.01132,8.144541,22.51271
88.849572659,-132.6795,-23.82438,-33.47674,1.050218,-0.3108311,-0.254461,-46.35582,5.601223,24.65349
88.859431267,-131.6856,-18.05201,-33.72195,1.048958,-0.3200611,-0.247333,-46.35582,5.601223,24.65349
88.8717556,-128.6419,-11.08947,-33.96717,1.047848,-0.3122956,-0.2501268,-46.35582,5.601223,24.65349
88.881614208,-127.4617,-6.50727800000002,-33.66065,1.059548,-0.2985328,-0.2410726,-46.35582,5.601223,24.65349
88.891473293,-129.1389,-1.032456,-32.86371,1.080664,-0.280259,-0.2191762,-46.35582,5.601223,24.65349
88.901332855,-134.046,4.561384,-30.6568,1.088919,-0.2855734,-0.2284435,-47.82626,3.433658,26.41221
88.91119194,-139.2638,10.27424,-26.5495,1.106702,-0.2991739,-0.2637933,-47.82626,3.433658,26.41221
88.921051502,-142.8665,13.84478,-21.82917,1.134686,-0.3233095,-0.2778134,-47.82626,3.433658,26.41221
88.930910587,-144.7921,16.40366,-18.51881,1.144554,-0.3321223,-0.315406,-47.82626,3.433658,26.41221
88.940769672,-146.4692,18.12942,-15.26975,1.133942,-0.3205923,-0.3300126,-47.82626,3.433658,26.41221
88.950629234,-148.5811,20.15272,-12.69503,1.11097,-0.3281138,-0.3350199,-48.17393,-0.2319202,27.28403
88.960488319,-150.631,21.52143,-10.30421,1.083436,-0.3210728,-0.3388808,-48.17393,-0.2319202,27.28403
88.970347881,-153.3641,22.94964,-8.894239,1.055267,-0.3111483,-0.3508548,-48.17393,-0.2319202,27.28403
88.980206966,-154.7306,25.09196,-8.894239,1.042268,-0.3517285,-0.3711384,-48.17393,-0.2319202,27.28403
88.990065575,-151.2521,26.93674,-7.790786,1.038935,-0.378097,-0.3876061,-48.17393,-0.2319202,27.28403
88.99992466,-143.3013,29.07906,-5.461272,1.032447,-0.369402,-0.3893571,-50.03128,-2.792718,26.936
89.009784222,-134.543,30.80482,-3.867394,1.041744,-0.3274665,-0.3881773,-50.03128,-2.792718,26.936
89.019643307,-128.6419,33.42322,-2.334819,1.031739,-0.3027166,-0.3825547,-50.03128,-2.792718,26.936
89.029502869,-122.244,34.79192,0.3625127,1.032708,-0.3002696,-0.3811102,-50.03128,-2.792718,26.936
89.041826725,-112.1191,35.62505,3.918087,1.056948,-0.2994922,-0.3608435,-50.03128,-2.792718,26.936
89.05168581,-102.6154,35.14898,5.20545,1.063743,-0.2873765,-0.3900693,-50.76544,-6.416677,26.08075
89.061544895,-90.9375799999997,37.05326,7.47365999999998,1.07872,-0.292531,-0.3725959,-50.76544,-6.416677,26.08075
89.071404457,-78.5765199999997,35.92259,7.71887200000002,1.065393,-0.2483884,-0.378263,-50.76544,-6.416677,26.08075
89.081263542,-68.1410400000002,35.38701,7.04453900000001,1.058134,-0.2012079,-0.3667398,-50.76544,-6.416677,26.08075
89.091123104,-60.0038599999997,34.6729,5.757176,1.040723,-0.162384,-0.3537048,-50.76544,-6.416677,26.08075
89.100982189,-53.10899,33.83978,4.776329,1.031454,-0.1127952,-0.3440494,-52.63321,-9.369678,24.00811
89.110841274,-47.95337,33.18518,3.611572,1.029214,-0.08506445,-0.340429,-52.63321,-9.369678,24.00811
89.120700836,-43.91584,31.63795,1.465967,1.027515,-0.06122017,-0.33637,-52.63321,-9.369678,24.00811
89.130559444,-39.75407,32.41156,-0.1892142,1.030956,-0.04946759,-0.3248191,-52.63321,-9.369678,24.00811
89.14041853,-34.28787,31.57844,-2.273516,1.037675,-0.05663233,-0.3048489,-52.63321,-9.369678,24.00811
89.150278091,-26.95819,30.26924,-4.051303,1.034964,-0.05073566,-0.2831966,-54.14134,-8.633936,22.72802
89.160137177,-19.31794,28.30545,-6.13560500000002,1.047737,-0.03010205,-0.2611613,-54.14134,-8.633936,22.72802
89.169996262,-12.11249,26.69871,-8.09730099999998,1.056003,-0.001237195,-0.2394715,-54.14134,-8.633936,22.72802
89.179855824,-6.39782600000002,25.09196,-10.30421,1.05382,0.03432151,-0.2247643,-54.14134,-8.633936,22.72802
89.189714909,-1.987596,23.90179,-12.02069,1.049132,0.01347755,-0.1922878,-54.14134,-8.633936,22.72802
89.199574471,3.975532,23.36621,-13.43066,1.044577,-0.009281158,-0.151683,-54.89153,-9.746675,21.52694
89.209433556,9.13115300000001,24.31835,-13.61457,1.061492,-0.05565256,-0.1000827,-54.89153,-9.746675,21.52694
89.221757412,11.86425,27.76987,-11.65287,1.080873,-0.2155658,0.03246729,-54.89153,-9.746675,21.52694
89.231616497,24.97071,33.06616,-8.83293600000001,1.081667,0.1117805,-0.2671563,-54.89153,-9.746675,21.52694
89.241476059,12.79599,33.60174,-11.40766,1.009363,-0.2328233,0.01129767,-54.89153,-9.746675,21.52694
89.251335144,-22.17527,24.0208,14.09438,1.199825,-1.083189,-0.1159973,-55.64341,-10.11866,20.63838
89.261193752,13.66562,35.08947,29.78795,1.127603,-0.7930363,-0.1700232,-55.64341,-10.11866,20.63838
89.271053314,42.8601,31.2809,27.94886,1.129964,-0.4496201,-0.3406288,-55.64341,-10.11866,20.63838
89.280912399,30.56114,25.62755,20.6538,1.087102,-0.04043085,-0.2536631,-55.64341,-10.11866,20.63838
89.290771484,15.28063,17.2963,12.80702,1.043857,0.04847743,-0.1895213,-55.64341,-10.11866,20.63838
89.300631046,2.422634,15.27299,8.88363000000001,1.086666,0.07645373,0.03245321,-56.01183,-12.70831,19.45044
89.310490131,-12.17461,19.02205,2.385511,1.024514,0.08175529,0.03577976,-56.01183,-12.70831,19.45044
89.320349693,-23.54182,17.71286,-0.1892142,1.015859,0.00262745,-0.02274781,-56.01183,-12.70831,19.45044
89.330208778,-24.65991,14.91594,-0.1279112,1.069241,-0.1045108,-0.0411848,-56.01183,-12.70831,19.45044
89.340067864,-13.78962,12.11902,0.3625127,1.064466,-0.1406498,-0.0644233,-56.01183,-12.70831,19.45044
89.349927425,-0.496814,9.32209900000001,1.036846,1.032498,-0.0947337,-0.07220576,-56.77054,-11.23332,18.99112
89.359786511,7.32979100000002,7.12026800000002,0.669027700000002,1.017168,-0.01267507,-0.08375393,-56.77054,-11.23332,18.99112
89.369645119,11.67791,6.40616099999997,0.5464218,1.017446,0.02046855,-0.0700606,-56.77054,-11.23332,18.99112
89.379504681,15.21851,5.632545,-0.3118202,1.014562,0.04473325,-0.0808363,-56.77054,-11.23332,18.99112
89.391829014,14.28677,5.394509,-1.660486,0.9928213,0.08779793,-0.09453899,-56.77054,-11.23332,18.99112
89.401687622,9.19326999999999,3.728258,-2.334819,0.9827904,0.0653175,-0.09650254,-57.10123,-9.406805,17.6936
89.411546707,2.112055,2.657098,-1.967001,0.9992402,0.03771901,-0.0984075,-57.10123,-9.406805,17.6936
89.421406269,-3.975305,5.215982,-1.905698,1.02858,0.0263935,-0.07352369,-57.10123,-9.406805,17.6936
89.431265354,-11.11864,7.23928599999999,-3.254364,1.015563,0.0132839,-0.03511284,-57.10123,-9.406805,17.6936
89.441124916,-18.88313,8.19142900000002,-3.131758,0.9364983,-0.02927027,-0.1661249,-57.10123,-9.406805,17.6936
89.450984001,-22.23738,4.263839,-2.947849,0.9495948,-0.05346128,-0.159807,-57.10123,-9.406805,17.6936
89.460843086,-24.53568,2.062008,-1.108759,0.9551675,-0.08118788,-0.1701836,-57.10123,-9.406805,17.6936
89.470702648,-25.0326,-3.05576,-1.047456,0.9872434,-0.1240087,-0.1158942,-57.10123,-9.406805,17.6936
89.480561733,-22.11315,-4.841028,-0.4344262,1.019928,-0.1270266,-0.08955032,-57.10123,-9.406805,17.6936
89.490421295,-19.19371,-5.019555,0.4851187,1.033668,-0.1399404,-0.06206156,-57.10123,-9.406805,17.6936
89.50028038,-16.46061,-6.38826,1.52727,1.017675,-0.1623635,-0.0347085,-57.09917,-10.89098,16.87651
89.510138989,-12.79576,-7.51892999999999,2.814632,1.046102,-0.1824671,-0.01276095,-57.09917,-10.89098,16.87651
89.519998074,-9.13092499999999,-8.64960000000003,4.715025,1.092395,-0.2340769,4.049949e-05,-57.09917,-10.89098,16.87651
89.529857636,-3.229914,-9.423216,6.67672200000001,1.130604,-0.3151229,-0.03185681,-57.09917,-10.89098,16.87651
89.539716721,8.69634200000002,-10.79192,7.65756900000002,1.147143,-0.3096315,-0.03396299,-57.09917,-10.89098,16.87651
89.549576283,20.74683,-13.9459,7.534964,1.188379,-0.2776269,-0.03140541,-57.47416,-10.14502,17.25498
89.559435367,28.07651,-16.98085,6.24760099999999,1.27375,-0.261531,0.0365184,-57.47416,-10.14502,17.25498
89.571759224,34.35022,-18.6471,5.81848000000002,1.290119,-0.2912405,-0.009010385,-57.47416,-10.14502,17.25498
89.581618309,43.29491,-24.12192,5.634571,1.215216,-0.3363484,-0.05240985,-57.47416,-10.14502,17.25498
89.591477871,54.66212,-33.2863,4.408511,1.167622,-0.3004627,-0.102703,-57.47416,-10.14502,17.25498
89.601336956,61.7433400000002,-43.34331,2.1403,1.224784,-0.2553301,-0.1405144,-56.71548,-10.50398,18.53516
89.611196518,65.5323999999999,-53.81688,-0.3118202,1.266168,-0.2424592,-0.1798107,-56.71548,-10.50398,18.53516
89.621055603,68.51397,-65.4211199999998,-2.702637,1.272141,-0.2441131,-0.2455601,-56.71548,-10.50398,18.53516
89.630914688,73.66959,-76.2517500000002,-4.541727,1.309981,-0.2552299,-0.3147188,-56.71548,-10.50398,18.53516
89.640773296,79.3842500000001,-85.6541600000002,-5.89039299999998,1.35728,-0.2203241,-0.3313911,-56.71548,-10.50398,18.53516
89.650632858,83.3596699999999,-92.9737500000001,-7.66818000000001,1.405361,-0.1765423,-0.3187685,-55.64542,-9.750515,20.63461
89.660491943,84.9125699999999,-98.2700499999998,-8.64902799999999,1.431455,-0.1490597,-0.3184293,-55.64542,-9.750515,20.63461
89.670351505,85.4094899999999,-103.4473,-8.77163399999998,1.446035,-0.1367512,-0.3146996,-55.64542,-9.750515,20.63461
89.68021059,86.7139300000002,-107.613,-8.83293600000001,1.504752,-0.1614798,-0.2999316,-55.64542,-9.750515,20.63461
89.690069675,90.5651200000002,-109.5172,-7.42296799999998,1.521157,-0.1583329,-0.2780957,-55.64542,-9.750515,20.63461
89.699929237,97.33575,-107.851,-6.25821100000001,1.51431,-0.1673162,-0.321681,-54.50265,-8.605564,24.45833
89.709788322,105.1624,-107.97,-6.56472599999998,1.474307,-0.1521519,-0.3358381,-54.50265,-8.605564,24.45833
89.719647884,113.1132,-103.0308,-5.95169599999998,1.460546,-0.1614326,-0.3127187,-54.50265,-8.605564,24.45833
89.729506969,119.1384,-97.7344699999999,-5.21606,1.405272,-0.1360449,-0.2896735,-54.50265,-8.605564,24.45833
89.741830826,122.7412,-91.06947,-6.68733199999997,1.365151,-0.1410142,-0.2225349,-51.11553,-6.738634,29.0951
89.751689911,123.4865,-80.7744299999998,-5.89039299999998,1.331813,-0.133383,-0.185097,-51.11553,-6.738634,29.0951
89.761549473,122.12,-68.45608,-5.399969,1.290732,-0.1399556,-0.1538982,-51.11553,-6.738634,29.0951
89.771408558,118.3309,-58.22054,-6.319514,1.213044,-0.09122442,-0.2113212,-51.11553,-6.738634,29.0951
89.781267166,112.6163,-46.73532,-7.60687700000002,1.214015,-0.0822946,-0.1681317,-51.11553,-6.738634,29.0951
89.791126728,105.9077,-35.2501,-8.77163399999998,1.169842,-0.08991442,-0.1493569,-51.11553,-6.738634,29.0951
89.800985813,99.1371199999999,-23.2888,-10.059,1.1481,-0.08563793,-0.1255302,-47.73884,-5.263906,32.00727
89.810844898,91.3726199999999,-9.89928700000001,-10.61072,1.132116,-0.06878258,-0.1347441,-47.73884,-5.263906,32.00727
89.82070446,83.4838999999998,3.252187,-10.97854,1.083674,-0.1102261,-0.171781,-47.73884,-5.263906,32.00727
89.830563545,79.2600200000002,15.68955,-10.85594,1.04341,-0.1511471,-0.218514,-47.73884,-5.263906,32.00727
89.840423107,76.8996100000002,25.09196,-10.97854,1.031574,-0.1682311,-0.2045927,-47.73884,-5.263906,32.00727
89.850282192,74.9119,36.16063,-10.24291,1.013896,-0.1861176,-0.2610372,-45.50019,-3.498842,32.80963
89.860141277,74.1044000000002,45.9796,-9.87508800000001,0.991208,-0.195646,-0.2828375,-45.50019,-3.498842,32.80963
89.870000839,73.1726599999998,53.41822,-9.20075500000001,0.958358,-0.1985338,-0.32648,-45.50019,-3.498842,32.80963
89.879859924,72.3651499999997,61.63045,-8.03599700000001,0.9359302,-0.196541,-0.3908355,-45.50019,-3.498842,32.80963
89.889719486,70.7501399999999,67.5813399999997,-5.583878,0.9384103,-0.2000623,-0.4273197,-45.50019,-3.498842,32.80963
89.899578094,69.3835899999999,71.9254999999999,-2.825243,0.9304449,-0.1768714,-0.4528872,-44.7667,-3.162491,31.13764
89.90943718,65.5323999999999,76.4481800000001,-0.618335199999998,0.908749,-0.1524818,-0.5156265,-44.7667,-3.162491,31.13764
89.921761036,60.99794,80.1972400000001,1.711179,0.876847,-0.1407228,-0.5486165,-44.7667,-3.162491,31.13764
89.931620121,56.5256,81.0898699999998,3.795481,0.8669351,-0.1276638,-0.5464482,-44.7667,-3.162491,31.13764
89.941479683,51.80479,81.5064400000002,6.24760099999999,0.8521565,-0.1079411,-0.5724271,-46.29202,-2.088003,27.74132
89.951338768,46.7734,81.3874199999998,9.06753800000002,0.8428502,-0.1003503,-0.60242,-46.29202,-2.088003,27.74132
89.96119833,43.04644,79.8401899999999,11.15184,0.8254652,-0.09618299,-0.6179506,-46.29202,-2.088003,27.74132
89.971057415,41.12085,77.81689,12.99093,0.8110082,-0.09199174,-0.634002,-46.29202,-2.088003,27.74132
89.9809165,39.94065,75.0794799999999,14.70741,0.7943504,-0.07652303,-0.6221332,-46.29202,-2.088003,27.74132
89.990776062,38.44987,71.6279499999999,16.36259,0.7751431,-0.06110554,-0.6178958,-46.68738,-2.125561,24.7346
90.000635147,36.58639,67.7003600000001,17.71126,0.7476183,-0.0433209,-0.611603,-46.68738,-2.125561,24.7346
90.010494709,34.6608,63.2966999999997,18.4469,0.7346795,-0.01810846,-0.6054555,-46.68738,-2.125561,24.7346
90.020353794,32.17616,58.2384400000002,18.99862,0.7138978,0.0003301075,-0.5705012,-46.68738,-2.125561,24.7346
90.030212402,30.0021,55.02496,18.5695,0.6922588,0.02061228,-0.5609169,-46.68738,-2.125561,24.7346
90.040071487,28.63555,50.85933,18.20168,0.6764027,0.04056849,-0.5221865,-46.68738,-2.125561,24.7346
90.049931049,26.46149,47.11027,17.46605,0.6586705,0.05320694,-0.4839704,-48.20346,-2.149279,21.7977
90.059790134,23.3557,44.13482,16.73041,0.6427745,0.06826951,-0.4524687,-48.20346,-2.149279,21.7977
90.069649696,20.2499,40.98085,15.81087,0.6078833,0.06219307,-0.433334,-48.20346,-2.149279,21.7977
90.079508781,18.13796,37.17228,14.58481,0.5772145,0.05428644,-0.39319,-48.20346,-2.149279,21.7977
90.091832638,13.91408,33.36371,12.4392,0.5545413,0.06393824,-0.3611582,-47.85094,-1.078553,19.672
90.101691723,10.93252,31.04286,10.17099,0.5412794,0.06149994,-0.3312794,-47.85094,-1.078553,19.672
90.111551285,7.57825500000001,28.96005,8.331903,0.5306845,0.06731103,-0.3138282,-47.85094,-1.078553,19.672
90.12141037,4.037648,24.49688,6.30890399999998,0.4979091,0.07141484,-0.309972,-47.85094,-1.078553,19.672
90.131269932,0.3728088,21.04536,3.856784,0.4907189,0.0683274,-0.3376892,-47.85094,-1.078553,19.672
90.141129017,-2.795103,17.59384,1.159452,0.4624734,0.08422397,-0.3141509,-48.6056,-1.455887,18.39935
90.150988102,-6.70840600000002,14.55888,-1.292668,0.4673755,0.06696438,-0.2568625,-48.6056,-1.455887,18.39935
90.160847664,-9.62785199999999,12.53558,-2.457425,0.4441522,0.05315957,-0.2499392,-48.6056,-1.455887,18.39935
90.170706749,-11.42921,9.08406300000002,-3.744788,0.4160636,0.05578355,-0.2624551,-48.6056,-1.455887,18.39935
90.180565357,-12.36095,5.513526,-5.093454,0.3763649,0.05687606,-0.2666721,-48.6056,-1.455887,18.39935
90.190424919,-14.47289,1.228883,-6.62602899999998,0.3723106,0.07095982,-0.2645787,-48.98335,-0.7152758,18.39374
90.200284004,-19.13159,-3.174778,-8.46511799999998,0.3647867,0.06365354,-0.2487195,-48.98335,-0.7152758,18.39374
90.210143089,-23.60394,-7.51892999999999,-9.87508800000001,0.3598374,0.02955314,-0.24702,-48.98335,-0.7152758,18.39374
90.220002651,-26.52338,-11.56554,-10.79463,0.3487681,0.001676469,-0.258119,-48.98335,-0.7152758,18.39374
90.229861736,-27.20666,-16.68331,-12.51112,0.3371183,-0.03000118,-0.2433652,-48.98335,-0.7152758,18.39374
90.239721298,-25.59164,-20.37286,-13.24675,0.3376109,-0.04073687,-0.2525676,-48.98335,-0.7152758,18.39374
90.249580383,-24.97049,-25.13358,-14.2889,0.3491612,-0.02764019,-0.2909576,-48.59835,-2.185946,18.85499
90.259439468,-24.2251,-29.77527,-15.26975,0.3579695,-0.05490207,-0.314794,-48.59835,-2.185946,18.85499
90.271763325,-22.6722,-35.72617,-16.80233,0.3849128,-0.05611764,-0.3132715,-48.59835,-2.185946,18.85499
90.281622887,-21.36776,-39.35621,-17.47666,0.4249016,-0.06409778,-0.3297224,-48.59835,-2.185946,18.85499
90.291481972,-21.05718,-43.34331,-18.08969,0.4746362,-0.05686705,-0.3356413,-48.9661,-2.170047,19.6891
90.301341534,-21.36776,-47.21139,-19.13184,0.5014369,-0.05763503,-0.3441762,-48.9661,-2.170047,19.6891
90.311200619,-23.10701,-50.6034,-19.43835,0.5334935,-0.05009125,-0.3546326,-48.9661,-2.170047,19.6891
90.321059704,-24.97049,-53.9359,-19.74487,0.5675213,-0.05863747,-0.3781913,-48.9661,-2.170047,19.6891
90.330918312,-25.84011,-57.2684,-19.68357,0.5867533,-0.06623629,-0.3737375,-48.9661,-2.170047,19.6891
90.340777874,-26.70973,-59.8868,-19.19314,0.6354314,-0.07159524,-0.3605798,-48.20145,-2.517426,21.80146
90.350636959,-27.88993,-62.1481299999998,-19.07054,0.6554225,-0.08217733,-0.3748508,-48.20145,-2.517426,21.80146
90.360496521,-28.51109,-64.4689799999998,-19.25445,0.662593,-0.08850697,-0.3927368,-48.20145,-2.517426,21.80146
90.370355606,-27.39301,-66.4327699999998,-19.62226,0.672282,-0.1019825,-0.3757374,-48.20145,-2.517426,21.80146
90.380214691,-26.15069,-67.4444300000001,-19.92878,0.703405,-0.09869348,-0.3507557,-48.20145,-2.517426,21.80146
90.390074253,-24.65991,-67.0278600000002,-19.74487,0.7304293,-0.1023271,-0.3454211,-47.42233,-4.324923,24.8251
90.399933338,-21.86469,-65.7186699999999,-19.56096,0.7458698,-0.09492594,-0.3546835,-47.42233,-4.324923,24.8251
90.4097929,-19.9391,-64.4094699999999,-19.49966,0.7646139,-0.08007033,-0.3303861,-47.42233,-4.324923,24.8251
90.419651985,-19.19371,-62.3266600000001,-19.43835,0.7678154,-0.07996838,-0.3107837,-47.42233,-4.324923,24.8251
90.42951107,-19.38005,-59.2322000000003,-18.45751,0.7802834,-0.08418613,-0.2971002,-47.42233,-4.324923,24.8251
90.441835404,-20.06333,-54.05492,-15.57627,0.8051693,-0.06591864,-0.2857999,-46.66613,-4.316628,26.0375
90.451694489,-21.49199,-49.65126,-13.30806,0.8128042,-0.05041607,-0.322197,-46.66613,-4.316628,26.0375
90.461553574,-24.03875,-46.43777,-11.28506,0.8208162,-0.05238205,-0.3462878,-46.66613,-4.316628,26.0375
90.471412182,-26.02646,-44.11692,-9.13945200000001,0.8419848,-0.03911074,-0.3608535,-46.66613,-4.316628,26.0375
90.481271744,-30.31245,-40.6059,-7.116453,0.8913229,-0.03025807,-0.3226669,-46.66613,-4.316628,26.0375
90.491130829,-35.77865,-36.32125,-5.706484,0.8966148,-0.0245123,-0.3600713,-45.89625,-5.025918,28.60173
90.500989914,-40.18888,-34.83353,-4.848242,0.8923401,-0.03525577,-0.360101,-45.89625,-5.025918,28.60173
90.510849476,-44.59911,-28.6446,-2.273516,0.9338745,-0.02562447,-0.3553406,-45.89625,-5.025918,28.60173
90.520708561,-49.50627,-24.06241,-0.005305246,0.956731,-0.01338895,-0.3905446,-45.89625,-5.025918,28.60173
90.530568123,-55.22093,-21.50353,1.772482,0.9838953,0.001923036,-0.394157,-45.89625,-5.025918,28.60173
90.540427208,-60.6871300000002,-17.2784,2.875936,1.00188,0.005956361,-0.3991712,-45.51165,-5.319205,29.88322
90.550286293,-65.65641,-13.23179,3.488966,1.024333,0.02699984,-0.4203984,-45.51165,-5.319205,29.88322
90.560145855,-71.61954,-9.48272499999998,3.672874,1.041642,0.03244032,-0.4378504,-45.51165,-5.319205,29.88322
90.57000494,-74.7874499999998,-5.97169799999998,4.347208,1.049027,-0.007868709,-0.433983,-45.51165,-5.319205,29.88322
90.579864502,-78.26594,-3.472323,5.328055,1.076649,0.02550296,-0.4240319,-45.51165,-5.319205,29.88322
90.58972311,-83.7321399999997,-0.734911699999999,6.738025,1.107374,0.02379627,-0.4326306,-45.51165,-5.319205,29.88322
90.599582195,-90.7512400000001,1.942991,7.841478,1.119499,0.01278068,-0.4142076,-45.51165,-5.319205,29.88322
90.60944128,-96.5280200000002,5.513526,9.49665899999999,1.105273,-0.007373698,-0.4347805,-45.51165,-5.319205,29.88322
90.621765137,-103.7335,9.67915199999999,10.2936,1.023506,-0.01668812,-0.5194704,-45.51165,-5.319205,29.88322
90.631624699,-109.3239,10.03621,13.66526,1.111604,0.01743893,-0.4509541,-45.51165,-5.319205,29.88322
90.641483784,-117.2747,10.80982,15.32044,1.162501,0.02117811,-0.4823167,-46.25509,-6.046868,29.89463
90.651343346,-123.9211,13.07116,15.68826,1.18114,0.01793935,-0.4816513,-46.25509,-6.046868,29.89463
90.661202431,-130.6918,12.41656,15.74957,1.183004,0.00878897,-0.4606703,-46.25509,-6.046868,29.89463
90.671061516,-135.8474,13.9638,15.32044,1.195954,-0.02130225,-0.4702137,-46.25509,-6.046868,29.89463
90.680921078,-137.5866,14.43987,14.52351,1.205539,-0.03543091,-0.4973046,-46.25509,-6.046868,29.89463
90.690780163,-135.9095,13.84478,14.09438,1.203406,-0.03975737,-0.4781428,-46.99452,-7.510826,29.91357
90.700639725,-134.1081,12.59509,12.62311,1.194244,-0.03540796,-0.4645579,-46.99452,-7.510826,29.91357
90.71049881,-133.4249,13.01165,11.33575,1.194359,-0.04500457,-0.4287006,-46.99452,-7.510826,29.91357
90.720357895,-132.7416,14.6779,11.27445,1.175096,-0.08694325,-0.407216,-46.99452,-7.510826,29.91357
90.730217457,-129.9464,16.76071,11.45835,1.138512,-0.1041911,-0.3785674,-46.99452,-7.510826,29.91357
90.740076065,-128.8904,18.665,11.45835,1.117894,-0.1110936,-0.3538926,-48.48537,-9.345881,29.10797
90.74993515,-127.8344,21.3429,11.45835,1.10638,-0.1432207,-0.3295605,-48.48537,-9.345881,29.10797
90.759794712,-125.1635,24.61589,11.64226,1.089948,-0.1807691,-0.3119128,-48.48537,-9.345881,29.10797
90.769653797,-119.9457,28.72201,12.25529,1.078655,-0.1924631,-0.2893281,-48.48537,-9.345881,29.10797
90.779512882,-114.2932,33.36371,13.42005,1.077517,-0.1773822,-0.2877471,-48.48537,-9.345881,29.10797
90.789372444,-108.5164,38.06491,13.29745,1.064633,-0.1633833,-0.2874453,-49.98146,-10.81903,27.85051
90.8016963,-101.3731,42.88514,13.54266,1.070647,-0.1535258,-0.2682798,-49.98146,-10.81903,27.85051
90.811555386,-95.4720499999999,47.2888,13.72657,1.088509,-0.1490394,-0.2819141,-49.98146,-10.81903,27.85051
90.821414947,-88.5771900000002,50.6213,13.91047,1.09788,-0.161629,-0.2874251,-49.98146,-10.81903,27.85051
90.831274033,-79.57037,52.94215,14.21699,1.098495,-0.1689122,-0.2846202,-49.98146,-10.81903,27.85051
90.841133118,-69.0106700000003,53.89429,14.15569,1.098718,-0.1766604,-0.2751047,-50.7293,-13.04333,26.14862
90.85099268,-58.4509599999997,57.8218800000001,15.56566,1.116231,-0.1521208,-0.2607713,-50.7293,-13.04333,26.14862
90.860851765,-49.50627,57.7028600000003,15.25914,1.133138,-0.09797236,-0.2648681,-50.7293,-13.04333,26.14862
90.870711327,-42.42505,57.10777,14.4009,1.165679,-0.06685557,-0.2190661,-50.7293,-13.04333,26.14862
90.880570412,-36.46193,57.9408999999999,13.84917,1.165397,-0.02557195,-0.2393192,-50.7293,-13.04333,26.14862
90.89042902,-32.0517,56.45317,12.13269,1.148245,0.008443712,-0.2114733,-52.98761,-13.42033,23.66744
90.900288105,-27.02031,56.27465,9.741872,1.12657,0.02188037,-0.2105718,-52.98761,-13.42033,23.66744
90.910147667,-22.42373,55.44152,6.79932699999997,1.111262,0.04562826,-0.20009,-52.98761,-13.42033,23.66744
90.920006752,-18.63466,54.72741,2.75333,1.120135,0.06685454,-0.1406166,-52.98761,-13.42033,23.66744
90.929866314,-14.90771,55.62005,-0.3731232,1.120649,0.0368662,-0.09343629,-52.98761,-13.42033,23.66744
90.939725399,-9.62785199999999,56.98875,-1.353971,1.113643,0.006272858,-0.06005067,-54.87186,-14.54506,20.67976
90.949584484,-2.919334,60.4402699999998,-2.76394,1.12832,-0.02847872,-0.01886278,-54.87186,-14.54506,20.67976
90.959444046,4.90727,62.8206300000003,-2.947849,1.111475,-0.1114151,-0.0356154,-54.87186,-14.54506,20.67976
90.971767902,39.25737,66.6292000000002,-9.13945200000001,1.154409,0.5324848,-0.6259589,-54.87186,-14.54506,20.67976
90.981626987,14.84582,51.15688,-22.25829,1.012335,-0.1068164,-0.5210302,-54.87186,-14.54506,20.67976
90.991486549,-31.11996,15.92759,7.902781,1.217767,-1.502813,-0.4609844,-56.013,-14.19872,18.18525
91.001345634,20.56048,13.13067,25.25153,1.243304,-0.7161317,-0.04882732,-56.013,-14.19872,18.18525
91.01120472,69.6320500000001,29.13857,24.27068,1.082462,-0.6480873,-0.3392307,-56.013,-14.19872,18.18525
91.021064281,68.45185,16.87973,22.86071,1.098166,-0.2036178,-0.1957773,-56.013,-14.19872,18.18525
91.030923367,47.27033,12.95214,12.25529,1.132958,0.2269175,0.07954559,-56.013,-14.19872,18.18525
91.040781975,17.5168,16.82022,2.508117,1.110699,0.2468047,0.1150122,-57.81652,-16.40456,16.93693
91.050641537,-5.155508,23.18768,-1.783092,1.124875,0.09975336,0.05654445,-57.81652,-16.40456,16.93693
91.060500622,-21.05718,20.27174,-3.928697,1.068802,0.05593805,-0.0757644,-57.81652,-16.40456,16.93693
91.070359707,-29.00802,12.77362,-4.664333,1.097742,0.02182201,-0.02854484,-57.81652,-16.40456,16.93693
91.080219269,-29.87764,12.17853,-4.112606,1.104268,-0.1031429,-0.01867089,-57.81652,-16.40456,16.93693
91.090078354,-22.17527,11.64295,-1.415274,1.060755,-0.1588262,-0.1014222,-58.21555,-12.35686,16.44929
91.099937916,-11.18075,5.930089,0.669027700000002,1.006854,-0.1623931,-0.1466872,-58.21555,-12.35686,16.44929
91.109797001,1.490895,0.812320599999997,1.772482,0.986342,-0.1596359,-0.1415796,-58.21555,-12.35686,16.44929
91.119656086,15.21851,-1.92509,1.833785,1.037351,-0.1453418,-0.08372362,-58.21555,-12.35686,16.44929
91.129515648,25.90245,-3.353305,1.649876,1.020971,-0.07649439,-0.1121403,-58.21555,-12.35686,16.44929
91.139374733,29.87787,-7.459421,0.3625127,1.009385,-0.00212589,-0.1070348,-58.2107,-14.95171,15.19541
91.151698589,26.33726,-10.19683,-1.844395,1.032815,0.04981957,-0.06523995,-58.2107,-14.95171,15.19541
91.161558151,18.88335,-11.14898,-3.070455,1.030928,0.03517529,-0.07300384,-58.2107,-14.95171,15.19541
91.171417236,13.16869,-14.0054,-5.21606,1.055182,-0.03225992,-0.07583542,-58.2107,-14.95171,15.19541
91.181276321,13.35504,-16.20724,-6.19690800000001,1.074934,-0.1183148,-0.1022408,-58.2107,-14.95171,15.19541
91.191135883,19.69086,-18.70661,-8.03599700000001,1.081645,-0.1819808,-0.09664412,-57.46684,-13.10713,16.06888
91.200994492,30.18845,-20.19433,-9.26205699999998,1.06996,-0.2206389,-0.1265142,-57.46684,-13.10713,16.06888
91.210853577,44.28876,-22.21764,-11.53027,1.091852,-0.2727189,-0.1814153,-57.46684,-13.10713,16.06888
91.220713139,62.7993000000003,-27.03786,-13.73718,1.108675,-0.2835286,-0.2488342,-57.46684,-13.10713,16.06888
91.230572224,81.62042,-32.39367,-15.76018,1.133387,-0.2776515,-0.2970567,-57.46684,-13.10713,16.06888
91.240431309,98.5159500000001,-38.34456,-17.90578,1.147245,-0.2726021,-0.2809188,-57.82857,-14.19567,16.91431
91.250290871,111.3739,-42.39117,-19.74487,1.169775,-0.259701,-0.2677135,-57.82857,-14.19567,16.91431
91.260149956,122.3685,-45.30711,-20.90963,1.180269,-0.2508943,-0.2797687,-57.82857,-14.19567,16.91431
91.270009518,131.5616,-48.04451,-21.95178,1.182277,-0.2300038,-0.2935178,-57.82857,-14.19567,16.91431
91.279868603,141.3759,-50.90094,-23.30044,1.183412,-0.2339912,-0.3213612,-57.82857,-14.19567,16.91431
91.289727688,153.0537,-53.34081,-24.89432,1.199876,-0.2276803,-0.3641914,-56.37753,-14.17658,19.46745
91.29958725,164.4209,-56.37577,-26.61081,1.204665,-0.2048548,-0.3875478,-56.37753,-14.17658,19.46745
91.309446335,176.3472,-60.06532,-28.94032,1.223507,-0.1647187,-0.3697472,-56.37753,-14.17658,19.46745
91.321770191,184.7328,-63.2788000000001,-33.04762,1.259311,-0.07738876,-0.3939596,-56.37753,-14.17658,19.46745
91.331629753,187.5281,-64.9450499999998,-36.6032,1.28966,-0.06504411,-0.4177688,-56.37753,-14.17658,19.46745
91.341488838,191.255,-66.6113000000001,-38.44228,1.290964,-0.08265384,-0.4452504,-54.12006,-11.94103,23.21006
91.351347923,197.3424,-70.3603600000002,-40.89441,1.295214,-0.07205276,-0.4830782,-54.12006,-11.94103,23.21006
91.361206532,205.4796,-73.0977700000003,-44.63389,1.318883,-0.07325575,-0.4704873,-54.12006,-11.94103,23.21006
91.371066094,212.9956,-74.5854900000003,-48.86379,1.299139,-0.05053275,-0.4633054,-54.12006,-11.94103,23.21006
91.380925179,216.8468,-73.3358099999999,-50.76419,1.29719,-0.02808939,-0.4429618,-54.12006,-11.94103,23.21006
91.390784741,218.3376,-71.4315300000003,-50.70288,1.271055,-0.01972562,-0.486605,-52.60757,-10.0641,27.0243
91.400643826,219.7041,-73.4548300000002,-51.19331,1.250134,-0.02853232,-0.4499621,-52.60757,-10.0641,27.0243
91.410502911,220.2632,-72.3241599999999,-51.99025,1.242086,-0.01597058,-0.4550126,-52.60757,-10.0641,27.0243
91.420362473,217.7785,-70.3603600000002,-51.92894,1.239223,-0.002793804,-0.4380886,-52.60757,-10.0641,27.0243
91.430221558,213.3062,-67.8014799999997,-51.62243,1.232915,0.01341098,-0.3841916,-52.60757,-10.0641,27.0243
91.44008112,203.0571,-62.8027300000001,-50.76419,1.202293,0.03662924,-0.3490568,-49.97636,-7.832861,30.76498
91.449940205,189.081,-55.84019,-48.55728,1.174556,0.04325912,-0.3323128,-49.97636,-7.832861,30.76498
91.45979929,172.8687,-52.80523,-46.9021,1.126855,0.03167383,-0.3245427,-49.97636,-7.832861,30.76498
91.469658852,156.3459,-46.14023,-43.28522,1.116774,0.007496566,-0.2599111,-49.97636,-7.832861,30.76498
91.47951746,140.5063,-36.97585,-38.6875,1.090346,-6.425648e-05,-0.2672655,-49.97636,-7.832861,30.76498
91.489376545,126.1575,-28.40657,-35.31583,1.052154,-0.01164144,-0.2797572,-46.98018,-5.622868,33.28745
91.501701355,112.2436,-18.29005,-31.02462,1.036195,-0.03858428,-0.2898203,-46.98018,-5.622868,33.28745
91.51156044,106.032,-9.36370700000002,-27.59165,1.004913,-0.06473012,-0.3106799,-46.98018,-5.622868,33.28745
91.521419048,102.7398,-2.758215,-25.81387,0.9662105,-0.04374183,-0.3319944,-46.98018,-5.622868,33.28745
91.531278134,100.9385,4.561384,-24.5265,0.9404489,-0.02453037,-0.3386531,-46.98018,-5.622868,33.28745
91.541137695,100.4415,12.29755,-23.23914,0.9285417,-0.02091128,-0.3834975,-44.36578,-4.230267,34.09165
91.55099678,101.0006,18.90304,-21.95178,0.8961492,-0.05296222,-0.4192463,-44.36578,-4.230267,34.09165
91.560856342,104.3549,24.73491,-20.60311,0.8663595,-0.05871768,-0.4562479,-44.36578,-4.230267,34.09165
91.570715427,107.647,28.18643,-19.31575,0.836683,-0.04100597,-0.464301,-44.36578,-4.230267,34.09165
91.580574512,107.2743,30.86433,-18.51881,0.8185535,0.005559877,-0.4612537,-44.36578,-4.230267,34.09165
91.590434074,104.1685,33.9588,-17.90578,0.8091325,0.0321588,-0.4829381,-43.62757,-3.140693,33.62838
91.600293159,99.0749999999999,36.6367,-16.92493,0.7944072,0.03969111,-0.5157294,-43.62757,-3.140693,33.62838
91.610152721,93.1739899999999,38.42197,-15.45366,0.7744616,0.04526875,-0.5383996,-43.62757,-3.140693,33.62838
91.620011806,87.2729700000002,38.42197,-14.2276,0.7569081,0.05489363,-0.5256091,-43.62757,-3.140693,33.62838
91.629870891,79.6327099999998,38.24344,-12.94024,0.7514005,0.07824475,-0.5143119,-43.62757,-3.140693,33.62838
91.6397295,70.56379,37.76737,-10.79463,0.7336327,0.0882968,-0.516849,-43.2686,-2.057495,32.39888
91.649589062,61.8675700000001,37.23179,-8.09730099999998,0.708129,0.07535879,-0.5328875,-43.2686,-2.057495,32.39888
91.659448147,53.97885,35.9821,-5.032151,0.6754678,0.07314822,-0.526211,-43.2686,-2.057495,32.39888
91.671772957,44.97204,33.12567,-1.231365,0.6491082,0.06804813,-0.5263576,-43.2686,-2.057495,32.39888
91.681631565,38.88468,30.32875,2.078996,0.6300668,0.05519581,-0.5348203,-43.2686,-2.057495,32.39888
91.69149065,34.53656,27.82938,5.450662,0.6318219,0.04747918,-0.5205345,-43.65354,-1.702849,31.11676
91.701349735,30.56114,24.85393,8.27059900000003,0.6044039,0.04527696,-0.5239958,-43.65354,-1.702849,31.11676
91.711209297,26.0888,21.3429,10.96793,0.5829607,0.04852703,-0.5150372,-43.65354,-1.702849,31.11676
91.721068382,20.87106,17.41531,13.11354,0.5635165,0.05424764,-0.500815,-43.65354,-1.702849,31.11676
91.730927944,15.03217,13.78527,14.83002,0.5560063,0.04303945,-0.487385,-43.65354,-1.702849,31.11676
91.740787029,10.80828,10.57179,16.11738,0.5520732,0.02932883,-0.5008622,-43.67078,-0.2480779,29.8214
91.750646114,8.50999500000001,7.23928599999999,17.71126,0.5397261,0.0448103,-0.4957636,-43.67078,-0.2480779,29.8214
91.760505676,5.155734,3.66875,17.64996,0.5361783,0.06622674,-0.4859483,-43.67078,-0.2480779,29.8214
91.770364761,2.17417,0.7528117,16.73041,0.5264212,0.07395934,-0.4771183,-43.67078,-0.2480779,29.8214
91.780224323,0.5591566,-2.341653,15.68826,0.5304213,0.06341286,-0.4441996,-43.67078,-0.2480779,29.8214
91.790083408,0.3106929,-4.424465,14.4622,0.5404454,0.06454451,-0.4256442,-44.05053,0.8606811,29.81202
91.799942017,0.3106929,-6.62629599999999,13.29745,0.5301402,0.08494984,-0.4099907,-44.05053,0.8606811,29.81202
91.809801102,0.1243452,-8.59009099999999,11.58096,0.53307,0.112315,-0.3863207,-44.05053,0.8606811,29.81202
91.819660664,-1.6149,-10.37536,9.00623499999997,0.5290148,0.1171222,-0.3924519,-44.05053,0.8606811,29.81202
91.829519749,-3.229914,-11.9821,6.37020600000001,0.5281358,0.1225124,-0.380414,-44.05053,0.8606811,29.81202
91.839379311,-5.031276,-13.70786,3.550268,0.5244436,0.1044764,-0.3800344,-43.29985,0.8582854,30.25626
91.851703167,-6.149363,-15.9692,0.1173007,0.5130173,0.1077445,-0.3899071,-43.29985,0.8582854,30.25626
91.861562252,-7.26744899999998,-18.52808,-3.99,0.5056925,0.1161183,-0.3456457,-43.29985,0.8582854,30.25626
91.871421337,-9.87631700000001,-20.31335,-8.21990700000003,0.4904585,0.1204934,-0.3108893,-43.29985,0.8582854,30.25626
91.881280899,-13.54116,-20.13482,-11.89809,0.4921997,0.1078906,-0.3019157,-43.29985,0.8582854,30.25626
91.891139984,-16.08791,-20.31335,-14.2276,0.5108485,0.09014299,-0.2774129,-42.92738,1.59561,30.63087
91.900999546,-17.14388,-19.89679,-16.43451,0.5265085,0.07026603,-0.2945758,-42.92738,1.59561,30.63087
91.910858631,-16.21214,-19.36121,-18.58011,0.5142453,0.0852832,-0.2837319,-42.92738,1.59561,30.63087
91.920717716,-16.58484,-18.70661,-20.2966,0.5431393,0.09775361,-0.2706209,-42.92738,1.59561,30.63087
91.930577278,-19.25582,-17.63545,-20.97093,0.5649481,0.1032607,-0.2809484,-42.92738,1.59561,30.63087
91.940436363,-21.74046,-16.32625,-21.21614,0.573594,0.05948795,-0.2953378,-42.54365,0.866581,31.46865
91.950295925,-21.24353,-15.61215,-20.78702,0.5791607,0.01467168,-0.321193,-42.54365,0.866581,31.46865
91.96015501,-18.07562,-15.73116,-20.4192,0.592746,0.01134345,-0.3324362,-42.54365,0.866581,31.46865
91.970013618,-16.21214,-15.49313,-19.80617,0.6136303,0.03478649,-0.3588921,-42.54365,0.866581,31.46865
91.979872704,-16.8333,-15.79067,-18.88663,0.6327368,0.04263995,-0.3859333,-42.54365,0.866581,31.46865
91.989732265,-17.82716,-16.74282,-17.53796,0.6588119,0.03594145,-0.4170302,-42.90691,0.1470752,32.37432
91.999591351,-18.51043,-18.29005,-16.00539,0.6750158,0.04768399,-0.4382468,-42.90691,0.1470752,32.37432
92.009450912,-21.67834,-19.77777,-14.71802,0.7035963,0.04200061,-0.4640997,-42.90691,0.1470752,32.37432
92.021774769,-24.84625,-21.44402,-12.32721,0.7173395,0.009423828,-0.4894889,-42.90691,0.1470752,32.37432
92.031633854,-25.77799,-23.22929,-10.059,0.7204129,0.006559893,-0.4818897,-42.90691,0.1470752,32.37432
92.041492939,-28.20051,-24.65751,-7.54557400000002,0.7466974,0.01798549,-0.4816886,-41.77373,-0.9587345,33.21202
92.051352501,-30.93361,-25.37161,-4.725636,0.7635565,0.02405619,-0.4598345,-41.77373,-0.9587345,33.21202
92.061211586,-34.66056,-25.49063,-1.599183,0.775192,0.03012411,-0.4264052,-41.77373,-0.9587345,33.21202
92.071071148,-39.31926,-24.41947,1.772482,0.7774255,0.03705554,-0.4000225,-41.77373,-0.9587345,33.21202
92.080930233,-45.40662,-23.16978,5.573267,0.7910811,0.04595305,-0.3953501,-41.77373,-0.9587345,33.21202
92.090789318,-51.99091,-20.72991,8.57711400000001,0.7947164,0.02651447,-0.3970035,-42.13942,-2.427009,33.22903
92.10064888,-56.15267,-20.19433,11.64226,0.7922548,0.01135332,-0.4114724,-42.13942,-2.427009,33.22903
92.110507965,-58.8236499999999,-16.26674,15.38175,0.827765,0.01055324,-0.3194997,-42.13942,-2.427009,33.22903
92.120367527,-62.79908,-11.26799,18.14038,0.8094043,0.03313007,-0.3545083,-42.13942,-2.427009,33.22903
92.130226135,-66.7744999999998,-7.280894,21.08293,0.8084081,0.03786343,-0.3875189,-42.13942,-2.427009,33.22903
92.14008522,-70.8741500000001,-4.126921,23.35114,0.8103684,0.0440935,-0.4176838,-42.5004,-3.14206,34.45477
92.149944305,-76.21612,-1.865581,25.68065,0.830948,0.06026141,-0.4370087,-42.5004,-3.14206,34.45477
92.159803867,-83.1109800000002,0.0387045,27.76495,0.8245224,0.04993346,-0.450901,-42.5004,-3.14206,34.45477
92.169662952,-90.5648999999999,1.704955,29.78795,0.8069646,0.01317557,-0.4792338,-42.5004,-3.14206,34.45477
92.179522514,-94.8508899999998,3.07366,31.81095,0.8256544,-0.02129519,-0.5023134,-42.5004,-3.14206,34.45477
92.189381599,-96.7764799999999,4.858928,33.89525,0.853618,-0.007355085,-0.4843848,-42.12863,-3.894253,33.6282
92.201705456,-103.6092,6.22763400000003,34.8148,0.876406,0.01560188,-0.5151846,-42.12863,-3.894253,33.6282
92.211564541,-110.442,7.53682999999999,35.24392,0.8771457,0.03458333,-0.5159933,-42.12863,-3.894253,33.6282
92.221424103,-119.1382,8.90553600000001,35.85695,0.9082842,0.008448044,-0.5516393,-42.12863,-3.894253,33.6282
92.231283188,-124.6665,10.09571,37.51213,0.931654,-0.0488513,-0.5744991,-42.12863,-3.894253,33.6282
92.24114275,-124.7286,9.61964300000001,38.79949,0.9497213,-0.0506532,-0.5786054,-43.25057,-4.254798,33.25368
92.251001835,-127.0269,8.13191999999998,38.00255,0.9659088,0.02845995,-0.5417493,-43.25057,-4.254798,33.25368
92.26086092,-135.4126,8.72700900000001,37.57343,0.9942101,0.06286664,-0.5169439,-43.25057,-4.254798,33.25368
92.270720482,-146.7798,9.85767899999999,38.00255,0.982839,0.0384567,-0.5112374,-43.25057,-4.254798,33.25368
92.280579567,-158.5818,10.51228,39.96425,0.9778342,0.01508144,-0.5041754,-43.25057,-4.254798,33.25368
92.290439129,-169.6384,12.53558,42.04855,0.9958251,-0.01603585,-0.539676,-43.99724,-4.988697,32.81699
92.300298214,-174.5456,13.24969,44.68458,1.010696,-0.0440323,-0.5142474,-43.99724,-4.988697,32.81699
92.310156822,-178.2104,13.19018,45.97194,1.037341,-0.02238611,-0.5144445,-43.99724,-4.988697,32.81699
92.320015907,-178.3347,13.9638,47.2593,1.071255,-0.03291764,-0.5480815,-43.99724,-4.988697,32.81699
92.329875469,-176.4091,13.84478,48.05624,1.07652,-0.04839125,-0.5343903,-43.99724,-4.988697,32.81699
92.339734554,-173.7381,14.20183,47.62712,1.067898,-0.04513451,-0.5538872,-44.73897,-7.139175,32.01067
92.349594116,-170.3217,13.3092,47.44321,1.083903,-0.05612494,-0.5379152,-44.73897,-7.139175,32.01067
92.359453201,-168.0234,12.6546,45.97194,1.075629,-0.05068109,-0.4941442,-44.73897,-7.139175,32.01067
92.371777058,-168.7067,13.24969,44.62328,1.069788,-0.03984851,-0.4465288,-44.73897,-7.139175,32.01067
92.381636143,-170.6323,15.03496,43.51982,1.037855,-0.05175107,-0.4308397,-46.60079,-8.964568,31.59108
92.391495705,-172.3094,17.2963,42.35506,1.011372,-0.05626304,-0.4036652,-46.60079,-8.964568,31.59108
92.40135479,-174.9183,20.80732,41.98725,0.9968941,-0.06512459,-0.3968249,-46.60079,-8.964568,31.59108
92.411214352,-176.347,24.91344,41.68073,0.9909016,-0.08607,-0.3882906,-46.60079,-8.964568,31.59108
92.421073437,-176.0364,29.3171,41.0677,0.9775535,-0.1026915,-0.3772191,-46.60079,-8.964568,31.59108
92.430932522,-172.8685,33.3042,40.20946,0.9734091,-0.1133978,-0.3676664,-48.09964,-10.44306,29.94953
92.440792084,-167.9613,37.64835,39.59643,1.004423,-0.1300219,-0.3323087,-48.09964,-10.44306,29.94953
92.450651169,-159.6999,42.6471,39.65773,1.015843,-0.1383093,-0.3632102,-48.09964,-10.44306,29.94953
92.460510731,-149.2023,47.22929,39.47382,1.038144,-0.1347498,-0.3749988,-48.09964,-10.44306,29.94953
92.470369339,-137.0276,49.90719,37.94125,1.063611,-0.1038932,-0.3818102,-48.09964,-10.44306,29.94953
92.480228424,-126.0952,51.87099,36.04086,1.094109,-0.08320616,-0.3873414,-48.09964,-10.44306,29.94953
92.490087509,-115.1628,53.18018,33.89525,1.102157,-0.07881505,-0.4032327,-49.97063,-13.4023,27.4288
92.499947071,-103.9198,53.12067,31.56574,1.105509,-0.07441129,-0.4046808,-49.97063,-13.4023,27.4288
92.509806156,-91.9314400000002,51.39491,29.54274,1.114203,-0.0688595,-0.3721724,-49.97063,-13.4023,27.4288
92.519665718,-81.1232800000002,52.22804,28.50059,1.106481,-0.01790516,-0.3912795,-49.97063,-13.4023,27.4288
92.529524803,-73.9178199999997,49.25259,25.55804,1.103907,0.03902401,-0.3864495,-49.97063,-13.4023,27.4288
92.54184866,-71.1226099999998,43.83728,21.08293,1.114281,0.08539007,-0.3742261,-52.60067,-14.14312,24.95333
92.551707744,-70.4393399999999,41.75447,19.18253,1.122847,0.07590562,-0.328425,-52.60067,-14.14312,24.95333
92.561567306,-69.3833599999998,38.66,17.40475,1.083591,0.1105416,-0.3424285,-52.60067,-14.14312,24.95333
92.571426392,-70.3772199999998,34.43487,14.52351,1.082948,0.1295343,-0.3369878,-52.60067,-14.14312,24.95333
92.581285953,-71.8058899999999,30.44777,11.58096,1.064395,0.1337741,-0.330458,-53.73549,-14.52861,22.78642
92.591145039,-71.8679999999997,26.04411,8.39320599999999,1.062744,0.1245676,-0.3161362,-53.73549,-14.52861,22.78642
92.601004124,-71.2468400000002,22.59259,5.328055,1.062725,0.1080976,-0.2961485,-53.73549,-14.52861,22.78642
92.610863686,-68.8864399999999,18.665,2.446815,1.033649,0.06215794,-0.2803082,-53.73549,-14.52861,22.78642
92.620722771,-63.6686999999998,15.57054,0.852936600000002,1.028468,0.01361497,-0.2365577,-53.73549,-14.52861,22.78642
92.630582333,-57.02229,14.14232,-0.005305246,1.032728,-0.03968601,-0.1862731,-55.24358,-14.9089,20.68546
92.640441418,-52.86053,12.83313,1.220755,1.038717,-0.1093642,-0.09541944,-55.24358,-14.9089,20.68546
92.650300026,-50.06531,18.96255,3.550268,1.060047,-0.2325626,-0.03878004,-55.24358,-14.9089,20.68546
92.660159111,-48.76088,22.05701,13.29745,1.01829,-0.6178692,-0.1751333,-55.24358,-14.9089,20.68546
92.670018673,-21.42988,21.81897,30.27838,1.046302,-0.6949656,-0.5566675,-55.24358,-14.9089,20.68546
92.679877758,10.12501,11.22638,37.02171,1.057018,-0.935204,-0.4126919,-55.98899,-16.38444,19.87223
92.68973732,38.88468,1.823973,30.15577,1.131502,-0.2411141,-0.1520033,-55.98899,-16.38444,19.87223
92.699596405,40.74816,15.09447,21.32814,1.182266,0.1730809,-0.1190417,-55.98899,-16.38444,19.87223
92.70945549,23.23146,16.40366,13.97178,0.9418985,0.3498424,-0.2976575,-55.98899,-16.38444,19.87223
92.721779346,-13.23058,5.454018,5.021541,1.000398,0.2932869,-0.0756616,-55.98899,-16.38444,19.87223
92.731638908,-31.05785,11.22638,1.036846,1.027732,0.2104308,-0.04560246,-56.37673,-14.91911,19.0269
92.741497993,-33.35613,18.0104,-1.047456,0.9948074,0.07583579,-0.1746946,-56.37673,-14.91911,19.0269
92.751357555,-28.82167,13.72576,-0.1892142,1.01237,0.01153218,-0.2349083,-56.37673,-14.91911,19.0269
92.76121664,-23.41759,10.80982,-0.863547200000001,1.071039,-0.02723349,-0.2001317,-56.37673,-14.91911,19.0269
92.771075726,-14.47289,11.82147,-0.7409412,1.086192,-0.0756551,-0.1720043,-56.37673,-14.91911,19.0269
92.780935287,-1.117973,13.07116,0.607724700000001,1.062227,-0.09685943,-0.1900513,-56.74767,-16.02548,18.59204
92.790794373,11.18098,11.58344,0.852936600000002,1.031996,-0.05329467,-0.180148,-56.74767,-16.02548,18.59204
92.800653934,18.32431,12.41656,0.1173007,1.043854,0.03458828,-0.1302177,-56.74767,-16.02548,18.59204
92.81051302,19.19393,13.24969,-1.53788,1.058866,0.04409052,-0.09728675,-56.74767,-16.02548,18.59204
92.820372105,17.01987,10.86933,-0.863547200000001,1.015636,0.04205763,-0.1479621,-56.74767,-16.02548,18.59204
92.830230713,13.41715,7.95339299999998,-1.905698,1.048862,0.04469964,-0.0410727,-56.76569,-13.82817,17.73724
92.840090275,7.205559,7.71535699999999,-1.660486,1.043892,0.02279897,-0.0301651,-56.76569,-13.82817,17.73724
92.84994936,1.553011,4.263839,-1.721789,1.02671,0.001012935,-0.0895248,-56.76569,-13.82817,17.73724
92.859808922,-1.92548,-0.1398223,-1.660486,1.017403,-4.943291e-05,-0.09131791,-56.76569,-13.82817,17.73724
92.869668007,-5.90089900000001,-2.103617,-2.580031,1.04032,0.0142915,-0.08433551,-56.76569,-13.82817,17.73724
92.879527092,-7.51591300000002,-3.472323,-3.438273,1.029013,-0.02439387,-0.1223576,-57.44763,-13.81402,18.18888
92.891850948,-6.39782600000002,-7.99500200000002,-3.928697,1.031054,-0.07596941,-0.1256972,-57.44763,-13.81402,18.18888
92.90171051,-1.801248,-11.02996,-3.806091,1.050491,-0.08657436,-0.1447525,-57.44763,-13.81402,18.18888
92.911569595,3.478605,-13.17228,-4.051303,1.074248,-0.09409916,-0.1312578,-57.44763,-13.81402,18.18888
92.921429157,9.31750099999999,-15.3146,-4.419121,1.0713,-0.11157,-0.111716,-57.44763,-13.81402,18.18888
92.931288242,15.77756,-19.00416,-5.399969,1.071871,-0.1123835,-0.07051989,-57.43358,-16.39106,18.21527
92.941147327,20.6226,-20.49188,-7.790786,1.114711,-0.0972798,-0.03697983,-57.43358,-16.39106,18.21527
92.951006889,25.84033,-21.9796,-8.894239,1.152882,-0.09986724,-0.03850409,-57.43358,-16.39106,18.21527
92.960865974,30.68537,-25.43112,-10.059,1.211167,-0.1343484,-0.02812501,-57.43358,-16.39106,18.21527
92.970725536,40.06488,-28.88264,-12.38851,1.220219,-0.1590994,-0.03181732,-57.43358,-16.39106,18.21527
92.980584621,48.57476,-32.03661,-15.14715,1.207755,-0.147422,-0.002789149,-56.74444,-16.01924,19.04014
92.990443707,50.6867,-33.34581,-17.41536,1.233401,-0.08819723,0.02849312,-56.74444,-16.01924,19.04014
93.000302315,49.25804,-34.17893,-19.62226,1.260587,-0.08521993,-0.02026836,-56.74444,-16.01924,19.04014
93.010161877,52.6123,-36.79733,-21.58396,1.275465,-0.1563132,-0.06804195,-56.74444,-16.01924,19.04014
93.020020962,63.4204599999998,-38.64211,-22.93263,1.291261,-0.1992333,-0.1314044,-56.74444,-16.01924,19.04014
93.029880524,79.01156,-41.55804,-24.5265,1.287027,-0.1636361,-0.2311963,-56.36678,-14.5278,20.68749
93.039739609,94.7268800000002,-45.18809,-27.65296,1.264475,-0.09799126,-0.3204104,-56.36678,-14.5278,20.68749
93.049598694,106.3426,-49.88929,-31.76026,1.279593,-0.04590045,-0.3498966,-56.36678,-14.5278,20.68749
93.059458256,114.604,-52.74572,-32.25068,1.310096,-0.09285764,-0.4863411,-56.36678,-14.5278,20.68749
93.071782112,128.0831,-61.1364799999998,-30.28899,1.309006,-0.1864198,-0.6486053,-56.36678,-14.5278,20.68749
93.081641197,144.6681,-71.9670999999999,-30.10508,1.391701,-0.1530527,-0.5105346,-54.47973,-14.51374,23.23838
93.091500759,158.3336,-74.8830399999997,-32.31199,1.491808,-0.04147005,-0.3183815,-54.47973,-14.51374,23.23838
93.101359844,156.1595,-72.2051400000001,-33.17023,1.491597,0.02256263,-0.2416454,-54.47973,-14.51374,23.23838
93.111218929,144.3575,-68.9321399999998,-30.5342,1.421473,-0.06083368,-0.2552465,-54.47973,-14.51374,23.23838
93.121078491,138.5807,-69.5272399999999,-23.85217,1.413136,-0.1365883,-0.3233342,-54.47973,-14.51374,23.23838
93.130937576,138.9534,-70.95545,-17.47666,1.445219,-0.1334312,-0.3357448,-52.21699,-13.75613,26.61198
93.140797138,135.1022,-70.2413399999998,-12.02069,1.454968,-0.08173746,-0.3287386,-52.21699,-13.75613,26.61198
93.150656223,125.1016,-67.0873700000001,-8.95554300000003,1.436751,-0.03213204,-0.293558,-52.21699,-13.75613,26.61198
93.160515308,113.0511,-61.7910800000001,-7.42296799999998,1.401783,-0.02456016,-0.2680773,-52.21699,-13.75613,26.61198
93.17037487,101.9944,-56.97086,-6.19690800000001,1.356578,0.01404251,-0.2484185,-52.21699,-13.75613,26.61198
93.180233955,89.0122099999999,-51.55554,-3.99,1.332494,0.03856227,-0.2708699,-49.95227,-12.25063,30.81022
93.190092564,75.71941,-45.2476,-1.170062,1.300999,0.05239013,-0.2722211,-49.95227,-12.25063,30.81022
93.199952126,62.6750800000001,-35.19059,2.875936,1.28851,0.06064288,-0.2480135,-49.95227,-12.25063,30.81022
93.209811211,47.89149,-24.77652,7.04453900000001,1.212011,0.04583837,-0.3817032,-49.95227,-12.25063,30.81022
93.219670296,37.3939,-22.99125,11.82617,1.169673,-1.569651e-05,-0.4413867,-49.95227,-12.25063,30.81022
93.229529858,31.74135,-17.87349,15.38175,1.171341,0.04692413,-0.3854272,-47.337,-10.42229,32.05812
93.239388943,24.59801,-10.07781,16.05608,1.149972,0.1340352,-0.3331131,-47.337,-10.42229,32.05812
93.251712799,9.814428,-0.3183491,16.73041,1.087802,0.1826484,-0.3289416,-47.337,-10.42229,32.05812
93.261572361,-0.745277600000001,7.29879500000003,18.07908,1.045045,0.1232748,-0.359502,-47.337,-10.42229,32.05812
93.271431446,-2.732987,13.01165,21.14423,0.9824994,0.07001185,-0.4007505,-47.337,-10.42229,32.05812
93.281290531,-0.1862344,18.60549,23.96417,0.9464197,0.07496087,-0.423196,-45.46037,-10.80044,32.88441
93.291150093,2.48475,21.40241,25.80326,0.9131599,0.09769706,-0.5102236,-45.46037,-10.80044,32.88441
93.301009178,5.52843,23.12817,25.86456,0.9225881,0.1194346,-0.4454826,-45.46037,-10.80044,32.88441
93.31086874,7.32979100000002,28.78152,26.17107,0.9013964,0.1415269,-0.4732669,-45.46037,-10.80044,32.88441
93.320727825,9.379617,35.80357,25.49674,0.855854,0.145234,-0.5449457,-45.46037,-10.80044,32.88441
93.33058691,13.54138,34.79192,24.51589,0.8092517,0.1477149,-0.5519277,-45.8453,-10.44579,31.6023
93.340446472,16.15025,36.27964,22.43159,0.7952215,0.1022287,-0.5803843,-45.8453,-10.44579,31.6023
93.350305557,19.81509,38.00541,21.08293,0.7765371,0.06701978,-0.582332,-45.8453,-10.44579,31.6023
93.360165119,25.90245,41.57594,18.75341,0.7626365,0.07771665,-0.551854,-45.8453,-10.44579,31.6023
93.370024204,28.13862,44.49188,15.68826,0.7471374,0.1187684,-0.4683852,-45.8453,-10.44579,31.6023
93.379882813,26.02668,48.24094,11.64226,0.7416869,0.1511942,-0.3731523,-45.48877,-10.11136,29.48414
93.389741898,20.43625,54.25134,8.08669100000001,0.7516379,0.151952,-0.3244094,-45.48877,-10.11136,29.48414
93.39960146,14.41101,60.3807599999999,5.266753,0.7295132,0.109873,-0.333554,-45.48877,-10.11136,29.48414
93.409460545,10.99463,65.6770600000002,3.305056,0.6949367,0.05311069,-0.3359362,-45.48877,-10.11136,29.48414
93.421784401,12.54753,71.3304100000001,1.098149,0.672365,0.02178036,-0.3325246,-45.48877,-10.11136,29.48414
93.431643963,16.3366,75.3175099999998,-1.170062,0.6585541,0.03152635,-0.2963055,-45.50274,-9.766377,27.81601
93.441503048,19.62874,80.4352799999997,-3.683485,0.664837,0.03413716,-0.2637875,-45.50274,-9.766377,27.81601
93.451362133,23.3557,85.6720700000001,-6.50342299999999,0.6475427,0.05541823,-0.257611,-45.50274,-9.766377,27.81601
93.461221695,23.91474,90.3732700000002,-8.894239,0.6220379,0.07163839,-0.2839458,-45.50274,-9.766377,27.81601
93.47108078,20.99529,93.8842999999999,-9.44596699999999,0.5838255,0.1232544,-0.3141135,-45.50274,-9.766377,27.81601
93.480940342,16.46083,94.4793900000003,-11.59157,0.5670127,0.1264733,-0.3243891,-46.64229,-10.90509,24.44039
93.490799427,12.17483,94.6579100000002,-14.41151,0.5753016,0.1050572,-0.3452935,-46.64229,-10.90509,24.44039
93.500658512,9.87654400000001,94.5388899999999,-15.94408,0.5522476,0.09005388,-0.3987619,-46.64229,-10.90509,24.44039
93.510518074,9.00692200000002,91.1468899999998,-17.47666,0.5344832,0.07178968,-0.4259772,-46.64229,-10.90509,24.44039
93.520377159,6.770748,85.6720700000001,-18.3349,0.5091248,0.05596378,-0.4338958,-46.64229,-10.90509,24.44039
93.530236721,5.652661,80.0782199999998,-17.84448,0.511592,0.01902146,-0.4289715,-48.16557,-11.31478,20.22697
93.540095806,6.27382000000002,74.4248699999999,-16.55711,0.5138857,-0.01650567,-0.4355336,-48.16557,-11.31478,20.22697
93.549954891,8.69634200000002,68.1764399999998,-14.96324,0.4897327,-0.03274642,-0.4271801,-48.16557,-11.31478,20.22697
93.559813499,10.74617,60.85683,-13.24675,0.4912094,-0.02638385,-0.4209178,-48.16557,-11.31478,20.22697
93.569673061,11.11886,54.31085,-12.2046,0.4771546,0.01538036,-0.4103019,-48.16557,-11.31478,20.22697
93.579532146,8.69634200000002,47.34831,-12.1433,0.4642259,0.03864277,-0.4051293,-50.4243,-12.80869,16.86091
93.589391708,4.410343,39.79067,-12.2046,0.4488074,0.04966536,-0.4139213,-50.4243,-12.80869,16.86091
93.601715565,0.807620300000002,29.55514,-12.2046,0.4326685,0.02475921,-0.3995255,-50.4243,-12.80869,16.86091
93.61157465,-0.807393600000001,20.6883,-11.59157,0.4638973,-0.004985807,-0.3599688,-50.4243,-12.80869,16.86091
93.621433735,-0.6210458,13.19018,-11.10115,0.4762318,-0.0369354,-0.3446007,-50.4243,-12.80869,16.86091
93.631293297,1.925707,6.64419700000002,-9.62987599999997,0.468163,-0.05549112,-0.3427255,-49.68404,-13.20329,15.58054
93.641152382,4.596691,-0.4968759,-8.34251300000002,0.4567794,-0.05855787,-0.3550483,-49.68404,-13.20329,15.58054
93.651011944,6.52228400000001,-7.93549299999998,-7.72948300000001,0.4572028,-0.05027245,-0.3525884,-49.68404,-13.20329,15.58054
93.660871029,7.70248699999997,-14.36246,-6.99384700000001,0.5071002,-0.02918974,-0.2984929,-49.68404,-13.20329,15.58054
93.670730114,6.89497899999999,-19.42072,-6.380817,0.5255895,-0.02305971,-0.2646815,-49.68404,-13.20329,15.58054
93.680589676,4.969386,-24.41947,-5.706484,0.5484399,-0.02227301,-0.2386446,-50.05296,-14.6778,15.14946
93.690448761,3.043793,-28.6446,-5.21606,0.577553,-0.02438695,-0.2223054,-50.05296,-14.6778,15.14946
93.700308323,0.621272500000002,-32.33416,-4.051303,0.6226578,-0.02103063,-0.2123775,-50.05296,-14.6778,15.14946
93.710167408,-0.745277600000001,-34.47648,-2.641334,0.640615,-0.03116377,-0.231887,-50.05296,-14.6778,15.14946
93.720026493,0.1864611,-37.51143,-1.721789,0.6326315,-0.05422437,-0.263595,-50.05296,-14.6778,15.14946
93.729886055,3.043793,-41.02246,-1.108759,0.658757,-0.02722084,-0.2613434,-48.92734,-14.31013,16.03609
93.73974514,3.478605,-44.11692,-1.047456,0.6850596,0.03045628,-0.255002,-48.92734,-14.31013,16.03609
93.749603748,0.248577,-46.73532,-1.53788,0.7093806,0.05455656,-0.2441236,-48.92734,-14.31013,16.03609
93.75946331,-3.354146,-48.99666,-2.212213,0.732474,0.0430717,-0.2469457,-48.92734,-14.31013,16.03609
93.771787643,-5.217624,-51.37701,-1.292668,0.7446651,0.002293138,-0.2498596,-48.92734,-14.31013,16.03609
93.781646728,-4.348001,-53.2813,-1.292668,0.7384428,-0.007000381,-0.2479325,-48.91215,-14.28073,18.14854
93.791505337,-3.540494,-55.66166,-1.292668,0.7256355,0.006043886,-0.2428479,-48.91215,-14.28073,18.14854
93.801364899,-3.975305,-57.08987,-1.415274,0.6908273,0.0192498,-0.2724299,-48.91215,-14.28073,18.14854
93.811223984,-4.844928,-58.75612,-1.108759,0.6906084,0.04262227,-0.2679167,-48.91215,-14.28073,18.14854
93.821083546,-6.33571099999997,-59.7677800000002,-1.53788,0.6753214,0.04147669,-0.2777717,-48.91215,-14.28073,18.14854
93.830942631,-7.51591300000002,-60.8389400000001,-1.844395,0.6580899,0.04812884,-0.279866,-48.90219,-13.88941,19.80913
93.840801716,-8.94457799999998,-61.6125499999999,-1.231365,0.6792076,0.04980338,-0.2724856,-48.90219,-13.88941,19.80913
93.850661278,-10.37324,-61.55304,-0.2505172,0.6884061,0.04790543,-0.2812584,-48.90219,-13.88941,19.80913
93.860520363,-11.55345,-61.1364799999998,0.914239599999997,0.690973,0.03708541,-0.3178054,-48.90219,-13.88941,19.80913
93.870379925,-12.36095,-61.3150100000001,2.1403,0.7350932,0.03980789,-0.3447672,-48.90219,-13.88941,19.80913
93.88023901,-12.29884,-61.3150100000001,2.630723,0.7473716,0.02186568,-0.3570736,-47.75862,-13.48699,23.1923
93.890098095,-10.87017,-61.1959899999997,2.508117,0.7367314,0.01057597,-0.3579757,-47.75862,-13.48699,23.1923
93.899957657,-10.87017,-61.55304,3.182451,0.7908086,0.01796367,-0.3323281,-47.75862,-13.48699,23.1923
93.909816742,-11.05652,-61.1959899999997,2.937238,0.7808853,-0.002668252,-0.3606335,-47.75862,-13.48699,23.1923
93.919676304,-9.19304200000003,-56.6138,3.121147,0.78452,-0.01318376,-0.3186045,-47.75862,-13.48699,23.1923
93.929535389,-8.38553399999999,-54.53099,4.101995,0.7665496,-0.008071764,-0.3403485,-47.3685,-13.08753,25.74715
93.939394474,-7.45379700000001,-52.03161,5.266753,0.7829381,0.005188065,-0.3466997,-47.3685,-13.08753,25.74715
93.95171833,-10.49748,-51.55554,6.24760099999999,0.8280313,0.05234632,-0.3349645,-47.3685,-13.08753,25.74715
93.961577892,-15.90156,-45.90219,6.55411600000002,0.8604194,0.03863788,-0.3039145,-47.3685,-13.08753,25.74715
93.971436977,-20.37391,-41.79608,6.92193399999999,0.834708,0.02173484,-0.3386723,-47.3685,-13.08753,25.74715
93.981296539,-24.2251,-38.5826,8.331903,0.8523992,0.02080212,-0.3696011,-46.61188,-11.96231,27.84443
93.991155148,-27.64147,-36.67831,9.12884100000002,0.8841301,0.02448239,-0.3714599,-46.61188,-11.96231,27.84443
94.001014233,-30.93361,-33.9409,9.55796199999999,0.8916466,0.02690431,-0.3921521,-46.61188,-11.96231,27.84443
94.010873318,-36.08923,-31.08447,9.98708300000001,0.9192494,0.04318261,-0.3986378,-46.61188,-11.96231,27.84443
94.02073288,-40.62369,-27.69246,10.53881,0.936373,0.02966451,-0.4104967,-46.61188,-11.96231,27.84443
94.030591965,-43.54314,-25.43112,10.72272,0.8886097,0.04979594,-0.3794565,-45.85246,-11.94778,29.50492
94.040451527,-45.77931,-22.39616,11.33575,0.8913543,0.01789769,-0.4573951,-45.85246,-11.94778,29.50492
94.050310612,-46.40047,-20.67041,12.99093,0.9836519,0.02062412,-0.4673132,-45.85246,-11.94778,29.50492
94.060169697,-46.58682,-20.07532,12.99093,0.990608,0.03620349,-0.4816568,-45.85246,-11.94778,29.50492
94.070029259,-49.44415,-17.69496,12.68441,0.9770486,0.06856235,-0.5147344,-45.85246,-11.94778,29.50492
94.079888344,-53.17111,-15.90969,12.74572,0.982161,0.07683326,-0.5271966,-46.21899,-11.5575,30.78336
94.089747906,-56.21479,-13.2913,13.42005,1.020343,0.02542645,-0.5708235,-46.21899,-11.5575,30.78336
94.099606991,-51.49398,-11.74406,14.64611,1.034411,-0.01744586,-0.6173889,-46.21899,-11.5575,30.78336
94.109466076,-42.92198,-13.58884,14.4009,1.040418,-0.003819555,-0.6312563,-46.21899,-11.5575,30.78336
94.121789932,-33.72882,-15.85018,11.82617,1.078132,0.05790862,-0.609709,-46.21899,-11.5575,30.78336
94.131649494,-32.42439,-16.02871,10.17099,1.085308,0.09077388,-0.5568219,-45.84727,-11.19367,30.77766
94.141508579,-35.53019,-14.71951,8.76102400000002,1.066741,0.09075083,-0.5191799,-45.84727,-11.19367,30.77766
94.151368141,-41.74178,-14.0054,7.47365999999998,1.052976,0.09221014,-0.486865,-45.84727,-11.19367,30.77766
94.161227226,-50.8107,-12.81523,6.67672200000001,1.054967,0.0641903,-0.4372931,-45.84727,-11.19367,30.77766
94.171086311,-60.4386699999999,-10.07781,6.79932699999997,1.05203,0.04197564,-0.385206,-45.84727,-11.19367,30.77766
94.18094492,-69.7560600000002,-5.495626,6.79932699999997,1.05094,0.01695284,-0.3077714,-46.58553,-11.16722,32.0618
94.190804482,-77.7068999999999,1.050356,7.28975200000002,1.065314,-0.0121616,-0.3197227,-46.58553,-11.16722,32.0618
94.200663567,-82.5519400000001,6.70370499999997,8.76102400000002,1.065238,-0.03708293,-0.3472463,-46.58553,-11.16722,32.0618
94.210523129,-81.18539,11.70246,9.86447700000002,1.064002,-0.05607054,-0.3469098,-46.58553,-11.16722,32.0618
94.220382214,-77.5826599999998,15.68955,9.98708300000001,1.071663,-0.02675498,-0.333354,-46.58553,-11.16722,32.0618
94.230241299,-74.1041700000002,21.81897,9.31275099999997,1.102582,-0.006789166,-0.2727678,-46.58875,-11.17345,31.6137
94.240100861,-70.3772199999998,27.53183,8.45450899999998,1.106536,0.02436831,-0.2783116,-46.58875,-11.17345,31.6137
94.249959946,-68.2652799999997,31.63795,8.331903,1.124175,0.04113192,-0.2616495,-46.58875,-11.17345,31.6137
94.259819508,-65.7806399999998,37.76737,7.964084,1.148869,0.02335117,-0.2602348,-46.58875,-11.17345,31.6137
94.269678593,-63.0475400000002,42.52808,8.331903,1.149764,0.006736272,-0.2809933,-46.58875,-11.17345,31.6137
94.279537678,-58.8857699999999,46.99125,8.76102400000002,1.169562,-0.02706536,-0.25808,-47.33295,-12.27461,31.2448
94.28939724,-54.41343,51.33541,9.25144799999998,1.158204,-0.03012468,-0.2684863,-47.33295,-12.27461,31.2448
94.301721096,-50.31377,54.78692,9.12884100000002,1.159858,-0.01834105,-0.2444504,-47.33295,-12.27461,31.2448
94.311580181,-48.76088,57.6433499999998,8.69972,1.172644,-0.02016245,-0.2412937,-47.33295,-12.27461,31.2448
94.321439743,-45.84143,59.9046899999999,8.45450899999998,1.187944,-0.01852472,-0.2299971,-47.33295,-12.27461,31.2448
94.331298828,-41.99024,63.5347399999999,8.02538800000002,1.195439,-0.009273984,-0.2463187,-49.21799,-12.65681,28.69767
94.341157913,-38.32541,65.1414800000003,6.431509,1.190074,0.0134946,-0.2609052,-49.21799,-12.65681,28.69767
94.351017475,-36.3377,65.8555899999999,4.408511,1.188291,0.0417088,-0.2592041,-49.21799,-12.65681,28.69767
94.36087656,-36.64827,65.3200099999999,2.324208,1.201402,0.05316241,-0.2204791,-49.21799,-12.65681,28.69767
94.370736122,-37.1452,65.2009900000001,1.282058,1.187124,0.05984597,-0.2211776,-49.21799,-12.65681,28.69767
94.380595207,-37.02097,63.8917900000001,-0.2505172,1.174767,0.0432368,-0.2091617,-51.47275,-13.771,26.16002
94.390453816,-35.5923,63.8917900000001,-0.986153199999998,1.166071,0.03244903,-0.2105664,-51.47275,-13.771,26.16002
94.400312901,-32.0517,62.1065200000001,-2.212213,1.14087,-0.004814174,-0.2258561,-51.47275,-13.771,26.16002
94.410172463,-24.78414,60.7973299999998,-2.947849,1.117165,-0.03899147,-0.2004091,-51.47275,-13.771,26.16002
94.420031548,-15.6531,60.5592900000002,-1.967001,1.103604,-0.04102674,-0.1920866,-51.47275,-13.771,26.16002
94.42989111,-5.403972,60.2617499999998,-2.947849,1.086616,-0.03723464,-0.1788741,-52.9856,-13.78848,23.67121
94.439750195,3.043793,59.36911,-4.725636,1.094222,-0.02195803,-0.1457888,-52.9856,-13.78848,23.67121
94.44960928,10.12501,59.9641999999998,-5.093454,1.105289,-0.01640514,-0.1185853,-52.9856,-13.78848,23.67121
94.459468842,12.85811,58.4169699999999,-5.583878,1.138782,-0.0450688,-0.05557106,-52.9856,-13.78848,23.67121
94.471792698,1.615127,55.14398,-3.193061,1.17065,-0.2241116,0.007155661,-52.9856,-13.78848,23.67121
94.481651783,-6.52205799999998,59.0715700000002,5.021541,1.186166,-0.2387117,-0.1594709,-54.87186,-14.54506,20.67976
94.491511345,30.12633,62.9396500000001,0.1786037,1.052403,0.4492711,-0.6453338,-54.87186,-14.54506,20.67976
94.50137043,-2.049712,33.42322,-3.806091,0.9296857,-0.0364484,-0.6361831,-54.87186,-14.54506,20.67976
94.511229515,-24.90837,1.823973,5.695874,1.105915,-0.3373449,-0.3192121,-54.87186,-14.54506,20.67976
94.521089077,-15.2804,5.394509,9.61926600000001,1.20408,-0.211647,0.1376058,-54.87186,-14.54506,20.67976
94.530948162,-5.96301500000002,19.20058,9.741872,1.064399,-0.3008899,-0.102673,-56.013,-14.19872,18.18525
94.540807724,-5.652435,14.49938,14.03308,1.062287,-0.3010866,-0.1500853,-56.013,-14.19872,18.18525
94.550666809,-2.857219,9.67915199999999,13.84917,1.069807,-0.1551774,-0.1877763,-56.013,-14.19872,18.18525
94.560525894,2.112055,4.323348,12.80702,1.085721,-0.1567824,-0.1343463,-56.013,-14.19872,18.18525
94.570385456,7.205559,1.050356,10.3549,1.107579,-0.03164582,-0.03584507,-56.013,-14.19872,18.18525
94.580244541,1.863591,1.466919,5.389359,1.09683,0.1222719,0.02886142,-56.38271,-14.9307,18.19472
94.590104103,-10.06266,2.062008,1.220755,1.072705,0.1409212,-0.001785312,-56.38271,-14.9307,18.19472
94.599962711,-17.39234,2.657098,-0.1892142,1.073946,0.06497657,-0.01346551,-56.38271,-14.9307,18.19472
94.609821796,-18.94524,2.419062,-0.7409412,1.080113,0.02019617,-0.0311825,-56.38271,-14.9307,18.19472
94.619680881,-17.82716,2.895133,-1.292668,1.098736,0.01060589,-0.03727925,-56.38271,-14.9307,18.19472
94.629540443,-15.77733,2.716607,-1.967001,1.10522,-0.03519535,-0.06842697,-57.12816,-15.29021,18.20235
94.639399528,-10.9944,2.478571,-0.924850200000002,1.083583,-0.0529944,-0.09222877,-57.12816,-15.29021,18.20235
94.651723385,-6.02513099999997,0.633793799999998,-1.476577,1.034517,-0.08409286,-0.0941879,-57.12816,-15.29021,18.20235
94.661582947,-0.06200255,-2.103617,0.05599776,1.009573,-0.06798293,-0.1512004,-57.12816,-15.29021,18.20235
94.671442032,3.416489,-5.376608,-0.7409412,1.038487,-0.05550695,-0.136652,-57.12816,-15.29021,18.20235
94.681301117,3.8513,-5.138573,-0.4957292,1.052556,-0.08812584,-0.1740262,-56.76845,-13.83352,17.35316
94.691160679,5.155734,-11.68456,-1.415274,1.034261,-0.1127533,-0.2099132,-56.76845,-13.83352,17.35316
94.701019764,8.82057399999998,-14.30295,-0.924850200000002,1.045679,-0.1422526,-0.1878025,-56.76845,-13.83352,17.35316
94.710879326,11.74002,-19.24219,-1.967001,1.03858,-0.1660376,-0.1553165,-56.76845,-13.83352,17.35316
94.720738411,16.89564,-21.86058,-2.825243,1.064647,-0.142333,-0.12434,-56.76845,-13.83352,17.35316
94.730597496,19.62874,-22.99125,-4.786939,1.088328,-0.1318154,-0.1006288,-56.77045,-13.46537,17.34939
94.740457058,21.92703,-22.81273,-7.91339199999999,1.095768,-0.1196507,-0.1183625,-56.77045,-13.46537,17.34939
94.750316143,23.60416,-24.77652,-10.67203,1.113405,-0.1253459,-0.1215372,-56.77045,-13.46537,17.34939
94.760175705,27.33111,-26.56179,-14.59542,1.145754,-0.1698239,-0.1204568,-56.77045,-13.46537,17.34939
94.77003479,35.28196,-28.04951,-18.3962,1.172894,-0.1957478,-0.09039363,-56.77045,-13.46537,17.34939
94.779893875,45.5932,-27.81148,-22.19699,1.173104,-0.2030112,-0.08135314,-57.1254,-15.28486,18.58644
94.789753437,57.08464,-27.9305,-24.77172,1.167486,-0.2149791,-0.1451076,-57.1254,-15.28486,18.58644
94.799612522,69.7562900000003,-29.89429,-26.4882,1.174799,-0.2104443,-0.2505974,-57.1254,-15.28486,18.58644
94.80947113,83.98083,-34.41697,-27.40775,1.179431,-0.1767048,-0.3476562,-57.1254,-15.28486,18.58644
94.819330692,98.88865,-40.36786,-29.85987,1.165109,-0.119799,-0.4509581,-57.1254,-15.28486,18.58644
94.831655025,120.0702,-48.40157,-34.82541,1.222391,-0.115508,-0.480011,-55.98903,-15.26841,20.6931
94.841514111,137.8974,-54.17393,-38.31968,1.27902,-0.1714029,-0.4664347,-55.98903,-15.26841,20.6931
94.851372719,158.2715,-56.55429,-40.58789,1.281161,-0.2511318,-0.4513245,-55.98903,-15.26841,20.6931
94.861232281,182.5588,-58.9346500000002,-42.61089,1.242388,-0.2632278,-0.4710003,-55.98903,-15.26841,20.6931
94.871091366,207.9021,-60.1248299999999,-45.18562,1.237111,-0.2402165,-0.5507572,-54.11403,-13.04547,23.22137
94.880950928,231.0092,-62.86224,-46.9634,1.257153,-0.1700087,-0.5619512,-54.11403,-13.04547,23.22137
94.890810013,247.4699,-63.69537,-49.17031,1.261142,-0.1199353,-0.5841078,-54.11403,-13.04547,23.22137
94.900669098,257.4706,-67.3254100000003,-52.17416,1.249644,-0.0776296,-0.5648981,-54.11403,-13.04547,23.22137
94.91052866,260.0795,-70.8364300000002,-54.62627,1.243051,-0.06066461,-0.567057,-54.11403,-13.04547,23.22137
94.920387745,260.5764,-71.4315300000003,-55.72973,1.246055,-0.08782463,-0.5500778,-54.11403,-13.04547,23.22137
94.930247307,261.6945,-72.26465,-56.03624,1.232455,-0.1276824,-0.506134,-51.47433,-12.28593,27.04113
94.940106392,263.7443,-69.3487100000002,-54.01324,1.2507,-0.1587273,-0.5229488,-51.47433,-12.28593,27.04113
94.949965477,266.4774,-66.67081,-50.15116,1.242498,-0.1107041,-0.5439907,-51.47433,-12.28593,27.04113
94.959825039,263.9306,-67.5039399999999,-50.64158,1.230327,-0.03352074,-0.4358251,-51.47433,-12.28593,27.04113
94.969684124,251.5075,-63.3978199999999,-51.31591,1.254606,0.02780769,-0.3594608,-51.47433,-12.28593,27.04113
94.979543686,234.6119,-57.4469300000002,-50.88679,1.244498,0.05084584,-0.291076,-49.21564,-9.675995,31.22806
94.989402771,213.9894,-49.82978,-48.55728,1.217303,0.03335415,-0.2199145,-49.21564,-9.675995,31.22806
95.001726627,187.7765,-39.41572,-44.02086,1.187453,0.02345783,-0.1932167,-49.21564,-9.675995,31.22806
95.011585712,166.7192,-31.08447,-40.7718,1.173674,0.02442499,-0.1623434,-49.21564,-9.675995,31.22806
95.021445274,146.1589,-20.72991,-37.52274,1.161582,0.001409205,-0.1724284,-45.85421,-5.998619,33.66951
95.031304359,127.6483,-10.13732,-33.04762,1.148819,-0.008480695,-0.18431,-45.85421,-5.998619,33.66951
95.041163921,110.877,0.693302799999998,-29.30814,1.135127,-0.04179995,-0.213148,-45.85421,-5.998619,33.66951
95.051023006,98.5780700000002,10.39326,-25.56866,1.087547,-0.06973265,-0.2826687,-45.85421,-5.998619,33.66951
95.060882092,91.2483900000001,17.89138,-22.81002,1.052891,-0.09847089,-0.3380044,-45.85421,-5.998619,33.66951
95.0707407,88.4531800000001,26.22264,-20.05139,1.040178,-0.1049288,-0.3431489,-43.99004,-4.602731,34.09349
95.080600262,88.3910600000001,34.37536,-17.23145,1.000334,-0.1053424,-0.3593566,-43.99004,-4.602731,34.09349
95.090459347,89.7576100000001,41.69496,-13.85978,0.9726067,-0.07115091,-0.3893416,-43.99004,-4.602731,34.09349
95.100318909,89.8197300000002,48.41947,-11.46897,0.9494392,-0.0402933,-0.4107941,-43.99004,-4.602731,34.09349
95.110177994,89.13645,52.22804,-9.07814900000002,0.9180879,-0.02278887,-0.4700995,-43.99004,-4.602731,34.09349
95.120037079,88.2047100000001,56.45317,-6.80993800000002,0.9011493,-0.00788843,-0.4793163,-43.63832,-2.789474,32.40835
95.129896641,86.0927700000001,59.66666,-4.60303,0.877682,0.005930911,-0.5018668,-43.63832,-2.789474,32.40835
95.139755726,83.3596699999999,62.0470100000002,-2.825243,0.847837,0.02408278,-0.5218939,-43.63832,-2.789474,32.40835
95.149615288,78.76309,63.2371899999998,-0.924850200000002,0.8385786,0.04256339,-0.5029171,-43.63832,-2.789474,32.40835
95.159474373,72.86208,64.4273799999998,1.282058,0.8245667,0.05211687,-0.517492,-43.63832,-2.789474,32.40835
95.171798229,64.60066,64.9034499999998,4.040693,0.7907143,0.07655426,-0.5388464,-43.28102,-2.08155,30.67051
95.181657314,57.27099,63.47523,6.24760099999999,0.776803,0.09248339,-0.5404305,-43.28102,-2.08155,30.67051
95.191516876,49.81708,61.8684900000002,7.841478,0.7542911,0.09618731,-0.5376824,-43.28102,-2.08155,30.67051
95.201375961,42.54952,59.5476400000002,10.10969,0.7357868,0.1023938,-0.5258656,-43.28102,-2.08155,30.67051
95.211235523,35.28196,56.98875,12.62311,0.7076195,0.1045071,-0.5446142,-43.28102,-2.08155,30.67051
95.221094608,29.44306,53.47773,15.32044,0.6820033,0.1252247,-0.5392823,-44.79916,-0.6210952,28.55069
95.230953693,22.73454,50.14523,16.79172,0.6645736,0.1386555,-0.5499421,-44.79916,-0.6210952,28.55069
95.240813255,17.20622,46.45567,16.91432,0.6229609,0.163666,-0.5299699,-44.79916,-0.6210952,28.55069
95.25067234,12.0506,42.76612,15.62696,0.5884476,0.1740267,-0.5404122,-44.79916,-0.6210952,28.55069
95.260531902,8.447879,39.19558,13.97178,0.5592517,0.1562349,-0.544459,-44.79916,-0.6210952,28.55069
95.270390987,7.32979100000002,35.62505,12.13269,0.5348783,0.1536016,-0.5403003,-44.81714,0.4601836,26.87502
95.280250073,7.70248699999997,31.22139,9.49665899999999,0.5022585,0.1654263,-0.5541116,-44.81714,0.4601836,26.87502
95.290108681,7.76460200000001,25.09196,5.021541,0.4775401,0.1765002,-0.5273098,-44.81714,0.4601836,26.87502
95.299968243,6.770748,20.39076,0.05599776,0.4658462,0.1886152,-0.5131441,-44.81714,0.4601836,26.87502
95.309827328,5.96324099999999,15.86808,-4.786939,0.45013,0.171506,-0.4967718,-44.81714,0.4601836,26.87502
95.31968689,5.155734,11.10737,-9.691178,0.426921,0.1454996,-0.4995357,-44.82836,0.8105121,25.59097
95.329545975,5.404198,6.40616099999997,-14.1663,0.4226415,0.1489134,-0.4874659,-44.82836,0.8105121,25.59097
95.33940506,5.21785,2.657098,-17.96708,0.4321808,0.1485772,-0.4698743,-44.82836,0.8105121,25.59097
95.351728916,2.608982,-4.305448,-23.30044,0.4175871,0.157747,-0.4556921,-44.82836,0.8105121,25.59097
95.361588478,-1.117973,-9.48272499999998,-26.4269,0.4166936,0.1577625,-0.4494497,-44.82836,0.8105121,25.59097
95.371447563,-5.031276,-12.93424,-28.6338,0.4137469,0.1670095,-0.4421417,-45.20007,0.4466805,25.59668
95.381307125,-9.75208499999999,-17.33791,-30.5955,0.4295806,0.1595229,-0.3997817,-45.20007,0.4466805,25.59668
95.39116621,-14.22443,-21.08697,-32.00547,0.4296043,0.1499003,-0.3706321,-45.20007,0.4466805,25.59668
95.401025295,-18.44831,-23.9434,-33.53804,0.433972,0.1451822,-0.341503,-45.20007,0.4466805,25.59668
95.410884857,-22.05104,-26.44277,-34.39629,0.4559768,0.1090281,-0.3023482,-45.20007,0.4466805,25.59668
95.420743942,-23.72817,-28.40657,-35.00932,0.4471188,0.06087098,-0.2767516,-45.18284,-1.008091,26.89203
95.430603504,-23.60394,-30.25134,-35.31583,0.4332463,0.01702963,-0.2563183,-45.18284,-1.008091,26.89203
95.440462589,-20.43602,-30.72742,-34.82541,0.4621098,0.02216794,-0.2518943,-45.18284,-1.008091,26.89203
95.450321674,-20.56026,-31.14398,-34.7028,0.5049887,0.04105343,-0.2480333,-45.18284,-1.008091,26.89203
95.460181236,-22.6722,-31.62005,-34.7641,0.5169132,0.02656309,-0.2473671,-45.18284,-1.008091,26.89203
95.470040321,-22.98278,-30.96545,-33.90586,0.5442466,-0.0140876,-0.2519334,-44.79631,-2.8478,27.29304
95.479899883,-20.56026,-30.78692,-32.12807,0.5781657,-0.03815294,-0.2612455,-44.79631,-2.8478,27.29304
95.489758968,-17.26811,-31.14398,-30.10508,0.5870924,-0.03036388,-0.2814333,-44.79631,-2.8478,27.29304
95.499618054,-15.21829,-31.263,-27.71426,0.6062928,0.01350996,-0.3057759,-44.79631,-2.8478,27.29304
95.509477615,-15.2804,-30.90594,-25.32344,0.6431327,0.03557775,-0.3473259,-44.79631,-2.8478,27.29304
95.521801472,-15.96368,-32.27465,-22.62611,0.7049794,0.0311658,-0.3722045,-45.15757,-3.935453,28.20248
95.531660557,-16.33637,-34.29795,-20.84832,0.7509493,0.02424574,-0.3796269,-45.15757,-3.935453,28.20248
95.541520119,-16.02579,-35.66666,-19.00923,0.7827725,0.006958579,-0.3931648,-45.15757,-3.935453,28.20248
95.551379204,-14.84559,-37.21389,-16.86363,0.7734024,-0.03109176,-0.3962275,-45.15757,-3.935453,28.20248
95.561237812,-11.3671,-38.40407,-13.92109,0.7688619,-0.02384668,-0.3999352,-45.15757,-3.935453,28.20248
95.571096897,-10.00055,-43.46233,-11.59157,0.7713158,0.007288597,-0.4078539,-44.02162,-5.035917,29.42426
95.580956459,-9.62785199999999,-39.23719,-8.64902799999999,0.8191479,-0.0003472008,-0.3510961,-44.02162,-5.035917,29.42426
95.590815544,-11.98826,-38.34456,-5.89039299999998,0.8076848,-1.903984e-05,-0.3662643,-44.02162,-5.035917,29.42426
95.600675106,-13.7275,-37.57094,-2.580031,0.8295583,-0.01584031,-0.3547296,-44.02162,-5.035917,29.42426
95.610534191,-15.21829,-36.73782,0.669027700000002,0.8459798,-0.005853438,-0.3256482,-44.02162,-5.035917,29.42426
95.620393276,-18.69678,-34.00041,4.224602,0.8609666,-0.000887637,-0.3344455,-43.63104,-5.317622,31.53792
95.630252838,-22.17527,-31.50103,7.04453900000001,0.8497081,0.005845881,-0.328957,-43.63104,-5.317622,31.53792
95.640111923,-26.46127,-29.47773,9.86447700000002,0.8542069,0.005424038,-0.3223159,-43.63104,-5.317622,31.53792
95.649971485,-30.25034,-27.03786,13.17484,0.8765551,-0.003208781,-0.341396,-43.63104,-5.317622,31.53792
95.65983057,-33.6046,-24.24094,16.79172,0.8662689,-0.01355631,-0.3514,-43.63104,-5.317622,31.53792
95.669689655,-35.5923,-21.92009,20.16338,0.8464754,-0.006470662,-0.3616004,-43.25007,-6.051997,31.99163
95.679549217,-39.07079,-19.89679,23.22853,0.8640199,0.008313213,-0.3535793,-43.25007,-6.051997,31.99163
95.689408302,-44.35065,-16.6238,26.47759,0.8694165,0.006412392,-0.3541515,-43.25007,-6.051997,31.99163
95.701732159,-51.43186,-13.2913,30.7688,0.8769675,-0.006643947,-0.3500565,-43.25007,-6.051997,31.99163
95.711591721,-56.52537,-10.55389,34.07916,0.8839471,-0.009475302,-0.3429919,-43.25007,-6.051997,31.99163
95.721450806,-63.6686999999998,-6.98335,37.63474,0.889668,0.0002986339,-0.345387,-43.2461,-5.672267,32.82004
95.731309891,-70.81203,-3.293796,41.31292,0.9136115,-0.01853756,-0.3640968,-43.2461,-5.672267,32.82004
95.741169453,-76.4024699999999,0.0982134299999997,44.62328,0.9021087,-0.005526799,-0.371011,-43.2461,-5.672267,32.82004
95.751028538,-84.97446,3.133169,47.87234,0.9106117,0.01483531,-0.4112131,-43.2461,-5.672267,32.82004
95.7608881,-93.23588,5.75156300000002,51.79573,0.9592342,0.01957812,-0.4291172,-43.2461,-5.672267,32.82004
95.770747185,-102.3669,6.88223199999998,54.92218,0.9748309,0.0182357,-0.434622,-43.24685,-6.045761,32.43972
95.78060627,-111.1874,8.42946399999998,58.7229699999997,0.990319,-0.02512513,-0.4850455,-43.24685,-6.045761,32.43972
95.790465832,-116.0945,9.143572,62.0946300000002,0.976292,-0.05547538,-0.4999569,-43.24685,-6.045761,32.43972
95.80032444,-119.4488,8.369955,64.4854500000002,0.9877433,-0.02957785,-0.4984639,-43.24685,-6.045761,32.43972
95.810183525,-126.4679,7.06075899999998,65.4662900000001,0.9655843,0.009243845,-0.4748189,-43.24685,-6.045761,32.43972
95.820043087,-135.1641,8.31044699999999,68.34753,0.9962275,-0.003715426,-0.499325,-44.37804,-5.308099,31.6058
95.829902172,-144.6678,7.53682999999999,71.1061700000002,1.041999,-0.03399183,-0.5059832,-44.37804,-5.308099,31.6058
95.839761257,-151.9975,6.40616099999997,72.7000499999998,1.022981,-0.009243944,-0.4796266,-44.37804,-5.308099,31.6058
95.849620819,-162.8057,6.64419700000002,73.1904800000001,1.053927,0.02328809,-0.4419363,-44.37804,-5.308099,31.6058
95.859479904,-171.1292,9.67915199999999,75.3360699999998,1.057154,-0.003590271,-0.4800659,-44.37804,-5.308099,31.6058
95.87180376,-179.1422,10.33375,75.7652000000001,1.044995,0.02401539,-0.4863684,-45.50245,-5.301386,31.1635
95.881663322,-184.6705,9.91718799999998,75.2747699999999,1.081208,0.03361605,-0.4772196,-45.50245,-5.301386,31.1635
95.891522408,-189.8882,10.33375,74.17132,1.089385,0.03706742,-0.4844949,-45.50245,-5.301386,31.1635
95.901381493,-194.05,10.33375,72.2096299999998,1.084924,0.006876941,-0.4794149,-45.50245,-5.301386,31.1635
95.911241055,-193.7394,9.143572,70.1866300000001,1.085895,-0.01885727,-0.4667076,-45.50245,-5.301386,31.1635
95.92110014,-192.8698,9.38160700000002,66.81496,1.066062,0.01848721,-0.4531714,-46.63284,-5.306256,29.88902
95.930959702,-195.9135,9.85767899999999,62.40115,1.059396,0.0004142672,-0.4556249,-46.63284,-5.306256,29.88902
95.940818787,-196.0377,10.39326,58.3551500000001,1.046617,-0.05363847,-0.4357725,-46.63284,-5.306256,29.88902
95.950677872,-193.5531,12.17853,54.18654,1.036812,-0.07263672,-0.4180628,-46.63284,-5.306256,29.88902
95.960537434,-188.2732,14.08281,50.44706,1.038059,-0.1018451,-0.4240775,-46.63284,-5.306256,29.88902
95.970396519,-179.2664,15.68955,46.83018,1.042747,-0.1105128,-0.4107998,-46.99377,-7.137333,30.29388
95.980256081,-168.8931,17.95089,42.84549,1.026793,-0.09169624,-0.416164,-46.99377,-7.137333,30.29388
95.990115166,-159.5757,19.91469,38.37037,1.0248,-0.07219462,-0.4015951,-46.99377,-7.137333,30.29388
95.999974251,-152.246,22.23554,35.06001,1.018096,-0.07270247,-0.3914406,-46.99377,-7.137333,30.29388
96.009833813,-145.2269,25.27049,32.24007,1.008924,-0.0830024,-0.3913968,-46.99377,-7.137333,30.29388
96.019692898,-138.2699,28.18643,28.6845,1.008267,-0.0946369,-0.378068,-48.48663,-8.60424,29.48451
96.02955246,-131.0645,30.92384,25.06762,1.009594,-0.114058,-0.3696252,-48.48663,-8.60424,29.48451
96.039411068,-123.4863,33.83978,22.12508,0.992395,-0.1282551,-0.3517696,-48.48663,-8.60424,29.48451
96.051735401,-113.4235,38.95755,18.20168,0.9837151,-0.1326913,-0.3464121,-48.48663,-8.60424,29.48451
96.061594486,-105.9075,41.2784,16.23999,0.990844,-0.1668618,-0.3918468,-48.48663,-8.60424,29.48451
96.071454048,-94.9130099999998,43.36121,14.21699,0.9992003,-0.1824,-0.4026394,-50.35921,-10.07841,27.84489
96.081313133,-83.9806100000003,44.43237,11.70357,1.009106,-0.1521436,-0.4030045,-50.35921,-10.07841,27.84489
96.091171742,-76.4024699999999,44.6109,9.12884100000002,1.028576,-0.1231927,-0.3848281,-50.35921,-10.07841,27.84489
96.101031303,-70.9983799999999,46.75322,7.35105500000001,1.035187,-0.09878866,-0.3808827,-50.35921,-10.07841,27.84489
96.110890389,-67.3956500000002,46.39616,5.695874,1.022311,-0.09211075,-0.3863933,-50.35921,-10.07841,27.84489
96.120749474,-63.9792800000001,45.56304,6.12499499999999,1.029244,-0.09153792,-0.3797785,-52.23623,-11.93321,25.31285
96.130609036,-59.5690500000001,43.83728,7.16714599999997,1.032776,-0.0841534,-0.3653905,-52.23623,-11.93321,25.31285
96.140468121,-55.90421,42.52808,8.39320599999999,1.057148,-0.03527419,-0.3648461,-52.23623,-11.93321,25.31285
96.150327683,-55.53151,41.21889,9.80317400000002,1.054003,0.01918621,-0.3681753,-52.23623,-11.93321,25.31285
96.160186768,-56.52537,37.64835,9.86447700000002,1.056403,0.04946472,-0.3449524,-52.23623,-11.93321,25.31285
