Time (s),Gyroscope X (deg/s),Gyroscope Y (deg/s),Gyroscope Z (deg/s),Accelerometer X (g),Accelerometer Y (g),Accelerometer Z (g),Magnetometer X (uT),Magnetometer Y (uT),Magnetometer Z (uT)
62.740393162,-0.2065488,0.727095499999998,-0.5440385,0.9873097,0.07732507,-0.1491776,-31.94668,-43.51514,8.307126
62.75025177,0.2903785,0.846113400000001,-0.5440385,0.9887155,0.08415565,-0.1477024,-31.94668,-43.51514,8.307126
62.760110378,-0.3307806,1.084149,-0.4827355,0.9819023,0.08508154,-0.144243,-31.57617,-43.52569,7.857098
62.769968986,-0.3307806,1.322185,-0.2988266,0.9884057,0.07346147,-0.1439546,-31.57617,-43.52569,7.857098
62.779827118,-0.5171283,1.679239,-0.4214326,0.9913106,0.07543176,-0.1444586,-31.57617,-43.52569,7.857098
62.789685726,-0.641360199999998,1.679239,-0.3601296,0.9848859,0.07438037,-0.1501262,-31.57617,-43.52569,7.857098
62.802008629,-0.579244300000001,2.274328,-0.727947499999999,0.990841,0.07103896,-0.1468849,-31.94789,-43.88952,7.8628
62.811867237,-0.3928965,2.571872,-0.5440385,0.9898441,0.07590728,-0.1439544,-31.94789,-43.88952,7.8628
62.821725845,-0.0823169599999999,3.107453,-0.6053416,0.9902059,0.08222225,-0.1477399,-31.94789,-43.88952,7.8628
62.831584454,-0.0823169599999999,3.345489,-0.727947499999999,0.9917744,0.08031113,-0.142028,-31.94789,-43.88952,7.8628
62.841443062,0.2282626,3.643033,-0.6053416,1.000577,0.07990018,-0.1426361,-31.94789,-43.88952,7.8628
62.85130167,0.1661467,3.643033,-0.3601296,0.9947516,0.07839622,-0.140649,-32.32363,-43.51706,7.860961
62.861160278,0.2903785,4.059596,-0.2988266,0.9958478,0.07892668,-0.1315553,-32.32363,-43.51706,7.860961
62.871018887,0.4146104,4.119105,-0.1762206,0.9933958,0.0789033,-0.1319998,-32.32363,-43.51706,7.860961
62.880877018,0.3524944,3.940578,0.0689914200000002,0.9928612,0.08767411,-0.1276053,-32.32363,-43.51706,7.860961
62.890735626,0.4767263,4.000087,0.2529004,0.9924104,0.08279845,-0.1290777,-32.32363,-43.51706,7.860961
62.900594234,0.911537699999999,3.940578,0.3755064,0.9913961,0.08473244,-0.1300053,-32.32363,-43.51706,7.860961
62.910452843,0.787305800000002,4.000087,0.3142034,0.9899085,0.07983147,-0.1357759,-31.20641,-43.90974,7.026757
62.920311451,0.911537699999999,4.059596,0.682021400000003,0.9904498,0.08424469,-0.1280791,-31.20641,-43.90974,7.026757
62.930170059,0.663074000000001,4.059596,0.3755064,0.990797,0.08518501,-0.1376601,-31.20641,-43.90974,7.026757
62.940028667,0.600958099999998,4.297632,0.4981124,0.9850791,0.08175889,-0.1294612,-31.20641,-43.90974,7.026757
62.949887276,0.4146104,4.297632,0.4368094,0.9895416,0.07888557,-0.1276322,-31.20641,-43.90974,7.026757
62.959745884,0.1661467,4.41665,0.4368094,0.9920074,0.0794011,-0.1257462,-32.32162,-43.88521,7.864732
62.969603539,-0.579244300000001,4.059596,0.1915974,0.9915863,0.0813691,-0.1190148,-32.32162,-43.88521,7.864732
62.981926918,-1.076172,4.000087,0.1302944,0.9857771,0.06912886,-0.1252649,-32.32162,-43.88521,7.864732
62.991785526,-0.889823900000002,3.524015,0.2529004,0.9883153,0.0745473,-0.1137546,-32.32162,-43.88521,7.864732
63.001644135,-0.889823900000002,3.464506,-0.05361458,0.9966145,0.07315145,-0.1162806,-31.95191,-43.15323,7.855259
63.011502743,-0.5171283,3.166962,-0.05361458,0.9893484,0.07213044,-0.1118729,-31.95191,-43.15323,7.855259
63.021361351,-0.4550124,2.988435,0.007688423,0.9995875,0.07709405,-0.1100601,-31.95191,-43.15323,7.855259
63.031219959,-0.2065488,2.333837,0.007688423,0.9887667,0.07551734,-0.1156696,-31.95191,-43.15323,7.855259
63.041078568,-0.4550124,2.333837,-0.1762206,0.9936599,0.07702568,-0.114289,-31.95191,-43.15323,7.855259
63.050937176,-0.827707900000002,2.15531,-0.3601296,0.9936844,0.07166218,-0.1172098,-33.07706,-43.52001,7.032645
63.060795784,-0.765591999999998,2.036292,-0.4214326,0.9877654,0.07306098,-0.1195097,-33.07706,-43.52001,7.032645
63.070653915,-0.765591999999998,1.738747,-0.4214326,0.9965189,0.07019485,-0.1258882,-33.07706,-43.52001,7.032645
63.080512524,-0.4550124,1.798256,-0.6053416,0.9950504,0.07359912,-0.1229634,-33.07706,-43.52001,7.032645
63.090371132,-0.3307806,1.917274,-0.4214326,0.9921593,0.08090912,-0.1132765,-33.07706,-43.52001,7.032645
63.10022974,-0.4550124,1.738747,-0.3601296,0.9916109,0.08039965,-0.1180649,-31.95186,-44.26925,7.034391
63.110088348,-0.2065488,1.679239,-0.4214326,0.9940954,0.08043233,-0.1152249,-31.95186,-44.26925,7.034391
63.119946957,-0.1444329,1.262676,-0.3601296,0.9897168,0.08284132,-0.1113086,-31.95186,-44.26925,7.034391
63.129805565,-0.02020105,1.203167,-0.4214326,0.9945924,0.07702129,-0.1176568,-31.95186,-44.26925,7.034391
63.139664173,0.2903785,0.965131299999997,-0.2988266,0.9926382,0.07846938,-0.1161791,-31.95186,-44.26925,7.034391
63.151987076,0.3524944,0.846113400000001,-0.1762206,0.9940268,0.08236564,-0.118562,-31.95387,-43.9011,7.030621
63.161845684,0.4146104,1.084149,-0.2988266,0.9930796,0.08138944,-0.1171191,-31.95387,-43.9011,7.030621
63.171703816,0.663074000000001,1.143658,-0.05361458,0.9925362,0.08429904,-0.1185244,-31.95387,-43.9011,7.030621
63.181562424,0.849421699999999,1.02464,-0.05361458,0.99305,0.0833339,-0.1175815,-31.95387,-43.9011,7.030621
63.191421032,0.787305800000002,0.9056224,0.007688423,0.9886497,0.08427203,-0.1165525,-31.95387,-43.9011,7.030621
63.20127964,0.4146104,0.9056224,0.0689914200000002,0.9900778,0.07987975,-0.1233187,-31.20641,-43.90974,7.026757
63.211138248,0.4767263,0.9056224,0.2529004,0.9921578,0.07553818,-0.1181138,-31.20641,-43.90974,7.026757
63.220996857,0.663074000000001,0.965131299999997,0.1915974,0.9970017,0.07898542,-0.1186329,-31.20641,-43.90974,7.026757
63.230855465,0.973653600000002,0.846113400000001,0.3755064,0.9930586,0.07601294,-0.1233938,-31.20641,-43.90974,7.026757
63.240714073,1.160001,0.846113400000001,0.2529004,0.9917006,0.07944878,-0.1123239,-31.20641,-43.90974,7.026757
63.250572681,1.284233,0.727095499999998,0.3142034,0.9956176,0.07801978,-0.1133501,-32.70334,-43.52432,7.030713
63.26043129,1.097885,0.608077699999999,0.2529004,0.9960186,0.08434588,-0.1142609,-32.70334,-43.52432,7.030713
63.270288944,0.600958099999998,0.5485688,0.4368094,0.9922309,0.07653548,-0.1118768,-32.70334,-43.52432,7.030713
63.280147553,0.5388422,0.4890598,0.4981124,0.9891995,0.08136429,-0.114668,-32.70334,-43.52432,7.030713
63.290006161,0.2903785,0.4295509,0.4368094,0.9930434,0.07893799,-0.1219313,-32.70334,-43.52432,7.030713
63.299864769,0.4146104,0.5485688,0.4368094,0.9940701,0.07651927,-0.1205287,-32.33036,-43.90214,6.648469
63.309723377,0.600958099999998,0.727095499999998,0.2529004,0.9940694,0.0804249,-0.1171414,-32.33036,-43.90214,6.648469
63.319581986,0.787305800000002,0.846113400000001,0.2529004,0.9921795,0.07700906,-0.1152265,-32.33036,-43.90214,6.648469
63.331905365,0.663074000000001,1.02464,0.1915974,0.9891611,0.07744753,-0.1209301,-32.33036,-43.90214,6.648469
63.341763973,0.663074000000001,1.143658,0.1915974,0.9905698,0.0818378,-0.1213924,-32.33036,-43.90214,6.648469
63.351622582,0.1661467,1.02464,0.007688423,0.9891242,0.07890169,-0.1223549,-31.95864,-43.5383,6.642767
63.36148119,0.04191487,1.203167,0.0689914200000002,0.9867626,0.07402182,-0.1204457,-31.95864,-43.5383,6.642767
63.371339321,-0.2065488,1.500712,-0.05361458,1.000298,0.08532622,-0.12246,-31.95864,-43.5383,6.642767
63.381197929,-0.641360199999998,1.500712,0.0689914200000002,0.9974923,0.08436065,-0.1138025,-31.95864,-43.5383,6.642767
63.391056538,-0.1444329,1.381694,0.1915974,0.9907377,0.0809092,-0.1099018,-31.95864,-43.5383,6.642767
63.400915146,-0.3307806,1.441203,0.1915974,0.9921962,0.07945494,-0.1118517,-32.70133,-43.89247,7.034484
63.410773754,-0.2065488,1.203167,0.1915974,1.00112,0.08151959,-0.101419,-32.70133,-43.89247,7.034484
63.420632362,-0.0823169599999999,0.965131299999997,0.007688423,0.9942907,0.07609396,-0.1047219,-32.70133,-43.89247,7.034484
63.430490971,-0.2686647,0.5485688,-0.1762206,0.9849408,0.07697234,-0.1079356,-32.70133,-43.89247,7.034484
63.440349579,-1.262519,0.1915152,0.007688423,0.9863315,0.0823339,-0.1088686,-32.70133,-43.89247,7.034484
63.450208187,-1.821563,-0.2845563,0.1302944,0.9957175,0.07951292,-0.1047134,-31.58692,-43.17448,6.637065
63.460066795,-1.262519,-0.5225921,-0.1762206,0.9987451,0.06784788,-0.1082094,-31.58692,-43.17448,6.637065
63.46992445,-0.641360199999998,-0.4630831,-0.2375236,0.9913308,0.07654915,-0.1061135,-31.58692,-43.17448,6.637065
63.479783058,-0.2065488,-0.939154599999998,-0.1149176,0.9950578,0.08727159,-0.1103889,-31.58692,-43.17448,6.637065
63.489641667,-0.3307806,-1.534244,-0.2375236,0.9937829,0.08096659,-0.1017983,-31.58692,-43.17448,6.637065
63.501965046,-0.02020105,-1.712771,-0.2375236,0.9952247,0.07267239,-0.1109937,-31.95663,-43.90645,6.646538
63.511823654,0.2282626,-2.069824,-0.2375236,0.9903462,0.07653868,-0.1065787,-31.95663,-43.90645,6.646538
63.521682263,0.3524944,-2.069824,-0.3601296,0.9942856,0.07267492,-0.1081051,-31.95663,-43.90645,6.646538
63.531540871,0.1040308,-2.486387,-0.4827355,0.988358,0.07700062,-0.1084633,-31.95663,-43.90645,6.646538
63.541399479,0.2282626,-2.724423,-0.3601296,0.9916991,0.07847192,-0.1132905,-31.95663,-43.90645,6.646538
63.551258087,0.1040308,-2.90295,-0.3601296,0.994162,0.08142776,-0.109467,-32.70133,-43.89247,7.034484
63.561116695,0.1040308,-3.021967,-0.4827355,0.9892204,0.07795267,-0.1161347,-32.70133,-43.89247,7.034484
63.570974827,-0.0823169599999999,-3.319512,-0.4827355,0.9886742,0.07890853,-0.1194733,-32.70133,-43.89247,7.034484
63.580833435,0.1040308,-3.260003,-0.2988266,0.9901906,0.07698256,-0.1175943,-32.70133,-43.89247,7.034484
63.590692043,0.3524944,-3.260003,-0.2375236,0.9901009,0.07353938,-0.1272061,-32.70133,-43.89247,7.034484
63.600550651,0.4146104,-2.90295,-0.4214326,0.996096,0.07948567,-0.1128654,-31.95467,-43.15857,7.471176
63.61040926,0.5388422,-2.605405,-0.4214326,0.9837051,0.0788432,-0.1251534,-31.95467,-43.15857,7.471176
63.620267868,0.2903785,-2.664914,-0.2375236,0.992079,0.07942152,-0.1204759,-31.95467,-43.15857,7.471176
63.630126476,0.3524944,-2.367369,-0.6053416,0.9901696,0.07600012,-0.1199983,-31.95467,-43.15857,7.471176
63.639985084,0.1040308,-2.486387,-0.5440385,1.000514,0.07318218,-0.1172943,-31.95467,-43.15857,7.471176
63.649843216,-0.02020105,-2.426878,-0.4214326,0.9959953,0.07750408,-0.1219855,-32.32639,-43.5224,7.476878
63.659701824,0.600958099999998,-2.248351,-0.5440385,0.9950432,0.0775029,-0.1200551,-32.32639,-43.5224,7.476878
63.669560432,0.600958099999998,-2.545896,-0.727947499999999,0.9950945,0.07702931,-0.1167054,-32.32639,-43.5224,7.476878
63.681883335,1.160001,-2.426878,-0.5440385,1.000975,0.08050187,-0.1129263,-32.32639,-43.5224,7.476878
63.691741943,1.346349,-2.545896,-0.4214326,0.9890201,0.08326604,-0.1261502,-32.32639,-43.5224,7.476878
63.701600552,1.284233,-2.30786,-0.5440385,0.9943797,0.07842533,-0.1320179,-32.3284,-43.15426,7.473108
63.71145916,1.843277,-1.891297,-0.4827355,0.9989043,0.07361685,-0.1273309,-32.3284,-43.15426,7.473108
63.721317768,2.40232,-1.653262,-0.3601296,0.9928958,0.08036058,-0.1315012,-32.3284,-43.15426,7.473108
63.731176376,2.340204,-1.355717,-0.4214326,0.9915507,0.07501203,-0.1272143,-32.3284,-43.15426,7.473108
63.741034985,2.837131,-1.058172,-0.2988266,0.9904664,0.08229652,-0.128575,-32.3284,-43.15426,7.473108
63.750893593,2.526551,-0.998663500000001,-0.1762206,0.9934675,0.08331778,-0.1228588,-31.95266,-43.52672,7.474947
63.760752201,2.340204,-0.879645599999998,-0.05361458,0.9900511,0.08377794,-0.1218478,-31.95266,-43.52672,7.474947
63.770610809,2.837131,-0.820136700000001,-0.4214326,0.9920717,0.07893123,-0.1214383,-31.95266,-43.52672,7.474947
63.780469418,2.588667,-0.820136700000001,-0.3601296,0.9979849,0.07362495,-0.123005,-31.95266,-43.52672,7.474947
63.790327072,2.526551,-0.939154599999998,-0.4827355,0.988708,0.06671251,-0.1277231,-31.95266,-43.52672,7.474947
63.80018568,2.340204,-0.879645599999998,-0.5440385,0.9831951,0.07785646,-0.1275504,-31.95387,-43.9011,7.030621
63.810044289,1.967508,-0.998663500000001,-0.5440385,0.9895655,0.0774277,-0.1271657,-31.95387,-43.9011,7.030621
63.819902897,2.029624,-0.998663500000001,-0.4827355,0.9919358,0.07938068,-0.1310166,-31.95387,-43.9011,7.030621
63.829761505,1.532697,-0.820136700000001,-0.6666446,0.9898161,0.09201079,-0.1318382,-31.95387,-43.9011,7.030621
63.839620113,0.911537699999999,-0.820136700000001,-0.4827355,0.9938112,0.08620999,-0.1309856,-31.95387,-43.9011,7.030621
63.851943493,1.284233,-0.820136700000001,-0.4827355,0.9889579,0.08080716,-0.1328789,-31.57692,-43.89919,7.476786
63.861802101,1.408465,-0.582100999999999,-0.4214326,0.9865978,0.08129821,-0.1261323,-31.57692,-43.89919,7.476786
63.871660709,1.160001,-0.701118900000002,-0.3601296,0.9910349,0.07890591,-0.1257365,-31.57692,-43.89919,7.476786
63.881519318,0.725189899999998,-0.760627799999999,-0.2375236,0.9885157,0.07739867,-0.1324221,-31.57692,-43.89919,7.476786
63.891377449,0.600958099999998,-0.4035742,-0.2988266,0.9933973,0.07988017,-0.1310332,-31.57692,-43.89919,7.476786
63.901236057,0.4767263,-0.2845563,-0.1149176,0.9899281,0.07983704,-0.1343385,-32.32639,-43.5224,7.476878
63.911094666,0.1661467,-0.2845563,-0.1762206,0.9845676,0.07979526,-0.1328248,-32.32639,-43.5224,7.476878
63.920953274,-0.2686647,-0.2250474,-0.1762206,0.9870254,0.07933206,-0.1323846,-32.32639,-43.5224,7.476878
63.930811882,-0.4550124,-0.2250474,-0.1762206,0.9929616,0.07207947,-0.133968,-32.32639,-43.5224,7.476878
63.94067049,-0.1444329,-0.04652058,-0.1762206,0.9859778,0.08076834,-0.1361911,-32.32639,-43.5224,7.476878
63.950529098,0.4767263,0.07249729,-0.2988266,0.980725,0.07880438,-0.1284656,-31.95266,-43.52672,7.474947
63.960387707,0.787305800000002,-0.04652058,-0.3601296,0.9874429,0.08810405,-0.1299205,-31.95266,-43.52672,7.474947
63.970246315,0.973653600000002,0.310533,-0.2375236,0.9893833,0.08176976,-0.1367104,-31.95266,-43.52672,7.474947
63.980104923,0.600958099999998,0.5485688,-0.2988266,0.9845481,0.08418375,-0.1303915,-31.95266,-43.52672,7.474947
63.989963531,0.5388422,0.370042,-0.4214326,0.9850112,0.08418063,-0.132315,-31.95266,-43.52672,7.474947
63.99982214,0.2282626,0.667586600000001,-0.2375236,0.9869437,0.08126166,-0.1366799,-32.3284,-43.15426,7.473108
64.009679794,-0.1444329,0.965131299999997,-0.2375236,0.9849916,0.079781,-0.137623,-32.3284,-43.15426,7.473108
64.019538403,-0.1444329,1.322185,-0.1762206,0.9902697,0.08565801,-0.1400446,-32.3284,-43.15426,7.473108
64.031861782,0.1040308,1.798256,-0.2375236,0.9923835,0.0823026,-0.1314775,-32.3284,-43.15426,7.473108
64.04172039,0.4146104,1.857765,-0.1149176,0.9890121,0.07789326,-0.1314666,-32.3284,-43.15426,7.473108
64.051578999,0.2282626,1.917274,-0.1149176,0.9899845,0.07838845,-0.1314763,-32.70213,-43.14994,7.475039
64.061437607,0.911537699999999,2.452855,-0.2375236,0.9972731,0.08136877,-0.1325134,-32.70213,-43.14994,7.475039
64.071296215,0.911537699999999,2.452855,-0.05361458,0.9968107,0.08186033,-0.1301067,-32.70213,-43.14994,7.475039
64.081154823,0.787305800000002,2.809908,0.0689914200000002,0.992016,0.0764742,-0.1276878,-32.70213,-43.14994,7.475039
64.091013432,1.03577,2.809908,0.0689914200000002,0.9906725,0.07210252,-0.1224344,-32.70213,-43.14994,7.475039
64.10087204,1.532697,2.69089,0.1915974,0.9914374,0.09060296,-0.12181,-31.20244,-43.53001,7.855166
64.110729694,0.973653600000002,2.869417,0.1915974,0.994536,0.07846989,-0.1205189,-31.20244,-43.53001,7.855166
64.120588303,1.160001,2.750399,0.0689914200000002,0.9895944,0.07499481,-0.1271866,-31.20244,-43.53001,7.855166
64.130446911,1.160001,2.928926,0.007688423,0.9886062,0.07693622,-0.1261977,-31.20244,-43.53001,7.855166
64.140305519,0.3524944,2.988435,0.007688423,0.9856883,0.08375034,-0.1189106,-31.20244,-43.53001,7.855166
64.150164127,-0.02020105,2.988435,0.1915974,0.9934804,0.07892743,-0.1257712,-32.70012,-43.51809,7.47881
64.160022736,0.1040308,3.107453,0.1302944,0.9896328,0.07891157,-0.1209245,-32.70012,-43.51809,7.47881
64.169881344,0.2282626,2.988435,0.0689914200000002,0.9900274,0.08962989,-0.1184437,-32.70012,-43.51809,7.47881
64.179739952,0.1040308,2.988435,0.0689914200000002,0.9895902,0.08524637,-0.1184744,-32.70012,-43.51809,7.47881
64.18959856,-0.02020105,2.809908,0.3142034,0.9915907,0.08429971,-0.1161149,-32.70012,-43.51809,7.47881
64.20192194,-0.3928965,2.571872,0.007688423,0.9907601,0.07847445,-0.1104019,-32.32961,-43.52864,7.028781
64.211780548,-0.579244300000001,2.036292,0.1915974,0.9955583,0.07751463,-0.1181455,-32.32961,-43.52864,7.028781
64.221639156,-0.889823900000002,1.917274,0.007688423,0.9872547,0.07597986,-0.1185194,-32.32961,-43.52864,7.028781
64.231497288,-1.262519,1.857765,-0.1762206,0.9935839,0.07846871,-0.1185886,-32.32961,-43.52864,7.028781
64.241356373,-1.324635,1.917274,-0.1149176,0.9935225,0.08089232,-0.1209632,-32.32961,-43.52864,7.028781
64.251214504,-1.386751,1.798256,-0.1762206,0.9886785,0.07744508,-0.1204441,-31.95588,-43.53296,7.02685
64.261073113,-1.200403,1.917274,-0.05361458,0.9900858,0.08085848,-0.1218729,-31.95588,-43.53296,7.02685
64.270931721,-0.951939799999999,1.857765,0.0689914200000002,0.9891576,0.08379347,-0.1156053,-31.95588,-43.53296,7.02685
64.280790329,-1.200403,1.798256,0.3142034,0.9934821,0.0930865,-0.1131925,-31.95588,-43.53296,7.02685
64.290648937,-1.200403,1.322185,0.1915974,0.9940904,0.0858014,-0.1108667,-31.95588,-43.53296,7.02685
64.300507546,-0.951939799999999,1.500712,0.2529004,0.9868568,0.08039561,-0.107934,-31.95467,-43.15857,7.471176
64.310366154,-0.641360199999998,1.203167,0.2529004,0.990742,0.0838398,-0.1070019,-31.95467,-43.15857,7.471176
64.320224762,-0.765591999999998,0.846113400000001,0.3755064,0.9922239,0.08922736,-0.1012272,-31.95467,-43.15857,7.471176
64.33008337,-0.889823900000002,0.5485688,0.1915974,0.997215,0.07367576,-0.1076592,-31.95467,-43.15857,7.471176
64.339941025,-0.5171283,0.4295509,0.3142034,1.00004,0.07415847,-0.1153625,-31.95467,-43.15857,7.471176
64.349799633,-0.765591999999998,0.310533,0.1915974,0.9985753,0.08049334,-0.1095378,-31.95588,-43.53296,7.02685
64.359658241,-0.889823900000002,0.07249729,0.0689914200000002,0.9927366,0.07898568,-0.1085089,-31.95588,-43.53296,7.02685
64.371981621,-0.641360199999998,-0.04652058,0.2529004,0.9921796,0.08140311,-0.1113558,-31.95588,-43.53296,7.02685
64.381840229,-0.703476100000001,-0.04652058,0.0689914200000002,0.9921861,0.07701091,-0.1147473,-31.95588,-43.53296,7.02685
64.391698837,-0.641360199999998,0.1320062,0.1915974,0.9950583,0.07457785,-0.1215176,-31.95588,-43.53296,7.02685
64.401557446,-0.4550124,0.1320062,0.1915974,0.9949527,0.07796533,-0.1262795,-31.58215,-43.53727,7.024919
64.411416054,-0.0823169599999999,0.5485688,0.1915974,0.9925506,0.0764915,-0.1243409,-31.58215,-43.53727,7.024919
64.421274662,0.1661467,0.727095499999998,0.1915974,0.9963781,0.08480148,-0.1233669,-31.58215,-43.53727,7.024919
64.43113327,-0.02020105,1.143658,0.4981124,0.9954137,0.08089097,-0.1257822,-31.58215,-43.53727,7.024919
64.440991879,0.04191487,1.500712,0.3142034,0.9867018,0.0725398,-0.1262077,-31.58215,-43.53727,7.024919
64.450850487,0.2282626,1.679239,0.1302944,0.9900851,0.08476409,-0.1184856,-32.32835,-44.27029,6.65224
64.460708618,0.1040308,1.917274,0.2529004,0.9946199,0.07800559,-0.1147736,-32.32835,-44.27029,6.65224
64.470567227,0.5388422,2.036292,0.3755064,0.9955157,0.08384943,-0.1156955,-32.32835,-44.27029,6.65224
64.480425358,0.3524944,2.15531,0.2529004,0.9940629,0.08042304,-0.1176205,-32.32835,-44.27029,6.65224
64.490283966,0.4767263,2.393346,0.3142034,0.9990202,0.07706746,-0.1158027,-32.32835,-44.27029,6.65224
64.500142574,0.5388422,2.809908,0.1915974,0.9975219,0.07802214,-0.1172109,-31.58215,-43.53727,7.024919
64.510001183,0.600958099999998,2.809908,0.3142034,0.9960619,0.07849952,-0.1162276,-31.58215,-43.53727,7.024919
64.519859791,0.5388422,3.107453,0.1915974,0.9945715,0.08482697,-0.1123194,-31.58215,-43.53727,7.024919
64.529718399,0.2282626,3.226471,0.1915974,0.9936259,0.08043358,-0.1137806,-31.58215,-43.53727,7.024919
64.539577007,0.1040308,3.226471,0.2529004,0.9893239,0.07749394,-0.1089521,-31.58215,-43.53727,7.024919
64.551900387,0.4146104,3.107453,0.1302944,0.9952384,0.07316454,-0.1095521,-32.32961,-43.52864,7.028781
64.561758995,0.3524944,3.28598,0.007688423,0.9898911,0.07752053,-0.1032095,-32.32961,-43.52864,7.028781
64.571617603,0.2282626,3.226471,0.007688423,0.9903158,0.0779947,-0.1075244,-32.32961,-43.52864,7.028781
64.581475735,-0.02020105,3.583524,-0.05361458,0.9947754,0.07316766,-0.1076287,-32.32961,-43.52864,7.028781
64.591334343,0.4767263,3.28598,-0.1149176,0.9927806,0.07362774,-0.1099924,-32.32961,-43.52864,7.028781
64.601192951,0.5388422,3.107453,-0.2988266,0.9921557,0.08286099,-0.1118223,-31.95588,-43.53296,7.02685
64.611051559,0.1661467,2.928926,-0.4214326,0.9894736,0.0731426,-0.101803,-31.95588,-43.53296,7.02685
64.620910168,-0.02020105,2.631382,-0.3601296,0.9923308,0.0824227,-0.09936935,-31.95588,-43.53296,7.02685
64.630768776,-0.3307806,2.333837,-0.6053416,0.9962573,0.08294927,-0.09798327,-31.95588,-43.53296,7.02685
64.640627384,-0.4550124,2.15531,-0.4827355,0.9959742,0.07275096,-0.09183571,-31.95588,-43.53296,7.02685
64.650485992,-0.2686647,1.798256,-0.6666446,1.003308,0.07525586,-0.0900023,-32.32961,-43.52864,7.028781
64.660344601,-0.765591999999998,1.560221,-0.789250600000002,0.9929753,0.08198312,-0.08836066,-32.32961,-43.52864,7.028781
64.670203209,-1.573099,1.143658,-0.727947499999999,1.00016,0.0893278,-0.09319307,-32.32961,-43.52864,7.028781
64.680061817,-1.821563,0.965131299999997,-0.850553500000001,0.9938877,0.07269661,-0.1013904,-32.32961,-43.52864,7.028781
64.689920425,-1.510983,0.846113400000001,-0.727947499999999,0.991846,0.07656088,-0.1042039,-32.32961,-43.52864,7.028781
64.699779034,-1.262519,1.084149,-0.973159599999999,1.002045,0.08102491,-0.1057492,-31.95186,-44.26925,7.034391
64.709636688,-1.573099,1.143658,-0.789250600000002,0.9917346,0.08043493,-0.1089616,-31.95186,-44.26925,7.034391
64.721960068,-1.697331,1.143658,-0.850553500000001,0.9942466,0.07705784,-0.1071091,-31.95186,-44.26925,7.034391
64.731818676,-1.821563,1.322185,-0.6666446,0.9935862,0.08872213,-0.1093973,-31.95186,-44.26925,7.034391
64.741677284,-1.635215,1.262676,-0.727947499999999,0.9942279,0.08632882,-0.1003218,-31.95186,-44.26925,7.034391
64.751535892,-1.262519,1.143658,-0.911856500000002,0.9923011,0.07997309,-0.1037024,-32.33237,-43.53399,6.644699
64.761394501,-0.827707900000002,1.262676,-0.6053416,0.9899142,0.07996828,-0.09935562,-32.33237,-43.53399,6.644699
64.771253109,-0.579244300000001,1.203167,-0.6666446,0.9893774,0.07848567,-0.1041525,-32.33237,-43.53399,6.644699
64.781111717,-0.889823900000002,0.786604499999998,-0.727947499999999,0.9928408,0.08340944,-0.09697229,-32.33237,-43.53399,6.644699
64.790970325,-0.827707900000002,0.786604499999998,-0.789250600000002,0.995724,0.07951478,-0.1042342,-32.33237,-43.53399,6.644699
64.800828934,-0.2686647,0.846113400000001,-0.973159599999999,0.9953535,0.07173265,-0.1023778,-32.33559,-43.54022,6.196602
64.810687542,0.2903785,0.786604499999998,-0.973159599999999,0.9928018,0.08779236,-0.09597635,-32.33559,-43.54022,6.196602
64.82054615,-0.3928965,0.846113400000001,-0.911856500000002,0.9932802,0.08925825,-0.0954916,-32.33559,-43.54022,6.196602
64.830404282,-0.579244300000001,0.4295509,-0.6053416,0.9928149,0.09219014,-0.09114743,-32.33559,-43.54022,6.196602
64.84026289,-0.889823900000002,0.2510241,-0.727947499999999,0.9908383,0.08728485,-0.09691105,-32.33559,-43.54022,6.196602
64.850121498,-1.324635,-0.1060295,-0.789250600000002,0.9942381,0.08877286,-0.09742615,-32.70606,-44.6457,5.825763
64.859980106,-1.635215,-0.1655384,-0.6666446,0.9933212,0.08194658,-0.09890829,-32.70606,-44.6457,5.825763
64.869838715,-1.821563,-0.4630831,-0.850553500000001,0.9934768,0.08150271,-0.08789267,-32.70606,-44.6457,5.825763
64.879697323,-2.194258,-0.939154599999998,-0.850553500000001,0.9958789,0.08737059,-0.08596058,-32.70606,-44.6457,5.825763
64.889555931,-3.622924,-1.653262,-1.218372,0.9970343,0.0884062,-0.07207153,-32.70606,-44.6457,5.825763
64.901878834,-6.04544500000002,-2.605405,-1.58619,0.9782705,0.1082091,-0.06732418,-31.96065,-43.17016,6.638997
64.911737442,-6.85295199999998,-3.855092,-1.340978,0.9887763,0.08688444,-0.06909148,-31.96065,-43.17016,6.638997
64.92159605,-5.85909699999999,-4.807235,-1.463584,0.9950799,0.07667211,-0.08220588,-31.96065,-43.17016,6.638997
64.931454658,-5.175822,-5.699869,-1.770099,0.9988084,0.0927655,-0.08164401,-31.96065,-43.17016,6.638997
64.941313267,-5.921213,-5.87839600000002,-1.892705,1.002654,0.086922,-0.09181131,-31.96065,-43.17016,6.638997
64.951171875,-5.237938,-6.89004799999999,-2.015311,0.9970093,0.05861724,-0.1001161,-31.96186,-43.54454,6.194671
64.961030006,-2.00791,-7.00906600000001,-2.321826,0.9908137,0.04103146,-0.1035306,-31.96186,-43.54454,6.194671
64.970888615,2.278088,-7.84219100000002,-2.750947,0.9833988,0.06682053,-0.08643533,-31.96186,-43.54454,6.194671
64.980747223,3.830986,-8.91335200000002,-2.689644,0.9929305,0.08245856,-0.09123121,-31.96186,-43.54454,6.194671
64.990605831,5.197536,-9.32991399999999,-2.934855,0.9906427,0.07027629,-0.09034301,-31.96186,-43.54454,6.194671
65.000464439,6.129274,-10.34157,-3.180068,0.9805632,0.09744602,-0.08805326,-31.58813,-43.54885,6.192739
65.010323048,4.82484,-11.17469,-3.180068,0.9771388,0.09692746,-0.08848803,-31.58813,-43.54885,6.192739
65.020181656,3.76887,-12.36487,-3.180068,0.9657139,0.08799019,-0.1090062,-31.58813,-43.54885,6.192739
65.030040264,2.464436,-12.42438,-3.180068,0.9625024,0.0986264,-0.1198922,-31.58813,-43.54885,6.192739
65.039898872,-1.076172,-13.07898,-3.425279,0.9666615,0.0718786,-0.1254485,-31.58813,-43.54885,6.192739
65.049757481,-1.821563,-12.95996,-3.731794,0.9676268,0.03721945,-0.1569027,-31.95387,-43.9011,7.030621
65.059616089,-1.200403,-12.42438,-4.835248,0.978235,0.04459426,-0.1617836,-31.95387,-43.9011,7.030621
65.071938992,-1.697331,-10.28206,-5.141763,0.9945291,0.09430907,-0.1788475,-31.95387,-43.9011,7.030621
65.0817976,-4.678895,-8.02071800000003,-5.203066,0.9941525,0.112266,-0.1906705,-31.95387,-43.9011,7.030621
65.091655731,-8.77854399999999,-6.11643200000001,-4.590036,0.9946581,0.1059281,-0.195044,-31.95387,-43.9011,7.030621
65.101514339,-11.13895,-3.081476,-3.670491,0.9974597,0.1215393,-0.1911186,-31.19842,-44.2663,7.862708
65.111372948,-14.80379,-1.058172,-2.505734,1.002216,0.1620668,-0.1654468,-31.19842,-44.2663,7.862708
65.121231556,-16.23246,0.965131299999997,-1.954008,0.9996521,0.1269943,-0.1690607,-31.19842,-44.2663,7.862708
65.131090164,-14.74167,2.512363,-1.831402,0.9861096,0.08994708,-0.1543251,-31.19842,-44.2663,7.862708
65.140948772,-13.37512,3.404998,-1.647493,0.9935923,0.1007944,-0.1342138,-31.19842,-44.2663,7.862708
65.150807381,-13.74782,2.928926,-2.015311,0.9970249,0.08582722,-0.1109083,-31.57813,-44.27357,7.03246
65.160665989,-13.99628,2.15531,-3.057462,0.9917437,0.06543769,-0.08560754,-31.57813,-44.27357,7.03246
65.170524597,-14.55532,0.4295509,-3.24137,0.9905154,0.07721034,-0.05769712,-31.57813,-44.27357,7.03246
65.180383205,-16.35669,-2.90295,-3.793097,0.9895847,0.1133441,-0.02239735,-31.57813,-44.27357,7.03246
65.190241814,-18.59286,-6.94955700000003,-3.793097,0.9827017,0.1328027,-0.007759046,-31.57813,-44.27357,7.03246
65.200100422,-20.20787,-11.53174,-3.425279,0.9889639,0.1513838,0.001413304,-30.83344,-44.28755,6.644514
65.20995903,-22.00924,-15.51884,-2.812249,0.9765861,0.1507451,-0.009916459,-30.83344,-44.28755,6.644514
65.219817162,-22.63039,-19.2084,-2.505734,0.9791517,0.1477363,-0.03968878,-30.83344,-44.28755,6.644514
65.22967577,-22.07135,-21.2317,-1.770099,0.9791813,0.1363804,-0.0833922,-30.83344,-44.28755,6.644514
65.241998673,-22.19558,-23.43353,-0.973159599999999,0.9873011,0.1280982,-0.1051418,-30.83344,-44.28755,6.644514
65.251857281,-22.38193,-24.08813,-0.6666446,1.004578,0.1164416,-0.1399888,-30.83465,-44.66193,6.200188
65.261715889,-21.32596,-23.73108,-0.3601296,1.009828,0.09057587,-0.1723882,-30.83465,-44.66193,6.200188
65.271574497,-19.40037,-22.5409,-0.4214326,1.006188,0.0846251,-0.1934714,-30.83465,-44.66193,6.200188
65.281433106,-17.78535,-21.11268,-0.3601296,0.9888294,0.09807637,-0.1988608,-30.83465,-44.66193,6.200188
65.291291714,-18.28228,-19.74398,-1.034463,0.9781258,0.1305737,-0.2017884,-30.83465,-44.66193,6.200188
65.301150322,-19.5246,-17.78018,-0.2988266,0.9736452,0.1344183,-0.2040881,-30.82666,-45.0185,7.036138
65.31100893,-20.20787,-15.69737,-0.2988266,0.985312,0.1092487,-0.1958412,-30.82666,-45.0185,7.036138
65.320867539,-21.57442,-14.5667,-0.1762206,0.9774566,0.09417141,-0.1752509,-30.82666,-45.0185,7.036138
65.330726147,-22.56828,-13.9121,0.3142034,0.9709504,0.1170199,-0.1658606,-30.82666,-45.0185,7.036138
65.340584755,-22.56828,-14.5667,0.3755064,0.9902028,0.1099151,-0.1594861,-30.82666,-45.0185,7.036138
65.350443363,-21.76077,-15.10228,-0.2375236,0.9801033,0.1069442,-0.1493041,-30.09318,-44.68215,5.364145
65.360301495,-21.38808,-15.99492,-0.4827355,0.967705,0.1316874,-0.1398138,-30.09318,-44.68215,5.364145
65.370160103,-22.50616,-17.18509,0.3142034,0.9633566,0.1238523,-0.1426931,-30.09318,-44.68215,5.364145
65.380018711,-22.75463,-18.67282,-0.4214326,0.9580345,0.1189391,-0.1426587,-30.09318,-44.68215,5.364145
65.389877319,-21.0775,-19.98201,-0.05361458,0.970703,0.1175727,-0.1476428,-30.09318,-44.68215,5.364145
65.399735928,-20.58057,-20.81514,-0.5440385,0.9871119,0.1010566,-0.1786848,-30.46368,-44.6716,5.814173
65.409594536,-20.39422,-20.63661,-0.4214326,0.9817107,0.09123869,-0.1887539,-30.46368,-44.6716,5.814173
65.421917915,-20.7048,-20.81514,-0.2988266,0.976859,0.1428237,-0.1762694,-30.46368,-44.6716,5.814173
65.431776524,-20.14576,-21.41023,-0.2988266,0.9864534,0.1350447,-0.1970774,-30.46368,-44.6716,5.814173
65.441635132,-18.84132,-20.39858,-0.2375236,0.9760917,0.1134464,-0.2225095,-30.46368,-44.6716,5.814173
65.45149374,-17.10208,-19.62496,-0.4214326,0.9724122,0.08662604,-0.228913,-30.8354,-45.03543,5.819875
65.461352348,-15.54918,-19.14889,-0.789250600000002,0.9708936,0.08269265,-0.2361126,-30.8354,-45.03543,5.819875
65.471210957,-13.37512,-18.19674,-1.647493,0.985799,0.06433552,-0.2355215,-30.8354,-45.03543,5.819875
65.481069565,-11.3253,-17.54215,-1.831402,0.9849717,0.09059902,-0.2372049,-30.8354,-45.03543,5.819875
65.490928173,-10.14509,-16.70902,-2.199219,0.9722078,0.106585,-0.2263457,-30.8354,-45.03543,5.819875
65.500786781,-7.78468999999998,-16.35197,-2.873553,0.9642626,0.08367053,-0.2192378,-30.4669,-44.67783,5.366076
65.510644436,-3.99562,-16.17344,-3.609189,0.9652155,0.08416014,-0.2206849,-30.4669,-44.67783,5.366076
65.520503044,-2.753301,-16.47099,-4.038309,0.9741557,0.1183173,-0.2166905,-30.4669,-44.67783,5.366076
65.530361652,-3.560808,-16.47099,-3.793097,0.9653769,0.1304525,-0.2040037,-30.4669,-44.67783,5.366076
65.540220261,-1.945794,-17.06608,-4.283521,0.9606289,0.1172682,-0.2050057,-30.4669,-44.67783,5.366076
65.550078869,0.2282626,-18.13724,-4.222218,0.9537523,0.1323345,-0.193759,-29.70945,-45.41117,6.201934
65.559937477,0.3524944,-19.56545,-4.038309,0.9481286,0.1390529,-0.2056021,-29.70945,-45.41117,6.201934
65.569796085,-1.014056,-20.93416,-3.915704,0.9357282,0.123896,-0.1954901,-29.70945,-45.41117,6.201934
65.579654694,-0.5171283,-22.60041,-3.486583,0.946411,0.137639,-0.1892968,-29.70945,-45.41117,6.201934
65.591978073,-0.3928965,-23.9096,-3.425279,0.9626116,0.1726803,-0.2261303,-30.08196,-45.03248,6.648191
65.601836681,-1.138287,-23.31451,-3.180068,0.9477486,0.1715205,-0.2407835,-30.08196,-45.03248,6.648191
65.61169529,-2.815417,-23.31451,-3.302674,0.9331723,0.1786071,-0.2630383,-30.08196,-45.03248,6.648191
65.621553898,-3.99562,-21.64826,-3.057462,0.9508975,0.1314377,-0.2962745,-30.08196,-45.03248,6.648191
65.631412506,-5.79698099999998,-20.81514,-2.934855,0.9471205,0.1133776,-0.3021235,-30.08196,-45.03248,6.648191
65.641271114,-6.72872000000001,-18.73233,-2.934855,0.9546039,0.1240899,-0.3179534,-30.08196,-45.03248,6.648191
65.651128769,-8.03315400000002,-17.12559,-3.302674,0.948409,0.1113866,-0.3170139,-29.70823,-45.03679,6.64626
65.660987377,-7.47411100000001,-14.98326,-3.486583,0.9559467,0.1235791,-0.3275608,-29.70823,-45.03679,6.64626
65.670845985,-6.72872000000001,-12.48389,-4.344824,0.96643,0.1046892,-0.328828,-29.70823,-45.03679,6.64626
65.680704594,-4.678895,-10.04402,-4.651339,0.9738289,0.08133674,-0.3449441,-29.70823,-45.03679,6.64626
65.690563202,-2.380606,-7.66366400000002,-4.773945,0.9728035,0.1106083,-0.3226393,-29.70823,-45.03679,6.64626
65.70042181,-0.579244300000001,-5.81888699999998,-4.712642,0.9745001,0.1588858,-0.2992545,-30.0772,-45.39528,7.036045
65.710280418,-0.0823169599999999,-4.152637,-4.590036,0.9822874,0.1682201,-0.2940155,-30.0772,-45.39528,7.036045
65.720139027,0.1040308,-3.081476,-4.038309,0.9932764,0.1561745,-0.2880442,-30.0772,-45.39528,7.036045
65.729997635,-0.2065488,-1.77228,-3.302674,0.9832211,0.1478457,-0.2793456,-30.0772,-45.39528,7.036045
65.739856243,-1.324635,-1.415226,-2.750947,0.997909,0.1494438,-0.2771454,-30.0772,-45.39528,7.036045
65.749714851,-2.877533,-0.641609900000002,-2.137917,0.9761928,0.1399222,-0.2994387,-29.32451,-45.76582,7.484049
65.75957346,-2.256374,1.381694,-1.402281,0.9655446,0.1188657,-0.3095278,-29.32451,-45.76582,7.484049
65.771896839,0.725189899999998,3.404998,-1.402281,0.9565629,0.1513134,-0.3297315,-29.32451,-45.76582,7.484049
65.781755447,1.843277,5.90437299999999,-1.034463,0.9561187,0.1552277,-0.3229834,-29.32451,-45.76582,7.484049
65.791614056,1.656929,7.80865900000001,-0.4827355,0.9563516,0.1543177,-0.3067015,-28.95078,-45.77014,7.482118
65.801472187,1.532697,9.17736400000001,0.007688423,0.9660333,0.1403518,-0.2906646,-28.95078,-45.77014,7.482118
65.811330795,2.340204,10.30803,0.0689914200000002,0.9652742,0.1301529,-0.2835519,-28.95078,-45.77014,7.482118
65.821189403,2.837131,11.26018,0.2529004,0.9642497,0.1296429,-0.2873752,-28.95078,-45.77014,7.482118
65.831048012,3.706754,11.91478,-0.3601296,0.9591494,0.1077051,-0.2860501,-28.95078,-45.77014,7.482118
65.84090662,4.514261,12.86692,-0.727947499999999,0.9446964,0.09787408,-0.2782598,-28.20257,-45.40528,7.858566
65.850765228,5.259652,12.7479,-0.973159599999999,0.9542726,0.1257304,-0.2690564,-28.20257,-45.40528,7.858566
65.860623836,5.445999,13.46201,-1.095766,0.9542177,0.1413381,-0.2593399,-28.20257,-45.40528,7.858566
65.870482445,5.13542,13.64053,-0.973159599999999,0.9578692,0.1414332,-0.2426192,-28.20257,-45.40528,7.858566
65.880341053,4.390029,12.80741,-0.789250600000002,0.9514636,0.1574751,-0.2318501,-28.20257,-45.40528,7.858566
65.890199661,2.775015,11.79576,-0.4827355,0.9471506,0.147209,-0.2342713,-28.20257,-45.40528,7.858566
65.900058269,1.656929,11.08165,-0.6666446,0.9483102,0.137993,-0.2290944,-29.32049,-46.50212,7.49159
65.909916878,-1.759447,9.53441800000002,-0.6053416,0.9538751,0.1180758,-0.2331754,-29.32049,-46.50212,7.49159
65.919775486,-2.815417,8.701293,-0.3601296,0.9593413,0.1279123,-0.2183151,-29.32049,-46.50212,7.49159
65.929634094,-3.312345,7.21356999999998,-0.6666446,0.9543825,0.1390791,-0.2133582,-29.32049,-46.50212,7.49159
65.941956997,-3.125997,5.725846,-0.6666446,0.9621835,0.1445115,-0.2105484,-28.58303,-45.78604,6.648006
65.951815128,-1.697331,4.654685,-1.095766,0.9501508,0.1345596,-0.2406504,-28.58303,-45.78604,6.648006
65.961673737,-0.3928965,4.95223,-1.524887,0.9502433,0.1267744,-0.2407174,-28.58303,-45.78604,6.648006
65.971532345,0.1040308,4.41665,-1.647493,0.9536785,0.1346195,-0.233033,-28.58303,-45.78604,6.648006
65.981390953,-0.4550124,4.297632,-1.708796,0.9600303,0.1434617,-0.2258609,-28.58303,-45.78604,6.648006
65.991249561,-1.014056,3.345489,-1.708796,0.9655368,0.1367099,-0.222642,-28.96199,-45.41981,6.198071
66.00110817,0.04191487,2.928926,-1.892705,0.9634396,0.1469053,-0.2239636,-28.96199,-45.41981,6.198071
66.010966778,1.222117,2.869417,-1.954008,0.9599487,0.1453913,-0.2301563,-28.96199,-45.41981,6.198071
66.020825386,2.588667,2.750399,-1.954008,0.9575291,0.1365891,-0.2359464,-28.96199,-45.41981,6.198071
66.030683994,3.520406,2.571872,-1.402281,0.9553908,0.1540961,-0.2338514,-28.96199,-45.41981,6.198071
66.040542603,3.893102,2.333837,-0.973159599999999,0.9557902,0.1594453,-0.2357288,-28.95797,-46.1561,6.205612
66.050401211,5.011188,2.631382,0.1915974,0.9488431,0.1578919,-0.2442684,-28.95797,-46.1561,6.205612
66.060259819,6.81255000000002,3.107453,0.2529004,0.9606333,0.1580101,-0.2406019,-28.95797,-46.1561,6.205612
66.070118427,7.930636,3.583524,0.1915974,0.9493327,0.1452025,-0.2554041,-28.95797,-46.1561,6.205612
66.079977036,9.11083900000002,4.535667,0.4981124,0.9522468,0.1315521,-0.2689784,-28.95797,-46.1561,6.205612
66.089835644,10.35316,5.428301,0.3142034,0.9528921,0.1272069,-0.2613571,-28.95797,-46.1561,6.205612
66.099694252,11.47124,5.96388199999997,0.1915974,0.95824,0.1101572,-0.2788284,-29.33049,-45.77741,6.65187
66.10955286,13.6453,7.33258699999997,0.1915974,0.958778,0.09064639,-0.2924183,-29.33049,-45.77741,6.65187
66.121875286,17.74495,9.17736400000001,0.620718400000002,0.950811,0.1134838,-0.282528,-29.33049,-45.77741,6.65187
66.131733894,20.22959,10.48656,0.988536299999999,0.9642163,0.1682032,-0.2559013,-29.33049,-45.77741,6.65187
66.141592503,19.1115,10.42705,0.988536299999999,0.9445958,0.2293962,-0.2416877,-29.33049,-45.77741,6.65187
66.151451111,16.81321,11.49821,1.969384,0.9471134,0.2167444,-0.2475807,-29.33049,-45.77741,6.65187
66.161309719,14.70127,12.7479,2.582414,0.9519999,0.166634,-0.2562197,-29.33049,-45.77741,6.65187
66.171168327,14.51492,14.23562,3.501959,0.9517772,0.1315534,-0.2675342,-29.33049,-45.77741,6.65187
66.181026936,14.76339,15.54482,3.563262,0.9799551,0.1016142,-0.2725012,-29.33049,-45.77741,6.65187
66.190885544,15.57089,17.50862,3.379353,0.9940524,0.09194988,-0.2876388,-29.32572,-46.14021,7.039723
66.200744152,15.63301,18.99634,2.766323,0.9899273,0.1071251,-0.253908,-29.32572,-46.14021,7.039723
66.21060276,15.38455,20.0675,2.214596,0.9841076,0.1227107,-0.2364424,-29.32572,-46.14021,7.039723
66.220461369,15.63301,20.12701,1.172445,0.9818069,0.132495,-0.217159,-29.32572,-46.14021,7.039723
66.230319977,16.19205,20.00799,0.804627399999999,0.9796675,0.1281667,-0.1984763,-29.32572,-46.14021,7.039723
66.240178585,17.5586,20.0675,0.2529004,0.9904816,0.1253475,-0.1972166,-30.07996,-45.40063,6.651962
66.250037193,17.80707,20.7221,-0.3601296,1.005741,0.1167207,-0.1979861,-30.07996,-45.40063,6.651962
66.259895802,17.18591,21.01964,-0.6053416,1.00794,0.1050897,-0.1904484,-30.07996,-45.40063,6.651962
66.26975441,17.80707,21.4362,-0.5440385,1.011458,0.09831151,-0.1895974,-30.07996,-45.40063,6.651962
66.279612541,20.97498,22.15031,-1.218372,1.003666,0.1031344,-0.1827368,-30.07996,-45.40063,6.651962
66.291935444,19.73266,22.7454,-1.095766,0.9764901,0.1492006,-0.1618344,-29.70623,-45.40494,6.650031
66.301794052,15.50878,21.55522,-2.137917,0.9756002,0.1472642,-0.157046,-29.70623,-45.40494,6.650031
66.31165266,14.14223,21.13866,-2.689644,0.9769424,0.1078303,-0.1650651,-29.70623,-45.40494,6.650031
66.321511269,13.89376,21.13866,-3.302674,0.9797348,0.09183929,-0.1537391,-29.70623,-45.40494,6.650031
66.331369877,14.018,20.00799,-4.344824,0.975732,0.1142376,-0.1405546,-29.70623,-45.40494,6.650031
66.341228485,12.89991,18.57978,-4.344824,0.9698939,0.1522764,-0.1046896,-29.69945,-46.13589,7.041655
66.351087093,10.10469,16.25893,-4.344824,0.9668701,0.1839599,-0.08329438,-29.69945,-46.13589,7.041655
66.360945702,6.31562199999998,12.50986,-4.160915,0.9550102,0.1721044,-0.1023934,-29.69945,-46.13589,7.041655
66.37080431,6.56408599999997,10.66509,-4.344824,0.9674439,0.09708404,-0.1535197,-29.69945,-46.13589,7.041655
66.380662918,10.29104,10.07,-4.406127,0.9614578,0.05856425,-0.159989,-29.69945,-46.13589,7.041655
66.390521526,13.52107,9.95097999999998,-4.406127,0.9820383,0.1274609,-0.1328657,-29.70823,-45.03679,6.64626
66.400380135,13.45895,9.65343599999998,-4.222218,0.9970021,0.199172,-0.1204938,-29.70823,-45.03679,6.64626
66.410238743,11.09855,8.34423899999999,-4.835248,1.003842,0.1554248,-0.1238357,-29.70823,-45.03679,6.64626
66.420097351,10.35316,7.51111399999998,-1.095766,0.9924926,0.1878733,-0.1382553,-29.70823,-45.03679,6.64626
66.429955959,7.12312899999999,7.21356999999998,1.601566,1.041848,0.2594419,-0.1153531,-29.70823,-45.03679,6.64626
66.439814568,4.762724,5.428301,2.521111,1.018926,0.2322704,-0.1698845,-29.71346,-44.67488,6.194393
66.449672699,7.74428800000002,7.03504299999997,3.685868,0.9981773,0.1038974,-0.2257801,-29.71346,-44.67488,6.194393
66.459531307,15.88147,10.60558,3.501959,0.9710195,0.03634702,-0.2676535,-29.71346,-44.67488,6.194393
66.471854687,20.35382,15.48531,2.766323,0.9414161,0.1022789,-0.2637999,-29.71346,-44.67488,6.194393
66.481713295,15.88147,18.63928,2.70502,0.9237525,0.1558127,-0.2204476,-29.71346,-44.67488,6.194393
66.491571903,12.27875,19.94848,2.643717,0.9361522,0.1282758,-0.1964176,-30.07519,-45.76343,7.039815
66.501430512,14.14223,21.73375,2.643717,0.9627699,0.08476201,-0.1842258,-30.07519,-45.76343,7.039815
66.51128912,18.05553,22.56688,2.398505,0.9769424,0.1084537,-0.1286407,-30.07519,-45.76343,7.039815
66.521147728,19.04939,21.97178,2.398505,0.9702636,0.1557994,-0.07447561,-30.07519,-45.76343,7.039815
66.531006336,16.25417,18.81781,2.398505,0.9653316,0.1636915,-0.03456517,-30.07519,-45.76343,7.039815
66.540864945,13.58318,15.00924,1.785475,0.9659239,0.1078495,-0.004376114,-30.07996,-45.40063,6.651962
66.550723553,11.71971,9.71294500000002,1.969384,0.9712689,0.09825753,0.02038512,-30.07996,-45.40063,6.651962
66.560582161,9.60776600000003,4.654685,0.8659304,0.9865384,0.09207473,0.02251132,-30.07996,-45.40063,6.651962
66.570440292,5.508115,-0.701118900000002,-0.1149176,0.992309,0.08721603,0.01088728,-30.07996,-45.40063,6.651962
66.580298901,3.644638,-4.747726,-0.6666446,0.9800204,0.08828526,-0.06416287,-30.07996,-45.40063,6.651962
66.590157509,2.464436,-7.12808399999997,-0.911856500000002,0.9859015,0.1087107,-0.08132549,-31.57487,-45.38336,6.659689
66.600016117,1.222117,-8.13973500000002,-0.5440385,0.992641,0.1528985,-0.1222598,-31.57487,-45.38336,6.659689
66.609874725,1.346349,-7.90170000000001,-0.4827355,0.9954509,0.1429891,-0.1760538,-31.57487,-45.38336,6.659689
66.619733333,2.650783,-5.045271,-0.05361458,0.9957337,0.1312171,-0.2015547,-31.57487,-45.38336,6.659689
66.629591465,3.706754,-1.593753,0.1915974,1.007236,0.1434589,-0.2083241,-31.57487,-45.38336,6.659689
66.641914844,1.222117,1.262676,0.5594154,0.9888965,0.1248128,-0.2063033,-30.08121,-44.65899,7.028504
66.651773453,0.787305800000002,3.28598,0.4368094,0.990149,0.09072376,-0.2161929,-30.08121,-44.65899,7.028504
66.661632061,1.781161,5.725846,0.007688423,0.9765273,0.07464768,-0.18882,-30.08121,-44.65899,7.028504
66.671490669,1.781161,6.558971,-0.1149176,0.9777029,0.1108413,-0.1425282,-30.08121,-44.65899,7.028504
66.681349277,1.408465,6.14240899999998,-0.727947499999999,0.9782019,0.1045016,-0.1473808,-30.08121,-44.65899,7.028504
66.691207886,3.147711,6.14240899999998,-1.157069,0.9853716,0.08951873,-0.137067,-30.07398,-45.38904,7.484142
66.701066494,5.011188,5.725846,-1.279675,0.9862216,0.1300136,-0.1108606,-30.07398,-45.38904,7.484142
66.710925102,2.712899,4.595177,-1.340978,0.9847267,0.1636804,-0.08324084,-30.07398,-45.38904,7.484142
66.72078371,0.1661467,2.869417,-1.034463,0.980269,0.157414,-0.05687421,-30.07398,-45.38904,7.484142
66.730642319,-1.510983,0.4890598,-0.727947499999999,0.9887184,0.1352024,-0.03082612,-30.07398,-45.38904,7.484142
66.740500927,-1.697331,-2.724423,-1.095766,0.9771559,0.1257377,-0.06188917,-30.45494,-44.65467,7.030436
66.750359535,-1.945794,-5.10478,-1.402281,0.9708345,0.1154395,-0.06811558,-30.45494,-44.65467,7.030436
66.760218143,-3.560808,-7.36611899999999,-1.524887,0.9687581,0.1178291,-0.0747746,-30.45494,-44.65467,7.030436
66.770076752,-4.865242,-9.44893200000001,-1.954008,0.9696292,0.1158543,-0.08438767,-30.45494,-44.65467,7.030436
66.77993536,-5.486402,-11.53174,-2.137917,0.9694404,0.1201945,-0.09441154,-30.45494,-44.65467,7.030436
66.789793968,-5.237938,-12.90045,-2.689644,0.9707912,0.1206624,-0.1025732,-29.70225,-45.02521,7.478439
66.799652576,-4.181968,-13.85259,-2.934855,0.9691865,0.1201221,-0.1130973,-29.70225,-45.02521,7.478439
66.811975002,-2.566953,-14.62621,-3.24137,0.9750782,0.1302978,-0.138493,-29.70225,-45.02521,7.478439
66.82183361,-2.256374,-14.74523,-2.996159,0.9824956,0.1323384,-0.1309143,-29.70225,-45.02521,7.478439
66.831692219,-2.877533,-14.86425,-3.118764,0.9846135,0.1395899,-0.1486136,-29.70225,-45.02521,7.478439
66.841550827,-3.809272,-14.38817,-3.180068,0.9864526,0.1351796,-0.1611363,-30.07398,-45.38904,7.484142
66.851409435,-4.492547,-13.37652,-2.812249,0.9934357,0.1347904,-0.1516551,-30.07398,-45.38904,7.484142
66.861268043,-5.548518,-13.49554,-2.750947,0.9939543,0.1624969,-0.1610126,-30.07398,-45.38904,7.484142
66.871126652,-5.67275,-12.95996,-2.015311,0.9805307,0.1390187,-0.1614987,-30.07398,-45.38904,7.484142
66.88098526,-5.610633,-13.13849,-1.647493,0.9894987,0.1445136,-0.1448081,-30.07398,-45.38904,7.484142
66.890843868,-5.486402,-12.42438,-1.892705,0.9741037,0.132108,-0.172487,-29.7015,-44.65172,7.858752
66.900702476,-6.60448799999999,-12.24585,-1.770099,0.9716358,0.1301271,-0.1758229,-29.7015,-44.65172,7.858752
66.910561085,-8.84066099999998,-11.82929,-1.892705,0.9866584,0.1546322,-0.1648086,-29.7015,-44.65172,7.858752
66.920419693,-9.896631,-12.00782,-2.996159,0.9842272,0.09958033,-0.1762602,-29.7015,-44.65172,7.858752
66.930278301,-6.48025699999999,-11.82929,-2.996159,0.9866111,0.05040856,-0.1882099,-29.7015,-44.65172,7.858752
66.940136909,-0.827707900000002,-11.53174,-4.835248,0.982844,0.06506246,-0.1645518,-30.82068,-45.00692,7.868317
66.949995518,3.334059,-11.53174,-6.24521700000002,0.9795052,0.07384457,-0.1505333,-30.82068,-45.00692,7.868317
66.959854126,5.81869499999997,-12.90045,-6.429126,0.986435,0.1240806,-0.1363113,-30.82068,-45.00692,7.868317
66.969712734,4.949072,-14.74523,-7.10345900000001,0.9399035,0.1733162,-0.1328366,-30.82068,-45.00692,7.868317
66.979571342,4.327913,-16.94706,-8.32951900000003,0.9594549,0.09333303,-0.09689192,-30.82068,-45.00692,7.868317
66.991894722,6.129274,-21.82679,-8.206914,0.9680715,0.1206979,-0.08672059,-29.69025,-46.11807,8.321931
67.00175333,6.06715799999999,-24.86175,-8.39082200000002,0.9660717,0.1561736,-0.09453908,-29.69025,-46.11807,8.321931
67.011610985,4.514261,-28.13474,-9.06515500000003,0.9896337,0.1354109,-0.1070301,-29.69025,-46.11807,8.321931
67.021469593,-0.2065488,-31.34822,-8.206914,0.9462206,0.1850779,-0.1256394,-29.69025,-46.11807,8.321931
67.031328201,-2.380606,-33.55005,-7.47127699999998,0.9401702,0.1595868,-0.1612291,-29.69025,-46.11807,8.321931
67.04118681,-2.504838,-35.33532,-7.10345900000001,0.9605967,0.1820579,-0.1862489,-28.94082,-45.37883,9.142706
67.051045418,-7.84680700000002,-37.1801,-6.61303499999999,0.9211067,0.2895909,-0.2250313,-28.94082,-45.37883,9.142706
67.060904026,-9.21335600000002,-38.37027,-4.406127,0.898538,0.1267106,-0.2653786,-28.94082,-45.37883,9.142706
67.070762634,-8.28161699999999,-39.61996,-3.793097,1.004676,0.1795333,-0.1849816,-28.94082,-45.37883,9.142706
67.080621243,-9.08912500000002,-40.45309,-1.647493,0.942391,0.1262096,-0.2430063,-28.94082,-45.37883,9.142706
67.090479851,-7.53622700000002,-41.46474,-2.260523,0.9566107,0.1622032,-0.280762,-29.30979,-45.73732,9.532491
67.100338459,-10.14509,-39.61996,-2.934855,0.9474681,0.179117,-0.2905521,-29.30979,-45.73732,9.532491
67.110197067,-8.654313,-37.47764,-2.567038,0.9330305,0.1789197,-0.3090368,-29.30979,-45.73732,9.532491
67.120055676,-7.34987899999998,-35.39483,-0.973159599999999,0.9059491,0.1791194,-0.3215875,-29.30979,-45.73732,9.532491
67.129914284,-7.22564700000002,-33.193,0.1915974,0.9099857,0.1923713,-0.3009276,-29.30979,-45.73732,9.532491
67.139772892,-8.77854399999999,-32.12184,0.927233400000001,0.9009891,0.207509,-0.2656901,-27.86118,-46.46699,11.19699
67.1496315,-9.83451600000002,-31.8838,1.846778,0.8990461,0.182243,-0.2510204,-27.86118,-46.46699,11.19699
67.16195488,-9.21335600000002,-33.49054,2.153293,0.9533143,0.1564858,-0.2405104,-27.86118,-46.46699,11.19699
67.171813488,-10.57991,-35.51385,2.275899,0.9862369,0.1724412,-0.2159267,-27.86118,-46.46699,11.19699
67.181672096,-12.19492,-38.01322,2.766323,1.003495,0.1915375,-0.2251163,-27.86118,-46.46699,11.19699
67.191530705,-14.92802,-40.27456,2.827626,1.024585,0.1575637,-0.2511011,-27.86318,-46.09884,11.19322
67.201389313,-16.91573,-41.46474,3.011535,1.002414,0.1534179,-0.2661545,-27.86318,-46.09884,11.19322
67.211247921,-17.47477,-42.47639,3.256747,0.9650413,0.1738917,-0.2980346,-27.86318,-46.09884,11.19322
67.221105576,-18.71709,-42.77394,3.624565,0.945262,0.1687758,-0.3179223,-27.86318,-46.09884,11.19322
67.230964184,-18.84132,-41.94081,3.256747,0.9293571,0.1597775,-0.3441275,-27.86318,-46.09884,11.19322
67.240822792,-19.1519,-40.15554,4.298898,0.937335,0.1486606,-0.3428974,-27.10974,-46.09589,12.02153
67.2506814,-18.46863,-39.32242,4.789322,0.9106515,0.1482152,-0.3985872,-27.10974,-46.09589,12.02153
67.260540009,-15.67341,-36.5255,4.298898,0.9240537,0.1493641,-0.3834342,-27.10974,-46.09589,12.02153
67.270398617,-16.04611,-34.26416,4.421504,0.9198437,0.1557269,-0.3636733,-27.10974,-46.09589,12.02153
67.280257225,-17.78535,-33.96661,4.482807,0.8970149,0.1520171,-0.3906936,-27.10974,-46.09589,12.02153
67.290115833,-15.6113,-31.46724,5.034534,0.9086409,0.1511119,-0.3999717,-26.73601,-46.10021,12.0196
67.299974442,-15.17648,-29.56295,4.237596,0.8891091,0.1504606,-0.3977821,-26.73601,-46.10021,12.0196
67.30983305,-14.67956,-27.65867,5.279747,0.8743009,0.1336931,-0.4221517,-26.73601,-46.10021,12.0196
67.319691658,-14.67956,-24.68322,5.463655,0.8855271,0.1526913,-0.4432361,-26.73601,-46.10021,12.0196
67.332015038,-15.48706,-21.35072,5.524958,0.8943601,0.1338715,-0.4219569,-26.73601,-46.10021,12.0196
67.341873646,-14.92802,-21.17219,4.850626,0.8923532,0.1007756,-0.4188532,-26.72803,-46.45678,12.85555
67.351732254,-11.69799,-19.863,4.973231,0.8956007,0.1222375,-0.4129679,-26.72803,-46.45678,12.85555
67.361590862,-8.53008099999998,-18.5538,4.176292,0.8569736,0.1242065,-0.4454655,-26.72803,-46.45678,12.85555
67.371449471,-3.68504,-16.94706,3.072838,0.8702516,0.1039731,-0.4223448,-26.72803,-46.45678,12.85555
67.381308079,-4.616779,-17.72067,2.521111,0.8899162,0.084645,-0.4323722,-26.72803,-46.45678,12.85555
67.391166687,1.656929,-14.80474,-0.1149176,0.8760633,0.1352549,-0.399162,-26.35631,-46.09294,12.84985
67.401025295,0.3524944,-15.75688,0.1915974,0.9265332,0.2070061,-0.3302711,-26.35631,-46.09294,12.84985
67.410883904,-3.99562,-17.36362,-1.034463,0.9913747,0.1739669,-0.3400997,-26.35631,-46.09294,12.84985
67.420742512,-5.175822,-19.14889,-0.4214326,0.9519214,0.1339832,-0.3983371,-26.35631,-46.09294,12.84985
67.430600643,-2.939649,-17.60166,-0.05361458,0.9260867,0.1434092,-0.4189742,-26.35631,-46.09294,12.84985
67.440459252,-1.573099,-16.70902,-0.3601296,0.9258167,0.1376087,-0.4079977,-26.34631,-46.81766,13.68957
67.45031786,-1.448867,-15.28081,-0.5440385,0.9172689,0.1214927,-0.4032199,-26.34631,-46.81766,13.68957
67.460176468,0.973653600000002,-14.15014,-0.2988266,0.8846713,0.1555118,-0.4676393,-26.34631,-46.81766,13.68957
67.470035076,3.396174,-10.16304,0.743324399999998,0.8763833,0.1862044,-0.4385101,-26.34631,-46.81766,13.68957
67.479893684,4.327913,-7.96120899999999,1.356354,0.8406155,0.1945248,-0.4709949,-26.34631,-46.81766,13.68957
67.489752293,5.445999,-5.64036,3.501959,0.8800645,0.2265605,-0.4559524,-25.98182,-45.72376,13.22823
67.499610901,4.079449,-3.021967,5.15714,0.9028845,0.1771863,-0.4404016,-25.98182,-45.72376,13.22823
67.511933804,2.588667,-3.140985,6.01538200000003,0.9278182,0.1541033,-0.4260966,-25.98182,-45.72376,13.22823
67.521792412,4.514261,-2.843441,5.279747,0.9501396,0.1027693,-0.4129511,-25.98182,-45.72376,13.22823
67.53165102,7.30947700000003,-3.200494,3.011535,0.9323617,0.05938377,-0.3914999,-25.98182,-45.72376,13.22823
67.541509628,9.60776600000003,-4.5692,0.3142034,0.9013817,0.09017622,-0.4118833,-25.97459,-46.45382,13.68387
67.551368236,11.22278,-5.521342,1.049839,0.89134,0.1679971,-0.398145,-25.97459,-46.45382,13.68387
67.561226845,9.918345,-6.05692300000003,-0.1762206,0.902031,0.1574663,-0.3768223,-25.97459,-46.45382,13.68387
67.571085453,9.98046100000001,-7.60415499999998,0.927233400000001,0.8933614,0.1636388,-0.3972522,-25.97459,-46.45382,13.68387
67.580944061,8.986607,-7.723173,2.275899,0.9111318,0.1902046,-0.3622997,-25.97459,-46.45382,13.68387
67.590802669,6.75043299999998,-8.85384299999998,1.908081,0.8713945,0.1779688,-0.4169446,-25.6001,-46.08464,14.06225
67.600661278,5.81869499999997,-9.09187900000003,4.176292,0.8989137,0.1788704,-0.3713261,-25.6001,-46.08464,14.06225
67.610519886,2.837131,-10.22255,4.911928,0.8912854,0.1489407,-0.4189107,-25.6001,-46.08464,14.06225
67.620378494,3.893102,-9.80598499999999,6.07668500000002,0.9048495,0.1742766,-0.442371,-25.6001,-46.08464,14.06225
67.630237102,1.532697,-9.38942300000003,6.62841199999998,0.9327556,0.16783,-0.4107167,-25.6001,-46.08464,14.06225
67.640095711,-3.99562,-11.05567,6.62841199999998,0.9802423,0.1299607,-0.3700228,-25.96785,-46.06874,14.89636
67.649954319,-7.03929899999998,-13.198,5.95407899999997,0.9806377,0.1115209,-0.3572457,-25.96785,-46.06874,14.89636
67.659812927,-11.88434,-15.39983,4.54411,0.9428865,0.1067694,-0.36729,-25.96785,-46.06874,14.89636
67.669671059,-12.81608,-17.54215,3.624565,0.9237666,0.1147533,-0.3990566,-25.96785,-46.06874,14.89636
67.681994438,-9.02700799999998,-17.36362,1.417657,0.8511612,0.1012244,-0.4613903,-25.96785,-46.06874,14.89636
67.691853046,-3.871388,-16.64951,1.233748,0.8483987,0.1278297,-0.4970663,-25.22315,-46.08272,14.50841
67.701711655,-5.175822,-15.16179,1.724172,0.8815365,0.1614227,-0.4411887,-25.22315,-46.08272,14.50841
67.711570263,-8.77854399999999,-14.98326,2.214596,0.8753288,0.2041032,-0.4642209,-25.22315,-46.08272,14.50841
67.721428871,-12.38127,-13.55505,3.134141,0.8846915,0.1944405,-0.4677902,-25.22315,-46.08272,14.50841
67.731287479,-14.8659,-13.2575,4.176292,0.8879997,0.1273327,-0.4636117,-25.22315,-46.08272,14.50841
67.741146088,-14.18263,-13.97161,5.647564,0.9062042,0.1513108,-0.4708568,-25.5909,-46.06683,15.34252
67.751004696,-14.30686,-10.63911,6.751019,0.8968279,0.1648755,-0.4648583,-25.5909,-46.06683,15.34252
67.760863304,-15.42495,-10.40108,7.24144199999999,0.8697601,0.1699614,-0.4720968,-25.5909,-46.06683,15.34252
67.770721912,-14.61744,-6.71152099999998,11.22614,0.8835789,0.1568001,-0.5107408,-25.5909,-46.06683,15.34252
67.780580521,-13.37512,-4.093128,10.06138,0.8784528,0.1052083,-0.5015191,-25.5909,-46.06683,15.34252
67.790439129,-10.33144,-3.021967,10.18399,0.8678551,0.1216244,-0.5108135,-25.97262,-45.70594,14.50851
67.800297737,-8.71642900000001,-0.582100999999999,9.93877400000001,0.8894022,0.1392625,-0.5296605,-25.97262,-45.70594,14.50851
67.810156345,-7.47411100000001,2.095801,8.83531999999998,0.8836102,0.1211685,-0.5397939,-25.97262,-45.70594,14.50851
67.820014954,-5.73486500000002,4.595177,7.73186600000001,0.8960178,0.09021616,-0.5181888,-25.97262,-45.70594,14.50851
67.829873562,-3.436576,7.21356999999998,6.68971499999997,0.8940369,0.09116839,-0.5191109,-25.97262,-45.70594,14.50851
67.839731693,-2.566953,8.64178400000002,5.218443,0.8918688,0.1106199,-0.5174783,-25.59889,-45.71026,14.50657
67.849590301,-2.380606,10.01049,4.237596,0.9013989,0.1127222,-0.4984284,-25.59889,-45.71026,14.50657
67.861913681,-1.200403,10.90312,2.70502,0.9001862,0.1132702,-0.4792385,-25.59889,-45.71026,14.50657
67.871772289,-0.579244300000001,11.61723,1.724172,0.8991352,0.1254465,-0.4738496,-25.59889,-45.71026,14.50657
67.881630897,-0.2686647,12.45036,1.049839,0.9128784,0.1407159,-0.4571446,-25.59889,-45.71026,14.50657
67.891489506,0.663074000000001,14.65219,1.111142,0.8926702,0.1453773,-0.4640052,-26.72731,-44.96725,14.05673
67.901348114,1.160001,15.78286,1.111142,0.9169808,0.1456867,-0.4389515,-26.72731,-44.96725,14.05673
67.911206722,-1.697331,16.37794,1.47896,0.9240463,0.1394622,-0.4285624,-26.72731,-44.96725,14.05673
67.92106533,-3.622924,17.21107,2.275899,0.9107203,0.1500526,-0.4278039,-26.72731,-44.96725,14.05673
67.930923939,-5.113706,18.28223,3.869777,0.9025528,0.1606272,-0.4434118,-26.72731,-44.96725,14.05673
67.94078207,-3.37446,19.17487,3.93108,0.889559,0.1322541,-0.4525708,-26.35233,-45.71321,13.67826
67.950640678,0.973653600000002,22.56688,4.482807,0.8896347,0.1176289,-0.4598833,-26.35233,-45.71321,13.67826
67.960499287,3.209827,24.29263,3.440656,0.8947029,0.08465835,-0.4401075,-26.35233,-45.71321,13.67826
67.970357895,6.129274,24.94723,2.214596,0.9098275,0.06489903,-0.4246762,-26.35233,-45.71321,13.67826
67.980216503,8.241216,25.12576,0.1915974,0.9303031,0.09044874,-0.4075012,-26.35233,-45.71321,13.67826
67.990075111,11.09855,26.49446,-1.279675,0.9304153,0.09145718,-0.3983895,-27.10778,-45.34801,12.84617
67.99993372,11.71971,25.12576,-3.180068,0.9160507,0.08346911,-0.4183786,-27.10778,-45.34801,12.84617
68.009792328,13.21049,27.26808,-3.425279,0.9121612,0.08588242,-0.4144692,-27.10778,-45.34801,12.84617
68.019650936,12.4651,27.68464,-5.448278,0.903609,0.1140586,-0.4069215,-27.10778,-45.34801,12.84617
68.031973839,12.89991,28.39875,-6.429126,0.9004838,0.08726113,-0.4085407,-27.10778,-45.34801,12.84617
68.041832447,13.39684,29.52942,-6.36782300000001,0.900789,0.07807185,-0.3942466,-26.73129,-45.34698,13.22832
68.051691055,14.32858,29.17237,-7.961701,0.9132698,0.1035044,-0.3894179,-26.73129,-45.34698,13.22832
68.061549664,14.63916,30.24353,-8.26821599999997,0.9165532,0.1098415,-0.3942032,-26.73129,-45.34698,13.22832
68.071408272,15.50878,29.94598,-10.10731,0.922192,0.1001981,-0.3838226,-26.73129,-45.34698,13.22832
68.08126688,15.69513,30.00549,-9.61688199999998,0.926227,0.09929097,-0.3757413,-26.73129,-45.34698,13.22832
68.091125488,15.01185,30.12451,-9.92339700000002,0.9326982,0.1090085,-0.3949195,-27.48473,-45.34994,12.40001
68.100984097,15.44666,31.67174,-10.41382,0.9319515,0.107113,-0.3795905,-27.48473,-45.34994,12.40001
68.110842705,15.57089,31.49322,-10.72034,0.9187143,0.1074759,-0.3813156,-27.48473,-45.34994,12.40001
68.120701313,16.75109,32.62389,-10.53643,0.9167148,0.1352754,-0.3599677,-27.48473,-45.34994,12.40001
68.130559921,16.3784,31.85027,-10.47512,0.9268984,0.1465701,-0.3566631,-27.48473,-45.34994,12.40001
68.14041853,15.26031,32.32634,-9.739489,0.929315,0.1490245,-0.3566768,-27.48548,-45.72343,12.01969
68.150277138,13.52107,33.21898,-8.81994299999999,0.9193483,0.1689029,-0.3525334,-27.48548,-45.72343,12.01969
68.160135746,10.72585,33.27848,-7.10345900000001,0.9330833,0.2178577,-0.3067921,-27.48548,-45.72343,12.01969
68.169994354,6.81255000000002,32.62389,-5.87739899999999,0.9438022,0.2340522,-0.2957866,-27.48548,-45.72343,12.01969
68.179852963,6.37773799999999,32.56438,-4.651339,0.9391475,0.2003888,-0.3079844,-27.48548,-45.72343,12.01969
68.189711571,5.197536,33.3975,-5.632187,0.939788,0.1289373,-0.2879909,-27.11773,-45.73933,11.18558
68.199570179,1.594813,31.73125,-5.570884,0.9146994,0.1107473,-0.2782029,-27.11773,-45.73933,11.18558
68.211893082,2.215972,30.12451,-5.93870199999998,0.9555449,0.1129939,-0.2945796,-27.11773,-45.73933,11.18558
68.22175169,2.899247,28.87482,-7.28736799999999,0.9612402,0.106296,-0.2774661,-27.11773,-45.73933,11.18558
68.231610298,4.949072,28.10121,-7.53257999999997,0.9535624,0.1520273,-0.2621156,-27.11773,-45.73933,11.18558
68.241468906,5.383883,26.97054,-7.961701,0.9621204,0.1705874,-0.2639977,-27.49021,-46.47665,10.81097
68.251327515,3.706754,26.43496,-7.28736799999999,0.9473443,0.1797051,-0.263231,-27.49021,-46.47665,10.81097
68.261186123,0.4767263,25.24478,-5.69349,0.9505547,0.1944564,-0.2300875,-27.49021,-46.47665,10.81097
68.271044731,-2.753301,24.23313,-3.486583,0.960269,0.2270992,-0.2424096,-27.49021,-46.47665,10.81097
68.280903339,-6.91506799999999,24.59018,-0.5440385,0.9672848,0.2695481,-0.2287338,-27.49021,-46.47665,10.81097
68.290761948,-11.01472,22.80491,0.682021400000003,0.9617993,0.2684942,-0.2372901,-28.1786,-46.47497,10.36642
68.300620556,-10.57991,24.11411,1.47896,0.9545237,0.1748426,-0.2791879,-28.1786,-46.47497,10.36642
68.310479164,-10.51779,25.00674,2.398505,0.960887,0.1354888,-0.2776939,-28.1786,-46.47497,10.36642
68.320337772,-7.90892299999997,25.95888,2.337202,0.9506804,0.1349286,-0.2732404,-28.1786,-46.47497,10.36642
68.330196381,-6.16967699999999,25.54232,0.743324399999998,0.954838,0.1021864,-0.3200583,-28.1786,-46.47497,10.36642
68.340054989,-1.138287,29.58893,0.3142034,0.9484985,0.04940735,-0.3649789,-28.24767,-45.74331,9.975115
68.349913597,3.334059,32.6834,0.682021400000003,0.9651862,0.09679324,-0.3552329,-28.24767,-45.74331,9.975115
68.359772205,6.62620199999998,36.84902,2.643717,0.9790783,0.1884864,-0.3321347,-28.24767,-45.74331,9.975115
68.369630814,6.129274,39.76496,4.237596,0.9821674,0.2606786,-0.2932335,-28.24767,-45.74331,9.975115
68.381953716,2.40232,42.97844,6.32189799999997,0.9589891,0.2205224,-0.3061804,-28.24767,-45.74331,9.975115
68.391812325,2.09174,46.96554,7.793169,0.9500507,0.1576956,-0.2993952,-28.25762,-46.13462,8.314527
68.401670933,1.843277,49.58393,8.03838099999998,0.9249677,0.1352483,-0.2570577,-28.25762,-46.13462,8.314527
68.411529541,2.278088,50.23853,9.08053200000002,0.9087766,0.1493854,-0.212142,-28.25762,-46.13462,8.314527
68.421388149,3.582522,49.22688,8.22229000000003,0.8990561,0.1387109,-0.1809456,-28.25762,-46.13462,8.314527
68.431246758,4.017333,48.33424,7.18013899999999,0.9351931,0.1025318,-0.181766,-28.25762,-46.13462,8.314527
68.441105366,7.06101299999998,48.51277,5.524958,0.9788899,0.0503694,-0.180433,-28.954,-45.77637,7.034021
68.450963974,9.73199700000002,47.97719,4.911928,0.9913401,0.06469918,-0.1517375,-28.954,-45.77637,7.034021
68.460822582,12.40298,46.90603,4.605413,0.9846542,0.1203428,-0.09079354,-28.954,-45.77637,7.034021
68.470681191,11.03643,43.33549,4.54411,0.9725227,0.1798261,-0.03117709,-28.954,-45.77637,7.034021
68.480539799,10.85008,38.09871,4.728019,0.9501181,0.199319,0.02920666,-28.954,-45.77637,7.034021
68.490398407,11.47124,32.0883,4.728019,0.9331284,0.1768817,0.05513623,-28.96797,-45.43139,5.365891
68.500257015,13.45895,24.64969,3.869777,0.9266519,0.150563,0.05931921,-28.96797,-45.43139,5.365891
68.510115624,12.83779,17.44911,3.134141,0.9243072,0.1222531,0.04186253,-28.96797,-45.43139,5.365891
68.519974232,10.16681,11.02214,3.195444,0.9432781,0.1096975,0.02279741,-28.96797,-45.43139,5.365891
68.529832363,6.874665,4.178614,3.011535,0.9730313,0.09542523,0.03950408,-28.96797,-45.43139,5.365891
68.539690972,8.80025999999999,-1.950806,1.785475,0.9849603,0.07884808,0.002775007,-29.71744,-45.05461,5.365983
68.54954958,12.83779,-7.36611899999999,0.1302944,0.9774703,0.06311645,-0.02216938,-29.71744,-45.05461,5.365983
68.561872959,16.93744,-11.65076,-1.402281,0.9683588,0.07843924,-0.06695496,-29.71744,-45.05461,5.365983
68.571731567,16.62686,-13.61456,-2.015311,0.9531815,0.1020893,-0.08283181,-29.71744,-45.05461,5.365983
68.581590176,14.45281,-15.81639,-2.076613,0.9475422,0.1288205,-0.07821306,-30.08594,-45.41221,5.819783
68.591448784,13.58318,-18.79183,-2.137917,0.9598571,0.1346767,-0.1027783,-30.08594,-45.41221,5.819783
68.601307392,12.65145,-20.39858,-2.199219,0.9693077,0.1451914,-0.04627875,-30.08594,-45.41221,5.819783
68.611166,8.48967900000002,-22.77893,-2.199219,0.965974,0.1611632,-0.06143083,-30.08594,-45.41221,5.819783
68.621024609,3.520406,-26.34947,-0.850553500000001,0.9864665,0.1588888,-0.06749249,-30.08594,-45.41221,5.819783
68.630883217,0.4146104,-28.96786,-0.850553500000001,0.971582,0.1650462,-0.07729156,-30.08594,-45.41221,5.819783
68.640741825,-0.765591999999998,-31.28871,-0.789250600000002,0.9534754,0.1574255,-0.1202258,-29.70347,-45.39959,7.034113
68.650600433,-1.076172,-31.76478,-0.5440385,0.9699066,0.1340805,-0.1556385,-29.70347,-45.39959,7.034113
68.660458565,2.650783,-31.28871,-1.095766,0.9651012,0.1282859,-0.2620012,-29.70347,-45.39959,7.034113
68.670317173,4.203681,-26.94456,0.3755064,0.9523985,0.1627067,-0.2663217,-29.70347,-45.39959,7.034113
68.680175781,2.650783,-22.30286,0.4368094,0.949991,0.1874604,-0.2775792,-29.70347,-45.39959,7.034113
68.690034389,0.5388422,-19.50594,0.620718400000002,0.9623632,0.1545451,-0.260303,-29.70547,-45.03144,7.030343
68.699892998,-1.510983,-18.01822,1.662869,0.9720146,0.1464293,-0.2413411,-29.70547,-45.03144,7.030343
68.709751606,-2.31849,-17.12559,2.153293,1.01542,0.1342184,-0.2262491,-29.70547,-45.03144,7.030343
68.719610214,-2.939649,-16.64951,0.743324399999998,1.003721,0.09617994,-0.2206531,-29.70547,-45.03144,7.030343
68.731933594,0.04191487,-16.76853,-0.5440385,1.011059,0.05501598,-0.1851651,-29.69627,-45.01363,8.310619
68.741792202,3.147711,-17.36362,-1.218372,1.018217,0.09151139,-0.2022103,-29.69627,-45.01363,8.310619
68.75165081,6.31562199999998,-17.00657,-2.567038,0.9925009,0.119524,-0.1977738,-29.69627,-45.01363,8.310619
68.761509418,2.526551,-16.70902,-2.873553,1.000217,0.1387378,-0.153156,-29.69627,-45.01363,8.310619
68.771368027,1.097885,-18.67282,-2.812249,0.9949254,0.1317452,-0.1886004,-29.69627,-45.01363,8.310619
68.781226635,2.278088,-18.19674,-2.444432,0.9821333,0.1324529,-0.229144,-29.6923,-44.6339,9.139029
68.791085243,3.582522,-16.53049,-3.180068,0.9599865,0.1141556,-0.2548596,-29.6923,-44.6339,9.139029
68.800943851,5.383883,-14.5667,-3.425279,0.948249,0.1051292,-0.2983756,-29.6923,-44.6339,9.139029
68.81080246,4.452145,-11.29371,-3.486583,0.9806919,0.1142478,-0.2791139,-29.6923,-44.6339,9.139029
68.820661068,0.973653600000002,-10.16304,-4.773945,0.9748631,0.1070195,-0.2465062,-29.6923,-44.6339,9.139029
68.830519676,-1.200403,-10.40108,-5.019157,0.9743924,0.08079132,-0.2323449,-28.93606,-45.74163,9.53056
68.840378284,-0.1444329,-10.63911,-5.570884,0.9804448,0.09833625,-0.2394711,-28.93606,-45.74163,9.53056
68.850236893,0.600958099999998,-10.87715,-7.71648900000002,0.9619687,0.1060155,-0.2242878,-28.93606,-45.74163,9.53056
68.860095501,-0.889823900000002,-11.71027,-8.08430800000001,0.9637454,0.1344338,-0.1766325,-28.93606,-45.74163,9.53056
68.869954109,-3.001765,-13.198,-7.961701,0.9736983,0.161286,-0.1765478,-28.93606,-45.74163,9.53056
68.879812241,-4.865242,-15.45933,-8.88124700000001,0.946998,0.154624,-0.2030586,-28.93606,-45.74163,9.53056
68.889670849,-4.430431,-17.18509,-9.92339700000002,0.9451493,0.1060852,-0.1660643,-28.24691,-45.36981,10.35543
68.901993752,-3.250229,-18.91085,-11.63988,0.9249647,0.08731847,-0.1918118,-28.24691,-45.36981,10.35543
68.91185236,1.781161,-18.97036,-11.88509,0.8858829,0.1531982,-0.3090611,-28.24691,-45.36981,10.35543
68.921710968,2.775015,-17.60166,-11.27206,0.9117817,0.2113836,-0.2960008,-28.24691,-45.36981,10.35543
68.931569576,0.1040308,-16.35197,-12.55943,0.942556,0.1655327,-0.2680744,-28.24967,-45.37516,9.971344
68.941428184,-4.492547,-17.78018,-12.069,0.990895,0.1349596,-0.2302061,-28.24967,-45.37516,9.971344
68.951286793,-6.79083600000002,-18.79183,-13.41767,1.026765,0.09116298,-0.1855631,-28.24967,-45.37516,9.971344
68.961145401,-6.16967699999999,-19.9225,-13.90809,0.9505939,0.1081866,-0.2672353,-28.24967,-45.37516,9.971344
68.971004009,-0.579244300000001,-19.32742,-12.92724,0.9215628,0.2109813,-0.2966228,-28.24967,-45.37516,9.971344
68.980862617,1.097885,-18.37527,-14.45982,0.9514878,0.1817582,-0.2445839,-27.49423,-45.74036,10.80343
68.990721226,3.582522,-18.5538,-14.092,0.9529266,0.1577047,-0.303749,-27.49423,-45.74036,10.80343
69.000579834,4.886956,-17.8992,-13.17246,0.9940726,0.1781014,-0.2821201,-27.49423,-45.74036,10.80343
69.010438442,-0.765591999999998,-16.47099,-13.23376,1.036772,0.1365831,-0.165196,-27.49423,-45.74036,10.80343
69.02029705,-3.063881,-17.18509,-12.13031,0.9610818,0.1898203,-0.3232414,-27.49423,-45.74036,10.80343
69.030155659,-2.070026,-15.69737,-9.67818499999998,0.9572798,0.2364168,-0.3457955,-26.73999,-46.47994,11.19119
69.040014267,-3.68504,-13.37652,-10.16861,0.9663611,0.1841153,-0.299884,-26.73999,-46.47994,11.19119
69.049872875,-1.573099,-14.03112,-8.08430800000001,0.97935,0.1750287,-0.2881658,-26.73999,-46.47994,11.19119
69.059731483,-3.37446,-13.61456,-6.12261100000003,0.994716,0.2320725,-0.2950914,-26.73999,-46.47994,11.19119
69.069590092,-6.666604,-12.48389,-6.00000499999998,0.982971,0.1684151,-0.2437077,-26.73999,-46.47994,11.19119
69.081913471,-2.442722,-12.36487,-4.712642,0.9008622,0.1873204,-0.3286338,-25.98731,-46.85048,11.6392
69.091772079,-0.889823900000002,-10.63911,-3.793097,0.9266649,0.2552429,-0.3140523,-25.98731,-46.85048,11.6392
69.101630688,-2.629069,-9.80598499999999,-3.118764,0.9230609,0.1924504,-0.3106973,-25.98731,-46.85048,11.6392
69.111489296,-4.368315,-10.16304,-1.892705,0.961857,0.2069941,-0.2871675,-25.98731,-46.85048,11.6392
69.121347904,-9.15124000000001,-9.92500399999998,-0.911856500000002,0.9567366,0.2021385,-0.2722803,-25.98731,-46.85048,11.6392
69.131206512,-9.02700799999998,-9.56794999999997,0.007688423,0.9059837,0.1718059,-0.3254833,-26.36505,-46.10987,11.63359
69.141065121,-6.29390900000001,-9.03236999999999,0.4368094,0.9326397,0.1662495,-0.3129717,-26.36505,-46.10987,11.63359
69.150923729,-5.73486500000002,-8.37777100000001,-0.1762206,0.9292995,0.1400141,-0.2939775,-26.36505,-46.10987,11.63359
69.160782337,-4.989474,-8.97285999999998,-0.789250600000002,0.9354128,0.1634351,-0.291471,-26.36505,-46.10987,11.63359
69.170640945,-5.300054,-8.67531599999998,-2.199219,0.9428048,0.1187339,-0.2909952,-26.36505,-46.10987,11.63359
69.180499554,-0.3307806,-8.37777100000001,-2.689644,0.9074571,0.1454563,-0.348249,-25.98454,-46.84513,12.02328
69.190358162,1.408465,-7.84219100000002,-3.363976,0.9519767,0.2057683,-0.3311234,-25.98454,-46.84513,12.02328
69.20021677,-1.262519,-7.18759300000001,-3.363976,0.9430506,0.194697,-0.2778985,-25.98454,-46.84513,12.02328
69.210075378,-2.256374,-8.31826200000003,-1.954008,0.93256,0.2087025,-0.2814643,-25.98454,-46.84513,12.02328
69.219933987,-5.300054,-8.91335200000002,-0.4214326,0.9357585,0.240268,-0.3061619,-25.98454,-46.84513,12.02328
69.229792595,-7.72257499999999,-8.79433299999997,1.47896,0.9419693,0.216494,-0.3021382,-25.98253,-47.21328,12.02705
69.239651203,-6.79083600000002,-7.78268199999998,2.398505,0.9153838,0.190824,-0.3369575,-25.98253,-47.21328,12.02705
69.249509811,-5.67275,-6.53299399999998,3.501959,0.9120945,0.2234082,-0.3342397,-25.98253,-47.21328,12.02705
69.261833191,-6.666604,-5.402325,4.114989,0.9251309,0.1938295,-0.3370711,-25.98253,-47.21328,12.02705
69.271691799,-6.48025699999999,-4.807235,4.789322,0.9458338,0.1798977,-0.337963,-25.98253,-47.21328,12.02705
69.281550407,-6.10756099999998,-3.795583,4.850626,0.959175,0.1663823,-0.340184,-24.86135,-47.22623,12.02125
69.291409016,-4.741011,-2.426878,4.421504,0.9495817,0.1443797,-0.3455041,-24.86135,-47.22623,12.02125
69.301267624,-2.194258,-1.17719,3.563262,0.9459183,0.1283049,-0.3412747,-24.86135,-47.22623,12.02125
69.311126232,-1.076172,-0.2845563,2.030687,0.9225307,0.1519116,-0.3493678,-24.86135,-47.22623,12.02125
69.32098484,-0.703476100000001,0.965131299999997,1.601566,0.9115309,0.1742069,-0.3471061,-24.86135,-47.22623,12.02125
69.330843449,-1.448867,1.61973,0.8659304,0.9359056,0.1652582,-0.3254858,-25.23909,-46.48562,12.01565
69.340701103,-1.510983,1.679239,-0.1762206,0.9361572,0.1594713,-0.3121206,-25.23909,-46.48562,12.01565
69.350559712,-0.951939799999999,1.738747,-0.850553500000001,0.9443735,0.1678163,-0.3121673,-25.23909,-46.48562,12.01565
69.36041832,-0.2065488,1.857765,-1.708796,0.9553013,0.1625883,-0.3047,-25.23909,-46.48562,12.01565
69.370276928,-0.02020105,1.857765,-2.076613,0.9285421,0.1861797,-0.3089115,-25.23909,-46.48562,12.01565
69.380135536,-0.0823169599999999,1.500712,-1.647493,0.9393043,0.1877397,-0.3076141,-25.61558,-46.48665,11.63349
69.389994145,-0.889823900000002,0.965131299999997,-1.279675,0.9383674,0.1936015,-0.2994049,-25.61558,-46.48665,11.63349
69.399852753,-1.635215,1.500712,-0.5440385,0.9361129,0.1994932,-0.2801551,-25.61558,-46.48665,11.63349
69.409711361,-2.504838,1.203167,-0.1149176,0.903394,0.2015251,-0.3098612,-25.61558,-46.48665,11.63349
69.419569969,-1.324635,1.203167,0.3755064,0.902203,0.1897383,-0.3358204,-25.61558,-46.48665,11.63349
69.431893349,1.097885,2.928926,0.1302944,0.9485189,0.1493644,-0.3114237,-25.98731,-46.85048,11.6392
69.441751957,0.1040308,2.750399,-0.05361458,0.9509229,0.1825736,-0.285301,-25.98731,-46.85048,11.6392
69.451610565,-0.703476100000001,1.738747,-0.1762206,0.9582977,0.1903256,-0.3116966,-25.98731,-46.85048,11.6392
69.461469174,-1.573099,2.750399,0.5594154,0.9536365,0.1654485,-0.3166321,-25.98731,-46.85048,11.6392
69.471327782,-0.3307806,2.869417,0.682021400000003,0.9333,0.1545852,-0.3106835,-25.98731,-46.85048,11.6392
69.48118639,2.215972,3.345489,0.4981124,0.9274915,0.1856622,-0.3146513,-25.24307,-46.86535,11.18724
69.491044998,2.278088,3.881069,1.172445,0.932139,0.2056531,-0.315028,-25.24307,-46.86535,11.18724
69.500903607,2.278088,4.41665,1.908081,0.9192464,0.2225788,-0.3127846,-25.24307,-46.86535,11.18724
69.510762215,1.967508,4.773703,1.540263,0.9264309,0.1870947,-0.3194161,-25.24307,-46.86535,11.18724
69.520620823,3.271943,5.606828,1.662869,0.9343924,0.1438854,-0.3117478,-25.24307,-46.86535,11.18724
69.530479431,3.830986,5.84486400000001,0.8659304,0.9566801,0.1513468,-0.3211073,-25.6188,-46.49289,11.1854
69.54033804,4.141565,6.61847999999998,1.233748,0.9530224,0.1688261,-0.3228244,-25.6188,-46.49289,11.1854
69.550196648,4.390029,8.225222,0.3755064,0.95016,0.1561269,-0.3286412,-25.6188,-46.49289,11.1854
69.560055256,5.94292600000003,9.29638199999997,0.1302944,0.9281299,0.1593448,-0.3268625,-25.6188,-46.49289,11.1854
69.569913864,7.30947700000003,10.36754,-0.1149176,0.9432545,0.1824143,-0.3096322,-25.6188,-46.49289,11.1854
69.579772472,6.62620199999998,10.54607,-0.3601296,0.9543181,0.1679488,-0.300328,-25.9853,-47.21862,11.64297
69.589631081,6.75043299999998,10.12951,-0.2988266,0.956229,0.1723471,-0.2998389,-25.9853,-47.21862,11.64297
69.60195446,6.93678100000001,10.18902,-0.5440385,0.9342068,0.1721496,-0.3004851,-25.9853,-47.21862,11.64297
69.611813068,7.30947700000003,10.01049,0.1915974,0.9089915,0.1904052,-0.3038052,-25.9853,-47.21862,11.64297
69.621671677,7.74428800000002,10.78411,1.846778,0.9496152,0.2102999,-0.2850483,-25.9853,-47.21862,11.64297
69.631530285,6.25350600000003,10.60558,2.275899,0.941321,0.2151148,-0.2791391,-25.98931,-46.48233,11.63543
69.641388893,6.31562199999998,11.08165,2.337202,0.947024,0.1874253,-0.2799333,-25.98931,-46.48233,11.63543
69.651247501,6.19139099999999,11.3792,3.256747,0.9607161,0.1728984,-0.2931894,-25.98931,-46.48233,11.63543
69.66110611,5.073304,11.67674,3.501959,0.958286,0.183134,-0.2830052,-25.98931,-46.48233,11.63543
69.670964718,4.82484,12.39085,4.237596,0.9360862,0.1989974,-0.2825549,-25.98931,-46.48233,11.63543
69.680823326,4.141565,11.73625,4.973231,0.9401449,0.1878442,-0.2817485,-26.36426,-46.8524,11.19303
69.690681457,4.638493,12.45036,6.50580599999999,0.9403912,0.2082848,-0.2815795,-26.36426,-46.8524,11.19303
69.700540066,5.011188,12.27183,6.751019,0.9365073,0.1970294,-0.2892863,-26.36426,-46.8524,11.19303
69.710398674,5.13542,12.92643,7.97707799999999,0.9548499,0.1704064,-0.2950436,-26.36426,-46.8524,11.19303
69.720257282,5.13542,13.34299,8.22229000000003,0.9667537,0.1725099,-0.2812987,-26.36426,-46.8524,11.19303
69.73011589,5.197536,14.11661,8.16098699999997,0.9540244,0.1723942,-0.2820767,-25.99253,-46.48857,11.18733
69.739974499,4.327913,14.23562,7.854472,0.9531892,0.1592443,-0.2831342,-25.99253,-46.48857,11.18733
69.749833107,4.576376,14.41415,7.30274499999998,0.9602004,0.1383575,-0.2896399,-25.99253,-46.48857,11.18733
69.759691715,5.13542,15.18777,6.93492700000001,0.9536574,0.1198315,-0.2834735,-25.99253,-46.48857,11.18733
69.769550323,5.94292600000003,15.78286,6.50580599999999,0.947664,0.1664789,-0.2873071,-25.99253,-46.48857,11.18733
69.781873703,6.56408599999997,17.03254,7.36404799999998,0.9706646,0.1930493,-0.2634507,-27.11447,-46.84912,10.81281
69.791732311,4.700608,17.27058,7.30274499999998,0.954991,0.1777701,-0.2782115,-27.11447,-46.84912,10.81281
69.801590919,5.445999,17.92518,7.97707799999999,0.9499274,0.1411959,-0.2870736,-27.11447,-46.84912,10.81281
69.811449528,7.06101299999998,19.17487,8.77401600000001,0.9587627,0.1320061,-0.2930274,-27.11447,-46.84912,10.81281
69.821308136,7.80640399999998,21.07915,8.71271399999999,0.9697285,0.1565709,-0.2565573,-27.11447,-46.84912,10.81281
69.831166744,7.620056,21.07915,8.95792600000003,0.9645733,0.1842813,-0.2514579,-26.74275,-46.48529,10.80711
69.841025352,7.74428800000002,20.96013,9.69356200000002,0.967286,0.2013318,-0.2527903,-26.74275,-46.48529,10.80711
69.850883961,5.81869499999997,20.84112,9.81616800000001,0.9595769,0.1535851,-0.2502082,-26.74275,-46.48529,10.80711
69.860742569,5.88081099999999,21.67424,10.61311,0.952451,0.1462572,-0.2410637,-26.74275,-46.48529,10.80711
69.870601177,5.383883,21.31719,10.91962,0.968438,0.1746727,-0.2276341,-26.74275,-46.48529,10.80711
69.880459785,3.644638,21.4362,10.98092,0.9708081,0.1678376,-0.2392264,-28.2429,-46.10611,10.36297
69.890318394,2.40232,22.44786,10.30659,0.9775304,0.1372391,-0.2395804,-28.2429,-46.10611,10.36297
69.900177002,2.215972,22.86442,10.24529,0.9837882,0.1012729,-0.2428484,-28.2429,-46.10611,10.36297
69.91003561,3.45829,23.99509,9.69356200000002,0.9946595,0.1018875,-0.2343725,-28.2429,-46.10611,10.36297
69.919894218,3.334059,25.72085,10.18399,1.000698,0.1454396,-0.1837751,-28.2429,-46.10611,10.36297
69.929752827,1.470581,25.30429,9.325744,1.004968,0.1571581,-0.1832578,-28.24566,-46.11145,9.978886
69.939611435,0.5388422,25.60183,9.50965299999998,0.9992126,0.1545627,-0.2129081,-28.24566,-46.11145,9.978886
69.951934814,1.594813,26.67299,8.590108,0.9693117,0.11487,-0.2161713,-28.24566,-46.11145,9.978886
69.961793423,0.600958099999998,27.03004,8.28359300000002,0.9513587,0.07192284,-0.2071731,-28.24566,-46.11145,9.978886
69.971652031,2.899247,27.92268,8.22229000000003,0.9538658,0.08270293,-0.193221,-28.24566,-46.11145,9.978886
69.981510639,2.464436,26.97054,7.30274499999998,0.9728849,0.1067781,-0.176517,-29.30857,-45.36293,9.976817
69.991369247,2.029624,26.7325,6.93492700000001,0.9711162,0.1227907,-0.184503,-29.30857,-45.36293,9.976817
70.001227856,3.76887,26.55397,6.19929100000001,0.9807062,0.1170986,-0.1679158,-29.30857,-45.36293,9.976817
70.011086464,5.321767,26.0779,4.911928,0.9749398,0.1160998,-0.1611332,-29.30857,-45.36293,9.976817
70.020945072,7.620056,25.00674,4.176292,0.9786071,0.1049701,-0.153133,-29.30857,-45.36293,9.976817
70.03080368,8.11698399999998,24.59018,3.624565,0.9907053,0.08906464,-0.1409805,-29.69351,-45.00828,8.694702
70.040662289,6.62620199999998,24.17362,3.501959,0.9867443,0.1046397,-0.1307294,-29.69351,-45.00828,8.694702
70.050520897,4.141565,22.80491,3.869777,0.9779896,0.1328933,-0.1020934,-29.69351,-45.00828,8.694702
70.060379505,2.775015,20.60308,4.237596,0.9802277,0.1509201,-0.101494,-29.69351,-45.00828,8.694702
70.07023716,2.526551,18.1037,5.15714,0.9992138,0.1486217,-0.1104096,-29.69351,-45.00828,8.694702
70.080095768,3.396174,17.50862,6.13798800000002,1.015972,0.1346461,-0.1136415,-30.44896,-44.64309,7.862615
70.089954376,5.75657900000002,17.15156,6.13798800000002,1.012499,0.1238611,-0.1266215,-30.44896,-44.64309,7.862615
70.099812984,8.36544800000002,17.44911,5.463655,0.9851899,0.1239958,-0.1559415,-30.44896,-44.64309,7.862615
70.109671593,6.75043299999998,18.46076,5.218443,0.9760199,0.1102787,-0.1588017,-30.44896,-44.64309,7.862615
70.119530201,4.514261,19.47241,5.402352,0.9486583,0.111022,-0.1555303,-30.44896,-44.64309,7.862615
70.131853581,1.594813,19.35339,5.034534,0.9427572,0.0944966,-0.1364177,-30.44971,-45.01657,7.482303
70.141712189,0.1040308,19.11536,4.421504,0.9469005,0.08776164,-0.125512,-30.44971,-45.01657,7.482303
70.151570797,-0.3307806,18.40125,3.869777,0.9685571,0.0798253,-0.08707245,-30.44971,-45.01657,7.482303
70.161429405,1.03577,16.735,2.766323,0.973433,0.09597556,-0.07406726,-30.44971,-45.01657,7.482303
70.171288013,2.526551,14.41415,2.09199,0.9727017,0.1043372,-0.0485887,-30.44971,-45.01657,7.482303
70.181146622,3.582522,11.73625,1.724172,0.977631,0.1126911,-0.03852527,-30.44971,-45.01657,7.482303
70.19100523,3.271943,8.28473000000001,1.601566,0.9779486,0.1118052,-0.0160149,-30.44971,-45.01657,7.482303
70.200863838,1.470581,4.476159,1.785475,0.9708669,0.1123015,0.003258198,-30.44971,-45.01657,7.482303
70.210722446,-0.3307806,-0.04652058,0.988536299999999,0.9625674,0.1049092,-0.001957094,-30.44971,-45.01657,7.482303
70.220581055,-2.815417,-4.152637,0.804627399999999,0.9626468,0.09272616,-0.006853038,-30.44971,-45.01657,7.482303
70.230439663,-5.73486500000002,-8.08022700000001,0.3142034,0.9672203,0.1024432,-0.0216914,-31.57813,-44.27357,7.03246
70.240298271,-8.09526999999998,-11.11518,-0.4827355,0.9727798,0.09996542,-0.04670992,-31.57813,-44.27357,7.03246
70.250156879,-9.64816799999999,-13.2575,-0.911856500000002,0.9775746,0.1091222,-0.08168253,-31.57813,-44.27357,7.03246
70.260015488,-10.02086,-14.09063,-1.279675,0.9785057,0.1031235,-0.126312,-31.57813,-44.27357,7.03246
70.269874096,-10.20721,-13.67407,-1.463584,0.9924737,0.09830457,-0.1466781,-31.57813,-44.27357,7.03246
70.279732704,-9.71028300000003,-12.36487,-1.095766,1.007567,0.1003713,-0.1502302,-30.82867,-44.65035,7.032367
70.289591312,-8.84066099999998,-11.17469,-1.892705,1.005185,0.1081796,-0.1386296,-30.82867,-44.65035,7.032367
70.301914692,-10.33144,-11.29371,-2.321826,0.9964624,0.1056841,-0.1346927,-30.82867,-44.65035,7.032367
70.3117733,-8.90277699999999,-11.35322,-2.567038,0.9776669,0.0875314,-0.129786,-30.82867,-44.65035,7.032367
70.321631908,-7.66045899999998,-12.78143,-2.934855,0.9731181,0.08123896,-0.1101271,-30.82867,-44.65035,7.032367
70.331490517,-7.16353100000001,-14.09063,-2.812249,0.9693846,0.1133434,-0.1045318,-31.20315,-45.01953,6.653986
70.341349125,-9.21335600000002,-15.99492,-3.118764,0.9609076,0.1351941,-0.09703853,-31.20315,-45.01953,6.653986
70.351207733,-10.08298,-17.8992,-2.689644,0.9728901,0.1246261,-0.08867291,-31.20315,-45.01953,6.653986
70.361066341,-8.96489200000003,-19.50594,-2.934855,0.9697717,0.1191774,-0.106884,-31.20315,-45.01953,6.653986
70.37092495,-8.03315400000002,-20.75563,-3.609189,0.9551632,0.1053962,-0.1139801,-31.20315,-45.01953,6.653986
70.380783558,-7.90892299999997,-23.01697,-3.793097,0.9540116,0.1111968,-0.1215819,-30.4577,-44.66002,6.646353
70.390642166,-8.53008099999998,-24.20715,-3.486583,0.9493067,0.1130246,-0.142105,-30.4577,-44.66002,6.646353
70.400500774,-6.85295199999998,-25.75438,-4.160915,0.9426394,0.09836881,-0.1416545,-30.4577,-44.66002,6.646353
70.410359383,-4.741011,-27.77768,-5.019157,0.9252599,0.09827884,-0.1246356,-30.4577,-44.66002,6.646353
70.420217991,-1.945794,-30.45559,-5.81609599999999,0.9358551,0.1056499,-0.1304748,-30.4577,-44.66002,6.646353
70.430076599,-0.3928965,-31.2292,-6.18391400000002,0.965934,0.09963526,-0.118495,-30.83068,-44.2822,7.028596
70.439935207,-1.510983,-31.52675,-6.85824700000003,0.9810725,0.1263442,-0.1688013,-30.83068,-44.2822,7.028596
70.449793816,-3.871388,-30.75313,-6.30652000000001,0.9779094,0.1339296,-0.2146954,-30.83068,-44.2822,7.028596
70.459652424,-6.54237199999997,-29.02737,-6.36782300000001,0.9755666,0.1241728,-0.2157027,-30.83068,-44.2822,7.028596
70.469511032,-6.72872000000001,-28.07523,-6.79694399999997,0.9636238,0.08801758,-0.22638,-30.83068,-44.2822,7.028596
70.481833935,-5.237938,-26.34947,-6.55173199999999,0.9637811,0.1055034,-0.2353395,-30.07523,-44.6474,7.860683
70.491692543,-6.04544500000002,-25.39733,-6.67433799999998,0.96309,0.1401056,-0.2197032,-30.07523,-44.6474,7.860683
70.501551151,-5.610633,-24.62371,-7.10345900000001,0.9665896,0.1424634,-0.248006,-30.07523,-44.6474,7.860683
70.51140976,-4.244083,-22.89795,-7.71648900000002,0.9702851,0.1240184,-0.2443807,-30.07523,-44.6474,7.860683
70.521268368,-3.871388,-22.24335,-7.71648900000002,0.9764248,0.1265883,-0.2224034,-30.07523,-44.6474,7.860683
70.531126976,-3.498692,-22.5409,-8.08430800000001,0.9715207,0.1177535,-0.2310336,-29.69351,-45.00828,8.694702
70.540985584,-2.877533,-22.06483,-7.71648900000002,0.9814911,0.1047112,-0.2288898,-29.69351,-45.00828,8.694702
70.550844193,-2.629069,-21.46974,-6.79694399999997,0.996142,0.1505923,-0.2263154,-29.69351,-45.00828,8.694702
70.560702801,-2.380606,-20.93416,-6.24521700000002,1.017724,0.1690816,-0.2777413,-29.69351,-45.00828,8.694702
70.570561409,-2.877533,-18.19674,-5.81609599999999,1.029294,0.1437492,-0.3126223,-29.69351,-45.00828,8.694702
70.580420017,-1.448867,-13.79308,-5.386975,1.002489,0.1069225,-0.3374695,-29.31455,-45.37451,9.144638
70.590278625,1.967508,-9.38942300000003,-4.590036,0.9921496,0.1263416,-0.3251783,-29.31455,-45.37451,9.144638
70.600137234,4.017333,-6.35446700000003,-3.915704,0.9956506,0.1731285,-0.3142909,-29.31455,-45.37451,9.144638
70.609995842,4.576376,-3.914601,-3.547885,0.99263,0.1771191,-0.2811494,-29.31455,-45.37451,9.144638
70.61985445,5.073304,-2.129333,-2.996159,1.000023,0.159894,-0.2205418,-29.31455,-45.37451,9.144638
70.629713058,4.203681,-3.140985,-3.670491,0.9931546,0.1462925,-0.1980364,-28.6234,-45.37084,9.973276
70.639571667,3.45829,-4.152637,-2.383129,0.9796776,0.1690455,-0.1976523,-28.6234,-45.37084,9.973276
70.651895046,5.383883,-5.64036,-2.444432,0.9637437,0.1631035,-0.1874121,-28.6234,-45.37084,9.973276
70.661753654,7.55793999999999,-7.06857499999999,-2.505734,0.9667248,0.181207,-0.1681338,-28.6234,-45.37084,9.973276
70.671612263,6.19139099999999,-9.15138699999998,-1.892705,0.9547032,0.1917638,-0.1793742,-28.6234,-45.37084,9.973276
70.681470871,3.893102,-10.52009,-1.095766,0.9446582,0.1984379,-0.1925923,-28.55911,-45.73971,9.976725
70.691329479,0.4767263,-12.12683,-0.4214326,0.9477959,0.1863159,-0.1884265,-28.55911,-45.73971,9.976725
70.701188087,-0.4550124,-13.9121,-0.727947499999999,0.9659271,0.1532857,-0.2153197,-28.55911,-45.73971,9.976725
70.711046696,-3.560808,-14.26916,-0.727947499999999,0.9557152,0.1273361,-0.2336027,-28.55911,-45.73971,9.976725
70.720905304,-4.119852,-15.10228,-1.463584,0.9372084,0.1145011,-0.2387184,-28.55911,-45.73971,9.976725
70.730763912,-3.560808,-15.8759,-1.095766,0.9500182,0.119875,-0.2632948,-27.87394,-45.74762,9.973183
70.74062252,-4.492547,-15.04277,-1.58619,0.9439663,0.1368592,-0.2616276,-27.87394,-45.74762,9.973183
70.750481129,-5.67275,-15.69737,-1.954008,0.9178622,0.1365791,-0.2746755,-27.87394,-45.74762,9.973183
70.760339737,-7.22564700000002,-15.63786,-2.076613,0.9370958,0.1299571,-0.2692552,-27.87394,-45.74762,9.973183
70.770198345,-7.90892299999997,-15.81639,-1.954008,0.9489908,0.1218053,-0.2651807,-27.87394,-45.74762,9.973183
70.780056953,-9.52393499999999,-16.11393,-2.137917,0.9398091,0.1387079,-0.2778456,-28.24369,-45.36358,10.80352
70.789915562,-8.654313,-16.05442,-2.199219,0.9416953,0.1396816,-0.282177,-28.24369,-45.36358,10.80352
70.79977417,-7.59834299999997,-15.69737,-2.199219,0.9511182,0.1398005,-0.2727264,-28.24369,-45.36358,10.80352
70.809632778,-7.16353100000001,-14.92375,-1.524887,0.948542,0.1480415,-0.2750161,-28.24369,-45.36358,10.80352
70.821956158,-6.10756099999998,-14.86425,-0.3601296,0.9418065,0.1654541,-0.2872323,-28.24369,-45.36358,10.80352
70.831814766,-5.113706,-13.79308,0.4368094,0.9479724,0.1805903,-0.2881508,-27.86519,-45.73069,11.18945
70.841673374,-6.41814000000001,-13.37652,0.4368094,0.9461432,0.1742624,-0.2843446,-27.86519,-45.73069,11.18945
70.851531982,-5.73486500000002,-13.49554,1.540263,0.9450498,0.1581094,-0.3069877,-27.86519,-45.73069,11.18945
70.861390591,-4.803127,-12.72192,2.275899,0.9534135,0.1518497,-0.3090765,-27.86519,-45.73069,11.18945
70.871249199,-1.883678,-11.76978,2.582414,0.9327926,0.137976,-0.3266301,-27.86519,-45.73069,11.18945
70.881107807,0.1661467,-10.93666,3.440656,0.9472883,0.1502603,-0.329129,-27.86318,-46.09884,11.19322
70.890966415,1.905392,-9.21089600000002,4.237596,0.9506116,0.1230563,-0.324614,-27.86318,-46.09884,11.19322
70.900825024,4.203681,-8.55629800000001,4.973231,0.9547713,0.1396257,-0.3278878,-27.86318,-46.09884,11.19322
70.910683632,4.886956,-6.652012,5.95407899999997,0.9688358,0.1602221,-0.3188097,-27.86318,-46.09884,11.19322
70.92054224,4.265797,-5.402325,6.32189799999997,0.9626324,0.1548398,-0.3120579,-27.86318,-46.09884,11.19322
70.930400848,3.644638,-4.5692,7.67056300000001,0.9581063,0.1630654,-0.3138407,-27.86197,-45.72446,11.63754
70.94025898,2.340204,-4.450181,7.67056300000001,0.9656344,0.1651376,-0.298117,-27.86197,-45.72446,11.63754
70.950117588,1.905392,-4.5692,8.528805,0.9562215,0.1586746,-0.3124133,-27.86197,-45.72446,11.63754
70.959976196,1.470581,-3.557548,8.95792600000003,0.9567704,0.1464903,-0.3187536,-27.86197,-45.72446,11.63754
70.969834805,0.787305800000002,-3.200494,9.44834999999999,0.9428428,0.1435091,-0.3022874,-27.86197,-45.72446,11.63754
70.979693413,0.5388422,-2.90295,10.4905,0.9421847,0.1566387,-0.3031257,-27.48825,-45.72878,11.63561
70.989552021,0.5388422,-1.831789,11.34874,0.9446448,0.1664289,-0.2934941,-27.48825,-45.72878,11.63561
71.001875401,-1.200403,-2.783932,12.39089,0.9447575,0.1591377,-0.2916405,-27.48825,-45.72878,11.63561
71.011734009,-1.635215,-2.962458,12.88132,0.9551462,0.1509618,-0.2904199,-27.48825,-45.72878,11.63561
71.021592617,-2.070026,-3.855092,12.4522,0.9465797,0.1347053,-0.3230206,-27.48825,-45.72878,11.63561
71.031451225,-0.4550124,-2.664914,12.32959,0.9448645,0.1044868,-0.3318768,-28.23771,-45.35199,11.6357
71.041309834,0.4767263,-1.77228,11.83917,0.9435222,0.09669795,-0.3295274,-28.23771,-45.35199,11.6357
71.051168442,2.340204,-0.4630831,10.91962,0.9415303,0.09032364,-0.3376991,-28.23771,-45.35199,11.6357
71.06102705,4.017333,1.203167,10.85832,0.9550304,0.1040591,-0.3401717,-28.23771,-45.35199,11.6357
71.070885658,4.327913,2.095801,10.4905,0.9590099,0.1182711,-0.3228572,-28.23771,-45.35199,11.6357
71.080744267,4.079449,2.928926,10.06138,0.9571375,0.1221837,-0.3132136,-28.55041,-44.60676,12.01385
71.090602875,2.340204,3.881069,10.30659,0.9592825,0.1090726,-0.3109588,-28.55041,-44.60676,12.01385
71.100461483,0.787305800000002,4.833212,10.5518,0.9582624,0.1114931,-0.3118822,-28.55041,-44.60676,12.01385
71.110320091,-0.951939799999999,4.95223,10.4292,0.9524584,0.107066,-0.3108785,-28.55041,-44.60676,12.01385
71.1201787,-1.200403,5.606828,10.24529,0.9599191,0.1032602,-0.3052665,-28.55041,-44.60676,12.01385
71.130037308,-1.262519,5.547319,9.20313699999998,0.949164,0.08900832,-0.3172135,-28.98442,-44.96987,12.01988
71.139895916,0.2282626,6.32093599999998,8.34489499999999,0.963188,0.05699981,-0.3215171,-28.98442,-44.96987,12.01988
71.149754524,2.029624,7.33258699999997,7.42535099999997,0.9629579,0.05546952,-0.3397363,-28.98442,-44.96987,12.01988
71.159613133,3.830986,9.35589100000001,6.3832,0.9688294,0.07016865,-0.3267576,-28.98442,-44.96987,12.01988
71.171936512,3.147711,10.60558,5.341049,0.9550679,0.09053455,-0.3134512,-28.98442,-44.96987,12.01988
71.18179512,1.719045,10.90312,5.095838,0.9515089,0.0920657,-0.2860731,-28.98643,-44.60172,12.01611
71.191653729,0.600958099999998,10.18902,4.605413,0.9558161,0.1028184,-0.2836478,-28.98643,-44.60172,12.01611
71.201512337,-0.3307806,9.89147200000003,3.624565,0.9628555,0.08779848,-0.2829165,-28.98643,-44.60172,12.01611
71.211370945,0.4146104,10.12951,2.827626,0.9626225,0.08431445,-0.3030689,-28.98643,-44.60172,12.01611
71.221229553,2.464436,11.61723,2.459808,0.9571927,0.08571754,-0.3053757,-28.98643,-44.60172,12.01611
71.231088162,3.955218,13.4025,2.643717,0.9594278,0.09739653,-0.3105802,-28.6147,-44.23789,12.01041
71.24094677,4.141565,14.0571,2.766323,0.9552272,0.105715,-0.288407,-28.6147,-44.23789,12.01041
71.250805378,2.588667,14.17612,3.256747,0.9585552,0.09462383,-0.26938,-28.6147,-44.23789,12.01041
71.260663986,1.594813,13.4025,3.440656,0.9634324,0.09856878,-0.2670202,-28.6147,-44.23789,12.01041
71.270522595,0.725189899999998,13.04545,3.563262,0.9601662,0.08198384,-0.2699888,-28.6147,-44.23789,12.01041
71.280381203,0.663074000000001,12.98594,3.440656,0.9646699,0.07179887,-0.2715766,-30.4298,-44.23396,10.80348
71.290239811,1.160001,12.92643,3.195444,0.9623201,0.08729275,-0.2867467,-30.4298,-44.23396,10.80348
71.300098419,0.911537699999999,13.64053,3.134141,0.9632529,0.09168242,-0.2862438,-30.4298,-44.23396,10.80348
71.309957028,1.160001,14.89022,2.766323,0.9589376,0.07555688,-0.2939855,-30.4298,-44.23396,10.80348
71.319815636,2.526551,15.66384,2.521111,0.9565477,0.06481022,-0.2993134,-30.4298,-44.23396,10.80348
71.329674244,3.76887,17.33009,2.030687,0.9693892,0.06593427,-0.2894237,-30.05808,-43.87012,10.79778
71.339532852,4.079449,17.98469,1.785475,0.9651048,0.07911113,-0.2691251,-30.05808,-43.87012,10.79778
71.351855755,3.209827,17.98469,1.417657,0.9538126,0.09804069,-0.2553868,-30.05808,-43.87012,10.79778
71.361714363,2.40232,18.52027,1.540263,0.959801,0.09959105,-0.2453959,-30.05808,-43.87012,10.79778
71.371572971,1.905392,17.68714,1.662869,0.9638137,0.1055127,-0.2329439,-30.05808,-43.87012,10.79778
71.38143158,2.09174,17.03254,1.356354,0.9755461,0.1104967,-0.2292355,-30.429,-44.97648,10.36292
71.391290188,2.09174,16.61598,1.295051,0.9808803,0.09797221,-0.2078532,-30.429,-44.97648,10.36292
71.401148796,2.215972,16.0804,1.233748,0.9770136,0.08086297,-0.2194433,-30.429,-44.97648,10.36292
71.411007404,4.949072,15.84237,1.049839,0.9808639,0.0696504,-0.2339687,-30.429,-44.97648,10.36292
71.420866013,5.011188,16.37794,1.295051,0.9747919,0.09053462,-0.2303516,-30.429,-44.97648,10.36292
71.430724621,4.638493,17.09205,0.8659304,0.9852812,0.08371695,-0.2564354,-30.43578,-44.24554,9.9713
71.440583229,5.321767,18.81781,0.8659304,0.9825411,0.07447027,-0.2502448,-30.43578,-44.24554,9.9713
71.450441837,6.00504300000001,20.0675,0.682021400000003,0.9753205,0.07346226,-0.2424832,-30.43578,-44.24554,9.9713
71.460300446,6.75043299999998,20.66259,0.743324399999998,0.9743772,0.0793223,-0.2347531,-30.43578,-44.24554,9.9713
71.470160008,7.30947700000003,21.61473,1.111142,0.978852,0.07596427,-0.2324492,-30.43578,-44.24554,9.9713
71.480018616,6.75043299999998,21.91228,0.988536299999999,0.9753336,0.07786004,-0.2376543,-30.43377,-44.61369,9.975071
71.489877224,5.75657900000002,22.62638,1.295051,0.9791278,0.08127823,-0.2434299,-30.43377,-44.61369,9.975071
71.499735832,6.129274,23.93558,0.988536299999999,0.9899061,0.0551491,-0.229428,-30.43377,-44.61369,9.975071
71.509594441,7.185245,24.76871,0.4981124,0.9826304,0.04777843,-0.2313033,-30.43377,-44.61369,9.975071
71.52191782,8.986607,26.01839,-0.6053416,0.9851958,0.03660494,-0.2323926,-31.19324,-43.51219,9.135443
71.531775952,10.9122,27.08955,-1.402281,0.9791946,0.05702114,-0.2239884,-31.19324,-43.51219,9.135443
71.54163456,10.04258,28.0417,-1.58619,0.9837068,0.08736143,-0.1892942,-31.19324,-43.51219,9.135443
71.551493168,9.11083900000002,27.50612,-1.892705,0.9771878,0.1146003,-0.1769915,-31.19324,-43.51219,9.135443
71.561351776,6.129274,26.97054,-1.58619,0.9862386,0.1015661,-0.1705217,-31.19324,-43.51219,9.135443
71.571210384,6.00504300000001,26.55397,-1.095766,0.981228,0.0830715,-0.1595848,-31.1952,-44.26007,8.310804
71.581068993,7.37159299999998,25.60183,-1.770099,0.9766278,0.07285859,-0.1471462,-31.1952,-44.26007,8.310804
71.590927601,9.23507000000002,24.17362,-2.199219,0.9772036,0.06995828,-0.1433453,-31.1952,-44.26007,8.310804
71.600786209,11.53336,23.93558,-2.812249,0.9749365,0.09279911,-0.1459954,-31.1952,-44.26007,8.310804
71.610644817,11.22278,22.68589,-2.689644,0.9772653,0.1279397,-0.1236889,-31.1952,-44.26007,8.310804
71.620503426,9.35930300000001,22.03129,-2.873553,0.9745816,0.1172444,-0.1146361,-31.1952,-44.26007,8.310804
71.630362034,6.93678100000001,20.7221,-2.62834,0.9735696,0.07781493,-0.1159128,-31.57692,-43.89919,7.476786
71.640220642,6.31562199999998,19.23438,-1.524887,0.9720361,0.1031709,-0.0984258,-31.57692,-43.89919,7.476786
71.65007925,5.259652,17.74665,-1.157069,0.9928091,0.1267174,-0.09708555,-31.57692,-43.89919,7.476786
71.659937859,3.582522,15.78286,-1.647493,0.9897382,0.1051707,-0.1259756,-31.57692,-43.89919,7.476786
71.669796467,3.644638,15.72335,-0.727947499999999,0.9831222,0.09004135,-0.1221754,-31.57692,-43.89919,7.476786
71.679655075,3.520406,16.02089,-0.2375236,0.9759027,0.1152627,-0.1271308,-31.57491,-44.26733,7.480556
71.689513683,0.5388422,15.18777,0.0689914200000002,0.9790741,0.1293795,-0.1332865,-31.57491,-44.26733,7.480556
71.701837063,-3.622924,15.12826,0.3142034,0.9924542,0.06865241,-0.1383025,-31.57491,-44.26733,7.480556
71.711695671,-4.430431,15.60433,-0.1149176,0.9883422,0.03598506,-0.1457076,-31.57491,-44.26733,7.480556
71.721554279,-3.37446,15.36629,-0.6053416,0.9834971,0.05353126,-0.1268016,-31.5829,-43.91077,6.644606
71.731412888,-3.250229,15.12826,-0.850553500000001,0.9925346,0.07453405,-0.1272324,-31.5829,-43.91077,6.644606
71.741271496,-2.877533,14.94973,-1.095766,0.9985452,0.09890223,-0.1314252,-31.5829,-43.91077,6.644606
71.751130104,-1.697331,16.19942,-1.034463,1.011858,0.09221378,-0.1297546,-31.5829,-43.91077,6.644606
71.760988712,-0.951939799999999,16.49696,-1.402281,0.9975859,0.09401669,-0.134328,-31.5829,-43.91077,6.644606
71.770847321,-1.448867,17.50862,-0.911856500000002,0.9827124,0.1162887,-0.129136,-31.96387,-43.17639,6.1909
71.780705929,-2.877533,18.1037,-1.279675,0.9838256,0.09778322,-0.1355377,-31.96387,-43.17639,6.1909
71.790564537,-3.063881,19.11536,-1.157069,0.9834657,0.08414543,-0.1380436,-31.96387,-43.17639,6.1909
71.800423145,-1.635215,19.35339,-1.58619,1.004269,0.07658924,-0.1259447,-31.96387,-43.17639,6.1909
71.810281753,-0.951939799999999,19.88897,-1.954008,0.9988831,0.09851033,-0.1069942,-31.96387,-43.17639,6.1909
71.820140362,-1.697331,19.23438,-2.444432,0.9892295,0.1057842,-0.0909816,-31.21637,-44.30105,5.366169
71.82999897,-2.070026,18.57978,-2.383129,0.9802478,0.1004206,-0.07268928,-31.21637,-44.30105,5.366169
71.839857578,-2.815417,17.86567,-2.505734,0.9820333,0.09124795,-0.05745776,-31.21637,-44.30105,5.366169
71.849716186,-3.125997,16.43745,-2.62834,0.9833195,0.08841506,-0.03737362,-31.21637,-44.30105,5.366169
71.859574795,-3.809272,14.89022,-3.180068,0.982541,0.08699871,-0.02395689,-31.21637,-44.30105,5.366169
71.871898174,-3.622924,12.0933,-3.547885,0.9796724,0.09187394,-0.01477008,-31.96705,-44.29865,4.921936
71.881756783,-3.125997,9.71294500000002,-4.344824,0.9835816,0.09825432,-0.009500752,-31.96705,-44.29865,4.921936
71.891615391,-2.939649,7.21356999999998,-4.773945,0.9761561,0.08644688,-0.02626655,-31.96705,-44.29865,4.921936
71.901473999,-3.125997,5.309284,-4.896551,0.9840508,0.0718887,-0.03416912,-31.96705,-44.29865,4.921936
71.911332607,-4.181968,4.476159,-4.957854,0.9912151,0.08313342,-0.03705153,-31.96705,-44.29865,4.921936
71.921191215,-6.10756099999998,3.226471,-5.386975,0.9891152,0.1089513,-0.02482373,-31.9678,-44.67215,4.541624
71.931049824,-8.03315400000002,1.857765,-5.509581,0.9859658,0.1176523,-0.0328518,-31.9678,-44.67215,4.541624
71.940908432,-8.28161699999999,0.07249729,-6.00000499999998,0.9877639,0.07772495,-0.04375678,-31.9678,-44.67215,4.541624
71.95076704,-5.36217,-0.582100999999999,-6.18391400000002,1.002612,0.04324017,-0.06151062,-31.9678,-44.67215,4.541624
71.960625648,-1.697331,-1.296208,-5.754793,1.023309,0.09348216,-0.07815356,-31.9678,-44.67215,4.541624
71.970484257,-0.703476100000001,-0.2845563,-6.30652000000001,1.01047,0.08942933,-0.09046397,-31.97103,-44.67839,4.093527
71.980342865,1.03577,0.2510241,-4.835248,0.9999664,0.1122193,-0.08724673,-31.97103,-44.67839,4.093527
71.990201473,2.09174,0.2510241,-4.160915,1.012295,0.1361438,-0.09488773,-31.97103,-44.67839,4.093527
72.000060081,1.470581,1.322185,-3.915704,0.9982424,0.1233624,-0.09623291,-31.97103,-44.67839,4.093527
72.00991869,2.712899,2.750399,-3.547885,0.9840645,0.1095688,-0.107648,-31.97103,-44.67839,4.093527
72.019777298,3.334059,4.000087,-3.180068,0.9751648,0.1148344,-0.1098728,-31.22357,-44.68702,4.089664
72.029635906,0.4146104,5.011739,-3.057462,0.9590243,0.1317801,-0.09464451,-31.22357,-44.68702,4.089664
72.041958809,-4.244083,6.02339100000001,-2.199219,0.9725899,0.1246757,-0.07477143,-31.22357,-44.68702,4.089664
72.051817417,-6.54237199999997,6.79700699999999,-1.708796,0.9838938,0.1179551,-0.07690606,-31.22357,-44.68702,4.089664
72.061676025,-6.977184,7.33258699999997,-1.831402,0.992481,0.1088298,-0.06512547,-31.22357,-44.68702,4.089664
72.071534634,-6.48025699999999,6.67798900000002,-1.954008,0.990251,0.1049639,-0.05266713,-31.59529,-45.05085,4.095366
72.081393242,-5.73486500000002,6.14240899999998,-2.015311,0.9874126,0.09959498,-0.05027599,-31.59529,-45.05085,4.095366
72.09125185,-4.865242,5.309284,-2.076613,0.9817939,0.1015676,-0.03005289,-31.59529,-45.05085,4.095366
72.101110458,-4.430431,3.940578,-1.892705,0.995555,0.1114717,-0.01674785,-31.59529,-45.05085,4.095366
72.110969067,-3.871388,2.15531,-2.260523,0.9867776,0.1157957,-0.01083586,-31.59529,-45.05085,4.095366
72.120827675,-3.560808,0.2510241,-2.383129,0.9868167,0.1158068,-0.00796113,-31.60127,-45.06243,3.263186
72.130686283,-3.001765,-1.891297,-2.260523,0.9945422,0.1099885,-0.02057953,-31.60127,-45.06243,3.263186
72.140544891,-2.132142,-3.140985,-2.567038,1.001692,0.1026764,-0.04086951,-31.60127,-45.06243,3.263186
72.1504035,-0.2686647,-3.795583,-2.750947,1.002749,0.09817829,-0.0749457,-31.60127,-45.06243,3.263186
72.160262108,0.3524944,-3.140985,-2.873553,1.001655,0.0952075,-0.08597677,-31.60127,-45.06243,3.263186
72.170120716,0.973653600000002,-1.77228,-2.689644,1.007163,0.105897,-0.1032162,-31.9778,-43.94743,3.701902
72.179979324,0.1661467,-0.641609900000002,-2.567038,1.00509,0.115123,-0.103588,-31.9778,-43.94743,3.701902
72.189838886,-0.0823169599999999,1.084149,-2.812249,0.9983102,0.1077584,-0.1049912,-31.9778,-43.94743,3.701902
72.199697495,0.663074000000001,2.571872,-2.689644,0.9896883,0.1116386,-0.08806354,-31.9778,-43.94743,3.701902
72.209556103,0.849421699999999,3.345489,-2.750947,0.9927871,0.1214758,-0.06741911,-31.9778,-43.94743,3.701902
72.221879005,0.4767263,3.226471,-2.567038,0.9867294,0.1301584,-0.07348909,-31.97701,-44.68997,3.261348
72.231737614,0.973653600000002,3.166962,-2.383129,0.9929267,0.1146804,-0.06316565,-31.97701,-44.68997,3.261348
72.241596222,1.160001,3.166962,-2.62834,0.9929584,0.1098072,-0.06512403,-31.97701,-44.68997,3.261348
72.25145483,0.911537699999999,2.869417,-2.505734,0.9938774,0.1137047,-0.06606264,-31.97701,-44.68997,3.261348
72.261313438,0.663074000000001,2.750399,-2.199219,0.9954698,0.1147298,-0.05601349,-31.97701,-44.68997,3.261348
72.271172047,1.967508,2.750399,-2.750947,0.9991094,0.09822184,-0.05476708,-31.22431,-45.06051,3.709351
72.281030655,3.830986,2.274328,-2.750947,0.9939219,0.09627645,-0.04225038,-31.22431,-45.06051,3.709351
72.290889263,5.81869499999997,1.679239,-2.567038,0.9909197,0.1162486,-0.02957986,-31.22431,-45.06051,3.709351
72.300747871,6.31562199999998,1.143658,-2.260523,0.9902066,0.1318037,-0.03231362,-31.22431,-45.06051,3.709351
72.31060648,4.886956,-0.1060295,-2.444432,0.9828159,0.1258649,-0.04136319,-31.22431,-45.06051,3.709351
72.320465088,4.079449,0.01298836,-1.892705,0.9804138,0.124391,-0.03942459,-30.84858,-45.43298,3.71119
72.330323696,2.464436,-0.4035742,-2.076613,0.9778482,0.1223824,-0.04994736,-30.84858,-45.43298,3.71119
72.340182304,1.656929,-0.5225921,-1.831402,0.9815209,0.1272306,-0.06337638,-30.84858,-45.43298,3.71119
72.350040913,1.284233,-0.5225921,-2.076613,0.9939206,0.1034643,-0.07190007,-30.84858,-45.43298,3.71119
72.359899521,3.085595,-0.3440652,-2.444432,0.9930543,0.09128196,-0.07438653,-30.84858,-45.43298,3.71119
72.369758129,5.13542,-0.1060295,-2.62834,0.989958,0.1048803,-0.07422764,-31.22833,-44.32421,3.70181
72.379616737,5.13542,0.1915152,-2.750947,0.9962671,0.1112692,-0.07234684,-31.22833,-44.32421,3.70181
72.391940117,4.700608,0.608077699999999,-2.689644,0.9906036,0.1137173,-0.05499428,-31.22833,-44.32421,3.70181
72.401798725,4.82484,0.07249729,-2.812249,0.9938675,0.1288369,-0.0534756,-31.22833,-44.32421,3.70181
72.411657333,4.390029,0.01298836,-2.750947,0.9890418,0.1376006,-0.04087368,-31.22833,-44.32421,3.70181
72.421515942,3.271943,-0.701118900000002,-2.199219,0.9853246,0.150804,-0.0148325,-30.84984,-44.69134,4.087732
72.43137455,0.911537699999999,-1.415226,-1.279675,0.9868191,0.1770538,-0.02565386,-30.84984,-44.69134,4.087732
72.441233158,-1.883678,-2.486387,-0.850553500000001,0.9863206,0.1706998,-0.03192997,-30.84984,-44.69134,4.087732
72.451091766,-1.821563,-3.319512,-1.340978,0.9783853,0.08982433,-0.0392082,-30.84984,-44.69134,4.087732
72.460950375,1.656929,-3.914601,-1.157069,0.9883074,0.08360346,-0.03461012,-30.84984,-44.69134,4.087732
72.470808983,1.967508,-4.152637,-1.58619,0.9914104,0.1297886,-0.05343255,-31.22431,-45.06051,3.709351
72.480667591,-1.821563,-4.271655,-1.218372,0.9951229,0.1395304,-0.05963284,-31.22431,-45.06051,3.709351
72.490526199,-4.430431,-4.688217,-1.340978,1.003393,0.1060384,-0.05667897,-31.22431,-45.06051,3.709351
72.500384808,-3.68504,-4.866744,-1.58619,1.008706,0.1050903,-0.06251309,-31.22431,-45.06051,3.709351
72.510243416,-4.492547,-5.223798,-1.954008,0.9903027,0.1258372,-0.0663885,-31.22431,-45.06051,3.709351
72.520102024,-6.231793,-5.461833,-1.708796,1.003487,0.1332707,-0.06172167,-30.84858,-45.43298,3.71119
72.529960632,-7.53622700000002,-5.81888699999998,-1.831402,1.004057,0.1181632,-0.06904529,-30.84858,-45.43298,3.71119
72.539819241,-7.78468999999998,-5.164289,-2.137917,0.976707,0.100357,-0.08126494,-30.84858,-45.43298,3.71119
72.549677849,-7.47411100000001,-4.747726,-2.015311,0.9802185,0.123712,-0.09022268,-30.84858,-45.43298,3.71119
72.559536457,-9.02700799999998,-4.450181,-2.199219,0.9844977,0.1461741,-0.0795517,-30.84858,-45.43298,3.71119
72.571859836,-9.399704,-4.093128,-2.62834,0.9919834,0.1243111,-0.0879893,-30.84783,-45.05948,4.091503
72.581718445,-7.47411100000001,-3.795583,-2.873553,0.9916823,0.1150841,-0.08231249,-30.84783,-45.05948,4.091503
72.591577053,-4.741011,-3.319512,-3.302674,0.9842566,0.1379407,-0.06859618,-30.84783,-45.05948,4.091503
72.601435661,-3.37446,-2.724423,-2.321826,0.9846849,0.136463,-0.07436514,-30.84783,-45.05948,4.091503
72.611294269,-2.504838,-3.140985,-3.793097,0.9847576,0.1583188,-0.08568251,-30.84783,-45.05948,4.091503
72.621152878,-3.001765,-2.545896,-4.099612,0.9986444,0.1477532,-0.08117761,-30.84657,-45.80112,3.714961
72.631011486,-3.498692,-2.248351,-2.934855,0.9745414,0.1432441,-0.05882896,-30.84657,-45.80112,3.714961
72.640870094,-5.175822,-4.688217,-3.24137,0.9956734,0.1761692,-0.02291232,-30.84657,-45.80112,3.714961
72.650729179,-6.91506799999999,-6.11643200000001,-2.567038,0.9804276,0.167712,-0.03618399,-30.84657,-45.80112,3.714961
72.660587788,-4.927359,-7.66366400000002,-1.340978,0.9876239,0.1444369,-0.03121179,-30.84657,-45.80112,3.714961
72.670446396,-2.380606,-8.43728100000002,0.682021400000003,0.9770261,0.156459,-0.04437687,-30.48008,-45.07538,3.257392
72.680305004,-2.504838,-9.68696799999999,1.172445,0.9795101,0.2076201,-0.03247971,-30.48008,-45.07538,3.257392
72.690163612,-5.36217,-11.2342,2.09199,0.9765711,0.2046637,-0.03533798,-30.48008,-45.07538,3.257392
72.700022221,-6.60448799999999,-12.60291,3.869777,0.9789704,0.165749,-0.03713819,-30.48008,-45.07538,3.257392
72.709880829,-6.85295199999998,-14.03112,5.15714,0.9852693,0.1696939,-0.03815307,-30.48008,-45.07538,3.257392
72.719739437,-8.59219699999999,-15.2213,5.647564,0.9925556,0.1668148,-0.0445108,-30.09912,-45.80976,3.711097
72.729598045,-9.52393499999999,-16.23295,6.32189799999997,0.9753227,0.133432,-0.08192448,-30.09912,-45.80976,3.711097
72.741921425,-8.71642900000001,-17.06608,7.057533,0.9832659,0.1252347,-0.08066927,-30.09912,-45.80976,3.711097
72.751780033,-7.59834299999997,-17.00657,6.99623000000001,0.986765,0.1314981,-0.1055847,-30.09912,-45.80976,3.711097
72.761638641,-7.78468999999998,-16.76853,6.81232100000002,0.9883875,0.1090968,-0.1139432,-30.09912,-45.80976,3.711097
72.77149725,-6.29390900000001,-15.93541,6.56710899999998,0.9924785,0.08916482,-0.1184825,-30.84783,-45.05948,4.091503
72.781355858,-4.430431,-14.98326,6.26059400000001,0.9971749,0.09403466,-0.1285716,-30.84783,-45.05948,4.091503
72.791214466,-3.312345,-13.97161,5.708868,0.9896058,0.1036682,-0.137008,-30.84783,-45.05948,4.091503
72.801073074,-1.448867,-12.24585,5.402352,0.9907225,0.08760491,-0.140993,-30.84783,-45.05948,4.091503
72.810931683,-0.2065488,-11.17469,4.911928,0.9854811,0.1055263,-0.1508303,-30.84783,-45.05948,4.091503
72.820790291,0.663074000000001,-9.68696799999999,4.666717,0.9865938,0.09971452,-0.1461032,-30.8446,-45.05325,4.539599
72.830648899,1.532697,-8.73482500000002,4.114989,0.9891448,0.1007426,-0.1375053,-30.8446,-45.05325,4.539599
72.840507507,1.470581,-7.48513700000001,3.563262,0.9980005,0.105229,-0.1299265,-30.8446,-45.05325,4.539599
72.850366116,2.029624,-6.830539,3.134141,0.9966735,0.09890914,-0.1251689,-30.8446,-45.05325,4.539599
72.860224724,2.837131,-6.47348499999999,2.459808,0.9898342,0.09543355,-0.1274967,-30.8446,-45.05325,4.539599
72.870083332,2.09174,-6.41397600000001,2.398505,0.9919166,0.1057395,-0.1092299,-30.84184,-45.0479,4.923682
72.87994194,1.532697,-6.59250300000002,2.153293,0.9869774,0.1125178,-0.1067063,-30.84184,-45.0479,4.923682
72.889800549,0.4767263,-7.30661099999998,2.09199,0.9862896,0.1275918,-0.1080068,-30.84184,-45.0479,4.923682
72.899659157,-0.5171283,-7.723173,2.153293,0.9859075,0.1207829,-0.1061421,-30.84184,-45.0479,4.923682
72.909517765,-0.2065488,-8.08022700000001,2.09199,0.9898302,0.1144732,-0.1110432,-30.84184,-45.0479,4.923682
72.921840668,-0.2686647,-8.43728100000002,2.030687,0.9917141,0.1051935,-0.124566,-30.46288,-45.41413,5.373618
72.931699276,0.2282626,-8.55629800000001,1.417657,0.9866369,0.08570341,-0.1193869,-30.46288,-45.41413,5.373618
72.941557884,1.346349,-8.55629800000001,1.233748,0.9853804,0.09537996,-0.1312673,-30.46288,-45.41413,5.373618
72.951416492,1.097885,-8.199244,1.111142,0.9929015,0.1139147,-0.1374477,-30.46288,-45.41413,5.373618
72.961275101,0.3524944,-7.66366400000002,1.111142,0.9828521,0.1220521,-0.1496949,-30.46288,-45.41413,5.373618
72.971133709,0.600958099999998,-6.830539,0.5594154,0.9802268,0.08940328,-0.1556835,-30.84063,-44.67352,5.368008
72.980992317,2.09174,-6.17594099999999,0.1915974,0.9818943,0.07531469,-0.1534301,-30.84063,-44.67352,5.368008
72.990850925,2.899247,-5.342815,-0.4214326,0.9784807,0.1161633,-0.1525575,-30.84063,-44.67352,5.368008
73.000709534,1.284233,-4.688217,-0.4827355,0.9854699,0.1278463,-0.1678929,-30.84063,-44.67352,5.368008
73.010568142,1.222117,-3.557548,-0.911856500000002,0.9960095,0.1031138,-0.1701687,-30.84063,-44.67352,5.368008
73.02042675,1.967508,-2.129333,-1.095766,0.991136,0.09721697,-0.1739826,-30.46811,-45.05221,4.921751
73.030286312,2.029624,-0.641609900000002,-1.279675,0.9936517,0.1094642,-0.1581015,-30.46811,-45.05221,4.921751
73.04014492,1.967508,0.1320062,-1.402281,0.9975334,0.1192544,-0.1518446,-30.46811,-45.05221,4.921751
73.050003529,2.837131,0.727095499999998,-1.708796,0.9948838,0.1051512,-0.1433003,-30.46811,-45.05221,4.921751
73.059862137,2.961363,1.322185,-1.095766,0.9909251,0.1265856,-0.1277286,-30.46811,-45.05221,4.921751
73.069720745,2.712899,0.965131299999997,-0.2988266,0.982376,0.1655037,-0.1105063,-30.46213,-45.04063,5.75393
73.079579353,1.594813,0.370042,-0.2988266,0.9888403,0.1538725,-0.1130926,-30.46213,-45.04063,5.75393
73.091902256,1.656929,-0.2250474,0.3142034,0.9870592,0.1143589,-0.1349647,-30.46213,-45.04063,5.75393
73.101760864,2.775015,0.5485688,0.5594154,0.9925062,0.09831385,-0.1442825,-30.46213,-45.04063,5.75393
73.111619473,2.899247,0.9056224,0.4368094,0.9854986,0.1084606,-0.1469722,-30.46213,-45.04063,5.75393
73.121478081,2.775015,1.02464,0.4368094,0.9854978,0.1035781,-0.1513262,-30.83586,-45.03632,5.755862
73.131336689,3.45829,2.036292,0.4981124,0.9898974,0.1021515,-0.1528385,-30.83586,-45.03632,5.755862
73.141195297,2.961363,2.15531,0.4368094,0.9833754,0.1274366,-0.142469,-30.83586,-45.03632,5.755862
73.151053906,2.40232,2.274328,0.3755064,0.9810353,0.1152395,-0.1454138,-30.83586,-45.03632,5.755862
73.160912514,2.712899,2.571872,0.3755064,0.9927232,0.09105232,-0.1347629,-30.83586,-45.03632,5.755862
73.170771122,3.830986,2.214819,0.4368094,0.9913206,0.1125398,-0.1110808,-30.84063,-44.67352,5.368008
73.18062973,3.582522,1.857765,0.3755064,0.9867757,0.1212484,-0.1138177,-30.84063,-44.67352,5.368008
73.190488339,2.837131,0.846113400000001,0.4981124,0.9860253,0.1169107,-0.1009052,-30.84063,-44.67352,5.368008
73.200346947,1.967508,-0.3440652,1.111142,0.9902329,0.1393524,-0.0955046,-30.84063,-44.67352,5.368008
73.210205555,1.097885,-1.17719,1.417657,0.9831065,0.1528829,-0.1039144,-30.84063,-44.67352,5.368008
73.220064163,0.3524944,-2.248351,2.09199,0.9822113,0.1387394,-0.1102506,-30.83586,-45.03632,5.755862
73.229922772,0.663074000000001,-2.843441,2.70502,0.9841372,0.1358186,-0.1150947,-30.83586,-45.03632,5.755862
73.23978138,-0.4550124,-3.140985,3.134141,0.9874482,0.14314,-0.1169969,-30.83586,-45.03632,5.755862
73.249639988,-1.945794,-3.379021,3.624565,0.9881136,0.1305007,-0.1151963,-30.83586,-45.03632,5.755862
73.259498596,-3.125997,-3.676566,3.869777,0.9890828,0.1114659,-0.1326219,-30.83586,-45.03632,5.755862
73.271821976,-2.691185,-3.498039,3.747171,0.9851446,0.09433624,-0.1494823,-30.46293,-44.2981,6.194485
73.281680584,-2.132142,-3.140985,4.053687,0.9796085,0.1118206,-0.1454223,-30.46293,-44.2981,6.194485
73.291539192,-2.566953,-2.724423,3.992383,0.9826792,0.1195617,-0.1645687,-30.46293,-44.2981,6.194485
73.301397801,-2.939649,-1.77228,3.869777,0.9834017,0.1015682,-0.1632932,-30.46293,-44.2981,6.194485
73.311256409,-2.442722,-1.058172,3.869777,0.9868925,0.08989999,-0.1687127,-30.46293,-44.2981,6.194485
73.321115017,-1.821563,-0.04652058,3.747171,0.9815067,0.09033921,-0.1686322,-30.84264,-44.30537,5.364237
73.330973625,-1.448867,0.786604499999998,3.31805,0.9841538,0.08163018,-0.1615554,-30.84264,-44.30537,5.364237
73.34083271,-0.951939799999999,1.500712,2.827626,0.9877162,0.06998242,-0.1617045,-30.84264,-44.30537,5.364237
73.350691319,-0.3307806,2.036292,2.521111,0.9886164,0.08315092,-0.1558558,-30.84264,-44.30537,5.364237
73.360549927,-0.5171283,2.393346,2.153293,0.9963733,0.0983353,-0.1476918,-30.84264,-44.30537,5.364237
73.370408535,-1.510983,2.631382,1.846778,0.9946535,0.09545617,-0.1328364,-31.58533,-44.65954,5.755954
73.380267143,-1.386751,2.928926,1.785475,0.9876485,0.08998042,-0.1490756,-31.58533,-44.65954,5.755954
73.390125752,-0.889823900000002,3.226471,1.540263,0.986104,0.09922177,-0.1465796,-31.58533,-44.65954,5.755954
73.39998436,-0.579244300000001,3.524015,1.417657,0.9857682,0.09291424,-0.1408776,-31.58533,-44.65954,5.755954
73.409842968,1.03577,3.881069,0.743324399999998,0.9857059,0.09045535,-0.1476063,-31.58533,-44.65954,5.755954
73.419701576,1.719045,4.297632,0.1302944,0.9901726,0.07733048,-0.1544895,-30.46013,-45.40878,5.757701
73.429560185,1.905392,5.368793,-0.4214326,0.9961118,0.08081973,-0.1463983,-30.46013,-45.40878,5.757701
73.441883564,1.408465,6.26142599999997,-0.6053416,0.9957443,0.07499135,-0.1426087,-30.46013,-45.40878,5.757701
73.451742172,0.04191487,7.09455200000001,-1.034463,1.004039,0.09654082,-0.1252939,-30.46013,-45.40878,5.757701
73.461600781,-2.070026,6.85651600000003,-1.157069,0.9920751,0.1154141,-0.1249641,-30.46013,-45.40878,5.757701
73.471459389,-3.37446,6.85651600000003,-1.279675,0.9870139,0.08469928,-0.1285055,-31.20838,-44.65762,6.202119
73.481317997,-1.138287,6.79700699999999,-1.647493,0.9865124,0.08078564,-0.1328442,-31.20838,-44.65762,6.202119
73.491176605,0.2282626,6.91602500000001,-2.137917,0.9876856,0.1017084,-0.1360387,-31.20838,-44.65762,6.202119
73.501035214,0.4146104,7.154061,-2.076613,0.9892447,0.1022358,-0.1288685,-31.20838,-44.65762,6.202119
73.510893822,0.787305800000002,7.154061,-2.137917,0.9941406,0.1056979,-0.1255547,-31.20838,-44.65762,6.202119
73.52075243,1.346349,7.03504299999997,-1.954008,0.989278,0.1071275,-0.1221189,-30.84063,-44.67352,5.368008
73.530611038,2.153856,7.154061,-1.954008,0.9907112,0.1061543,-0.125502,-30.84063,-44.67352,5.368008
73.540469647,2.837131,7.09455200000001,-1.58619,0.9774497,0.1250629,-0.1126942,-30.84063,-44.67352,5.368008
73.550328255,2.712899,6.85651600000003,-1.463584,0.978451,0.1231252,-0.1127248,-30.84063,-44.67352,5.368008
73.560186863,3.023479,6.91602500000001,-1.218372,0.9893599,0.109592,-0.1139529,-30.84063,-44.67352,5.368008
73.570045471,3.396174,6.49946299999999,-1.157069,0.983464,0.1090445,-0.1162695,-30.84184,-45.0479,4.923682
73.579904079,3.644638,6.49946299999999,-0.911856500000002,0.983998,0.1129674,-0.1095352,-30.84184,-45.0479,4.923682
73.589762688,3.147711,6.14240899999998,-0.3601296,0.9961883,0.1189232,-0.1072627,-30.84184,-45.0479,4.923682
73.599621296,2.775015,5.96388199999997,-0.05361458,0.9943396,0.1081957,-0.1087645,-30.84184,-45.0479,4.923682
73.609479904,2.650783,5.725846,0.007688423,0.9880171,0.1144969,-0.1004748,-30.84184,-45.0479,4.923682
73.621803284,1.656929,4.892721,0.2529004,0.9871069,0.1120665,-0.09760712,-31.21758,-44.67543,4.921843
73.631662369,2.40232,4.654685,0.3142034,0.9907261,0.08188236,-0.1098934,-31.21758,-44.67543,4.921843
73.641520977,3.830986,4.714194,0.3142034,0.984191,0.1071637,-0.1004821,-31.21758,-44.67543,4.921843
73.651379585,2.899247,4.535667,0.620718400000002,0.9805191,0.1412386,-0.08864145,-31.21758,-44.67543,4.921843
73.661238193,0.663074000000001,3.583524,1.049839,0.9766489,0.1304754,-0.09490672,-31.21758,-44.67543,4.921843
73.671096802,0.04191487,3.583524,1.601566,0.9875209,0.1227904,-0.09368893,-31.96579,-45.04029,4.545394
73.68095541,-0.889823900000002,3.404998,1.724172,0.9860238,0.1115398,-0.1057425,-31.96579,-45.04029,4.545394
73.690814018,-1.883678,2.988435,1.908081,0.9894677,0.1120639,-0.1038704,-31.96579,-45.04029,4.545394
73.700672626,-3.001765,3.047944,1.969384,0.9973573,0.1028748,-0.1074148,-31.96579,-45.04029,4.545394
73.710531235,-3.37446,3.226471,2.153293,1.004784,0.1019885,-0.1017777,-31.96579,-45.04029,4.545394
73.720389843,-3.622924,3.226471,2.030687,0.9949019,0.1135914,-0.09866375,-30.84385,-44.67975,4.919911
73.730248451,-3.871388,3.28598,2.398505,1.002757,0.1117158,-0.09831233,-30.84385,-44.67975,4.919911
73.740107059,-4.741011,3.166962,2.459808,0.9938892,0.1252904,-0.0908834,-30.84385,-44.67975,4.919911
73.749965668,-5.85909699999999,2.750399,2.337202,0.9842845,0.1174432,-0.08458314,-30.84385,-44.67975,4.919911
73.759824276,-5.424286,2.095801,2.153293,0.9977187,0.07905471,-0.1018706,-30.84385,-44.67975,4.919911
73.769682884,-2.629069,2.512363,1.662869,0.9992009,0.06735447,-0.1110952,-31.21758,-44.67543,4.921843
73.779541492,-0.765591999999998,2.750399,0.927233400000001,0.9862586,0.09012473,-0.1073642,-31.21758,-44.67543,4.921843
73.791864872,-1.945794,2.988435,0.927233400000001,0.9952999,0.1179638,-0.1015077,-31.21758,-44.67543,4.921843
73.80172348,-3.188113,3.762051,1.111142,1.00353,0.1136187,-0.1117249,-31.21758,-44.67543,4.921843
73.811582088,-2.877533,4.476159,0.988536299999999,0.9968593,0.08822112,-0.1209489,-31.21758,-44.67543,4.921843
73.821440697,-1.386751,5.487811,0.927233400000001,0.998291,0.08187696,-0.1291693,-31.60005,-44.68805,3.707512
73.831299305,-0.4550124,6.558971,0.682021400000003,1.003421,0.1062644,-0.1261614,-31.60005,-44.68805,3.707512
73.841157913,-1.697331,7.68964099999998,0.988536299999999,0.991059,0.133459,-0.1118589,-31.60005,-44.68805,3.707512
73.851016521,-3.001765,8.34423899999999,1.47896,0.991538,0.1354133,-0.1108908,-31.60005,-44.68805,3.707512
73.86087513,-3.622924,9.05834700000001,1.908081,0.9943087,0.1223455,-0.09858142,-31.60005,-44.68805,3.707512
73.870733738,-4.181968,9.53441800000002,2.275899,0.9904749,0.1184277,-0.09616385,-31.59529,-45.05085,4.095366
73.880592823,-4.244083,9.53441800000002,2.275899,0.9936168,0.1004483,-0.09683955,-31.59529,-45.05085,4.095366
73.890451431,-4.3062,9.95097999999998,2.214596,0.9910612,0.08832484,-0.07965427,-31.59529,-45.05085,4.095366
73.900310039,-3.622924,9.35589100000001,1.908081,0.9936728,0.08204684,-0.07303569,-31.59529,-45.05085,4.095366
73.910168648,-3.498692,8.701293,1.601566,0.993364,0.08941734,-0.0533219,-31.59529,-45.05085,4.095366
73.920027256,-3.747156,7.98718600000001,1.356354,0.9830074,0.1102962,-0.04101811,-30.47886,-44.701,3.701717
73.929885864,-4.616779,6.49946299999999,1.172445,0.9838859,0.1219939,-0.03805671,-30.47886,-44.701,3.701717
73.939744472,-5.73486500000002,5.428301,1.233748,0.9839718,0.1098127,-0.04247353,-30.47886,-44.701,3.701717
73.949603081,-5.85909699999999,4.357141,0.804627399999999,0.9863698,0.08247999,-0.07005274,-30.47886,-44.701,3.701717
73.96192646,-3.871388,4.595177,-0.05361458,0.9879547,0.05665041,-0.08419011,-30.47886,-44.701,3.701717
73.971785069,-2.753301,4.654685,-0.727947499999999,0.9973432,0.08103571,-0.0917853,-31.22833,-44.32421,3.70181
73.981643677,-3.68504,5.190266,-0.911856500000002,1.004873,0.1054316,-0.09216594,-31.22833,-44.32421,3.70181
73.991502285,-4.3062,5.78535500000003,-1.157069,0.9946043,0.09801844,-0.09831174,-31.22833,-44.32421,3.70181
