Time (s),Gyroscope X (deg/s),Gyroscope Y (deg/s),Gyroscope Z (deg/s),Accelerometer X (g),Accelerometer Y (g),Accelerometer Z (g),Magnetometer X (uT),Magnetometer Y (uT),Magnetometer Z (uT)
81.401592255,-2.10698,0.2347521,0.2149844,0.9763539,-0.07990524,0.2270764,-53.80197,-16.71337,-11.69618
81.411504746,-2.168918,0.46776,0.2149844,0.9729518,-0.0774983,0.2319254,-53.80197,-16.71337,-11.69618
81.42141676,-2.168918,0.642515800000001,0.1536215,0.973483,-0.08186047,0.2309311,-53.80197,-16.71337,-11.69618
81.431328774,-1.983104,0.5842639,0.0922585699999997,0.9700961,-0.08237249,0.23384,-53.80197,-16.71337,-11.69618
81.441241264,-1.859228,0.46776,0.03089567,0.9730048,-0.08234879,0.2314125,-54.55371,-16.71709,-12.59172
81.451153278,-2.045042,0.5260119,0.03089567,0.9716054,-0.08428325,0.235734,-54.55371,-16.71709,-12.59172
81.461065292,-2.045042,0.642515800000001,0.1536215,0.9740934,-0.0866692,0.2371355,-54.55371,-16.71709,-12.59172
81.470977783,-1.4876,0.5842639,0.0922585699999997,0.9706976,-0.0930395,0.2323229,-54.55371,-16.71709,-12.59172
81.480889797,-0.9301572,0.5260119,0.0922585699999997,0.9756209,-0.09052168,0.2385362,-54.55371,-16.71709,-12.59172
81.490801811,-0.4965908,0.46776,-0.03046724,0.9731829,-0.09396344,0.2351747,-54.5521,-16.71526,-12.142
81.500714779,0.2466658,0.5260119,0.1536215,0.9711744,-0.08913726,0.2357056,-54.5521,-16.71526,-12.142
81.510626316,0.989922399999999,0.642515800000001,0.2763473,0.9696825,-0.08868087,0.2338018,-54.5521,-16.71526,-12.142
81.520539284,1.609303,0.46776,0.2149844,0.9681647,-0.08482329,0.2333614,-54.5521,-16.71526,-12.142
81.530451298,1.547365,0.5260119,0.1536215,0.9646909,-0.07806341,0.2363195,-54.5521,-16.71526,-12.142
81.540363312,1.113798,0.293004,0.2763473,0.9734598,-0.08528714,0.2246665,-54.18269,-16.34063,-12.1451
81.550275803,1.299613,0.1765001,0.03089567,0.9690672,-0.07850884,0.2333951,-54.18269,-16.34063,-12.1451
81.560187817,1.237675,0.001744238,0.1536215,0.9730529,-0.08183598,0.2366972,-54.18269,-16.34063,-12.1451
81.572577476,1.547365,0.0599961999999999,0.2763473,0.9749919,-0.08621047,0.2299279,-54.18269,-16.34063,-12.1451
81.582490444,1.609303,0.1182482,0.1536215,0.9701068,-0.08285473,0.2343169,-54.18269,-16.34063,-12.1451
81.592402458,1.299613,0.1182482,-0.03046724,0.9681335,-0.08386388,0.2314474,-54.18269,-16.34063,-12.1451
81.602314949,1.113798,-0.05650773,-0.09183015,0.9685355,-0.07658592,0.2314922,-54.18269,-16.34063,-12.1451
81.612226963,0.989922399999999,-0.4060195,-0.2759189,0.968564,-0.08144914,0.2285786,-54.18269,-16.34063,-12.1451
81.622138977,0.742170199999999,-0.4642715,-0.2759189,0.9763997,-0.08085699,0.2304307,-54.18269,-16.34063,-12.1451
81.632051468,0.3086039,-0.2895156,-0.09183015,0.9803387,-0.08274504,0.2308619,-54.18269,-16.34063,-12.1451
81.641963482,0.494418,-0.05650773,-0.03046724,0.9813858,-0.08855041,0.2308135,-54.9312,-16.34069,-12.14121
81.651875496,0.927984400000002,0.0599961999999999,0.2149844,0.9833848,-0.09094243,0.2322196,-54.9312,-16.34069,-12.14121
81.661787987,1.361551,0.293004,0.460436,0.9764678,-0.08326057,0.2342553,-54.9312,-16.34069,-12.14121
81.671700001,2.042869,0.293004,0.3377102,0.9691304,-0.0862808,0.2304618,-54.9312,-16.34069,-12.14121
81.681612015,2.476436,0.0599961999999999,0.2763473,0.9691032,-0.07946568,0.2357892,-54.9312,-16.34069,-12.14121
81.691524506,2.786126,0.0599961999999999,0.3377102,0.9681228,-0.08338164,0.2309706,-54.55371,-16.71709,-12.59172
81.70143652,3.033878,0.1765001,0.3990731,0.970987,-0.08045429,0.2276025,-54.55371,-16.71709,-12.59172
81.711348534,3.033878,0.1182482,0.5217989,0.9763854,-0.07842539,0.2318875,-54.55371,-16.71709,-12.59172
81.721261024,3.157754,0.001744238,0.5217989,0.9749562,-0.08281438,0.230431,-54.55371,-16.71709,-12.59172
81.731173038,2.97194,0.2347521,0.460436,0.969516,-0.0780358,0.230033,-54.55371,-16.71709,-12.59172
81.741085529,2.600312,0.0599961999999999,0.6445247,0.9753729,-0.07552877,0.2319162,-54.17784,-16.71523,-12.14395
81.750997543,2.290622,-0.4060195,0.6445247,0.9754304,-0.08281595,0.2289861,-54.17784,-16.71523,-12.14395
81.760909557,2.476436,-0.6972793,0.583161800000002,0.9754473,-0.08134374,0.2323569,-54.17784,-16.71523,-12.14395
81.770822525,2.910002,-1.163295,0.5217989,0.973015,-0.07990444,0.2352699,-54.17784,-16.71523,-12.14395
81.780734062,3.777135,-1.512807,0.5217989,0.9741504,-0.09102979,0.2375861,-54.17784,-16.71523,-12.14395
81.790646076,4.830081,-1.571059,0.3377102,0.9746467,-0.08711734,0.2428893,-54.18269,-16.34063,-12.1451
81.800559044,6.006905,-1.571059,0.2763473,0.9765836,-0.08759059,0.2404675,-54.18269,-16.34063,-12.1451
81.810470581,7.05985200000002,-1.396303,-0.1531931,0.9735809,-0.08717535,0.2342559,-54.18269,-16.34063,-12.1451
81.820382595,7.43147999999999,-1.687563,-0.5213705,0.9707096,-0.09156983,0.2352135,-54.18269,-16.34063,-12.1451
81.830295563,7.92698399999999,-2.270082,-0.644096300000003,0.9722447,-0.09151594,0.2419219,-54.18269,-16.34063,-12.1451
81.840207577,8.42248799999999,-2.619594,-0.644096300000003,0.9652524,-0.08826346,0.2314448,-54.17623,-16.7134,-11.69424
81.85259819,8.60830200000001,-3.143862,-0.582733500000001,0.9686531,-0.08725646,0.2304597,-54.17623,-16.7134,-11.69424
81.862510204,8.91799300000002,-3.668129,-0.644096300000003,0.9696705,-0.09015052,0.2309112,-54.17623,-16.7134,-11.69424
81.872421741,9.28962000000002,-3.784633,-0.705459200000001,0.9711152,-0.08624123,0.2333246,-54.17623,-16.7134,-11.69424
81.882334709,9.47543500000001,-4.134145,-0.644096300000003,0.9676977,-0.08872044,0.230939,-54.91989,-17.08805,-11.68919
81.892246723,9.90900100000002,-4.483657,-0.4600076,0.9700186,-0.08290059,0.2256745,-54.91989,-17.08805,-11.68919
81.90215826,10.15675,-4.833169,-1.073637,0.9743863,-0.0813992,0.2242037,-54.91989,-17.08805,-11.68919
81.912071228,10.40451,-5.066176,-1.073637,0.9744229,-0.07991679,0.2294949,-54.91989,-17.08805,-11.68919
81.921983242,10.7142,-5.415688,-1.319088,0.9704149,-0.07513783,0.2257226,-54.91989,-17.08805,-11.68919
81.931895733,10.7142,-5.88170400000003,-1.625903,0.9703743,-0.07174428,0.2257456,-54.53941,-17.46105,-11.30452
81.941807747,10.46644,-6.28946699999999,-1.809992,0.9741789,-0.06443399,0.2238385,-54.53941,-17.46105,-11.30452
81.951719761,10.40451,-6.23121499999997,-1.748629,0.9683597,-0.06887256,0.2233825,-54.53941,-17.46105,-11.30452
81.961632252,9.97093999999998,-6.69723099999998,-1.871354,0.9673539,-0.06694808,0.2229245,-54.53941,-17.46105,-11.30452
81.971544266,9.78512499999999,-6.81373500000001,-1.99408,0.974673,-0.06735197,0.2209335,-54.53941,-17.46105,-11.30452
81.98145628,9.59931099999998,-7.16324699999999,-2.178169,0.9775751,-0.06635614,0.2189926,-54.54426,-17.08645,-11.30567
81.991368771,9.47543500000001,-7.16324699999999,-2.116806,0.9750961,-0.06884359,0.2127569,-54.54426,-17.08645,-11.30567
82.001280785,9.28962000000002,-7.39625499999999,-2.116806,0.9668117,-0.06990876,0.2142669,-54.54426,-17.08645,-11.30567
82.011193275,9.16574500000002,-7.10499500000003,-2.055443,0.9711397,-0.06550117,0.2123356,-54.54426,-17.08645,-11.30567
82.021105289,9.10380600000001,-7.221499,-1.99408,0.968097,-0.05925313,0.2090443,-54.54426,-17.08645,-11.30567
82.031017303,8.85605400000001,-7.221499,-1.441814,0.976877,-0.05915402,0.2070431,-54.91068,-17.45768,-10.46739
82.040929794,8.91799300000002,-7.16324699999999,-1.257725,0.9782612,-0.05430061,0.2046619,-54.91068,-17.45768,-10.46739
82.050841808,8.29861200000002,-6.69723099999998,-0.950910899999997,0.9797332,-0.05720643,0.2017479,-54.91068,-17.45768,-10.46739
82.060753822,8.29861200000002,-5.93995599999998,-0.3986447,0.9831271,-0.05522731,0.2012496,-54.91068,-17.45768,-10.46739
82.07066679,8.05085899999999,-5.124428,0.03089567,0.9835951,-0.06254918,0.190633,-54.91068,-17.45768,-10.46739
82.080578327,8.36055000000001,-4.425405,0.951339199999998,0.9792417,-0.06111633,0.1969249,-54.17025,-16.7066,-10.02388
82.090490341,8.60830200000001,-3.784633,1.442243,0.9816334,-0.05916208,0.1940348,-54.17025,-16.7066,-10.02388
82.100403309,8.48442599999998,-3.143862,2.117234,0.9796042,-0.05629799,0.1902314,-54.17025,-16.7066,-10.02388
82.110315323,8.23667399999998,-2.969106,3.099041,0.9869415,-0.06400945,0.1814693,-54.17025,-16.7066,-10.02388
82.120227814,8.23667399999998,-2.677846,3.651307,0.9895747,-0.07607599,0.185686,-54.17025,-16.7066,-10.02388
82.130139828,9.10380600000001,-2.270082,4.75584,0.9932233,-0.09006189,0.191321,-54.91392,-17.08126,-10.01883
82.142529488,11.33358,-0.639027300000002,6.90354199999998,1.004793,-0.1097529,0.1997256,-54.91392,-17.08126,-10.01883
82.152442455,14.05885,0.5842639,8.19216299999999,0.9969298,-0.1142616,0.1906453,-54.91392,-17.08126,-10.01883
82.162354469,17.89901,0.933775699999999,9.235332,0.9852435,-0.1236515,0.1844488,-54.91392,-17.08126,-10.01883
82.172266007,21.92498,0.409508,10.03305,0.9809912,-0.137288,0.1829568,-54.91392,-17.08126,-10.01883
82.182178974,25.64127,-0.755531299999998,10.83077,0.9706498,-0.136479,0.1768158,-54.15757,-17.45239,-9.18639
82.192090988,28.3046,-1.804067,11.81257,0.9676239,-0.123393,0.183173,-54.15757,-17.45239,-9.18639
82.202003479,29.97693,-2.037075,13.28528,0.9845542,-0.1052253,0.1864986,-54.15757,-17.45239,-9.18639
82.211915493,30.59631,-2.037075,14.32845,0.9878196,-0.09453259,0.1836586,-54.15757,-17.45239,-9.18639
82.221827507,31.15375,-2.153579,15.61707,0.992007,-0.07214944,0.1890508,-54.15757,-17.45239,-9.18639
82.231739998,31.27763,-1.629311,16.47615,0.9971943,-0.05657182,0.1886264,-54.15596,-17.45056,-8.736677
82.241652012,30.78213,0.001744238,17.15115,0.9979636,-0.03910713,0.1887356,-54.15596,-17.45056,-8.736677
82.251564026,29.54336,2.273571,17.64205,1.001919,-0.03366978,0.1992988,-54.15596,-17.45056,-8.736677
82.261476517,27.93297,4.60365,18.31704,1.012757,-0.04666381,0.1919096,-54.15596,-17.45056,-8.736677
82.271388531,26.88003,6.87547600000002,19.29885,1.011391,-0.05345893,0.1937976,-54.15596,-17.45056,-8.736677
82.281301022,25.70321,8.50653100000001,19.66702,0.999782,-0.0598815,0.1986638,-55.28706,-16.69989,-8.347678
82.291213036,23.65925,9.32205800000003,19.97384,0.9924922,-0.05946232,0.2035356,-55.28706,-16.69989,-8.347678
82.30112505,21.24366,11.06962,20.7102,1.003998,-0.06845473,0.2182541,-55.28706,-16.69989,-8.347678
82.311037541,18.95196,14.56473,21.93745,1.021415,-0.08076528,0.2333761,-55.28706,-16.69989,-8.347678
82.320949555,16.72219,19.63266,23.41016,1.028627,-0.09951329,0.2471091,-55.28706,-16.69989,-8.347678
82.330861569,15.73118,24.75883,23.8397,1.041735,-0.1210997,0.2602885,-54.92872,-15.57765,-8.738554
82.340774059,15.29761,29.885,23.41016,1.045688,-0.1407809,0.2889303,-54.92872,-15.57765,-8.738554
82.350686073,16.28862,34.2539,23.90107,1.046163,-0.1590705,0.3137723,-54.92872,-15.57765,-8.738554
82.360598087,19.81909,38.50629,24.08516,1.03868,-0.1731375,0.3305534,-54.92872,-15.57765,-8.738554
82.370511055,23.03987,43.57421,24.39197,1.042326,-0.1802955,0.3439164,-54.92872,-15.57765,-8.738554
82.380422592,26.69421,47.94311,24.94423,1.039496,-0.1832051,0.3506454,-55.69015,-14.83218,-9.636395
82.39033556,29.85305,51.43823,25.12832,1.050771,-0.1757323,0.3621147,-55.69015,-14.83218,-9.636395
82.400247574,37.4095,59.5934999999999,26.04877,1.066543,-0.1974225,0.3488601,-55.69015,-14.83218,-9.636395
82.410159588,43.1078,63.7293900000001,26.47831,1.062364,-0.1717567,0.3529109,-55.69015,-14.83218,-9.636395
82.422550202,44.71819,70.1953600000002,25.61923,1.039037,-0.1617325,0.3786418,-55.69015,-14.83218,-9.636395
82.432461739,46.2047,73.7487300000001,27.1533,1.0336,-0.1481715,0.3888658,-56.08792,-13.71862,-12.14345
82.442373753,43.23167,78.5836400000002,26.53967,1.035998,-0.1227995,0.4139808,-56.08792,-13.71862,-12.14345
82.45228672,40.25865,82.9525400000002,25.92604,1.022897,-0.1175466,0.4299822,-56.08792,-13.71862,-12.14345
82.462198734,35.24166,87.3214299999999,25.92604,1.030375,-0.1032335,0.4607386,-56.08792,-13.71862,-12.14345
82.472111225,28.61429,92.97187,25.9874,1.026285,-0.1197125,0.4717102,-56.08792,-13.71862,-12.14345
82.482023239,23.65925,97.2242700000001,26.29422,1.018742,-0.1333227,0.4832131,-54.98564,-12.98162,-15.17109
82.491935253,19.69521,100.9524,26.11013,1.010463,-0.1497468,0.5148707,-54.98564,-12.98162,-15.17109
82.501847744,16.59831,104.7388,25.55787,0.9998683,-0.149309,0.531297,-54.98564,-12.98162,-15.17109
82.511759758,14.43048,108.0009,25.12832,0.9989902,-0.1502449,0.5399418,-54.98564,-12.98162,-15.17109
82.521671772,13.06784,110.2727,24.08516,0.990814,-0.1541806,0.548634,-54.98564,-12.98162,-15.17109
82.531584263,14.12079,111.4377,23.77834,0.9758151,-0.1698975,0.5457871,-54.63786,-12.25149,-19.86521
82.541496277,15.97893,113.3018,23.04198,0.9763831,-0.1649722,0.559259,-54.63786,-12.25149,-19.86521
82.551408768,16.53637,115.1076,23.53289,0.9689642,-0.1529129,0.5651699,-54.63786,-12.25149,-19.86521
82.561320782,17.09381,114.9911,22.24427,0.947928,-0.1609867,0.5547472,-54.63786,-12.25149,-19.86521
82.571232796,16.22668,115.5154,22.12154,0.9386137,-0.1362375,0.5814068,-54.63786,-12.25149,-19.86521
82.581145286,13.62528,116.3309,22.55108,0.9131558,-0.1351091,0.5797293,-52.42061,-11.52329,-25.08301
82.5910573,10.46644,117.0299,21.99882,0.9000717,-0.1259448,0.6019986,-52.42061,-11.52329,-25.08301
82.600969314,6.62628499999997,118.7192,22.18291,0.883038,-0.1305077,0.6045265,-52.42061,-11.52329,-25.08301
82.610881805,4.024887,119.7095,21.93745,0.8568615,-0.1316957,0.6254075,-52.42061,-11.52329,-25.08301
82.620793819,0.1847278,120.059,21.32382,0.8498027,-0.1370099,0.6460841,-52.42061,-11.52329,-25.08301
82.630706787,-3.407679,120.6416,20.83292,0.8453138,-0.1573504,0.6613552,-50.20153,-10.79301,-29.78685
82.640618801,-5.451635,121.6901,20.40338,0.8192447,-0.1716533,0.6773462,-50.20153,-10.79301,-29.78685
82.650530338,-5.575511,121.2823,20.21929,0.794472,-0.1840751,0.678933,-50.20153,-10.79301,-29.78685
82.660443306,-5.389697,120.4668,20.40338,0.7716102,-0.1828374,0.692117,-50.20153,-10.79301,-29.78685
82.67035532,-3.779308,119.7095,20.34202,0.7736142,-0.179861,0.700281,-50.20153,-10.79301,-29.78685
82.680267334,-2.788299,119.9425,19.85111,0.7665448,-0.184693,0.7204808,-47.24063,-9.690157,-35.0097
82.690179825,-0.3727147,120.0008,19.66702,0.7545347,-0.1959543,0.7281994,-47.24063,-9.690157,-35.0097
82.702569485,2.910002,120.5251,18.99203,0.7336885,-0.2088073,0.7307073,-47.24063,-9.690157,-35.0097
82.712482452,6.87403699999997,120.6998,18.62386,0.7093708,-0.2134359,0.7381038,-47.24063,-9.690157,-35.0097
82.722394466,10.59032,121.8649,17.64205,0.6859405,-0.208831,0.7474742,-43.89714,-9.338037,-40.61765
82.73230648,15.42149,121.1658,17.76477,0.6565699,-0.2275038,0.7701888,-43.89714,-9.338037,-40.61765
82.742218971,18.89002,120.1173,18.13295,0.637054,-0.2194339,0.7838675,-43.89714,-9.338037,-40.61765
82.752130985,22.35855,119.593,18.13295,0.6228458,-0.2186506,0.7820835,-43.89714,-9.338037,-40.61765
82.762043476,24.89801,119.0688,17.33524,0.6166099,-0.2303748,0.7801424,-43.89714,-9.338037,-40.61765
82.77195549,26.88003,117.5542,17.33524,0.5905687,-0.2044235,0.798322,-39.43598,-8.231408,-44.94885
82.781867504,28.73817,117.3794,15.61707,0.5631741,-0.197456,0.805344,-39.43598,-8.231408,-44.94885
82.791779995,29.29561,117.3794,14.26709,0.5511371,-0.1940971,0.8275649,-39.43598,-8.231408,-44.94885
82.801692009,29.72918,117.5542,13.46937,0.5027413,-0.195673,0.8270417,-39.43598,-8.231408,-44.94885
82.811604023,30.28662,115.1076,13.5921,0.4822638,-0.2017532,0.8257501,-39.43598,-8.231408,-44.94885
82.821516514,32.33058,114.1756,14.083,0.4624137,-0.2111699,0.8340336,-35.39045,-8.621365,-48.82346
82.831428528,33.94097,115.3406,15.7398,0.447537,-0.1792666,0.8511893,-35.39045,-8.621365,-48.82346
82.841340542,33.81709,112.7193,13.96028,0.446406,-0.1859394,0.8761235,-35.39045,-8.621365,-48.82346
82.851253033,34.93198,112.3115,12.36484,0.395379,-0.1817893,0.864139,-35.39045,-8.621365,-48.82346
82.861165047,36.54237,110.564,11.81257,0.3674443,-0.1709521,0.8707116,-35.39045,-8.621365,-48.82346
82.871077538,36.85205,108.2339,11.26031,0.368392,-0.1411994,0.9025915,-30.51974,-9.755218,-51.41509
82.880989552,37.22368,108.4669,10.03305,0.363461,-0.1207943,0.9224595,-30.51974,-9.755218,-51.41509
82.890901566,36.35655,109.7484,9.11260599999998,0.348779,-0.1175702,0.9250176,-30.51974,-9.755218,-51.41509
82.900814533,37.96694,113.0688,5.98309800000002,0.3219436,-0.1222674,0.9252344,-30.51974,-9.755218,-51.41509
82.91072607,33.5074,107.5931,5.553557,0.2963858,-0.05656114,0.9417538,-30.51974,-9.755218,-51.41509
82.920639038,35.42748,111.496,4.571751,0.2938311,-0.08664455,0.9434975,-26.3943,-11.26556,-54.45138
82.930551052,36.04686,113.8261,1.749057,0.2660194,-0.1054994,0.9273039,-26.3943,-11.26556,-54.45138
82.940463066,37.84306,113.8261,0.2763473,0.2411252,-0.1077407,0.9289597,-26.3943,-11.26556,-54.45138
82.950375557,38.46244,112.661,-1.932717,0.2214725,-0.06510778,0.9697587,-26.3943,-11.26556,-54.45138
82.960287571,40.87803,114.0591,-3.834968,0.2496416,-0.09753479,0.9131036,-26.3943,-11.26556,-54.45138
82.970199585,41.93098,115.2241,-5.614491,0.1892191,-0.05111668,0.9403803,-21.15119,-12.02139,-56.21092
82.980112076,40.25865,114.5834,-7.63946799999999,0.1799698,-0.03511414,0.96314,-21.15119,-12.02139,-56.21092
82.992502213,36.35655,116.5639,-8.62127400000002,0.1740972,-0.03714146,0.9602997,-21.15119,-12.02139,-56.21092
83.002414703,34.18872,118.4862,-10.76898,0.1331417,-0.05174113,0.9548194,-21.15119,-12.02139,-56.21092
83.012326717,33.32159,117.0299,-11.50533,0.1049452,-0.05786499,0.9636822,-21.15119,-12.02139,-56.21092
83.022238731,33.19771,116.5057,-11.93487,0.09324861,-0.06969928,0.9536282,-15.51766,-13.89914,-57.51924
83.032151222,34.18872,117.0299,-12.42577,0.06352945,-0.08269979,0.9490149,-15.51766,-13.89914,-57.51924
83.042063236,36.66624,116.7387,-13.40758,0.04482533,-0.0829968,0.9367018,-15.51766,-13.89914,-57.51924
83.05197525,38.89601,117.7872,-13.16213,0.02698808,-0.07894909,0.9186477,-15.51766,-13.89914,-57.51924
83.061887741,41.43547,117.9037,-14.2053,-0.008002175,-0.0678191,0.9051208,-15.51766,-13.89914,-57.51924
83.071799755,42.79811,115.6901,-12.79395,-0.02943077,-0.0356093,0.903613,-10.26187,-15.40076,-58.4413
83.081712246,42.61229,115.5154,-12.91668,-0.047261,-0.01399694,0.9068028,-10.26187,-15.40076,-58.4413
83.09162426,41.74516,116.6222,-13.0394,-0.03816451,0.002603942,0.9073095,-10.26187,-15.40076,-58.4413
83.101536274,40.32059,117.6707,-13.22349,-0.06241632,0.03093209,0.9120439,-10.26187,-15.40076,-58.4413
83.111448765,37.96694,117.729,-14.32802,-0.1022943,0.04151402,0.8980784,-10.26187,-15.40076,-58.4413
83.121360779,36.29461,117.0299,-15.06438,-0.1271116,0.04272749,0.9112803,-3.559878,-17.64937,-58.85455
83.131272793,34.74616,118.428,-14.51211,-0.120405,0.04566775,0.9011545,-3.559878,-17.64937,-58.85455
83.141185284,34.06484,117.962,-15.12574,-0.1513672,0.04373653,0.8836622,-3.559878,-17.64937,-58.85455
83.151097298,35.73717,116.9717,-15.12574,-0.1676591,0.05028247,0.8761739,-3.559878,-17.64937,-58.85455
83.161010265,36.85205,117.5542,-16.96663,-0.1662362,0.05271701,0.8747365,-3.559878,-17.64937,-58.85455
83.170922279,38.52438,117.2047,-19.42115,-0.2110847,0.03368779,0.8659014,2.07962,-19.52033,-58.49251
83.180833817,42.3026,115.1659,-20.34159,-0.2153932,0.02929039,0.8697532,2.07962,-19.52033,-58.49251
83.190746784,47.19571,113.8843,-20.28023,-0.2171094,-0.04987332,0.8481148,2.07962,-19.52033,-58.49251
83.200658798,50.66424,111.7873,-22.9802,-0.2819913,0.05449908,0.8422078,2.07962,-19.52033,-58.49251
83.210571289,54.07084,110.331,-25.74153,-0.3176828,0.04576079,0.8323963,2.07962,-19.52033,-58.49251
83.220483303,57.3535499999998,109.8649,-28.68694,-0.3277387,0.05329921,0.8142936,7.723943,-21.3858,-56.78133
83.230395317,58.0348699999999,106.4863,-30.46647,-0.3747913,0.06826273,0.8210704,7.723943,-21.3858,-56.78133
83.240307808,58.902,104.4475,-30.65056,-0.3754395,0.106462,0.8026047,7.723943,-21.3858,-56.78133
83.250219822,56.48642,104.0397,-31.44828,-0.3960097,0.1135043,0.8076435,7.723943,-21.3858,-56.78133
83.262609959,52.15075,101.5349,-32.55281,-0.3887088,0.1150422,0.8061457,7.723943,-21.3858,-56.78133
83.27252245,48.62029,99.6125900000001,-31.87782,-0.4280249,0.128595,0.8027583,13.74898,-23.624,-54.62122
83.282434464,44.47044,96.9330100000001,-33.2278,-0.4428957,0.1385501,0.7947995,13.74898,-23.624,-54.62122
83.292346954,40.13477,94.0786600000001,-33.78007,-0.4698512,0.1352538,0.7849435,13.74898,-23.624,-54.62122
83.302258968,36.54237,91.8650900000001,-33.16644,-0.489497,0.1339879,0.7750334,13.74898,-23.624,-54.62122
83.312170982,33.75515,89.5932599999997,-33.16644,-0.5008855,0.1091432,0.7797748,13.74898,-23.624,-54.62122
83.322083473,32.76414,87.4379300000003,-32.36872,-0.5202985,0.1165305,0.7550354,19.02688,-25.86069,-52.07176
83.331995487,31.71119,86.0398899999998,-31.87782,-0.5246283,0.1023659,0.7453778,19.02688,-25.86069,-52.07176
83.341907501,31.33957,84.2923299999999,-32.85962,-0.5407951,0.09678186,0.7358871,19.02688,-25.86069,-52.07176
83.351819992,31.71119,82.7777799999999,-33.04371,-0.5370796,0.09916777,0.7195432,19.02688,-25.86069,-52.07176
83.361732006,32.76414,81.1467300000001,-34.57779,-0.5464516,0.1019357,0.7148467,19.02688,-25.86069,-52.07176
83.371644497,33.38353,80.56421,-32.79826,-0.5581253,0.1303529,0.7065012,24.28378,-26.60084,-49.97663
83.381556511,33.25965,79.0496500000003,-33.78007,-0.576779,0.1266675,0.6951253,24.28378,-26.60084,-49.97663
83.391468525,32.64027,77.5933499999999,-32.98235,-0.5932873,0.123593,0.70294,24.28378,-26.60084,-49.97663
83.401381016,31.02988,77.1273399999998,-33.16644,-0.5892344,0.1129838,0.7042724,24.28378,-26.60084,-49.97663
83.41129303,29.72918,78.4671300000001,-32.7369,-0.6110528,0.08646291,0.6913332,24.28378,-26.60084,-49.97663
83.421205998,29.72918,78.2923800000001,-32.24599,-0.6496534,0.06452999,0.6684964,27.9831,-27.33901,-47.35943
83.431118012,30.96794,77.5351000000003,-32.12327,-0.6835408,0.06354211,0.6529581,27.9831,-27.33901,-47.35943
83.441029549,32.45445,77.0690799999999,-32.00054,-0.6868302,0.08673497,0.6454605,27.9831,-27.33901,-47.35943
83.450942516,31.27763,77.5933499999999,-32.61417,-0.7201068,0.104841,0.6641348,27.9831,-27.33901,-47.35943
83.46085453,27.99491,78.52539,-32.18463,-0.7211412,0.1116287,0.6665905,27.9831,-27.33901,-47.35943
83.470766544,23.96894,78.9331499999999,-31.26419,-0.6997001,0.1147868,0.663052,32.49148,-28.07922,-45.26041
83.480679035,19.13777,81.2632299999999,-29.30058,-0.6872773,0.1328438,0.6558551,32.49148,-28.07922,-45.26041
83.490591049,13.87304,82.0205099999997,-28.31877,-0.7079453,0.1291035,0.6387357,32.49148,-28.07922,-45.26041
83.50050354,8.05085899999999,80.9137200000002,-27.45969,-0.7256469,0.1312706,0.6317114,32.49148,-28.07922,-45.26041
83.510415554,3.095816,81.2049800000003,-26.23243,-0.6996644,0.1474795,0.6094918,32.49148,-28.07922,-45.26041
83.520327568,-3.345741,80.6807099999998,-26.29379,-0.7154695,0.1418352,0.5875131,36.2384,-27.69386,-42.71124
83.530240059,-16.47661,74.9720200000001,-24.51427,-0.6739668,0.1218373,0.5581865,36.2384,-27.69386,-42.71124
83.540152073,-12.51257,81.7874999999999,-23.16428,-0.7895839,0.1285692,0.5448958,36.2384,-27.69386,-42.71124
83.552542686,-15.05203,77.7098599999999,-26.1097,-0.7718214,0.1171655,0.5470564,36.2384,-27.69386,-42.71124
83.5624547,-16.7863,76.3118099999998,-25.18926,-0.7391465,0.1104625,0.5784,38.87547,-28.05413,-39.2545
83.572366714,-18.27281,76.7778199999998,-23.59382,-0.740557,0.1119369,0.5856253,38.87547,-28.05413,-39.2545
83.582279205,-19.63545,75.2632800000001,-24.26882,-0.7353803,0.09653777,0.5955582,38.87547,-28.05413,-39.2545
83.592191219,-20.00708,73.6322299999998,-24.75972,-0.7436156,0.07403469,0.5767582,38.87547,-28.05413,-39.2545
83.60210371,-18.21087,72.1176700000001,-25.98698,-0.7415417,0.05216942,0.5626689,38.87547,-28.05413,-39.2545
83.612015724,-14.80428,71.4768999999997,-26.47788,-0.7543419,0.04220866,0.5425541,42.60785,-26.54499,-36.70879
83.621927738,-10.03505,69.2050699999999,-26.78469,-0.7705153,0.02149919,0.5147166,42.60785,-26.54499,-36.70879
83.631840229,-5.947139,66.8749899999999,-27.45969,-0.7738968,0.0441563,0.4976131,42.60785,-26.54499,-36.70879
83.641752243,-2.354732,64.95268,-28.74831,-0.7972091,0.02443233,0.4900148,42.60785,-26.54499,-36.70879
83.651664257,0.989922399999999,62.9721100000002,-28.13468,-0.8209514,0.03619188,0.4773484,42.60785,-26.54499,-36.70879
83.661577225,2.476436,60.1177699999999,-28.13468,-0.8464988,0.04068836,0.4708924,45.58387,-24.66472,-34.99553
83.671488762,3.467444,58.4284600000002,-28.9324,-0.8527756,0.03528434,0.4723549,45.58387,-24.66472,-34.99553
83.68140173,4.272639,56.6809,-28.87103,-0.8594323,0.02115052,0.474243,45.58387,-24.66472,-34.99553
83.691313744,5.20171,54.46733,-27.7665,-0.8544217,0.008104004,0.4707486,45.58387,-24.66472,-34.99553
83.701225758,6.62628499999997,54.11782,-25.74153,-0.8649901,0.0312338,0.4685996,45.58387,-24.66472,-34.99553
83.711138248,5.325586,53.71006,-25.92562,-0.8660733,0.02726433,0.4536983,47.4498,-23.53032,-32.43893
83.721050262,3.839073,54.23432,-25.74153,-0.8750842,-0.003926205,0.4444509,47.4498,-23.53032,-32.43893
83.730962753,2.97194,53.59355,-23.83928,-0.885507,-0.004135261,0.4291808,47.4498,-23.53032,-32.43893
83.740874767,2.042869,52.60327,-22.36657,-0.8686893,-0.002123682,0.4026299,47.4498,-23.53032,-32.43893
83.750786781,1.175737,52.02075,-21.44612,-0.8825861,-0.003377954,0.381143,47.4498,-23.53032,-32.43893
83.760699272,-0.3107767,50.27319,-19.72796,-0.8985682,0.009910201,0.3640937,49.68354,-22.02313,-30.33515
83.770611286,-2.974113,49.51591,-18.07116,-0.9071602,0.01892885,0.3474277,49.68354,-22.02313,-30.33515
83.7805233,-5.018068,47.41884,-17.27345,-0.8974265,0.01610078,0.3396363,49.68354,-22.02313,-30.33515
83.790435791,-6.38070599999998,44.7975,-15.98482,-0.9185621,0.02212159,0.3360306,49.68354,-22.02313,-30.33515
83.800347805,-8.42466199999997,42.29267,-15.55528,-0.9133307,0.0323563,0.3336496,49.68354,-22.02313,-30.33515
83.810260296,-10.40668,40.37035,-15.92346,-0.9230216,0.02788954,0.3370706,51.18193,-21.64136,-28.60949
83.82017231,-11.21187,38.56454,-16.353,-0.9165332,0.0007207182,0.3181034,51.18193,-21.64136,-28.60949
83.832562447,-9.16791799999997,34.89467,-16.04619,-0.9620647,-0.003293635,0.3079343,51.18193,-21.64136,-28.60949
83.842474937,-7.61946700000001,31.74907,-16.16891,-0.9795547,-0.01223597,0.3085166,51.18193,-21.64136,-28.60949
83.852386951,-6.194891,28.3122,-16.78254,-0.9624934,-0.04350792,0.3143925,51.18193,-21.64136,-28.60949
83.862299442,-4.33675,24.75883,-17.39617,-0.9397286,-0.06064545,0.32079,52.30419,-20.88162,-26.04785
83.872211456,-1.301785,22.25399,-17.58026,-0.9161407,-0.07102196,0.3200226,52.30419,-20.88162,-26.04785
83.88212347,1.547365,20.97245,-17.76435,-0.9045557,-0.07046532,0.3059946,52.30419,-20.88162,-26.04785
83.892035961,3.033878,19.28314,-17.02799,-0.919036,-0.05762845,0.2918093,52.30419,-20.88162,-26.04785
83.901947975,3.219692,17.76859,-15.43256,-0.9348889,-0.04524873,0.2862765,52.30419,-20.88162,-26.04785
83.911860943,2.166745,16.6618,-13.89848,-0.9235684,-0.04945946,0.2885445,53.40918,-19.38132,-25.60859
83.921772957,0.680232200000002,15.03075,-12.11896,-0.9150066,-0.0633719,0.2965353,53.40918,-19.38132,-25.60859
83.931684494,0.0608516599999998,13.6327,-10.46216,-0.9180841,-0.08567412,0.3040977,53.40918,-19.38132,-25.60859
83.941597462,0.680232200000002,12.81718,-9.35762899999997,-0.9259224,-0.08480424,0.3036959,53.40918,-19.38132,-25.60859
83.951509476,1.361551,12.52592,-8.74399900000002,-0.9401073,-0.0652328,0.2785091,53.40918,-19.38132,-25.60859
83.96142149,1.237675,11.88514,-8.68263700000001,-0.9647976,-0.05639671,0.2653518,54.90943,-19.37754,-24.71695
83.971333981,1.113798,9.96283000000002,-8.13037100000001,-0.9923633,-0.04707913,0.2584665,54.90943,-19.37754,-24.71695
83.981245995,1.485427,7.92401099999998,-7.20992699999999,-1.005425,-0.0447325,0.2749283,54.90943,-19.37754,-24.71695
83.991158485,2.35256,6.23470400000003,-6.84175,-1.008772,-0.04815072,0.2782976,54.90943,-19.37754,-24.71695
84.001070499,2.724188,5.88519199999999,-7.394016,-0.9874408,-0.07016715,0.2822751,54.90943,-19.37754,-24.71695
84.010982513,4.768144,5.477429,-6.596298,-0.9759579,-0.08551282,0.2873483,54.90111,-18.62678,-24.33379
84.020895004,6.68822300000002,4.894909,-4.9395,-0.959942,-0.07512923,0.2877496,54.90111,-18.62678,-24.33379
84.030807018,7.92698399999999,3.322106,-3.712242,-0.950719,-0.07407229,0.2823896,54.90111,-18.62678,-24.33379
84.040719509,8.17473599999999,1.458043,-3.159976,-0.9550169,-0.08968363,0.2741626,54.90111,-18.62678,-24.33379
84.050631523,7.98892199999997,-1.163295,-1.99408,-0.9519691,-0.1066608,0.2653785,54.90111,-18.62678,-24.33379
84.060543537,8.11279800000001,-3.726381,0.3990731,-0.9452822,-0.09836489,0.25961,54.90756,-18.99955,-23.88292
84.070456028,6.997913,-6.52247499999999,2.914952,-0.940378,-0.09878385,0.2605222,54.90756,-18.99955,-23.88292
84.080368042,6.13078099999997,-9.66808199999998,5.492195,-0.9457456,-0.1042114,0.2552539,54.90756,-18.99955,-23.88292
84.090280056,5.325586,-13.62922,7.026268,-0.9437963,-0.1115074,0.2460643,54.90756,-18.99955,-23.88292
84.100193024,5.635276,-16.60007,8.00807399999998,-0.9408525,-0.1119532,0.2465142,54.90756,-18.99955,-23.88292
84.112582684,7.05985200000002,-20.44469,10.15578,-0.9401348,-0.08768614,0.2495502,55.27697,-18.62492,-23.88602
84.122495174,7.49341799999997,-23.41554,12.11939,-0.9317863,-0.08414859,0.2571791,55.27697,-18.62492,-23.88602
84.132407188,8.05085899999999,-26.44465,14.38982,-0.9374796,-0.08510698,0.2730706,55.27697,-18.62492,-23.88602
84.142320156,8.67023999999999,-29.00773,16.72161,-0.9310192,-0.08887579,0.2787476,55.27697,-18.62492,-23.88602
84.15223217,9.41349700000002,-31.1048,18.74658,-0.9300286,-0.08788132,0.2811459,55.27697,-18.62492,-23.88602
84.162143707,9.72318700000001,-32.91061,20.0352,-0.9298448,-0.0738876,0.267793,54.90297,-19.00477,-25.16782
84.172056675,9.66124900000002,-35.70671,21.50791,-0.9302193,-0.04871659,0.2607618,54.90297,-19.00477,-25.16782
84.181968689,8.85605400000001,-39.43483,23.04198,-0.9344035,-0.02256597,0.264816,54.90297,-19.00477,-25.16782
84.191880703,6.502409,-43.04646,24.45333,-0.9142467,-0.01737989,0.2814696,54.90297,-19.00477,-25.16782
84.201793194,5.263648,-46.25031,25.55787,-0.9222814,-0.02368097,0.3011884,54.90297,-19.00477,-25.16782
84.211705208,5.015896,-49.45417,27.03057,-0.9497348,-0.03747137,0.3258386,54.16601,-20.13202,-25.99564
84.221617699,5.139772,-51.37648,28.07374,-0.9489896,-0.04367333,0.3435562,54.16601,-20.13202,-25.99564
84.231529713,5.325586,-53.06579,29.54645,-0.9378904,-0.03141384,0.3435352,54.16601,-20.13202,-25.99564
84.241441727,3.653259,-55.04636,32.00097,-0.9049363,-0.001882757,0.3491891,54.16601,-20.13202,-25.99564
84.251354218,1.485427,-57.72595,34.63958,-0.8960384,0.02680993,0.3444963,54.16601,-20.13202,-25.99564
84.261266232,-1.611476,-60.3472900000001,36.17365,-0.8842518,0.03234953,0.3559481,52.30631,-21.63944,-28.16561
84.271178722,-4.522564,-62.9686300000002,36.35773,-0.8504266,0.01379283,0.3425473,52.30631,-21.63944,-28.16561
84.281090736,-5.637449,-64.8327000000001,37.40091,-0.8429049,0.01251872,0.3592748,52.30631,-21.63944,-28.16561
84.29100275,-6.50458200000001,-67.45403,38.99634,-0.8396143,0.03346847,0.3709078,52.30631,-21.63944,-28.16561
84.300915241,-7.309776,-70.1336200000003,40.2236,-0.8406416,0.0578208,0.3946072,52.30631,-21.63944,-28.16561
84.310827255,-8.98210400000001,-72.9297200000001,40.83723,-0.8324084,0.08422516,0.4177546,50.43391,-22.40107,-31.17307
84.320739269,-12.14094,-74.6772799999999,41.32813,-0.8562351,0.09716479,0.4459103,50.43391,-22.40107,-31.17307
84.33065176,-16.04304,-76.1918299999999,40.7145,-0.8573353,0.08172747,0.4635835,50.43391,-22.40107,-31.17307
84.340563774,-17.65343,-78.2306400000002,40.28496,-0.8524321,0.05570267,0.482091,50.43391,-22.40107,-31.17307
84.350476742,-17.59149,-80.4442100000001,41.08268,-0.844795,0.05302513,0.5084112,50.43391,-22.40107,-31.17307
84.360388756,-17.71537,-83.2985600000001,42.43266,-0.8216788,0.06265155,0.5327497,48.19857,-23.91009,-33.72656
84.370300293,-18.02506,-83.5898200000002,42.67812,-0.7476724,0.05732481,0.5430733,48.19857,-23.91009,-33.72656
84.380213261,-17.65343,-83.0073000000001,43.16902,-0.7311112,0.05554879,0.5347457,48.19857,-23.91009,-33.72656
84.390125275,-17.09599,-84.05584,43.5372,-0.7659643,0.07211597,0.5409403,48.19857,-23.91009,-33.72656
84.402515888,-16.60048,-88.5412399999998,41.94176,-0.7777741,0.05315404,0.5591692,45.58091,-25.0482,-37.17869
84.412427902,-14.49459,-89.7645300000003,40.53041,-0.7669621,0.05429289,0.565799,45.58091,-25.0482,-37.17869
84.422340393,-12.07901,-91.6285899999999,40.59178,-0.7685276,0.07080859,0.5755266,45.58091,-25.0482,-37.17869
84.432252407,-11.33575,-93.3761499999998,41.69631,-0.7578627,0.09333438,0.5928638,45.58091,-25.0482,-37.17869
84.442164421,-12.32676,-93.4926599999999,41.8804,-0.7207095,0.1074542,0.6084595,45.58091,-25.0482,-37.17869
84.452076912,-14.61847,-93.25965,41.45086,-0.6973113,0.1096619,0.6039364,40.71444,-25.81007,-40.17058
84.461988926,-16.29079,-93.25965,40.89859,-0.7058571,0.09944075,0.6169116,40.71444,-25.81007,-40.17058
84.47190094,-17.90118,-94.8324500000002,40.7145,-0.7289797,0.08323008,0.6319023,40.71444,-25.81007,-40.17058
84.481813431,-19.01607,-97.8615599999999,42.49403,-0.7105976,0.08068104,0.6571637,40.71444,-25.81007,-40.17058
84.491725445,-20.00708,-100.4246,43.47583,-0.6553769,0.09013683,0.6648787,40.71444,-25.81007,-40.17058
84.501637936,-20.75033,-97.2790399999997,42.80084,-0.5747913,0.08768411,0.6525933,36.97263,-26.94984,-44.00233
84.51154995,-21.24584,-95.58973,41.8804,-0.5911494,0.09029311,0.6340358,36.97263,-26.94984,-44.00233
84.521461964,-21.92716,-96.5217599999999,40.59178,-0.6230071,0.09961207,0.6377536,36.97263,-26.94984,-44.00233
84.531374455,-23.10398,-100.4829,40.40769,-0.654861,0.1255185,0.6612684,36.97263,-26.94984,-44.00233
84.541286469,-26.01507,-104.7353,41.3895,-0.6541448,0.1539355,0.7166693,36.97263,-26.94984,-44.00233
84.551199436,-30.53655,-107.5314,43.84401,-0.5939007,0.1781563,0.7546862,32.48204,-27.70985,-46.54645
84.561110973,-35.61546,-107.3566,44.58036,-0.5444854,0.1890344,0.7701468,32.48204,-27.70985,-46.54645
84.571022987,-40.94214,-106.1333,42.86221,-0.5118076,0.1747675,0.7452615,32.48204,-27.70985,-46.54645
84.580935955,-42.98609,-102.8712,38.01453,-0.4985146,0.1344924,0.7069378,32.48204,-27.70985,-46.54645
84.590847969,-41.49958,-103.9198,34.51685,-0.5479344,0.1260511,0.6938941,32.48204,-27.70985,-46.54645
84.60076046,-39.82725,-109.4537,33.04414,-0.5806763,0.1378455,0.7096406,27.23001,-27.72439,-49.98841
84.610672474,-39.95113,-115.9197,31.51007,-0.5510533,0.1451907,0.7459075,27.23001,-27.72439,-49.98841
84.620584488,-40.50857,-117.2595,31.63279,-0.4564419,0.138454,0.8088487,27.23001,-27.72439,-49.98841
84.630496979,-43.23384,-113.7643,31.20325,-0.3777758,0.1250245,0.8349206,27.23001,-27.72439,-49.98841
84.640408993,-45.7733,-109.8615,30.34417,-0.3559024,0.08743197,0.8258251,27.23001,-27.72439,-49.98841
84.650321484,-45.83524,-109.978,30.9578,-0.3707165,0.05376243,0.8199759,22.78564,-27.36243,-52.98603
84.660233498,-44.53454,-113.0653,31.51007,-0.3780017,0.03564738,0.8035972,22.78564,-27.36243,-52.98603
84.670145512,-42.30478,-115.9779,30.40553,-0.3512197,0.03738989,0.7947183,22.78564,-27.36243,-52.98603
84.682536125,-40.32276,-120.6381,26.90785,-0.3108881,0.0641084,0.8012455,22.78564,-27.36243,-52.98603
84.692448139,-40.81826,-119.6478,24.02379,-0.2680622,0.08502957,0.8057903,22.78564,-27.36243,-52.98603
84.70236063,-42.61446,-119.8225,21.13973,-0.2845456,0.08977294,0.8251808,16.01071,-25.12586,-55.52771
84.712272644,-45.03005,-121.1041,19.66702,-0.2685792,0.08233033,0.8475509,16.01071,-25.12586,-55.52771
84.722184658,-47.25982,-118.774,18.86931,-0.2074374,0.06530651,0.877122,16.01071,-25.12586,-55.52771
84.732097149,-48.56052,-115.1041,19.5443,-0.1539597,0.03631197,0.860589,16.01071,-25.12586,-55.52771
84.742009163,-48.87021,-113.4731,21.01701,-0.1459206,0.01408319,0.8555651,16.01071,-25.12586,-55.52771
84.751921654,-47.75532,-114.6381,22.24427,-0.1530291,0.003864954,0.8656461,9.996981,-23.63502,-57.23579
84.761833668,-45.83524,-116.4439,21.75336,-0.1591761,0.002430998,0.8844196,9.996981,-23.63502,-57.23579
84.771745682,-44.03904,-116.6187,20.28065,-0.1579874,0.004991953,0.9079534,9.996981,-23.63502,-57.23579
84.781658649,-42.1809,-117.842,18.25568,-0.1460196,0.03135316,0.9137802,9.996981,-23.63502,-57.23579
84.791570187,-41.49958,-118.5993,16.66024,-0.1307683,0.07183115,0.9225516,9.996981,-23.63502,-57.23579
84.801483154,-43.4816,-119.0653,13.1012,-0.1178554,0.1025778,0.9303195,3.978374,-21.38949,-57.59704
84.811395168,-46.33075,-118.4245,9.91032400000003,-0.1184796,0.1176233,0.934747,3.978374,-21.38949,-57.59704
84.821306705,-49.30377,-118.3662,5.79900900000001,-0.1113199,0.1086042,0.9547873,3.978374,-21.38949,-57.59704
84.831219673,-54.19688,-119.24,3.28313,-0.09990875,0.1190749,0.9830809,3.978374,-21.38949,-57.59704
84.841131687,-59.5854900000002,-120.6963,1.81042,-0.07589488,0.10892,1.024085,3.978374,-21.38949,-57.59704
84.851044178,-64.23085,-120.9293,-0.3372818,-0.04709326,0.07633436,1.028883,-2.412857,-19.52225,-58.85462
84.860956192,-65.8412399999999,-120.8128,-2.975887,0.0005613556,0.03167969,0.998375,-2.412857,-19.52225,-58.85462
84.870868206,-64.5405300000002,-120.4051,-5.430403,0.01046085,-0.01350117,0.9571691,-2.412857,-19.52225,-58.85462
84.880780697,-60.0809900000001,-119.939,-8.80536299999997,0.03224928,-0.05552816,0.9346003,-2.412857,-19.52225,-58.85462
84.890692711,-54.38269,-121.3953,-11.93487,0.06028157,-0.07948536,0.9221774,-2.412857,-19.52225,-58.85462
84.900605202,-49.36571,-123.3177,-13.34622,0.1072299,-0.08572262,0.9154596,-7.627511,-16.52434,-58.45146
84.910517216,-46.20687,-122.6186,-15.61665,0.1466413,-0.09776244,0.9298999,-7.627511,-16.52434,-58.45146
84.92042923,-45.09199,-122.4439,-16.72118,0.1826191,-0.08278202,0.9272661,-7.627511,-16.52434,-58.45146
84.930341721,-45.2778,-121.5118,-16.8439,0.2121281,-0.09354497,0.9312429,-7.627511,-16.52434,-58.45146
84.940253735,-47.25982,-120.2303,-16.41436,0.2636132,-0.1972086,0.9190326,-7.627511,-16.52434,-58.45146
84.950165749,-44.65842,-118.7158,-18.19389,0.2468479,-0.1489577,0.9142273,-13.64637,-13.89899,-57.52897
84.962556362,-45.52555,-120.5216,-17.27345,0.4282073,-0.2815744,0.8967817,-13.64637,-13.89899,-57.52897
84.972468376,-41.12795,-117.842,-18.56207,0.3799927,-0.220138,0.8923551,-13.64637,-13.89899,-57.52897
84.982380867,-35.86322,-114.9876,-14.94165,0.3997287,-0.2366344,0.8426064,-13.64637,-13.89899,-57.52897
84.992292881,-36.85423,-114.3469,-11.13715,0.3657414,-0.1637672,0.9514418,-13.64637,-13.89899,-57.52897
85.002205849,-35.6774,-114.8711,-8.31446000000002,0.3968179,-0.1873908,0.902501,-18.9075,-11.64321,-55.38858
85.012117386,-34.99608,-113.5313,-8.31446000000002,0.3736673,-0.1863033,0.8873573,-18.9075,-11.64321,-55.38858
85.0220294,-33.26182,-113.6478,-11.68942,0.3588887,-0.19191,0.8701709,-18.9075,-11.64321,-55.38858
85.031942368,-31.40368,-114.8129,-14.94165,0.3670555,-0.1694426,0.882249,-18.9075,-11.64321,-55.38858
85.041854382,-29.4836,-115.9197,-16.16891,0.3923468,-0.1491942,0.8927135,-18.9075,-11.64321,-55.38858
85.051766872,-29.60748,-114.8711,-16.41436,0.4145242,-0.1212715,0.8946151,-24.52972,-10.51282,-53.62824
85.061678886,-30.72236,-112.9488,-17.70299,0.4262824,-0.1323321,0.8838691,-24.52972,-10.51282,-53.62824
85.0715909,-31.83724,-111.842,-19.85069,0.4397409,-0.1559357,0.8811867,-24.52972,-10.51282,-53.62824
85.081503391,-32.20887,-111.143,-22.3052,0.4532296,-0.1746455,0.8871793,-24.52972,-10.51282,-53.62824
85.091415405,-29.4836,-109.2789,-23.4711,0.5010218,-0.2328871,0.8541787,-24.52972,-10.51282,-53.62824
85.101327896,-32.45662,-112.2498,-23.28701,0.4958207,-0.1713987,0.9434657,-29.01972,-9.751698,-50.58769
85.11123991,-32.085,-111.376,-21.69157,0.5422469,-0.1942447,0.9140747,-29.01972,-9.751698,-50.58769
85.121151924,-31.58949,-110.5022,-21.93703,0.5480079,-0.2088609,0.886555,-29.01972,-9.751698,-50.58769
85.131064415,-29.05003,-110.5605,-23.22565,0.5630742,-0.2326211,0.8497654,-29.01972,-9.751698,-50.58769
85.140976429,-26.20088,-111.2013,-25.86425,0.5746427,-0.2364633,0.8289859,-29.01972,-9.751698,-50.58769
85.150888443,-22.60847,-112.1915,-27.09151,0.6045805,-0.2177436,0.8139489,-33.14031,-8.615955,-47.55025
85.160800934,-20.06902,-112.7741,-29.23921,0.6371056,-0.2047729,0.806052,-33.14031,-8.615955,-47.55025
85.170712948,-19.69739,-112.7158,-29.85284,0.6616178,-0.1759012,0.7983351,-33.14031,-8.615955,-47.55025
85.180625916,-19.94514,-109.5702,-31.63236,0.6833091,-0.1870075,0.7548463,-33.14031,-8.615955,-47.55025
85.190537453,-25.33375,-110.1527,-34.02552,0.6894834,-0.1470226,0.783865,-33.14031,-8.615955,-47.55025
85.200449467,-30.72236,-111.4343,-34.08688,0.7442425,-0.1551197,0.7737015,-37.25306,-7.851408,-43.67647
85.210362434,-33.44763,-108.8712,-32.43008,0.7793142,-0.1445044,0.7729677,-37.25306,-7.851408,-43.67647
85.220274448,-35.36771,-104.7353,-31.63236,0.8082765,-0.1504255,0.7769818,-37.25306,-7.851408,-43.67647
85.230186939,-37.90717,-99.3761099999999,-32.12327,0.8312162,-0.1594276,0.7623049,-37.25306,-7.851408,-43.67647
85.240098953,-39.33175,-95.2402199999998,-33.16644,0.8231225,-0.1950277,0.741976,-37.25306,-7.851408,-43.67647
85.252489567,-36.85423,-94.9489600000003,-35.43687,0.8209763,-0.2219806,0.6918798,-41.64538,-9.330798,-38.89472
85.262401581,-31.71337,-94.9489600000003,-37.58457,0.8374035,-0.2174849,0.6778333,-41.64538,-9.330798,-38.89472
85.272313595,-25.02406,-93.6091599999997,-38.6891,0.8572217,-0.2173531,0.6555636,-41.64538,-9.330798,-38.89472
85.282226086,-17.96312,-90.8713199999998,-39.24137,0.8645872,-0.2062739,0.6238788,-41.64538,-9.330798,-38.89472
85.2921381,-15.54754,-88.3664899999998,-38.25956,0.8795336,-0.1725355,0.6426916,-46.13054,-8.944276,-35.85302
85.302050591,-14.55653,-85.5121399999998,-36.78685,0.886802,-0.1666244,0.6431438,-46.13054,-8.944276,-35.85302
85.311962605,-16.41467,-81.4927500000001,-36.17322,0.8885143,-0.1569705,0.6307082,-46.13054,-8.944276,-35.85302
85.321874619,-17.15793,-78.0558900000002,-36.60276,0.8837664,-0.1696409,0.6297075,-46.13054,-8.944276,-35.85302
85.331787109,-17.46762,-75.5510600000002,-36.48003,0.8778608,-0.1697342,0.6259202,-46.13054,-8.944276,-35.85302
85.341699123,-17.46762,-72.28894,-36.66412,0.8739446,-0.1722246,0.6225787,-47.22983,-9.67787,-31.9902
85.351611614,-18.39669,-68.5608099999998,-36.60276,0.8778973,-0.1682518,0.6312115,-47.22983,-9.67787,-31.9902
85.361523628,-19.26382,-65.0656999999997,-36.0505,0.8872064,-0.1900769,0.6074522,-47.22983,-9.67787,-31.9902
85.371435642,-21.36971,-61.57058,-34.94596,0.9120023,-0.1956917,0.5870188,-47.22983,-9.67787,-31.9902
85.381348133,-22.67041,-59.6482599999998,-33.47325,0.9209555,-0.2179415,0.5757442,-47.22983,-9.67787,-31.9902
85.391260147,-23.7853,-58.71623,-31.75509,0.9265383,-0.2155772,0.55074,-48.32725,-10.78946,-28.9614
85.401173115,-24.09499,-58.71623,-29.11649,0.9318758,-0.2150434,0.5473332,-48.32725,-10.78946,-28.9614
85.411084652,-23.16592,-57.9007,-27.09151,0.902467,-0.2188625,0.5360558,-48.32725,-10.78946,-28.9614
85.420996666,-22.29879,-56.96867,-25.55744,0.8821573,-0.2075427,0.5238349,-48.32725,-10.78946,-28.9614
85.430909634,-21.74134,-55.62888,-24.57563,0.8604265,-0.2049979,0.5058069,-48.32725,-10.78946,-28.9614
85.440821648,-20.56452,-55.51237,-23.65519,0.8627769,-0.2098944,0.4908677,-50.18127,-11.53017,-26.82929
85.450734139,-17.03405,-52.54152,-22.91883,0.9065831,-0.2304233,0.4471115,-50.18127,-11.53017,-26.82929
85.460646153,-16.66242,-50.3862,-21.44612,0.8970144,-0.1872698,0.4705351,-50.18127,-11.53017,-26.82929
85.470558167,-15.67141,-51.90075,-19.78932,0.9002467,-0.1746431,0.4667481,-50.18127,-11.53017,-26.82929
85.480470657,-16.84824,-50.3862,-17.70299,0.9198788,-0.1585106,0.4450668,-50.18127,-11.53017,-26.82929
85.490382671,-18.14894,-48.34738,-16.41436,0.9174095,-0.1556271,0.4460692,-51.28493,-12.26873,-24.18711
85.500295162,-18.76832,-46.59982,-16.04619,0.9133468,-0.1611205,0.4249432,-51.28493,-12.26873,-24.18711
85.510207176,-19.20188,-45.84255,-15.67801,0.9190664,-0.1611241,0.4104856,-51.28493,-12.26873,-24.18711
85.52011919,-19.63545,-45.95905,-14.94165,0.9193126,-0.1436833,0.4072383,-51.28493,-12.26873,-24.18711
85.532509804,-19.94514,-43.16296,-14.88029,0.9260342,-0.1329303,0.407728,-51.28493,-12.26873,-24.18711
85.542421818,-21.74134,-43.74548,-15.61665,0.9309639,-0.1445556,0.3980018,-52.02101,-12.63476,-22.06199
85.552334309,-22.11297,-44.38625,-14.88029,0.9397923,-0.1468702,0.3979047,-52.02101,-12.63476,-22.06199
85.562246323,-23.28979,-43.68723,-14.51211,0.960825,-0.1529445,0.3914276,-52.02101,-12.63476,-22.06199
85.572158813,-23.72336,-42.23093,-13.65303,0.9721095,-0.1615642,0.3850238,-52.02101,-12.63476,-22.06199
85.582070827,-23.97111,-40.65812,-13.10077,0.9721505,-0.1678844,0.3816202,-52.02101,-12.63476,-22.06199
85.591982841,-22.4846,-39.90085,-12.67123,0.9780031,-0.1629407,0.3859205,-52.75362,-13.37695,-20.32119
85.601895332,-19.32576,-38.73581,-12.60986,0.9760574,-0.1683257,0.3806208,-52.75362,-13.37695,-20.32119
85.611807346,-15.79529,-36.93,-13.10077,0.9596806,-0.1608484,0.3659372,-52.75362,-13.37695,-20.32119
85.621720314,-13.50358,-35.76496,-13.53031,0.9506258,-0.1474319,0.3569873,-52.75362,-13.37695,-20.32119
85.631632328,-13.00808,-33.9009,-14.2053,0.9713211,-0.1297794,0.3453898,-52.75362,-13.37695,-20.32119
85.641543865,-12.57451,-30.52228,-12.48714,0.9607748,-0.1081014,0.343711,-53.48139,-14.49374,-18.57923
85.651456833,-12.07901,-28.36696,-12.24169,0.9597326,-0.1130252,0.3316839,-53.48139,-14.49374,-18.57923
85.661368847,-13.19389,-27.37668,-11.75078,0.960883,-0.09024465,0.3275036,-53.48139,-14.49374,-18.57923
85.671281338,-14.24684,-25.80387,-11.25988,0.9679049,-0.1149452,0.3157503,-53.48139,-14.49374,-18.57923
85.681193352,-14.43265,-24.46408,-10.70761,0.9804779,-0.1119321,0.3055708,-53.48139,-14.49374,-18.57923
85.691105366,-13.07002,-22.65827,-10.33944,0.9851608,-0.1380715,0.3024724,-53.49134,-13.36473,-17.2978
85.701017857,-12.01707,-19.57092,-9.11217699999998,0.9745069,-0.1686359,0.3244546,-53.49134,-13.36473,-17.2978
85.710929871,-11.02606,-18.40588,-8.86672600000002,0.9928099,-0.1553769,0.3128498,-53.49134,-13.36473,-17.2978
85.720842361,-9.47760899999999,-17.29909,-8.68263700000001,0.9883193,-0.1540154,0.3056981,-53.49134,-13.36473,-17.2978
85.730754375,-7.99109600000001,-16.54181,-9.11217699999998,0.9704165,-0.1275628,0.3074804,-53.49134,-13.36473,-17.2978
85.740666389,-7.12396199999998,-16.30881,-9.54171799999998,0.9634112,-0.1145609,0.3071516,-53.47705,-14.10869,-16.0106
85.75057888,-7.12396199999998,-15.31852,-9.29626599999999,0.9688768,-0.09372096,0.292355,-53.47705,-14.10869,-16.0106
85.760490894,-7.37171500000001,-14.44474,-8.62127400000002,0.9756917,-0.1043829,0.2768559,-53.47705,-14.10869,-16.0106
85.770403385,-8.053034,-13.2797,-7.20992699999999,0.9820117,-0.1145662,0.2613645,-53.47705,-14.10869,-16.0106
85.780315399,-9.35373199999999,-11.47389,-4.755411,0.9871271,-0.123168,0.2732639,-53.47705,-14.10869,-16.0106
85.790227413,-10.96412,-9.43507399999997,-2.239532,0.994773,-0.1414506,0.2821944,-53.8303,-15.60527,-15.55432
85.800140381,-11.76932,-7.68751500000001,-0.4600076,0.9952516,-0.1699821,0.2954443,-53.8303,-15.60527,-15.55432
85.812530041,-12.45063,-5.357436,0.951339199999998,0.9967136,-0.1621613,0.3041257,-53.8303,-15.60527,-15.55432
85.822443008,-11.70738,-3.143862,2.914952,0.9783649,-0.1430096,0.301542,-53.8303,-15.60527,-15.55432
85.832354546,-10.77831,-1.338051,4.694477,0.9741485,-0.1629687,0.2961663,-53.8303,-15.60527,-15.55432
85.842267513,-7.557528,0.001744238,6.71945300000003,0.9861043,-0.1802679,0.297381,-54.22396,-14.10692,-15.55699
85.852179527,-3.345741,1.516295,8.86715399999999,0.9881453,-0.1894674,0.2949,-54.22396,-14.10692,-15.55699
85.862091064,2.042869,3.555114,10.52395,0.9940309,-0.1971895,0.2875918,-54.22396,-14.10692,-15.55699
85.872004032,7.80310800000002,5.76868899999999,11.81257,0.9967272,-0.2009304,0.3077086,-54.22396,-14.10692,-15.55699
85.881916046,13.50141,7.51624699999999,13.03983,0.9980369,-0.2109894,0.3282762,-54.22396,-14.10692,-15.55699
85.891828537,18.58033,9.32205800000003,13.83755,0.9862146,-0.1970354,0.3361611,-54.22396,-14.10692,-15.55699
85.901740551,23.4115,11.82689,14.20573,0.9872689,-0.1960078,0.344801,-54.22396,-14.10692,-15.55699
85.911652565,27.68522,14.68124,14.69663,0.9955645,-0.1876197,0.3529429,-54.22396,-14.10692,-15.55699
85.921565056,31.02988,17.47733,15.2489,1.011698,-0.1908333,0.348931,-54.22396,-14.10692,-15.55699
85.93147707,33.81709,20.44818,16.16934,1.026991,-0.1935003,0.3588551,-54.22396,-14.10692,-15.55699
85.941389561,36.48043,23.47729,17.45796,1.026282,-0.2011774,0.3760962,-54.97247,-14.10698,-15.5531
85.951301575,39.51539,27.14716,18.99203,1.033421,-0.2175244,0.3855245,-54.97247,-14.10698,-15.5531
85.961213589,42.36454,31.51606,19.85111,1.027243,-0.2184863,0.4019006,-54.97247,-14.10698,-15.5531
85.97112608,45.39951,36.70048,20.77156,1.036803,-0.2274979,0.4175973,-54.97247,-14.10698,-15.5531
85.981038094,49.17773,42.35092,21.87609,1.042307,-0.2346826,0.4213398,-54.97247,-14.10698,-15.5531
85.990951061,53.38951,48.99165,23.53289,1.039463,-0.2327213,0.4324228,-53.84807,-14.48514,-16.45721
86.000862598,56.36254,52.95278,25.12832,1.038905,-0.2244706,0.4353639,-53.84807,-14.48514,-16.45721
86.010774612,58.9639400000003,57.8459400000001,27.52148,1.044725,-0.2097877,0.447892,-53.84807,-14.48514,-16.45721
86.02068758,60.7601400000001,63.4963800000002,28.87146,1.033521,-0.2045411,0.4581139,-53.84807,-14.48514,-16.45721
86.030599594,61.6272799999999,70.6031200000001,29.66918,1.033812,-0.1821989,0.4649823,-53.84807,-14.48514,-16.45721
86.040512085,60.01689,76.6030699999999,30.65099,1.027575,-0.1802648,0.4789774,-53.48971,-13.74298,-18.19607
86.050424099,56.91998,81.2632299999999,32.00097,1.031297,-0.1834808,0.50437,-53.48971,-13.74298,-18.19607
86.060336113,49.79711,86.3311499999999,33.84186,1.04151,-0.1648445,0.5207251,-53.48971,-13.74298,-18.19607
86.070248604,45.39951,91.5155700000002,35.9282,1.062585,-0.1699212,0.519536,-53.48971,-13.74298,-18.19607
86.080160618,40.19671,97.0495099999999,36.97137,1.039567,-0.1609599,0.5265308,-53.48971,-13.74298,-18.19607
86.092551231,35.92299,102.4087,35.56002,0.9978964,-0.1744594,0.5479532,-53.5183,-12.25506,-20.77047
86.102463245,33.81709,107.3601,35.06911,0.9967311,-0.1757842,0.5758044,-53.5183,-12.25506,-20.77047
86.112375736,29.29561,113.3601,36.66455,1.003082,-0.1464393,0.6095522,-53.5183,-12.25506,-20.77047
86.12228775,24.21669,118.661,38.5668,0.9960395,-0.1527206,0.6307024,-53.5183,-12.25506,-20.77047
86.132199764,19.0139,122.4474,40.10087,0.9850498,-0.1551671,0.6528751,-51.65755,-12.64702,-25.08344
86.142112255,15.29761,126.1755,40.95995,0.9643108,-0.1596716,0.6756043,-51.65755,-12.64702,-25.08344
86.152024269,15.17374,130.7774,40.46905,0.9460149,-0.1768293,0.6833417,-51.65755,-12.64702,-25.08344
86.16193676,17.83707,135.7871,40.40769,0.942892,-0.1742772,0.7155582,-51.65755,-12.64702,-25.08344
86.171848774,18.7042,142.0783,40.83723,0.9486452,-0.1866978,0.7375095,-51.65755,-12.64702,-25.08344
86.181760788,18.58033,146.5054,42.06449,0.9292021,-0.2049315,0.7274846,-49.45299,-11.17303,-31.13873
86.191673279,19.75715,148.1365,45.86899,0.9106422,-0.2251535,0.7059143,-49.45299,-11.17303,-31.13873
86.201585293,22.04886,147.7287,46.29853,0.8784057,-0.2357833,0.6970187,-49.45299,-11.17303,-31.13873
86.211498261,25.88902,148.719,45.56217,0.8657932,-0.2358902,0.7067378,-49.45299,-11.17303,-31.13873
86.221410275,28.67623,149.884,44.519,0.8608809,-0.2203535,0.7227319,-49.45299,-11.17303,-31.13873
86.231321812,30.906,151.7481,43.04629,0.8481873,-0.2029417,0.7450526,-46.49484,-10.07332,-37.13251
86.241234779,31.09181,152.2724,42.55539,0.8343681,-0.1797652,0.7597395,-46.49484,-10.07332,-37.13251
86.251146793,29.97693,154.1364,41.69631,0.8123611,-0.1649207,0.7768475,-46.49484,-10.07332,-37.13251
86.261059284,28.05685,155.8257,39.85542,0.7844962,-0.1574617,0.7862779,-46.49484,-10.07332,-37.13251
86.270971298,25.51739,156.5248,38.75089,0.7621402,-0.1493798,0.8091059,-46.49484,-10.07332,-37.13251
86.280883789,23.10181,157.5151,37.33954,0.7294575,-0.1458472,0.8209555,-42.03989,-8.97375,-43.19832
86.290795803,21.18173,159.2626,36.54182,0.7164438,-0.1483536,0.8364242,-42.03989,-8.97375,-43.19832
86.300707817,19.88103,161.4762,35.80547,0.6780275,-0.1638492,0.8390771,-42.03989,-8.97375,-43.19832
86.310620308,20.25266,162.1752,33.90322,0.6214697,-0.1825241,0.8332337,-42.03989,-8.97375,-43.19832
86.320532322,23.22568,161.6509,31.81688,0.5876046,-0.2110569,0.8352774,-42.03989,-8.97375,-43.19832
86.330444813,27.62328,160.9519,30.16008,0.5736025,-0.2184591,0.8440004,-36.13274,-8.994452,-48.43295
86.340356827,33.44546,161.7092,27.21466,0.5525539,-0.225076,0.8340677,-36.13274,-8.994452,-48.43295
86.350268841,38.83407,161.2432,26.11013,0.5088291,-0.2120703,0.829277,-36.13274,-8.994452,-48.43295
86.360181332,42.98392,160.5442,22.12154,0.4750221,-0.2008212,0.8359066,-36.13274,-8.994452,-48.43295
86.372571468,45.7092,158.8548,18.3784,0.4421448,-0.1739752,0.856076,-36.13274,-8.994452,-48.43295
86.382483959,43.85106,157.9228,15.49435,0.4271311,-0.1736022,0.8706221,-30.16485,-8.636891,-52.76963
86.392395973,35.86105,157.3985,14.51254,0.4475972,-0.1987475,0.8342534,-30.16485,-8.636891,-52.76963
86.402308941,40.93997,164.0393,14.69663,0.400103,-0.1827898,0.8468029,-30.16485,-8.636891,-52.76963
86.412220478,40.69221,161.884,14.69663,0.3380881,-0.1927925,0.8434686,-30.16485,-8.636891,-52.76963
86.422132492,42.55036,159.9616,16.53752,0.2966006,-0.2079085,0.8331881,-30.16485,-8.636891,-52.76963
86.43204546,46.57633,157.2238,17.02842,0.2732154,-0.2045041,0.7978953,-23.80494,-9.399428,-56.20538
86.441957474,52.27463,155.884,14.14436,0.2094574,-0.1839372,0.8034235,-23.80494,-9.399428,-56.20538
86.451869965,56.36254,152.5636,13.71482,0.1784077,-0.1488407,0.8207501,-23.80494,-9.399428,-56.20538
86.461781979,57.84906,150.9908,13.03983,0.1605212,-0.09652589,0.8543949,-23.80494,-9.399428,-56.20538
86.471693993,58.1587400000002,151.9229,11.4444,0.129322,-0.06004383,0.8587677,-23.80494,-9.399428,-56.20538
86.481606484,56.73417,151.1656,10.2785,0.07924182,-0.03101953,0.8728687,-15.92423,-11.65526,-58.42364
86.491518498,54.81409,149.4763,8.86715399999999,0.04425374,-0.01305913,0.8675501,-15.92423,-11.65526,-58.42364
86.501430988,54.62828,149.4763,6.22854899999998,0.02425041,-0.0191409,0.8648136,-15.92423,-11.65526,-58.42364
86.511343002,56.91998,149.5345,2.178597,-0.02514797,-0.02318091,0.8590015,-15.92423,-11.65526,-58.42364
86.521255016,60.01689,146.8549,-1.012274,-0.04373906,-0.02098006,0.8606285,-15.92423,-11.65526,-58.42364
86.531167507,63.3615400000001,146.5054,-3.712242,-0.0399818,-0.003938248,0.8655089,-8.041941,-13.52918,-58.84421
86.541079521,66.6442600000002,149.0103,-6.65766099999999,-0.05952572,0.006068291,0.8787206,-8.041941,-13.52918,-58.84421
86.550992012,69.6172800000001,149.418,-10.52352,-0.1060185,-0.009656933,0.8564783,-8.041941,-13.52918,-58.84421
86.560904026,73.8910100000003,148.1365,-13.83712,-0.1286419,-0.02415323,0.8268211,-8.041941,-13.52918,-58.84421
86.570816994,78.5983000000001,145.7482,-16.47573,-0.1573517,-0.01493443,0.8036203,-8.041941,-13.52918,-58.84421
86.580729008,82.68621,143.5346,-19.11433,-0.1765478,0.02061012,0.7853085,-0.946527,-17.27639,-59.31904
86.590640545,84.1727199999999,142.6608,-22.85747,-0.2074856,0.06624818,0.7782161,-0.946527,-17.27639,-59.31904
86.600553512,83.4913999999998,143.3016,-25.74153,-0.2282772,0.09512655,0.7872437,-0.946527,-17.27639,-59.31904
86.610465526,80.08481,141.6705,-28.99376,-0.2641138,0.09606884,0.7746171,-0.946527,-17.27639,-59.31904
86.620378017,79.0937999999999,139.8065,-28.38013,-0.2945843,0.2585179,0.7591755,-0.946527,-17.27639,-59.31904
86.630290031,72.2806199999998,139.5735,-32.36872,-0.2667242,0.1091228,0.7737679,6.959272,-20.2639,-57.23061
86.640202045,68.6882099999998,139.0492,-33.65734,-0.3162989,0.1103569,0.7569489,6.959272,-20.2639,-57.23061
86.650114536,66.6442600000002,137.4181,-35.80504,-0.3472348,0.1128296,0.7471681,6.959272,-20.2639,-57.23061
86.662504673,63.1757300000002,133.923,-36.97094,-0.3645378,0.1188582,0.7358446,6.959272,-20.2639,-57.23061
86.672417164,60.4504500000002,132.3502,-37.46184,-0.3755702,0.1283364,0.7201644,6.959272,-20.2639,-57.23061
86.682329178,57.9109899999999,129.1463,-38.07547,-0.394391,0.1328567,0.7021227,13.75682,-23.9952,-53.78489
86.692241669,55.12378,126.5833,-38.99591,-0.4262748,0.132406,0.691851,13.75682,-23.9952,-53.78489
86.702153683,52.64626,123.6124,-39.97772,-0.4399439,0.1351727,0.6972776,13.75682,-23.9952,-53.78489
86.712065697,51.46944,122.7386,-41.32771,-0.4665874,0.1508149,0.6923465,13.75682,-23.9952,-53.78489
86.721978187,50.1068,120.0008,-42.0027,-0.5272721,0.167101,0.7064607,13.75682,-23.9952,-53.78489
86.731890202,47.5054,117.2047,-43.41404,-0.5333148,0.151575,0.7188972,20.53821,-26.60454,-50.79235
86.741802692,45.46144,116.3309,-43.29132,-0.5407403,0.1485089,0.7064614,20.53821,-26.60454,-50.79235
86.751714706,46.14276,113.4766,-44.33449,-0.5768026,0.1261674,0.6922413,20.53821,-26.60454,-50.79235
86.76162672,48.37253,111.263,-46.2981,-0.6108916,0.1309282,0.6637787,20.53821,-26.60454,-50.79235
86.771539688,50.66424,110.7387,-48.01626,-0.6723993,0.1343514,0.6302791,20.53821,-26.60454,-50.79235
86.781451225,52.89401,109.4572,-51.69804,-0.7157662,0.1124214,0.6194905,26.92109,-27.34093,-47.80363
86.791364193,55.86704,106.7193,-56.11617,-0.7331812,0.08400586,0.6045773,26.92109,-27.34093,-47.80363
86.801276207,61.1937100000001,103.5737,-57.46615,-0.6737005,0.07880945,0.5814252,26.92109,-27.34093,-47.80363
86.811188698,62.8660400000002,102.0009,-59.7979400000001,-0.7363579,0.08579394,0.5830115,26.92109,-27.34093,-47.80363
86.821100712,63.5473500000001,100.0204,-60.4729299999997,-0.722156,0.1252469,0.5836232,26.92109,-27.34093,-47.80363
86.831012726,59.5213799999999,98.9135700000001,-60.9024699999999,-0.7125194,0.1218805,0.5657458,32.13313,-28.82138,-43.52155
86.840925217,53.45145,96.9912600000003,-59.7365799999998,-0.7271915,0.1197439,0.5629863,32.13313,-28.82138,-43.52155
86.850837231,45.33757,94.6611800000002,-57.3434200000002,-0.7214761,0.135348,0.5663984,32.13313,-28.82138,-43.52155
86.860749721,35.24166,95.1272,-54.88891,-0.7162251,0.1455929,0.565938,32.13313,-28.82138,-43.52155
86.870661736,24.77413,93.8456500000002,-50.83895,-0.7524246,0.1392776,0.5571077,32.13313,-28.82138,-43.52155
86.880574226,14.67823,92.5058599999999,-47.09582,-0.7480741,0.1315016,0.5430911,38.13964,-28.79998,-38.41312
86.89048624,6.31659499999999,91.3408200000002,-43.53677,-0.7531132,0.1172163,0.5118322,38.13964,-28.79998,-38.41312
86.900398254,-3.903184,88.3699699999998,-40.46862,-0.7693502,0.2108596,0.5639832,38.13964,-28.79998,-38.41312
86.910310745,-8.11497100000001,87.7874500000002,-38.75046,-0.7635045,0.06775526,0.4419759,38.13964,-28.79998,-38.41312
86.920222759,-5.637449,86.91367,-38.93455,-0.8070663,0.05596775,0.4240542,38.13964,-28.79998,-38.41312
86.932613373,-1.177909,80.3312000000001,-36.90958,-0.8331499,0.07555553,0.430668,42.26728,-28.78736,-35.41503
86.942525387,0.494418,76.4865599999998,-35.86641,-0.8631015,0.1038975,0.4517806,42.26728,-28.78736,-35.41503
86.952437401,0.1227897,72.7584500000001,-34.8846,-0.8429874,0.1217442,0.4790825,42.26728,-28.78736,-35.41503
86.962349892,-1.673414,70.6613700000003,-33.78007,-0.8171609,0.1273886,0.4769606,42.26728,-28.78736,-35.41503
86.972261906,-4.956131,68.8555600000002,-32.43008,-0.8224471,0.1122473,0.4682658,45.61892,-26.52541,-31.97026
86.982174873,-7.062024,67.80703,-32.98235,-0.8201692,0.06463452,0.4439196,45.61892,-26.52541,-31.97026
86.992086887,-6.44264400000003,65.3604399999999,-32.30736,-0.85332,0.03548887,0.4195439,45.61892,-26.52541,-31.97026
87.001999378,-4.64644,62.7973600000002,-31.0801,-0.8934798,0.02666026,0.403051,45.61892,-26.52541,-31.97026
87.011911392,-3.221865,58.89448,-30.71192,-0.9071217,0.02261188,0.4031502,45.61892,-26.52541,-31.97026
87.021823406,-2.850237,56.62265,-30.83465,-0.9040825,0.01831321,0.4083752,48.60601,-25.39275,-29.86922
87.031735897,-1.549538,54.35083,-31.14146,-0.9096709,-0.01576141,0.3957157,48.60601,-25.39275,-29.86922
87.041647911,0.3705419,52.13725,-29.9142,-0.9227145,-0.02608818,0.3991287,48.60601,-25.39275,-29.86922
87.051560402,1.980931,50.27319,-29.66875,-0.9023803,-0.02203377,0.3840828,48.60601,-25.39275,-29.86922
87.061472416,2.600312,48.64214,-28.56422,-0.9133837,-0.009613712,0.3746641,48.60601,-25.39275,-29.86922
87.071384907,1.485427,46.77807,-26.78469,-0.9163125,0.01400631,0.3551621,50.45926,-23.51257,-28.15011
87.081296921,-0.9301572,43.2247,-26.04834,-0.9220683,0.02788895,0.3346609,50.45926,-23.51257,-28.15011
87.091208935,-3.036051,42.40918,-25.80289,-0.904487,0.016391,0.3190567,50.45926,-23.51257,-28.15011
87.101121426,-4.33675,41.53539,-25.06653,-0.9367765,-0.0001200609,0.2981184,50.45926,-23.51257,-28.15011
87.11103344,-4.770316,39.03056,-22.79611,-0.9396392,-0.01182719,0.2913446,50.45926,-23.51257,-28.15011
87.120946407,-4.708378,36.35097,-20.70977,-0.9200646,-0.009134849,0.2959831,51.94933,-22.38003,-26.04129
87.130858421,-5.327759,33.20536,-18.86888,-0.925366,-0.005259607,0.3080619,51.94933,-22.38003,-26.04129
87.140769959,-6.814272,31.2248,-18.80752,-0.8944456,-0.01261843,0.3106079,51.94933,-22.38003,-26.04129
87.150682926,-6.87620999999998,30.64228,-18.43934,-0.9061221,-0.05346228,0.3162057,51.94933,-22.38003,-26.04129
87.16059494,-5.389697,28.54521,-15.73937,-0.9340746,-0.05434161,0.3073353,51.94933,-22.38003,-26.04129
87.170507431,-3.903184,26.15688,-13.16213,-0.9379775,-0.05877626,0.3030204,53.44287,-21.62366,-24.31677
87.180419445,-2.664423,23.01127,-10.95306,-0.9265239,-0.04804406,0.2881011,53.44287,-21.62366,-24.31677
87.190331936,-1.859228,21.32196,-10.46216,-0.9282055,-0.04573513,0.269886,53.44287,-21.62366,-24.31677
87.20024395,-1.177909,19.51615,-9.90989499999997,-0.9469435,-0.03287903,0.2696648,53.44287,-21.62366,-24.31677
87.210155964,-0.1249625,16.6618,-9.72580600000002,-0.948952,-0.02805285,0.2701957,53.44287,-21.62366,-24.31677
87.222546578,0.618294100000002,13.6327,-9.41899200000002,-0.9454008,-0.03965046,0.2691253,54.1849,-20.87075,-23.42355
87.232458592,0.43248,11.30262,-9.29626599999999,-0.9331734,-0.03998344,0.26901,54.1849,-20.87075,-23.42355
87.242371082,0.742170199999999,8.79779099999998,-9.05081500000002,-0.9455178,-0.0426382,0.2542215,54.1849,-20.87075,-23.42355
87.252283096,1.05186,5.535681,-7.70083,-0.9729596,-0.03130502,0.2617532,54.1849,-20.87075,-23.42355
87.262195587,0.5563561,3.496862,-6.10539499999999,-0.9851395,-0.02753263,0.2705338,54.1849,-20.87075,-23.42355
87.272107601,-0.992095199999997,2.215319,-4.448596,-0.9839543,-0.03911984,0.2771679,55.29612,-19.74348,-22.59767
87.282019615,-2.292794,0.933775699999999,-2.730435,-0.976331,-0.05302405,0.2890087,55.29612,-19.74348,-22.59767
87.291932106,-3.221865,0.1182482,-1.932717,-0.9612599,-0.08141153,0.2949223,55.29612,-19.74348,-22.59767
87.30184412,-2.974113,-1.163295,-1.073637,-0.9485485,-0.09247268,0.2817667,55.29612,-19.74348,-22.59767
87.311757088,-1.983104,-2.852602,0.3377102,-0.9403856,-0.08122684,0.2803257,55.29612,-19.74348,-22.59767
87.321668625,-1.115971,-4.425405,1.933146,-0.9518223,-0.06975951,0.2752261,55.30096,-20.11807,-22.59652
87.331580639,-1.425662,-5.76519999999999,3.589944,-0.953984,-0.05086669,0.2772926,55.30096,-20.11807,-22.59652
87.341493607,-1.673414,-7.97877500000003,5.308106,-0.9681152,-0.05199455,0.2807769,55.30096,-20.11807,-22.59652
87.351405621,-2.168918,-9.66808199999998,7.27171900000003,-0.9699771,-0.04953118,0.2928145,55.30096,-20.11807,-22.59652
87.361318112,-2.788299,-10.94963,8.68306499999997,-0.9618958,-0.06539651,0.2993563,55.30096,-20.11807,-22.59652
87.371230126,-2.974113,-11.7069,9.84896099999999,-0.9474992,-0.08071594,0.3024822,55.29935,-20.1199,-23.04623
87.381142616,-1.921166,-13.45446,11.07622,-0.9391836,-0.08061016,0.3028861,55.29935,-20.1199,-23.04623
87.39105463,-0.4346527,-15.43503,11.99666,-0.9199238,-0.06393526,0.293216,55.29935,-20.1199,-23.04623
87.400966644,1.547365,-17.18258,12.67165,-0.9261957,-0.04324357,0.2780467,55.29935,-20.1199,-23.04623
87.410879135,3.095816,-19.04665,13.16256,-0.9475197,-0.02268662,0.2730991,55.29935,-20.1199,-23.04623
87.420791149,3.529382,-21.49323,13.28528,-0.9462059,-0.01152836,0.2712407,54.9251,-20.11993,-23.04428
87.43070364,3.901011,-24.11457,12.91711,-0.935766,-0.02057878,0.2773259,54.9251,-20.11993,-23.04428
87.440615654,5.387524,-27.20192,12.73302,-0.9193397,-0.03632304,0.2871524,54.9251,-20.11993,-23.04428
87.450528622,7.80310800000002,-29.99801,13.1012,-0.9184185,-0.02951105,0.2895901,54.9251,-20.11993,-23.04428
87.460440159,9.59931099999998,-32.5611,13.71482,-0.9293962,-0.004394656,0.2975415,54.9251,-20.11993,-23.04428
87.470352173,9.84706299999998,-34.54167,14.69663,-0.9558862,0.01571771,0.3128054,54.18007,-20.87624,-24.77269
87.480265141,7.865046,-36.75524,15.61707,-0.9533556,0.01676862,0.3223921,54.18007,-20.87624,-24.77269
87.490177155,6.37853299999997,-39.49308,16.10798,-0.934443,-0.0003869246,0.334587,54.18007,-20.87624,-24.77269
87.500089646,5.077834,-42.81345,16.66024,-0.9236351,0.0002620396,0.3402533,54.18007,-20.87624,-24.77269
87.512479305,4.830081,-46.07556,16.72161,-0.8953535,-0.02600447,0.3494199,54.18007,-20.87624,-24.77269
87.522392273,5.82109000000002,-48.8134,17.70341,-0.9143462,-0.01791065,0.366455,52.6849,-21.25436,-25.59893
87.532304287,6.56434699999999,-50.44445,18.43977,-0.9113805,-0.01151585,0.3770337,52.6849,-21.25436,-25.59893
87.542216301,6.81209899999999,-51.02697,19.23748,-0.919808,-0.00143589,0.3776589,52.6849,-21.25436,-25.59893
87.552128792,6.93597599999999,-51.66774,19.78975,-0.9263769,0.01886176,0.3807359,52.6849,-21.25436,-25.59893
87.562040806,6.62628499999997,-52.07551,19.97384,-0.9217796,0.0126778,0.3926561,52.6849,-21.25436,-25.59893
87.571953297,7.24566599999997,-53.12404,20.46474,-0.9138376,0.01137408,0.4026573,51.94659,-22.76325,-28.16021
87.581865311,7.18372799999999,-54.11433,21.13973,-0.8894963,-0.004224608,0.4215346,51.94659,-22.76325,-28.16021
87.591777801,7.55535600000002,-54.6386,22.8579,-0.8557932,-0.02503555,0.4412509,51.94659,-22.76325,-28.16021
87.601689815,8.91799300000002,-54.81335,25.92604,-0.8504878,-0.03378674,0.4238578,51.94659,-22.76325,-28.16021
87.611601829,10.46644,-56.96867,29.7919,-0.8647735,-0.02279988,0.4264639,51.94659,-22.76325,-28.16021
87.62151432,10.03288,-60.3472900000001,32.67596,-0.8750589,0.01632651,0.4229784,50.44821,-23.14503,-29.88587
87.631426334,6.750161,-62.6773700000001,33.28959,-0.8812089,0.04000849,0.4231931,50.44821,-23.14503,-29.88587
87.641339302,2.166745,-64.7161900000001,32.30779,-0.8691837,0.05908252,0.4260899,50.44821,-23.14503,-29.88587
87.651250839,-2.292794,-65.7064700000001,31.51007,-0.8548909,0.05492861,0.4321721,50.44821,-23.14503,-29.88587
87.661163807,-4.274812,-68.2113000000001,31.87824,-0.8512641,0.05019963,0.4465118,50.44821,-23.14503,-29.88587
87.671075821,-4.770316,-72.11419,34.33276,-0.8419654,0.06885689,0.4691176,48.21101,-24.27605,-31.60534
87.680987835,-5.575511,-75.0850399999998,37.83044,-0.8332627,0.1030622,0.4995149,48.21101,-24.27605,-31.60534
87.690900326,-8.61047599999998,-76.3665799999999,41.08268,-0.8172403,0.1285712,0.5182628,48.21101,-24.27605,-31.60534
87.70081234,-13.56552,-76.0170700000002,42.43266,-0.8014305,0.1210471,0.5252689,48.21101,-24.27605,-31.60534
87.710724831,-16.97211,-76.65784,42.30994,-0.7884288,0.09599062,0.5240213,48.21101,-24.27605,-31.60534
87.720636845,-17.77731,-79.4539300000001,43.35311,-0.7951193,0.08964405,0.5317235,45.59842,-25.7885,-34.99207
87.730548859,-17.90118,-83.35682,45.50081,-0.7984716,0.09695497,0.5471683,45.59842,-25.7885,-34.99207
87.740461349,-18.02506,-85.9781600000001,46.48262,-0.7940354,0.09849203,0.5524192,45.59842,-25.7885,-34.99207
87.750373363,-18.64444,-89.93929,46.72807,-0.8056377,0.1047556,0.5727349,45.59842,-25.7885,-34.99207
87.760285854,-19.94514,-91.5703399999998,45.37808,-0.7472959,0.0919066,0.5725899,45.59842,-25.7885,-34.99207
87.770197868,-20.50258,-90.23055,43.41447,-0.7296447,0.07703038,0.5598434,42.98075,-26.92661,-38.44419
87.780110359,-19.82126,-91.4538300000002,43.47583,-0.7464023,0.09236277,0.5649022,42.98075,-26.92661,-38.44419
87.792500496,-20.06902,-95.58973,44.39628,-0.7385833,0.1153853,0.5913919,42.98075,-26.92661,-38.44419
87.802412987,-22.36072,-99.3761099999999,45.62354,-0.6993741,0.1334842,0.6213998,42.98075,-26.92661,-38.44419
87.812325001,-26.07701,-101.2402,48.38486,-0.6640643,0.145199,0.6451592,38.49825,-28.43765,-41.43571
87.822237015,-31.52756,-101.6479,50.71666,-0.6283327,0.1534704,0.6583283,38.49825,-28.43765,-41.43571
87.832149506,-37.41167,-99.4343600000001,50.59393,-0.5969627,0.1514631,0.6633065,38.49825,-28.43765,-41.43571
87.84206152,-41.74733,-98.2110700000001,49.18258,-0.6047573,0.1499166,0.6643286,38.49825,-28.43765,-41.43571
87.851974487,-44.10098,-99.3178600000003,49.24395,-0.6184838,0.1599706,0.6726853,38.49825,-28.43765,-41.43571
87.861886501,-46.02106,-102.9295,49.61213,-0.6069791,0.1829245,0.6770533,34.74673,-28.82823,-45.26978
87.871798992,-48.00307,-104.3858,49.42804,-0.5708215,0.2014131,0.6960483,34.74673,-28.82823,-45.26978
87.881711006,-51.34773,-103.4537,47.3417,-0.541593,0.1839233,0.7124671,34.74673,-28.82823,-45.26978
87.89162302,-53.26781,-100.9489,43.96674,-0.5038654,0.1412688,0.7175958,34.74673,-28.82823,-45.26978
87.901535511,-51.90517,-98.9683399999997,40.77586,-0.4880262,0.08620337,0.7194833,34.74673,-28.82823,-45.26978
87.911447525,-47.50757,-99.66737,39.48724,-0.4846967,0.06254356,0.7303386,28.74295,-28.4664,-48.25929
87.921360016,-42.1809,-102.2305,39.0577,-0.4980836,0.06106693,0.7583017,28.74295,-28.4664,-48.25929
87.93127203,-36.73035,-106.4828,39.24179,-0.4657172,0.07566684,0.7845083,28.74295,-28.4664,-48.25929
87.941184521,-33.26182,-106.0751,38.81225,-0.4138055,0.08221214,0.7999171,28.74295,-28.4664,-48.25929
87.951096535,-31.15593,-103.4537,36.48046,-0.3990497,0.08683134,0.813736,28.74295,-28.4664,-48.25929
87.961008549,-28.86422,-102.813,34.14867,-0.4102326,0.0881868,0.8215309,23.91164,-27.35868,-52.09245
87.97092104,-26.75833,-104.3858,33.16687,-0.4160433,0.08716729,0.8258994,23.91164,-27.35868,-52.09245
87.980833054,-25.33375,-107.5314,33.59641,-0.4014438,0.09951004,0.8335291,23.91164,-27.35868,-52.09245
87.990746021,-24.77631,-108.6964,34.51685,-0.3571491,0.1111823,0.8274353,23.91164,-27.35868,-52.09245
88.000658035,-25.82925,-109.3372,35.31457,-0.3318105,0.1216991,0.8311123,23.91164,-27.35868,-52.09245
88.010570526,-27.56352,-108.8712,35.43729,-0.3069194,0.1229631,0.8280095,18.65127,-26.24238,-53.80327
88.02048254,-30.04104,-107.9974,34.33276,-0.310098,0.1157303,0.8433558,18.65127,-26.24238,-53.80327
88.030394554,-32.64244,-107.8226,33.59641,-0.3132761,0.1055708,0.8553215,18.65127,-26.24238,-53.80327
88.040307045,-35.30577,-109.5702,33.16687,-0.3116474,0.09738065,0.8614939,18.65127,-26.24238,-53.80327
88.050219059,-37.78329,-111.7838,32.92141,-0.2869211,0.09295356,0.883323,18.65127,-26.24238,-53.80327
88.06013155,-39.76531,-112.308,31.26461,-0.2518649,0.07258958,0.8924662,12.28753,-26.62454,-55.50364
88.072521687,-40.57051,-112.4828,29.73054,-0.2281435,0.05886793,0.9007984,12.28753,-26.62454,-55.50364
88.082434177,-39.45562,-113.8226,27.58284,-0.2084388,0.04406697,0.8976366,12.28753,-26.62454,-55.50364
88.092346191,-37.96911,-115.5119,26.84649,-0.1894893,0.0515604,0.8946303,12.28753,-26.62454,-55.50364
88.102258205,-36.11097,-117.376,25.55787,-0.1487961,0.05212557,0.9057815,12.28753,-26.62454,-55.50364
88.112170696,-34.19089,-116.2109,24.88287,-0.1000687,0.07265011,0.9131501,6.643202,-24.75907,-57.21481
88.12208271,-33.50957,-112.0168,22.12154,-0.07122446,0.08032615,0.9215773,6.643202,-24.75907,-57.21481
88.131995201,-33.01406,-110.2692,19.17612,-0.08814637,0.0709433,0.929354,6.643202,-24.75907,-57.21481
88.141907215,-31.15593,-109.8032,16.29206,-0.08677195,0.04969846,0.9431243,6.643202,-24.75907,-57.21481
88.151820183,-28.05902,-109.5119,13.03983,-0.07271641,0.02323036,0.9476194,6.643202,-24.75907,-57.21481
88.16173172,-23.41367,-112.5993,12.36484,-0.05290445,0.0006803488,0.9458455,0.256566,-22.88661,-57.1875
88.171643734,-17.59149,-115.1041,13.40801,-0.02370931,0.00877846,0.9413082,0.256566,-22.88661,-57.1875
88.181556702,-12.63645,-116.7934,14.26709,0.0059885,0.01737763,0.9386899,0.256566,-22.88661,-57.1875
88.191468716,-9.04404300000003,-115.7449,14.32845,0.06090019,0.04033118,0.932093,0.256566,-22.88661,-57.1875
88.201381207,-7.61946700000001,-113.4148,12.18075,0.0679905,0.05249114,0.9225052,0.256566,-22.88661,-57.1875
88.211293221,-7.24783800000001,-113.1236,10.15578,0.07766576,0.06816927,0.9306828,-4.997597,-21.76324,-57.16371
88.221205711,-8.85822799999998,-113.1818,8.31488799999999,0.0966441,0.08933628,0.9464936,-4.997597,-21.76324,-57.16371
88.231117725,-12.20288,-113.8226,6.22854899999998,0.1148233,0.1013157,0.9689728,-4.997597,-21.76324,-57.16371
88.241029739,-15.73335,-114.2886,4.817203,0.1516207,0.09354754,0.9719418,-4.997597,-21.76324,-57.16371
88.25094223,-17.83924,-112.5993,5.18538,0.1776534,0.0910065,0.980327,-4.997597,-21.76324,-57.16371
88.260854244,-20.25483,-110.1527,5.79900900000001,0.1801499,0.07594204,0.9677194,-10.54774,-21.38203,-55.40139
88.270766735,-21.74134,-109.1624,5.492195,0.1846914,0.04143625,0.9410388,-10.54774,-21.38203,-55.40139
88.280678749,-22.05103,-111.143,5.79900900000001,0.1893348,0.00747133,0.9249244,-10.54774,-21.38203,-55.40139
88.29059124,-19.94514,-114.5216,5.369469,0.2148703,-0.0199582,0.9033785,-10.54774,-21.38203,-55.40139
88.300503254,-17.46762,-115.6284,6.78081600000001,0.2497419,0.006898916,0.9498103,-10.54774,-21.38203,-55.40139
88.310415268,-17.15793,-114.1721,6.044461,0.2886916,0.01413106,0.9418157,-16.54098,-20.62809,-54.08767
88.320328236,-17.52956,-112.075,7.51716999999999,0.3032351,0.01961538,0.9359558,-16.54098,-20.62809,-54.08767
88.330239773,-20.50258,-111.6673,7.27171900000003,0.4993649,-0.05545208,0.9480466,-16.54098,-20.62809,-54.08767
88.340152741,-21.06002,-108.3469,5.98309800000002,0.2682533,0.02343271,0.9146976,-16.54098,-20.62809,-54.08767
88.3525424,-22.23685,-109.6284,4.326299,0.3205,-0.01911602,0.9052882,-16.54098,-20.62809,-54.08767
88.362455368,-21.80328,-111.2013,3.037678,0.3548318,-0.02058425,0.9136037,-21.05012,-18.74842,-52.33548
88.372367382,-20.87421,-111.5508,3.037678,0.3964849,-0.01026012,0.9344143,-21.05012,-18.74842,-52.33548
88.382279873,-20.37871,-110.5022,4.75584,0.4136044,-0.007115891,0.9385983,-21.05012,-18.74842,-52.33548
88.392191887,-19.82126,-108.4634,4.939929,0.4217505,-0.01343981,0.9149531,-21.05012,-18.74842,-52.33548
88.402103901,-19.20188,-108.5799,5.676283,0.4214629,-0.006272377,0.895317,-21.05012,-18.74842,-52.33548
88.412016392,-19.20188,-109.1624,4.571751,0.4326997,-0.02369736,0.87397,-25.53687,-18.36372,-49.74349
88.421928406,-18.45863,-108.3469,2.914952,0.4418539,0.02561651,0.9183885,-25.53687,-18.36372,-49.74349
88.431840897,-20.99809,-110.7935,2.178597,0.4894715,-0.006862284,0.8985254,-25.53687,-18.36372,-49.74349
88.441752911,-23.41367,-108.4052,1.871783,0.5159183,0.004710143,0.9161237,-25.53687,-18.36372,-49.74349
88.451665402,-25.14794,-105.6091,1.442243,0.5449427,0.002236104,0.9302436,-25.53687,-18.36372,-49.74349
88.461577416,-27.25383,-104.1528,1.81042,0.5516132,0.006133219,0.9177237,-30.41405,-16.8571,-47.60273
88.47148943,-28.98809,-103.1625,0.767250500000003,0.5652552,-0.01128178,0.8925133,-30.41405,-16.8571,-47.60273
88.48140192,-29.66941,-102.813,-1.012274,0.5984727,-0.03185762,0.8651802,-30.41405,-16.8571,-47.60273
88.491313934,-30.04104,-102.1722,-2.607709,0.6155448,-0.04288449,0.8481433,-30.41405,-16.8571,-47.60273
88.501226902,-29.54554,-100.8324,-4.509959,0.6321902,-0.05583622,0.8349388,-30.41405,-16.8571,-47.60273
88.511138916,-28.24484,-98.8518399999999,-6.289484,0.6483517,-0.05805979,0.8347746,-34.8992,-16.47058,-44.56103
88.521051407,-26.13894,-96.4052600000001,-7.57810399999998,0.665397,-0.05983229,0.8259622,-34.8992,-16.47058,-44.56103
88.530963421,-24.03305,-93.6674099999999,-8.62127400000002,0.6700715,-0.0632976,0.8009277,-34.8992,-16.47058,-44.56103
88.540875435,-22.60847,-92.44412,-9.66444299999998,0.6718507,-0.06336503,0.7836251,-34.8992,-16.47058,-44.56103
88.550787926,-20.93615,-91.2208300000001,-10.8917,0.6833717,-0.06528075,0.7604582,-34.8992,-16.47058,-44.56103
88.56069994,-16.29079,-86.91019,-13.7144,0.6938655,-0.05576637,0.7935554,-38.27127,-15.33478,-41.52748
88.57061243,-20.81227,-89.2985200000002,-13.89848,0.7070097,-0.04148481,0.8045727,-38.27127,-15.33478,-41.52748
88.580524444,-22.29879,-84.4635999999999,-14.6962,0.7206582,-0.04377442,0.7977089,-38.27127,-15.33478,-41.52748
88.590436935,-23.35173,-80.67722,-15.55528,0.7070017,-0.05319627,0.79009,-38.27127,-15.33478,-41.52748
88.600348949,-23.90917,-78.2888899999998,-15.92346,0.7049361,-0.07864382,0.7496063,-38.27127,-15.33478,-41.52748
88.610261917,-23.28979,-78.0558900000002,-15.24847,0.7042114,-0.08901653,0.7144923,-41.1954,-14.9463,-38.04418
88.620173454,-22.9801,-78.2306400000002,-15.18711,0.7284546,-0.09467055,0.6878217,-41.1954,-14.9463,-38.04418
88.632564068,-25.39569,-77.9393800000001,-13.83712,0.7821255,-0.0852763,0.6873879,-41.1954,-14.9463,-38.04418
88.642476082,-29.11197,-78.1141399999998,-12.79395,0.8053924,-0.06752717,0.6882514,-41.1954,-14.9463,-38.04418
88.652388096,-32.51856,-76.7160900000002,-13.10077,0.8106773,-0.05970369,0.6882546,-43.80927,-14.55963,-35.01221
88.662301063,-36.1729,-75.5510600000002,-14.02121,0.8119765,-0.05928476,0.6724001,-43.80927,-14.55963,-35.01221
88.672212601,-39.39368,-74.2695099999998,-15.43256,0.8092282,-0.05654649,0.6460351,-43.80927,-14.55963,-35.01221
88.682125568,-40.32276,-74.0364999999999,-16.53709,0.8063262,-0.06290817,0.6416981,-43.80927,-14.55963,-35.01221
88.692037582,-43.29578,-72.9879700000002,-17.45753,0.8160831,-0.07304126,0.6276158,-43.80927,-14.55963,-35.01221
88.701950073,-43.85323,-71.47341,-17.94844,0.8253341,-0.07928678,0.6164449,-46.04562,-14.54935,-32.43075
88.711862087,-45.15392,-70.4248799999998,-18.43934,0.8275995,-0.07788612,0.6005881,-46.04562,-14.54935,-32.43075
88.721774101,-44.28679,-69.8423600000002,-18.68479,0.8313867,-0.085219,0.5798575,-46.04562,-14.54935,-32.43075
88.731686592,-42.73834,-69.43459,-18.19389,0.8539355,-0.0941762,0.5747877,-46.04562,-14.54935,-32.43075
88.741598606,-42.30478,-68.9103299999998,-17.76435,0.8802033,-0.1026968,0.5514404,-46.04562,-14.54935,-32.43075
88.751511097,-42.61446,-68.0947999999997,-17.45753,0.8904139,-0.1069885,0.5407539,-47.5351,-14.16076,-28.95491
88.761423111,-45.40168,-68.0365500000001,-17.45753,0.9040329,-0.09319587,0.5498428,-47.5351,-14.16076,-28.95491
88.771335602,-48.12695,-66.6384999999999,-17.88707,0.9111317,-0.1037101,0.5621912,-47.5351,-14.16076,-28.95491
88.781247616,-49.24184,-63.7258999999997,-18.62343,0.9078708,-0.1114736,0.5688919,-47.5351,-14.16076,-28.95491
88.79115963,-48.43664,-60.05603,-19.72796,0.8948216,-0.1266814,0.5660303,-47.5351,-14.16076,-28.95491
88.801072121,-47.13594,-57.20168,-20.03478,0.8716674,-0.1290105,0.5465425,-49.40503,-13.77925,-27.21173
88.810984135,-45.71137,-55.92014,-20.28023,0.8616846,-0.1346048,0.5201888,-49.40503,-13.77925,-27.21173
88.820897102,-43.23384,-55.68713,-20.40295,0.8665042,-0.1423848,0.5042472,-49.40503,-13.77925,-27.21173
88.830809116,-41.3757,-56.38615,-20.52568,0.8716089,-0.1297771,0.49228,-49.40503,-13.77925,-27.21173
88.840721607,-40.69439,-56.26965,-21.75294,0.8827103,-0.1375164,0.4690782,-49.40503,-13.77925,-27.21173
88.850633621,-39.084,-57.4346899999999,-21.56885,0.8799134,-0.1269985,0.4470868,-49.7798,-13.01963,-24.6423
88.860546112,-37.78329,-58.54148,-21.75294,0.8993914,-0.1224052,0.4445365,-49.7798,-13.01963,-24.6423
88.870458126,-38.89818,-58.3084700000001,-22.24384,0.9196686,-0.1086244,0.4353178,-49.7798,-13.01963,-24.6423
88.88037014,-41.25183,-56.61916,-22.42793,0.9393981,-0.1048758,0.4562873,-49.7798,-13.01963,-24.6423
88.890282631,-44.41067,-51.78425,-22.42793,0.9683789,-0.09420185,0.4815387,-49.7798,-13.01963,-24.6423
88.900194645,-47.56951,-46.48332,-21.93703,0.9755596,-0.1119905,0.4933578,-50.89499,-13.0111,-22.51639
88.910107136,-46.88819,-41.18239,-21.13931,0.9717864,-0.1731825,0.4829017,-50.89499,-13.0111,-22.51639
88.922497272,-42.36671,-38.21154,-20.83249,0.962038,-0.1810938,0.4766971,-50.89499,-13.0111,-22.51639
88.932409763,-37.04004,-38.26979,-20.64841,0.9543927,-0.2025626,0.4689422,-50.89499,-13.0111,-22.51639
88.942321777,-31.03205,-38.44455,-21.01658,0.9512939,-0.2085388,0.4458835,-50.89499,-13.0111,-22.51639
88.952234268,-27.56352,-38.32804,-21.26203,0.9470224,-0.1936531,0.4282563,-52.00671,-13.37872,-20.77479
88.962146282,-22.17491,-39.20182,-21.26203,0.9625811,-0.1978933,0.4146397,-52.00671,-13.37872,-20.77479
88.972058296,-18.39669,-38.67756,-20.70977,0.9745444,-0.179827,0.410328,-52.00671,-13.37872,-20.77479
88.981971264,-14.43265,-37.57077,-20.09614,0.9881476,-0.1840915,0.3967294,-52.00671,-13.37872,-20.77479
88.991882801,-12.63645,-35.12419,-18.68479,1.007463,-0.154705,0.40731,-52.00671,-13.37872,-20.77479
89.001795769,-12.8842,-31.45431,-18.0098,0.9971697,-0.1455781,0.4156287,-52.36507,-14.12089,-19.03593
89.011707783,-13.37971,-28.71647,-17.08936,0.9807692,-0.133235,0.4043388,-52.36507,-14.12089,-19.03593
89.021620274,-14.74234,-26.67765,-16.78254,0.9697679,-0.1032529,0.4156839,-52.36507,-14.12089,-19.03593
89.031532288,-16.10498,-25.1631,-16.90527,0.9516171,-0.1093639,0.4028468,-52.36507,-14.12089,-19.03593
89.041444302,-17.03405,-23.88156,-16.8439,0.9452148,-0.1265405,0.3783035,-52.36507,-14.12089,-19.03593
89.051356792,-16.91018,-23.41554,-16.16891,0.9402711,-0.1393129,0.3580975,-53.109,-14.11572,-17.74715
89.061268806,-15.9811,-23.5903,-14.94165,0.9480627,-0.1494753,0.3430728,-53.109,-14.11572,-17.74715
89.071181297,-14.06102,-23.82331,-13.34622,0.9544118,-0.1674484,0.3212873,-53.109,-14.11572,-17.74715
89.081093311,-12.45063,-22.54177,-11.81215,0.9657648,-0.1706666,0.327883,-53.109,-14.11572,-17.74715
89.091005802,-10.84025,-21.20197,-9.66444299999998,0.9585569,-0.1775219,0.3322255,-53.109,-14.11572,-17.74715
89.100917816,-7.929157,-20.50295,-8.43718500000001,0.9570449,-0.1687832,0.3380596,-53.47194,-14.86311,-17.29318
89.11082983,-5.947139,-19.51266,-7.82355600000003,0.9573284,-0.1503474,0.3396202,-53.47194,-14.86311,-17.29318
89.120742798,-6.00907800000001,-19.16315,-6.84175,0.9526004,-0.1183777,0.3451587,-53.47194,-14.86311,-17.29318
89.130654335,-7.37171500000001,-17.99811,-6.289484,0.9514059,-0.1097221,0.3341837,-53.47194,-14.86311,-17.29318
89.140567303,-8.36272300000002,-17.70685,-5.73721700000003,0.9506851,-0.1035074,0.3188668,-53.47194,-14.86311,-17.29318
89.150479317,-8.67241400000003,-17.5321,-5.123589,0.9593639,-0.09907068,0.3120938,-53.0834,-15.60704,-16.00793
89.160391808,-8.92016599999997,-16.25055,-4.325871,0.9711547,-0.1037729,0.3119534,-53.0834,-15.60704,-16.00793
89.170303822,-8.98210400000001,-13.97873,-3.46679,0.977623,-0.1172936,0.307002,-53.0834,-15.60704,-16.00793
89.180216312,-7.86721900000001,-11.93991,-2.300895,0.9738889,-0.1309087,0.3083863,-53.0834,-15.60704,-16.00793
89.190128326,-5.513573,-10.83312,-1.809992,0.9622083,-0.1354176,0.3084643,-53.0834,-15.60704,-16.00793
89.20251894,-1.79729,-10.07585,-2.116806,0.949768,-0.1259271,0.2985592,-53.07717,-15.98007,-15.62131
89.212430954,0.742170199999999,-10.1341,-1.99408,0.9466491,-0.1182552,0.2895162,-53.07717,-15.98007,-15.62131
89.222342968,2.228683,-9.66808199999998,-1.687266,0.948334,-0.1042255,0.2795107,-53.07717,-15.98007,-15.62131
89.232255459,2.414498,-8.50304200000002,-0.889547900000002,0.9625434,-0.1030568,0.2837085,-53.07717,-15.98007,-15.62131
89.242167473,1.175737,-6.988491,0.705887599999999,0.9736627,-0.09907959,0.2759497,-53.07717,-15.98007,-15.62131
89.252079964,-0.8682191,-5.240932,2.301323,0.9781992,-0.1067587,0.280178,-53.4579,-15.22725,-14.72224
89.261991978,-2.602484,-3.784633,4.264936,0.9827738,-0.1139301,0.2887307,-53.4579,-15.22725,-14.72224
89.271904469,-2.478608,-2.50309,6.044461,0.9750358,-0.1222763,0.2873062,-53.4579,-15.22725,-14.72224
89.281816483,-1.611476,-0.813783199999999,6.78081600000001,0.9932489,-0.1288158,0.2914156,-53.4579,-15.22725,-14.72224
89.29172945,0.866046300000002,1.691051,7.21035599999999,1.002255,-0.1373793,0.3013586,-53.4579,-15.22725,-14.72224
89.301641464,3.467444,4.254138,8.00807399999998,1.003418,-0.1445881,0.310903,-53.81762,-16.35106,-14.71684
89.311553001,6.56434699999999,6.584216,8.98988099999998,1.009077,-0.1536432,0.3275959,-53.81762,-16.35106,-14.71684
89.321465969,10.15675,9.03079800000001,10.15578,1.002442,-0.1609364,0.3396126,-53.81762,-16.35106,-14.71684
89.331377983,14.98792,11.65214,11.56712,1.005709,-0.174385,0.3562983,-53.81762,-16.35106,-14.71684
89.341290474,20.43847,14.68124,13.16256,1.015784,-0.187279,0.3700438,-53.81762,-16.35106,-14.71684
89.351202488,26.13677,18.1181,15.55571,1.029891,-0.2151837,0.3778902,-53.83377,-15.22911,-15.17001
89.361114979,32.33058,21.20546,17.45796,1.029123,-0.2302091,0.3806781,-53.83377,-15.22911,-15.17001
89.371026993,38.7102,24.46757,18.68522,1.024214,-0.2273534,0.382183,-53.83377,-15.22911,-15.17001
89.380939484,44.84206,27.38017,19.85111,1.020278,-0.2274148,0.3798182,-53.83377,-15.22911,-15.17001
89.390851498,50.29261,30.46752,21.44655,1.024524,-0.2128061,0.3817969,-53.83377,-15.22911,-15.17001
89.400763512,54.56634,34.31215,22.91926,1.02481,-0.1929057,0.3852879,-53.84023,-14.85634,-15.62088
89.410676003,57.29161,39.08881,23.96243,1.017852,-0.1710986,0.3999023,-53.84023,-14.85634,-15.62088
89.420588017,58.5923100000001,44.27324,24.33061,1.012768,-0.1449194,0.4116476,-53.84023,-14.85634,-15.62088
89.430500984,56.91998,49.39941,25.0056,1.024523,-0.1301279,0.4308437,-53.84023,-14.85634,-15.62088
89.440412998,53.82308,56.33139,25.86468,1.024871,-0.1406787,0.4523773,-53.84023,-14.85634,-15.62088
89.450325489,52.52238,61.92358,27.03057,1.019739,-0.1650081,0.4479413,-53.84968,-14.48697,-16.90692
89.460237503,51.84106,67.98178,28.87146,1.0218,-0.1610265,0.4628336,-53.84968,-14.48697,-16.90692
89.470149517,51.03587,72.5254400000002,30.03736,1.008329,-0.1649857,0.4797374,-53.84968,-14.48697,-16.90692
89.482540131,49.42548,77.9428699999998,30.65099,1.008986,-0.155136,0.5076461,-53.84968,-14.48697,-16.90692
89.492452145,47.81509,82.9525400000002,31.75552,1.043251,-0.1385904,0.5304871,-53.48624,-14.11915,-18.58038
89.502364636,42.79811,90.7583,32.79869,1.033315,-0.1324529,0.5224571,-53.48624,-14.11915,-18.58038
89.51227665,38.83407,97.16602,32.43051,1.014849,-0.1209187,0.5471929,-53.48624,-14.11915,-18.58038
89.52218914,33.32159,101.7097,32.49187,0.9944742,-0.1269454,0.5559839,-53.48624,-14.11915,-18.58038
89.532101154,29.72918,105.729,32.73732,0.9819311,-0.1221381,0.5782192,-53.48624,-14.11915,-18.58038
89.542013645,26.75615,110.1562,32.79869,0.9772629,-0.1435476,0.5747586,-52.00807,-13.76038,-22.50824
89.551925659,24.27863,114.2921,33.65777,0.9760861,-0.1653662,0.5775052,-52.00807,-13.76038,-22.50824
89.56183815,24.03088,118.2532,34.7623,0.9800749,-0.1462527,0.6073654,-52.00807,-13.76038,-22.50824
89.571750164,21.05785,122.2144,35.62138,0.9846019,-0.140766,0.6260862,-52.00807,-13.76038,-22.50824
89.581662178,19.69521,125.36,36.72591,0.9610518,-0.1584142,0.6453928,-52.00807,-13.76038,-22.50824
89.591575146,10.65226,128.0978,36.54182,0.9314014,-0.1106516,0.6709535,-50.16832,-12.65579,-27.27554
89.601486683,7.12178899999997,129.6706,36.91,0.9162186,-0.1349963,0.6877372,-50.16832,-12.65579,-27.27554
89.61139965,5.387524,132.0589,36.84864,0.9100743,-0.1325265,0.7113383,-50.16832,-12.65579,-27.27554
89.621311664,5.263648,137.2434,37.83044,0.9088192,-0.1329225,0.7315139,-50.16832,-12.65579,-27.27554
89.631224155,2.786126,140.3307,37.64636,0.8908928,-0.1491606,0.7286906,-50.16832,-12.65579,-27.27554
89.641136169,2.104807,142.3113,36.60319,0.8694117,-0.1725791,0.7522609,-47.95869,-11.55614,-33.26543
89.65104866,3.095816,144.1171,36.91,0.8451115,-0.1893937,0.7470919,-47.95869,-11.55614,-33.26543
89.660960674,6.56434699999999,145.3987,37.21682,0.8276736,-0.1973333,0.7539225,-47.95869,-11.55614,-33.26543
89.670872688,11.51939,146.1559,37.09409,0.8077544,-0.1984933,0.7651426,-47.95869,-11.55614,-33.26543
89.680785179,16.53637,147.4957,36.60319,0.7839336,-0.202136,0.7744617,-47.95869,-11.55614,-33.26543
89.690697193,20.37653,148.6025,35.62138,0.7775903,-0.1953794,0.7836884,-44.62166,-10.83125,-39.32425
89.700609684,22.42049,150.2918,34.63958,0.7722475,-0.1929891,0.7899957,-44.62166,-10.83125,-39.32425
89.710521698,24.40251,151.0491,33.90322,0.7439312,-0.1952729,0.7916828,-44.62166,-10.83125,-39.32425
89.720434666,25.45545,151.4568,33.90322,0.7232498,-0.1756056,0.800648,-44.62166,-10.83125,-39.32425
89.730346203,23.65925,151.6316,33.78049,0.6812189,-0.1663657,0.8135824,-44.62166,-10.83125,-39.32425
89.74025917,21.11979,152.2141,32.67596,0.6485555,-0.170628,0.8181775,-39.85807,-9.355228,-44.94312
89.750171184,17.65126,152.0394,32.55323,0.6277889,-0.1761224,0.8370591,-39.85807,-9.355228,-44.94312
89.762561798,16.84606,154.4277,32.73732,0.5961164,-0.1662193,0.8595053,-39.85807,-9.355228,-44.94312
89.772473812,17.09381,154.8937,33.22823,0.5784151,-0.1908814,0.821092,-39.85807,-9.355228,-44.94312
89.782385349,18.58033,154.4277,33.04414,0.5168307,-0.1877376,0.8274444,-39.85807,-9.355228,-44.94312
89.792298317,19.75715,151.3986,32.43051,0.4826908,-0.1920232,0.8310927,-34.63545,-9.374155,-49.72447
89.802210331,20.50041,148.1365,32.24642,0.4620792,-0.1757342,0.8429157,-34.63545,-9.374155,-49.72447
89.812122822,24.58832,150.0005,29.54645,0.4444405,-0.1730466,0.8426166,-34.63545,-9.374155,-49.72447
89.822034836,23.22568,146.2724,30.16008,0.4420837,-0.1332796,0.8501056,-34.63545,-9.374155,-49.72447
89.831947327,23.59731,146.7967,29.05555,0.4211174,-0.1393659,0.8488185,-34.63545,-9.374155,-49.72447
89.841859341,27.87104,147.8452,26.90785,0.3907748,-0.1378083,0.8481492,-27.9142,-9.391131,-54.0639
89.851771831,31.58732,148.3112,24.82151,0.3478327,-0.1407412,0.8533283,-27.9142,-9.391131,-54.0639
89.861683845,34.8081,146.9132,21.50791,0.299059,-0.1520215,0.8522637,-27.9142,-9.391131,-54.0639
89.871595859,39.32958,145.0491,17.94886,0.2831629,-0.1662453,0.8590383,-27.9142,-9.391131,-54.0639
89.88150835,44.65625,144.5249,14.94208,0.2679289,-0.1606211,0.8582563,-27.9142,-9.391131,-54.0639
89.891420364,50.97393,144.6414,12.85574,0.2528021,-0.1573801,0.86514,-21.18028,-9.773814,-56.21785
89.901333332,55.61929,144.4084,11.62849,0.2521556,-0.135517,0.875375,-21.18028,-9.773814,-56.21785
89.911245346,58.84007,144.4666,9.66487199999998,0.2036641,-0.1303134,0.8734573,-21.18028,-9.773814,-56.21785
89.921157837,61.5653400000002,143.0103,7.026268,0.1591757,-0.1352572,0.8685541,-21.18028,-9.773814,-56.21785
89.931069851,64.8480500000001,142.1365,5.124017,0.1143926,-0.1237689,0.8541598,-21.18028,-9.773814,-56.21785
89.940982342,67.57333,139.69,2.23996,0.08537281,-0.09982899,0.8656313,-15.18056,-11.2806,-58.42869
89.950894356,69.3075900000002,138.8744,0.767250500000003,0.06592633,-0.06075173,0.8747144,-15.18056,-11.2806,-58.42869
89.96080637,68.6882099999998,139.1074,-1.135,0.0327873,-0.03550534,0.8675066,-15.18056,-11.2806,-58.42869
89.970718861,67.5113899999997,137.8259,-2.116806,-0.00237881,-0.01666198,0.84587,-15.18056,-11.2806,-58.42869
89.980630875,65.9009999999998,136.6026,-3.282701,-0.02320322,0.008784637,0.8476726,-15.18056,-11.2806,-58.42869
89.990543365,63.4854099999998,135.7288,-6.41221000000002,-0.06830387,0.02572182,0.8563652,-8.043549,-13.53101,-59.29392
90.000455379,60.5743300000002,133.6317,-10.4008,-0.112327,0.03101573,0.861129,-8.043549,-13.53101,-59.29392
90.010368347,58.0348699999999,132.758,-12.91668,-0.1189044,0.0425285,0.8531039,-8.043549,-13.53101,-59.29392
90.020279884,56.67223,132.6997,-16.47573,-0.1614222,0.03469007,0.8462425,-8.043549,-13.53101,-59.29392
90.030192852,56.36254,130.7191,-17.88707,-0.1806348,0.04510849,0.844569,-8.043549,-13.53101,-59.29392
90.040104866,55.55735,130.6026,-19.48251,-0.1924339,0.04639165,0.8398851,-1.319407,-17.27485,-58.93163
90.05249548,55.12378,128.7968,-22.24384,-0.2441404,0.04824581,0.8543002,-1.319407,-17.27485,-58.93163
90.062407494,54.93797,127.3405,-24.14609,-0.232901,0.05082219,0.8566142,-1.319407,-17.27485,-58.93163
90.072319031,55.55735,127.7483,-25.55744,-0.251891,0.07281546,0.8425316,-1.319407,-17.27485,-58.93163
90.082231998,55.12378,128.3308,-27.33696,-0.2650813,0.05168056,0.818985,-1.319407,-17.27485,-58.93163
90.092144012,55.55735,126.525,-28.31877,-0.2804364,0.02236809,0.8131699,5.09122,-20.64047,-57.66943
90.102056503,55.99091,125.4765,-29.66875,-0.3239734,0.08668227,0.7914335,5.09122,-20.64047,-57.66943
90.111968517,55.49541,124.9522,-31.75509,-0.3573657,0.09302077,0.7850624,5.09122,-20.64047,-57.66943
90.121881008,55.68122,123.9619,-34.45506,-0.3959045,0.08819318,0.7882676,5.09122,-20.64047,-57.66943
90.131793022,56.48642,122.7386,-35.92777,-0.4137552,0.1102827,0.7900203,5.09122,-20.64047,-57.66943
90.141705513,56.42448,122.6221,-38.32092,-0.4232641,0.1476136,0.8124442,12.23903,-22.87859,-55.51517
90.151617527,55.68122,123.2047,-40.46862,-0.4272276,0.1494889,0.8096124,12.23903,-22.87859,-55.51517
90.161530018,55.68122,124.4279,-43.04586,-0.4329972,0.1206858,0.785466,12.23903,-22.87859,-55.51517
90.171442032,57.04386,123.9037,-44.6413,-0.4627907,0.1027686,0.7678563,12.23903,-22.87859,-55.51517
90.181354046,60.4504500000002,121.2241,-45.92992,-0.4765068,0.08843764,0.7486813,12.23903,-22.87859,-55.51517
90.191267014,64.2906099999999,120.2921,-46.66628,-0.4759368,0.09701809,0.7189634,18.25736,-24.3642,-52.5222
90.201178551,65.9009999999998,119.127,-47.89354,-0.4735531,0.1033584,0.7204241,18.25736,-24.3642,-52.5222
90.211091518,65.7151899999999,118.894,-48.26171,-0.5184066,0.1211515,0.7065527,18.25736,-24.3642,-52.5222
90.221003532,62.7421600000003,116.1562,-48.07763,-0.5350279,0.1048475,0.6878716,18.25736,-24.3642,-52.5222
90.230916023,59.6452599999998,113.7678,-47.89354,-0.5569777,0.09386802,0.680319,18.25736,-24.3642,-52.5222
90.240828037,56.73417,111.2047,-47.21854,-0.555174,0.08308163,0.6528614,25.03204,-26.22095,-48.69678
90.250740528,54.07084,110.8552,-47.15718,-0.5671382,0.08623008,0.6342668,25.03204,-26.22095,-48.69678
90.260652542,52.27463,108.8747,-46.23674,-0.6388907,0.1046588,0.6206484,25.03204,-26.22095,-48.69678
90.270564556,48.8061,105.496,-45.00948,-0.6858386,0.1447943,0.6194293,25.03204,-26.22095,-48.69678
90.280477047,42.98392,103.399,-44.1504,-0.7071301,0.1609779,0.6125317,25.03204,-26.22095,-48.69678
90.290389061,36.79012,101.5932,-43.78222,-0.7109488,0.1453675,0.60334,31.00229,-28.45053,-44.41629
90.300301552,32.51639,100.3116,-43.6595,-0.7031829,0.1278746,0.5772231,31.00229,-28.45053,-44.41629
90.310213566,30.59631,97.8650399999999,-42.73905,-0.7213799,0.1202761,0.5581345,31.00229,-28.45053,-44.41629
90.320126534,30.16274,95.65147,-42.24815,-0.7323063,0.1146875,0.5351508,31.00229,-28.45053,-44.41629
90.332516193,29.79111,93.9621600000003,-44.70266,-0.748989,0.1051807,0.5184361,35.88329,-28.81245,-41.42094
90.342429161,28.98592,89.7097600000001,-43.72086,-0.7693371,0.1428221,0.5332798,35.88329,-28.81245,-41.42094
90.352340698,24.15475,85.6903800000001,-41.08225,-0.7795224,0.1012731,0.4927639,35.88329,-28.81245,-41.42094
90.362253666,20.8101,85.0496099999997,-41.32771,-0.8078127,0.1724132,0.5352733,35.88329,-28.81245,-41.42094
90.37216568,13.8111,81.7292500000002,-42.0027,-0.8124048,0.1495799,0.5375644,35.88329,-28.81245,-41.42094
90.382078171,6.750161,78.8166500000001,-40.03909,-0.7828552,0.1354234,0.5415182,40.00907,-28.42184,-37.58882
90.391990185,-0.001086392,76.6030699999999,-37.89138,-0.7784157,0.1218402,0.5293827,40.00907,-28.42184,-37.58882
90.401902199,-4.64644,73.6904799999999,-36.72549,-0.7831787,0.101357,0.5177665,40.00907,-28.42184,-37.58882
90.41181469,-7.24783800000001,70.6031200000001,-36.29595,-0.8070653,0.08548493,0.5063579,40.00907,-28.42184,-37.58882
90.421726704,-7.309776,67.5740200000001,-36.23458,-0.807015,0.07673064,0.5010174,40.00907,-28.42184,-37.58882
90.431639195,-6.56652,65.0691799999998,-35.31414,-0.8360654,0.07724003,0.4820831,43.74305,-26.91087,-34.5934
90.441551209,-4.894192,62.1565899999999,-35.31414,-0.8433292,0.06889217,0.4792137,43.74305,-26.91087,-34.5934
90.451463699,-2.230856,60.8750400000001,-34.8846,-0.8322216,0.06310732,0.4589058,43.74305,-26.91087,-34.5934
90.461375713,-0.001086392,60.2342699999997,-35.49823,-0.8409711,0.03570693,0.4319153,43.74305,-26.91087,-34.5934
90.471288681,2.910002,58.8362299999998,-35.86641,-0.8536044,0.01217452,0.4121889,43.74305,-26.91087,-34.5934
90.481200695,7.05985200000002,56.09838,-35.55959,-0.8645579,0.008035185,0.3882547,47.10464,-25.77793,-32.43006
90.491112232,10.34257,53.76831,-35.31414,-0.8677169,0.02153983,0.3821318,47.10464,-25.77793,-32.43006
90.5010252,11.76714,51.08871,-35.49823,-0.8843146,0.0164676,0.3788904,47.10464,-25.77793,-32.43006
90.510937214,11.08582,48.9334,-35.19141,-0.8861535,0.0484508,0.3800808,47.10464,-25.77793,-32.43006
90.520849705,8.05085899999999,47.01108,-33.90279,-0.9107655,0.06805936,0.3871613,47.10464,-25.77793,-32.43006
90.530761719,2.724188,45.38002,-34.08688,-0.9242421,0.0621457,0.4011711,48.58662,-23.89437,-29.87383
90.54067421,-2.41667,43.1082,-32.61417,-0.922139,0.05639324,0.4087959,48.58662,-23.89437,-29.87383
90.550586224,-7.24783800000001,42.64218,-31.20283,-0.9096408,0.04205477,0.4186681,48.58662,-23.89437,-29.87383
90.560498714,-10.77831,43.51596,-30.46647,-0.9034462,-0.0006284039,0.4005606,48.58662,-23.89437,-29.87383
90.570410728,-11.83125,42.93344,-29.85284,-0.9403768,-0.02926651,0.3896677,48.58662,-23.89437,-29.87383
90.580323219,-12.14094,42.9917,-28.74831,-0.9446433,-0.05656893,0.3707991,50.82867,-23.13794,-28.15321
90.590235233,-11.39769,42.58393,-28.01195,-0.930052,-0.06910857,0.3484933,50.82867,-23.13794,-28.15321
90.600147247,-10.03505,40.60336,-26.1097,-0.9326651,-0.06532428,0.3365388,50.82867,-23.13794,-28.15321
90.612537861,-9.84923700000002,39.43832,-23.59382,-0.9287079,-0.03769504,0.3256426,50.82867,-23.13794,-28.15321
90.622450828,-11.27381,37.51601,-22.55066,-0.939442,-0.04123238,0.3237976,50.82867,-23.13794,-28.15321
90.632362366,-12.69839,36.64223,-21.69157,-0.9185138,-0.04101967,0.3144825,51.92855,-20.88322,-26.43137
90.64227438,-13.81327,36.05971,-21.13931,-0.9168701,-0.04676291,0.3249925,51.92855,-20.88322,-26.43137
90.652187347,-14.12296,34.54516,-19.48251,-0.9214194,-0.04006613,0.318357,51.92855,-20.88322,-26.43137
90.662099361,-13.75133,33.90439,-18.13253,-0.9145749,-0.04290771,0.3149137,51.92855,-20.88322,-26.43137
90.672011852,-12.8842,33.38012,-17.64162,-0.9187087,-0.04160892,0.2947939,51.92855,-20.88322,-26.43137
90.681923866,-12.20288,31.16655,-17.88707,-0.9141304,-0.06146135,0.2888574,53.42048,-20.12868,-25.15657
90.691836357,-9.41567000000003,29.65199,-19.11433,-0.9192104,-0.0955197,0.278114,53.42048,-20.12868,-25.15657
90.701748371,-4.832254,27.49667,-18.93024,-0.9455565,-0.09777151,0.2812236,53.42048,-20.12868,-25.15657
90.711660862,-1.239847,25.74911,-19.54387,-0.9430633,-0.1030815,0.2797247,53.42048,-20.12868,-25.15657
90.721572876,1.361551,22.66176,-19.11433,-0.9623418,-0.08342911,0.2824347,53.42048,-20.12868,-25.15657
90.731485367,1.918993,21.14721,-17.5189,-0.9342335,-0.0666194,0.2774852,54.89787,-18.25036,-23.88523
90.741397381,1.547365,19.92392,-15.8621,-0.9180595,-0.06493406,0.2831087,54.89787,-18.25036,-23.88523
90.751309395,0.927984400000002,18.70062,-13.77576,-0.9012632,-0.07195362,0.2915495,54.89787,-18.25036,-23.88523
90.761222362,0.5563561,16.6618,-11.25988,-0.9021751,-0.08119976,0.2871749,54.89787,-18.25036,-23.88523
90.7711339,0.0608516599999998,14.27347,-10.21671,-0.9176948,-0.09547601,0.2829019,54.89787,-18.25036,-23.88523
90.781046867,1.113798,12.11815,-9.41899200000002,-0.9337765,-0.1127231,0.2680508,55.26541,-17.49774,-23.05431
90.790958881,2.290622,10.02108,-8.43718500000001,-0.9570714,-0.09707663,0.2558863,55.26541,-17.49774,-23.05431
90.800871372,2.910002,7.45799500000003,-7.45537899999998,-0.9724118,-0.09492245,0.2406775,55.26541,-17.49774,-23.05431
90.810783386,3.095816,4.545397,-6.22812100000001,-0.9838013,-0.08782079,0.2350683,55.26541,-17.49774,-23.05431
90.820695877,2.910002,1.05028,-5.123589,-0.9983991,-0.08504071,0.2453051,55.26541,-17.49774,-23.05431
90.830607891,2.66225,-1.046791,-4.264508,-0.9936268,-0.1091824,0.2532628,56.39465,-17.87041,-22.60928
90.840520382,2.97194,-2.561342,-3.650879,-0.9707547,-0.1394348,0.2547704,56.39465,-17.87041,-22.60928
90.850432396,3.653259,-4.017641,-2.300895,-0.9648767,-0.1403315,0.25471,56.39465,-17.87041,-22.60928
90.86034441,4.458453,-5.18268,-1.257725,-0.9561894,-0.1378416,0.2464836,56.39465,-17.87041,-22.60928
90.870256901,4.830081,-6.52247499999999,1.012702,-1.002669,-0.09722283,0.243823,56.39465,-17.87041,-22.60928
90.880168915,2.538374,-8.32828599999997,2.853589,-1.00757,-0.09046078,0.2506356,56.39278,-17.49242,-21.77525
90.892559528,-0.992095199999997,-10.60011,4.633114,-0.9975069,-0.1072638,0.2585932,56.39278,-17.49242,-21.77525
90.902471542,-3.097989,-12.87194,5.79900900000001,-0.9722997,-0.1233963,0.2659352,56.39278,-17.49242,-21.77525
90.91238451,-3.345741,-14.26999,6.78081600000001,-0.9447056,-0.1322112,0.2761847,56.39278,-17.49242,-21.77525
90.922296047,-2.540546,-15.20202,8.25352600000003,-0.94565,-0.1263523,0.2863158,56.39278,-17.49242,-21.77525
90.932209015,-2.10698,-16.25055,9.97168700000001,-0.945841,-0.1049883,0.292702,56.76244,-17.49762,-23.06209
90.942121029,-1.921166,-16.48356,11.07622,-0.9377272,-0.09376798,0.2864596,56.76244,-17.49762,-23.06209
90.95203352,-1.239847,-17.93986,12.11939,-0.95071,-0.08431154,0.2712776,56.76244,-17.49762,-23.06209
90.961945534,-0.6204669,-19.45441,11.99666,-0.9261644,-0.09712534,0.2656835,56.76244,-17.49762,-23.06209
90.971858025,1.299613,-21.49323,11.75121,-0.9286426,-0.09473428,0.2652422,56.76244,-17.49762,-23.06209
90.981770039,3.28163,-24.28932,11.81257,-0.9239561,-0.07526657,0.2682095,56.02064,-18.25027,-23.89107
90.991682529,4.768144,-25.62912,11.50576,-0.929063,-0.05251399,0.27369,56.02064,-18.25027,-23.89107
91.001594543,5.20171,-27.78444,11.26031,-0.9634812,-0.03060294,0.2808766,56.02064,-18.25027,-23.89107
91.011506557,3.901011,-29.82326,10.83077,-0.9639835,-0.01793305,0.29441,56.02064,-18.25027,-23.89107
91.021419048,1.795117,-31.33781,10.52395,-0.9504276,-0.02782744,0.3172663,56.02064,-18.25027,-23.89107
91.031331062,1.361551,-32.85236,10.7694,-0.9375168,-0.0668292,0.3384942,55.26891,-18.25399,-24.7866
91.04124403,2.476436,-33.9009,11.38303,-0.9194101,-0.1029318,0.3452886,55.26891,-18.25399,-24.7866
91.051155567,4.953958,-34.25041,12.54893,-0.9035846,-0.1323991,0.3281404,55.26891,-18.25399,-24.7866
91.061068535,8.54636400000002,-34.89118,14.20573,-0.8993946,-0.1222096,0.3195267,55.26891,-18.25399,-24.7866
91.070980549,10.83807,-36.17272,15.61707,-0.8998656,-0.09513764,0.3053067,55.26891,-18.25399,-24.7866
91.08089304,11.14776,-38.09504,16.78297,-0.8896146,-0.05526632,0.3025965,54.52549,-19.00846,-26.0653
91.090805054,9.28962000000002,-40.83288,18.19431,-0.9057986,-0.03012754,0.3274018,54.52549,-19.00846,-26.0653
91.100717068,5.94496599999999,-44.03674,19.23748,-0.9167166,-0.02619523,0.3640209,54.52549,-19.00846,-26.0653
91.110629559,1.918993,-46.48332,20.89428,-0.896716,-0.03937875,0.3915973,54.52549,-19.00846,-26.0653
91.120541573,-0.4965908,-47.76486,22.98062,-0.8830429,-0.06774878,0.4042462,54.52549,-19.00846,-26.0653
91.130454063,-0.4346527,-47.53186,24.94423,-0.8802474,-0.09095026,0.4112681,53.40137,-19.39021,-27.79291
91.140366077,0.680232200000002,-47.64836,26.29422,-0.8856512,-0.09005512,0.4098836,53.40137,-19.39021,-27.79291
91.150278568,2.228683,-49.27942,27.03057,-0.8787242,-0.05554118,0.4105296,53.40137,-19.39021,-27.79291
91.160190582,3.033878,-51.02697,28.25783,-0.8763031,-0.0167468,0.4059641,53.40137,-19.39021,-27.79291
91.17010355,2.66225,-53.35705,30.34417,-0.8848984,0.01275801,0.4129623,53.40137,-19.39021,-27.79291
91.18249321,-0.1869005,-56.26965,31.26461,-0.8869852,0.02827511,0.4183668,51.90645,-20.14815,-29.90289
91.192406178,-1.735352,-57.5511900000003,29.60782,-0.8793927,0.01240371,0.424913,51.90645,-20.14815,-29.90289
91.202317715,-1.859228,-58.8909900000003,28.87146,-0.8964549,0.007338143,0.4240768,51.90645,-20.14815,-29.90289
91.212230682,-2.354732,-60.8133000000001,29.11691,-0.8769275,0.01439617,0.4292249,51.90645,-20.14815,-29.90289
91.222142696,-2.788299,-62.7938699999999,29.48509,-0.8686101,0.02425897,0.4412177,50.04674,-21.65557,-32.07286
91.232055187,-3.407679,-64.8909499999997,29.85327,-0.8572831,0.02980779,0.4555546,50.04674,-21.65557,-32.07286
91.241967201,-4.708378,-66.9880100000002,30.71235,-0.8600766,0.03911236,0.4801305,50.04674,-21.65557,-32.07286
91.251879215,-7.18590000000003,-68.5608099999998,31.20325,-0.8397874,0.03363555,0.4971921,50.04674,-21.65557,-32.07286
91.261791706,-9.72536099999999,-70.2501200000001,31.38734,-0.8260815,0.01406313,0.5233436,50.04674,-21.65557,-32.07286
91.27170372,-10.77831,-70.9491500000003,31.20325,-0.8072922,-0.002668767,0.5240188,47.80655,-22.78999,-34.6275
91.281616211,-9.97311299999999,-71.7646700000001,32.1237,-0.809136,-0.007512961,0.5292852,47.80655,-22.78999,-34.6275
91.291528225,-9.22985600000001,-72.6967100000002,33.28959,-0.8131418,0.01482811,0.5462767,47.80655,-22.78999,-34.6275
91.301440716,-9.78729900000003,-74.6772799999999,34.51685,-0.818718,0.03758479,0.5536822,47.80655,-22.78999,-34.6275
91.31135273,-11.45963,-77.18211,33.65777,-0.786948,0.03602505,0.5504971,47.80655,-22.78999,-34.6275
91.321265698,-11.45963,-76.0753199999998,31.93961,-0.7657697,0.02270942,0.5497323,45.19072,-23.92601,-37.56567
91.331177712,-9.663423,-76.9491000000001,32.55323,-0.8039148,0.02174078,0.548158,45.19072,-23.92601,-37.56567
91.341090202,-8.61047599999998,-80.67722,34.08731,-0.8235577,0.04291539,0.5648061,45.19072,-23.92601,-37.56567
91.351002216,-8.79629,-84.7548599999999,35.9282,-0.799506,0.06228803,0.5964032,45.19072,-23.92601,-37.56567
91.360914707,-10.53056,-85.2791299999999,37.40091,-0.7374912,0.08838823,0.618571,45.19072,-23.92601,-37.56567
91.370826721,-14.61847,-84.8131199999998,39.48724,-0.7003353,0.101046,0.6327164,42.19533,-24.68799,-40.63154
91.380739212,-19.32576,-85.2791299999999,39.24179,-0.6811948,0.08717543,0.623324,42.19533,-24.68799,-40.63154
91.390651226,-22.29879,-85.2791299999999,38.19862,-0.6521139,0.05936477,0.6132666,42.19533,-24.68799,-40.63154
91.40056324,-22.17491,-86.4441700000002,39.11907,-0.6727371,0.06052588,0.6062627,42.19533,-24.68799,-40.63154
91.410475731,-21.36971,-88.6577499999999,40.46905,-0.6799614,0.09146251,0.6055753,42.19533,-24.68799,-40.63154
91.420387745,-22.60847,-90.5217999999998,40.83723,-0.6592997,0.1247074,0.6089668,38.45164,-25.44977,-43.62926
91.430300713,-25.02406,-88.89075,39.97815,-0.6345102,0.1439673,0.6170285,38.45164,-25.44977,-43.62926
91.44021225,-28.24484,-88.6577499999999,39.30315,-0.6515862,0.1491385,0.6268241,38.45164,-25.44977,-43.62926
91.450125218,-32.33275,-90.5800599999997,39.97815,-0.6523048,0.1468221,0.6493828,38.45164,-25.44977,-43.62926
91.462514877,-36.54454,-94.5994399999997,40.46905,-0.6196783,0.1264354,0.6599888,38.45164,-25.44977,-43.62926
91.472427845,-37.53555,-94.5411900000001,39.67133,-0.5673155,0.0819959,0.6596887,34.69341,-25.08776,-46.63046
91.482339859,-35.86322,-94.4246899999997,39.30315,-0.5412258,0.06972843,0.6622465,34.69341,-25.08776,-46.63046
91.49225235,-33.26182,-94.7159499999998,39.54861,-0.5401434,0.0688194,0.6713535,34.69341,-25.08776,-46.63046
91.502164364,-32.20887,-97.5120399999999,39.79406,-0.5576919,0.07838326,0.6879049,34.69341,-25.08776,-46.63046
91.512076855,-33.44763,-101.8809,38.62816,-0.5612752,0.07606613,0.7172123,34.69341,-25.08776,-46.63046
91.521988869,-36.11097,-105.6091,36.48046,-0.5450594,0.04485084,0.7360607,30.20607,-26.2242,-49.62313
91.531900883,-36.35872,-108.8712,36.66455,-0.5031787,0.01919583,0.7369429,30.20607,-26.2242,-49.62313
91.541813374,-35.55353,-110.8517,37.95317,-0.4821914,0.02724422,0.7425643,30.20607,-26.2242,-49.62313
91.551725387,-35.98709,-111.4925,37.52363,-0.4546548,0.02571645,0.7557439,30.20607,-26.2242,-49.62313
91.561637878,-36.35872,-113.9973,36.11229,-0.4719993,0.02563033,0.780872,30.20607,-26.2242,-49.62313
91.571549892,-37.72136,-117.6672,36.11229,-0.4710657,0.04171707,0.7953753,24.62299,-24.74012,-53.00385
91.581462383,-40.8802,-120.1721,35.49866,-0.4430082,0.04948033,0.8225365,24.62299,-24.74012,-53.00385
91.591374397,-44.03904,-121.2206,34.14867,-0.3935039,0.04918523,0.8336005,24.62299,-24.74012,-53.00385
91.601287365,-46.88819,-121.4536,33.71913,-0.3665758,0.04612567,0.8333311,24.62299,-24.74012,-53.00385
91.611199379,-48.43664,-121.2788,33.59641,-0.3188505,0.05052778,0.8194746,24.62299,-24.74012,-53.00385
91.62111187,-49.48959,-120.6963,33.22823,-0.3075221,0.04729684,0.8236698,18.99993,-24.75102,-55.54444
91.631023884,-51.16191,-123.0846,33.16687,-0.3238506,0.06309205,0.8234459,18.99993,-24.75102,-55.54444
91.640936375,-53.51556,-125.706,34.08731,-0.3002836,0.06685098,0.8371775,18.99993,-24.75102,-55.54444
91.650848389,-57.16991,-126.638,32.6146,-0.253505,0.05492008,0.8549114,18.99993,-24.75102,-55.54444
91.660760879,-60.7623100000002,-128.0943,30.83507,-0.2434713,0.03810181,0.8599883,18.99993,-24.75102,-55.54444
91.670672893,-61.81526,-130.3079,28.50328,-0.2138994,0.02249348,0.8644124,12.23283,-22.88565,-57.24978
91.680585384,-60.7623100000002,-128.7351,24.63742,-0.1799959,0.003977536,0.8586938,12.23283,-22.88565,-57.24978
91.690497398,-57.91316,-128.2691,21.63064,-0.175829,-0.004621172,0.8734829,12.23283,-22.88565,-57.24978
91.700409412,-55.99308,-130.3079,19.66702,-0.1792071,0.01145678,0.8966688,12.23283,-22.88565,-57.24978
91.71032238,-55.55952,-133.803,18.25568,-0.1423322,0.009582534,0.9140812,12.23283,-22.88565,-57.24978
91.720233917,-57.16991,-136.1913,16.35343,-0.0834384,0.01043099,0.9361096,5.467341,-21.01844,-58.50541
91.730146885,-56.6744,-133.8613,16.10798,0.01991712,0.004014225,0.9461547,5.467341,-21.01844,-58.50541
91.742536545,-57.5415299999998,-126.5215,13.03983,0.02620556,0.008448661,0.9446856,5.467341,-21.01844,-58.50541
91.752449512,-56.79828,-123.0846,9.787598,0.0009859847,-0.02151846,0.9298342,5.467341,-21.01844,-58.50541
91.762361526,-54.38269,-123.9002,6.78081600000001,-0.02795707,-0.06021712,0.9231218,5.467341,-21.01844,-58.50541
91.772274017,-51.09998,-126.5215,3.958122,-0.01391175,-0.08912957,0.9237598,-0.5676498,-17.65122,-59.38408
91.782186031,-47.63145,-131.2982,2.669501,0.05033688,-0.09456757,0.9360936,-0.5676498,-17.65122,-59.38408
91.792098522,-44.90617,-130.8904,2.485412,0.1261668,-0.08140205,0.9551664,-0.5676498,-17.65122,-59.38408
91.802010536,-43.72935,-125.706,0.889976299999999,0.1530907,-0.06885396,0.9727669,-0.5676498,-17.65122,-59.38408
91.811923027,-42.24284,-121.5701,-2.300895,0.1233747,-0.08624309,0.9633227,-0.5676498,-17.65122,-59.38408
91.821835041,-38.89818,-120.6381,-5.246314,0.09219527,-0.1080391,0.9490611,-7.648516,-15.02779,-58.90578
91.831747532,-34.62445,-120.9876,-9.35762899999997,0.09847183,0.03466874,0.9653188,-7.648516,-15.02779,-58.90578
91.841659546,-31.83724,-121.9196,-12.42577,0.1709915,-0.1182345,0.9439431,-7.648516,-15.02779,-58.90578
91.851572514,-30.22686,-126.5798,-13.46894,0.2046304,-0.104693,0.9499642,-7.648516,-15.02779,-58.90578
91.861484528,-28.61647,-125.5312,-12.67123,0.3044971,-0.1067968,0.9586297,-7.648516,-15.02779,-58.90578
91.871396065,-28.61647,-120.0555,-11.56669,0.3077695,-0.094637,0.9582004,-13.66115,-12.77547,-57.59668
91.881309032,-29.60748,-118.774,-11.13715,0.4856324,-0.2000179,0.9654565,-13.66115,-12.77547,-57.59668
91.891221046,-27.56352,-116.0944,-13.10077,0.3831968,-0.1626479,0.9383236,-13.66115,-12.77547,-57.59668
91.901133537,-25.95313,-117.4925,-15.43256,0.2599969,-0.1507711,0.9068913,-13.66115,-12.77547,-57.59668
91.911045551,-24.03305,-120.4633,-17.45753,0.302639,-0.1760387,0.8871222,-13.66115,-12.77547,-57.59668
91.920958042,-22.54654,-123.5507,-18.74615,0.3515022,-0.1681265,0.8929651,-18.9172,-10.89402,-55.39088
91.930870056,-21.43165,-122.7351,-18.68479,0.3964092,-0.1622376,0.8921089,-18.9172,-10.89402,-55.39088
91.940782547,-21.55553,-119.2983,-17.88707,0.4271337,-0.1536008,0.8942831,-18.9172,-10.89402,-55.39088
91.950694561,-23.10398,-116.0362,-17.70299,0.4332031,-0.1787881,0.8844559,-18.9172,-10.89402,-55.39088
91.960607052,-23.7853,-115.2789,-17.39617,0.4397655,-0.2088453,0.8693101,-18.9172,-10.89402,-55.39088
91.970519066,-19.07801,-112.4828,-17.39617,0.4791816,-0.2555169,0.8436665,-24.90745,-10.13668,-53.24197
91.980432034,-25.51956,-115.2206,-18.07116,0.4819688,-0.2206739,0.9178172,-24.90745,-10.13668,-53.24197
91.990344048,-26.01507,-115.8032,-17.39617,0.5498908,-0.2408211,0.8896858,-24.90745,-10.13668,-53.24197
92.000256538,-26.44864,-114.1139,-16.10755,0.5645304,-0.2343112,0.8943954,-24.90745,-10.13668,-53.24197
92.010168552,-24.34274,-111.9003,-15.00302,0.5814047,-0.2337336,0.8716757,-24.90745,-10.13668,-53.24197
92.020080566,-20.25483,-108.6964,-13.65303,0.5722487,-0.2345162,0.8362234,-29.3926,-9.750161,-50.20028
92.03247118,-14.37072,-106.8906,-13.46894,0.5659233,-0.222145,0.8061144,-29.3926,-9.750161,-50.20028
92.042383671,-11.70738,-107.5314,-14.2053,0.5571274,-0.1981105,0.7871495,-29.3926,-9.750161,-50.20028
92.052295685,-11.14994,-109.0459,-14.75756,0.5833189,-0.1783781,0.7894396,-29.3926,-9.750161,-50.20028
92.062207699,-10.03505,-107.7644,-15.67801,0.6211673,-0.2207303,0.7590376,-34.62466,-9.361867,-46.70498
92.07212019,-15.79529,-109.8615,-15.73937,0.6313401,-0.156261,0.8251546,-34.62466,-9.361867,-46.70498
92.082032204,-17.52956,-107.9391,-13.16213,0.6843927,-0.1645012,0.7914782,-34.62466,-9.361867,-46.70498
92.091944695,-18.21087,-106.0751,-12.11896,0.6857595,-0.1635593,0.782829,-34.62466,-9.361867,-46.70498
92.101856709,-19.13994,-105.4343,-13.10077,0.6855146,-0.1475891,0.7776559,-34.62466,-9.361867,-46.70498
92.111769199,-21.9891,-106.6576,-14.2053,0.7031462,-0.1302805,0.8006557,-38.35991,-8.973717,-43.2817
92.121681213,-28.30678,-106.0751,-15.80074,0.7083276,-0.09812052,0.8190681,-38.35991,-8.973717,-43.2817
92.131594181,-36.54454,-104.91,-16.23028,0.7256395,-0.09829086,0.8381132,-38.35991,-8.973717,-43.2817
92.141506195,-44.84423,-101.6479,-17.27345,0.7286039,-0.1153113,0.8211668,-38.35991,-8.973717,-43.2817
92.151418686,-48.99408,-96.5217599999999,-18.68479,0.7497673,-0.1632689,0.7783977,-38.35991,-8.973717,-43.2817
92.1613307,-54.32076,-94.5994399999997,-19.78932,0.7488115,-0.172538,0.769702,-42.02472,-8.956495,-38.95818
92.171243191,-55.80727,-93.7256600000001,-20.58704,0.7780116,-0.1859007,0.7405334,-42.02472,-8.956495,-38.95818
92.181155205,-58.0989800000003,-91.91985,-22.12111,0.7886629,-0.1853333,0.7308354,-42.02472,-8.956495,-38.95818
92.191067696,-59.6474299999999,-89.5315199999998,-24.02337,0.8069998,-0.1798615,0.7134166,-42.02472,-8.956495,-38.95818
92.20097971,-60.2048700000001,-89.7062800000001,-24.88245,0.8165767,-0.1774053,0.6965389,-42.02472,-8.956495,-38.95818
92.210891724,-61.1339399999999,-87.08494,-26.1097,0.8545862,-0.1852878,0.6745277,-45.02254,-7.820661,-35.92657
92.220804215,-58.0989800000003,-84.4635999999999,-26.78469,0.8747385,-0.2015676,0.66559,-45.02254,-7.820661,-35.92657
92.230716229,-52.89618,-81.6092499999999,-27.64378,0.8723049,-0.2289094,0.6347004,-45.02254,-7.820661,-35.92657
92.240629196,-48.31276,-79.68694,-29.30058,0.8721843,-0.2299478,0.6217303,-45.02254,-7.820661,-35.92657
92.250540733,-41.80927,-78.2888899999998,-30.52783,0.8526045,-0.2458136,0.6011588,-45.02254,-7.820661,-35.92657
92.260453701,-36.66841,-76.3665799999999,-32.30736,0.8636676,-0.243329,0.5861881,-47.63479,-7.432158,-32.44489
92.270365715,-36.79229,-74.5025200000002,-33.35052,0.8604335,-0.223522,0.580108,-47.63479,-7.432158,-32.44489
92.280278206,-34.00507,-73.6869900000002,-34.76188,0.8691534,-0.2307713,0.5636536,-47.63479,-7.432158,-32.44489
92.29019022,-30.90817,-71.9976799999999,-34.76188,0.8991994,-0.2256538,0.5432432,-47.63479,-7.432158,-32.44489
92.300102711,-28.30678,-68.5608099999998,-35.55959,0.9179716,-0.2016673,0.5422691,-47.63479,-7.432158,-32.44489
92.312492848,-27.06802,-65.9977300000002,-35.68232,0.9149491,-0.2144332,0.5186843,-49.49367,-7.418191,-28.96595
92.322405338,-26.44864,-64.8909499999997,-35.68232,0.9048218,-0.1947367,0.5078654,-49.49367,-7.418191,-28.96595
92.332317352,-26.75833,-64.25018,-35.68232,0.8947654,-0.1896375,0.4868655,-49.49367,-7.418191,-28.96595
92.342229843,-27.81127,-63.2016400000001,-36.35731,0.8890563,-0.177194,0.4692353,-49.49367,-7.418191,-28.96595
92.352141857,-29.35972,-61.8035899999999,-36.97094,0.8909758,-0.1923104,0.4479899,-49.49367,-7.418191,-28.96595
92.362054348,-28.55453,-61.1045600000002,-37.27775,0.909969,-0.2033308,0.4275742,-50.97181,-8.157043,-26.38607
92.371966362,-28.80228,-59.3569999999998,-36.66412,0.949477,-0.1911784,0.4320914,-50.97181,-8.157043,-26.38607
92.38187933,-28.61647,-53.24055,-35.31414,0.9701736,-0.2083988,0.4274638,-50.97181,-8.157043,-26.38607
92.391791344,-25.5815,-51.60949,-33.65734,0.9700342,-0.2360279,0.4292016,-50.97181,-8.157043,-26.38607
92.401703835,-25.70538,-49.68718,-32.92099,0.973267,-0.2048644,0.4471452,-50.97181,-8.157043,-26.38607
92.411615849,-24.21886,-48.75515,-32.30736,0.9522504,-0.2182939,0.4323652,-51.69499,-9.268602,-23.35922
92.421528339,-22.9801,-47.59011,-33.47325,0.9253135,-0.1949995,0.4078013,-51.69499,-9.268602,-23.35922
92.431440353,-21.67941,-47.29885,-34.33233,0.9308877,-0.1692249,0.4093619,-51.69499,-9.268602,-23.35922
92.441352368,-19.75933,-46.48332,-35.98913,0.9227346,-0.1543725,0.3946514,-51.69499,-9.268602,-23.35922
92.451264858,-17.2818,-45.37653,-36.66412,0.932353,-0.1504313,0.383545,-51.69499,-9.268602,-23.35922
92.461176872,-16.10498,-43.74548,-37.33912,0.9496495,-0.1615897,0.3405766,-52.41652,-10.75842,-21.23064
92.471089363,-15.17591,-42.63869,-37.33912,0.957393,-0.1561674,0.3391007,-52.41652,-10.75842,-21.23064
92.481001377,-16.29079,-41.35715,-36.5414,0.9703304,-0.1622329,0.3538255,-52.41652,-10.75842,-21.23064
92.490913868,-17.96312,-40.59987,-35.98913,0.97472,-0.1646226,0.3499278,-52.41652,-10.75842,-21.23064
92.500825882,-18.087,-40.19211,-35.13005,0.9764978,-0.1612761,0.3364892,-52.41652,-10.75842,-21.23064
92.51073885,-17.96312,-40.54162,-35.55959,0.9628654,-0.1731244,0.3283736,-52.77327,-11.49875,-19.04206
92.520650864,-17.96312,-38.79406,-34.02552,0.9857738,-0.1543379,0.3431718,-52.77327,-11.49875,-19.04206
92.530563355,-17.46762,-36.23098,-32.12327,0.9716213,-0.165233,0.3331468,-52.77327,-11.49875,-19.04206
92.540475369,-16.04304,-35.06594,-31.20283,0.9683243,-0.1720397,0.3374534,-52.77327,-11.49875,-19.04206
92.550387859,-13.37971,-34.07565,-30.03693,0.9757209,-0.1772813,0.33735,-52.77327,-11.49875,-19.04206
92.560299873,-9.53954700000003,-33.14362,-29.48466,0.972056,-0.1837917,0.3061303,-53.49295,-13.36656,-17.74751
92.570212364,-6.194891,-32.26984,-29.48466,0.9723853,-0.1609418,0.3173231,-53.49295,-13.36656,-17.74751
92.580124378,-3.779308,-31.45431,-29.79148,0.9706721,-0.1440152,0.3131303,-53.49295,-13.36656,-17.74751
92.592514992,-0.682404900000003,-31.1048,-29.79148,0.9807178,-0.1279048,0.3102638,-53.49295,-13.36656,-17.74751
92.602427006,-0.06302445,-30.05627,-29.17785,0.994813,-0.1258201,0.3043854,-53.49295,-13.36656,-17.74751
92.612339497,-0.5585288,-28.59997,-28.25741,1.011705,-0.1159652,0.2942115,-53.84161,-14.85791,-16.00634
92.622251511,0.989922399999999,-27.08542,-26.41652,1.01634,-0.1533491,0.2732728,-53.84161,-14.85791,-16.00634
92.632164478,1.485427,-24.87184,-24.94381,1.01074,-0.1418242,0.2652387,-53.84161,-14.85791,-16.00634
92.642076015,2.414498,-23.5903,-23.90064,0.9979105,-0.1332635,0.2639739,-53.84161,-14.85791,-16.00634
92.651988029,2.166745,-22.36701,-23.10292,0.9804473,-0.1092695,0.2580532,-53.84161,-14.85791,-16.00634
92.661900997,1.795117,-21.90099,-22.91883,0.9802968,-0.09666488,0.2581385,-53.45145,-15.60001,-14.27138
92.671813011,0.1847278,-21.95925,-22.42793,0.9696601,-0.0711315,0.2521649,-53.45145,-15.60001,-14.27138
92.681725502,-2.478608,-21.60973,-21.07795,0.9390233,-0.08752753,0.2494581,-53.45145,-15.60001,-14.27138
92.691637516,-4.460626,-22.134,-20.40295,0.9545602,-0.05641758,0.2274344,-53.45145,-15.60001,-14.27138
92.701550007,-6.318768,-22.19225,-18.37798,0.9805421,-0.06337528,0.2257073,-53.45145,-15.60001,-14.27138
92.711462021,-8.053034,-20.26994,-15.18711,0.9855844,-0.08030778,0.2207463,-53.80008,-17.47145,-13.87819
