Time (s),Gyroscope X (deg/s),Gyroscope Y (deg/s),Gyroscope Z (deg/s),Accelerometer X (g),Accelerometer Y (g),Accelerometer Z (g),Magnetometer X (uT),Magnetometer Y (uT),Magnetometer Z (uT)
45.894890785,2.786126,0.5260119,-0.1531931,1.009327,0.0291213,0.04167652,-52.23478,-11.08128,-23.86468
45.904801369,2.414498,0.642515800000001,-0.03046724,1.006996,0.02329635,0.04598069,-52.23478,-11.08128,-23.86468
45.914711952,2.228683,0.5842639,-0.03046724,1.008274,0.03004562,0.03545036,-52.60903,-11.08131,-23.86273
45.924622536,2.042869,0.46776,0.03089567,1.013226,0.02477362,0.03536944,-52.60903,-11.08131,-23.86273
45.934533119,1.918993,0.2347521,0.1536215,1.00641,0.02811782,0.04217697,-52.60903,-11.08131,-23.86273
45.944443703,1.547365,0.1182482,-0.03046724,1.004426,0.02222506,0.03255289,-52.60903,-11.08131,-23.86273
45.954354286,1.237675,-0.1147597,-0.03046724,0.998915,0.03086925,0.0297805,-52.60903,-11.08131,-23.86273
45.96426487,0.680232200000002,-0.2312636,-0.03046724,1.002913,0.02901178,0.03597321,-52.61227,-10.70489,-23.41417
45.97417593,0.43248,-0.4060195,-0.09183015,1.009738,0.02323342,0.02722874,-52.61227,-10.70489,-23.41417
45.984086514,0.0608516599999998,-0.2312636,-0.09183015,1.012745,0.02038148,0.0310232,-52.61227,-10.70489,-23.41417
45.993997097,0.3086039,0.0599961999999999,0.0922585699999997,1.014746,0.01701477,0.03146242,-52.61227,-10.70489,-23.41417
46.003907681,0.3086039,0.409508,-0.03046724,1.009317,0.01838451,0.02816065,-52.61227,-10.70489,-23.41417
46.013818264,-0.001086392,0.293004,0.3990731,1.007882,0.02277274,0.03636585,-52.60743,-11.07948,-23.41302
46.023729324,-0.1869005,0.5260119,0.5217989,1.01072,0.0291013,0.03446113,-52.60743,-11.07948,-23.41302
46.033640385,-0.2488386,0.875523700000001,0.460436,1.009789,0.03057665,0.04072163,-52.60743,-11.07948,-23.41302
46.043550968,-0.3727147,0.817271699999998,0.3377102,1.000498,0.0289967,0.03887639,-52.60743,-11.07948,-23.41302
46.053461552,-0.3727147,1.108532,-0.1531931,0.9965963,0.02651396,0.0369753,-52.60743,-11.07948,-23.41302
46.063372135,-0.3727147,0.817271699999998,-0.03046724,0.9955549,0.02646869,0.03074257,-52.98814,-10.70675,-23.86194
46.073282719,-0.806281,0.5260119,0.03089567,0.9984507,0.02551007,0.02590782,-52.98814,-10.70675,-23.86194
46.083193302,-1.425662,0.293004,0.03089567,1.002408,0.02411956,0.02874291,-52.98814,-10.70675,-23.86194
46.093103886,-1.983104,0.1765001,0.0922585699999997,1.002791,0.02602149,0.02058936,-52.98814,-10.70675,-23.86194
46.103014469,-2.850237,-0.3477675,0.0922585699999997,1.011248,0.02376191,0.03201988,-52.98814,-10.70675,-23.86194
46.112925053,-3.593493,-0.4060195,0.3990731,1.021652,0.01810759,0.03860821,-52.241,-10.70826,-24.2513
46.125313282,-3.655432,-0.4060195,0.3990731,1.023688,0.01183212,0.03902774,-52.241,-10.70826,-24.2513
46.135223866,-2.974113,-0.580775400000001,0.460436,1.022823,0.006512729,0.04380188,-52.241,-10.70826,-24.2513
46.145134449,-2.045042,-0.3477675,0.6445247,1.018338,0.007389443,0.03664682,-52.241,-10.70826,-24.2513
46.155045033,-1.239847,0.293004,0.767250500000003,1.011045,0.00975799,0.04345227,-52.241,-10.70826,-24.2513
46.16495657,-1.054033,0.46776,0.828613499999998,1.011326,0.02672927,0.04308257,-52.60903,-11.08131,-23.86273
46.174867153,-0.992095199999997,0.642515800000001,0.889976299999999,1.002959,0.02513343,0.03594695,-52.60903,-11.08131,-23.86273
46.184777737,-1.301785,0.5842639,0.767250500000003,1.001414,0.03044029,0.03455611,-52.60903,-11.08131,-23.86273
46.19468832,-1.735352,0.1765001,0.705887599999999,0.9965028,0.02939215,0.03123344,-52.60903,-11.08131,-23.86273
46.204598904,-2.10698,0.001744238,0.5217989,1.000051,0.02218314,0.03499386,-52.60903,-11.08131,-23.86273
46.214509487,-2.354732,-0.2895156,0.3990731,0.9966595,0.01874199,0.03404199,-52.24585,-10.33366,-24.25245
46.224420071,-2.478608,-0.4642715,0.0922585699999997,1.003053,0.01688941,0.035411,-52.24585,-10.33366,-24.25245
46.234330654,-2.045042,-0.5225234,-0.03046724,1.007074,0.01260543,0.04110716,-52.24585,-10.33366,-24.25245
46.244241238,-1.859228,-0.6972793,-0.4600076,1.005043,0.01400494,0.03537338,-52.24585,-10.33366,-24.25245
46.254152298,-1.177909,-0.5225234,-0.766822200000002,1.014949,0.005412858,0.03762531,-52.24585,-10.33366,-24.25245
46.264062882,-1.301785,-0.5225234,-1.012274,1.014468,0.006386563,0.03955688,-52.61388,-10.70672,-23.86388
46.273973465,-0.8682191,-0.4060195,-0.766822200000002,1.01776,0.01562995,0.03766738,-52.61388,-10.70672,-23.86388
46.283884049,-0.6204669,-0.4060195,-0.2759189,1.015369,0.01318836,0.04007402,-52.61388,-10.70672,-23.86388
46.293794632,-0.3727147,-0.1730116,-0.2759189,1.017825,0.01273648,0.04052846,-52.61388,-10.70672,-23.86388
46.303705216,-0.4965908,0.1182482,-0.2759189,1.011955,0.01412563,0.04203247,-52.61388,-10.70672,-23.86388
46.313615799,-0.744343000000003,0.1765001,-0.3986447,1.005008,0.01935295,0.03829028,-52.98169,-11.07951,-23.41107
46.323526383,-1.115971,0.1182482,-0.3986447,1.001538,0.01879762,0.03303692,-52.98169,-11.07951,-23.41107
46.333436966,-1.177909,0.0599961999999999,-0.644096300000003,1.000164,0.01102272,0.03299783,-52.98169,-11.07951,-23.41107
46.34334755,-1.115971,-0.4060195,-0.766822200000002,1.006954,0.01156705,0.02813709,-52.98169,-11.07951,-23.41107
46.35325861,-0.806281,-0.4642715,-0.950910899999997,1.008936,0.007702804,0.02617238,-52.98169,-11.07951,-23.41107
46.363169193,-0.3727147,-0.755531299999998,-1.196362,1.004642,0.006239633,0.03484519,-52.23802,-10.70486,-23.41612
46.373079777,-0.3107767,-0.8720351,-1.319088,1.008051,0.005299816,0.03240662,-52.23802,-10.70486,-23.41612
46.38299036,0.0608516599999998,-1.046791,-1.380451,1.014254,0.01359221,0.02712275,-52.23802,-10.70486,-23.41612
46.392900944,0.1847278,-1.163295,-1.380451,1.007958,0.01061725,0.02956195,-52.23802,-10.70486,-23.41612
46.40528965,0.3705419,-0.988539100000001,-1.012274,1.009404,0.01891772,0.0372864,-52.23802,-10.70486,-23.41612
46.415200234,0.2466658,-0.813783199999999,-0.950910899999997,1.004475,0.01981129,0.034457,-52.60418,-11.45591,-23.86158
46.425110817,0.2466658,-0.813783199999999,-0.766822200000002,1.006484,0.01742435,0.03682331,-52.60418,-11.45591,-23.86158
46.435021401,-0.1249625,-0.4060195,-0.705459200000001,1.005635,0.01357718,0.04496821,-52.60418,-11.45591,-23.86158
46.444931984,-0.1869005,0.001744238,-0.828185100000001,1.006623,0.01066783,0.0425389,-52.60418,-11.45591,-23.86158
46.454842568,-0.06302445,0.642515800000001,-0.828185100000001,1.009979,0.01213923,0.03771609,-52.60418,-11.45591,-23.86158
46.464753151,0.2466658,0.700767799999999,-0.582733500000001,1.011021,0.006331317,0.03718759,-52.59933,-11.8305,-23.86042
46.474663735,0.618294100000002,0.9920276,-0.766822200000002,1.007536,0.008694938,0.03387447,-52.59933,-11.8305,-23.86042
46.484574795,1.113798,0.5260119,-0.828185100000001,1.004546,0.01301909,0.03345077,-52.59933,-11.8305,-23.86042
46.494485378,1.299613,0.2347521,-0.828185100000001,1.002163,0.003752183,0.02860949,-52.59933,-11.8305,-23.86042
46.504395962,1.733179,-0.1147597,-0.582733500000001,1.00598,0.01204479,0.0291096,-52.59933,-11.8305,-23.86042
46.514306545,1.918993,-0.6972793,-0.644096300000003,1.00642,0.01202539,0.02430381,-52.97684,-11.45411,-23.40992
46.524217129,2.042869,-1.046791,-0.950910899999997,1.001617,0.01054595,0.03106059,-52.97684,-11.45411,-23.40992
46.534127712,2.414498,-1.221547,-1.012274,1.007052,0.01161801,0.03773969,-52.97684,-11.45411,-23.40992
46.54403925,2.66225,-1.163295,-1.380451,1.005617,0.007713801,0.03628648,-52.97684,-11.45411,-23.40992
46.553949833,3.28163,-1.163295,-1.687266,1.006642,0.008726106,0.04204564,-52.97684,-11.45411,-23.40992
46.563860416,3.653259,-0.930287099999998,-1.932717,1.008611,0.009245382,0.04395152,-52.23802,-10.70486,-23.41612
46.573771,3.962949,-0.8720351,-2.300895,0.9992374,0.01542721,0.04311907,-52.23802,-10.70486,-23.41612
46.583681583,4.458453,-0.8720351,-2.362258,0.999594,0.01536449,0.03015108,-52.23802,-10.70486,-23.41612
46.593592167,5.325586,-0.6972793,-2.300895,1.004532,0.01252411,0.03152697,-52.23802,-10.70486,-23.41612
46.60350275,6.93597599999999,-0.4060195,-2.362258,1.013811,0.01507364,0.03337877,-52.23802,-10.70486,-23.41612
46.613413334,7.30760400000002,0.1182482,-2.975887,1.018675,0.02585332,0.04348892,-52.61388,-10.70672,-23.86388
46.623323917,6.750161,-0.2895156,-2.975887,1.020541,0.02924568,0.03869268,-52.61388,-10.70672,-23.86388
46.633234978,6.13078099999997,-1.221547,-2.791798,1.026591,0.03550718,0.01611101,-52.61388,-10.70672,-23.86388
46.643145561,6.13078099999997,-0.813783199999999,-3.03725,1.041741,0.04349798,0.02466698,-52.61388,-10.70672,-23.86388
46.653056145,5.697214,-0.755531299999998,-3.03725,1.02886,0.0539826,0.02053454,-52.61388,-10.70672,-23.86388
46.662966728,4.953958,-2.328334,-3.712242,1.010194,0.05663257,0.01544308,-51.86376,-10.70483,-23.41806
46.672877312,4.086825,-2.619594,-4.632685,0.9999007,0.06868602,0.02714237,-51.86376,-10.70483,-23.41806
46.685266018,1.857055,-2.50309,-5.859943,0.9944341,0.07979239,0.03158834,-51.86376,-10.70483,-23.41806
46.695176601,-0.4346527,-1.862319,-7.51674200000002,1.011532,0.08390111,0.03481869,-51.86376,-10.70483,-23.41806
46.705087185,-2.664423,-0.2895156,-9.23490300000001,1.015367,0.08293424,0.02613394,-51.86376,-10.70483,-23.41806
46.714997768,-5.265821,0.2347521,-10.33944,1.025076,0.08789852,0.0251169,-52.60418,-11.45591,-23.86158
46.724908352,-7.00008600000001,0.700767799999999,-10.64625,1.031521,0.08704864,0.03273417,-52.60418,-11.45591,-23.86158
46.734818935,-7.929157,1.399791,-9.60308100000002,1.034524,0.08126757,0.03266788,-52.60418,-11.45591,-23.86158
46.744729519,-7.86721900000001,1.749303,-7.70083,1.028148,0.08703162,0.03756683,-52.60418,-11.45591,-23.86158
46.754640102,-8.548538,2.506578,-5.79858000000001,1.016352,0.09465785,0.04060768,-52.60418,-11.45591,-23.86158
46.764551163,-9.53954700000003,2.623082,-4.878137,1.008173,0.1051064,0.01818549,-51.85891,-11.07942,-23.41691
46.774461746,-11.95513,2.972594,-3.344064,0.9947653,0.122395,0.01842467,-51.85891,-11.07942,-23.41691
46.78437233,-16.47661,4.079382,-3.650879,0.9971218,0.1462821,0.03776834,-51.85891,-11.07942,-23.41691
46.794282913,-22.79429,4.894909,-5.92130599999998,0.9904931,0.1777682,0.04812273,-51.85891,-11.07942,-23.41691
46.804193497,-27.06802,3.962878,-8.80536299999997,0.9912001,0.18642,0.03184845,-51.85891,-11.07942,-23.41691
46.81410408,-33.8812,0.5260119,-9.29626599999999,0.9708056,0.1772078,-0.01267903,-52.58803,-12.57786,-23.4084
46.824014664,-35.73934,0.1182482,-8.62127400000002,0.9771092,0.1472643,-0.005254276,-52.58803,-12.57786,-23.4084
46.833925247,-38.21686,0.293004,-8.13037100000001,0.9927498,0.1203882,0.01026725,-52.58803,-12.57786,-23.4084
46.843835831,-40.75632,3.788122,-7.20992699999999,1.034982,0.08223304,0.03074945,-52.58803,-12.57786,-23.4084
46.853746414,-41.93315,10.07933,-5.000863,1.088774,0.04218254,0.03190579,-52.58803,-12.57786,-23.4084
46.863657951,-42.92416,15.20551,-3.46679,1.047953,0.01619401,0.07388393,-52.22646,-11.83204,-24.24784
46.873568535,-45.03005,17.65209,-2.484983,1.001542,-0.0138747,0.09043822,-52.22646,-11.83204,-24.24784
46.883479118,-46.20687,15.96278,-2.791798,0.9816992,-0.04621428,0.07264043,-52.22646,-11.83204,-24.24784
46.893389702,-44.03904,15.20551,-1.257725,0.9863439,-0.05139807,0.09032879,-52.22646,-11.83204,-24.24784
46.903300285,-39.5795,15.32201,1.135428,1.009542,-0.07050947,0.08902661,-52.22646,-11.83204,-24.24784
46.913210869,-32.70438,15.32201,3.528581,1.028775,-0.08921015,0.08296226,-51.86003,-11.46081,-25.08612
46.923121929,-27.3777,16.13754,4.939929,1.004783,-0.08757617,0.08175455,-51.86003,-11.46081,-25.08612
46.933032513,-23.84724,16.95306,5.492195,0.983481,-0.09993006,0.08811131,-51.86003,-11.46081,-25.08612
46.942943096,-20.44064,16.6618,5.308106,0.9677057,-0.09238808,0.08446619,-51.86003,-11.46081,-25.08612
46.95285368,-18.27281,16.5453,3.528581,0.9737834,-0.05050229,0.1062961,-51.86003,-11.46081,-25.08612
46.965242386,-19.69739,16.4288,1.258154,1.01105,-0.01071807,0.1153395,-51.50007,-10.71682,-26.37526
46.975152969,-23.47561,12.64242,2.055871,1.052176,-0.06481051,0.05697985,-51.50007,-10.71682,-26.37526
46.985063553,-20.81227,15.67152,1.871783,1.02112,-0.06068825,0.08514369,-51.50007,-10.71682,-26.37526
46.994974136,-20.13095,15.67152,4.510388,1.038692,-0.1036503,0.07941324,-51.50007,-10.71682,-26.37526
47.00488472,-17.34374,16.89481,7.08763000000002,1.050537,-0.1427101,0.09200774,-51.51115,-9.969201,-26.76304
47.014795303,-12.8842,19.74916,11.4444,1.104324,-0.1488649,0.08474709,-51.51115,-9.969201,-26.76304
47.024705887,-8.98210400000001,22.487,16.29206,1.11801,-0.1050421,0.08779342,-51.51115,-9.969201,-26.76304
47.03461647,-5.327759,24.58407,20.64883,1.105257,-0.06937275,0.07806567,-51.51115,-9.969201,-26.76304
47.044527531,-4.33675,26.27338,24.14652,1.067437,-0.04505475,0.09010124,-51.51115,-9.969201,-26.76304
47.054438114,-6.62845799999998,26.68114,28.62601,1.016241,-0.05781729,0.08952937,-51.15118,-9.22521,-28.05219
47.064348698,-9.84923700000002,24.58407,34.51685,0.9774215,-0.07473765,0.09889866,-51.15118,-9.22521,-28.05219
47.074259281,-10.96412,24.0598,39.60997,0.9921073,-0.06137434,0.1161376,-51.15118,-9.22521,-28.05219
47.084169865,-8.67241400000003,26.27338,38.99634,1.022456,-0.07707498,0.1008674,-51.15118,-9.22521,-28.05219
47.094080448,-3.965122,26.21513,39.18043,1.045925,-0.03898142,0.09754302,-51.15118,-9.22521,-28.05219
47.103991032,-0.3107767,25.34135,35.2532,1.001712,-0.005741798,0.0688837,-50.04811,-8.170563,-29.73166
47.113901615,1.05186,21.67147,35.74411,0.9993628,0.02183398,0.06284709,-50.04811,-8.170563,-29.73166
47.123812199,0.3705419,17.30258,35.80547,0.9483632,0.1059896,0.05187543,-50.04811,-8.170563,-29.73166
47.133722782,-1.673414,12.70067,32.67596,0.922692,0.1721246,0.05783517,-50.04811,-8.170563,-29.73166
47.143633843,-5.76132499999998,10.25409,26.84649,0.9101884,0.2423095,0.0651406,-50.04811,-8.170563,-29.73166
47.153544903,-11.52156,7.574499,20.77156,0.9013437,0.2641279,0.08649471,-50.45446,-5.926419,-30.57181
47.163455486,-18.52057,4.487145,15.37162,0.9047262,0.2302518,0.09055917,-50.45446,-5.926419,-30.57181
47.17336607,-25.14794,1.574547,11.62849,0.9148126,0.1800507,0.1093378,-50.45446,-5.926419,-30.57181
47.183276653,-27.99709,-0.2895156,6.90354199999998,0.8902399,0.1152982,0.1168162,-50.45446,-5.926419,-30.57181
47.193187237,-25.33375,-1.687563,1.564968,0.9058926,0.03696941,0.1209512,-50.45446,-5.926419,-30.57181
47.203098297,-18.27281,-2.50309,-5.430403,0.9350361,-0.01641396,0.1347308,-50.10605,-4.055243,-31.02924
47.213008881,-11.21187,-3.260366,-12.91668,0.9539682,-0.04429099,0.1362906,-50.10605,-4.055243,-31.02924
47.222919464,-9.60148500000001,-2.852602,-21.63021,0.988179,-0.012412,0.1241826,-50.10605,-4.055243,-31.02924
47.235307217,-0.806281,-5.93995599999998,-30.09829,0.9539906,-0.08793352,0.1350393,-50.10605,-4.055243,-31.02924
47.245218754,3.591321,-9.84283699999999,-38.38229,0.9589131,-0.08492837,0.141736,-50.10605,-4.055243,-31.02924
47.255129337,7.617294,-12.46418,-44.51858,0.9906104,-0.08164783,0.1371433,-50.48654,-3.682246,-31.41391
47.265039921,11.45745,-13.39621,-48.93671,1.027719,-0.0777953,0.1363456,-50.48654,-3.682246,-31.41391
47.274950504,15.04986,-13.80397,-50.28669,1.062742,-0.0725713,0.1245327,-50.48654,-3.682246,-31.41391
47.284861088,17.52738,-13.92048,-49.67306,1.079977,-0.05010317,0.1149199,-50.48654,-3.682246,-31.41391
47.294771671,19.26165,-13.80397,-46.60492,1.084221,-0.03744645,0.1144848,-50.48654,-3.682246,-31.41391
47.304682255,19.26165,-12.28942,-40.8368,1.098924,-0.04163505,0.1128804,-50.08829,-5.175368,-30.12635
47.314592838,18.2087,-11.5904,-34.94596,1.069009,-0.03327411,0.1141731,-50.08829,-5.175368,-30.12635
47.324503422,16.908,-10.77487,-30.5892,1.049751,-0.0431186,0.1320515,-50.08829,-5.175368,-30.12635
47.334414482,16.84606,-10.36711,-27.09151,1.041662,-0.05432621,0.1406945,-50.08829,-5.175368,-30.12635
47.344325066,18.02289,-9.37682200000001,-22.48929,1.064183,-0.05890754,0.1380549,-50.08829,-5.175368,-30.12635
47.354235649,22.1108,-5.998208,-16.90527,1.100259,-0.05997369,0.1261903,-50.04811,-8.170563,-29.73166
47.364146233,27.12778,-4.308901,-8.74399900000002,1.074508,-0.02436384,0.1362689,-50.04811,-8.170563,-29.73166
47.374056816,29.54336,-4.192397,-1.073637,1.05711,0.003567086,0.1414174,-50.04811,-8.170563,-29.73166
47.3839674,28.67623,-5.532192,5.86037199999999,1.035084,0.005230444,0.1411521,-50.04811,-8.170563,-29.73166
47.393877983,22.54436,-3.784633,11.56712,0.9782836,-0.008931951,0.1646306,-50.04811,-8.170563,-29.73166
47.403788567,18.7042,-1.046791,15.31026,0.9315152,-0.04211324,0.1427548,-50.02815,-9.604943,-29.34176
47.41369915,19.75715,1.691051,15.55571,0.8941884,-0.06778242,0.1443695,-50.02815,-9.604943,-29.34176
47.423610687,23.59731,4.778405,13.77619,0.8962213,-0.07796171,0.1399614,-50.02815,-9.604943,-29.34176
47.433521271,29.29561,6.52596399999999,11.13758,0.9482022,-0.07504341,0.1102105,-50.02815,-9.604943,-29.34176
47.443431854,34.8081,7.74925499999999,12.18075,1.045798,-0.07343327,0.09251309,-50.02815,-9.604943,-29.34176
47.453342438,36.1088,9.84632599999999,14.51254,1.103674,-0.06213436,0.07524759,-50.4008,-9.603144,-28.89011
47.463253021,34.62228,8.79779099999998,19.78975,1.071868,-0.05961777,0.07603866,-50.4008,-9.603144,-28.89011
47.473163605,31.15375,4.195886,26.47831,0.9632439,-0.077353,0.09613141,-50.4008,-9.603144,-28.89011
47.483074665,29.41949,-2.619594,30.34417,0.833415,-0.06788844,0.08299039,-50.4008,-9.603144,-28.89011
47.492985249,30.906,-9.90108999999998,28.56465,0.7571455,-0.06249779,0.09045389,-50.4008,-9.603144,-28.89011
47.502895832,32.64027,-11.29914,22.73517,0.7682152,-0.0287902,0.1126634,-50.02169,-9.977708,-28.8909
47.515284538,34.06484,-8.38653900000002,14.26709,0.8670725,0.05125935,0.07146893,-50.02169,-9.977708,-28.8909
47.525195122,34.8081,-7.97877500000003,9.05124299999999,0.9650261,0.1230425,0.02782702,-50.02169,-9.977708,-28.8909
47.535105705,34.25066,-8.85255399999999,5.98309800000002,1.068385,0.1722286,0.007992486,-50.02169,-9.977708,-28.8909
47.545016289,29.23367,-13.45446,6.044461,1.096871,0.1519223,0.04408578,-50.02169,-9.977708,-28.8909
47.554926872,22.48243,-19.92043,8.92851700000003,1.097782,0.1094694,0.08316751,-50.77047,-9.597945,-27.60327
47.564837456,18.33258,-24.87184,13.5921,1.081272,0.08127647,0.1090609,-50.77047,-9.597945,-27.60327
47.574748039,15.42149,-26.26989,16.53752,1.03198,0.04680819,0.1256125,-50.77047,-9.597945,-27.60327
47.584658623,14.49242,-25.86213,19.23748,0.9685509,0.003404411,0.1359933,-50.77047,-9.597945,-27.60327
47.594569206,15.23567,-23.06603,19.36021,0.9279854,-0.03148013,0.1447789,-50.77047,-9.597945,-27.60327
47.60447979,16.72219,-20.26994,18.93067,0.9257692,-0.06505036,0.1277702,-51.1288,-10.72019,-27.21239
47.61439085,18.82808,-18.58063,17.33524,0.9393538,-0.08590987,0.09293424,-51.1288,-10.72019,-27.21239
47.624301433,23.22568,-16.65832,13.5921,0.9729739,-0.03604102,0.09199522,-51.1288,-10.72019,-27.21239
47.634212017,27.0039,-14.32824,7.946711,0.9773917,0.011819,0.05434071,-51.1288,-10.72019,-27.21239
47.6441226,29.1098,-15.95929,2.362686,0.9653689,0.07566434,0.05343676,-51.1288,-10.72019,-27.21239
47.654033184,28.36654,-19.33791,-4.448596,0.9565973,0.1419023,0.0385941,-51.51301,-9.591208,-25.92901
47.663944244,24.58832,-24.28932,-9.97125800000001,0.9637143,0.1923644,0.02878114,-51.51301,-9.591208,-25.92901
47.673855305,20.25266,-28.0757,-16.41436,0.9977735,0.2112422,0.03435381,-51.51301,-9.591208,-25.92901
47.683765888,15.48343,-30.63879,-23.4711,1.047682,0.2089579,0.03483734,-51.51301,-9.591208,-25.92901
47.693676472,11.08582,-30.9883,-29.60739,1.088729,0.1960483,0.06462169,-51.51301,-9.591208,-25.92901
47.703587055,7.74116999999998,-30.05627,-34.02552,1.120457,0.1561787,0.06022139,-51.50864,-9.586241,-24.70837
47.713497639,4.024887,-27.84269,-37.40048,1.122986,0.1106478,0.06277563,-51.50864,-9.586241,-24.70837
47.723408222,3.653259,-26.44465,-38.50501,1.114475,0.05776639,0.07690679,-51.50864,-9.586241,-24.70837
47.733318806,5.387524,-25.10485,-37.40048,1.105064,0.03442074,0.08548114,-51.50864,-9.586241,-24.70837
47.743229389,9.28962000000002,-23.41554,-35.06869,1.077196,0.0145606,0.06255897,-51.50864,-9.586241,-24.70837
47.753139973,12.32458,-21.95925,-31.20283,1.063321,0.03575712,0.06955071,-52.23664,-10.70329,-23.03065
47.763050556,12.88203,-18.34762,-25.25062,1.054475,0.07098516,0.05882357,-52.23664,-10.70329,-23.03065
47.772961616,10.15675,-13.62922,-17.5189,1.042082,0.107569,0.03757478,-52.23664,-10.70329,-23.03065
47.7828722,4.272639,-8.96905800000002,-10.09398,1.016513,0.1342447,0.007258846,-52.23664,-10.70329,-23.03065
47.795260906,-4.956131,-2.619594,-2.300895,1.028235,0.1187751,-0.01215895,-52.58504,-12.57446,-22.57322
47.80517149,-11.088,1.691051,2.424049,1.033914,0.0877795,-0.01914018,-52.58504,-12.57446,-22.57322
47.815082073,-14.80428,3.671618,5.492195,1.023847,0.05653606,-0.03606077,-52.58504,-12.57446,-22.57322
47.824992657,-14.1849,3.380358,8.00807399999998,1.023956,0.0346414,-0.05109254,-52.58504,-12.57446,-22.57322
47.83490324,-10.90218,4.195886,10.89213,1.021182,0.02785863,-0.04342954,-52.58504,-12.57446,-22.57322
47.844813824,-7.80528100000003,4.428894,13.1012,0.9990755,0.04362683,-0.03495735,-52.94822,-13.32212,-22.1835
47.854724407,-5.080007,4.953161,14.45118,1.011662,0.07396417,-0.01182405,-52.94822,-13.32212,-22.1835
47.864634991,-4.274812,6.75897199999999,14.26709,1.026723,0.1014206,0.01078701,-52.94822,-13.32212,-22.1835
47.874545574,-6.38070599999998,9.32205800000003,12.97847,1.027585,0.1218603,0.02339933,-52.94822,-13.32212,-22.1835
47.884456158,-9.84923700000002,11.53563,11.4444,1.02821,0.1170592,0.03104409,-52.94822,-13.32212,-22.1835
47.894367695,-13.87521,12.70067,9.84896099999999,1.029789,0.1142094,0.03869303,-52.56911,-13.69668,-22.18429
47.904278278,-18.45863,14.27347,8.00807399999998,1.001958,0.1090026,0.03651495,-52.56911,-13.69668,-22.18429
47.914188862,-22.29879,13.86571,7.21035599999999,0.9595289,0.08999101,0.02525688,-52.56911,-13.69668,-22.18429
47.924099445,-24.34274,11.71039,7.45580799999998,0.9447356,0.08974259,0.01290792,-52.56911,-13.69668,-22.18429
47.934010029,-24.46662,9.90457699999998,10.33986,0.9549065,0.09908882,0.0143166,-52.56911,-13.69668,-22.18429
47.943920612,-24.40468,7.98226299999999,13.5921,0.9626081,0.1059527,0.01044984,-52.22209,-11.82708,-23.02719
47.953831673,-25.76732,6.75897199999999,15.18753,0.9749277,0.1007896,0.01366261,-52.22209,-11.82708,-23.02719
47.963742256,-29.60748,6.40946000000002,15.80116,0.9724094,0.08292031,0.03325335,-52.22209,-11.82708,-23.02719
47.97365284,-34.37671,7.34149200000003,14.14436,0.9630052,0.06640762,0.050516,-52.22209,-11.82708,-23.02719
47.983563423,-38.2788,8.50653100000001,12.61029,0.9575223,0.0309245,0.04648906,-52.22209,-11.82708,-23.02719
47.993474007,-38.03105,9.03079800000001,12.73302,0.9819142,0.009010755,0.06292302,-52.98952,-10.70832,-24.24741
48.00338459,-36.54454,9.90457699999998,12.61029,0.9892668,-0.02234697,0.07561038,-52.98952,-10.70832,-24.24741
48.013295174,-34.25283,10.25409,12.24211,1.02174,-0.05719945,0.1019668,-52.98952,-10.70832,-24.24741
48.023205757,-32.95213,12.1764,11.87394,1.053967,-0.08339955,0.1144584,-52.98952,-10.70832,-24.24741
48.033117294,-31.34174,13.22494,12.79438,1.082035,-0.09514266,0.1198825,-52.98952,-10.70832,-24.24741
48.043027878,-28.61647,15.67152,14.14436,1.0921,-0.1182862,0.1205956,-52.25716,-9.586301,-24.70447
48.052938461,-25.64344,18.58412,16.29206,1.08702,-0.1023487,0.1207487,-52.25716,-9.586301,-24.70447
48.062849045,-24.77631,20.33168,16.29206,1.059653,-0.09220073,0.08649803,-52.25716,-9.586301,-24.70447
48.075236797,-25.27181,19.34139,15.00345,1.028234,-0.1009506,0.06416288,-52.25716,-9.586301,-24.70447
48.085147858,-24.71437,18.46762,15.31026,0.9918952,-0.1080658,0.08845945,-52.25716,-9.586301,-24.70447
48.095058441,-21.36971,19.05013,14.32845,0.9818978,-0.1051266,0.1183413,-51.89212,-9.216641,-25.92822
48.104969502,-18.087,21.20546,12.48757,0.998106,-0.1195209,0.1084923,-51.89212,-9.216641,-25.92822
48.114880085,-13.25583,21.96273,14.083,1.02708,-0.1639725,0.06855527,-51.89212,-9.216641,-25.92822
48.124790669,-10.03505,19.10839,17.70341,1.011558,-0.1482543,0.05151785,-51.89212,-9.216641,-25.92822
48.134701252,-9.60148500000001,15.03075,20.40338,1.004589,-0.1391359,0.05020257,-51.89212,-9.216641,-25.92822
48.144612312,-7.12396199999998,12.64242,23.41016,0.9895427,-0.1421947,0.05752372,-52.29441,-7.411357,-27.21674
48.154522896,-3.779308,12.75892,23.8397,1.004412,-0.1665366,0.09611686,-52.29441,-7.411357,-27.21674
48.164433479,-1.549538,16.13754,22.79653,0.9856315,-0.1622345,0.1294501,-52.29441,-7.411357,-27.21674
48.174344063,0.742170199999999,18.58412,19.17612,0.9555264,-0.1544603,0.1115343,-52.29441,-7.411357,-27.21674
48.184254646,3.777135,19.16664,15.12617,0.9420786,-0.1367048,0.1084159,-52.29441,-7.411357,-27.21674
48.19416523,8.54636400000002,21.26371,9.35805800000003,0.9483591,-0.1017911,0.09418563,-51.18618,-6.28748,-27.22604
48.204075813,11.08582,21.67147,4.264936,0.9591136,-0.1040967,0.09118986,-51.18618,-6.28748,-27.22604
48.213986397,13.99691,19.92392,2.608138,1.006725,-0.02025034,0.06393909,-51.18618,-6.28748,-27.22604
48.22389698,8.48442599999998,17.8851,-2.178169,1.067606,0.01892712,0.0862045,-51.18618,-6.28748,-27.22604
48.233808041,5.449462,17.8851,-1.809992,1.116659,0.06351491,0.05819872,-51.18618,-6.28748,-27.22604
48.243719101,1.113798,17.06957,-2.484983,1.09947,0.09228136,0.0369422,-51.58096,-5.170522,-28.89792
48.253629685,-4.522564,13.74921,1.196791,1.074401,0.1055586,0.03966329,-51.58096,-5.170522,-28.89792
48.263540268,-11.39769,12.40941,3.099041,1.055071,0.09518854,0.0498563,-51.58096,-5.170522,-28.89792
48.273450852,-16.53855,10.02108,6.044461,1.010073,0.04559857,0.03841828,-51.58096,-5.170522,-28.89792
48.283361435,-18.89219,8.33177500000003,10.52395,1.025152,0.02111745,0.04963953,-51.58096,-5.170522,-28.89792
48.293272495,-17.83924,8.39002600000001,9.787598,0.9911479,0.04104446,0.04720581,-51.19376,-6.296107,-29.34612
48.303183079,-15.05203,8.39002600000001,8.06943700000002,1.018846,0.07398637,0.06877623,-51.19376,-6.296107,-29.34612
48.313093662,-12.8842,8.73953799999999,4.939929,1.00947,0.1238209,0.07111558,-51.19376,-6.296107,-29.34612
48.323004246,-13.62746,6.70071999999997,3.835396,0.9997331,0.1434725,0.05068974,-51.19376,-6.296107,-29.34612
48.332914829,-17.59149,3.263854,6.90354199999998,1.011519,0.1548653,0.06890266,-51.19376,-6.296107,-29.34612
48.342825413,-20.37871,-1.105043,8.80579200000003,0.9328549,0.1275687,0.04303961,-51.21614,-4.801125,-30.18591
48.355214119,-21.92716,-6.23121499999997,10.70804,0.8492558,0.0126392,0.05313041,-51.21614,-4.801125,-30.18591
48.365124703,-20.81227,-7.27975100000002,9.54214699999998,0.8596618,-0.05690782,0.08042002,-51.21614,-4.801125,-30.18591
48.375035286,-19.75933,-7.862271,6.65808999999999,0.8855802,-0.1007235,0.07700749,-51.21614,-4.801125,-30.18591
48.38494587,-18.76832,-10.01759,1.564968,0.8850334,-0.1273406,0.08787885,-51.21614,-4.801125,-30.18591
48.394856453,-17.09599,-12.93019,-4.448596,0.8805504,-0.1535318,0.09686883,-50.46117,-5.17383,-29.73894
48.404767037,-13.87521,-16.48356,-11.68942,0.8754584,-0.1729622,0.1020682,-50.46117,-5.17383,-29.73894
48.41467762,-9.72536099999999,-18.87189,-19.42115,0.8697758,-0.1797687,0.1121588,-50.46117,-5.17383,-29.73894
48.42458868,-5.080007,-20.73595,-27.33696,0.8840072,-0.1771253,0.1202074,-50.46117,-5.17383,-29.73894
48.434499264,0.0608516599999998,-21.95925,-35.31414,0.9249252,-0.1581549,0.1271578,-50.46117,-5.17383,-29.73894
48.444410324,4.024887,-23.82331,-42.18679,0.9791552,-0.1128687,0.1279183,-50.85344,-3.67391,-29.35614
48.454320908,5.635276,-25.51262,-46.48219,1.049979,-0.0630002,0.1309566,-50.85344,-3.67391,-29.35614
48.464231491,4.706205,-26.96891,-47.34127,1.108541,-0.01281655,0.1307493,-50.85344,-3.67391,-29.35614
48.474142075,1.547365,-27.02717,-44.51858,1.154657,0.02124928,0.1377521,-50.85344,-3.67391,-29.35614
48.484053135,-2.41667,-25.39611,-39.05728,1.200531,0.03592496,0.1460685,-50.85344,-3.67391,-29.35614
48.493963719,-7.24783800000001,-22.48351,-31.26419,1.188416,0.020219,0.1383934,-51.56528,-5.912915,-27.22525
48.503874302,-10.96412,-21.60973,-23.65519,1.114449,-0.01662457,0.1301892,-51.56528,-5.912915,-27.22525
48.513784886,-12.51257,-19.68742,-18.07116,1.074829,-0.04761096,0.1404325,-51.56528,-5.912915,-27.22525
48.523695469,-13.19389,-15.84279,-16.29164,1.0579,-0.02163607,0.1412422,-51.56528,-5.912915,-27.22525
48.533606053,-8.48660000000001,-9.95934199999999,-15.92346,1.066032,-0.1199054,0.151556,-51.56528,-5.912915,-27.22525
48.543516636,-1.4876,-3.493374,-16.90527,1.084455,-0.1182916,0.1379519,-51.92824,-6.660305,-26.77129
48.553427219,7.24566599999997,1.807555,-16.47573,1.102311,-0.1118461,0.1224647,-51.92824,-6.660305,-26.77129
48.563338756,14.86405,5.94344499999998,-14.02121,1.103368,-0.09447985,0.1028841,-51.92824,-6.660305,-26.77129
48.57324934,21.18173,8.97254599999999,-8.49854900000003,1.079553,-0.09105095,0.07335738,-51.92824,-6.660305,-26.77129
48.583159923,25.02188,9.14730199999998,-2.239532,0.9962024,-0.1009905,0.03997077,-51.92824,-6.660305,-26.77129
48.593070507,27.0039,7.16673599999998,2.914952,0.923525,-0.1027859,0.05551586,-52.67191,-7.034961,-26.76624
48.60298109,29.29561,7.10848400000002,3.467218,0.9111164,-0.0810838,0.06297757,-52.67191,-7.034961,-26.76624
48.612891674,32.02089,7.98226299999999,-0.4600076,0.9410443,-0.04627172,0.06581366,-52.67191,-7.034961,-26.76624
48.62528038,35.92299,10.02108,-5.307677,1.042707,-0.01551172,0.04971331,-52.67191,-7.034961,-26.76624
48.635190964,37.96694,11.59388,-5.859943,1.125881,0.009697545,0.03614777,-52.67191,-7.034961,-26.76624
48.645101547,37.34756,11.24437,-2.853161,1.171641,0.03772419,0.001339902,-51.91045,-8.160517,-27.21638
48.655012131,34.18872,7.51624699999999,2.976315,1.121794,0.04101625,0.008064884,-51.91045,-8.160517,-27.21638
48.664923191,27.68522,2.157067,10.15578,1.011537,0.01318054,0.04779194,-51.91045,-8.160517,-27.21638
48.674833774,21.80111,-1.512807,14.20573,0.8929321,-0.01331421,0.0856845,-51.91045,-8.160517,-27.21638
48.684744358,20.43847,-3.901137,13.53074,0.8444082,-0.05665968,0.07143974,-51.91045,-8.160517,-27.21638
48.694654941,22.66824,-4.716664,10.15578,0.8647134,-0.07627448,0.07352208,-51.52406,-9.223671,-27.66477
48.704565525,26.32258,-2.095326,5.18538,0.9502432,-0.07424729,0.07178427,-51.52406,-9.223671,-27.66477
48.714476108,31.33957,2.448327,1.38088,1.070232,-0.06069985,0.05828073,-51.52406,-9.223671,-27.66477
48.724386692,36.17074,6.81722400000001,1.074065,1.134355,-0.03571977,0.04633032,-51.52406,-9.223671,-27.66477
48.734297275,38.21469,5.88519199999999,6.65808999999999,1.128816,-0.001972387,0.02259845,-51.52406,-9.223671,-27.66477
48.744207859,36.1088,1.516295,13.22392,1.060112,0.03655268,0.04365714,-51.88887,-9.593067,-26.37678
48.754119396,30.53437,-3.027358,18.19431,0.9291297,0.05689378,0.07381351,-51.88887,-9.593067,-26.37678
48.76402998,25.95096,-6.87198700000002,19.11476,0.8123516,0.08669339,0.1173459,-51.88887,-9.593067,-26.37678
48.773940563,22.04886,-7.454507,13.1012,0.7781249,0.09967532,0.0850982,-51.88887,-9.593067,-26.37678
48.783851147,20.19072,-6.17296399999999,3.774033,0.8509676,0.1149669,0.05379628,-51.88887,-9.593067,-26.37678
48.79376173,18.2087,-3.202114,-4.9395,0.9716159,0.1415319,0.02452815,-51.52512,-8.90811,-26.83055
48.803672314,14.86405,-2.037075,-9.78716900000001,1.077974,0.1476221,0.008220036,-51.52512,-8.90811,-26.83055
48.813582897,9.59931099999998,-5.066176,-8.92808800000003,1.142424,0.1257037,0.0209224,-51.52512,-8.90811,-26.83055
48.823493957,3.901011,-9.37682200000001,-4.632685,1.156829,0.1274615,0.0448088,-51.52512,-8.90811,-26.83055
48.833404541,-0.9301572,-12.17292,0.705887599999999,1.122292,0.1159005,0.04889245,-51.52512,-8.90811,-26.83055
48.843315124,-1.054033,-13.33796,7.701259,1.041466,0.06067622,0.06559742,-51.50492,-10.34223,-26.37642
48.853225708,-1.921166,-18.28937,10.89213,0.9419253,0.0139296,0.07917084,-51.50492,-10.34223,-26.37642
48.863136768,-0.2488386,-17.70685,10.83077,0.8964756,-0.08100453,0.1135301,-51.50492,-10.34223,-26.37642
48.873047352,0.618294100000002,-13.80397,9.54214699999998,0.8747039,-0.1189601,0.1394071,-51.50492,-10.34223,-26.37642
48.882958412,2.786126,-11.12438,5.001291,0.8595759,-0.1130413,0.101654,-51.50492,-10.34223,-26.37642
48.892868996,6.81209899999999,-10.48361,-1.441814,0.8758287,-0.08888464,0.04596625,-51.50678,-9.964233,-25.54239
48.905256748,12.69621,-11.24088,-9.23490300000001,0.9267241,-0.038478,0.01366077,-51.50678,-9.964233,-25.54239
48.915167332,15.42149,-13.97873,-14.2053,0.9638986,0.0007704767,0.01309829,-51.50678,-9.964233,-25.54239
48.925078869,15.73118,-16.65832,-16.41436,1.00806,0.0426171,0.02929404,-51.50678,-9.964233,-25.54239
48.934989452,13.68722,-18.40588,-16.59845,1.035416,0.06441035,0.05223382,-52.62794,-9.962493,-25.08684
48.944900036,11.2097,-18.81364,-15.49392,1.029157,0.07608874,0.07541709,-52.62794,-9.962493,-25.08684
48.954810619,8.29861200000002,-17.41559,-16.04619,1.024355,0.0902195,0.1005239,-52.62794,-9.962493,-25.08684
48.964721203,6.502409,-16.83307,-16.53709,1.037894,0.07811684,0.07150854,-52.62794,-9.962493,-25.08684
48.974631786,6.56434699999999,-14.44474,-18.25525,1.06316,0.08322959,0.06170578,-52.62794,-9.962493,-25.08684
48.98454237,7.18372799999999,-12.98844,-20.46432,1.079714,0.08779154,0.0601426,-52.241,-10.70826,-24.2513
48.994452953,7.369542,-11.41564,-22.55066,1.092467,0.09967873,0.0778697,-52.241,-10.70826,-24.2513
49.004364014,6.254657,-11.00788,-23.83928,1.084598,0.09565481,0.06879266,-52.241,-10.70826,-24.2513
49.014274597,4.830081,-12.23117,-24.94381,1.068041,0.07938393,0.05635327,-52.241,-10.70826,-24.2513
49.024185181,6.502409,-13.22145,-27.2756,1.068818,0.08953597,0.04873119,-52.241,-10.70826,-24.2513
49.034095764,8.732179,-12.87194,-28.44149,1.053883,0.08921365,0.02245846,-52.58989,-12.19987,-22.57438
49.044006825,9.97093999999998,-13.57096,-29.11649,1.035965,0.07395529,0.02156221,-52.58989,-12.19987,-22.57438
49.053917408,11.64327,-14.03698,-31.01874,1.027465,0.08058311,0.01112148,-52.58989,-12.19987,-22.57438
49.063828468,9.04186800000002,-17.06608,-31.81645,1.002036,0.1029415,-0.01058167,-52.58989,-12.19987,-22.57438
49.073739052,6.254657,-19.39616,-32.7369,0.9945691,0.1091221,-0.01623333,-52.58989,-12.19987,-22.57438
49.083649635,1.918993,-18.93014,-30.77328,1.018157,0.120209,0.008110452,-52.20295,-12.94563,-21.73883
49.093560219,-4.460626,-17.99811,-25.55744,1.012843,0.1118829,0.004743014,-52.20295,-12.94563,-21.73883
49.103470802,-12.07901,-17.7651,-18.37798,0.9999449,0.07870458,-0.004481736,-52.20295,-12.94563,-21.73883
49.113381386,-20.13095,-17.82336,-9.60308100000002,0.9879469,0.01062474,-0.01442749,-52.20295,-12.94563,-21.73883
49.123291969,-24.03305,-14.15348,-2.055443,0.9828336,-0.04003632,-0.04784862,-52.20295,-12.94563,-21.73883
49.133202553,-23.35173,-9.43507399999997,5.18538,0.9638201,-0.08146115,-0.04314717,-52.55967,-14.06605,-20.89825
49.143113136,-16.91018,-4.017641,13.1012,0.9463633,-0.06843494,-0.01360929,-52.55967,-14.06605,-20.89825
49.153024673,-8.85822799999998,-2.21183,17.45796,0.9292129,-0.01525813,-0.002532938,-52.55967,-14.06605,-20.89825
49.162935257,-1.673414,-1.571059,18.19431,0.9477539,0.04665696,0.01835487,-52.55967,-14.06605,-20.89825
49.17284584,3.157754,0.700767799999999,17.45796,0.969295,0.08815546,0.02179322,-52.55967,-14.06605,-20.89825
49.185233593,5.449462,4.02113,16.96706,0.9756008,0.107233,0.0391477,-52.19188,-13.69325,-21.35106
49.195144653,4.396515,6.29295599999999,16.78297,0.9837201,0.09406596,0.004893659,-52.19188,-13.69325,-21.35106
49.205055714,0.989922399999999,5.186169,17.64205,0.9839544,0.08857371,-0.02635538,-52.19188,-13.69325,-21.35106
49.214966297,-1.611476,3.14735,18.99203,1.003612,0.07813843,-0.02900749,-52.19188,-13.69325,-21.35106
49.224876881,-1.4876,1.225035,19.97384,1.027153,0.08822513,-0.01043183,-52.19188,-13.69325,-21.35106
49.234787464,0.494418,1.166783,20.77156,1.044625,0.0647236,-0.003067454,-52.57098,-13.31869,-21.35027
49.244698048,2.538374,1.691051,20.64883,1.075054,0.07199166,0.01638604,-52.57098,-13.31869,-21.35027
49.254609108,2.538374,1.749303,20.95565,1.087396,0.05708432,0.01041068,-52.57098,-13.31869,-21.35027
49.264519692,3.839073,2.215319,20.95565,1.083116,0.03465276,-0.004103919,-52.57098,-13.31869,-21.35027
49.274430275,6.19271900000002,2.972594,21.50791,1.063636,0.02030245,-0.01314238,-52.57098,-13.31869,-21.35027
49.284340859,8.91799300000002,3.030846,20.83292,1.04826,0.01804764,-0.0370231,-52.96116,-12.1965,-21.73725
49.294251442,11.08582,2.914342,19.78975,1.0211,0.03805966,-0.03951955,-52.96116,-12.1965,-21.73725
49.304162026,12.88203,2.331823,21.32382,1.010361,0.02378808,-0.05440022,-52.96116,-12.1965,-21.73725
49.314073563,16.35056,0.2347521,20.28065,0.969539,-0.03634742,-0.05250268,-52.96116,-12.1965,-21.73725
49.323984146,21.3056,-0.930287099999998,20.46474,1.001271,0.06742989,-0.03145797,-52.96116,-12.1965,-21.73725
49.33389473,15.79312,0.700767799999999,19.11476,1.029566,0.08092246,-0.0220266,-52.5966,-11.44728,-21.7415
49.343805313,9.72318700000001,3.846374,17.33524,1.026924,0.09542315,-0.02430635,-52.5966,-11.44728,-21.7415
49.353715897,4.768144,6.584216,15.92389,1.008224,0.108787,-0.02020312,-52.5966,-11.44728,-21.7415
49.36362648,1.05186,7.98226299999999,15.80116,0.9816993,0.1157106,-0.02375295,-52.5966,-11.44728,-21.7415
49.373537064,-0.4346527,8.97254599999999,15.49435,0.959706,0.13105,-0.00472119,-52.5966,-11.44728,-21.7415
49.383447647,-2.540546,11.76864,13.40801,0.9495298,0.1407254,0.01560402,-53.35482,-10.69815,-21.73992
49.393358231,-6.87620999999998,14.68124,10.52395,0.9260742,0.1243415,-0.002054056,-53.35482,-10.69815,-21.73992
49.403268814,-13.19389,14.68124,7.82398500000003,0.9176055,0.1068433,0.009911649,-53.35482,-10.69815,-21.73992
49.413179875,-22.11297,14.73949,4.817203,0.9345114,0.08817343,0.01539282,-53.35482,-10.69815,-21.73992
49.423090935,-29.79329,14.79774,2.23996,0.9592521,0.04911965,-0.001901703,-53.35482,-10.69815,-21.73992
49.433001518,-35.92516,14.27347,-0.3372818,0.9958029,0.0322031,0.01397295,-52.98217,-10.69995,-22.19158
49.442912102,-43.29578,13.34144,-2.484983,1.022576,0.01272586,0.02704002,-52.98217,-10.69995,-22.19158
49.452822685,-49.1799,12.23466,-4.203145,1.040863,-0.004507094,0.02579578,-52.98217,-10.69995,-22.19158
49.465210915,-49.6754,14.56473,-6.90311299999998,1.073961,-0.02173015,-0.00919646,-52.98217,-10.69995,-22.19158
49.475121975,-48.43664,14.27347,-6.90311299999998,1.087202,-0.03325218,-0.01899884,-52.98217,-10.69995,-22.19158
49.485032559,-44.41067,13.69096,-4.019056,1.088279,-0.05806638,-0.03838044,-52.62059,-9.954127,-23.03101
49.494943619,-39.39368,13.34144,2.055871,1.083913,-0.06809884,0.0009660758,-52.62059,-9.954127,-23.03101
49.504854202,-35.6774,12.87543,9.54214699999998,1.121123,-0.06004282,0.06261603,-52.62059,-9.954127,-23.03101
49.514764786,-32.085,12.46766,15.98525,1.15203,-0.04155475,0.09414381,-52.62059,-9.954127,-23.03101
49.524675369,-32.33275,14.44823,20.28065,1.171917,-0.03040691,0.139169,-52.62059,-9.954127,-23.03101
49.534585953,-30.35073,19.39965,21.56927,1.180236,-0.02932389,0.14102,-52.63626,-9.211735,-24.70368
49.544496536,-28.55453,25.63261,23.59425,1.119974,-0.04842768,0.1548944,-52.63626,-9.211735,-24.70368
49.55440712,-27.6874,31.2248,24.02379,1.043724,-0.0408363,0.1191581,-52.63626,-9.211735,-24.70368
49.564317703,-27.99709,33.96264,24.82151,0.961216,-0.041078,0.08390772,-52.63626,-9.211735,-24.70368
49.57422924,-28.92616,32.73935,25.25105,0.9048309,-0.03161863,0.08017077,-52.63626,-9.211735,-24.70368
49.584139824,-30.47461,31.74907,26.72376,0.9150311,-0.01689127,0.09073804,-52.28198,-7.777324,-25.09552
49.594050407,-33.69538,29.36073,26.72376,0.9211076,-0.003786609,0.07876518,-52.28198,-7.777324,-25.09552
49.603960991,-37.90717,28.95297,28.07374,0.9522846,-0.09100316,0.1081458,-52.28198,-7.777324,-25.09552
49.613871574,-38.89818,27.72968,27.52148,0.9721832,-0.0993617,0.1314338,-52.28198,-7.777324,-25.09552
49.623782158,-39.82725,26.50639,27.09194,0.9969238,-0.1223179,0.1329727,-52.28198,-7.777324,-25.09552
49.633692741,-39.39368,24.40932,26.60103,0.9906796,-0.174286,0.1307636,-51.55559,-6.662106,-27.22295
49.643603325,-36.66841,21.20546,26.96921,1.017753,-0.2114161,0.1048175,-51.55559,-6.662106,-27.22295
49.653514385,-32.20887,24.81708,25.4965,1.015588,-0.2137405,0.1293101,-51.55559,-6.662106,-27.22295
49.663424969,-27.81127,17.06957,29.7919,1.030178,-0.2175003,0.1171462,-51.55559,-6.662106,-27.22295
49.673336029,-18.14894,24.64232,29.05555,0.9965429,-0.1859221,0.1167073,-51.55559,-6.662106,-27.22295
49.683246612,-14.12296,25.05009,28.50328,0.9572089,-0.1257976,0.1184319,-50.85046,-3.670511,-28.52096
49.693157196,-12.26482,21.61322,25.0056,0.9287057,-0.07550445,0.0681338,-50.85046,-3.670511,-28.52096
49.703067779,-14.30878,14.9725,21.38519,0.9464812,-0.06519847,0.04931191,-50.85046,-3.670511,-28.52096
49.71297884,-17.09599,8.62303400000002,19.66702,0.9827096,-0.07203882,0.04557018,-50.85046,-3.670511,-28.52096
49.722889423,-18.95413,5.593933,19.42157,0.9806579,-0.08845025,0.06468615,-50.85046,-3.670511,-28.52096
49.735277653,-20.87421,6.46771199999997,19.72839,0.9871775,-0.163399,0.08813445,-51.25979,-1.429767,-30.1963
49.745188713,-21.74134,8.564782,21.07837,0.9981448,-0.1587646,0.1139924,-51.25979,-1.429767,-30.1963
49.755099297,-26.94414,8.215271,22.24427,1.013757,-0.1993143,0.110697,-51.25979,-1.429767,-30.1963
49.76500988,-23.41367,13.28319,23.16471,0.9631324,-0.172276,0.1171072,-51.25979,-1.429767,-30.1963
49.774920464,-26.82026,11.82689,24.26924,0.938222,-0.1289202,0.1229082,-51.25979,-1.429767,-30.1963
49.784831047,-34.06701,7.63275100000002,24.45333,0.8878018,-0.1015363,0.1019498,-50.89038,-1.055141,-30.1994
49.794741631,-34.43864,9.26380600000001,22.18291,0.9000951,-0.1164691,0.0911731,-50.89038,-1.055141,-30.1994
49.804652214,-36.4826,7.51624699999999,21.13973,0.9196215,-0.07209888,0.09224842,-50.89038,-1.055141,-30.1994
49.814562798,-41.99508,3.555114,20.0352,0.9596041,-0.09824502,0.002875195,-50.89038,-1.055141,-30.1994
49.824474335,-45.40168,-2.21183,19.48294,0.9828526,-0.0256318,0.018509,-50.89038,-1.055141,-30.1994
49.834384918,-48.3747,-5.82345200000001,17.51932,1.000378,-0.05691041,0.0219798,-50.91761,0.814437,-31.04035
49.844295502,-65.0360399999998,-11.06613,16.78297,0.9935538,0.08275779,0.04458051,-50.91761,0.814437,-31.04035
49.854206085,-66.4606199999998,-14.15348,20.09657,0.9433764,-0.04386071,0.05764546,-50.91761,0.814437,-31.04035
49.864116669,-72.3447300000002,-15.90104,16.53752,0.9599551,-0.04172526,0.05558573,-50.91761,0.814437,-31.04035
49.874027252,-62.2488299999999,-17.29909,17.15115,0.939545,-0.1394689,0.04888126,-50.56865,3.003006,-30.21384
49.883937836,-61.7533199999997,-23.24079,15.00345,0.978994,-0.03223405,0.06363557,-50.56865,3.003006,-30.21384
49.893848896,-63.4875900000002,-24.81359,12.54893,0.9829213,-0.01705498,0.08290671,-50.56865,3.003006,-30.21384
49.90375948,-71.78729,-28.19221,16.72161,0.9959044,0.1132316,0.1187062,-50.56865,3.003006,-30.21384
49.91367054,-70.3627199999997,-27.78444,16.41479,0.9518233,-0.05856027,0.1011638,-50.56865,3.003006,-30.21384
49.923581123,-64.1689099999997,-24.34758,7.39444499999999,1.000205,-0.0906416,0.156201,-51.34328,5.253916,-29.38169
49.933491707,-59.52355,-23.5903,5.553557,0.9949229,-0.1028537,0.1513669,-51.34328,5.253916,-29.38169
49.94340229,-48.74633,-20.96896,-1.687266,0.9739069,-0.1874937,0.1485966,-51.34328,5.253916,-29.38169
49.953313351,-34.31477,-18.34762,-9.11217699999998,0.9639878,-0.2720704,0.1313194,-51.34328,5.253916,-29.38169
49.963223934,-16.91018,-14.21173,-15.92346,0.9764722,-0.3451921,0.1187128,-51.34328,5.253916,-29.38169
49.973134518,2.476436,-10.42536,-23.04156,0.983864,-0.3772655,0.08674031,-51.37125,7.882881,-27.71941
49.983045101,18.76614,-6.87198700000002,-26.66197,0.9722267,-0.3344436,0.05112135,-51.37125,7.882881,-27.71941
49.992955685,32.14476,-4.658412,-29.36194,0.966748,-0.2826162,0.05439824,-51.37125,7.882881,-27.71941
50.002866268,38.7102,-4.250649,-29.60739,0.9547538,-0.2129024,0.06313629,-51.37125,7.882881,-27.71941
50.015254974,37.47144,-4.949672,-26.84606,0.9636244,-0.1405697,0.05921471,-51.37125,7.882881,-27.71941
50.025165558,31.77314,-5.998208,-23.40973,1.001131,-0.09066501,0.0558392,-52.11976,7.882821,-27.71552
50.035076141,25.57933,-7.221499,-19.97341,1.051433,-0.08372448,0.05782103,-52.11976,7.882821,-27.71552
50.044986725,21.67723,-8.85255399999999,-15.8621,1.077496,-0.09746928,0.05604794,-52.11976,7.882821,-27.71552
50.054898262,17.89901,-11.00788,-11.44397,1.082813,-0.09645838,0.05120393,-52.11976,7.882821,-27.71552
50.064808846,14.74017,-14.44474,-11.3826,1.103151,-0.1233731,0.04795558,-52.11976,7.882821,-27.71552
50.074719429,17.21769,-14.26999,-10.52352,1.089946,-0.1623164,0.0497389,-51.71342,5.638678,-26.87536
50.084630013,19.26165,-13.86222,-9.66444299999998,1.07992,-0.1920749,0.03858972,-51.71342,5.638678,-26.87536
50.094540596,20.12878,-13.0467,-8.92808800000003,1.03184,-0.2159257,0.04271676,-51.71342,5.638678,-26.87536
50.10445118,24.40251,-11.47389,-11.68942,0.9963593,-0.2482083,0.07355995,-51.71342,5.638678,-26.87536
50.114361763,25.14576,-13.51271,-13.89848,0.9594923,-0.2392524,0.1128534,-51.71342,5.638678,-26.87536
50.124272347,26.13677,-12.46418,-15.61665,0.9901122,-0.2404262,0.09335606,-52.44578,4.516662,-26.4183
50.13418293,31.77314,-4.483657,-16.23028,1.045816,-0.2436504,0.08561704,-52.44578,4.516662,-26.4183
50.14409399,39.14376,4.312389,-13.83712,1.013219,-0.2183699,0.08368613,-52.44578,4.516662,-26.4183
50.154005051,41.55935,8.79779099999998,-12.11896,0.9646608,-0.1666202,0.08207918,-52.44578,4.516662,-26.4183
50.163915634,38.7102,10.42885,-11.68942,0.9434192,-0.1240692,0.1108884,-52.44578,4.516662,-26.4183
50.173826218,33.81709,12.64242,-11.32124,0.9819556,-0.1414335,0.1291426,-52.80412,3.394414,-26.02742
50.183736801,31.46344,17.65209,-10.33944,1.021407,-0.1617454,0.1377654,-52.80412,3.394414,-26.02742
50.193647385,33.38353,23.36078,-9.11217699999998,1.065519,-0.1782124,0.1286049,-52.80412,3.394414,-26.02742
50.203558445,35.98492,25.2831,-4.755411,1.097203,-0.1783535,0.1187077,-52.80412,3.394414,-26.02742
50.213469029,34.62228,31.05004,-0.766822200000002,1.092162,-0.1880015,0.1402972,-52.80412,3.394414,-26.02742
50.223379612,36.1088,41.01113,2.23996,1.020028,-0.1612304,0.1469046,-52.78286,1.518039,-26.85683
50.233290196,29.23367,45.55478,-0.582733500000001,0.9118361,-0.1068024,0.1506685,-52.78286,1.518039,-26.85683
50.243201256,24.46444,46.19555,-8.43718500000001,0.9183882,-0.09248349,0.09116371,-52.78286,1.518039,-26.85683
50.253111839,21.05785,43.80722,-14.51211,1.014952,-0.07262546,0.04190698,-52.78286,1.518039,-26.85683
50.2630229,17.21769,40.3121,-18.25525,1.140194,-0.07956362,-0.007793492,-52.78286,1.518039,-26.85683
50.272933483,15.29761,34.95292,-14.6962,1.222234,-0.09053683,0.01634291,-52.0328,0.8229744,-28.91444
50.282844067,10.46644,30.05976,-7.27128999999997,1.240943,-0.1353546,0.024034,-52.0328,0.8229744,-28.91444
50.295232773,6.19271900000002,24.00155,5.308106,1.126788,-0.1668863,0.1084272,-52.0328,0.8229744,-28.91444
50.305143356,3.529382,22.72001,7.27171900000003,0.9888979,-0.1942199,0.1244052,-52.0328,0.8229744,-28.91444
50.31505394,5.635276,21.72972,5.062654,0.870439,-0.2762486,0.1115099,-52.0328,0.8229744,-28.91444
50.324964523,12.20071,19.39965,-2.546346,0.798244,-0.3146267,0.08359253,-50.91115,0.4416716,-30.58948
50.334875107,24.52638,20.50644,-10.4008,0.7855492,-0.325996,0.0721104,-50.91115,0.4416716,-30.58948
50.34478569,41.12578,21.84623,-20.28023,0.7901593,-0.3036499,-0.02429517,-50.91115,0.4416716,-30.58948
50.354696274,58.4684399999998,21.96273,-30.46647,0.7926859,-0.3016345,-0.1092931,-50.91115,0.4416716,-30.58948
50.364606857,78.0408599999999,12.23466,-34.14824,0.8575932,-0.2552883,-0.2104179,-50.91115,0.4416716,-30.58948
50.374518395,102.4445,-5.532192,-30.95737,0.9510053,-0.1697267,-0.2039895,-50.16723,0.4365028,-31.87827
50.384428978,111.4255,-24.40583,-25.68016,1.037324,-0.07583883,-0.1643092,-50.16723,0.4365028,-31.87827
50.394339562,107.895,-30.11452,-25.18926,1.055588,0.07958209,-0.1562403,-50.16723,0.4365028,-31.87827
50.404250145,99.90499,-43.04646,-29.73012,0.9141396,0.2143258,-0.01142753,-50.16723,0.4365028,-31.87827
50.414160729,86.8360600000002,-59.2987500000001,-33.28917,0.8312111,0.2677722,0.02282639,-50.16723,0.4365028,-31.87827
50.424071312,72.0328700000001,-75.0267900000002,-36.23458,0.7828546,0.3223144,0.09181943,-49.74474,-2.929596,-30.58494
50.433981896,55.37153,-81.20149,-40.46862,0.7950903,0.3575955,0.1341953,-49.74474,-2.929596,-30.58494
50.443892956,36.66624,-78.4636500000001,-43.41404,0.8581403,0.3449616,0.1642581,-49.74474,-2.929596,-30.58494
50.453803539,17.83707,-73.4539799999997,-40.77544,0.966081,0.2701638,0.1598806,-49.74474,-2.929596,-30.58494
50.4637146,4.024887,-65.24046,-39.48682,1.092101,0.1660784,0.1676249,-49.74474,-2.929596,-30.58494
50.473625183,-1.983104,-52.94929,-38.99591,1.180359,0.05293066,0.2015866,-50.80222,-7.036641,-27.22568
50.483535767,-6.13295399999998,-45.43478,-38.38229,1.200702,-0.04519195,0.2108281,-50.80222,-7.036641,-27.22568
50.49344635,-0.8682191,-39.26008,-38.13683,1.187396,-0.1066268,0.1764506,-50.80222,-7.036641,-27.22568
50.503357411,12.94397,-34.65817,-37.40048,1.154364,-0.1237638,0.1300666,-50.80222,-7.036641,-27.22568
50.513267994,29.23367,-30.58053,-36.0505,1.09498,-0.03974956,0.1119691,-50.80222,-7.036641,-27.22568
50.523178578,41.37353,-28.25046,-32.18463,1.056389,0.001727979,0.06890796,-51.89179,-8.899512,-24.70853
50.533089161,43.54137,-23.7068,-29.23921,1.05856,0.133315,0.1009748,-51.89179,-8.899512,-24.70853
50.542999745,37.905,-21.26022,-23.962,1.071794,0.2388542,0.1322856,-51.89179,-8.899512,-24.70853
50.552910805,16.4125,-12.11466,-20.70977,1.14987,0.1880529,0.1523521,-51.89179,-8.899512,-24.70853
50.565299034,-3.71737,-0.5225234,-13.28485,1.165795,0.09937377,0.1232847,-51.89179,-8.899512,-24.70853
50.575209618,-10.59249,5.360925,-4.816774,1.145248,0.02228606,0.07974693,-52.24149,-10.32869,-23.0318
50.585120201,-9.84923700000002,8.73953799999999,2.853589,1.1036,-0.03022623,0.05769499,-52.24149,-10.32869,-23.0318
50.595031738,-3.283803,11.01136,9.11260599999998,1.047922,-0.05723235,0.0325816,-52.24149,-10.32869,-23.0318
50.604942322,5.635276,12.58417,12.36484,1.029221,-0.03216216,0.05020727,-52.24149,-10.32869,-23.0318
50.614852905,14.86405,17.94335,13.5921,1.036401,-0.007760087,0.06374785,-52.24149,-10.32869,-23.0318
50.624763489,23.10181,22.66176,11.99666,1.02193,0.008495808,0.05438683,-52.21724,-12.20167,-23.02604
50.634674072,31.71119,26.8559,10.09441,1.01157,-0.001675758,0.08130374,-52.21724,-12.20167,-23.02604
50.644584656,28.55235,26.09862,9.11260599999998,1.037834,0.1058902,0.09810283,-52.21724,-12.20167,-23.02604
50.654495239,24.52638,27.96269,8.80579200000003,1.028404,0.1474043,0.08550233,-52.21724,-12.20167,-23.02604
50.664405823,17.34157,26.38988,8.06943700000002,1.004628,0.1793859,0.04560199,-52.21724,-12.20167,-23.02604
50.67431736,12.88203,22.89477,5.92173499999998,0.9962059,0.1787368,0.03415176,-52.60258,-11.45408,-23.41187
50.684227943,8.23667399999998,11.24437,0.1536215,1.021919,0.2977237,0.01069873,-52.60258,-11.45408,-23.41187
50.694138527,-5.389697,22.72001,-1.56454,1.000447,0.1887131,0.0778734,-52.60258,-11.45408,-23.41187
50.70404911,-15.67141,32.38984,-0.766822200000002,0.9707142,0.1508276,0.04284443,-52.60258,-11.45408,-23.41187
50.713959694,-20.13095,37.283,4.571751,0.9284623,0.1497084,0.02210077,-52.60258,-11.45408,-23.41187
50.723870277,-22.91817,33.72963,8.25352600000003,0.8974954,0.1877749,0.05097008,-52.22459,-12.21004,-25.08186
50.733780861,-30.66042,29.71025,7.76262199999999,0.9141848,0.2070411,0.07975359,-52.22459,-12.21004,-25.08186
50.743691921,-40.26082,27.32191,4.694477,0.9598564,0.1406448,0.06880555,-52.22459,-12.21004,-25.08186
50.753602505,-44.65842,25.45785,1.749057,1.026341,0.01757651,0.01839467,-52.22459,-12.21004,-25.08186
50.763513565,-42.92416,25.5161,2.424049,1.065844,-0.07001653,0.04865607,-52.22459,-12.21004,-25.08186
50.773424149,-34.37671,30.64228,2.055871,1.072696,-0.1450407,0.05673574,-51.11611,-11.46598,-26.3749
50.783334732,-23.22786,33.55487,3.71267,1.067145,-0.1673885,0.06143977,-51.11611,-11.46598,-26.3749
50.793245316,-13.25583,31.86557,7.39444499999999,1.047023,-0.1623124,0.06021921,-51.11611,-11.46598,-26.3749
50.803156376,-6.56652,28.4287,9.97168700000001,1.033701,-0.1010766,0.12029,-51.11611,-11.46598,-26.3749
50.813066959,-3.283803,27.67143,12.11939,1.062018,-0.1278126,0.1323341,-51.11611,-11.46598,-26.3749
50.822977543,-1.4876,26.7394,15.67844,1.073182,-0.1635638,0.1300721,-51.13339,-10.72542,-28.49728
50.832888126,0.804108299999999,26.9724,17.94886,1.04961,-0.2065894,0.1175193,-51.13339,-10.72542,-28.49728
50.845276833,4.768144,26.56464,20.34202,0.9965042,-0.2149622,0.1265975,-51.13339,-10.72542,-28.49728
50.855187416,9.72318700000001,26.21513,19.85111,0.9802355,-0.1788964,0.1082621,-51.13339,-10.72542,-28.49728
50.865098,14.12079,26.7394,18.86931,0.9875247,-0.1341983,0.1084924,-50.02144,-10.35753,-30.17463
50.875008583,16.84606,25.05009,19.5443,0.9935313,-0.08625636,0.08282772,-50.02144,-10.35753,-30.17463
50.884919643,16.35056,21.78798,22.67381,1.011633,-0.0718784,0.100522,-50.02144,-10.35753,-30.17463
50.894830704,13.93497,19.16664,28.74874,1.010088,-0.09266471,0.116243,-50.02144,-10.35753,-30.17463
50.904741287,10.77613,16.60355,34.45549,1.006792,-0.06825101,0.1572496,-50.02144,-10.35753,-30.17463
50.914651871,6.06884200000002,14.73949,40.10087,1.034574,-0.1072123,0.150491,-49.65826,-9.609881,-30.56436
50.924562454,13.8111,6.00169699999999,45.6849,1.031522,-0.02244114,0.1429213,-49.65826,-9.609881,-30.56436
50.934473038,-0.2488386,7.63275100000002,46.60534,1.016952,-0.02159768,0.1536251,-49.65826,-9.609881,-30.56436
50.944383621,-4.02706,7.39974399999998,51.82119,1.008816,-0.07892273,0.1513979,-49.65826,-9.609881,-30.56436
50.954294205,-6.38070599999998,7.63275100000002,60.4733600000001,1.009629,-0.1060651,0.1512095,-49.65826,-9.609881,-30.56436
50.964205742,-9.41567000000003,6.00169699999999,69.3096199999999,0.9842811,-0.1326845,0.1277388,-50.04786,-8.550387,-31.01539
50.974116325,-12.82226,6.75897199999999,76.0595400000001,0.9773014,-0.162348,0.1276058,-50.04786,-8.550387,-31.01539
50.984026909,-12.57451,6.99197999999999,78.5754199999998,0.9691625,-0.1445613,0.1177162,-50.04786,-8.550387,-31.01539
50.993937492,-10.65443,7.51624699999999,78.8822300000002,1.005379,-0.1260421,0.1424729,-50.04786,-8.550387,-31.01539
51.003848076,-10.59249,6.93372799999998,77.40952,1.014419,-0.07118235,0.1345921,-50.04786,-8.550387,-31.01539
51.013758659,-10.77831,5.419177,75.6913600000003,0.9952864,0.01975695,0.1396963,-49.33765,-5.933127,-32.24801
51.023669243,-11.89319,4.312389,70.90506,1.047826,0.03296135,0.1287349,-49.33765,-5.933127,-32.24801
51.033579826,-13.99909,-0.4642715,64.7687700000001,0.9697843,0.1106097,0.1434183,-49.33765,-5.933127,-32.24801
51.043491364,-17.34374,-3.668129,62.1915199999998,1.037196,0.05752259,0.1222746,-49.33765,-5.933127,-32.24801
51.053401947,-17.77731,-7.80401899999998,62.92788,1.005531,0.09742527,0.1329166,-49.33765,-5.933127,-32.24801
51.063312531,-16.72436,-9.78458600000001,57.34385,0.8839995,0.04845857,0.1452381,-50.14138,-1.434644,-31.42278
51.073223114,-16.04304,-8.91080699999998,51.69846,0.8596419,-0.02935273,0.1583894,-50.14138,-1.434644,-31.42278
51.083133698,-11.39769,-7.454507,45.194,0.8333944,-0.1556864,0.1688342,-50.14138,-1.434644,-31.42278
51.093044281,0.5563561,-7.62926299999999,36.17365,0.8274912,-0.2440623,0.1572564,-50.14138,-1.434644,-31.42278
51.102954865,15.85505,-6.988491,25.0056,0.8297766,-0.2555737,0.1758847,-50.14138,-1.434644,-31.42278
51.112865925,27.74716,-5.82345200000001,14.14436,0.8417222,-0.2384924,0.1686857,-49.80106,1.187554,-31.43281
51.125254154,35.55136,-3.784633,2.914952,0.874345,-0.1779141,0.1783907,-49.80106,1.187554,-31.43281
51.135165215,37.59531,-3.551625,-4.816774,0.8611319,-0.1471141,0.1657538,-49.80106,1.187554,-31.43281
51.145075798,37.22368,-4.425405,-12.11896,0.860488,-0.1006198,0.1574267,-49.80106,1.187554,-31.43281
51.154986382,35.42748,-5.88170400000003,-20.34159,0.8828942,-0.05916779,0.1498131,-49.80106,1.187554,-31.43281
51.164897442,31.4015,-7.74576700000002,-27.58241,0.9257388,-0.01165593,0.13965,-50.19253,2.625041,-31.04982
51.174808025,23.72119,-9.95934199999999,-32.92099,0.9649823,0.01109056,0.1307958,-50.19253,2.625041,-31.04982
51.184718609,14.43048,-12.52243,-37.09366,1.005268,0.02266329,0.1151352,-50.19253,2.625041,-31.04982
51.194629669,4.644268,-15.20202,-40.10044,1.043386,0.03044706,0.122037,-50.19253,2.625041,-31.04982
51.204540253,-4.33675,-19.80392,-42.73905,1.068444,0.01277357,0.1130446,-50.19253,2.625041,-31.04982
51.214450836,-10.53056,-25.1631,-43.10723,1.088644,0.01066483,0.1253279,-50.54522,1.192461,-30.20827
51.22436142,-16.16692,-29.00773,-46.48219,1.084321,-0.02275998,0.1414706,-50.54522,1.192461,-30.20827
51.234272003,-20.19289,-31.80383,-48.87534,1.07127,-0.06308629,0.1566877,-50.54522,1.192461,-30.20827
51.244183064,-21.92716,-30.52228,-52.61848,1.043555,-0.1070087,0.1681752,-50.54522,1.192461,-30.20827
51.254094124,-19.69739,-27.9592,-51.88213,1.054248,-0.1815326,0.1699806,-50.54522,1.192461,-30.20827
51.264004707,-16.10498,-20.61945,-51.45258,1.029185,-0.1692275,0.172215,-50.88739,-1.051743,-29.36422
51.273915291,-10.2828,-13.45446,-49.24352,1.036097,-0.1769119,0.1696991,-50.88739,-1.051743,-29.36422
51.283825874,-3.469617,-7.33800299999997,-45.68447,1.017475,-0.1369268,0.164856,-50.88739,-1.051743,-29.36422
51.293736458,0.1227897,-3.901137,-43.96631,1.016608,-0.1073733,0.16266,-50.88739,-1.051743,-29.36422
51.303647041,1.05186,-3.726381,-40.95953,1.023996,-0.1292049,0.1422796,-50.88739,-1.051743,-29.36422
51.313557625,0.0608516599999998,-5.590444,-39.18,1.03839,-0.122335,0.1234661,-51.6149,-2.548354,-28.906
51.323469162,0.866046300000002,-7.62926299999999,-37.5232,1.025354,-0.1604631,0.09500332,-51.6149,-2.548354,-28.906
51.333379746,1.05186,-10.01759,-35.06869,1.025293,-0.1778071,0.1164955,-51.6149,-2.548354,-28.906
51.343290329,3.591321,-8.67779800000001,-33.35052,1.032118,-0.1616347,0.1333456,-51.6149,-2.548354,-28.906
51.353200913,6.750161,-5.124428,-33.10508,1.066287,-0.151968,0.1388559,-51.6149,-2.548354,-28.906
51.363111496,10.46644,-1.338051,-32.00054,1.11211,-0.1446355,0.1336794,-51.2067,-5.170491,-28.89987
51.37302208,12.69621,-0.580775400000001,-29.30058,1.12634,-0.1178509,0.1222024,-51.2067,-5.170491,-28.89987
51.382932663,11.82908,-4.949672,-23.962,1.105389,-0.1353973,0.06129922,-51.2067,-5.170491,-28.89987
51.392843247,7.18372799999999,-11.06613,-14.26666,1.013712,-0.1788586,0.03496866,-51.2067,-5.170491,-28.89987
51.405231953,3.467444,-15.95929,-1.380451,0.8837287,-0.2438512,0.06262665,-51.2067,-5.170491,-28.89987
51.415142536,7.74116999999998,-13.57096,2.362686,0.7856061,-0.2674386,0.05089286,-51.17809,-7.038502,-27.67345
51.42505312,16.35056,-10.54186,-0.889547900000002,0.7327384,-0.245692,0.070733,-51.17809,-7.038502,-27.67345
51.434964657,29.79111,-12.40592,-5.307677,0.7766853,-0.2020056,0.06821682,-51.17809,-7.038502,-27.67345
51.44487524,31.09181,-11.35739,-11.68942,0.9209467,-0.1379992,0.09659871,-51.17809,-7.038502,-27.67345
51.454785824,28.05685,-13.74572,-11.13715,1.071468,-0.05713873,0.08758267,-51.17809,-7.038502,-27.67345
51.464696407,20.93398,-14.26999,-8.98945100000001,1.211003,-0.005064067,0.07031376,-51.54104,-7.785892,-27.21948
51.474606991,11.2097,-19.33791,-2.362258,1.265896,0.03275343,0.03164537,-51.54104,-7.785892,-27.21948
51.484517574,2.042869,-26.26989,6.41263799999999,1.224619,0.01749826,-0.006007009,-51.54104,-7.785892,-27.21948
51.494428158,-0.8682191,-30.93005,12.67165,1.102945,-0.04227401,-0.02016486,-51.54104,-7.785892,-27.21948
51.504339218,1.361551,-33.66789,14.5739,0.9177185,-0.1301447,0.02945875,-51.54104,-7.785892,-27.21948
51.514250279,12.32458,-31.68732,10.21714,0.8019347,-0.2064088,0.09340235,-51.53668,-7.780924,-25.99884
51.524160862,25.2077,-27.9592,1.933146,0.7938952,-0.2180782,0.1063632,-51.53668,-7.780924,-25.99884
51.534071446,35.36554,-23.7068,-5.553129,0.8690215,-0.1840548,0.1289427,-51.53668,-7.780924,-25.99884
51.543982029,39.51539,-18.46413,-9.41899200000002,1.031405,-0.1676112,0.1045029,-51.53668,-7.780924,-25.99884
51.553893089,37.84306,-14.6195,-13.0394,1.052608,-0.0126386,0.1125416,-51.53668,-7.780924,-25.99884
51.563803673,30.78213,-16.0758,-16.90527,1.105188,0.02277807,0.08396196,-52.27575,-8.150352,-24.7089
51.573714256,25.57933,-15.78454,-17.08936,1.116811,0.0450571,0.05135213,-52.27575,-8.150352,-24.7089
51.583625317,21.98692,-15.72629,-13.89848,1.092546,0.03850467,0.06161621,-52.27575,-8.150352,-24.7089
51.5935359,19.5094,-15.60978,-9.90989499999997,1.056002,0.02542933,0.05898612,-52.27575,-8.150352,-24.7089
51.603446484,18.45645,-14.96901,-7.76219299999999,1.028983,-0.01228565,0.05034188,-52.27575,-8.150352,-24.7089
51.613357544,18.02289,-13.2797,-6.596298,1.033221,0.006709045,0.05667129,-53.01505,-8.52004,-23.4832
51.623268127,14.61629,-10.89137,-8.00764499999998,1.03428,0.01603162,0.07544978,-53.01505,-8.52004,-23.4832
51.633178711,10.52838,-8.96905800000002,-8.55991099999998,1.046279,0.06752659,0.06607871,-53.01505,-8.52004,-23.4832
51.643089294,5.325586,-6.81373500000001,-10.15535,1.055352,0.1145991,0.0523838,-53.01505,-8.52004,-23.4832
51.652999878,0.927984400000002,-4.192397,-11.81215,1.05773,0.1528832,0.04301369,-53.01505,-8.52004,-23.4832
51.662910938,-4.150936,-1.221547,-13.53031,1.057672,0.1791945,0.06815774,-53.7399,-10.33038,-23.40949
51.672821999,-11.02606,0.642515800000001,-14.88029,1.045583,0.1737456,0.07495546,-53.7399,-10.33038,-23.40949
51.685209751,-18.02506,0.759019800000003,-14.14394,1.045551,0.1251966,0.06262837,-53.7399,-10.33038,-23.40949
51.695120811,-20.93615,1.807555,-12.5485,1.044846,0.09361938,0.0523412,-53.7399,-10.33038,-23.40949
51.705031872,-22.23685,4.312389,-11.19852,1.014767,0.0743385,0.05297109,-53.7399,-10.33038,-23.40949
51.714942455,-23.28979,7.51624699999999,-11.44397,0.9806296,0.07688333,0.06482754,-53.3578,-10.70155,-22.5751
51.724853039,-26.07701,10.4871,-13.22349,0.9697667,0.1088887,0.09203009,-53.3578,-10.70155,-22.5751
51.734763622,-30.90817,13.5162,-15.92346,0.9664364,0.1384017,0.08793608,-53.3578,-10.70155,-22.5751
51.744674206,-36.35872,14.33173,-17.94844,0.9681666,0.164402,0.04872032,-53.3578,-10.70155,-22.5751
51.754584789,-43.54353,14.85599,-17.45753,0.9642531,0.1865428,0.02681674,-53.3578,-10.70155,-22.5751
51.764496326,-53.5775,14.15697,-17.39617,0.9463645,0.2105638,0.0271422,-52.23802,-10.70486,-23.41612
51.77440691,-65.3457299999998,10.54535,-16.53709,0.94043,0.196797,0.004537934,-52.23802,-10.70486,-23.41612
51.784317493,-73.1499300000003,11.01136,-15.18711,0.9519924,0.1856345,-0.02541317,-52.23802,-10.70486,-23.41612
51.794228077,-80.64443,7.16673599999998,-11.50533,0.9324928,0.1527372,-0.05810276,-52.23802,-10.70486,-23.41612
51.80413866,-85.3517199999997,-0.4060195,-7.63946799999999,0.9272798,0.0922682,-0.1127153,-52.23802,-10.70486,-23.41612
51.814049244,-86.0330399999999,-2.677846,-5.491766,0.9569992,0.01552148,-0.1178228,-52.23937,-11.08651,-25.14957
51.823959827,-82.3786999999998,-7.04674300000001,-4.509959,0.9974646,-0.1084046,-0.08397112,-52.23937,-11.08651,-25.14957
51.833870411,-77.2997700000002,-10.65837,-1.380451,1.028541,-0.193474,-0.01424199,-52.23937,-11.08651,-25.14957
51.843781948,-67.82326,-11.93991,-0.03046724,1.064261,-0.2339802,0.03605459,-52.23937,-11.08651,-25.14957
51.853692532,-55.62146,-11.47389,2.424049,1.104918,-0.2317221,0.09331261,-52.23937,-11.08651,-25.14957
51.863603115,-34.99608,-8.67779800000001,3.774033,1.067534,-0.2761973,0.1149692,-52.6344,-9.589728,-25.53771
51.873513699,-18.95413,-7.62926299999999,1.626331,1.005145,-0.1427493,0.1001098,-52.6344,-9.589728,-25.53771
51.883424282,-10.90218,-11.41564,-0.214556,0.9351162,0.0402043,0.1135001,-52.6344,-9.589728,-25.53771
51.893334866,-6.194891,-7.74576700000002,-5.73721700000003,0.9791551,0.02296295,0.04863674,-52.6344,-9.589728,-25.53771
51.903245449,-9.53954700000003,-5.76519999999999,-5.675855,1.06916,0.01703929,0.09241961,-52.6344,-9.589728,-25.53771
51.913156986,-17.52956,-3.493374,-0.950910899999997,1.119915,-0.02773094,0.1257432,-51.89962,-8.528315,-25.54487
51.92306757,-22.9801,-0.6972793,8.13079899999997,1.150555,-0.08400739,0.1390095,-51.89962,-8.528315,-25.54487
51.932978153,-27.3777,9.96283000000002,13.28528,1.175447,-0.1117631,0.149638,-51.89962,-8.528315,-25.54487
51.942888737,-28.86422,20.21518,20.89428,1.16055,-0.1393741,0.1904053,-51.89962,-8.528315,-25.54487
51.955277443,-26.44864,27.67143,34.21003,1.064308,-0.2122351,0.209056,-52.64814,-8.528375,-25.54098
51.965188026,-21.80328,30.11801,37.95317,0.9539787,-0.1891461,0.1583731,-52.64814,-8.528375,-25.54098
51.97509861,-18.83025,29.94325,37.21682,0.8317354,-0.1716629,0.08375507,-52.64814,-8.528375,-25.54098
51.985009193,-15.73335,24.0598,32.98278,0.7827227,-0.1628281,0.03529106,-52.64814,-8.528375,-25.54098
51.994919777,-13.00808,18.23461,27.70557,0.8941119,-0.1517248,0.03865631,-52.64814,-8.528375,-25.54098
52.004830837,-12.76033,14.27347,25.4965,1.060169,-0.06999002,0.0674349,-52.29303,-7.409788,-26.83128
52.014741898,-9.47760899999999,20.97245,25.86468,1.261353,-0.1819837,0.05234408,-52.29303,-7.409788,-26.83128
52.024652481,-10.2828,24.00155,33.1055,1.341881,-0.1525106,0.119498,-52.29303,-7.409788,-26.83128
52.034563065,-12.14094,30.58403,43.29174,1.356954,-0.1521169,0.1592144,-52.29303,-7.409788,-26.83128
52.044473648,-14.37072,37.92377,53.84616,1.265996,-0.1269198,0.1880726,-52.29303,-7.409788,-26.83128
52.054384232,-18.83025,43.45771,64.4619500000001,1.156602,-0.08554345,0.2023242,-51.94899,-5.543578,-28.50935
52.064295292,-26.75833,50.85571,73.17548,1.076302,-0.06270296,0.2185841,-51.94899,-5.543578,-28.50935
52.074205875,-36.4826,57.8459400000001,82.6867400000002,1.001721,-0.09108524,0.1605054,-51.94899,-5.543578,-28.50935
52.084116936,-48.43664,59.1274899999999,89.80483,0.9860218,-0.1217919,0.1671683,-51.94899,-5.543578,-28.50935
52.094027519,-52.40068,61.1080499999999,92.0752599999998,1.022601,-0.1443077,0.1316284,-51.94899,-5.543578,-28.50935
52.103938103,-50.91416,61.5740699999997,87.9025800000002,1.011013,-0.112192,0.08825516,-51.23878,-2.926317,-29.74197
52.113848686,-46.14493,59.3604999999998,83.239,1.007745,-0.1614228,0.04570349,-51.23878,-2.926317,-29.74197
52.123759747,-37.65942,53.24404,78.3913300000002,1.035859,-0.1119358,-0.01568709,-51.23878,-2.926317,-29.74197
52.13367033,-30.7843,43.86547,73.3595700000002,0.9988915,-0.1154758,-0.04849971,-51.23878,-2.926317,-29.74197
52.143580914,-22.11297,35.8267,66.6096499999999,0.9189527,0.009486664,-0.06805488,-51.23878,-2.926317,-29.74197
52.153491974,-15.05203,28.89472,60.5960800000003,0.8594786,0.01371094,-0.04538943,-49.44514,2.243709,-32.72292
52.163402557,-11.76932,23.76855,54.76661,0.8531247,0.1775087,-0.1393107,-49.44514,2.243709,-32.72292
52.173313141,21.80111,-10.2506,43.23038,0.8019553,-0.008153836,-0.1967331,-49.44514,2.243709,-32.72292
52.183224201,32.33058,-8.67779800000001,43.41447,0.7353407,-0.01878533,-0.02957296,-49.44514,2.243709,-32.72292
52.193134785,37.59531,-7.221499,38.0759,0.62784,-0.1749516,0.03328158,-49.44514,2.243709,-32.72292
52.203045368,41.37353,-7.97877500000003,29.301,0.7081277,-0.131209,0.1413462,-48.80563,5.611723,-33.57205
52.212955952,39.2057,-6.81373500000001,15.7398,0.7964032,-0.1043649,0.1503118,-48.80563,5.611723,-33.57205
52.222867012,38.27663,-13.39621,5.553557,0.8957703,-0.03770862,0.1431147,-48.80563,5.611723,-33.57205
52.235255241,44.4085,-29.93976,-15.55528,0.8713639,-0.02727026,0.06418388,-48.80563,5.611723,-33.57205
52.245165825,45.21369,-37.97853,-28.38013,0.8897765,-0.001022879,0.1261289,-48.80563,5.611723,-33.57205
52.255076885,39.94896,-38.5028,-38.62774,0.8948734,0.003048678,0.1510771,-48.45077,7.110134,-33.57861
52.264987469,31.21569,-35.88146,-49.18216,0.8939096,0.008897363,0.1592877,-48.45077,7.110134,-33.57861
52.274898529,20.74816,-35.00768,-57.7116,0.897999,-0.0002294524,0.1659112,-48.45077,7.110134,-33.57861
52.284809113,9.66124900000002,-36.40573,-62.0069999999998,0.9504849,-0.002901895,0.1788525,-48.45077,7.110134,-33.57861
52.294719696,1.113798,-34.25041,-63.0501699999998,1.048725,-0.03998092,0.1786572,-48.45077,7.110134,-33.57861
52.30463028,-3.965122,-34.0174,-61.5160999999998,1.107809,-0.07318007,0.1793301,-49.48441,5.620034,-31.51265
52.314540863,-7.74334299999998,-32.79411,-58.8774900000002,1.161178,-0.1275878,0.217847,-49.48441,5.620034,-31.51265
52.324451923,-9.35373199999999,-30.17277,-54.21392,1.167809,-0.1783366,0.2328127,-49.48441,5.620034,-31.51265
52.334362984,-12.07901,-26.91066,-49.42761,1.139253,-0.1985459,0.2377437,-49.48441,5.620034,-31.51265
52.344273567,-13.00808,-22.65827,-45.43902,1.115211,-0.2332749,0.2367744,-49.48441,5.620034,-31.51265
52.354184151,-13.37971,-16.60007,-43.22995,1.097196,-0.2441931,0.2315865,-50.18793,2.63027,-29.76493
52.364094734,-12.14094,-9.72633399999999,-41.38907,1.082468,-0.258554,0.2090596,-50.18793,2.63027,-29.76493
52.374005318,-10.09699,-4.600161,-38.25956,1.086496,-0.2984444,0.1737051,-50.18793,2.63027,-29.76493
52.383915901,-6.814272,-0.1730116,-33.04371,1.067334,-0.3497027,0.1524138,-50.18793,2.63027,-29.76493
52.393827438,-1.735352,3.205602,-24.82108,1.014853,-0.3814133,0.1474062,-50.18793,2.63027,-29.76493
52.403738022,5.387524,4.894909,-18.68479,0.9594155,-0.3846407,0.1258101,-51.65046,0.0719837,-29.36379
52.413648605,13.68722,5.011413,-16.41436,0.8953217,-0.3413216,0.125251,-51.65046,0.0719837,-29.36379
52.423559189,23.22568,4.487145,-16.59845,0.8671474,-0.3174383,0.12375,-51.65046,0.0719837,-29.36379
52.433469772,29.1098,3.380358,-15.06438,0.897254,-0.2925377,0.08474465,-51.65046,0.0719837,-29.36379
52.443380356,34.43647,1.05028,-11.07579,0.9753276,-0.2640847,0.05444235,-51.65046,0.0719837,-29.36379
52.453291893,35.61329,-3.493374,-2.607709,1.046093,-0.2618034,0.04371978,-50.90331,0.07047498,-29.75315
52.463202477,32.33058,-5.648696,9.05124299999999,1.028792,-0.2833299,0.04805779,-50.90331,0.07047498,-29.75315
52.47311306,27.68522,-7.27975100000002,16.96706,0.9007345,-0.3317287,0.09213391,-50.90331,0.07047498,-29.75315
52.483023644,25.39351,-12.98844,19.0534,0.7538331,-0.3451355,0.1039666,-50.90331,0.07047498,-29.75315
52.492934227,30.65825,-17.99811,11.26031,0.7099708,-0.2785427,0.1485103,-50.90331,0.07047498,-29.75315
52.502844811,35.42748,-16.25055,2.178597,0.7939467,-0.2402421,0.133104,-50.87769,-1.800933,-29.36191
52.515233517,43.41749,-11.47389,-10.46216,0.9436918,-0.1244239,0.04174076,-50.87769,-1.800933,-29.36191
52.5251441,46.51439,-13.1632,-16.41436,1.082372,-0.05693623,0.00681659,-50.87769,-1.800933,-29.36191
52.535054684,46.82408,-20.03693,-13.53031,1.194066,-0.03909323,0.0001405887,-50.87769,-1.800933,-29.36191
52.544965267,44.4085,-31.04655,-3.528153,1.226698,0.0005140395,-0.01382192,-50.87769,-1.800933,-29.36191
52.554876804,39.39151,-38.91056,5.246743,1.150333,0.04487921,0.02991397,-51.24549,-2.173728,-28.9091
52.564787388,34.74616,-43.51247,9.84896099999999,1.021162,0.02688129,0.04875452,-51.24549,-2.173728,-28.9091
52.574697971,33.07383,-48.23088,13.5921,0.8955047,-0.03516832,0.07255084,-51.24549,-2.173728,-28.9091
52.584608555,30.34856,-50.44445,10.46259,0.8270361,-0.06773141,0.1286655,-51.24549,-2.173728,-28.9091
52.594519138,32.51639,-46.83283,9.72623500000002,0.8870468,-0.1843506,0.1220518,-51.24549,-2.173728,-28.9091
52.604429722,35.36554,-39.55134,9.48078300000003,0.9975603,-0.1834503,0.1234366,-51.21228,-4.03651,-26.39779
52.614340305,38.52438,-29.532,4.449025,1.072711,-0.1364919,0.115852,-51.21228,-4.03651,-26.39779
52.624251842,43.6033,-18.69714,-5.614491,1.102327,-0.0630661,0.08581731,-51.21228,-4.03651,-26.39779
52.634162426,43.47943,-15.14377,-14.32802,1.060017,0.06723477,0.07027113,-51.21228,-4.03651,-26.39779
52.644073009,37.78113,-23.99806,-19.54387,1.024838,0.1797215,0.06174269,-51.21228,-4.03651,-26.39779
52.653983593,27.8091,-30.17277,-27.21424,1.028831,0.2829702,0.04750871,-53.07623,-4.028294,-24.33223
52.663894176,15.04986,-36.34748,-34.63915,1.05576,0.334785,0.06393023,-53.07623,-4.028294,-24.33223
52.67380476,0.1227897,-37.80378,-40.89816,1.117684,0.3759596,0.09484214,-53.07623,-4.028294,-24.33223
52.683716297,-12.8842,-31.39606,-47.40263,1.165816,0.37472,0.1140752,-53.07623,-4.028294,-24.33223
52.693626881,-23.90917,-19.16315,-51.39122,1.181041,0.3164171,0.1476372,-53.07623,-4.028294,-24.33223
52.703537464,-42.61446,-11.47389,-50.22533,1.170881,0.2726904,0.1546423,-53.42649,-5.521476,-23.04077
52.713448048,-66.0270499999999,-9.95934199999999,-45.68447,1.146734,0.1805943,0.1240021,-53.42649,-5.521476,-23.04077
52.723358631,-76.9281500000002,-1.745815,-42.24815,1.171234,0.09800911,0.1275468,-53.42649,-5.521476,-23.04077
52.733269215,-84.9800900000001,2.506578,-35.31414,1.150851,0.005636468,0.03444932,-53.42649,-5.521476,-23.04077
52.743179798,-82.1928899999999,4.02113,-31.0801,1.134908,-0.1083631,-0.03242454,-53.42649,-5.521476,-23.04077
52.753091335,-69.0620199999998,3.962878,-27.52105,1.078805,-0.2353338,-0.07308485,-53.78296,-7.021718,-23.48392
52.763001919,-46.95013,2.506578,-26.1097,0.9969479,-0.3220573,-0.0508183,-53.78296,-7.021718,-23.48392
52.772912502,-20.87421,1.865807,-25.31199,0.9511784,-0.3271712,-0.08548063,-53.78296,-7.021718,-23.48392
52.782823086,3.343568,1.807555,-23.71655,0.9383556,-0.2981192,-0.0621209,-53.78296,-7.021718,-23.48392
52.795211792,27.25166,1.749303,-22.12111,0.9246751,-0.2229237,-0.02067998,-53.7765,-7.394484,-23.03306
52.805122375,38.21469,4.545397,-19.29842,0.9155316,-0.1429724,-0.008058826,-53.7765,-7.394484,-23.03306
52.815032959,39.82508,5.710437,-16.353,0.9122657,-0.06099122,0.007882601,-53.7765,-7.394484,-23.03306
52.824943542,32.94996,6.99197999999999,-10.27807,0.922326,-0.002682477,0.008178013,-53.7765,-7.394484,-23.03306
52.834854603,20.12878,6.17645200000001,-2.546346,0.9363201,0.02983305,-0.01958397,-53.7765,-7.394484,-23.03306
52.844765663,5.077834,5.477429,5.308106,0.9403517,0.05164733,-0.0300394,-53.00997,-8.894374,-23.4178
52.854676247,-7.00008600000001,3.72987,11.4444,0.9529119,0.0007557573,-0.05690331,-53.00997,-8.894374,-23.4178
52.86458683,-12.57451,2.564831,15.7398,0.9707332,-0.05280804,-0.05070275,-53.00997,-8.894374,-23.4178
52.874497414,-13.31777,1.982311,18.74658,0.9815563,-0.08653703,-0.03614264,-53.00997,-8.894374,-23.4178
52.884407997,-9.78729900000003,1.865807,19.66702,0.9895384,-0.08294186,-0.01650602,-53.00997,-8.894374,-23.4178
52.894319057,-3.655432,2.506578,18.31704,1.00026,-0.0701425,-0.004996116,-52.63109,-9.269199,-23.48284
52.904229641,3.653259,1.632799,15.86252,0.985195,-0.0529715,-0.02346857,-52.63109,-9.269199,-23.48284
52.914140701,10.09482,-1.396303,13.03983,0.9800094,-0.02196727,-0.01601169,-52.63109,-9.269199,-23.48284
52.924051285,14.92598,-3.202114,9.66487199999998,0.9826033,0.01350236,-0.007636684,-52.63109,-9.269199,-23.48284
52.933961868,17.58932,-4.367153,6.10582399999999,0.9953234,0.06122189,0.001206433,-52.63109,-9.269199,-23.48284
52.943872452,18.08482,-4.89142,2.608138,1.019271,0.09931643,-0.003082678,-53.39553,-8.147042,-23.86788
52.953783512,15.6073,-4.833169,-0.03046724,1.044502,0.1258747,0.008864871,-53.39553,-8.147042,-23.86788
52.963694096,10.83807,-4.774917,-2.669072,1.064658,0.1522755,0.002612289,-53.39553,-8.147042,-23.86788
52.973605156,4.148763,-5.76519999999999,-4.632685,1.082596,0.1724225,0.01122345,-53.39553,-8.147042,-23.86788
52.983515739,-3.221865,-7.33800299999997,-4.632685,1.08498,0.1680311,0.0001285132,-53.39553,-8.147042,-23.86788
52.993426323,-10.71637,-8.44479099999997,-4.264508,1.078289,0.1592453,0.004933444,-53.76979,-8.147073,-23.86593
53.003336906,-17.83924,-8.561295,-4.141782,1.062631,0.1246578,0.01108988,-53.76979,-8.147073,-23.86593
53.013247967,-24.21886,-8.32828599999997,-4.325871,1.019749,0.09517496,0.03865908,-53.76979,-8.147073,-23.86593
53.02315855,-28.92616,-7.97877500000003,-4.448596,0.9997354,0.06592152,0.05545482,-53.76979,-8.147073,-23.86593
53.033069611,-32.20887,-4.949672,-5.491766,0.9944233,0.03881999,0.07789084,-53.76979,-8.147073,-23.86593
53.042980194,-34.74833,-2.21183,-7.27128999999997,0.9900442,0.01682481,0.05425705,-53.01829,-8.143614,-23.03464
53.052890778,-35.80128,-0.755531299999998,-7.57810399999998,1.010498,-0.02222501,0.04804584,-53.01829,-8.143614,-23.03464
53.065279484,-35.92516,2.681334,-7.76219299999999,1.02721,-0.0656254,0.05336405,-53.01829,-8.143614,-23.03464
53.075190067,-34.19089,4.778405,-8.86672600000002,1.030696,-0.08457389,0.03736035,-53.01829,-8.143614,-23.03464
53.085100651,-29.85523,5.535681,-9.78716900000001,1.053729,-0.1013327,0.02263094,-53.01829,-8.143614,-23.03464
53.095011234,-25.76732,9.205554,-9.05081500000002,1.094533,-0.1187583,0.02357796,-53.01829,-8.143614,-23.03464
53.104922295,-21.67941,13.05018,-6.35084600000001,1.087803,-0.1221987,0.03081965,-53.01829,-8.143614,-23.03464
53.114832878,-19.94514,16.37054,-2.116806,1.032076,-0.09557185,0.06368302,-53.01829,-8.143614,-23.03464
53.124743938,-21.06002,18.58412,1.38088,0.9914616,-0.08536457,0.07276948,-53.01829,-8.143614,-23.03464
53.134654522,-21.43165,19.63266,4.019485,0.9794519,-0.1102841,0.06455185,-53.01829,-8.143614,-23.03464
53.144565105,-21.67941,21.49672,6.28991200000003,0.9475737,-0.1158495,0.09650002,-52.65187,-7.772387,-23.87292
53.154475689,-21.86522,22.72001,4.571751,0.8896896,-0.102035,0.09472659,-52.65187,-7.772387,-23.87292
53.164386749,-21.9891,24.52582,-1.99408,0.888325,-0.1176099,0.08647276,-52.65187,-7.772387,-23.87292
53.174297333,-21.61747,23.30253,-8.37582199999997,0.9747732,-0.05975217,0.0966222,-52.65187,-7.772387,-23.87292
53.184208393,-22.4846,23.8268,-12.48714,1.145393,-0.08494685,0.06366614,-52.65187,-7.772387,-23.87292
53.194118977,-21.74134,24.35106,-7.63946799999999,1.261408,-0.09854896,0.06010179,-53.02426,-8.150412,-24.705
53.20402956,-22.11297,25.10834,1.687694,1.245531,-0.1044701,0.07845519,-53.02426,-8.150412,-24.705
53.213940144,-17.59149,28.07919,11.9353,1.152381,-0.1172216,0.08739442,-53.02426,-8.150412,-24.705
53.223851204,-13.6894,29.59374,21.26246,1.08074,-0.1487301,0.07392246,-53.02426,-8.150412,-24.705
53.233761787,-9.29179500000003,31.39955,29.85327,1.036178,-0.1954155,0.06057914,-53.02426,-8.150412,-24.705
53.243672848,-6.13295399999998,34.54516,37.76908,1.024265,-0.2458899,0.07955937,-52.66568,-7.407988,-26.37962
53.253583431,-3.407679,38.38979,45.00991,1.040287,-0.2650109,0.09368856,-52.66568,-7.407988,-26.37962
53.263494015,-0.1249625,42.46743,50.34848,1.014315,-0.2758488,0.1231462,-52.66568,-7.407988,-26.37962
53.273404598,4.830081,45.43827,50.53257,1.015282,-0.2360903,0.1210014,-52.66568,-7.407988,-26.37962
53.283315659,11.64327,46.66157,48.3235,1.028147,-0.2302464,0.09499275,-52.66568,-7.407988,-26.37962
53.293226242,18.08482,44.50624,47.52578,1.044469,-0.1738591,0.08369366,-51.57611,-5.545116,-28.89677
53.303136826,21.18173,41.12763,45.07127,1.006374,-0.1182248,0.05800791,-51.57611,-5.545116,-28.89677
53.313047886,20.93398,34.95292,45.93035,0.9987959,-0.07332594,0.03917078,-51.57611,-5.545116,-28.89677
53.322958469,18.14676,27.26366,47.03488,0.9191969,-0.01281646,0.02494497,-51.57611,-5.545116,-28.89677
53.33286953,15.66924,20.15692,47.09624,0.9155086,0.00407566,0.01884957,-51.57611,-5.545116,-28.89677
53.345257759,14.05885,12.75892,44.58036,0.9042023,0.05341132,0.02312407,-51.22423,-4.050104,-29.73851
53.355168343,14.43048,8.44827800000003,38.25999,0.8982842,0.1076974,0.03410394,-51.22423,-4.050104,-29.73851
53.365079403,15.1118,4.254138,30.71235,0.9101343,0.1447291,0.04096326,-51.22423,-4.050104,-29.73851
53.374989987,14.55436,-0.2895156,24.26924,0.9152477,0.1739268,0.04927318,-51.22423,-4.050104,-29.73851
53.38490057,11.58133,-4.308901,18.13295,0.9200734,0.2002963,0.0738923,-51.22423,-4.050104,-29.73851
53.39481163,7.49341799999997,-6.63897900000002,13.22392,0.9262763,0.1985931,0.1045537,-50.13354,-1.80584,-30.58645
53.404722214,4.953958,-8.561295,8.68306499999997,0.923918,0.1603191,0.1158443,-50.13354,-1.80584,-30.58645
53.414632797,6.19271900000002,-11.00788,3.467218,0.9360622,0.08629312,0.1166793,-50.13354,-1.80584,-30.58645
53.424543858,10.15675,-12.40592,-1.99408,0.9460226,0.02724594,0.1128327,-50.13354,-1.80584,-30.58645
53.434454441,14.3066,-13.51271,-8.25309699999997,0.9518151,-0.00125182,0.1197917,-50.13354,-1.80584,-30.58645
53.444365025,17.34157,-14.50299,-14.51211,0.9584535,-0.01663529,0.129231,-50.8966,-0.6821144,-30.58602
53.454276085,18.45645,-15.55153,-20.46432,0.9673443,-0.02623458,0.126684,-50.8966,-0.6821144,-30.58602
53.464186669,17.96095,-16.0758,-25.18926,0.98643,-0.02354831,0.131327,-50.8966,-0.6821144,-30.58602
53.474097252,16.4125,-15.78454,-29.11649,1.003023,-0.01311278,0.140366,-50.8966,-0.6821144,-30.58602
53.484008312,13.8111,-15.08551,-31.571,1.029032,-0.02151975,0.1395893,-50.8966,-0.6821144,-30.58602
53.493918896,11.39551,-14.736,-32.0619,1.059983,-0.03764306,0.1348743,-50.51451,-1.053281,-29.75163
53.503829479,9.53737299999999,-15.26027,-31.14146,1.081134,-0.05487526,0.1268813,-50.51451,-1.053281,-29.75163
53.513740063,6.254657,-15.60978,-30.71192,1.106453,-0.08363274,0.1302969,-50.51451,-1.053281,-29.75163
53.523651123,2.910002,-17.47384,-31.26419,1.088437,-0.1433233,0.1631967,-50.51451,-1.053281,-29.75163
53.533561707,-0.1249625,-19.27966,-30.71192,1.060229,-0.2382248,0.1623452,-50.51451,-1.053281,-29.75163
53.543472767,2.97194,-8.095279,-26.72333,1.100936,-0.2686237,0.1862543,-51.2277,-3.67394,-29.35419
53.55338335,12.82009,6.584216,-18.43934,1.051773,-0.2435216,0.1897572,-51.2277,-3.67394,-29.35419
53.563293934,23.47343,12.58417,-10.8917,1.002683,-0.1605805,0.2205335,-51.2277,-3.67394,-29.35419
53.573204994,28.11879,12.1764,-6.90311299999998,1.055018,-0.09846195,0.1993364,-51.2277,-3.67394,-29.35419
53.583115578,27.31359,13.86571,-5.000863,1.143935,-0.04080982,0.1638466,-51.2277,-3.67394,-29.35419
53.593026161,23.907,19.63266,-1.871354,1.179607,-0.05110585,0.1495235,-51.21987,-4.045136,-28.51786
53.602937221,20.19072,22.89477,4.326299,1.135559,-0.09899578,0.08959204,-51.21987,-4.045136,-28.51786
53.612847805,14.92598,19.10839,14.32845,0.9865659,-0.2080987,0.07151695,-51.21987,-4.045136,-28.51786
53.625236034,12.82009,7.51624699999999,27.88965,0.7562854,-0.2712117,0.04825794,-51.21987,-4.045136,-28.51786
53.635147095,18.45645,-0.755531299999998,29.05555,0.6915265,-0.2855426,0.05836453,-51.21987,-4.045136,-28.51786
53.645057678,26.44646,-0.4642715,23.04198,0.691945,-0.299959,0.08227254,-50.82573,-5.923051,-29.73469
53.654968262,41.49741,3.263854,14.26709,0.7939825,-0.3372968,0.02298098,-50.82573,-5.923051,-29.73469
53.664879322,60.2646400000003,6.23470400000003,8.80579200000003,0.9106407,-0.3264314,-0.0322834,-50.82573,-5.923051,-29.73469
53.674789905,73.7671299999997,1.982311,5.18538,0.9661018,-0.2414979,-0.05575824,-50.82573,-5.923051,-29.73469
53.684700966,82.9339600000002,-7.68751500000001,5.614921,0.9906283,-0.1114035,0.008742671,-50.82573,-5.923051,-29.73469
53.694611549,83.3675300000001,-17.47384,6.90354199999998,0.9950112,0.1266648,-0.0002753306,-50.83405,-5.172292,-29.35152
53.704522133,68.6262700000001,-19.2214,6.596727,0.9558737,0.1710424,0.04983856,-50.83405,-5.172292,-29.35152
53.714432716,51.09781,-25.1631,10.03305,0.8999009,0.273151,0.1470681,-50.83405,-5.172292,-29.35152
53.724343777,28.67623,-33.60964,9.97168700000001,0.8875977,0.2780831,0.1928298,-50.83405,-5.172292,-29.35152
53.73425436,8.54636400000002,-36.58049,-0.705459200000001,0.9530955,0.1552462,0.1894851,-50.83405,-5.172292,-29.35152
53.74416542,2.166745,-29.76501,-12.11896,1.077431,0.05322857,0.2260682,-51.1873,-6.668873,-28.89525
53.754076004,3.405506,-17.59035,-20.34159,1.127234,-0.006671456,0.1488634,-51.1873,-6.668873,-28.89525
53.763986587,12.0149,-13.86222,-21.63021,1.117574,-0.03600023,0.1261899,-51.1873,-6.668873,-28.89525
53.773897648,21.92498,-14.85251,-19.72796,1.099693,-0.02124377,0.1163703,-51.1873,-6.668873,-28.89525
53.783808231,28.11879,-16.60007,-19.1757,1.091403,0.01743995,0.1162245,-51.1873,-6.668873,-28.89525
53.793718815,29.6053,-16.01755,-19.91205,1.066822,0.02828401,0.1160439,-52.29926,-7.036761,-27.2179
53.803629875,28.3046,-13.97873,-20.89386,1.029427,-0.0003474273,0.1075561,-52.29926,-7.036761,-27.2179
53.813540459,28.18073,-12.81369,-20.70977,0.9893546,-0.06156522,0.08591179,-52.29926,-7.036761,-27.2179
53.823451042,30.4105,-12.69718,-19.29842,0.9342832,-0.1070409,0.05058643,-52.29926,-7.036761,-27.2179
53.833362102,38.46244,-17.06608,-18.5007,0.8937913,-0.1372574,0.0243509,-52.29926,-7.036761,-27.2179
53.843272686,54.25665,-30.05627,-17.64162,0.8982367,-0.05840292,0.0733311,-52.28034,-8.15558,-25.99379
53.853183269,48.99191,-25.27961,-15.00302,0.9272473,-0.05455162,-0.001816217,-52.28034,-8.15558,-25.99379
53.86309433,48.92997,-30.34753,-15.12574,0.939792,-0.02813848,0.01264848,-52.28034,-8.15558,-25.99379
53.873004913,49.48742,-30.28927,-18.93024,0.9572054,0.02197911,0.005138787,-52.28034,-8.15558,-25.99379
53.882915497,41.55935,-34.19216,-19.85069,0.9694472,0.1274985,0.03501819,-52.28034,-8.15558,-25.99379
53.892826557,28.49042,-36.11447,-22.18248,0.9608102,0.2299042,0.07563344,-51.87966,-9.962694,-25.15498
53.905214787,7.12178899999997,-39.90085,-22.36657,1.036951,0.2493246,0.08466181,-51.87966,-9.962694,-25.15498
53.91512537,-9.663423,-39.66784,-21.44612,1.12213,0.2062997,0.09126996,-51.87966,-9.962694,-25.15498
53.92503643,-23.66142,-35.3572,-17.21208,1.203056,0.1050085,0.09176736,-51.87966,-9.962694,-25.15498
53.934947014,-31.65143,-29.00773,-10.83034,1.228506,-0.01586672,0.0955283,-52.22071,-11.82551,-22.64172
53.944857597,-31.52756,-19.33791,-5.184951,1.222255,-0.1219756,0.124649,-52.22071,-11.82551,-22.64172
53.954768658,-25.086,-8.61954700000002,-1.871354,1.19697,-0.1556309,0.1467459,-52.22071,-11.82551,-22.64172
53.964679241,-15.29979,0.001744238,-1.319088,1.154711,-0.131388,0.1549808,-52.22071,-11.82551,-22.64172
53.974590302,-5.88520100000001,7.224988,-3.159976,1.12528,-0.05230038,0.1432958,-52.22071,-11.82551,-22.64172
53.984500885,-0.2488386,13.98221,-6.044032,1.105992,0.04099665,0.135933,-53.32595,-12.94598,-21.79724
53.994411469,-0.4346527,19.5744,-9.72580600000002,1.069766,0.1200247,0.129112,-53.32595,-12.94598,-21.79724
54.004322052,-5.141944,22.89477,-11.99623,1.043878,0.1419049,0.1098107,-53.32595,-12.94598,-21.79724
54.014233112,-11.39769,23.8268,-11.32124,1.032995,0.1236556,0.07617866,-53.32595,-12.94598,-21.79724
54.024143696,-16.72436,23.47729,-8.13037100000001,1.037855,0.05419382,0.03965909,-53.32595,-12.94598,-21.79724
54.034054756,-17.90118,23.24428,-4.755411,1.027029,-0.01353334,0.001375511,-52.97061,-11.82714,-23.0233
54.04396534,-15.23785,25.05009,-3.221339,1.037716,-0.06610908,0.02829543,-52.97061,-11.82714,-23.0233
54.053875923,-10.40668,27.03065,-4.325871,1.039432,-0.1237618,0.03269706,-52.97061,-11.82714,-23.0233
54.063786507,-3.965122,25.10834,-13.16213,1.081042,0.02505903,0.02081957,-52.97061,-11.82714,-23.0233
54.073697567,-1.611476,41.30239,-25.43471,1.080643,-0.1063417,0.1140589,-52.97061,-11.82714,-23.0233
54.083608627,3.343568,56.79741,-33.04371,1.058521,-0.05619552,0.1136372,-52.59933,-11.8305,-23.86042
54.093519211,8.11279800000001,63.9041400000001,-36.66412,0.9907888,0.009655708,0.1660793,-52.59933,-11.8305,-23.86042
54.103429794,6.750161,58.8362299999998,-33.41189,0.9025906,0.1606436,0.2298412,-52.59933,-11.8305,-23.86042
54.113340378,-0.806281,54.81684,-31.69373,0.9006423,0.2650046,0.2574434,-52.59933,-11.8305,-23.86042
54.123250961,-13.31777,58.07895,-31.81645,1.018784,0.3019991,0.2820456,-52.59933,-11.8305,-23.86042
54.133162022,-23.59948,64.1371499999999,-30.52783,1.098695,0.2250577,0.2121314,-50.72245,-12.96434,-26.37223
54.143073082,-22.91817,65.94296,-24.63699,1.186024,0.2845799,0.1670656,-50.72245,-12.96434,-26.37223
54.152983666,-28.6784,77.8263599999998,-26.84606,1.190715,0.1150474,0.1874999,-50.72245,-12.96434,-26.37223
54.162894249,-25.27181,79.6904299999997,-25.98698,1.181132,0.03869018,0.1649925,-50.72245,-12.96434,-26.37223
54.175282955,-15.73335,79.3409099999998,-23.28701,1.151365,-0.03847724,0.1282617,-50.72245,-12.96434,-26.37223
54.185193539,-4.274812,76.9525800000001,-19.11433,1.127789,-0.039802,0.116467,-48.91255,-14.1034,-30.16861
54.195104122,6.37853299999997,73.6322299999998,-15.61665,1.115349,-0.04567295,0.1362294,-48.91255,-14.1034,-30.16861
54.205014706,15.48343,69.4380799999998,-11.62806,1.074682,-0.002570113,0.1311307,-48.91255,-14.1034,-30.16861
54.214925766,23.65925,70.31186,-8.49854900000003,1.083742,0.0286459,0.1451795,-48.91255,-14.1034,-30.16861
54.224836826,26.88003,73.6904799999999,-5.000863,1.071363,0.05890442,0.2131979,-48.91255,-14.1034,-30.16861
54.23474741,25.02188,74.68076,0.767250500000003,1.01254,0.1073615,0.2558384,-47.04351,-14.86604,-33.51675
54.244657993,18.08482,73.16621,7.51716999999999,0.9567136,0.1639318,0.2663348,-47.04351,-14.86604,-33.51675
54.254568577,11.45745,73.9234800000001,13.22392,0.9633182,0.1456039,0.2690325,-47.04351,-14.86604,-33.51675
54.26447916,2.724188,75.0302700000002,17.76477,0.9480299,0.1333993,0.2897394,-47.04351,-14.86604,-33.51675
54.274390221,-1.054033,77.6516099999998,23.10335,0.9552454,0.08050684,0.263872,-47.04351,-14.86604,-33.51675
54.284301281,-1.054033,77.3603500000003,30.4669,0.9697049,0.03887865,0.2423339,-44.79051,-16.37783,-36.86454
54.294211865,-0.9301572,74.2729899999998,38.93498,0.9975812,0.004356941,0.2500089,-44.79051,-16.37783,-36.86454
54.304122448,-2.788299,73.6322299999998,48.13942,1.06661,-0.02131637,0.2756081,-44.79051,-16.37783,-36.86454
54.314033032,-8.053034,75.67104,53.72344,1.080424,-0.03058839,0.3243947,-44.79051,-16.37783,-36.86454
54.323943615,-15.54754,73.5157200000002,59.0620100000002,1.076682,-0.04152066,0.3757334,-44.79051,-16.37783,-36.86454
54.333855152,-17.83924,74.9137600000002,63.1119700000003,1.086513,-0.05210287,0.3683696,-42.559,-16.01352,-39.44715
54.343765736,-16.7863,76.1370500000001,66.6710099999997,1.054858,-0.009755847,0.3828691,-42.559,-16.01352,-39.44715
54.353676319,-14.30878,78.5836400000002,67.8369100000002,1.013757,-0.003455915,0.3876126,-42.559,-16.01352,-39.44715
54.363586903,-9.72536099999999,80.3312000000001,69.8618899999999,0.9930931,-0.03572611,0.3851879,-42.559,-16.01352,-39.44715
54.373497486,-4.398688,81.4379900000002,75.3845499999999,1.029017,-0.07588664,0.4081159,-42.559,-16.01352,-39.44715
54.38340807,-2.292794,82.37002,80.8458500000001,1.034933,-0.1469987,0.4248731,-41.11755,-12.65563,-42.80605
54.393319607,-2.974113,79.3409099999998,88.3321199999998,1.12711,0.03743262,0.4266898,-41.11755,-12.65563,-42.80605
54.40323019,-21.36971,82.0787599999999,87.5343999999997,1.162436,-0.01961608,0.4667965,-41.11755,-12.65563,-42.80605
54.413140774,-29.05003,77.2438400000002,90.23438,1.096079,-0.007692109,0.4948586,-41.11755,-12.65563,-42.80605
54.423051357,-31.71337,75.0302700000002,89.00711,0.9951656,-0.01270518,0.5188062,-41.11755,-12.65563,-42.80605
54.432961941,-31.7753,76.0787999999999,86.4912299999997,0.9284788,-0.04216793,0.5139449,-39.29055,-10.04508,-45.71486
54.442873478,-30.47461,77.3603500000003,85.4480699999999,0.8463547,-0.1168353,0.5242902,-39.29055,-10.04508,-45.71486
54.455261231,-25.02406,78.8166500000001,85.3866999999999,0.771093,-0.1933593,0.5340796,-39.29055,-10.04508,-45.71486
54.465172768,-18.76832,81.0884700000002,88.0866699999998,0.7861969,-0.1814902,0.5426618,-39.29055,-10.04508,-45.71486
54.475083351,-15.67141,83.5350599999997,90.23438,0.8007342,-0.1725945,0.5401859,-39.29055,-10.04508,-45.71486
54.484993935,-14.24684,84.2923299999999,90.23438,0.7862187,-0.1592881,0.5231231,-36.04931,-6.000554,-49.14952
54.494904518,-13.6894,83.3603000000001,88.4548500000002,0.7781668,-0.1487733,0.5131842,-36.04931,-6.000554,-49.14952
54.504815102,-13.31777,81.8457500000001,85.3866999999999,0.7713913,-0.1334612,0.4903014,-36.04931,-6.000554,-49.14952
54.514725685,-11.70738,79.4574199999998,82.50265,0.7834949,-0.1304439,0.4820468,-36.04931,-6.000554,-49.14952
54.524637222,-12.63645,76.4283100000002,81.3367500000001,0.8045602,-0.1355257,0.4798975,-36.04931,-6.000554,-49.14952
54.534547806,-16.35273,71.7099100000002,79.4345000000002,0.7762412,-0.1363474,0.4830349,-33.87229,-1.516994,-52.06605
54.544458389,-19.63545,66.5837299999998,76.5504499999998,0.7479055,-0.1808321,0.48108,-33.87229,-1.516994,-52.06605
54.554368973,-23.22786,62.2148400000001,74.3413799999999,0.6958415,-0.1998912,0.4838353,-33.87229,-1.516994,-52.06605
54.564279556,-25.39569,58.9527300000002,72.7459399999998,0.6287763,-0.1939412,0.4835349,-33.87229,-1.516994,-52.06605
54.574191093,-25.64344,54.58384,70.90506,0.5805154,-0.1915444,0.5008027,-33.87229,-1.516994,-52.06605
54.584101677,-27.31577,46.95283,66.6710099999997,0.530616,-0.20169,0.5343275,-30.15507,-0.02510977,-53.76049
54.59401226,-28.6784,40.13735,63.5415099999999,0.5480495,-0.1913136,0.5299139,-30.15507,-0.02510977,-53.76049
54.603922844,-32.02306,37.51601,60.9028999999997,0.5879418,-0.1835998,0.519033,-30.15507,-0.02510977,-53.76049
54.613833427,-38.65043,34.95292,57.4052099999998,0.6087359,-0.2085744,0.514833,-30.15507,-0.02510977,-53.76049
54.623744965,-43.4816,31.10829,55.13478,0.6123834,-0.2613371,0.5226105,-30.15507,-0.02510977,-53.76049
54.633655548,-45.33974,27.14716,54.70525,0.6135379,-0.3324437,0.5518959,-26.9111,4.402638,-55.07623
54.643566132,-46.45462,22.83651,54.45979,0.6068705,-0.3407294,0.5595848,-26.9111,4.402638,-55.07623
54.653476715,-45.52555,21.90448,54.2757,0.5912381,-0.4126164,0.5722148,-26.9111,4.402638,-55.07623
54.663387299,-41.43764,22.487,52.128,0.5986374,-0.4400474,0.5940509,-26.9111,4.402638,-55.07623
54.673297882,-36.23484,21.67147,51.6371,0.6147334,-0.4674226,0.6057236,-26.9111,4.402638,-55.07623
54.683209419,-31.96112,21.67147,50.28712,0.6348252,-0.4534898,0.6262774,-25.83011,7.396093,-55.92648
54.693120003,-30.47461,22.25399,47.28033,0.6736245,-0.4597463,0.6354801,-25.83011,7.396093,-55.92648
54.703030586,-28.74034,20.97245,43.78265,0.6820705,-0.4693287,0.6372588,-25.83011,7.396093,-55.92648
54.71294117,-25.89119,19.63266,40.7145,0.672144,-0.4441619,0.6524031,-25.83011,7.396093,-55.92648
54.722851753,-22.23685,19.28314,38.50544,0.6571708,-0.4210893,0.6498143,-25.83011,7.396093,-55.92648
54.735240459,-18.02506,19.4579,35.80547,0.620262,-0.3953303,0.6570495,-24.74451,10.39478,-55.49184
54.745151043,-14.30878,18.87538,32.67596,0.5956037,-0.3825751,0.6516006,-24.74451,10.39478,-55.49184
54.755062103,-11.02606,18.87538,29.23964,0.5751681,-0.3640037,0.635588,-24.74451,10.39478,-55.49184
54.764973164,-8.11497100000001,17.8851,25.37378,0.5537587,-0.3503205,0.61427,-24.74451,10.39478,-55.49184
54.774883747,-5.513573,16.25404,21.75336,0.541742,-0.3452482,0.5928078,-24.74451,10.39478,-55.49184
54.784794331,-3.097989,13.74921,18.31704,0.5342888,-0.3439384,0.5828022,-23.27173,12.26787,-55.50539
54.794704914,-1.549538,10.31234,15.2489,0.5243686,-0.3436464,0.5694514,-23.27173,12.26787,-55.50539
54.804615498,-0.1869005,6.81722400000001,12.79438,0.5152851,-0.327806,0.5605179,-23.27173,12.26787,-55.50539
54.814526558,0.0608516599999998,3.263854,10.7694,0.4990546,-0.3280573,0.5510632,-23.27173,12.26787,-55.50539
54.824437618,-0.4346527,-1.105043,9.05124299999999,0.4871648,-0.3307239,0.5329093,-23.27173,12.26787,-55.50539
54.834348202,-1.549538,-6.11471200000003,7.39444499999999,0.4831092,-0.3293843,0.5204717,-22.16754,13.70391,-55.51565
54.844258785,-4.02706,-9.84283699999999,5.553557,0.4798693,-0.3198242,0.5018392,-22.16754,13.70391,-55.51565
54.854169369,-8.176909,-13.22145,0.889976299999999,0.476044,-0.35056,0.4743008,-22.16754,13.70391,-55.51565
54.864080429,-10.15893,-17.24084,-5.000863,0.4756939,-0.3914696,0.4399402,-22.16754,13.70391,-55.51565
54.873991013,-8.73435200000001,-22.0175,-11.56669,0.4685814,-0.4236411,0.4239465,-22.16754,13.70391,-55.51565
54.883902073,-6.07101500000003,-28.83298,-18.43934,0.4586229,-0.4238568,0.4062712,-22.1643,13.32749,-55.96421
54.893812656,-3.036051,-35.3572,-24.75972,0.4652368,-0.4024282,0.4087537,-22.1643,13.32749,-55.96421
54.90372324,-1.79729,-43.45422,-30.03693,0.4634776,-0.3630864,0.4263177,-22.1643,13.32749,-55.96421
54.9136343,-1.921166,-51.25998,-33.41189,0.4669426,-0.3149771,0.4390903,-22.1643,13.32749,-55.96421
54.923544884,-4.832254,-57.9589599999998,-36.41867,0.4849945,-0.2716049,0.438252,-22.1643,13.32749,-55.96421
54.933455467,-11.02606,-63.4346400000002,-40.77544,0.504952,-0.2645714,0.4376341,-22.91953,14.08002,-55.12745
54.943366528,-16.60048,-67.5122800000001,-47.27991,0.547258,-0.3009851,0.4197146,-22.91953,14.08002,-55.12745
54.953277111,-17.40568,-70.5996299999998,-53.84574,0.5887403,-0.3465991,0.4060628,-22.91953,14.08002,-55.12745
54.963188171,-14.06102,-76.4248399999998,-59.7979400000001,0.6144199,-0.3617585,0.4129267,-22.91953,14.08002,-55.12745
54.973098755,-9.72536099999999,-85.2208800000003,-64.0933399999999,0.6402218,-0.3346635,0.4335153,-22.91953,14.08002,-55.12745
54.983009338,-6.25683000000001,-90.6383099999999,-67.2842099999998,0.6857074,-0.2875066,0.4420517,-25.15911,14.08663,-53.44541
54.992919922,-5.575511,-92.2693600000003,-69.8000900000001,0.7239168,-0.2526066,0.4419308,-25.15911,14.08663,-53.44541
55.005308628,-7.557528,-90.8130599999999,-73.8500399999998,0.7381819,-0.2631164,0.4378876,-25.15911,14.08663,-53.44541
55.015219212,-10.09699,-90.0557899999998,-79.4954300000002,0.7195419,-0.2977659,0.4392697,-25.15911,14.08663,-53.44541
55.025130272,-11.39769,-91.91985,-85.8771700000001,0.6951562,-0.3421815,0.4411199,-29.56432,12.97269,-50.91338
55.035040855,-10.65443,-97.2207799999998,-93.9157099999998,0.6626882,-0.3595128,0.4494674,-29.56432,12.97269,-50.91338
55.044951916,-7.18590000000003,-108.1139,-102.9361,0.6563979,-0.3576067,0.4581811,-29.56432,12.97269,-50.91338
55.054862499,-0.1869005,-114.1721,-107.4769,0.7275215,-0.3249037,0.4226897,-29.56432,12.97269,-50.91338
55.064773083,7.67923199999999,-113.0071,-108.0905,0.8249239,-0.2826668,0.3860584,-29.56432,12.97269,-50.91338
55.074683666,12.0149,-105.4343,-108.5201,0.9379151,-0.2865968,0.3849872,-34.39567,11.17378,-47.92725
55.084594727,12.13877,-97.2207799999998,-110.4837,1.000942,-0.3104624,0.3996104,-34.39567,11.17378,-47.92725
55.094505787,6.93597599999999,-94.3081800000002,-113.1223,1.01033,-0.2820022,0.4424473,-34.39567,11.17378,-47.92725
55.10441637,0.927984400000002,-95.29847,-116.8041,1.046571,-0.2795678,0.4507712,-34.39567,11.17378,-47.92725
55.114326954,-4.460626,-97.10428,-120.1177,1.08962,-0.2231692,0.4709154,-34.39567,11.17378,-47.92725
55.124237537,-7.557528,-93.78392,-118.645,1.121503,-0.2068696,0.452003,-39.13821,7.441036,-44.55001
55.134148121,-10.90218,-91.3373299999999,-118.5836,1.133944,-0.2383108,0.4363134,-39.13821,7.441036,-44.55001
55.144059658,-11.27381,-91.1625700000002,-119.1972,1.109657,-0.2517039,0.4364488,-39.13821,7.441036,-44.55001
55.153970242,-7.309776,-86.6189299999999,-121.4063,1.110255,-0.3050515,0.4322466,-39.13821,7.441036,-44.55001
55.163880825,-1.983104,-80.3859599999999,-118.4609,1.076933,-0.3096476,0.4675758,-39.13821,7.441036,-44.55001
55.173791409,4.272639,-73.9200000000001,-115.6382,1.067549,-0.3142026,0.4532274,-43.17548,2.589789,-39.88799
55.183701992,11.33358,-68.0947999999997,-113.6132,1.052042,-0.2884811,0.4016851,-43.17548,2.589789,-39.88799
55.193613529,19.94297,-62.1531000000001,-112.0791,1.066101,-0.2671515,0.3671257,-43.17548,2.589789,-39.88799
55.203524113,28.86205,-55.39587,-112.2019,1.109637,-0.2319715,0.3146203,-43.17548,2.589789,-39.88799
55.213434696,37.34756,-51.726,-109.3178,1.156348,-0.2054101,0.2754724,-43.17548,2.589789,-39.88799
55.22334528,43.85106,-48.87165,-106.4951,1.196718,-0.173554,0.244101,-46.10805,-1.458371,-37.35438
55.233255863,47.69122,-50.56096,-99.4997399999998,1.215022,-0.1298107,0.2206954,-46.10805,-1.458371,-37.35438
55.2431674,47.62928,-54.11433,-90.84756,1.227043,-0.09220244,0.2448427,-46.10805,-1.458371,-37.35438
55.253077984,48.49641,-51.726,-81.7044899999999,1.207369,-0.09323501,0.2800693,-46.10805,-1.458371,-37.35438
55.262988567,44.53238,-53.53181,-70.5364499999997,1.141088,-0.03810489,0.3185019,-46.10805,-1.458371,-37.35438
55.272899151,41.3116,-53.24055,-61.94564,1.122772,-0.01869669,0.2717451,-46.77188,-7.063766,-33.99245
55.285287857,41.0019,-48.75515,-53.96846,1.134659,0.02444725,0.2416726,-46.77188,-7.063766,-33.99245
55.295198441,40.56834,-46.25031,-48.4458,1.127215,0.05478189,0.2188959,-46.77188,-7.063766,-33.99245
55.305109024,40.63028,-46.65808,-40.22317,1.124138,0.07930017,0.1859568,-46.77188,-7.063766,-33.99245
55.315020561,40.13477,-47.2406,-33.41189,1.12107,0.05090114,0.1397008,-46.77188,-7.063766,-33.99245
55.324931145,45.15175,-41.47365,-26.90742,1.051452,0.1001789,0.1795658,-48.18802,-12.61019,-31.46201
55.334841728,37.16175,-51.02697,-16.04619,1.049108,0.0558107,0.1375181,-48.18802,-12.61019,-31.46201
55.344752312,34.99392,-53.59006,-7.82355600000003,1.01105,0.01830169,0.1016083,-48.18802,-12.61019,-31.46201
55.354662895,35.67523,-56.61916,0.767250500000003,0.9650724,0.009425687,0.0899704,-48.18802,-12.61019,-31.46201
55.364573956,36.41849,-59.1240000000002,7.33308200000001,0.94246,0.01298393,0.08252069,-48.18802,-12.61019,-31.46201
55.374485016,38.21469,-61.4540800000002,12.18075,0.9181754,0.01641694,0.05491899,-48.89203,-15.22039,-28.49479
55.384395599,39.2057,-62.0365999999998,12.73302,0.9134862,0.04060192,0.05512347,-48.89203,-15.22039,-28.49479
55.394306183,38.83407,-60.6385500000001,10.40123,0.9371248,0.06610107,0.05363426,-48.89203,-15.22039,-28.49479
55.404216766,35.67523,-59.1822499999998,7.76262199999999,0.9506388,0.09983902,0.07582132,-48.89203,-15.22039,-28.49479
55.414127827,37.71919,-51.8425,3.958122,1.084771,-0.005975959,-0.1762865,-48.89203,-15.22039,-28.49479
55.42403841,38.95795,-37.57077,-4.694048,0.9848689,0.2253868,0.1752537,-49.93701,-15.58305,-25.53287
55.433949471,27.87104,-48.58039,-0.3372818,0.9730797,0.2842272,0.1435842,-49.93701,-15.58305,-25.53287
55.443860054,19.75715,-47.18234,-5.73721700000003,1.056286,0.2950675,0.1640138,-49.93701,-15.58305,-25.53287
55.453770638,11.02389,-39.8426,-7.57810399999998,1.141294,0.3473153,0.2178336,-49.93701,-15.58305,-25.53287
55.463681698,-2.354732,-29.82326,-7.148564,1.189328,0.3757806,0.2622338,-49.93701,-15.58305,-25.53287
55.473592281,-18.5825,-15.37677,-7.946282,1.192606,0.4064797,0.2840151,-51.0349,-16.69516,-22.63256
55.483502865,-35.61546,0.46776,-8.43718500000001,1.15277,0.4019617,0.2565042,-51.0349,-16.69516,-22.63256
55.493413925,-49.86122,12.11815,-8.62127400000002,1.092167,0.3548757,0.2044138,-51.0349,-16.69516,-22.63256
55.503324509,-55.80727,22.77826,-8.92808800000003,1.089553,0.2637855,0.1289264,-51.0349,-16.69516,-22.63256
55.513235569,-56.6744,27.20541,-8.49854900000003,1.048163,0.2004278,0.07174825,-51.0349,-16.69516,-22.63256
55.523146153,-53.26781,28.95297,-8.43718500000001,1.009247,0.1144366,0.03840437,-51.40431,-17.06978,-22.62946
55.533056736,-45.40168,30.11801,-7.76219299999999,0.9884913,0.03651337,0.02127165,-51.40431,-17.06978,-22.62946
55.54296732,-36.1729,32.15683,-6.96447600000002,0.9789486,-0.00811573,0.03978876,-51.40431,-17.06978,-22.62946
55.55287838,-27.50158,35.01117,-5.92130599999998,0.9604427,-0.03830526,0.05944528,-51.40431,-17.06978,-22.62946
55.565266609,-17.40568,37.22475,-4.878137,0.941355,-0.02928516,0.06832473,-51.40431,-17.06978,-22.62946
55.575177669,-11.39769,37.51601,-4.264508,0.9408475,-0.01369123,0.0847587,-50.6793,-15.95613,-25.14235
55.58508873,-5.451635,40.13735,-3.957693,0.9449564,0.04011016,0.07163469,-50.6793,-15.95613,-25.14235
55.594999313,-1.79729,39.43832,-6.35084600000001,0.909152,0.105699,0.09016863,-50.6793,-15.95613,-25.14235
55.604909897,-2.788299,36.17621,-8.68263700000001,0.9179758,0.1226547,0.1598229,-50.6793,-15.95613,-25.14235
55.61482048,-9.47760899999999,30.52577,-7.76219299999999,0.9595402,0.1780502,0.1770933,-50.6793,-15.95613,-25.14235
55.624731064,-18.83025,26.79765,-5.98266900000002,1.011429,0.2311646,0.1971339,-49.92706,-16.71206,-26.8143
55.634642601,-30.28879,28.4287,-3.834968,1.082371,0.235977,0.2065932,-49.92706,-16.71206,-26.8143
55.644553184,-42.6764,32.7976,-2.239532,1.108526,0.2198414,0.2110454,-49.92706,-16.71206,-26.8143
55.654463768,-53.5775,38.21503,-0.705459200000001,1.125551,0.1714769,0.19328,-49.92706,-16.71206,-26.8143
55.664374351,-58.4706000000002,43.45771,2.178597,1.154786,0.08399491,0.1761015,-49.92706,-16.71206,-26.8143
55.674284935,-56.42665,48.23437,6.41263799999999,1.223773,0.003914259,0.1816522,-49.25174,-16.34421,-28.48938
55.684196472,-49.36571,50.15668,12.67165,1.26615,-0.06708804,0.225442,-49.25174,-16.34421,-28.48938
55.694107056,-39.70338,49.57417,18.19431,1.262542,-0.1033162,0.2602856,-49.25174,-16.34421,-28.48938
55.704017639,-29.54554,49.28291,24.39197,1.232131,-0.09569235,0.3076731,-49.25174,-16.34421,-28.48938
55.713928223,-20.75033,51.43823,31.08053,1.171344,-0.07458127,0.3174989,-49.25174,-16.34421,-28.48938
55.723838806,-13.37971,53.59355,36.91,1.095647,-0.05377976,0.3034526,-48.14923,-15.60695,-31.45278
55.733750343,-2.540546,61.4575600000002,40.59178,1.043957,-0.05655527,0.2664598,-48.14923,-15.60695,-31.45278
55.743660927,5.573338,66.8167400000002,42.98493,0.9844902,-0.04086825,0.2555905,-48.14923,-15.60695,-31.45278
55.75357151,11.02389,69.0303199999999,43.96674,0.9531461,-0.05835969,0.2303155,-48.14923,-15.60695,-31.45278
55.763482094,22.79212,65.8264600000002,52.43482,0.995527,0.01013488,0.2471854,-48.14923,-15.60695,-31.45278
55.773393631,15.97893,73.0497100000002,53.66208,1.008239,-0.06214109,0.2100943,-47.07074,-12.99646,-34.3577
55.783304214,11.33358,70.4866200000003,59.8597300000003,1.030008,-0.06954395,0.226169,-47.07074,-12.99646,-34.3577
55.793214798,5.82109000000002,72.17593,65.5664799999999,1.0459,-0.08434254,0.2326457,-47.07074,-12.99646,-34.3577
55.803125381,-4.02706,72.7001900000002,70.4755199999998,1.044037,-0.1157774,0.2526201,-47.07074,-12.99646,-34.3577
55.813035965,-12.26482,75.2050200000002,75.2618299999998,1.060891,-0.1586166,0.2723455,-47.07074,-12.99646,-34.3577
55.822947025,-20.06902,73.5739699999999,85.6321600000002,1.0852,-0.156671,0.3086257,-46.34573,-11.88281,-36.8706
55.832858086,-23.90917,74.5642499999999,93.9161499999998,1.109071,-0.1717782,0.3299114,-46.34573,-11.88281,-36.8706
55.845246315,-26.44864,75.4380300000001,102.691,1.096575,-0.1445075,0.3830261,-46.34573,-11.88281,-36.8706
55.855156898,-34.06701,72.5836899999998,106.3728,1.072273,-0.1732696,0.4113885,-46.34573,-11.88281,-36.8706
55.865067959,-36.04903,76.6030699999999,109.8091,1.059626,-0.2072927,0.4256836,-44.15657,-8.589128,-40.6829
55.874978542,-37.34973,79.3991700000002,111.7728,1.03234,-0.2590447,0.42223,-44.15657,-8.589128,-40.6829
55.884889126,-34.06701,77.1273399999998,116.1909,1.020091,-0.2577472,0.4213916,-44.15657,-8.589128,-40.6829
55.894800186,-28.86422,80.6807099999998,118.584,1.003582,-0.2496026,0.4422454,-44.15657,-8.589128,-40.6829
55.90471077,-24.90018,81.6709899999998,118.1545,1.014059,-0.2791214,0.4280272,-44.15657,-8.589128,-40.6829
55.914621353,-19.32576,80.9137200000002,117.4795,0.9913049,-0.3017302,0.4237657,-42.72829,-4.10589,-43.65979
55.924532413,-11.27381,81.4379900000002,117.4795,0.9744174,-0.3218269,0.4223475,-42.72829,-4.10589,-43.65979
55.934442997,-2.664423,82.1952599999998,117.6636,0.9699289,-0.3190008,0.4171261,-42.72829,-4.10589,-43.65979
55.944354057,5.20171,83.1272900000002,116.9886,0.9714303,-0.3165255,0.4233707,-42.72829,-4.10589,-43.65979
55.954264641,11.2097,83.6515600000001,115.6386,0.9524887,-0.3069416,0.4471375,-42.72829,-4.10589,-43.65979
55.964175224,14.18273,84.1758300000001,111.8341,0.9013262,-0.2823741,0.4458537,-39.06798,1.439144,-46.58738
55.974086285,15.1118,83.9428200000002,106.741,0.8622769,-0.2625894,0.4281006,-39.06798,1.439144,-46.58738
55.983997345,15.17374,80.9719699999998,104.5319,0.8775907,-0.2562252,0.4030332,-39.06798,1.439144,-46.58738
55.993907928,12.94397,78.6418899999998,103.2433,0.8562893,-0.2554082,0.4248427,-39.06798,1.439144,-46.58738
56.003818512,8.11279800000001,76.2535600000002,101.4638,0.8395036,-0.2588665,0.4528241,-39.06798,1.439144,-46.58738
56.013729095,2.290622,75.3215299999997,100.1752,0.801199,-0.2684503,0.4732811,-35.82594,5.547932,-49.57251
56.023639679,-3.036051,74.9720200000001,100.1138,0.7791765,-0.2531261,0.4894322,-35.82594,5.547932,-49.57251
56.033551216,-8.23884800000001,72.1176700000001,98.3342699999997,0.7808834,-0.2298165,0.4924526,-35.82594,5.547932,-49.57251
56.0434618,-10.40668,70.6613700000003,95.8183999999997,0.7715723,-0.2623783,0.5000043,-35.82594,5.547932,-49.57251
56.053372383,-13.75133,67.6322700000003,93.30252,0.7546498,-0.2581028,0.523717,-35.82594,5.547932,-49.57251
56.063282967,-12.69839,65.7681999999997,90.4798200000002,0.7639207,-0.3226264,0.4939118,-32.13596,8.909393,-52.1079
56.073194504,-11.64544,62.0983400000003,84.9571600000002,0.6947384,-0.337512,0.5011746,-32.13596,8.909393,-52.1079
56.083105087,-7.929157,57.26342,80.0481300000001,0.6596938,-0.3756698,0.5199707,-32.13596,8.909393,-52.1079
56.093015671,-2.478608,53.88481,75.8754499999999,0.6499873,-0.3850227,0.5161569,-32.13596,8.909393,-52.1079
56.102926254,3.467444,52.83628,70.7209699999998,0.6607184,-0.3931943,0.5039993,-32.13596,8.909393,-52.1079
56.112836838,6.750161,50.6227,68.3278100000002,0.6372012,-0.3759517,0.5196967,-28.43814,11.89966,-53.80695
56.125225544,8.79411600000002,46.71982,64.9528599999998,0.6215023,-0.3673943,0.5247005,-28.43814,11.89966,-53.80695
56.135136128,9.28962000000002,44.09848,62.62106,0.6056632,-0.3491537,0.5273693,-28.43814,11.89966,-53.80695
56.145047665,7.98892199999997,41.94316,61.5165300000002,0.5698211,-0.3345557,0.5301988,-28.43814,11.89966,-53.80695
56.154958248,6.254657,39.20531,56.17796,0.5320669,-0.3355693,0.5190175,-28.43814,11.89966,-53.80695
56.164868832,5.75915199999997,35.76845,50.4712,0.4967601,-0.3355752,0.5092605,-25.5458,14.45257,-55.56469
56.174779415,4.210701,31.39955,46.42125,0.4708797,-0.3412476,0.506101,-25.5458,14.45257,-55.56469
56.184689999,1.547365,26.50639,42.98493,0.4494708,-0.3512183,0.5047921,-25.5458,14.45257,-55.56469
56.194601059,-1.673414,20.85595,40.03951,0.4386427,-0.3382192,0.5131415,-25.5458,14.45257,-55.56469
56.204512119,-8.23884800000001,14.50648,36.97137,0.4426996,-0.3007819,0.5234368,-25.5458,14.45257,-55.56469
56.214422703,-10.71637,11.53563,34.51685,0.4667194,-0.3543483,0.5142149,-22.93221,14.82581,-55.96494
56.224333286,-12.82226,7.86575900000002,30.09872,0.465622,-0.3819793,0.5178823,-22.93221,14.82581,-55.96494
56.23424387,-13.50358,4.894909,26.04877,0.4644217,-0.4096639,0.5114669,-22.93221,14.82581,-55.96494
56.24415493,-11.70738,1.283287,22.91926,0.4737778,-0.4143914,0.5123091,-22.93221,14.82581,-55.96494
56.254065514,-9.22985600000001,-2.677846,18.80795,0.4819175,-0.4326653,0.5217153,-22.93221,14.82581,-55.96494
56.263976574,-6.50458200000001,-6.52247499999999,15.98525,0.482487,-0.4418856,0.5187677,-21.44649,15.57329,-56.42474
56.273887158,-5.018068,-11.64865,13.5921,0.4932781,-0.4373431,0.5273409,-21.44649,15.57329,-56.42474
56.283798218,-5.699387,-16.83307,11.38303,0.4955691,-0.4178802,0.535132,-21.44649,15.57329,-56.42474
56.293708801,-7.61946700000001,-21.72624,9.05124299999999,0.4902099,-0.4145229,0.5409658,-21.44649,15.57329,-56.42474
56.303619385,-10.96412,-26.5029,5.79900900000001,0.4854633,-0.4252414,0.5423788,-21.44649,15.57329,-56.42474
56.313529968,-12.69839,-30.75529,1.749057,0.4998154,-0.4483888,0.5320085,-20.70468,16.32594,-55.59576
56.323441029,-12.32676,-33.66789,-1.871354,0.5311963,-0.4616101,0.524908,-20.70468,16.32594,-55.59576
56.333352089,-11.52156,-35.41545,-5.859943,0.53812,-0.470264,0.5223855,-20.70468,16.32594,-55.59576
56.343262673,-10.22087,-36.98825,-10.09398,0.5411178,-0.4706819,0.5281169,-20.70468,16.32594,-55.59576
56.353173256,-8.73435200000001,-38.67756,-14.45075,0.533051,-0.449443,0.5292933,-20.70468,16.32594,-55.59576
56.36308384,-7.80528100000003,-40.36686,-18.74615,0.5332566,-0.417877,0.5386247,-22.57784,16.70378,-54.752
56.372995377,-7.74334299999998,-41.76491,-21.8143,0.5394356,-0.3864308,0.5104477,-22.57784,16.70378,-54.752
56.38290596,-8.98210400000001,-42.17268,-24.88245,0.5519741,-0.3727038,0.5094629,-22.57784,16.70378,-54.752
56.392816544,-11.64544,-45.08527,-28.25741,0.5581976,-0.3541569,0.5181718,-22.57784,16.70378,-54.752
56.40520525,-17.2818,-49.16291,-32.36872,0.559506,-0.3293428,0.5317694,-22.57784,16.70378,-54.752
56.415115833,-23.04204,-50.79396,-37.15503,0.5585145,-0.32985,0.5298545,-23.70247,17.08169,-53.91214
56.425026417,-26.82026,-50.73571,-42.86178,0.5696169,-0.3695357,0.5170034,-23.70247,17.08169,-53.91214
56.434937,-27.6874,-50.44445,-49.24352,0.5760769,-0.3972071,0.494672,-23.70247,17.08169,-53.91214
56.444848538,-26.26282,-50.03669,-55.50254,0.6043149,-0.431789,0.489859,-23.70247,17.08169,-53.91214
56.454759121,-23.22786,-50.21144,-61.94564,0.6384476,-0.4496979,0.5071899,-23.70247,17.08169,-53.91214
56.464669705,-19.63545,-50.21144,-67.9592100000003,0.6606796,-0.4536934,0.5247235,-26.70004,17.8377,-52.16427
56.474580288,-14.92816,-49.97844,-73.8500399999998,0.6694111,-0.4404489,0.5333739,-26.70004,17.8377,-52.16427
56.484491825,-9.97311299999999,-48.05612,-78.4522600000002,0.682982,-0.3849784,0.5388997,-26.70004,17.8377,-52.16427
56.494402409,-8.11497100000001,-45.60954,-83.4226500000001,0.660363,-0.3436231,0.5273804,-26.70004,17.8377,-52.16427
56.504312992,-9.60148500000001,-45.7843,-90.7248399999999,0.652676,-0.3558452,0.5264097,-26.70004,17.8377,-52.16427
56.514223576,-10.84025,-44.91052,-98.5179300000002,0.6678692,-0.3712468,0.5117619,-29.61605,17.09507,-50.47635
56.524134159,-11.39769,-48.23088,-107.8451,0.6774043,-0.3988079,0.5033274,-29.61605,17.09507,-50.47635
56.53404522,-7.681405,-50.5027,-113.1837,0.7386946,-0.3991779,0.4715478,-29.61605,17.09507,-50.47635
56.54395628,-2.974113,-49.68718,-117.1723,0.7796839,-0.3770041,0.4415467,-29.61605,17.09507,-50.47635
56.553866863,0.2466658,-52.36677,-120.7313,0.7988851,-0.3764572,0.4072815,-29.61605,17.09507,-50.47635
56.563777447,4.272639,-52.77453,-124.5972,0.8166708,-0.3798045,0.3734836,-32.57505,14.85405,-48.7835
56.573688507,9.22768300000001,-51.20173,-126.8062,0.8454031,-0.3858453,0.3549317,-32.57505,14.85405,-48.7835
56.58359909,12.38652,-50.56096,-126.7449,0.8810429,-0.3810363,0.3551143,-32.57505,14.85405,-48.7835
56.593509674,14.3066,-48.28913,-129.2608,0.9037247,-0.3535872,0.3579683,-32.57505,14.85405,-48.7835
56.603420734,17.27963,-48.58039,-132.6357,0.9453432,-0.3410904,0.3302976,-32.57505,14.85405,-48.7835
56.613331318,20.74816,-55.10461,-133.9243,0.9913248,-0.3346511,0.3395184,-36.27528,11.92439,-47.53436
56.623242378,23.16374,-64.4831800000002,-131.9607,1.033751,-0.2956407,0.3739574,-36.27528,11.92439,-47.53436
56.633152962,22.42049,-73.5122400000002,-127.2358,1.020326,-0.2269019,0.3851029,-36.27528,11.92439,-47.53436
56.643063545,20.62428,-76.9491000000001,-125.3949,1.000901,-0.1680619,0.37175,-36.27528,11.92439,-47.53436
56.652974129,16.66025,-74.7355300000001,-126.6221,0.9977522,-0.1860111,0.3774214,-36.27528,11.92439,-47.53436
56.662885666,11.82908,-73.6869900000002,-126.3767,0.9932168,-0.2156442,0.377266,-38.80992,5.939281,-45.38219
56.675273418,9.22768300000001,-73.3957300000001,-123.6154,0.9874595,-0.2144452,0.3417955,-38.80992,5.939281,-45.38219
56.685184956,9.35155899999998,-74.7937799999997,-121.8972,1.011678,-0.2225512,0.309827,-38.80992,5.939281,-45.38219
56.695095539,12.57234,-78.0558900000002,-120.0563,1.032043,-0.224822,0.2904173,-38.80992,5.939281,-45.38219
56.705006123,15.23567,-87.6674600000001,-115.0859,1.05312,-0.2072195,0.2682523,-38.80992,5.939281,-45.38219
56.714916706,20.12878,-94.1916799999998,-109.0723,1.069566,-0.2497828,0.2486104,-42.03685,0.7707076,-42.00832
56.72482729,24.46444,-99.3761099999999,-100.4202,1.041953,-0.1807379,0.259409,-42.03685,0.7707076,-42.00832
56.734738827,27.43747,-98.5605799999998,-96.0020499999999,1.039636,-0.1670437,0.287851,-42.03685,0.7707076,-42.00832
56.74464941,30.59631,-94.7742,-88.4544100000002,1.048861,-0.1198923,0.2890401,-42.03685,0.7707076,-42.00832
56.754559994,32.14476,-88.1917300000001,-83.1772000000001,1.08108,-0.05269512,0.2671025,-42.03685,0.7707076,-42.00832
56.764470577,32.14476,-84.2306000000003,-76.6113700000001,1.144488,-0.02198513,0.2398319,-44.58167,-4.085648,-38.63898
56.774382114,29.23367,-84.9296200000002,-69.1250999999999,1.194742,0.005169894,0.2131393,-44.58167,-4.085648,-38.63898
56.784292698,25.57933,-89.5315199999998,-61.3933800000002,1.197495,0.03608373,0.1840301,-44.58167,-4.085648,-38.63898
56.794203281,31.83507,-82.3665300000003,-58.7547700000001,1.192648,0.03531742,0.2349666,-44.58167,-4.085648,-38.63898
56.804113865,23.78312,-96.4635100000003,-52.18894,1.165394,-0.02886174,0.1723706,-44.58167,-4.085648,-38.63898
56.814024448,20.19072,-101.5314,-42.43224,1.124113,-0.02826055,0.2006055,-47.49939,-8.560378,-33.53423
56.823935509,18.45645,-102.4635,-33.84143,1.080582,-0.03564161,0.1908756,-47.49939,-8.560378,-33.53423
56.833846569,14.92598,-107.0654,-21.75294,1.038346,-0.09552868,0.150534,-47.49939,-8.560378,-33.53423
56.843757153,16.908,-104.5023,-11.07579,1.031272,-0.1776756,0.1274847,-47.49939,-8.560378,-33.53423
56.853667736,23.47343,-98.32757,-3.773605,1.031919,-0.2600175,0.1418151,-47.49939,-8.560378,-33.53423
56.863578796,30.59631,-91.10432,2.485412,1.001773,-0.2844512,0.1774628,-48.93866,-11.85243,-29.34035
56.87348938,37.59531,-85.57039,8.56033999999998,0.9927015,-0.2754335,0.1617615,-48.93866,-11.85243,-29.34035
56.883399963,43.91299,-78.2306400000002,11.4444,1.027281,-0.2367817,0.145854,-48.93866,-11.85243,-29.34035
56.893311024,48.74416,-71.29866,13.28528,1.050369,-0.1676665,0.1417795,-48.93866,-11.85243,-29.34035
56.903222084,59.2116899999999,-55.68713,12.4262,1.117532,-0.08918417,0.1551256,-48.93866,-11.85243,-29.34035
56.913132668,56.54836,-57.9007,14.02164,1.116796,-0.01176666,0.1263586,-51.0829,-13.32877,-23.86359
56.923043251,59.2116899999999,-52.89104,14.26709,1.195984,0.006038052,0.09693532,-51.0829,-13.32877,-23.86359
56.932953835,68.6882099999998,-38.73581,16.53752,1.298854,0.03205145,0.09759773,-51.0829,-13.32877,-23.86359
56.942864895,66.9539399999999,-33.20187,20.64883,1.26974,0.112528,0.1661054,-51.0829,-13.32877,-23.86359
56.955253124,63.0518500000002,-18.40588,18.99203,1.268946,0.1699237,0.2034673,-52.56475,-13.69172,-20.96365
56.965163708,59.6452599999998,-4.017641,14.5739,1.270141,0.2158937,0.1831157,-52.56475,-13.69172,-20.96365
56.975075245,55.99091,8.50653100000001,9.29669499999999,1.242092,0.2900777,0.1574606,-52.56475,-13.69172,-20.96365
56.984985828,46.57633,20.68119,-0.4600076,1.194599,0.437486,0.1809692,-52.56475,-13.69172,-20.96365
56.994896412,30.47243,27.38017,-10.52352,1.108995,0.4980898,0.1058194,-52.56475,-13.69172,-20.96365
57.004806995,15.42149,28.25395,-18.93024,1.023335,0.5620796,0.02925231,-52.93442,-13.68652,-19.67681
57.014718533,0.43248,26.27338,-24.82108,0.9492757,0.5590859,0.00398875,-52.93442,-13.68652,-19.67681
57.024629116,-17.40568,20.56469,-25.68016,0.9030392,0.4764252,-0.02398351,-52.93442,-13.68652,-19.67681
57.0345397,-30.97011,16.13754,-25.31199,0.897974,0.3579931,-0.03672962,-52.93442,-13.68652,-19.67681
57.044450283,-41.74733,17.53559,-22.85747,0.9228474,0.2585293,-0.01649532,-52.93442,-13.68652,-19.67681
57.05436182,-51.53354,20.44818,-21.13931,0.9388924,0.1874734,-0.01327581,-52.91663,-15.18673,-20.1219
57.064272404,-59.21386,27.26366,-20.83249,0.9622703,0.1426018,-0.02723538,-52.91663,-15.18673,-20.1219
57.074182987,-66.0270499999999,36.64223,-21.3234,0.9639108,0.146613,-0.005616712,-52.91663,-15.18673,-20.1219
57.084093571,-75.3797,39.38007,-18.93024,0.9289388,0.1297081,-0.002524954,-52.91663,-15.18673,-20.1219
57.094004154,-83.4935800000002,39.26357,-17.21208,0.9018118,0.116327,0.006759785,-52.91663,-15.18673,-20.1219
57.103915215,-88.8202499999998,34.31215,-14.08257,0.8941449,0.1065544,0.01060685,-52.17845,-15.19843,-23.0168
57.113826275,-88.01506,31.05004,-11.99623,0.9234511,0.0834907,-0.01958764,-52.17845,-15.19843,-23.0168
57.123736858,-86.9001800000002,27.08891,-10.95306,0.9843289,0.06876854,-0.01304636,-52.17845,-15.19843,-23.0168
57.133647442,-83.3077700000002,26.21513,-10.03262,1.008221,0.04781831,0.003398655,-52.17845,-15.19843,-23.0168
