Time (s),Gyroscope X (deg/s),Gyroscope Y (deg/s),Gyroscope Z (deg/s),Accelerometer X (g),Accelerometer Y (g),Accelerometer Z (g),Magnetometer X (uT),Magnetometer Y (uT),Magnetometer Z (uT)
12.468272209,4.859039,1.906777,0.01226447,0.2743274,-0.1698762,0.8555643,-19.8472,-17.59229,-22.70873
12.478159905,4.672534,0.2003446,-0.4764667,0.2747294,-0.1788055,0.8772513,-19.8472,-17.59229,-22.70873
12.488047123,4.48603,-1.035347,-1.087381,0.2844095,-0.1776566,0.8902414,-19.8472,-17.59229,-22.70873
12.497935295,4.796871,-1.56493,-1.392838,0.2877923,-0.1765744,0.8979345,-19.09927,-17.21813,-22.30776
12.507822991,5.045544,-1.211875,-1.576112,0.2946269,-0.160912,0.9041151,-19.09927,-17.21813,-22.30776
12.517710686,4.548198,-1.506087,-2.431391,0.2883175,-0.15941,0.906024,-19.09927,-17.21813,-22.30776
12.527598381,2.869658,-2.447567,-2.859031,0.2902629,-0.1559548,0.9093753,-19.09927,-17.21813,-22.30776
12.5374856,1.501958,-3.918629,-3.347762,0.2844762,-0.1467273,0.9069175,-19.09927,-17.21813,-22.30776
12.547373772,1.066781,-4.977794,-3.225579,0.278674,-0.1483492,0.8953769,-19.47024,-17.59782,-22.70016
12.55726099,0.880276599999999,-5.74274599999998,-3.042305,0.2879034,-0.1429391,0.9001693,-19.47024,-17.59782,-22.70016
12.567149162,1.501958,-5.91927400000001,-2.920122,0.2854757,-0.1364602,0.9097522,-19.47024,-17.59782,-22.70016
12.577036381,2.993994,-6.03695899999998,-3.164488,0.2830164,-0.1357527,0.9241734,-19.47024,-17.59782,-22.70016
12.586924076,3.553508,-6.50769899999997,-2.553574,0.2873425,-0.147935,0.9242399,-19.47024,-17.59782,-22.70016
12.596812248,2.310144,-5.566219,-1.881569,0.2941129,-0.1557539,0.9233253,-19.0855,-17.6117,-23.14555
12.606699467,0.5694358,-3.800944,-2.064843,0.2945903,-0.1567,0.9252543,-19.0855,-17.6117,-23.14555
12.616587162,-1.668618,-2.212197,-2.859031,0.2853934,-0.1444002,0.9323955,-19.0855,-17.6117,-23.14555
12.626474857,-3.160654,-2.094512,-3.408854,0.284433,-0.1300323,0.9486731,-19.0855,-17.6117,-23.14555
12.638834476,-3.160654,-2.212197,-3.286671,0.29806,-0.1148632,0.9553449,-19.47623,-17.2126,-22.31634
12.648721695,-2.538972,-1.623772,-2.492483,0.3049017,-0.1052168,0.9500137,-19.47623,-17.2126,-22.31634
12.658609867,-2.165963,-0.3292377,-1.94266,0.3175196,-0.1007513,0.9572194,-19.47623,-17.2126,-22.31634
12.668497085,-3.720167,0.3768721,-1.820477,0.3102254,-0.1046325,0.9572307,-19.47623,-17.2126,-22.31634
12.678385258,-5.958221,0.3180296,-0.904106400000002,0.3014619,-0.1233565,0.941445,-19.47623,-17.2126,-22.31634
12.688272953,-6.82857599999998,1.847934,0.01226447,0.2781991,-0.1379641,0.9059042,-19.0926,-17.22529,-22.69688
12.698160171,-5.83388499999998,1.494879,-0.659740900000002,0.2641443,-0.1395626,0.8948351,-19.0926,-17.22529,-22.69688
12.708048344,-5.958221,1.789092,-1.392838,0.269408,-0.1495473,0.9117238,-19.0926,-17.22529,-22.69688
12.717935562,-7.94760199999998,1.436037,-1.026289,0.2703603,-0.157892,0.9074388,-19.0926,-17.22529,-22.69688
12.727823734,-9.87481500000001,0.3180296,-0.4153753,0.2756872,-0.1687736,0.8969195,-19.0926,-17.22529,-22.69688
12.737710953,-9.87481500000001,0.4945571,-0.965197799999999,0.2786877,-0.1504264,0.8867308,-19.84527,-16.52113,-22.72376
12.747598648,-8.75578900000001,0.0826596800000002,-1.270655,0.281644,-0.138767,0.8852325,-19.84527,-16.52113,-22.72376
12.75748682,-7.45025699999999,1.082982,-0.4153753,0.2947217,-0.1346385,0.9025397,-19.84527,-16.52113,-22.72376
12.767374039,-6.57990299999997,3.789736,0.3177214,0.2840587,-0.1322258,0.8996298,-19.84527,-16.52113,-22.72376
12.777261734,-3.844504,4.319319,-0.1710097,0.2835657,-0.1421292,0.8886182,-19.84527,-16.52113,-22.72376
12.787149429,-0.673927500000001,2.554044,-0.843015,0.2714235,-0.1490231,0.8819063,-19.46777,-16.8429,-22.77562
12.797037125,-0.5495912,0.612241999999999,-1.270655,0.2917553,-0.1492196,0.9040528,-19.46777,-16.8429,-22.77562
12.806924343,-3.96884,0.788769499999999,-1.759386,0.3290032,-0.1594453,0.9416587,-19.46777,-16.8429,-22.77562
12.816812515,-9.00446099999999,3.966264,-0.904106400000002,0.3361543,-0.1830252,0.9615037,-19.46777,-16.8429,-22.77562
12.826700211,-11.49119,4.554688,0.3788128,0.3347063,-0.1890455,0.9495094,-19.46777,-16.8429,-22.77562
12.836587429,-11.11818,6.08459299999998,1.661732,0.3241015,-0.189986,0.9177613,-19.83806,-16.84453,-23.17331
12.848947525,-8.63145299999999,6.73185999999997,2.272646,0.3105145,-0.194958,0.9091144,-19.83806,-16.84453,-23.17331
12.858834743,-5.025699,7.79102499999999,1.722824,0.2946592,-0.173059,0.8733975,-19.83806,-16.84453,-23.17331
12.868722916,-3.347158,7.96755199999999,0.1344473,0.3008772,-0.1844346,0.8951036,-19.83806,-16.84453,-23.17331
12.878610134,-6.51773500000002,8.55597700000001,0.01226447,0.2964494,-0.1945008,0.9052488,-19.83806,-16.84453,-23.17331
12.888498306,-9.19096599999999,8.96787499999997,0.867544000000001,0.2979167,-0.2050244,0.8855858,-19.83874,-17.22259,-23.16801
12.898385525,-8.258443,9.08555899999997,1.539549,0.2873202,-0.1985528,0.8610141,-19.83874,-17.22259,-23.16801
12.90827322,-9.19096599999999,9.79166900000002,2.333737,0.2983679,-0.2048097,0.9000129,-19.83874,-17.22259,-23.16801
12.918160439,-10.80734,10.20357,2.333737,0.288116,-0.2278055,0.8914609,-19.83874,-17.22259,-23.16801
12.928048611,-8.56928299999999,8.20292199999998,1.967189,0.2828833,-0.2105525,0.8721309,-19.83874,-17.22259,-23.16801
12.937936306,-2.2903,7.143758,1.050818,0.2781489,-0.1879081,0.8551788,-18.69341,-17.25468,-23.98536
12.947824001,4.548198,7.90871000000001,-0.843015,0.2942604,-0.1233442,0.908734,-18.69341,-17.25468,-23.98536
12.957711697,6.41324300000002,13.02801,-2.187026,0.2696371,-0.08829269,0.9046816,-18.69341,-17.25468,-23.98536
12.967598915,4.175189,12.3219,-3.103397,0.2976502,-0.07403571,0.9825506,-18.69341,-17.25468,-23.98536
12.977487087,1.43979,12.79264,-4.813955,0.3329846,-0.06950537,1.029698,-18.69341,-17.25468,-23.98536
12.987374306,1.191117,12.61611,-5.85250900000001,0.3620799,-0.08979383,1.01204,-18.30673,-16.19739,-24.44577
12.997262001,-0.3009185,14.38138,-6.46342299999997,0.3590381,-0.1307707,1.006953,-18.30673,-16.19739,-24.44577
13.007150173,-4.466185,13.73412,-6.70778799999998,0.2964301,-0.1595443,0.9632636,-18.30673,-16.19739,-24.44577
13.017037392,-9.87481500000001,9.14440199999997,-5.974692,0.2416932,-0.1661064,0.9079285,-18.30673,-16.19739,-24.44577
13.026925564,-17.02415,7.02607300000003,-4.019767,0.2457445,-0.2168612,0.9663811,-18.30673,-16.19739,-24.44577
13.036812782,-23.80048,9.61514200000002,0.0733558600000001,0.2475365,-0.2552331,0.97331,-18.30673,-16.19739,-24.44577
13.046700478,-25.23035,12.91032,3.677748,0.2557553,-0.2709683,0.9642614,-18.30673,-16.19739,-24.44577
13.056588173,-22.37062,17.38235,4.105388,0.2359939,-0.2573757,0.9261774,-18.30673,-16.19739,-24.44577
13.068947792,-16.09163,20.67753,3.066834,0.2511858,-0.2423985,0.8876452,-18.30673,-16.19739,-24.44577
13.078835011,-13.16973,21.67785,2.517012,0.2628048,-0.247706,0.8924945,-18.30673,-16.19739,-24.44577
13.088723183,-13.72924,20.9129,1.967189,0.233329,-0.2320601,0.8601602,-17.92379,-16.58814,-24.821
13.098610878,-17.45933,18.38267,1.967189,0.1921475,-0.2229999,0.8417926,-17.92379,-16.58814,-24.821
13.108498573,-18.76486,14.32254,2.089372,0.145663,-0.224608,0.7931749,-17.92379,-16.58814,-24.821
13.118386269,-14.04008,9.79166900000002,1.722824,0.113134,-0.2334455,0.784045,-17.92379,-16.58814,-24.821
13.128273487,-7.512425,6.26111999999998,1.783915,0.1144268,-0.2523221,0.8245392,-17.92379,-16.58814,-24.821
13.138161659,-2.725477,3.201311,2.45592,0.1138334,-0.2556199,0.8644717,-17.90934,-16.60365,-25.66409
13.148048878,0.7559403,1.200667,3.677748,0.1318217,-0.2334478,0.8840979,-17.90934,-16.60365,-25.66409
13.157936573,3.056162,0.847612000000001,5.51049,0.1794385,-0.2114638,0.8951021,-17.90934,-16.60365,-25.66409
13.167824745,3.180499,2.495202,6.61013499999998,0.2090441,-0.2105125,0.8975355,-17.90934,-16.60365,-25.66409
13.177711964,1.750631,4.613531,6.85450100000001,0.1930762,-0.208305,0.8801931,-17.90934,-16.60365,-25.66409
13.187600136,0.5694358,3.848579,5.51049,0.1417545,-0.2105056,0.8238781,-17.51545,-15.86976,-26.57406
13.197487354,0.7559403,-0.917662500000002,3.555565,0.09183747,-0.2248252,0.7714733,-17.51545,-15.86976,-26.57406
13.20737505,3.988685,-7.68454900000002,2.089372,0.06605532,-0.2502898,0.7585878,-17.51545,-15.86976,-26.57406
13.217262745,8.02961499999997,-14.74565,1.295184,0.0572383,-0.2676803,0.7668413,-17.51545,-15.86976,-26.57406
13.22715044,11.82187,-19.74726,1.11191,0.0712606,-0.2643838,0.7937722,-17.51545,-15.86976,-26.57406
13.237038612,15.8628,-22.10096,0.01226447,0.1139483,-0.2533598,0.8202157,-17.15337,-15.48052,-25.66284
13.246925831,20.33891,-22.21864,-1.270655,0.15127,-0.2396676,0.8615481,-17.15337,-15.48052,-25.66284
13.256813526,21.83095,-21.7479,-2.553574,0.1890904,-0.2171034,0.9100501,-17.15337,-15.48052,-25.66284
13.266700745,21.39577,-22.74822,-2.79794,0.2089779,-0.2041225,0.9340532,-17.15337,-15.48052,-25.66284
13.276588917,20.77409,-24.33697,-2.431391,0.230814,-0.2011434,0.9407958,-17.15337,-15.48052,-25.66284
13.288948059,21.27143,-23.98392,-1.637203,0.2619327,-0.2005545,0.9191868,-18.2916,-15.83484,-25.29416
13.298836231,19.84157,-21.21832,-0.781923700000001,0.2905342,-0.2048641,0.9278976,-18.2916,-15.83484,-25.29416
13.30872345,14.37077,-17.27587,0.3177214,0.3006448,-0.2108334,0.9534281,-18.2916,-15.83484,-25.29416
13.318611145,7.40793400000002,-14.98102,1.539549,0.3117487,-0.2323746,0.9472976,-18.2916,-15.83484,-25.29416
13.328499317,3.367003,-14.45143,3.127926,0.3069578,-0.2203208,0.9385748,-18.2916,-15.83484,-25.29416
13.338386536,2.745321,-14.15722,5.205033,0.2910245,-0.1820053,0.9585617,-18.3152,-16.5671,-23.9865
13.348274708,3.740012,-12.15658,6.36576900000001,0.2858164,-0.1161397,0.9986203,-18.3152,-16.5671,-23.9865
13.358161926,5.356384,-8.567186,4.899576,0.2810361,-0.083253,1.015281,-18.3152,-16.5671,-23.9865
13.368049622,6.66191600000002,-7.91991900000001,1.478458,0.2651272,-0.09485471,0.9537636,-18.3152,-16.5671,-23.9865
13.377937317,6.04023399999999,-10.86204,-0.2321011,0.2548557,-0.1261861,0.9414063,-18.3152,-16.5671,-23.9865
13.387825012,0.3829313,-16.15787,0.562087,0.2494978,-0.1265547,0.9486158,-18.69147,-16.18351,-24.00038
13.397713184,-6.02038900000001,-18.92346,0.3177214,0.2853375,-0.1564876,0.9382277,-18.69147,-16.18351,-24.00038
13.407600403,-6.766407,-18.39388,0.989726799999999,0.3121406,-0.1527404,0.8992845,-18.69147,-16.18351,-24.00038
13.417488098,-4.901362,-17.98198,-0.4764667,0.3228229,-0.1552753,0.8940193,-18.69147,-16.18351,-24.00038
13.427375317,-4.777026,-15.80481,-1.087381,0.3489434,-0.1577454,0.927726,-18.69147,-16.18351,-24.00038
13.437263489,-4.714858,-12.45079,-1.820477,0.3425625,-0.1956018,0.9029022,-19.0769,-16.54769,-23.54969
13.447150707,-0.611759299999997,-13.45111,-1.209563,0.3255564,-0.2044124,0.8976371,-19.0769,-16.54769,-23.54969
13.45703888,3.80218,-12.03889,-0.5375581,0.3235977,-0.2187313,0.8842415,-19.0769,-16.54769,-23.54969
13.466926575,5.667225,-11.15625,0.01226447,0.3304372,-0.2160389,0.8698081,-19.0769,-16.54769,-23.54969
13.476813793,3.553508,-5.272007,0.745361200000002,0.3537501,-0.2335955,0.8386635,-19.0769,-16.54769,-23.54969
13.486701965,2.372312,0.02381719,1.661732,0.3939316,-0.2340089,0.8815132,-19.46762,-16.14859,-22.72049
13.496589184,5.605057,3.907421,2.333737,0.3798793,-0.2241774,0.8857759,-19.46762,-16.14859,-22.72049
13.50894928,10.32984,0.02381719,-0.04882693,0.3159127,-0.1729481,0.9162231,-19.46762,-16.14859,-22.72049
13.518836498,12.38139,-1.682615,-2.187026,0.2887958,-0.1494131,0.9232872,-19.46762,-16.14859,-22.72049
13.528724194,11.82187,-5.683904,-3.286671,0.2500936,-0.1456658,0.8756131,-19.83806,-16.84453,-23.17331
13.538612366,11.75971,-8.861399,-3.042305,0.269986,-0.1600855,0.8583954,-19.83806,-16.84453,-23.17331
13.548499584,14.86811,-8.21413099999998,-0.781923700000001,0.3176211,-0.1431939,0.8545169,-19.83806,-16.84453,-23.17331
13.558387756,20.02807,-2.565252,1.661732,0.3531154,-0.1197682,0.8626145,-19.83806,-16.84453,-23.17331
13.568274975,22.32829,5.143113,3.433383,0.3782288,-0.1239971,0.9088328,-19.83806,-16.84453,-23.17331
13.57816267,17.60351,9.61514200000002,2.639194,0.3465467,-0.1420073,0.937743,-19.46831,-16.52665,-22.71518
13.588049889,10.2055,7.61449700000002,0.25663,0.3052127,-0.1533823,0.953143,-19.46831,-16.52665,-22.71518
13.597938061,6.59974800000002,3.142469,-2.003752,0.2867514,-0.1562244,0.9560219,-19.46831,-16.52665,-22.71518
13.607826233,7.47010199999997,-2.329882,-3.347762,0.2606641,-0.1385368,0.9304141,-19.46831,-16.52665,-22.71518
13.617713451,7.843111,-5.566219,-2.859031,0.2855105,-0.1217511,0.9164109,-19.46831,-16.52665,-22.71518
13.627601147,7.843111,-4.801267,-1.94266,0.3089122,-0.1070254,0.8947216,-19.47623,-17.2126,-22.31634
13.637488365,8.96213800000002,0.0826596800000002,-0.659740900000002,0.3264376,-0.09046777,0.8970624,-19.47623,-17.2126,-22.31634
13.647376537,10.39201,2.142147,-0.2931925,0.3138113,-0.08194178,0.9119135,-19.47623,-17.2126,-22.31634
13.657263756,11.44886,4.848901,-0.1710097,0.3050216,-0.08109238,0.9349834,-19.47623,-17.2126,-22.31634
13.667151928,11.26236,6.673018,0.01226447,0.291371,-0.09063905,0.9460773,-19.47623,-17.2126,-22.31634
13.677039623,9.89465999999999,6.437648,0.3177214,0.2922055,-0.1211316,0.9587363,-20.16732,-17.20247,-22.33207
13.686926842,7.03492499999999,3.554366,-0.1710097,0.2819622,-0.1436837,0.9472966,-20.16732,-17.20247,-22.33207
13.696815014,3.056162,2.142147,-0.04882693,0.3057041,-0.1439659,0.9641572,-20.16732,-17.20247,-22.33207
13.706702232,-0.984768300000001,2.554044,0.1344473,0.3014094,-0.1354655,0.9458343,-20.16732,-17.20247,-22.33207
13.716589928,-2.849813,2.965941,0.989726799999999,0.2913167,-0.1166702,0.9313003,-20.16732,-17.20247,-22.33207
13.726477623,-3.595831,2.965941,1.722824,0.2898885,-0.1183367,0.9173604,-19.85194,-16.51397,-22.33464
13.738837242,-3.28499,4.025106,1.722824,0.284527,-0.1331143,0.9054059,-19.85194,-16.51397,-22.33464
13.748724461,-2.787645,4.495846,1.295184,0.3064188,-0.1255102,0.895774,-19.85194,-16.51397,-22.33464
13.758612633,-2.787645,5.025428,0.928635399999997,0.3020339,-0.1248995,0.9034606,-19.85194,-16.51397,-22.33464
13.768500805,-3.471495,5.378483,0.989726799999999,0.3049242,-0.1322311,0.9020582,-19.85194,-16.51397,-22.33464
13.778388023,-3.471495,5.555011,1.173001,0.2980713,-0.1447919,0.9078849,-19.85319,-17.20708,-22.32492
13.788275719,-4.093176,5.90806599999998,1.295184,0.2878658,-0.1436972,0.9146007,-19.85319,-17.20708,-22.32492
13.798162937,-4.65269,6.02575100000001,1.417367,0.2814829,-0.1556643,0.9276387,-19.85319,-17.20708,-22.32492
13.808051109,-5.025699,5.90806599999998,1.417367,0.2766453,-0.146302,0.9343188,-19.85319,-17.20708,-22.32492
13.817938328,-5.709548,5.79037999999999,1.417367,0.2742257,-0.1418643,0.93766,-19.85319,-17.20708,-22.32492
13.8278265,-7.32592100000003,5.378483,1.295184,0.2698852,-0.1405387,0.92803,-19.47691,-17.59066,-22.31104
13.837714195,-8.38277900000002,4.790059,0.928635399999997,0.2674971,-0.1437648,0.9073641,-19.47691,-17.59066,-22.31104
13.847601414,-8.19627499999999,3.730894,0.867544000000001,0.264107,-0.1482845,0.8977646,-19.47691,-17.59066,-22.31104
13.857489586,-7.76109800000001,3.142469,0.623178399999998,0.2723338,-0.1610837,0.889663,-19.47691,-17.59066,-22.31104
13.867376804,-7.88543400000003,3.024784,0.989726799999999,0.273767,-0.1733825,0.8815511,-19.47691,-17.59066,-22.31104
13.8772645,-7.512425,3.260154,1.539549,0.2805367,-0.1777137,0.885909,-19.47555,-16.83454,-22.32165
13.887152195,-6.952912,3.613209,1.661732,0.285877,-0.1777314,0.8854343,-19.47555,-16.83454,-22.32165
13.89703989,-6.144726,3.377839,1.539549,0.28344,-0.1806483,0.8854462,-19.47555,-16.83454,-22.32165
13.906928062,-4.714858,2.612886,1.295184,0.3013096,-0.1990296,0.8961397,-19.47555,-16.83454,-22.32165
13.916815281,-4.590521,3.436681,1.539549,0.3032539,-0.1985536,0.8956586,-19.47555,-16.83454,-22.32165
13.926702976,-5.585212,4.437004,1.417367,0.3182659,-0.1998572,0.9081861,-19.09859,-16.84007,-22.31306
13.936590672,-7.07724800000002,5.555011,1.722824,0.3051646,-0.1973678,0.9100823,-19.09859,-16.84007,-22.31306
13.948950291,-6.766407,5.378483,1.967189,0.3022784,-0.1905592,0.9090828,-19.09859,-16.84007,-22.31306
13.958837509,-6.02038900000001,5.143113,2.45592,0.3066932,-0.182899,0.9008735,-19.09859,-16.84007,-22.31306
13.968725681,-5.64738,5.201956,2.272646,0.2979886,-0.1746252,0.8993791,-19.09859,-16.84007,-22.31306
13.978613377,-5.709548,5.201956,2.150463,0.2950315,-0.1788149,0.9119008,-19.09192,-16.84723,-22.70218
13.988501072,-6.39339799999998,5.613853,2.150463,0.300877,-0.1764708,0.9066055,-19.09192,-16.84723,-22.70218
13.998388767,-5.77171700000003,5.84922299999998,2.089372,0.2964799,-0.1867312,0.9037668,-19.09192,-16.84723,-22.70218
14.008275986,-5.398708,5.90806599999998,2.089372,0.287273,-0.183326,0.9022964,-19.09192,-16.84723,-22.70218
14.018164158,-4.963531,5.90806599999998,1.967189,0.2770879,-0.1773834,0.9075449,-19.09192,-16.84723,-22.70218
14.028051853,-5.274371,5.84922299999998,1.783915,0.2669036,-0.1799058,0.9003322,-19.45332,-16.85841,-23.6187
14.037939072,-4.839194,5.496168,1.417367,0.2630263,-0.1799341,0.8979234,-19.45332,-16.85841,-23.6187
14.047827244,-4.466185,5.025428,1.478458,0.2576785,-0.1763855,0.9065559,-19.45332,-16.85841,-23.6187
14.057714462,-3.782336,4.848901,1.173001,0.2625669,-0.1721348,0.8983643,-19.45332,-16.85841,-23.6187
14.067602634,-3.28499,4.201633,1.417367,0.2572408,-0.1697183,0.8964223,-19.45332,-16.85841,-23.6187
14.077489853,-2.849813,3.318996,1.356275,0.2582205,-0.1657959,0.8983274,-18.69925,-16.17516,-23.54641
14.087377548,-2.538972,3.142469,1.600641,0.2553614,-0.1571689,0.8886621,-18.69925,-16.17516,-23.54641
14.097265244,-2.041627,2.730572,1.539549,0.2519095,-0.1677672,0.8959256,-18.69925,-16.17516,-23.54641
14.107152939,-1.419945,2.083304,1.539549,0.2475501,-0.1628387,0.8992621,-18.69925,-16.17516,-23.54641
14.117041111,-0.984768300000001,1.377194,1.600641,0.2363554,-0.1700849,0.9016906,-18.69925,-16.17516,-23.54641
14.126928329,-0.4252549,0.847612000000001,1.600641,0.2343964,-0.1754446,0.9012345,-18.69814,-16.17635,-23.61127
14.136816025,0.0720904500000002,0.0826596800000002,1.722824,0.2324627,-0.1725048,0.9021794,-18.69814,-16.17635,-23.61127
14.146703243,0.5694358,-0.799977499999998,0.806452599999999,0.2295292,-0.182317,0.8969355,-18.69814,-16.17635,-23.61127
14.156591415,1.066781,-1.32956,0.928635399999997,0.222723,-0.1797466,0.9050904,-18.69814,-16.17635,-23.61127
14.166479111,1.315454,-1.859142,0.623178399999998,0.2275836,-0.1797993,0.9022107,-18.69814,-16.17635,-23.61127
14.17883873,2.496649,-3.094834,0.6842698,0.2285693,-0.1828812,0.891647,-19.45318,-16.16411,-23.56357
14.188726425,3.491339,-3.330204,0.867544000000001,0.2329472,-0.1784713,0.8940343,-19.45318,-16.16411,-23.56357
14.198613644,4.175189,-3.918629,0.745361200000002,0.2314481,-0.1871544,0.8993667,-19.45318,-16.16411,-23.56357
14.208501816,4.672534,-4.153999,0.562087,0.2372488,-0.1919922,0.9022833,-19.45318,-16.16411,-23.56357
14.218389034,4.796871,-4.095157,0.3788128,0.2449679,-0.2001706,0.9100281,-19.45138,-15.78724,-23.63373
14.228277206,5.91589799999997,-3.271362,-0.1099183,0.2585948,-0.1994321,0.8960932,-19.45138,-15.78724,-23.63373
14.238164902,7.59443799999999,-2.50641,-0.1710097,0.2707319,-0.1959899,0.8999369,-19.45138,-15.78724,-23.63373
14.24805212,8.402624,-1.917985,0.25663,0.2818995,-0.1945439,0.9004232,-19.45138,-15.78724,-23.63373
14.257940292,9.33514699999999,-2.50641,1.173001,0.2746384,-0.1966428,0.8893644,-19.45138,-15.78724,-23.63373
14.267827511,10.08116,-3.918629,2.150463,0.2702335,-0.1944131,0.9076231,-19.06844,-16.17798,-24.00896
14.277715683,8.96213800000002,-3.447889,2.578103,0.2706844,-0.2036516,0.9086322,-19.06844,-16.17798,-24.00896
14.287602902,8.775634,-2.565252,3.005743,0.2532367,-0.2112449,0.8870093,-19.06844,-16.17798,-24.00896
14.297490597,10.26767,-3.683259,3.066834,0.2570722,-0.2209052,0.8928335,-19.06844,-16.17798,-24.00896
14.307378769,10.88935,-5.213164,2.88356,0.2444775,-0.2210385,0.8822396,-19.06844,-16.17798,-24.00896
14.317265987,11.5732,-6.68422599999997,3.005743,0.243487,-0.2253903,0.8841841,-19.45206,-16.1653,-23.62843
14.327153683,13.43825,-8.03760300000001,2.88356,0.2610328,-0.2069713,0.8807445,-19.45206,-16.1653,-23.62843
14.337041378,16.11148,-7.80223399999999,2.089372,0.275121,-0.2011053,0.8840973,-19.45206,-16.1653,-23.62843
14.346929073,16.54665,-3.859787,0.745361200000002,0.299441,-0.1830644,0.8888431,-19.45206,-16.1653,-23.62843
14.356817246,16.73316,0.3768721,2.089372,0.2777252,-0.1604295,0.8689862,-19.45206,-16.1653,-23.62843
14.366704464,17.47918,3.730894,2.639194,0.2912842,-0.1682188,0.8709646,-19.46831,-16.52665,-22.71518
14.376592159,19.21988,5.96690800000001,2.944651,0.2632294,-0.1409085,0.8698329,-19.46831,-16.52665,-22.71518
14.386479855,22.07962,5.496168,2.639194,0.2598022,-0.1427058,0.8794565,-19.46831,-16.52665,-22.71518
14.398839474,18.66037,2.436359,4.227571,0.2300027,-0.1324798,0.9731506,-19.46831,-16.52665,-22.71518
14.408726692,13.87342,-1.388402,3.738839,0.220258,-0.1267519,0.9966757,-19.46831,-16.52665,-22.71518
14.418614864,10.08116,-2.800622,3.861022,0.2080092,-0.1274983,1.042834,-19.46913,-17.59901,-22.76501
14.428502083,6.78625199999999,-1.56493,3.127926,0.1886933,-0.09424689,1.049377,-19.46913,-17.59901,-22.76501
14.438390255,0.5072676,-1.56493,2.089372,0.1402295,-0.05281594,1.077968,-19.46913,-17.59901,-22.76501
14.44827795,-7.13941599999997,-4.389369,1.356275,0.1028108,-0.05992404,1.086137,-19.46913,-17.59901,-22.76501
14.458165169,-12.73455,-6.15464400000001,2.272646,0.07177167,-0.05703446,1.079835,-19.46913,-17.59901,-22.76501
14.468053341,-17.95668,-11.15625,1.661732,0.006796937,-0.04537744,1.069122,-19.46956,-17.21976,-22.70546
14.477940559,-23.48964,-13.98069,0.25663,-0.01848132,-0.04508305,1.085443,-19.46956,-17.21976,-22.70546
14.487828255,-31.32283,-16.51092,-1.087381,-0.03464939,-0.08540326,1.089957,-19.46956,-17.21976,-22.70546
14.497716427,-41.26974,-20.98295,-4.936138,-0.03719263,-0.09511374,1.124148,-19.46956,-17.21976,-22.70546
14.507603645,-49.5381,-24.39581,-7.86852500000001,-0.003842582,-0.1380816,1.121037,-19.46956,-17.21976,-22.70546
14.517491818,-50.78147,-24.33697,-9.76235899999999,0.05390235,-0.1555193,1.102435,-19.85917,-16.82186,-21.94111
14.527379036,-46.36753,-23.16012,-9.39580999999998,0.07025019,-0.2212559,1.072487,-19.85917,-16.82186,-21.94111
14.537266731,-44.93766,-21.39485,-9.51799300000002,0.03311742,-0.1818996,1.028963,-19.85917,-16.82186,-21.94111
14.547154426,-47.48655,-19.45304,-10.37327,-0.06384356,-0.17596,0.9898685,-19.85917,-16.82186,-21.94111
14.557042122,-51.96266,-19.57073,-11.16746,-0.1027439,-0.2202263,0.9554216,-19.85917,-16.82186,-21.94111
14.566930294,-53.70337,-21.21832,-12.57256,-0.07653583,-0.2570889,0.9036981,-21.30405,-16.10637,-21.91887
14.576817512,-49.72461,-23.39549,-10.862,-0.04109111,-0.2841085,0.8601112,-21.30405,-16.10637,-21.91887
14.586705208,-45.62151,-29.6328,-10.37327,0.008400967,-0.291568,0.8563578,-21.30405,-16.10637,-21.91887
14.596592426,-43.13478,-37.10579,-9.88454100000001,0.05878986,-0.300553,0.8809875,-21.30405,-16.10637,-21.91887
14.606480598,-42.38876,-42.87235,-9.94563200000002,0.09925798,-0.2764024,0.8405141,-21.30405,-16.10637,-21.91887
14.618839741,-34.18257,-44.4611,-10.862,0.1746179,-0.2853131,0.7757204,-22.05729,-15.71726,-21.94134
14.628727913,-26.47371,-41.40129,-12.02274,0.1945753,-0.2886984,0.7473859,-22.05729,-15.71726,-21.94134
14.638615608,-19.01353,-40.5775,-12.69475,0.1855042,-0.258283,0.728466,-22.05729,-15.71726,-21.94134
14.648502827,-13.79141,-41.98972,-13.42784,0.1598361,-0.2401792,0.7307499,-22.05729,-15.71726,-21.94134
14.658390999,-11.24251,-46.52059,-13.97766,0.1147009,-0.2286745,0.7450681,-22.05729,-15.71726,-21.94134
14.668278217,-12.29937,-50.16882,-15.01622,0.08129416,-0.2271495,0.7123198,-24.27734,-15.66235,-20.75918
14.678166389,-8.19627499999999,-54.93506,-16.72678,0.08174097,-0.248305,0.6979995,-24.27734,-15.66235,-20.75918
14.688054085,-5.709548,-60.0543599999999,-17.15442,0.08578859,-0.1995892,0.6996817,-24.27734,-15.66235,-20.75918
14.697941303,-6.02038900000001,-67.5861999999999,-20.33117,0.105588,-0.2099386,0.7266881,-24.27734,-15.66235,-20.75918
14.707829475,-6.02038900000001,-77.0009900000001,-23.87447,0.1658612,-0.1767653,0.738612,-24.27734,-15.66235,-20.75918
14.717716694,-9.812647,-82.5321900000001,-25.27957,0.2285079,-0.1810795,0.7189873,-26.49141,-15.99266,-19.96084
14.727604866,-10.24782,-84.6505100000003,-26.74577,0.2962458,-0.1217139,0.6923136,-26.49141,-15.99266,-19.96084
14.737492084,-9.253134,-81.5907099999998,-28.15087,0.3457082,-0.1608343,0.6555367,-26.49141,-15.99266,-19.96084
14.74737978,-6.144726,-82.47334,-29.61706,0.3546328,-0.1774643,0.5541564,-26.49141,-15.99266,-19.96084
14.757267952,1.43979,-89.1225400000002,-31.38871,0.3333276,-0.1817276,0.5267413,-26.49141,-15.99266,-19.96084
14.76715517,4.610366,-97.8900799999999,-32.06072,0.3697791,-0.3417657,0.4785375,-29.47495,-16.29522,-18.27172
14.777043343,26.05838,-108.5994,-31.26653,0.4579757,-0.2863049,0.6168628,-29.47495,-16.29522,-18.27172
14.786930561,23.69599,-108.9525,-25.15739,0.4067532,-0.2582788,0.5627998,-29.47495,-16.29522,-18.27172
14.796818256,8.89997000000001,-110.8354,-24.66866,0.3211431,-0.234634,0.4716888,-29.47495,-16.29522,-18.27172
14.806706428,-1.544282,-108.364,-22.9581,0.2418716,-0.1624941,0.2375066,-29.47495,-16.29522,-18.27172
14.816593647,-5.150035,-122.4274,-35.66511,0.3862642,-0.2835426,0.368612,-32.47908,-16.89134,-15.41083
14.826481342,3.304835,-126.6052,-43.5459,0.6868536,-0.2312871,0.3860029,-32.47908,-16.89134,-15.41083
14.838840961,10.70285,-122.7804,-45.92846,0.9090374,-0.1036635,0.4178323,-32.47908,-16.89134,-15.41083
14.851200581,9.33514699999999,-125.546,-44.40118,0.9655535,0.03513643,0.3282248,-32.47908,-16.89134,-15.41083
14.858615875,6.22673899999999,-129.7239,-42.69062,1.016142,0.0676837,0.3295606,-32.47908,-16.89134,-15.41083
14.868504047,4.859039,-136.6673,-37.98658,1.035812,0.1461588,0.3368811,-36.63044,-17.89525,-11.66155
14.878391743,-3.96884,-138.7856,-35.0542,1.01096,0.2731457,0.3583335,-36.63044,-17.89525,-11.66155
14.888279438,-9.37747000000002,-138.1383,-33.89346,1.015098,0.2541862,0.4262439,-36.63044,-17.89525,-11.66155
14.898167133,-7.512425,-129.2531,-30.47234,0.990949,0.1386039,0.411892,-36.63044,-17.89525,-11.66155
14.908054352,-7.69893,-120.3091,-29.86143,0.9252663,0.03024589,0.3214708,-36.63044,-17.89525,-11.66155
14.917942524,-10.18566,-112.0711,-30.47234,0.851301,-0.08337315,0.2363569,-38.90672,-19.9896,-7.400377
14.927829742,-8.44494700000003,-112.483,-31.26653,0.786487,-0.2030315,0.1719635,-38.90672,-19.9896,-7.400377
14.937717915,-4.155344,-117.5435,-30.47234,0.7633219,-0.3077519,0.1676572,-38.90672,-19.9896,-7.400377
14.94760561,-5.523044,-121.4859,-30.10579,0.8001725,-0.4025533,0.248492,-38.90672,-19.9896,-7.400377
14.957492828,-14.10225,-120.1325,-34.38219,0.9041694,-0.4830201,0.4827444,-38.90672,-19.9896,-7.400377
14.967381001,-26.41155,-117.7788,-37.43676,1.144598,-0.5043017,0.7851438,-40.85778,-20.26962,-3.611657
14.977268219,-38.28567,-102.4798,-37.68113,1.423807,-0.3866606,0.9060588,-40.85778,-20.26962,-3.611657
14.987155914,-43.56996,-85.4154699999999,-42.93499,1.595005,-0.1817523,0.8561641,-40.85778,-20.26962,-3.611657
14.997044086,-36.73146,-83.4148299999999,-56.80273,1.356007,-0.1961379,0.5135493,-40.85778,-20.26962,-3.611657
15.006931305,8.15395200000002,-101.2441,-64.9889799999997,1.032801,-0.2929608,0.1505757,-40.85778,-20.26962,-3.611657
15.016819477,47.07122,-111.0119,-56.74164,1.116084,-0.2688808,0.4693993,-42.36332,-21.69862,-0.2509849
15.026706696,32.0887,-76.8244599999998,-41.16333,1.438953,-0.03806195,1.16305,-42.36332,-21.69862,-0.2509849
15.036594391,-9.50180599999998,-37.04695,-38.5975,1.652945,0.2728283,1.432481,-42.36332,-21.69862,-0.2509849
15.046481609,-35.79894,-20.45337,-29.86143,1.717757,0.2401469,1.079243,-42.36332,-21.69862,-0.2509849
15.058841705,-55.1954,-23.27781,-17.21551,1.555961,0.02795154,0.6429738,-42.42442,-23.46386,3.146997
15.068729877,-54.26288,-18.2762,-15.1384,1.339508,-0.1588076,0.5652814,-42.42442,-23.46386,3.146997
15.078617096,-53.01952,-16.33439,-9.94563200000002,1.013481,-0.3545774,0.4240282,-42.42442,-23.46386,3.146997
15.088504791,-37.72615,-21.80675,-2.125934,0.7021233,-0.4944009,0.1180341,-42.42442,-23.46386,3.146997
15.098392487,2.434481,-35.51704,1.478458,0.4819055,-0.547617,-0.01804806,-42.42442,-23.46386,3.146997
15.108280182,37.12432,-45.75563,7.28214099999998,0.3990031,-0.5356245,-0.04128713,-42.4127,-24.99161,2.325127
15.118168354,60.5617099999997,-52.87558,9.42034000000002,0.4031889,-0.4280652,-0.01248972,-42.4127,-24.99161,2.325127
15.128055573,64.2918,-64.2910199999997,8.07632800000003,0.5248791,-0.2573157,0.08922198,-42.4127,-24.99161,2.325127
15.137943268,60.1887100000002,-70.82253,3.189017,0.7017705,0.04196786,0.2288206,-42.4127,-24.99161,2.325127
15.147830486,44.08715,-72.17591,-5.058321,0.934468,0.3322609,0.3608333,-42.4127,-24.99161,2.325127
15.157718658,29.78847,-72.9996999999997,-15.68822,1.239513,0.4929399,0.4974307,-42.0784,-24.57253,4.857662
15.167605877,-3.222822,-72.2935900000002,-21.00318,1.499246,0.5627311,0.5748016,-42.0784,-24.57253,4.857662
15.177494049,-33.12571,-67.64503,-22.10282,1.670497,0.4386105,0.6342959,-42.0784,-24.57253,4.857662
15.187381744,-56.25227,-57.5241300000002,-18.74279,1.660457,0.2243383,0.6656654,-42.0784,-24.57253,4.857662
15.197268963,-66.8830299999998,-46.57943,-14.4664,1.376436,-0.0009649126,0.5741441,-42.0784,-24.57253,4.857662
15.207157135,-63.9611200000003,-45.28489,-14.4053,1.058764,-0.1317117,0.4835496,-42.50581,-24.13406,7.827007
15.217044354,-52.83302,-48.28586,-15.44386,0.8382308,-0.2207564,0.4265192,-42.50581,-24.13406,7.827007
15.226932526,-38.28567,-54.28779,-15.99368,0.6806358,-0.2413105,0.3336261,-42.50581,-24.13406,7.827007
15.236820221,-22.12194,-57.7594999999997,-14.89404,0.6228803,-0.2855127,0.2683785,-42.50581,-24.13406,7.827007
15.246707439,-6.08255700000002,-66.3505000000001,-13.55002,0.6261196,-0.2258778,0.218546,-42.50581,-24.13406,7.827007
15.256595612,4.796871,-72.82317,-12.08383,0.6932144,-0.07154125,0.1923535,-41.81665,-25.21535,7.857765
15.26648283,9.45948300000001,-76.1183500000002,-12.14492,0.7909005,0.09509552,0.1786377,-41.81665,-25.21535,7.857765
15.278842926,5.356384,-77.6482599999999,-15.01622,0.9000964,0.2262628,0.171847,-41.81665,-25.21535,7.857765
15.288730145,-5.709548,-78.29552,-18.62061,0.9920048,0.2787365,0.1760147,-41.81665,-25.21535,7.857765
15.29861784,-20.50557,-77.6482599999999,-21.73627,1.076403,0.2814215,0.2039905,-41.81665,-25.21535,7.857765
15.308506012,-38.72084,-75.3533999999997,-23.08028,1.144224,0.2562392,0.2224699,-41.11454,-25.54958,10.86346
15.318393231,-54.57372,-72.8820200000001,-23.20247,1.13678,0.1886091,0.192986,-41.11454,-25.54958,10.86346
15.328280926,-62.6555899999998,-71.82285,-21.61409,1.087995,0.1011963,0.1702881,-41.11454,-25.54958,10.86346
15.338168621,-66.26134,-71.17559,-18.80388,1.010956,0.01497339,0.1908349,-41.11454,-25.54958,10.86346
15.348056316,-63.89895,-72.2347499999998,-15.93259,0.915206,-0.05516865,0.1444311,-41.11454,-25.54958,10.86346
15.357944489,-55.87926,-75.7064600000002,-13.48893,0.850001,-0.1057545,0.1398034,-40.02128,-26.66214,12.9804
15.367831707,-45.2485,-77.5305800000003,-11.83947,0.8165315,-0.1162738,0.1157724,-40.02128,-26.66214,12.9804
15.377719402,-34.36907,-79.9431200000001,-12.14492,0.8471224,-0.1074541,0.1234574,-40.02128,-26.66214,12.9804
15.387607098,-25.16818,-80.1784900000001,-13.18348,0.8705913,-0.07772657,0.09544043,-40.02128,-26.66214,12.9804
15.397494793,-20.4434,-80.8257500000002,-13.61112,0.942571,-0.02602921,0.1101696,-40.02128,-26.66214,12.9804
15.407382965,-20.94075,-78.4720500000002,-13.36675,0.9810007,0.004709312,0.1191955,-38.97084,-27.79527,13.92856
15.417270184,-24.42216,-76.2948799999999,-12.87802,0.9697422,0.1037818,0.09944516,-38.97084,-27.79527,13.92856
15.427157879,-26.16287,-73.2939100000002,-10.98419,1.031746,0.09250451,0.1351608,-38.97084,-27.79527,13.92856
15.437045097,-28.15226,-71.2344299999998,-10.06781,1.029045,0.1394421,0.1147219,-38.97084,-27.79527,13.92856
15.44693327,-31.50934,-70.9402199999999,-8.66271300000003,1.017525,0.1789581,0.1178755,-38.97084,-27.79527,13.92856
15.456820488,-36.8558,-67.9392500000001,-8.47943899999997,1.014643,0.1752892,0.1000967,-37.5076,-28.46395,16.50187
15.46670866,-41.82925,-63.5849100000001,-7.25761099999999,0.9952602,0.1681579,0.07654557,-37.5076,-28.46395,16.50187
15.476596356,-45.74585,-63.05532,-4.630681,0.9520472,0.1265342,0.02284362,-37.5076,-28.46395,16.50187
15.486483574,-46.6162,-62.4080599999999,-2.003752,0.956782,0.07751353,0.001936196,-37.5076,-28.46395,16.50187
15.49884367,-46.6162,-60.0543599999999,3.3112,1.000295,0.02127729,-0.007829491,-37.5076,-28.46395,16.50187
15.508730888,-47.42439,-60.28973,7.95414600000001,1.009978,1.734833e-05,-0.02790973,-36.39185,-28.84307,17.376
15.518619061,-47.9839,-56.52381,12.47491,1.020166,-0.001463634,-0.02789067,-36.39185,-28.84307,17.376
15.528506756,-47.05138,-56.93571,15.77384,1.011012,0.01802527,-0.02848048,-36.39185,-28.84307,17.376
15.538393974,-44.99983,-54.64085,18.52296,0.9771847,0.04949944,-0.0450293,-36.39185,-28.84307,17.376
15.548282146,-42.01575,-54.64085,19.74478,0.9641927,0.08712811,-0.03802041,-36.39185,-28.84307,17.376
15.558169365,-36.79363,-48.63892,20.78334,0.9603286,0.09995463,-0.02750936,-35.73034,-29.20024,19.0832
15.568057537,-31.01199,-45.22605,19.6226,0.9459062,0.1001015,-0.0847561,-35.73034,-29.20024,19.0832
15.577945232,-25.16818,-42.22509,19.56151,1.01186,0.1162581,-0.03763249,-35.73034,-29.20024,19.0832
15.587832451,-21.6246,-35.69357,19.68369,1.079345,0.1155156,-0.04572767,-35.73034,-29.20024,19.0832
15.597720623,-20.69208,-28.04405,20.23351,1.143921,0.1003266,-0.07587551,-35.73034,-29.20024,19.0832
15.607607841,-22.49495,-23.74855,18.33968,1.224876,0.07195224,-0.07371639,-35.37561,-29.18189,20.38884
15.617496014,-25.9142,-17.4524,17.78986,1.249147,0.07537045,-0.0698587,-35.37561,-29.18189,20.38884
15.627383232,-31.1985,-10.33246,16.7513,1.288422,0.04569479,-0.0951529,-35.37561,-29.18189,20.38884
15.637270927,-41.02106,-3.506732,14.97966,1.260154,0.0340442,-0.0638663,-35.37561,-29.18189,20.38884
15.647159099,-57.3712900000001,4.319319,17.60658,1.20336,0.03965667,-0.05434082,-35.37561,-29.18189,20.38884
15.657046318,-81.9898899999998,12.85148,20.90552,1.161546,0.01829911,-0.05524228,-35.75924,-29.16921,20.76938
15.666934013,-109.406,19.08878,25.79283,1.109983,-0.009748653,-0.0489072,-35.75924,-29.16921,20.76938
15.676821709,-132.8434,22.67817,31.84088,1.082933,-0.07662639,0.00189671,-35.75924,-29.16921,20.76938
15.686709404,-146.0853,26.7383,36.97256,1.088939,-0.2244281,0.1166287,-35.75924,-29.16921,20.76938
15.696597576,-147.7638,34.15246,42.83733,1.111975,-0.3491395,0.2471338,-35.75924,-29.16921,20.76938
15.706484795,-141.547,43.39073,46.93045,1.144547,-0.4017024,0.3513154,-36.41339,-28.44114,18.66775
15.718844414,-126.5645,60.3962099999997,47.78573,1.204108,-0.3750609,0.4474327,-36.41339,-28.44114,18.66775
15.728732109,-112.6388,78.6962199999999,46.07517,1.228146,-0.2926125,0.4605092,-36.41339,-28.44114,18.66775
15.738619804,-99.0861399999998,98.34961,42.77624,1.213489,-0.2114445,0.4153567,-36.41339,-28.44114,18.66775
15.748507023,-84.8496199999999,115.767,37.58347,1.172192,-0.1365418,0.3384648,-38.23399,-29.24004,14.80914
15.758395195,-70.4266099999998,128.3593,32.63507,1.128182,-0.02855894,0.2262954,-38.23399,-29.24004,14.80914
15.76828289,-55.81709,133.8316,27.62557,1.091068,0.09469789,0.09433889,-38.23399,-29.24004,14.80914
15.778170586,-36.54496,137.7741,19.37823,1.070988,0.2489872,-0.01178533,-38.23399,-29.24004,14.80914
15.788058281,-22.12194,134.8908,9.54252199999998,1.082826,0.3427361,-0.1565219,-38.23399,-29.24004,14.80914
15.797945499,-15.59429,120.7098,-3.469945,1.099901,0.461013,-0.2234673,-40.32861,-28.18341,8.77672
15.807833672,-20.19473,102.9393,-16.42132,1.131341,0.5197817,-0.2949049,-40.32861,-28.18341,8.77672
15.817721367,-36.10978,85.93385,-30.10579,1.190172,0.5573475,-0.2825239,-40.32861,-28.18341,8.77672
15.827608585,-66.1370099999997,78.6962199999999,-37.80331,1.271779,0.5607656,-0.3036089,-40.32861,-28.18341,8.77672
15.837496757,-102.1945,80.0495999999998,-42.0797,1.255644,0.5436267,-0.2794946,-40.32861,-28.18341,8.77672
15.847383976,-139.1224,82.2856099999999,-46.05065,1.211194,0.4917422,-0.2379237,-42.07461,-26.78623,4.434632
15.857272148,-175.3665,81.75603,-47.94448,1.188614,0.4570591,-0.1829491,-42.07461,-26.78623,4.434632
15.867159843,-202.4718,79.4611699999999,-49.96049,1.149876,0.390943,-0.1153301,-42.07461,-26.78623,4.434632
15.877047062,-217.7652,77.57821,-50.75468,1.106193,0.2821198,-0.07106601,-42.07461,-26.78623,4.434632
15.886935234,-226.6552,74.98914,-51.42669,1.053554,0.2213982,-0.0679335,-42.07461,-26.78623,4.434632
15.896822453,-228.0851,74.6949300000001,-54.72562,1.031468,0.1408794,-0.08197936,-41.96816,-27.6581,-1.845482
15.906710625,-223.4846,74.1065099999998,-55.15326,1.011367,0.07450694,-0.09417076,-41.96816,-27.6581,-1.845482
15.91659832,-217.2678,73.9888199999999,-56.00854,1.007186,0.06785746,-0.1811886,-41.96816,-27.6581,-1.845482
15.928957462,-209.3725,70.10522,-58.4522,1.011153,0.04890504,-0.2431272,-41.96816,-27.6581,-1.845482
15.938845634,-203.5286,69.6933199999997,-58.20783,1.006362,0.03906573,-0.2829994,-41.96816,-27.6581,-1.845482
15.948732853,-198.9904,65.1036100000003,-57.16928,0.9789442,0.08432527,-0.321252,-41.16814,-27.78518,-8.185328
15.958621025,-196.255,58.21904,-55.88636,0.9780954,0.1183919,-0.3228678,-41.16814,-27.78518,-8.185328
15.968508244,-195.6954,51.45215,-53.56489,0.95153,0.1519577,-0.3288387,-41.16814,-27.78518,-8.185328
15.978395939,-199.4877,46.98012,-51.85433,0.9195896,0.1872537,-0.3175113,-41.16814,-27.78518,-8.185328
15.988284111,-205.891,38.21259,-52.46524,0.8933384,0.1875644,-0.3002295,-41.16814,-27.78518,-8.185328
15.998171329,-212.1078,30.3277,-52.95398,0.8456609,0.1246604,-0.3446916,-39.55137,-27.92423,-14.50658
16.008059502,-213.2269,22.73701,-53.5038,0.8255618,0.03936689,-0.3846808,-39.55137,-27.92423,-14.50658
16.01794672,-207.8804,13.91064,-54.29799,0.7715531,-0.01493014,-0.408033,-39.55137,-27.92423,-14.50658
16.027834415,-197.3118,4.025106,-54.66453,0.7418652,-0.07706835,-0.4640204,-39.55137,-27.92423,-14.50658
16.037722588,-179.8426,-5.683904,-54.96999,0.6857802,-0.1728096,-0.4910129,-39.55137,-27.92423,-14.50658
16.047609806,-160.8191,-17.21703,-55.82527,0.6869683,-0.2567111,-0.5002061,-38.02385,-27.2764,-19.21856
16.057497501,-138.3764,-24.16044,-56.25291,0.7327998,-0.3177405,-0.4719521,-38.02385,-27.2764,-19.21856
16.067385197,-113.447,-29.92701,-57.23037,0.7235728,-0.4002195,-0.3873846,-38.02385,-27.2764,-19.21856
16.077272892,-88.3932100000002,-35.8701,-57.23037,0.7095226,-0.3331738,-0.3021354,-38.02385,-27.2764,-19.21856
16.087161064,-71.79431,-43.28425,-59.8572999999999,0.7309326,-0.2618946,-0.2221574,-38.02385,-27.2764,-19.21856
16.097048283,-66.4478499999998,-49.69808,-59.6129400000001,0.7862307,-0.190623,-0.1055909,-37.60859,-25.80788,-21.30648
16.106935978,-69.92926,-56.34728,-55.94745,0.8570194,-0.1788369,-0.05699695,-37.60859,-25.80788,-21.30648
16.116823196,-77.82462,-62.3492099999998,-46.60047,0.9730166,-0.1347282,0.009760076,-37.60859,-25.80788,-21.30648
16.126711369,-89.3257299999998,-65.9974499999999,-32.8549,1.095643,-0.1866232,0.007757143,-37.60859,-25.80788,-21.30648
16.136599541,-102.5676,-67.4096700000002,-14.83294,1.166007,-0.2383353,0.1413136,-37.60859,-25.80788,-21.30648
16.148958683,-121.5288,-60.9958400000001,8.56506000000003,1.235518,-0.2728821,0.2502554,-37.6244,-26.54848,-20.45279
16.158846378,-129.2999,-49.40387,16.87349,1.247648,-0.3260479,0.3765391,-37.6244,-26.54848,-20.45279
16.168733597,-125.1968,-31.51575,15.04075,1.237684,-0.4751082,0.4700988,-37.6244,-26.54848,-20.45279
16.178621769,-124.6994,-7.39033600000002,12.16945,1.35529,-0.467636,0.8227099,-37.6244,-26.54848,-20.45279
16.188509941,-108.1627,18.08846,1.234092,1.293685,-0.597141,0.6213074,-37.6244,-26.54848,-20.45279
16.19839716,-72.6024900000001,27.50326,-11.96165,1.07786,-0.4221869,0.6009411,-37.61401,-25.10761,-20.92709
16.208284855,-29.08478,30.79844,-27.84541,0.9865881,-0.2244687,0.49115,-37.61401,-25.10761,-20.92709
16.218172073,14.37077,26.09104,-35.23747,0.9530324,-0.04699488,0.3704657,-37.61401,-25.10761,-20.92709
16.228060246,47.56857,22.56049,-35.42075,0.935868,0.06148268,0.1972474,-37.61401,-25.10761,-20.92709
16.237947941,62.8619300000001,26.44409,-30.0447,0.9738463,0.06356288,-0.04943246,-37.61401,-25.10761,-20.92709
16.247835636,65.9703400000002,21.14827,-17.76533,1.143981,-0.09662009,-0.3826697,-38.65517,-22.53242,-22.2847
16.257723332,68.45706,-4.036314,-2.003752,1.427761,-0.0699218,-0.6763247,-38.65517,-22.53242,-22.2847
16.26761055,61.6807400000002,-30.98617,7.34323199999999,1.615738,0.09099317,-0.7024129,-38.65517,-22.53242,-22.2847
16.277498722,34.69976,-43.22541,11.43636,1.564653,0.205318,-0.4890389,-38.65517,-22.53242,-22.2847
16.287386417,-12.11287,-35.34052,20.78334,1.37326,0.1058116,-0.1670175,-38.65517,-22.53242,-22.2847
16.297274113,-68.9967399999999,-11.80352,36.30055,1.079502,-0.007236837,0.1150395,-37.61974,-23.96508,-20.48903
16.307161808,-114.193,12.08653,40.51586,0.7963515,-0.02248593,0.1648104,-37.61974,-23.96508,-20.48903
16.317049027,-129.2377,26.62062,31.16887,0.5936844,-0.04885387,0.03534547,-37.61974,-23.96508,-20.48903
16.326937199,-112.0171,24.56113,14.06328,0.4465612,-0.0423287,-0.134139,-37.61974,-23.96508,-20.48903
16.336824894,-71.5456400000002,6.02575100000001,-7.19651999999998,0.3569649,0.009266563,-0.3432213,-37.61974,-23.96508,-20.48903
16.346712113,-22.05977,-34.28135,-26.07376,0.3547281,0.1189637,-0.4654512,-39.42465,-22.50466,-21.39392
16.356600285,12.44355,-76.1183500000002,-35.17638,0.5918908,0.2833128,-0.3529957,-39.42465,-22.50466,-21.39392
16.366487503,14.55727,-95.4775299999999,-33.77128,0.895834,0.4428298,-0.1639732,-39.42465,-22.50466,-21.39392
16.378847599,-16.52681,-91.8293000000001,-24.97412,1.199356,0.5452104,-0.08335076,-39.42465,-22.50466,-21.39392
16.388734818,-49.78677,-81.47302,-10.862,1.381567,0.5660154,-0.1332645,-39.42465,-22.50466,-21.39392
16.398622513,-84.1657700000001,-66.5858799999999,3.3112,1.497277,0.4601597,-0.1624151,-39.80418,-20.22362,-21.04521
16.408510685,-113.6335,-44.81416,13.20801,1.44862,0.3043331,-0.1357133,-39.80418,-20.22362,-21.04521
16.418397904,-136.5735,-23.92507,16.99567,1.295034,0.1214015,-0.1118793,-39.80418,-20.22362,-21.04521
16.428286076,-146.3339,-11.03857,15.83493,1.126577,-0.009361125,-0.08592121,-39.80418,-20.22362,-21.04521
16.438173294,-145.2771,-4.565897,8.93160800000002,0.9882559,-0.105121,-0.02740313,-39.80418,-20.22362,-21.04521
16.448060989,-135.5167,-6.331171,-1.820477,0.9020743,-0.1699288,-0.008898629,-40.5817,-20.94482,-19.7547
16.457949162,-115.1877,-16.62861,-9.57908399999997,0.8266872,-0.2315094,-0.03368106,-40.5817,-20.94482,-19.7547
16.46783638,-87.8336900000001,-30.86849,-16.36023,0.8478755,-0.2907023,-0.04874731,-40.5817,-20.94482,-19.7547
16.477724552,-58.6146499999997,-42.22509,-18.43734,0.8959661,-0.283078,-0.05354037,-40.5817,-20.94482,-19.7547
16.487611771,-33.87173,-50.58072,-18.98716,0.9800202,-0.2399827,-0.02625008,-40.5817,-20.94482,-19.7547
16.497499466,-11.55336,-53.0521,-19.47589,1.028738,-0.1815012,-0.01687179,-40.93954,-18.3714,-20.64261
16.507387638,7.22142900000002,-51.63988,-16.6046,1.028173,-0.0964798,-0.06298957,-40.93954,-18.3714,-20.64261
16.517274857,19.90373,-48.99197,-14.34421,1.057982,-0.05351647,-0.08433332,-40.93954,-18.3714,-20.64261
16.527163029,25.62321,-42.75467,-12.02274,1.026699,-0.03224839,-0.1643092,-40.93954,-18.3714,-20.64261
16.537050247,23.38515,-41.22476,-9.70126700000002,1.000068,0.006210521,-0.1361595,-40.93954,-18.3714,-20.64261
16.546937942,15.42763,-36.69389,-6.52451399999998,0.9399934,0.04692583,-0.1244106,-41.34403,-17.57873,-18.97563
16.556826115,5.107712,-36.16431,-2.981214,0.8808753,0.03298913,-0.1850034,-41.34403,-17.57873,-18.97563
16.566713333,-6.26906200000001,-37.34116,-0.659740900000002,0.8701746,0.04459836,-0.1591045,-41.34403,-17.57873,-18.97563
16.576601028,-17.5215,-38.40032,3.066834,0.8721763,0.06163047,-0.1596692,-41.34403,-17.57873,-18.97563
16.586488724,-31.13633,-38.9299,5.08285,0.9179031,0.094739,-0.1540135,-41.34403,-17.57873,-18.97563
16.598848343,-48.23257,-40.10675,5.81594700000002,0.9433672,0.1395509,-0.1825853,-41.68108,-17.92832,-17.68042
16.608736515,-59.1741699999998,-43.16656,4.471936,0.9696485,0.1589554,-0.1840963,-41.68108,-17.92832,-17.68042
16.618623733,-66.4478499999998,-46.46174,2.45592,0.9711943,0.1837652,-0.1856626,-41.68108,-17.92832,-17.68042
16.628511429,-70.9239600000001,-49.75692,0.867544000000001,0.973175,0.2044145,-0.1722989,-41.68108,-17.92832,-17.68042
16.638399124,-72.9133399999999,-51.75757,-0.4153753,0.969278,0.2124722,-0.1550309,-43.21713,-17.49713,-16.03387
16.648286819,-71.79431,-52.69905,-0.04882693,0.9755129,0.2109435,-0.1261608,-43.21713,-17.49713,-16.03387
16.658174992,-68.6237300000001,-51.93409,0.806452599999999,0.9710709,0.1984785,-0.113599,-43.21713,-17.49713,-16.03387
16.66806221,-63.0285899999998,-51.34567,2.272646,0.9816644,0.1820738,-0.1019619,-43.21713,-17.49713,-16.03387
16.677949905,-56.1901,-51.16914,3.066834,1.019291,0.1287297,-0.08193181,-43.21713,-17.49713,-16.03387
16.687837601,-47.92173,-49.46271,4.044297,1.034101,0.07495809,-0.06096363,-43.22312,-17.11191,-15.65006
16.697725296,-37.41531,-49.75692,4.594119,1.050365,0.01920706,-0.04190749,-43.22312,-17.11191,-15.65006
16.707613468,-24.60867,-53.75821,4.594119,1.024518,-0.00336252,-0.02402875,-43.22312,-17.11191,-15.65006
16.717500687,-9.00446099999999,-58.3479300000003,3.189017,1.011192,-0.03677566,0.01940784,-43.22312,-17.11191,-15.65006
16.727388382,11.26236,-62.2315300000002,2.578103,1.005738,-0.06589562,0.02531984,-43.22312,-17.11191,-15.65006
16.7372756,26.49356,-64.5852300000002,2.45592,1.009264,-0.04083999,0.007884081,-44.38875,-15.98478,-13.55068
16.747163773,30.03715,-62.7611100000001,1.050818,1.051609,0.008596202,0.0302857,-44.38875,-15.98478,-13.55068
16.757051945,14.18426,-55.22927,3.799931,1.058194,0.03372101,-0.04726207,-44.38875,-15.98478,-13.55068
16.766939163,-18.45402,-42.87235,10.94762,1.067464,0.04634183,-0.04875807,-44.38875,-15.98478,-13.55068
16.776826858,-56.25227,-31.86881,20.53897,1.061655,0.06068335,-0.03489044,-44.38875,-15.98478,-13.55068
16.786714077,-85.3469699999997,-22.51285,30.37469,1.08507,0.099214,-0.0278447,-44.04972,-16.64404,-11.39224
16.796602249,-101.5729,-13.50995,37.27802,1.158711,0.1904138,-0.04168762,-44.04972,-16.64404,-11.39224
16.806489944,-107.6032,-2.74178,40.9435,1.310549,0.2751699,-0.08522617,-44.04972,-16.64404,-11.39224
16.818849564,-106.6706,13.49875,39.04966,1.455177,0.3450567,-0.1796754,-44.04972,-16.64404,-11.39224
16.828737259,-104.4948,25.73798,31.65761,1.445902,0.3274945,-0.1829637,-44.04972,-16.64404,-11.39224
16.838624477,-106.2355,34.56436,21.63862,1.348485,0.2402732,-0.1667633,-44.42338,-14.81122,-11.42645
16.84851265,-110.8359,37.50648,12.47491,1.292585,0.09765889,-0.13677,-44.42338,-14.81122,-11.42645
16.858400345,-113.5713,39.3306,9.237065,1.238568,-0.04508665,-0.08272781,-44.42338,-14.81122,-11.42645
16.86828804,-108.9087,42.97883,11.92509,1.156643,-0.1310914,-0.04824096,-44.42338,-14.81122,-11.42645
16.878175735,-97.03458,47.9216,19.19496,1.066637,-0.191281,-0.0470773,-44.42338,-14.81122,-11.42645
16.888062954,-84.6009500000002,47.39202,33.1238,0.9886365,-0.3198562,-0.09076099,-44.70531,-13.01036,-13.14541
16.897951126,-84.1036100000001,47.9216,50.41266,0.9955564,-0.3922366,-0.04518079,-44.70531,-13.01036,-13.14541
16.907838821,-99.5213100000001,56.27723,71.3670100000001,1.069594,-0.4406494,0.1792573,-44.70531,-13.01036,-13.14541
16.91772604,-123.8291,86.6399499999999,93.2377299999999,1.107937,-0.5624707,0.4073921,-44.70531,-13.01036,-13.14541
16.927614212,-146.8934,113.1779,108.6328,1.032975,-0.4824269,0.409307,-44.70531,-13.01036,-13.14541
16.93750143,-150.437,125.1818,110.8931,0.9551021,-0.2885047,0.3731312,-43.20439,-10.44002,-16.13288
16.947389603,-127.6213,129.7715,102.8902,0.9547471,-0.2117749,0.2284668,-43.20439,-10.44002,-16.13288
16.957277298,-86.7768299999999,135.7734,95.3148399999999,0.9796798,-0.06324349,0.1666676,-43.20439,-10.44002,-16.13288
16.967164516,-47.61089,145.7178,90.1831699999997,1.081869,0.1099984,0.1067551,-43.20439,-10.44002,-16.13288
16.977052689,-24.98168,153.4262,83.2798399999998,1.152655,0.3027857,0.01448633,-43.20439,-10.44002,-16.13288
16.986939907,-15.9673,160.2519,71.9779299999999,1.245274,0.4120586,0.00682563,-41.98346,-4.997647,-20.85433
16.996828079,-19.20004,165.4889,63.9138599999998,1.297137,0.602842,-0.09170646,-41.98346,-4.997647,-20.85433
17.006715775,-31.82018,160.8992,45.8919,1.29211,0.7988609,-0.1407948,-41.98346,-4.997647,-20.85433
17.016602993,-50.09762,150.131,23.71572,1.290525,0.9801618,-0.2292404,-41.98346,-4.997647,-20.85433
17.026491165,-72.7268300000001,128.3593,-2.431391,1.279474,1.111263,-0.2890688,-41.98346,-4.997647,-20.85433
17.038850307,-106.9193,98.58498,-37.07021,1.303676,1.093227,-0.2870265,-38.91902,0.01609099,-26.82607
17.04873848,-141.92,83.8155099999998,-54.48126,1.255723,0.9623945,-0.3147942,-38.91902,0.01609099,-26.82607
17.058626175,-178.6614,74.4595600000001,-62.6064099999998,1.216304,0.787041,-0.3226095,-38.91902,0.01609099,-26.82607
17.068513393,-211.1753,71.2232200000003,-62.1176799999999,1.173399,0.60977,-0.2962736,-38.91902,0.01609099,-26.82607
17.078401566,-236.8508,73.7534499999999,-57.10819,1.128645,0.4781916,-0.2432392,-38.91902,0.01609099,-26.82607
17.088288784,-257.8015,76.2836800000001,-53.5038,1.101941,0.3594449,-0.209005,-35.15577,2.868323,-29.76647
17.098176956,-268.4322,79.40233,-50.14377,1.105923,0.2543852,-0.199813,-35.15577,2.868323,-29.76647
17.108064652,-267.251,82.0502399999999,-47.63902,1.099806,0.1706562,-0.198435,-35.15577,2.868323,-29.76647
17.11795187,-260.1638,81.6383400000001,-47.63902,1.137394,0.08719847,-0.2056653,-35.15577,2.868323,-29.76647
17.127840042,-254.0714,81.2852899999999,-49.04412,1.154066,0.03641153,-0.1476792,-35.15577,2.868323,-29.76647
17.137727261,-249.5952,83.6389800000002,-51.42669,1.115677,-0.01050619,-0.1965397,-32.59607,6.193952,-28.45764
17.147614956,-246.3003,82.8740399999999,-55.09217,1.041939,-0.01807453,-0.2239978,-32.59607,6.193952,-28.45764
17.157503128,-243.1919,79.9319200000002,-58.4522,1.003695,-0.009178273,-0.2529415,-32.59607,6.193952,-28.45764
17.167390347,-239.6483,73.1061899999998,-61.01804,0.9650484,0.01959747,-0.2877572,-32.59607,6.193952,-28.45764
17.177278519,-235.9182,65.2212899999999,-61.5678600000002,0.947301,0.06607061,-0.3086918,-32.59607,6.193952,-28.45764
17.187165737,-231.0691,58.1013500000001,-60.1627599999998,0.9421057,0.1024943,-0.3160956,-29.64765,11.71105,-27.62514
17.197053433,-226.2822,50.15762,-59.3074800000002,0.939348,0.1463109,-0.3172819,-29.64765,11.71105,-27.62514
17.206941605,-220.0654,43.86147,-58.5743800000002,0.9591633,0.1378517,-0.2941324,-29.64765,11.71105,-27.62514
17.216828823,-214.0972,41.74314,-57.7801899999999,0.9687363,0.1108152,-0.2771527,-29.64765,11.71105,-27.62514
17.226716995,-207.4452,39.09523,-56.86382,0.9882815,0.006526125,-0.279489,-29.64765,11.71105,-27.62514
17.236604691,-199.3012,36.68269,-54.42017,0.9638014,-0.04284998,-0.262916,-28.62264,16.22398,-24.68036
17.246491909,-191.2815,34.2113,-52.70961,0.9630866,-0.09215801,-0.2386216,-28.62264,16.22398,-24.68036
17.258852005,-181.2103,30.97497,-53.19834,0.940533,-0.1518933,-0.2306506,-28.62264,16.22398,-24.68036
17.268739224,-172.6311,26.62062,-54.66453,0.9383383,-0.2080157,-0.2063235,-28.62264,16.22398,-24.68036
17.278627396,-162.3733,21.73669,-55.33654,0.8950972,-0.2081584,-0.1890588,-28.66774,19.6184,-21.74398
17.288514614,-151.1209,15.61707,-56.13073,0.8944955,-0.2352898,-0.1797848,-28.66774,19.6184,-21.74398
17.298402309,-140.8631,9.438614,-57.23037,0.8721599,-0.2262361,-0.1635047,-28.66774,19.6184,-21.74398
17.308290482,-133.7138,3.201311,-57.10819,0.8702612,-0.21456,-0.1645277,-28.66774,19.6184,-21.74398
17.3181777,-130.1702,-3.212519,-55.64199,0.8577054,-0.1860764,-0.1502583,-28.66774,19.6184,-21.74398
17.328065872,-132.0352,-10.09709,-52.58743,0.8632209,-0.1463946,-0.1663229,-28.72934,21.89415,-17.94861
17.337953568,-138.6872,-17.92314,-47.57793,0.8783582,-0.1196279,-0.1654791,-28.72934,21.89415,-17.94861
17.347840786,-149.8153,-25.16077,-42.69062,0.9046576,-0.09237467,-0.1631823,-28.72934,21.89415,-17.94861
17.357728958,-165.9169,-30.69196,-36.70366,0.9318293,-0.06699,-0.1228824,-28.72934,21.89415,-17.94861
17.367616177,-183.6348,-34.04598,-30.0447,0.938668,-0.05583242,-0.1248546,-28.72934,21.89415,-17.94861
17.377503872,-197.6227,-37.92958,-23.56901,0.924453,-0.09722385,-0.1265853,-29.49074,23.05301,-13.76393
17.387392044,-209.2481,-40.5775,-16.84896,0.9342138,-0.09459464,-0.1448625,-29.49074,23.05301,-13.76393
17.397279263,-215.3406,-44.57878,-10.37327,0.9166508,-0.1387809,-0.1711099,-29.49074,23.05301,-13.76393
17.407167435,-217.33,-49.46271,-4.691772,0.9242041,-0.2130926,-0.1894817,-29.49074,23.05301,-13.76393
17.417054653,-217.5165,-52.75789,1.783915,0.9312702,-0.2550471,-0.1608873,-29.49074,23.05301,-13.76393
17.426942349,-218.8842,-54.46432,10.64217,0.933148,-0.2720653,-0.1588755,-29.97663,23.17548,-7.416938
17.436830521,-219.8167,-56.17075,16.32367,0.9504176,-0.3046513,-0.1211793,-29.97663,23.17548,-7.416938
17.446717739,-218.3868,-54.87622,21.63862,0.9875601,-0.3425754,-0.07958623,-29.97663,23.17548,-7.416938
17.456605911,-214.9676,-49.81577,18.76732,1.020303,-0.3852741,-0.03220297,-29.97663,23.17548,-7.416938
17.46649313,-202.7826,-38.45917,12.47491,1.032606,-0.4305738,0.03392613,-29.97663,23.17548,-7.416938
17.478852749,-172.9419,-22.98359,-5.424869,1.008682,-0.5848159,0.0721902,-30.45244,25.18109,-1.48558
17.488740921,-134.3355,-14.92217,-22.59155,1.033405,-0.715466,0.09884826,-30.45244,25.18109,-1.48558
17.49862814,-89.1392299999997,-10.21478,-34.19892,1.060584,-0.7070476,0.1118215,-30.45244,25.18109,-1.48558
17.508516312,-44.68899,-7.09612300000002,-42.50735,1.139505,-0.6159785,0.1225122,-30.45244,25.18109,-1.48558
17.51840353,-11.67769,-3.153677,-46.11174,1.203743,-0.4311362,0.116842,-30.45244,25.18109,-1.48558
17.528291226,2.558817,0.2003446,-40.98006,1.237023,-0.2454046,0.06881098,-30.16081,26.02476,3.570912
17.538179397,0.3829313,2.436359,-31.87744,1.190086,-0.1477714,-0.05196601,-30.16081,26.02476,3.570912
17.548066616,-10.74517,-0.6234501,-21.61409,1.109973,-0.1460344,-0.2396251,-30.16081,26.02476,3.570912
17.557954788,-28.89827,-6.27232800000001,-11.53401,1.064847,-0.2132148,-0.3417731,-30.16081,26.02476,3.570912
17.567842007,-47.17571,-10.03825,-5.608143,1.043514,-0.284983,-0.4544511,-30.16081,26.02476,3.570912
17.577729702,-48.97859,-13.33343,-8.84598700000002,0.985074,-0.2931678,-0.5862486,-31.30682,25.67879,4.393562
17.587617874,-27.90358,-20.45337,-19.47589,0.9208701,-0.2579359,-0.6812411,-31.30682,25.67879,4.393562
17.597505093,4.796871,-28.63247,-30.83889,0.9402147,-0.2112499,-0.5852708,-31.30682,25.67879,4.393562
17.607392788,33.14555,-32.33955,-36.09275,0.9601665,-0.04042821,-0.3620021,-31.30682,25.67879,4.393562
17.61728096,39.92188,-33.57524,-33.46582,1.033,0.1423856,-0.1113214,-31.30682,25.67879,4.393562
17.627168178,25.18803,-28.809,-23.75229,1.101954,0.1998615,0.1592251,-30.94499,25.31072,5.250533
17.637056351,-5.398708,-13.98069,-12.26711,1.10405,0.2198607,0.3245633,-30.94499,25.31072,5.250533
17.646943569,-44.99983,-5.86043100000001,-4.019767,1.011751,0.1568363,0.2661044,-30.94499,25.31072,5.250533
17.656831264,-76.6434199999999,-12.45079,-0.2321011,0.9168167,0.0965462,0.09701694,-30.94499,25.31072,5.250533
17.666719437,-90.6934299999999,-28.51479,-1.881569,0.8961725,0.06380264,-0.04375093,-30.94499,25.31072,5.250533
17.676606655,-87.21201,-39.87138,-7.01324599999999,0.9249569,0.05385911,-0.1186916,-30.9679,24.95653,6.552893
17.686494827,-71.2969699999999,-41.16592,-14.64967,0.9736134,0.06893558,-0.146125,-30.9679,24.95653,6.552893
17.69885397,-43.56996,-32.92797,-25.34066,1.045123,0.09565368,-0.1735912,-30.9679,24.95653,6.552893
17.708741665,-22.43279,-24.21929,-31.99963,1.055363,0.1018056,-0.1841909,-30.9679,24.95653,6.552893
17.718629837,-7.45025699999999,-18.39388,-35.48183,1.03311,0.1133279,-0.1982211,-30.9679,24.95653,6.552893
17.728517055,0.3829313,-17.21703,-35.54293,1.014666,0.1178404,-0.192013,-31.00484,24.2386,8.638791
17.738405228,-1.109105,-18.98231,-32.67163,1.009646,0.09998605,-0.1491265,-31.00484,24.2386,8.638791
17.748292446,-9.93698300000002,-20.04147,-26.74577,1.030843,0.08651999,-0.102385,-31.00484,24.2386,8.638791
17.758180141,-23.92482,-19.57073,-19.65916,1.052021,0.06620789,-0.05753259,-31.00484,24.2386,8.638791
17.768068314,-40.39938,-17.68777,-12.93911,1.065983,0.05844136,-0.02140839,-31.00484,24.2386,8.638791
17.777955532,-56.68744,-14.62796,-8.418347,1.067819,0.03720603,-0.008314127,-30.65982,23.19412,10.41342
17.787843704,-69.0589100000002,-10.97973,-7.01324599999999,1.048362,0.01661284,-0.02025521,-30.65982,23.19412,10.41342
17.797730923,-74.2188600000001,-8.802556,-7.92961600000002,1.017754,-0.009516078,-0.0456468,-30.65982,23.19412,10.41342
17.807618618,-72.2916599999998,-8.21413099999998,-11.41183,1.005129,-0.03334643,-0.07776244,-30.65982,23.19412,10.41342
17.81750679,-62.8420899999998,-8.21413099999998,-15.56604,1.000204,-0.08862282,-0.1275045,-30.65982,23.19412,10.41342
17.827394009,-47.9839,-9.92056299999999,-18.92607,0.9831962,-0.1218044,-0.1667917,-31.04482,22.45069,10.80457
17.837281704,-31.75801,-14.45143,-20.69772,0.95559,-0.1201399,-0.1894348,-31.04482,22.45069,10.80457
17.847169876,-17.95668,-18.51157,-20.57553,0.9342713,-0.1108817,-0.1919104,-31.04482,22.45069,10.80457
17.857057095,-7.512425,-24.1016,-19.04825,0.9295478,-0.07437268,-0.193543,-31.04482,22.45069,10.80457
17.866945267,0.631603899999999,-29.2209,-17.21551,0.9491343,-0.02772169,-0.1976039,-31.04482,22.45069,10.80457
17.876832485,6.59974800000002,-33.1045,-15.74932,0.9774191,0.01517469,-0.1910556,-31.829,21.73665,12.48419
17.88672018,9.52165100000002,-33.98714,-14.22203,0.9949858,0.054362,-0.1734396,-31.829,21.73665,12.48419
17.896608353,8.21611999999997,-32.51608,-12.93911,1.003715,0.07380312,-0.142268,-31.829,21.73665,12.48419
17.906495571,3.367003,-29.33858,-11.71728,1.020181,0.07748118,-0.1220692,-31.829,21.73665,12.48419
17.918855667,-5.025699,-24.04276,-10.00672,1.034678,0.06939726,-0.1071033,-31.829,21.73665,12.48419
17.928742886,-11.55336,-20.27684,-9.21253599999998,1.04879,0.07163158,-0.1186406,-32.21375,21.75053,12.92958
17.938630581,-17.08632,-17.33472,-8.418347,1.048269,0.06688532,-0.1104416,-32.21375,21.75053,12.92958
17.948518753,-20.62991,-15.27523,-7.50197599999999,1.048768,0.06779353,-0.1147739,-32.21375,21.75053,12.92958
17.958405972,-22.55712,-13.50995,-6.58560600000002,1.048181,0.05549346,-0.09066637,-32.21375,21.75053,12.92958
17.968294144,-21.8111,-11.627,-6.402331,1.050021,0.0362275,-0.07613929,-32.21375,21.75053,12.92958
17.978181362,-18.01884,-10.03825,-6.402331,1.043093,0.01269696,-0.05486773,-31.47495,21.37693,13.79513
17.988069057,-11.73986,-8.743713,-5.91360000000002,1.024083,0.008761768,-0.02745696,-31.47495,21.37693,13.79513
17.99795723,-4.528353,-7.97876099999998,-5.241595,1.008997,0.004560004,-0.01735354,-31.47495,21.37693,13.79513
18.007844448,2.247976,-7.68454900000002,-4.14195,1.00221,0.008003635,-0.01593589,-31.47495,21.37693,13.79513
18.01773262,7.15926100000001,-7.33149300000002,-2.79794,1.006673,0.02929841,-0.02421409,-31.47495,21.37693,13.79513
18.027619839,10.08116,-6.50769899999997,-1.087381,1.01166,0.05382105,-0.04453102,-32.22956,21.00992,13.78327
18.037507534,9.83249199999998,-5.154321,0.3788128,1.022983,0.08364449,-0.06775307,-32.22956,21.00992,13.78327
18.047395706,6.66191600000002,-3.330204,1.906098,1.033308,0.1041891,-0.09285303,-32.22956,21.00992,13.78327
18.057282925,2.185808,-1.859142,3.005743,1.048922,0.1111102,-0.1164354,-32.22956,21.00992,13.78327
18.06717062,-2.725477,-1.09419,3.799931,1.063999,0.1078999,-0.1337152,-32.22956,21.00992,13.78327
18.077058792,-6.26906200000001,1.200667,4.349754,1.050934,0.1121501,-0.1443318,-31.09936,20.61528,13.81432
18.086946011,-9.19096599999999,3.907421,3.983205,1.023807,0.1193282,-0.1564219,-31.09936,20.61528,13.81432
18.096834183,-12.79672,3.789736,4.227571,0.9951895,0.1227431,-0.1598382,-31.09936,20.61528,13.81432
18.106721401,-16.58898,2.142147,4.777393,0.9810849,0.1174792,-0.1554993,-31.09936,20.61528,13.81432
18.116609097,-19.38654,0.3180296,5.632673,0.9888663,0.1148781,-0.1655767,-31.09936,20.61528,13.81432
18.126497269,-19.63522,-0.0938677799999998,6.54904400000003,1.00437,0.09909974,-0.1765405,-31.10714,20.62364,14.26829
18.138856411,-19.01353,0.4945571,7.34323199999999,0.9970741,0.08926012,-0.1841938,-31.10714,20.62364,14.26829
18.148744583,-17.5215,0.847612000000001,7.40432299999999,0.9907205,0.07063916,-0.1927635,-31.10714,20.62364,14.26829
18.158631802,-14.91044,0.965297,7.28214099999998,0.9800024,0.05349486,-0.2008647,-31.10714,20.62364,14.26829
18.168519497,-11.36685,0.612241999999999,6.976684,0.9799162,0.0276651,-0.202177,-31.86705,21.01991,14.63494
18.178407669,-7.76109800000001,0.3180296,7.89305399999997,0.9905199,0.00721381,-0.2006189,-31.86705,21.01991,14.63494
18.188294888,-5.150035,0.0826596800000002,8.87051700000001,0.9904697,-0.003914051,-0.1957535,-31.86705,21.01991,14.63494
18.19818306,-3.471495,-0.1527103,10.03125,1.000149,-0.009232115,-0.1918682,-31.86705,21.01991,14.63494
18.208070278,-2.538972,0.4945571,10.88653,1.008845,-0.009484619,-0.1750248,-31.86705,21.01991,14.63494
18.217957974,-1.60645,1.082982,11.06981,1.006943,-0.001768741,-0.1803561,-31.49134,20.32128,14.65324
18.227846146,0.00992228700000002,1.671407,11.06981,1.006053,0.01563381,-0.1891017,-31.49134,20.32128,14.65324
18.237733364,2.496649,1.965619,10.58108,1.003153,0.02004366,-0.1876845,-31.49134,20.32128,14.65324
18.247621059,5.418552,2.318674,10.45889,1.011898,0.02544754,-0.1833736,-31.49134,20.32128,14.65324
18.257509232,8.402624,4.083949,10.3978,1.033737,0.03437798,-0.1694471,-31.49134,20.32128,14.65324
18.26739645,11.51103,6.908388,10.76435,1.050666,0.02725596,-0.1549643,-31.11244,21.38692,14.6468
18.277284622,14.18426,10.14472,11.25308,1.068601,0.02438509,-0.1491583,-31.11244,21.38692,14.6468
18.287171841,16.04931,14.38138,12.16945,1.087479,0.01919983,-0.1351639,-31.11244,21.38692,14.6468
18.297059536,16.73316,18.79457,12.71927,1.09081,0.01513422,-0.1134982,-31.11244,21.38692,14.6468
18.306947708,15.98714,23.20776,13.02473,1.090271,0.009507562,-0.09904271,-31.11244,21.38692,14.6468
18.316834927,13.99776,27.09136,13.20801,1.091718,0.01105182,-0.09327781,-31.47564,20.99887,13.80044
18.326723099,10.39201,31.32802,13.02473,1.095518,0.002609924,-0.07110847,-31.47564,20.99887,13.80044
18.336610794,5.232048,35.09394,13.20801,1.095422,-0.007728941,-0.04604843,-31.47564,20.99887,13.80044
18.346498013,-0.4252549,39.03638,13.69674,1.093386,-0.02703757,-0.03489199,-31.47564,20.99887,13.80044
18.358858109,-7.07724800000002,43.2142,14.97966,1.094203,-0.06139696,-0.0202898,-31.47564,20.99887,13.80044
18.368745327,-11.92636,47.03896,16.26258,1.097456,-0.09632002,-0.01049121,-31.09133,21.36424,13.41459
18.378633499,-15.53212,51.68752,17.91204,1.08861,-0.1234783,-0.004112051,-31.09133,21.36424,13.41459
18.388520718,-17.45933,55.80649,19.01169,1.083157,-0.1531067,0.0003597608,-31.09133,21.36424,13.41459
18.398408413,-17.77017,60.8081100000001,20.78334,1.078167,-0.1885652,0.005823402,-31.09133,21.36424,13.41459
18.408296585,-16.40247,64.8093900000001,22.67717,1.081471,-0.2223151,-0.003620714,-31.09133,21.36424,13.41459
18.418183804,-13.48057,68.5753099999998,23.65463,1.083797,-0.2490516,-0.0001165138,-30.67564,22.45352,11.26712
18.428071976,-9.62614300000003,70.9290099999998,26.0372,1.091485,-0.2674846,0.005756428,-30.67564,22.45352,11.26712
18.437959671,-5.274371,72.8708100000001,27.50339,1.097277,-0.2712694,0.0139578,-30.67564,22.45352,11.26712
18.44784689,-0.736095699999999,73.6357699999997,30.2525,1.082725,-0.2648313,0.01919885,-30.67564,22.45352,11.26712
18.457735062,2.061472,72.63544,32.57397,1.071575,-0.2499706,0.03450055,-30.67564,22.45352,11.26712
18.46762228,1.43979,69.6933199999997,35.2009,1.06531,-0.2258533,0.05072287,-31.78565,21.69011,9.954931
18.477509976,-3.28499,63.92676,37.15583,1.023648,-0.1755197,0.08937575,-31.78565,21.69011,9.954931
18.487398148,-11.55336,57.5717700000002,38.13329,0.9916331,-0.1452277,0.1242935,-31.78565,21.69011,9.954931
18.497285366,-19.82172,51.68752,36.78928,0.9398054,-0.1094772,0.1307868,-31.78565,21.69011,9.954931
18.507173538,-26.16287,45.80327,34.77327,0.8987167,-0.0706485,0.1165972,-31.78565,21.69011,9.954931
18.517061234,-30.51464,41.50777,31.84088,0.8624613,-0.04812157,0.08758685,-31.74829,22.02879,7.809484
18.526948452,-32.13102,37.68301,26.7092,0.8301322,-0.02288918,0.04462061,-31.74829,22.02879,7.809484
18.536836624,-31.88235,33.50519,19.50042,0.8007207,-0.007151865,-0.01416473,-31.74829,22.02879,7.809484
18.546723843,-31.01199,27.26789,11.55854,0.8114565,-0.01002481,-0.04203142,-31.74829,22.02879,7.809484
18.556612015,-30.32814,23.38428,3.3112,0.8230707,-0.02276598,-0.0458012,-31.74829,22.02879,7.809484
18.56649971,-29.33345,19.44184,-4.080859,0.800312,-0.05540804,-0.1149148,-32.11528,23.85444,7.386151
18.578858852,-27.71708,8.791347,-10.37327,0.7824019,-0.08454319,-0.1768267,-32.11528,23.85444,7.386151
18.588747024,-27.84141,-2.74178,-12.02274,0.7996732,-0.1340593,-0.1640529,-32.11528,23.85444,7.386151
18.598634243,-31.50934,-10.62667,-11.41183,0.8315027,-0.18856,-0.1570084,-32.11528,23.85444,7.386151
18.608522415,-35.11509,-14.86333,-8.72380399999998,0.8424616,-0.2494936,-0.1595736,-32.11528,23.85444,7.386151
18.61841011,-36.42062,-19.45304,-5.547052,0.8112636,-0.2943679,-0.1685198,-31.36205,23.46533,7.408615
18.628297329,-35.17726,-25.04308,-2.859031,0.7888405,-0.2907333,-0.123838,-31.36205,23.46533,7.408615
18.638185501,-32.37969,-28.33826,-1.94266,0.8019299,-0.2608016,-0.07443947,-31.36205,23.46533,7.408615
18.648073196,-28.52526,-28.33826,-2.675757,0.8238707,-0.2206635,-0.05778512,-31.36205,23.46533,7.408615
18.657960892,-24.85734,-28.69131,-5.424869,0.8453164,-0.1963871,-0.05980709,-31.36205,23.46533,7.408615
18.667848587,-20.75424,-30.80964,-8.66271300000003,0.8680766,-0.2095366,-0.05682924,-31.38553,22.79609,8.715396
18.677735805,-17.08632,-32.63376,-11.04528,0.8996148,-0.2135089,-0.05773515,-31.38553,22.79609,8.715396
18.687623978,-12.79672,-33.33987,-12.38929,0.9252145,-0.2341676,-0.03547928,-31.38553,22.79609,8.715396
18.697511673,-10.43433,-33.5164,-14.22203,0.9469818,-0.250659,-0.02815737,-31.38553,22.79609,8.715396
18.707398891,-8.07193900000002,-32.86913,-15.81041,0.962877,-0.2688279,-0.003520515,-31.38553,22.79609,8.715396
18.717287064,-5.523044,-30.98617,-17.70424,1.002044,-0.3042946,0.007283506,-31.79207,22.45458,10.39829
18.727175236,-0.487423,-29.27974,-18.92607,1.035439,-0.332618,0.006502763,-31.79207,22.45458,10.39829
18.737062454,6.22673899999999,-27.45562,-18.80388,1.058153,-0.365382,0.0004421836,-31.79207,22.45458,10.39829
18.746950149,14.61944,-26.39646,-17.45988,1.081314,-0.4013902,0.00545969,-31.79207,22.45458,10.39829
18.756837368,22.20396,-25.45498,-15.01622,1.09385,-0.4282548,0.001762331,-31.79207,22.45458,10.39829
18.76672554,28.73161,-24.69003,-13.06129,1.104953,-0.4502829,-0.004365704,-32.17501,22.84533,10.77353
18.776613235,34.01591,-23.63086,-10.43436,1.102469,-0.4618641,0.002422891,-32.17501,22.84533,10.77353
18.786500931,38.61635,-23.39549,-9.39580999999998,1.102975,-0.4565231,0.001434634,-32.17501,22.84533,10.77353
18.79886055,44.9575,-22.04211,-9.27362699999999,1.103021,-0.4453665,-0.001507218,-32.17501,22.84533,10.77353
18.808747768,48.6876,-21.21832,-9.70126700000002,1.096802,-0.4205485,-0.003563387,-32.17501,22.84533,10.77353
18.818635941,49.55795,-21.98327,-10.06781,1.097489,-0.3611132,-0.001939267,-31.79874,22.46174,10.78741
18.828523636,47.5064,-22.5717,-10.73982,1.099225,-0.2772893,0.002448328,-31.79874,22.46174,10.78741
18.838411331,41.91126,-23.27781,-11.53401,1.104804,-0.1887453,0.02990065,-31.79874,22.46174,10.78741
18.848299026,34.38892,-21.51253,-12.20601,1.08954,-0.1003327,0.04578783,-31.79874,22.46174,10.78741
18.858187199,26.6179,-18.21735,-11.10637,1.067408,-0.03086167,0.06416753,-31.79874,22.46174,10.78741
18.868074417,19.03338,-13.92185,-10.00672,1.024769,0.002099873,0.08078472,-31.43024,22.08651,11.25526
18.877962112,11.3867,-7.74339099999999,-9.151444,0.9893301,0.01813334,0.1061522,-31.43024,22.08651,11.25526
18.887849808,3.864348,0.3768721,-9.33471900000003,0.9655885,0.04528604,0.1276295,-31.43024,22.08651,11.25526
18.897737503,-3.533663,5.84922299999998,-12.20601,0.9545113,0.06815145,0.1246158,-31.43024,22.08651,11.25526
18.907625675,-7.63676199999999,3.848579,-16.66569,0.9590976,0.08866233,0.0639213,-31.43024,22.08651,11.25526
18.917512894,-8.56928299999999,-2.50641,-20.8199,0.9742951,0.1180343,0.04359147,-31.79737,23.21786,10.7768
18.927400589,-8.07193900000002,-9.214453,-22.71373,0.9720732,0.1535698,0.009744904,-31.79737,23.21786,10.7768
18.937288761,-10.4965,-15.15754,-22.225,0.9585581,0.1595889,-0.01290417,-31.79737,23.21786,10.7768
18.94717598,-15.40778,-20.92411,-18.80388,0.9557687,0.1657863,-0.05477879,-31.79737,23.21786,10.7768
18.957064152,-21.68677,-26.0434,-15.38277,1.020948,0.1667713,-0.1104965,-31.79737,23.21786,10.7768
18.96695137,-27.0954,-26.51414,-11.90056,1.081667,0.15242,-0.1502714,-31.42956,22.46457,11.24996
18.976839066,-32.25535,-22.10096,-9.64017600000001,1.116102,0.1455562,-0.1487548,-31.42956,22.46457,11.24996
18.986727238,-39.71553,-13.92185,-8.35725599999999,1.104874,0.120106,-0.1587383,-31.42956,22.46457,11.24996
18.996614456,-47.17571,-7.56686399999999,-8.66271300000003,1.041212,0.09882756,-0.1572604,-31.42956,22.46457,11.24996
19.006502151,-53.70337,-4.624739,-9.88454100000001,0.9761497,0.06824039,-0.192287,-31.42956,22.46457,11.24996
19.018861771,-55.44408,-7.21380900000002,-12.20601,0.9362251,0.004905988,-0.2319288,-31.06841,21.71844,12.11223
19.028749466,-51.52748,-12.09773,-13.91657,0.9332768,-0.02521632,-0.2601543,-31.06841,21.71844,12.11223
19.038637638,-45.99452,-16.45208,-14.77185,0.9515561,-0.06302606,-0.2459958,-31.06841,21.71844,12.11223
19.048524857,-40.64806,-18.92346,-14.28312,0.982466,-0.08201875,-0.2093146,-31.06841,21.71844,12.11223
19.058412552,-35.86111,-18.39388,-13.0002,1.006628,-0.08437711,-0.1683969,-31.48273,21.38528,14.2491
19.068300247,-30.76332,-16.68745,-11.47292,1.022592,-0.07461739,-0.132359,-31.48273,21.38528,14.2491
19.078187943,-26.22504,-15.33407,-10.49545,1.031345,-0.05433183,-0.1098483,-31.48273,21.38528,14.2491
19.088076115,-20.69208,-14.92217,-10.43436,1.02699,-0.05192442,-0.11227,-31.48273,21.38528,14.2491
19.097963333,-13.60491,-14.27491,-10.55655,1.009547,-0.04560992,-0.1156882,-31.48273,21.38528,14.2491
19.107851028,-6.57990299999997,-13.74532,-10.31218,1.010441,-0.04960602,-0.08969726,-30.74588,19.94052,15.12968
19.117739201,-1.482114,-12.45079,-9.45690200000001,1.012318,-0.05218634,-0.06659788,-30.74588,19.94052,15.12968
19.127626419,1.750631,-10.74436,-8.11289000000001,1.034145,-0.05064639,-0.05840518,-30.74588,19.94052,15.12968
19.137514591,3.491339,-8.09644600000001,-6.46342299999997,1.05838,-0.04550126,-0.03676217,-30.74588,19.94052,15.12968
19.147402287,4.548198,-5.272007,-5.119412,1.071444,-0.04526826,-0.01943534,-30.74588,19.94052,15.12968
19.157289505,5.356384,-0.917662500000002,-3.286671,1.096659,-0.03720336,0.002194021,-30.75255,19.94768,15.5188
19.167177677,6.47541100000003,5.437326,-1.392838,1.102008,-0.0223466,0.01943819,-30.75255,19.94768,15.5188
19.177064896,7.03492499999999,11.79231,0.562087,1.113655,-0.02135977,0.02185105,-30.75255,19.94768,15.5188
19.186953068,6.78625199999999,18.32383,2.272646,1.101986,-0.01573582,0.03816067,-30.75255,19.94768,15.5188
19.196840763,5.97806599999998,22.91354,2.822469,1.088055,0.006267239,0.009659303,-30.75255,19.94768,15.5188
19.206727982,4.983376,25.38493,3.433383,1.098785,0.02532336,0.01534626,-31.49202,19.94322,14.65855
19.216616154,4.113021,27.73863,4.044297,1.118226,0.04502897,0.03306286,-31.49202,19.94322,14.65855
19.226503849,4.361694,32.32834,3.494474,1.111025,0.07340132,0.04060604,-31.49202,19.94322,14.65855
19.238863468,7.71877499999998,38.5068,0.989726799999999,1.08059,0.08748044,0.001064762,-31.49202,19.94322,14.65855
19.248751164,11.5732,41.91967,-0.781923700000001,1.035488,0.07737763,-0.02923349,-31.49202,19.94322,14.65855
19.258638382,14.68161,42.86115,-1.698295,1.005374,0.05219289,-0.05655297,-31.85385,20.31129,13.80158
19.268526554,13.37608,42.39041,-0.2931925,0.9873361,0.04625765,-0.03249743,-31.85385,20.31129,13.80158
19.278414249,5.107712,42.50809,2.761377,0.9596546,0.03695245,-0.0396957,-31.85385,20.31129,13.80158
19.288301468,-5.83388499999998,42.0962,6.976684,0.932412,0.02196835,-0.03580359,-31.85385,20.31129,13.80158
19.29818964,-13.66707,41.74314,10.76435,0.9237184,0.02370327,-0.05121171,-31.85385,20.31129,13.80158
19.308076859,-17.27283,41.33124,13.20801,0.9122285,0.06750835,-0.05433167,-32.89967,20.30308,12.48021
19.317965031,-17.45933,39.97786,13.75783,0.9138382,0.1043552,-0.0650963,-32.89967,20.30308,12.48021
19.327852726,-16.96199,38.5068,13.51346,0.9425596,0.1405916,-0.0479336,-32.89967,20.30308,12.48021
19.337739945,-19.0757,41.09587,14.00219,0.9853615,0.1767714,-0.03267829,-32.89967,20.30308,12.48021
19.347628117,-23.05447,44.56758,14.97966,1.029054,0.173147,-0.04126687,-32.89967,20.30308,12.48021
19.357515812,-28.6496,48.03928,16.20148,1.079008,0.145434,-0.06415424,-32.89437,19.5398,12.1017
19.367403507,-36.79363,51.62868,18.46186,1.094505,0.106803,-0.1053006,-32.89437,19.5398,12.1017
19.377291203,-44.06731,53.45279,19.25605,1.080662,0.01387842,-0.133702,-32.89437,19.5398,12.1017
19.387178421,-45.74585,51.98173,19.56151,1.022766,-0.06377208,-0.1886814,-32.89437,19.5398,12.1017
19.397066593,-42.57527,46.45054,18.27859,0.9506716,-0.1451013,-0.1984517,-32.89437,19.5398,12.1017
19.406954289,-38.34784,38.68333,16.38476,0.918289,-0.214998,-0.1548524,-33.25552,20.28593,11.23943
19.416841507,-33.00137,32.38718,16.01821,0.8956637,-0.2742803,-0.1165858,-33.25552,20.28593,11.23943
19.426729679,-22.93013,25.85567,14.97966,0.9153191,-0.3026302,-0.05582417,-33.25552,20.28593,11.23943
19.436617851,-11.11818,22.61933,14.12438,0.9631515,-0.3167634,0.01499703,-33.25552,20.28593,11.23943
19.44650507,0.1342586,21.79554,13.14691,0.9995137,-0.3031412,0.05151954,-33.25552,20.28593,11.23943
19.458864689,11.51103,21.85438,12.23054,1.031998,-0.2860595,0.09090568,-32.85575,20.57159,9.946533
19.468752384,18.16303,22.38396,11.55854,1.035909,-0.2623557,0.1133936,-32.85575,20.57159,9.946533
19.47864008,21.39577,22.8547,11.31417,1.026785,-0.2186684,0.1352849,-32.85575,20.57159,9.946533
19.488528252,19.65506,22.97239,10.3978,1.026964,-0.1740203,0.1249601,-32.85575,20.57159,9.946533
19.49841547,15.42763,22.61933,10.09234,1.000432,-0.1341962,0.1141484,-32.85575,20.57159,9.946533
19.508303166,9.397315,22.03091,10.09234,0.9955319,-0.1065199,0.1731563,-33.60301,20.57548,9.540257
19.518191338,3.304835,26.38525,10.64217,0.956338,-0.08282635,0.1566407,-33.60301,20.57548,9.540257
19.528078556,-0.860432000000003,26.79715,9.29815699999998,0.9117396,-0.06119739,0.1641754,-33.60301,20.57548,9.540257
19.537966728,-3.906672,23.85502,6.85450100000001,0.9020044,-0.06747255,0.1666007,-33.60301,20.57548,9.540257
19.547853947,-5.523044,20.26563,4.471936,0.9072873,-0.08603742,0.163334,-33.60301,20.57548,9.540257
19.557741642,-6.70423899999999,16.73508,2.394829,0.9275749,-0.1113342,0.1678132,-33.57095,21.67744,7.773318
19.567629814,-8.56928299999999,15.26402,1.478458,0.9628145,-0.1504945,0.1916163,-33.57095,21.67744,7.773318
19.577517033,-10.74517,14.6756,2.517012,0.9762958,-0.1886471,0.182206,-33.57095,21.67744,7.773318
19.587404728,-13.60491,14.44023,5.327216,0.9966097,-0.2006741,0.1947938,-33.57095,21.67744,7.773318
19.5972929,-18.08101,15.32286,7.83196300000002,1.003397,-0.1906825,0.2125451,-33.57095,21.67744,7.773318
19.607180118,-22.30845,16.67624,8.44287699999998,0.9961674,-0.1775565,0.210066,-33.94791,21.68297,7.764738
19.617068291,-23.42747,15.49939,7.89305399999997,0.978789,-0.1621985,0.1926555,-33.94791,21.68297,7.764738
19.626955509,-22.49495,12.96916,6.79340899999997,0.9715533,-0.1445534,0.199291,-33.94791,21.68297,7.764738
19.636843204,-21.50026,12.08653,6.42686099999998,0.9661994,-0.1434539,0.2069741,-33.94791,21.68297,7.764738
19.646731377,-20.4434,12.43958,5.93813000000001,0.9452838,-0.1451231,0.2228291,-33.94791,21.68297,7.764738
19.656618595,-18.64053,12.79264,5.266125,0.9317158,-0.1352854,0.2275732,-32.81036,21.65923,7.401361
19.666506767,-17.89451,13.08685,4.594119,0.9205756,-0.1234687,0.2347146,-32.81036,21.65923,7.401361
19.678866386,-17.39716,10.38009,4.288662,0.9192022,-0.1110497,0.218299,-32.81036,21.65923,7.401361
19.688753605,-16.46464,7.43797000000002,3.738839,0.954573,-0.1241666,0.2251384,-32.81036,21.65923,7.401361
19.698641777,-16.40247,6.55533299999998,3.555565,0.9894698,-0.1353635,0.2300438,-33.56958,22.43356,7.762711
19.708528995,-16.09163,7.84986700000002,3.494474,1.020523,-0.1443122,0.2219487,-33.56958,22.43356,7.762711
19.718417168,-12.61021,11.67463,5.266125,1.030754,-0.1560212,0.1893169,-33.56958,22.43356,7.762711
19.728304863,-7.57459399999998,15.08749,6.54904400000003,1.012836,-0.159231,0.1676713,-33.56958,22.43356,7.762711
19.738192081,-2.974149,17.26466,7.77087200000001,0.9784294,-0.1605036,0.1431116,-33.56958,22.43356,7.762711
19.748080254,0.2585949,16.08781,7.09886600000001,0.9547375,-0.1431207,0.130012,-32.8019,22.02893,6.942087
19.757967949,2.496649,14.61675,4.960668,0.9373659,-0.123824,0.1154671,-32.8019,22.02893,6.942087
19.767855167,5.480721,12.85148,4.105388,0.9256994,-0.132151,0.1106867,-32.8019,22.02893,6.942087
19.777743339,8.09178400000001,8.90903199999997,4.899576,0.9324799,-0.1310755,0.1183837,-32.8019,22.02893,6.942087
19.787631512,9.45948300000001,6.49648999999998,7.40432299999999,0.9698356,-0.1320297,0.1246829,-32.8019,22.02893,6.942087
19.79751873,10.64068,6.49648999999998,10.58108,1.012515,-0.1323997,0.1381991,-33.17954,21.6564,6.938811
19.807406425,13.50041,7.43797000000002,12.65818,1.047964,-0.1221216,0.1463632,-33.17954,21.6564,6.938811
19.817293644,16.36015,8.67366199999998,13.63565,1.051947,-0.09539034,0.1433471,-33.17954,21.6564,6.938811
19.827181816,17.2305,8.08523799999998,13.9411,1.031723,-0.0665144,0.1176893,-33.17954,21.6564,6.938811
19.837069511,15.17895,8.20292199999998,13.39128,1.02297,-0.06241457,0.1301626,-33.17954,21.6564,6.938811
19.846957207,13.93559,7.61449700000002,12.23054,0.9808457,-0.06398104,0.08491608,-32.78676,22.39148,6.093698
19.856844902,14.99245,5.025428,10.88653,0.9396287,-0.06614216,0.06516237,-32.78676,22.39148,6.093698
19.866733074,16.17365,2.730572,8.19851100000001,0.9188274,-0.04265556,0.06982924,-32.78676,22.39148,6.093698
19.876620293,16.79533,0.02381719,5.571581,0.9290654,-0.01260517,0.094216,-32.78676,22.39148,6.093698
19.886507988,15.36546,-0.917662500000002,3.799931,0.9596769,0.01051577,0.1138517,-32.78676,22.39148,6.093698
19.898867607,11.3867,-1.153032,2.333737,1.005209,0.005042513,0.1447101,-33.1715,22.40536,6.539087
19.908755302,7.34576600000001,0.02381719,2.272646,1.044387,-0.02899919,0.1531023,-33.1715,22.40536,6.539087
19.918643475,3.80218,1.965619,3.005743,1.048083,-0.06863447,0.1735055,-33.1715,22.40536,6.539087
19.928530693,1.937135,5.496168,5.143942,1.042539,-0.1280386,0.1733185,-33.1715,22.40536,6.539087
19.938418388,1.315454,8.14407899999999,8.19851100000001,1.029282,-0.1827881,0.1577097,-33.1715,22.40536,6.539087
19.948306561,1.626294,10.08588,12.10836,0.9989935,-0.2412126,0.154604,-32.0943,23.13747,6.09882
19.958193779,4.48603,11.26273,15.65166,0.9799795,-0.2889124,0.121159,-32.0943,23.13747,6.09882
19.968081951,8.71346500000002,11.0862,17.85095,0.9508899,-0.2910544,0.1043045,-32.0943,23.13747,6.09882
19.97796917,12.13271,9.73282600000002,18.09532,0.946021,-0.2770148,0.1306787,-32.0943,23.13747,6.09882
19.987856865,14.4951,8.37945000000001,17.60658,0.9373184,-0.2627826,0.1368488,-32.0943,23.13747,6.09882
19.997745037,17.29267,7.02607300000003,14.91856,0.9456188,-0.245691,0.1411002,-32.77679,24.21161,5.678945
20.007632256,21.27143,6.673018,12.16945,0.9602793,-0.2154931,0.1433689,-32.77679,24.21161,5.678945
20.017520428,23.44732,6.96723000000003,10.03125,0.9768811,-0.1648955,0.1748728,-32.77679,24.21161,5.678945
20.027408123,22.32829,8.26176499999998,8.44287699999998,0.9958895,-0.1191506,0.2078468,-32.77679,24.21161,5.678945
20.037295342,19.40639,10.67431,7.77087200000001,1.000789,-0.09556384,0.2226418,-32.77679,24.21161,5.678945
20.047183514,17.72785,13.32222,8.38178500000001,1.00614,-0.1036101,0.2063372,-32.07193,23.8079,4.856892
20.057071209,18.03869,17.26466,11.00872,1.003755,-0.1098442,0.1799153,-32.07193,23.8079,4.856892
20.066958427,17.10617,20.20679,12.59709,0.9969168,-0.1249836,0.1761367,-32.07193,23.8079,4.856892
20.0768466,15.61413,23.79618,14.24656,0.9663239,-0.1387663,0.1622248,-32.07193,23.8079,4.856892
20.086733818,13.99776,24.85534,14.18547,0.9517696,-0.1477399,0.1463833,-32.07193,23.8079,4.856892
20.09662199,12.38139,25.14956,13.75783,0.9232232,-0.1353175,0.1265703,-32.42462,24.92374,3.535344
20.106509686,10.45417,25.38493,12.10836,0.9419672,-0.1680214,0.1565739,-32.42462,24.92374,3.535344
20.118869305,6.72408399999998,26.14988,10.33671,0.9414026,-0.1824491,0.1686692,-32.42462,24.92374,3.535344
20.128757,1.626294,26.79715,9.54252199999998,0.9573423,-0.1904496,0.1894074,-32.42462,24.92374,3.535344
20.138644218,-2.725477,27.974,8.87051700000001,0.95668,-0.2112271,0.2327945,-32.42462,24.92374,3.535344
20.148532391,-6.144726,30.21001,8.50396799999999,0.960925,-0.2323521,0.2535857,-32.03919,25.28792,3.08465
20.158420086,-6.952912,32.32834,9.78688699999998,0.9555391,-0.2474729,0.2512514,-32.03919,25.28792,3.08465
20.168307304,-4.155344,36.21194,11.00872,0.9607968,-0.2618976,0.2643151,-32.03919,25.28792,3.08465
20.178195477,0.2585949,41.50777,10.45889,0.9696137,-0.2609287,0.2325795,-32.03919,25.28792,3.08465
20.188083172,3.864348,46.56822,8.87051700000001,0.978399,-0.2453277,0.2349152,-32.03919,25.28792,3.08465
20.197970867,4.921207,50.86372,7.34323199999999,0.948315,-0.2338815,0.2473271,-31.64112,25.25972,1.861027
20.207858563,3.242667,51.09909,5.87703800000003,0.9179052,-0.2110014,0.210146,-31.64112,25.25972,1.861027
20.217746735,1.688463,53.68816,6.79340899999997,0.9298373,-0.2410989,0.250709,-31.64112,25.25972,1.861027
20.227633953,2.558817,56.15955,8.87051700000001,0.9177243,-0.2332478,0.2530602,-31.64112,25.25972,1.861027
20.237521648,4.734703,58.98399,10.64217,0.9341848,-0.2444586,0.2545783,-31.64112,25.25972,1.861027
20.247409344,6.53758000000001,62.3968499999998,11.49745,0.9414242,-0.2382413,0.2805248,-32.36545,25.61781,0.1523895
20.257297039,7.71877499999998,68.2811,13.14691,0.9369913,-0.2333467,0.3141595,-32.36545,25.61781,0.1523895
20.267185211,5.107712,73.6357699999997,14.97966,0.9112902,-0.2110525,0.33614,-32.36545,25.61781,0.1523895
20.27707243,1.626294,78.34316,17.66768,0.8589913,-0.1883285,0.3181717,-32.36545,25.61781,0.1523895
20.286960125,2.247976,82.2267700000001,16.50694,0.857533,-0.2136921,0.28271,-32.36545,25.61781,0.1523895
20.296848297,5.667225,85.2865800000002,17.05676,0.8288727,-0.201546,0.3095476,-31.57528,25.94663,-1.911044
20.306735516,5.85373000000002,84.6393099999999,18.40077,0.7964162,-0.1969071,0.2897695,-31.57528,25.94663,-1.911044
20.316623688,2.80749,80.4614899999999,17.54549,0.7856835,-0.2064955,0.2984623,-31.57528,25.94663,-1.911044
20.326511383,-2.849813,76.6367299999998,17.4844,0.742014,-0.155741,0.3650042,-31.57528,25.94663,-1.911044
20.338870525,-13.85358,77.1074800000002,18.03423,0.742025,-0.1254547,0.4038058,-31.57528,25.94663,-1.911044
20.348758698,-17.21066,78.9315899999999,18.8895,0.7507937,-0.1460769,0.361118,-31.53735,26.60036,-4.060911
20.358645916,-15.71862,76.57789,21.0277,0.7214062,-0.1518896,0.2615633,-31.53735,26.60036,-4.060911
20.368534088,-21.68677,83.0505599999999,28.72522,0.7741305,-0.2204356,0.4394295,-31.53735,26.60036,-4.060911
20.378421784,-30.57681,91.4062,30.55796,0.7561027,-0.186624,0.5161855,-31.53735,26.60036,-4.060911
20.388309002,-34.3069,100.1149,29.5805,0.7100993,-0.1961681,0.45799,-31.53735,26.60036,-4.060911
20.398197174,-25.7277,103.822,29.09177,0.6752898,-0.190001,0.4098271,-30.36312,26.53724,-6.564431
20.408084869,-15.34561,109.1766,29.33613,0.671241,-0.2541358,0.3865815,-30.36312,26.53724,-6.564431
20.417972088,-6.766407,110.9419,29.09177,0.6442175,-0.2167597,0.3748198,-30.36312,26.53724,-6.564431
20.42786026,-5.64738,106.8229,30.74123,0.6261786,-0.1714319,0.4726782,-30.36312,26.53724,-6.564431
20.437748432,-13.66707,106.7641,29.5805,0.6706992,-0.1467875,0.5634983,-30.36312,26.53724,-6.564431
20.447635651,-20.4434,113.2368,30.55796,0.6625865,-0.1232632,0.5398051,-29.24788,27.98609,-9.15545
20.457523346,-19.0757,109.0589,26.40375,0.6280907,-0.1966296,0.4487616,-29.24788,27.98609,-9.15545
20.467410565,-22.30845,106.2933,28.66413,0.6322578,-0.2217416,0.4960235,-29.24788,27.98609,-9.15545
20.477298737,-26.16287,107.7644,29.15286,0.6689383,-0.26031,0.5270391,-29.24788,27.98609,-9.15545
20.487186432,-24.23566,111.295,31.22997,0.6678843,-0.2742138,0.5415357,-29.24788,27.98609,-9.15545
20.497074127,-20.56774,113.2368,35.07872,0.665563,-0.2679096,0.5068749,-28.08741,28.31654,-10.82119
20.506961823,-17.77017,113.1779,36.23946,0.6568335,-0.2460424,0.5351289,-28.08741,28.31654,-10.82119
20.516849995,-19.0757,114.9432,36.23946,0.6423956,-0.2795573,0.6367561,-28.08741,28.31654,-10.82119
20.526737213,-17.77017,118.768,38.68312,0.6363957,-0.310286,0.665279,-28.08741,28.31654,-10.82119
20.536624909,-14.5996,120.0625,42.16533,0.6202341,-0.3745334,0.6328826,-28.08741,28.31654,-10.82119
20.546512604,-11.49119,119.8271,41.55441,0.6366482,-0.4138167,0.613382,-25.47154,30.06669,-12.92834
20.558872223,-1.357777,124.0049,43.69261,0.6085551,-0.3827813,0.633392,-25.47154,30.06669,-12.92834
20.568760395,0.5694358,125.2406,38.74421,0.623947,-0.359533,0.724667,-25.47154,30.06669,-12.92834
20.578647613,-1.917291,125.0641,37.21692,0.6094296,-0.3438572,0.7288995,-25.47154,30.06669,-12.92834
20.588535309,-1.979459,119.7683,38.31657,0.5184492,-0.2722324,0.7192966,-22.09633,31.10551,-15.39772
20.598423481,-1.046937,115.6493,35.01763,0.5063368,-0.2310439,0.7690905,-22.09633,31.10551,-15.39772
20.608310699,0.3829313,113.7663,36.17837,0.4819349,-0.2341364,0.8195751,-22.09633,31.10551,-15.39772
20.618198872,-2.663309,112.6483,35.44527,0.4642344,-0.2719809,0.8591817,-22.09633,31.10551,-15.39772
20.628086567,-5.087867,113.0602,35.99509,0.4451135,-0.3075605,0.8872331,-22.09633,31.10551,-15.39772
20.637973785,-4.093176,111.8834,33.8569,0.4221544,-0.3205242,0.9291127,-19.48182,32.09954,-17.49426
20.647861957,-6.02038900000001,106.9406,32.57397,0.3982924,-0.3722323,0.8875067,-19.48182,32.09954,-17.49426
20.657749176,-6.144726,98.5261400000002,30.19141,0.4268968,-0.3954703,0.8679389,-19.48182,32.09954,-17.49426
20.667637348,-1.917291,95.9370700000002,26.95357,0.4554024,-0.4290327,0.874393,-19.48182,32.09954,-17.49426
20.677525043,2.185808,94.99559,25.48738,0.4486365,-0.422238,0.8719463,-19.48182,32.09954,-17.49426
20.687412262,6.102402,91.9946200000003,22.61608,0.4118327,-0.4027951,0.8645924,-16.48357,33.14389,-19.97222
20.697300434,9.33514699999999,89.9939699999999,20.90552,0.3758009,-0.3980231,0.9183905,-16.48357,33.14389,-19.97222
20.707188129,9.08647399999999,88.5817599999999,20.47788,0.3480962,-0.3932478,0.9409381,-16.48357,33.14389,-19.97222
20.717075348,8.27828799999998,86.8164800000002,16.38476,0.3102919,-0.3532126,0.9753191,-16.48357,33.14389,-19.97222
20.72696352,4.548198,81.1087600000002,17.85095,0.2478416,-0.3322242,0.9376302,-16.48357,33.14389,-19.97222
20.736851692,6.84842,77.2251599999998,16.8124,0.2783221,-0.3565456,0.9435589,-13.87741,33.83123,-21.61037
20.746738911,11.20019,72.8708100000001,9.725797,0.3258794,-0.3620536,0.9397934,-13.87741,33.83123,-21.61037
20.756626606,9.27297899999999,73.7534499999999,14.61311,0.2286941,-0.405953,0.9221106,-13.87741,33.83123,-21.61037
20.766513824,8.775634,67.9280499999998,14.00219,0.2352536,-0.437321,0.9746971,-13.87741,33.83123,-21.61037
20.77887392,10.019,62.7499,13.51346,0.2237406,-0.4366642,0.9193747,-13.87741,33.83123,-21.61037
20.788762093,12.69223,59.2781999999998,13.02473,0.2392025,-0.433764,0.9525612,-11.59941,34.15942,-22.47213
20.798649311,12.25705,57.3364000000002,14.61311,0.2331129,-0.3978202,0.9129371,-11.59941,34.15942,-22.47213
20.808537006,12.50572,56.80682,15.65166,0.2244895,-0.366173,0.9113246,-11.59941,34.15942,-22.47213
20.818425178,12.13271,57.04219,14.55202,0.2041967,-0.3373597,0.9140414,-11.59941,34.15942,-22.47213
20.828312397,3.864348,54.74733,16.01821,0.1596423,-0.305061,0.9186368,-11.59941,34.15942,-22.47213
20.838200092,-1.730786,53.62932,16.87349,0.1620463,-0.2999446,0.935446,-8.993929,34.4687,-24.10498
20.848087788,-5.64738,51.51099,18.03423,0.1411377,-0.3036479,0.9455402,-8.993929,34.4687,-24.10498
20.857975483,-9.50180599999998,50.39299,18.64514,0.1532596,-0.3065792,0.9465306,-8.993929,34.4687,-24.10498
20.867863655,-9.75047899999999,47.74507,20.3557,0.1331418,-0.3778211,0.9343638,-8.993929,34.4687,-24.10498
20.877750874,-7.26375199999999,44.038,19.92806,0.1242543,-0.3957613,0.9709944,-8.993929,34.4687,-24.10498
20.887638569,-6.20689400000001,40.15439,19.80588,0.08267393,-0.4100589,1.084036,-7.542929,34.06229,-24.4559
20.897526741,-7.82326600000002,32.97561,17.24004,0.04937506,-0.4569091,1.138098,-7.542929,34.06229,-24.4559
20.907413959,-4.65269,26.91483,14.73529,0.0297391,-0.5067313,1.158045,-7.542929,34.06229,-24.4559
20.917302132,-4.901362,16.67624,11.37526,0.03373684,-0.4995017,1.120982,-7.542929,34.06229,-24.4559
20.927189827,2.931826,7.084915,6.304678,0.06550656,-0.4472111,1.104884,-7.542929,34.06229,-24.4559
20.937077045,1.812799,2.789414,4.227571,-0.01800979,-0.4179833,1.159466,-5.656877,34.72777,-24.42273
20.946965218,-18.32969,1.024139,2.333737,0.05461005,-0.4533551,0.9856339,-5.656877,34.72777,-24.42273
20.956852913,-16.71331,3.613209,1.295184,0.1243908,-0.3534084,0.7745647,-5.656877,34.72777,-24.42273
20.966740608,-2.849813,12.85148,-2.736848,0.2079421,-0.305227,0.8162563,-5.656877,34.72777,-24.42273
20.976628304,-3.720167,20.67753,-5.241595,0.17364,-0.4026283,0.8114194,-5.656877,34.72777,-24.42273
20.986516476,-6.26906200000001,24.20808,-5.424869,0.1021937,-0.4780186,0.7429474,-6.032725,34.7321,-24.49616
20.998875618,5.605057,25.2084,-3.469945,0.01902023,-0.4757588,0.8178651,-6.032725,34.7321,-24.49616
21.008763313,17.97652,26.79715,-1.94266,-0.02544412,-0.4101895,0.8328727,-6.032725,34.7321,-24.49616
21.018651009,21.1471,25.26724,-1.026289,-0.03446678,-0.3487297,0.8383229,-6.032725,34.7321,-24.49616
21.028538704,17.97652,23.85502,0.3788128,-0.03876453,-0.3153282,0.8569052,-6.032725,34.7321,-24.49616
21.038426876,12.25705,23.44312,1.600641,-0.01011053,-0.2901118,0.8861465,-5.639266,35.84524,-25.34658
21.048314095,7.96744700000002,22.14859,1.906098,-0.007112877,-0.2732398,0.8750035,-5.639266,35.84524,-25.34658
21.05820179,4.175189,20.61869,1.906098,0.03456211,-0.2853377,0.8856922,-5.639266,35.84524,-25.34658
21.068089962,2.745321,17.61772,0.806452599999999,0.06290177,-0.3422356,0.9273712,-5.639266,35.84524,-25.34658
21.07797718,1.43979,14.02833,0.1344473,0.09759064,-0.3834701,0.9752302,-5.639266,35.84524,-25.34658
21.087865353,2.496649,13.55759,-0.659740900000002,0.1149301,-0.425454,0.9706529,-4.18895,35.06078,-25.6922
21.097752571,6.288907,14.20485,-1.881569,0.1081234,-0.4407948,0.9534095,-4.18895,35.06078,-25.6922
21.107640266,8.96213800000002,14.20485,-2.003752,0.06940783,-0.4275079,0.924924,-4.18895,35.06078,-25.6922
21.117528439,10.45417,9.497457,-3.775402,0.05160815,-0.4060848,0.8896883,-4.18895,35.06078,-25.6922
21.127415657,10.51634,7.61449700000002,-3.958676,0.05067264,-0.3868977,0.9025751,-4.18895,35.06078,-25.6922
21.137303352,11.07586,8.90903199999997,-3.653219,0.04392083,-0.3757133,0.9005872,-3.811306,35.43332,-25.68892
21.147191525,12.13271,10.14472,-2.981214,0.02756441,-0.3606809,0.861538,-3.811306,35.43332,-25.68892
21.157078743,13.56258,9.61514200000002,-2.187026,0.02998384,-0.3591458,0.8668232,-3.811306,35.43332,-25.68892
21.166966915,13.62475,9.32093,-0.904106400000002,0.03679986,-0.3498353,0.8715931,-3.811306,35.43332,-25.68892
21.17685461,11.88404,7.20260000000002,0.25663,0.03240812,-0.3491815,0.882165,-3.811306,35.43332,-25.68892
21.186741829,10.26767,6.79070299999997,1.661732,0.05568098,-0.3450874,0.8985221,-3.798223,34.66168,-26.5214
21.196630001,8.27828799999998,7.61449700000002,2.700286,0.04598589,-0.342161,0.8975345,-3.798223,34.66168,-26.5214
21.206517696,7.22142900000002,7.37912799999999,3.372291,0.03238935,-0.3495606,0.8893808,-3.798223,34.66168,-26.5214
21.218877316,7.03492499999999,6.49648999999998,4.288662,0.01438831,-0.349259,0.9071529,-3.798223,34.66168,-26.5214
21.228765011,6.66191600000002,5.143113,4.410845,0.004230025,-0.3459741,0.8975063,-3.421263,34.65616,-26.51282
21.238652229,7.40793400000002,5.319641,4.65521,-0.004022861,-0.3350004,0.9137927,-3.421263,34.65616,-26.51282
21.248540402,6.84842,4.201633,4.777393,-0.005541089,-0.3331124,0.9421559,-3.421263,34.65616,-26.51282
21.258428097,5.232048,3.083626,4.533028,0.004673862,-0.3287932,0.9392601,-3.421263,34.65616,-26.51282
21.268315792,4.672534,2.965941,5.08285,0.01973135,-0.3293889,0.9339901,-3.421263,34.65616,-26.51282
21.278203487,5.542889,3.789736,5.08285,0.01925427,-0.339393,0.9162461,-3.029994,33.94081,-27.40246
21.28809166,5.480721,3.024784,5.388307,-0.001108004,-0.3449752,0.898457,-3.029994,33.94081,-27.40246
21.297978878,6.35107500000001,2.377517,5.266125,-0.01707164,-0.3358282,0.8892551,-3.029994,33.94081,-27.40246
21.307866573,5.045544,1.553722,5.021759,-0.02825555,-0.3252279,0.9127539,-3.029994,33.94081,-27.40246
21.317754746,4.113021,0.0826596800000002,5.021759,-0.04370046,-0.308828,0.9001496,-3.029994,33.94081,-27.40246
21.327641964,4.48603,-0.6234501,5.021759,-0.03544774,-0.2974072,0.9159717,-2.645682,34.30619,-27.7883
21.337530136,2.620985,-0.03502529,5.205033,-0.02383576,-0.2957033,0.9337703,-2.645682,34.30619,-27.7883
21.347417355,1.937135,0.612241999999999,5.632673,-0.01170361,-0.2967083,0.9333082,-2.645682,34.30619,-27.7883
21.35730505,1.937135,1.671407,5.021759,-0.004426353,-0.2976967,0.9333215,-2.645682,34.30619,-27.7883
21.367193222,2.310144,1.906777,4.65521,-0.006890546,-0.3054183,0.937686,-2.645682,34.30619,-27.7883
21.377080441,1.191117,1.906777,3.922114,0.001846415,-0.3114083,0.9290697,-2.659562,34.63675,-26.94963
21.386968613,0.3207631,0.847612000000001,2.761377,-0.004452607,-0.3129574,0.9223375,-2.659562,34.63675,-26.94963
21.396856308,-1.357777,-0.1527103,1.783915,-0.0117349,-0.3144254,0.9208938,-2.659562,34.63675,-26.94963
21.406743527,-2.2903,-1.270717,1.234092,-0.01848033,-0.3067647,0.9112291,-2.659562,34.63675,-26.94963
21.416631699,-2.228132,-1.09419,0.6842698,-0.01552796,-0.2975688,0.9078195,-2.659562,34.63675,-26.94963
21.426519394,-2.165963,-0.682292600000002,0.01226447,-0.008688491,-0.2918899,0.8976992,-1.898973,34.61854,-27.32159
21.438879013,-2.414636,-0.0938677799999998,-0.3542839,-0.007196188,-0.2841592,0.8938145,-1.898973,34.61854,-27.32159
21.448766708,-2.911981,0.612241999999999,-1.331746,-0.006287766,-0.2927248,0.9073246,-1.898973,34.61854,-27.32159
21.458654881,-3.906672,1.789092,-1.698295,-0.001093621,-0.3147105,0.9358159,-1.898973,34.61854,-27.32159
21.468542099,-4.466185,2.730572,-2.003752,-0.001613254,-0.3289245,0.9296352,-1.898973,34.61854,-27.32159
21.478429794,-3.595831,2.789414,-3.042305,0.000302322,-0.3367267,0.9291959,-2.645682,34.30619,-27.7883
21.488317013,-2.60114,2.200989,-3.592128,-0.00649909,-0.3401579,0.9268008,-2.645682,34.30619,-27.7883
21.498205185,-2.165963,1.318352,-3.897585,0.003247206,-0.3424125,0.9075865,-2.645682,34.30619,-27.7883
21.508093357,-1.855123,0.729926999999997,-4.264133,-9.421352e-05,-0.3382821,0.8902487,-2.645682,34.30619,-27.7883
21.517980576,-2.165963,0.671084500000001,-4.325224,0.00961337,-0.3402923,0.8873844,-2.645682,34.30619,-27.7883
21.527868271,-2.974149,0.906454499999998,-4.14195,0.01108375,-0.3408828,0.8806561,-2.276502,34.30902,-27.32575
21.537756443,-4.279681,0.4945571,-3.592128,0.01444852,-0.3456583,0.887417,-2.276502,34.30902,-27.32575
21.547643661,-4.404017,-0.799977499999998,-3.286671,0.01931637,-0.3412782,0.8878813,-2.276502,34.30902,-27.32575
21.557531357,-2.228132,1.024139,-3.164488,0.02708076,-0.3437714,0.8850172,-2.276502,34.30902,-27.32575
21.567419529,-0.05224587,1.200667,-2.675757,0.01389333,-0.3516856,0.9076455,-2.276502,34.30902,-27.32575
21.577306747,-0.05224587,1.141824,-2.614666,0.03565305,-0.3616598,0.9274384,-2.268152,34.61572,-27.78414
21.587194919,-1.482114,1.200667,-2.064843,0.06082666,-0.3642789,0.9510453,-2.268152,34.61572,-27.78414
21.597082615,-2.60114,1.965619,-2.003752,0.06330503,-0.355154,0.9428264,-2.268152,34.61572,-27.78414
21.606969833,-2.352468,2.259832,-1.94266,0.03038142,-0.3546111,0.9096027,-2.268152,34.61572,-27.78414
21.616858005,-1.544282,1.082982,-2.309208,-0.008381227,-0.3455054,0.894604,-2.268152,34.61572,-27.78414
21.626745701,-1.171273,-1.09419,-2.248117,-0.01516091,-0.3520596,0.878759,-2.652893,34.62959,-27.33875
21.636633396,-1.295609,-2.447567,-1.94266,-0.0005447498,-0.3419847,0.8705491,-2.652893,34.62959,-27.33875
21.646521091,-1.109105,-2.153355,-1.759386,0.01504444,-0.3319261,0.8613785,-2.652893,34.62959,-27.33875
21.658880234,-0.487423,-1.447245,-1.148472,0.01691402,-0.3255041,0.9003028,-2.652893,34.62959,-27.33875
21.668768406,-0.5495912,-1.506087,-0.781923700000001,0.007701472,-0.3230583,0.899799,-2.652893,34.62959,-27.33875
21.678656101,-0.05224587,-1.859142,-0.4764667,0.004756751,-0.3223499,0.9142197,-2.652893,34.62959,-27.33875
21.688543796,-1.046937,-2.624094,-0.4153753,0.005705773,-0.3192287,0.9276708,-2.652893,34.62959,-27.33875
21.698431492,-2.165963,-3.035992,-0.2931925,0.02317615,-0.3272055,0.9176316,-2.652893,34.62959,-27.33875
21.708319664,-2.849813,-2.977149,-0.659740900000002,0.02996331,-0.3406038,0.9018367,-2.652893,34.62959,-27.33875
21.718206882,-2.60114,-3.212519,-0.659740900000002,0.02605441,-0.3493899,0.899953,-2.652893,34.62959,-27.33875
21.728094578,-2.974149,-3.094834,-0.4764667,0.02659008,-0.338263,0.8950881,-2.274567,35.38018,-27.34077
21.73798275,-3.657999,-3.212519,-0.2321011,0.01447081,-0.3308701,0.8993652,-2.274567,35.38018,-27.34077
21.747869968,-5.087867,-3.683259,-0.2321011,-0.009839306,-0.3380257,0.9061067,-2.274567,35.38018,-27.34077
21.757758141,-4.279681,-4.624739,-0.4153753,-0.02967869,-0.3418552,0.8753245,-2.274567,35.38018,-27.34077
21.767645836,-1.979459,-4.918952,-0.4764667,-0.03315508,-0.3527966,0.8922081,-2.274567,35.38018,-27.34077
21.777533054,-0.673927500000001,-4.977794,-0.4764667,-0.03118723,-0.3405261,0.8988813,-2.65221,35.00765,-27.34405
21.787421226,-0.2387504,-5.330849,-0.2931925,-0.0166024,-0.3471728,0.8796946,-2.65221,35.00765,-27.34405
21.797308445,-0.2387504,-7.27265099999999,-0.904106400000002,-0.01852887,-0.3368137,0.8882966,-2.65221,35.00765,-27.34405
21.807196617,-0.4252549,-8.03760300000001,-0.4153753,0.0008910487,-0.3294184,0.8969379,-2.65221,35.00765,-27.34405
21.817084312,-0.05224587,-7.09612300000002,0.25663,-0.002455413,-0.3277443,0.8781697,-2.65221,35.00765,-27.34405
21.826971531,-0.05224587,-7.86107600000001,1.11191,-0.002549816,-0.3301338,0.9137698,-2.283171,34.31618,-26.93663
21.836859703,-1.233441,-7.56686399999999,1.539549,0.01383553,-0.3418655,0.9455886,-2.283171,34.31618,-26.93663
21.846747398,-1.60645,-8.567186,1.600641,-0.002764748,-0.3541555,0.9682351,-2.283171,34.31618,-26.93663
21.856634617,-1.792954,-9.33213800000002,1.234092,0.0203753,-0.3611656,1.023603,-2.283171,34.31618,-26.93663
21.866522789,-2.165963,-9.97940500000002,-0.2931925,0.0219002,-0.3407024,1.024463,-2.283171,34.31618,-26.93663
21.878882885,-2.414636,-11.33278,-2.003752,-0.04104683,-0.3544752,0.9417425,-2.665977,35.40122,-26.50627
21.888770103,-2.663309,-13.98069,-3.653219,-0.1008122,-0.3778386,0.9345788,-2.665977,35.40122,-26.50627
21.898657799,-7.88543400000003,-19.21768,-4.875047,-0.1232835,-0.3947996,0.9697461,-2.665977,35.40122,-26.50627
21.908545971,-12.23721,-25.80803,-7.50197599999999,-0.07096147,-0.3917924,1.014997,-2.665977,35.40122,-26.50627
21.918433189,-14.66176,-26.0434,-9.21253599999998,0.01716916,-0.3901567,1.103579,-2.665977,35.40122,-26.50627
21.928321362,-13.66707,-27.57331,-11.16746,-0.0005555009,-0.3826435,1.017435,-3.050972,34.65779,-26.11512
21.93820858,-10.74517,-27.86752,-9.64017600000001,-0.01692794,-0.4003538,0.9381543,-3.050972,34.65779,-26.11512
21.948096275,-8.693621,-31.22154,-9.21253599999998,-0.03430521,-0.385003,0.9202629,-3.050972,34.65779,-26.11512
21.957984447,-9.31530200000001,-33.22218,-11.71728,-0.01599362,-0.3827084,0.9784636,-3.050972,34.65779,-26.11512
21.967871666,-13.60491,-35.51704,-16.11586,-0.03333364,-0.3750574,0.9341605,-3.050972,34.65779,-26.11512
21.977759361,-16.58898,-38.04727,-18.07079,-0.0701839,-0.3284492,0.9848607,-3.798223,34.66168,-26.5214
21.987647533,-14.47526,-41.10708,-17.58206,-0.07403498,-0.3122213,0.9948736,-3.798223,34.66168,-26.5214
21.997534752,-10.74517,-45.46142,-18.62061,-0.03624333,-0.3491911,0.9700957,-3.798223,34.66168,-26.5214
22.007422924,-9.75047899999999,-48.63892,-18.13188,-0.0003595958,-0.3336201,1.006608,-3.798223,34.66168,-26.5214
22.017310619,-15.15911,-51.69873,-20.08681,0.00465223,-0.3286565,0.9483969,-3.798223,34.66168,-26.5214
22.027197838,-16.21597,-53.52284,-20.69772,0.02925208,-0.361072,0.9659018,-4.948856,35.45705,-25.32554
22.03708601,-15.40778,-53.81705,-19.29262,0.04990506,-0.3900906,1.014645,-4.948856,35.45705,-25.32554
22.046973705,-15.28345,-54.75853,-19.10934,0.04371947,-0.3445835,1.028355,-4.948856,35.45705,-25.32554
22.056861401,-14.7861,-55.28812,-19.35371,0.05198349,-0.3128311,1.068601,-4.948856,35.45705,-25.32554
22.066749096,-18.32969,-57.9948699999998,-20.27008,0.0338857,-0.365165,1.051051,-4.948856,35.45705,-25.32554
22.076637268,-19.01353,-62.8199499999999,-21.43081,0.06001519,-0.4353701,0.9841064,-6.785279,35.49928,-24.52393
22.086524487,-16.77548,-66.5858799999999,-22.77483,0.1153502,-0.4325075,0.9875212,-6.785279,35.49928,-24.52393
22.098884106,-14.66176,-71.7051699999999,-23.93556,0.1934331,-0.4835221,0.9407375,-6.785279,35.49928,-24.52393
22.108772278,-11.61552,-75.2945599999999,-25.21848,0.2574161,-0.4811113,0.9802336,-6.785279,35.49928,-24.52393
22.118659496,-8.00976999999999,-74.9415100000002,-25.95158,0.2804218,-0.4306217,0.9727908,-9.768827,35.19672,-22.83481
22.128547668,-8.32061100000001,-76.5891000000001,-28.21196,0.2576988,-0.4221856,0.9477144,-9.768827,35.19672,-22.83481
22.138434887,-10.80734,-80.5315399999998,-30.41125,0.2631422,-0.3905087,0.9499652,-9.768827,35.19672,-22.83481
22.148322582,-14.41309,-82.7675600000001,-32.8549,0.2903455,-0.3912004,0.9399003,-9.768827,35.19672,-22.83481
22.158210754,-15.78079,-85.5331500000001,-34.44328,0.2948037,-0.3887907,0.9062287,-9.768827,35.19672,-22.83481
22.168097973,-15.22128,-89.7109700000001,-35.60402,0.3330123,-0.4387652,0.8911352,-12.37624,33.81628,-21.18693
22.177986145,-10.74517,-91.0643500000001,-35.84838,0.3456819,-0.4475644,0.8580105,-12.37624,33.81628,-21.18693
22.18787384,-5.958221,-94.0653199999999,-36.09275,0.3782139,-0.4616372,0.8331107,-12.37624,33.81628,-21.18693
22.197761059,-0.736095699999999,-96.1836400000001,-36.52039,0.415659,-0.4616628,0.8038172,-12.37624,33.81628,-21.18693
22.207649231,2.869658,-98.3608200000001,-37.49785,0.4515834,-0.4548086,0.8110373,-12.37624,33.81628,-21.18693
22.217536926,3.988685,-100.0672,-38.23095,0.4876111,-0.4386542,0.7888742,-14.61784,34.27312,-18.71303
22.227424622,6.78625199999999,-102.1267,-38.5975,0.4955489,-0.4163656,0.749816,-14.61784,34.27312,-18.71303
22.237312317,10.76501,-103.9509,-38.41422,0.5077286,-0.4087135,0.7420964,-14.61784,34.27312,-18.71303
22.247200489,12.07055,-105.01,-37.19239,0.5359238,-0.3946117,0.7444619,-14.61784,34.27312,-18.71303
22.257087708,11.07586,-106.6576,-36.3982,0.5471479,-0.3805842,0.7395945,-14.61784,34.27312,-18.71303
22.266975403,10.2055,-108.4817,-35.11529,0.5521062,-0.3578655,0.7289051,-17.60343,32.83638,-17.008
22.276863575,9.21081099999998,-110.0116,-33.95455,0.5735244,-0.3468518,0.7192554,-17.60343,32.83638,-17.008
22.286750794,9.27297899999999,-110.4235,-33.09927,0.5876881,-0.3359891,0.698537,-17.60343,32.83638,-17.008
22.296638489,11.07586,-111.4238,-33.83237,0.5964695,-0.3412641,0.6726039,-17.60343,32.83638,-17.008
22.306526661,13.06524,-112.5419,-34.93201,0.6013368,-0.3577816,0.6433567,-17.60343,32.83638,-17.008
22.318885803,16.60882,-114.366,-35.66511,0.6057297,-0.3728733,0.6116971,-20.96351,32.16011,-15.387
22.328773975,22.01745,-113.9541,-37.31458,0.6222991,-0.3758153,0.5799901,-20.96351,32.16011,-15.387
22.338661194,26.68006,-114.1894,-37.68113,0.6398001,-0.3635827,0.5862002,-20.96351,32.16011,-15.387
22.348549366,26.36922,-116.7785,-37.80331,0.6661637,-0.3322563,0.5677969,-20.96351,32.16011,-15.387
22.358437061,25.56104,-117.72,-37.43676,0.6987348,-0.3236849,0.5591339,-20.96351,32.16011,-15.387
22.36832428,25.4367,-119.4853,-36.82585,0.7179139,-0.2596107,0.5477708,-23.57734,31.54413,-13.29577
22.378212452,23.8825,-119.7795,-38.5975,0.7625893,-0.2533615,0.5482709,-23.57734,31.54413,-13.29577
22.388100147,21.27143,-119.1911,-37.68113,0.7816585,-0.236365,0.5150232,-23.57734,31.54413,-13.29577
22.397987366,21.39577,-117.1904,-34.80983,0.7426466,-0.1884412,0.457988,-23.57734,31.54413,-13.29577
22.407875538,22.32829,-121.1917,-39.08623,0.8137026,-0.2588803,0.4791043,-23.57734,31.54413,-13.29577
22.41776371,20.83626,-120.3679,-38.71968,0.8292642,-0.257107,0.4694947,-25.87808,29.72518,-11.24544
22.427650929,19.40639,-119.3676,-40.43024,0.8343456,-0.2197388,0.4289142,-25.87808,29.72518,-11.24544
22.437538624,22.5148,-119.1911,-42.56844,0.8340426,-0.2288523,0.3404704,-25.87808,29.72518,-11.24544
22.447426796,27.48825,-120.6033,-42.62953,0.8120989,-0.1595724,0.2809421,-25.87808,29.72518,-11.24544
22.457314015,27.48825,-121.839,-43.05717,0.8449951,-0.1569563,0.3300202,-25.87808,29.72518,-11.24544
22.46720171,19.71723,-122.0155,-43.66808,0.8663365,-0.1275423,0.3784689,-28.12409,28.35592,-8.681044
22.477089882,15.36546,-121.8978,-45.86737,0.8724726,-0.06333641,0.3416014,-28.12409,28.35592,-8.681044
22.4869771,13.68692,-120.6033,-47.21138,0.8722655,0.005072343,0.3244232,-28.12409,28.35592,-8.681044
22.496865273,7.843111,-110.4235,-44.70663,0.8638015,-0.01894737,0.3779172,-28.12409,28.35592,-8.681044
22.506752968,4.983376,-115.1898,-50.26595,0.8273106,0.004490634,0.2469468,-28.12409,28.35592,-8.681044
22.516640186,-1.046937,-115.484,-51.12123,0.8499467,-0.01086138,0.2980277,-30.38287,27.31603,-5.342835
22.526528359,-7.32592100000003,-112.0123,-52.52633,0.8010179,0.0005842114,0.275311,-30.38287,27.31603,-5.342835
22.536416054,-10.74517,-110.247,-52.28197,0.7456651,-0.02008184,0.253711,-30.38287,27.31603,-5.342835
22.548775673,-16.65115,-111.4238,-53.19834,0.7762077,-0.02986682,0.254757,-30.38287,27.31603,-5.342835
22.558663368,-21.87327,-105.9515,-50.44923,0.7738619,-0.003502168,0.2589494,-30.38287,27.31603,-5.342835
22.568550587,-26.78456,-101.3618,-48.06666,0.7573005,-0.01902309,0.2609327,-31.56818,25.56021,-2.35971
22.578438759,-33.25005,-99.65535,-47.15029,0.76829,-0.07119161,0.2583233,-31.56818,25.56021,-2.35971
22.588326454,-40.46155,-96.7132300000003,-44.40118,0.7574865,-0.088792,0.2848506,-31.56818,25.56021,-2.35971
22.598214149,-42.01575,-91.2997099999999,-39.88042,0.7631053,-0.1721023,0.2506517,-31.56818,25.56021,-2.35971
22.608101845,-38.41,-86.0627399999997,-36.52039,0.7640285,-0.1583669,0.2900189,-31.56818,25.56021,-2.35971
22.617990017,-36.17195,-79.3546900000001,-34.07673,0.7833923,-0.1725124,0.2910742,-32.77473,23.76406,1.856503
22.627877235,-32.87704,-73.3527600000002,-32.30508,0.8181591,-0.2187191,0.2995229,-32.77473,23.76406,1.856503
22.637764931,-25.78987,-68.05694,-28.76178,0.8801132,-0.2709883,0.2969719,-32.77473,23.76406,1.856503
22.647653103,-20.50557,-58.8186600000001,-25.03521,0.9058444,-0.2909845,0.2658424,-32.77473,23.76406,1.856503
22.657540321,-13.66707,-51.34567,-22.40828,0.9619198,-0.3269767,0.30889,-32.77473,23.76406,1.856503
22.667428493,-9.37747000000002,-44.873,-20.75881,0.9696939,-0.3484414,0.2748619,-33.5111,22.74957,4.38506
22.677316189,-5.77171700000003,-42.75467,-21.91955,1.004271,-0.3512267,0.2234568,-33.5111,22.74957,4.38506
22.687203407,0.3207631,-39.87138,-20.08681,1.011654,-0.342435,0.1936036,-33.5111,22.74957,4.38506
22.697091579,4.734703,-35.8701,-18.0097,1.005377,-0.3471071,0.1734214,-33.5111,22.74957,4.38506
22.706979275,10.57851,-32.33955,-16.84896,1.010313,-0.3337052,0.1584507,-33.5111,22.74957,4.38506
22.716866493,18.28736,-28.92669,-11.96165,1.009913,-0.3367287,0.11903,-34.28862,22.02836,5.675565
22.726754665,25.37453,-25.33729,-6.46342299999997,1.008995,-0.322634,0.1170341,-34.28862,22.02836,5.675565
22.736642837,30.22365,-20.15915,-0.904106400000002,1.016334,-0.2896706,0.140441,-34.28862,22.02836,5.675565
22.746530056,30.53449,-11.98005,3.3112,1.024144,-0.2531413,0.1744107,-34.28862,22.02836,5.675565
22.756417751,25.37453,-1.32956,6.121404,1.044528,-0.2208252,0.2214008,-34.28862,22.02836,5.675565
22.768777847,14.93028,9.79166900000002,9.053791,1.035865,-0.2073389,0.2102616,-34.31042,21.67298,6.913072
22.778665066,10.95152,15.67592,10.45889,1.00001,-0.2111512,0.1784993,-34.31042,21.67298,6.913072
22.788553238,13.37608,19.32415,9.66470500000002,0.9632747,-0.1821851,0.1566697,-34.31042,21.67298,6.913072
22.798440933,19.46856,20.97174,7.58759699999999,0.945506,-0.1320948,0.1496635,-34.31042,21.67298,6.913072
22.808328152,26.24489,19.97142,5.08285,0.923815,-0.09866802,0.1350423,-34.31042,21.67298,6.913072
22.818216324,31.96436,16.38203,2.517012,0.9263419,-0.06248054,0.1454426,-34.29529,22.03552,6.064681
22.828104019,35.0106,14.2637,1.600641,0.9743412,-0.04432623,0.1934975,-34.29529,22.03552,6.064681
22.837991714,34.51325,17.55888,3.005743,1.011204,-0.002438419,0.2640232,-34.29529,22.03552,6.064681
22.84787941,31.21834,27.85631,4.471936,1.060211,0.02643398,0.312506,-34.29529,22.03552,6.064681
22.857767582,24.31767,39.91902,6.54904400000003,1.051999,0.03266553,0.3047704,-34.29529,22.03552,6.064681
22.8676548,12.31922,47.62739,9.84797900000002,1.009235,-0.01320495,0.2602279,-33.90388,22.01449,5.230175
22.877542496,-1.046937,52.80553,13.2691,0.9600672,-0.07788128,0.2273153,-33.90388,22.01449,5.230175
22.887429714,-10.683,58.5720900000003,15.89603,0.9439352,-0.1433111,0.1809783,-33.90388,22.01449,5.230175
22.897317886,-15.65645,64.2209699999998,18.46186,0.9176673,-0.1752417,0.1589874,-33.90388,22.01449,5.230175
22.907206058,-19.26221,66.5158199999997,18.64514,0.874918,-0.1838864,0.1613871,-33.90388,22.01449,5.230175
22.917093277,-20.81641,64.1621199999998,16.14039,0.8550347,-0.1655424,0.1805086,-33.86788,21.59705,3.095336
22.926980972,-17.45933,62.1614799999997,12.84146,0.8644046,-0.1236975,0.179346,-33.86788,21.59705,3.095336
22.936869144,-9.56397399999999,64.1032900000002,8.25960299999999,0.8858759,-0.07967722,0.1950183,-33.86788,21.59705,3.095336
22.946756363,1.315454,70.10522,4.410845,0.9202068,-0.08588655,0.2402953,-33.86788,21.59705,3.095336
22.956644058,10.82718,74.3418700000002,4.288662,0.9182025,-0.1133531,0.226966,-33.86788,21.59705,3.095336
22.96653223,13.99776,72.1058600000001,5.81594700000002,0.8648446,-0.140828,0.173662,-33.47442,22.71019,2.244917
22.976419449,15.17895,69.8109999999999,7.46541499999997,0.8255441,-0.1119824,0.2085788,-33.47442,22.71019,2.244917
22.988779545,7.53226999999998,75.6952500000001,7.221049,0.849252,-8.380041e-05,0.3999278,-33.47442,22.71019,2.244917
22.99866724,-14.28875,81.3441300000003,10.03125,0.8498059,0.0825874,0.4899238,-33.47442,22.71019,2.244917
23.008554459,-30.76332,82.3444499999997,12.59709,0.841756,0.08133078,0.404798,-33.4315,23.0429,-0.2247932
23.018442631,-27.15756,83.1682499999998,13.69674,0.8314178,0.05830393,0.2312901,-33.4315,23.0429,-0.2247932
23.028330803,-18.8892,84.28625,14.85747,0.8391775,0.007570025,0.1613408,-33.4315,23.0429,-0.2247932
23.038218021,-16.46464,85.1688899999998,17.97313,0.8574545,-0.0456515,0.1544167,-33.4315,23.0429,-0.2247932
23.048105717,-20.38124,86.3457400000001,21.33316,0.8634207,-0.135555,0.1678627,-33.4315,23.0429,-0.2247932
23.057993889,-18.70269,87.69912,23.10481,0.8514286,-0.2463278,0.1510956,-33.39357,23.69663,-2.37466
23.067881107,-12.54805,88.8171200000002,22.31062,0.8281523,-0.3244684,0.230816,-33.39357,23.69663,-2.37466
23.077768803,-13.29406,90.7589300000002,21.21098,0.8280082,-0.3622949,0.4368412,-33.39357,23.69663,-2.37466
23.087656975,-17.89451,94.4071700000003,24.14336,0.796087,-0.4096471,0.5226482,-33.39357,23.69663,-2.37466
23.097544193,-21.93544,94.1717899999999,27.86994,0.7487403,-0.3542138,0.510772,-33.39357,23.69663,-2.37466
23.107432365,-16.46464,94.7013800000001,29.70268,0.7112768,-0.2740321,0.4617513,-33.35621,24.03531,-4.520107
23.117320061,-4.65269,93.2891500000001,30.43578,0.6917102,-0.2462431,0.3634807,-33.35621,24.03531,-4.520107
23.127207279,12.00838,89.1113399999998,35.934,0.7276778,-0.2386668,0.3538649,-33.35621,24.03531,-4.520107
23.137095451,19.84157,87.7579700000001,43.32606,0.7400875,-0.1812115,0.3223288,-33.35621,24.03531,-4.520107
23.146983147,16.23581,87.7579700000001,44.67007,0.7244304,-0.1833761,0.370895,-33.35621,24.03531,-4.520107
23.156870842,8.52696000000002,89.5232400000001,40.57695,0.7216651,-0.2081059,0.4753767,-32.24413,24.35117,-7.030361
23.166758537,0.818108400000001,88.9936499999999,36.05619,0.7540427,-0.2187155,0.5192308,-32.24413,24.35117,-7.030361
23.176646709,-4.839194,94.1717899999999,37.88893,0.815835,-0.1078144,0.6163677,-32.24413,24.35117,-7.030361
23.186533928,-7.20158399999998,104.8811,36.72819,0.8214133,-0.005828008,0.6634699,-32.24413,24.35117,-7.030361
23.198893547,-11.92636,104.9988,37.88893,0.7635215,0.048785,0.5953182,-32.24413,24.35117,-7.030361
23.208781242,-20.13256,100.1737,41.49332,0.7293043,0.002601468,0.6286962,-29.92987,25.01924,-9.972718
23.218668938,-30.32814,103.6454,44.54789,0.7272398,-0.06429549,0.5838253,-29.92987,25.01924,-9.972718
23.22855711,-34.24474,103.9985,44.97553,0.662219,-0.1264952,0.4864388,-29.92987,25.01924,-9.972718
23.238444328,-31.75801,101.0564,45.64753,0.6677797,-0.1696272,0.5337933,-29.92987,25.01924,-9.972718
23.248332024,-30.45248,104.8223,46.31954,0.6581401,-0.2331575,0.6153791,-29.92987,25.01924,-9.972718
23.258220196,-27.71708,106.8818,43.44825,0.6589793,-0.2646743,0.6246768,-28.43889,26.40075,-12.48942
23.268107414,-30.26597,105.3519,38.68312,0.6525913,-0.2810886,0.633409,-28.43889,26.40075,-12.48942
23.277995586,-34.1204,102.8805,33.8569,0.6723946,-0.268571,0.6915597,-28.43889,26.40075,-12.48942
23.287883282,-34.36907,103.9985,30.13032,0.5887565,-0.273408,0.7477568,-28.43889,26.40075,-12.48942
23.2977705,-24.42216,99.2322499999998,26.28156,0.5558363,-0.2390479,0.7614924,-28.43889,26.40075,-12.48942
23.307658672,-14.53743,99.1145599999999,24.571,0.562811,-0.1740097,0.7804086,-26.20516,28.98271,-14.22752
23.317546368,-8.00976999999999,100.7622,21.69971,0.5667309,-0.1533499,0.7947363,-26.20516,28.98271,-14.22752
23.327434063,-11.67769,100.4679,17.60658,0.5527127,-0.1581649,0.7639657,-26.20516,28.98271,-14.22752
23.337321758,-18.95137,94.99559,15.04075,0.5744818,-0.2129855,0.7156944,-26.20516,28.98271,-14.22752
23.347209931,-23.67615,89.2290300000002,12.71927,0.6089966,-0.3093528,0.7566181,-26.20516,28.98271,-14.22752
23.357097149,-23.24097,86.6988,12.16945,0.6065999,-0.4363558,0.7630282,-23.9059,29.98253,-16.26636
23.366984844,-20.81641,82.9328799999997,13.75783,0.5721921,-0.5574738,0.7679294,-23.9059,29.98253,-16.26636
23.376873016,-16.1538,78.6962199999999,17.66768,0.5185823,-0.6122206,0.7796872,-23.9059,29.98253,-16.26636
23.386760235,-8.258443,75.7541000000002,20.41679,0.4616991,-0.6040491,0.8300779,-23.9059,29.98253,-16.26636
23.39664793,-3.657999,73.8711399999998,23.1659,0.3663834,-0.5007764,0.852051,-23.9059,29.98253,-16.26636
23.406536102,-1.295609,70.87017,25.12083,0.3362997,-0.3555482,0.8551303,-22.07546,30.32553,-16.68416
23.418895245,-5.336539,69.2225800000002,25.60956,0.3462765,-0.250277,0.8945261,-22.07546,30.32553,-16.68416
23.428783417,-11.30468,67.4573100000002,24.38773,0.391918,-0.2410145,0.9012641,-22.07546,30.32553,-16.68416
23.438671112,-19.38654,65.9862399999998,23.22699,0.4122126,-0.2877533,0.8721871,-22.07546,30.32553,-16.68416
23.448558807,-24.67084,62.1026399999999,21.45534,0.4202025,-0.3523034,0.8879119,-22.07546,30.32553,-16.68416
23.458446503,-22.61929,58.8074599999997,20.11133,0.4244309,-0.4046743,0.8708682,-19.8378,31.38809,-18.79017
23.468334675,-14.66176,57.39524,18.82841,0.4194689,-0.4378202,0.8681445,-19.8378,31.38809,-18.79017
23.478221893,-6.57990299999997,58.3367200000002,19.43933,0.3730927,-0.4967627,0.8933975,-19.8378,31.38809,-18.79017
23.488109589,-4.777026,57.10103,18.9506,0.3152206,-0.4914606,0.9471681,-19.8378,31.38809,-18.79017
23.497997761,-3.844504,52.98206,19.50042,0.2789653,-0.4535075,0.9402022,-19.8378,31.38809,-18.79017
23.507884979,-0.736095699999999,48.39234,20.23351,0.2751367,-0.4458812,0.9286172,-18.31426,32.04359,-19.60866
23.517773152,-2.2903,44.038,20.47788,0.297068,-0.4121525,0.9400138,-18.31426,32.04359,-19.60866
23.527660847,-6.51773500000002,40.33092,19.56151,0.3088154,-0.3560667,0.9796602,-18.31426,32.04359,-19.60866
23.537548065,-12.54805,34.6232,17.78986,0.3097813,-0.348076,0.9930868,-18.31426,32.04359,-19.60866
23.547436237,-17.58367,28.73895,15.16293,0.2849535,-0.3759269,0.9835808,-18.31426,32.04359,-19.60866
23.557323933,-20.4434,22.73701,13.20801,0.3134224,-0.4177171,0.9934428,-16.87634,32.40882,-19.1271
23.567211151,-17.64584,21.03058,10.88653,0.3175836,-0.4870808,0.9798512,-16.87634,32.40882,-19.1271
23.577099323,-14.35092,19.38299,9.84797900000002,0.3024105,-0.519096,0.9862478,-16.87634,32.40882,-19.1271
23.586987495,-8.88012499999997,15.20518,8.13742,0.2581473,-0.5179177,1.026589,-16.87634,32.40882,-19.1271
23.596874714,-2.911981,9.96819699999999,5.266125,0.2562171,-0.5130085,1.028967,-16.87634,32.40882,-19.1271
23.606762409,1.315454,4.731216,2.88356,0.2912309,-0.4841391,1.042807,-14.60612,32.74537,-19.5349
23.616650581,2.80749,0.2003446,-0.1099183,0.3185432,-0.4427232,1.047919,-14.60612,32.74537,-19.5349
23.6265378,0.631603899999999,-6.21348599999998,-2.309208,0.3389144,-0.4486428,1.045567,-14.60612,32.74537,-19.5349
23.636425495,-1.109105,-11.56815,-4.019767,0.3443144,-0.4465494,1.023441,-14.60612,32.74537,-19.5349
23.648785591,-2.787645,-17.21703,-6.64669700000003,0.3369542,-0.4684261,1.024986,-14.6139,32.75372,-19.08093
23.65867281,-5.64738,-23.16012,-9.27362699999999,0.3306119,-0.4687064,1.037965,-14.6139,32.75372,-19.08093
23.668560982,-7.13941599999997,-28.69131,-12.51147,0.3572964,-0.476651,1.031302,-14.6139,32.75372,-19.08093
23.678448677,-7.13941599999997,-32.75145,-15.26058,0.3727925,-0.492379,1.023705,-14.6139,32.75372,-19.08093
23.688335895,-6.89074399999999,-36.39968,-17.82642,0.3655912,-0.4809224,1.007287,-14.6139,32.75372,-19.08093
23.698224068,-3.222822,-40.69518,-20.57553,0.3530933,-0.4826625,0.9543805,-14.61322,33.13178,-19.08623
23.70811224,1.812799,-43.87267,-21.91955,0.352097,-0.5014091,0.9381228,-14.61322,33.13178,-19.08623
23.717999458,6.91058800000001,-46.69711,-22.40828,0.369032,-0.5120547,0.9449288,-14.61322,33.13178,-19.08623
23.727887154,10.88935,-51.1103,-22.46937,0.40456,-0.440074,1.008568,-14.61322,33.13178,-19.08623
23.737775326,11.07586,-53.34631,-24.79084,0.4329901,-0.3861526,0.970816,-14.61322,33.13178,-19.08623
23.747662544,10.88935,-58.3479300000003,-26.99013,0.4496273,-0.3561815,0.9581795,-16.50605,32.41045,-18.72941
23.75755024,7.40793400000002,-62.1726899999998,-27.9065,0.4619308,-0.3393585,0.9124209,-16.50605,32.41045,-18.72941
23.767438412,2.745321,-65.64439,-28.51742,0.4522859,-0.3407304,0.8845235,-16.50605,32.41045,-18.72941
23.77732563,-1.668618,-67.4096700000002,-28.51742,0.4764895,-0.365248,0.8764992,-16.50605,32.41045,-18.72941
23.787213802,-5.398708,-66.7035600000001,-29.18942,0.4794277,-0.3768634,0.8491488,-16.50605,32.41045,-18.72941
