Time (s),Gyroscope X (deg/s),Gyroscope Y (deg/s),Gyroscope Z (deg/s),Accelerometer X (g),Accelerometer Y (g),Accelerometer Z (g),Magnetometer X (uT),Magnetometer Y (uT),Magnetometer Z (uT)
23.014153481,3.677844,15.67592,2.88356,0.3197441,0.07254437,0.8875745,-12.82858,-27.90015,-18.7713
23.024039745,5.605057,10.14472,1.11191,0.2612742,0.1118205,0.835851,-12.82858,-27.90015,-18.7713
23.033925533,2.620985,4.083949,-0.904106400000002,0.2361226,0.1556042,0.8620518,-12.82191,-27.90731,-19.16041
23.046282768,-4.963531,1.200667,-3.103397,0.2531126,0.1869099,0.9061576,-12.82191,-27.90731,-19.16041
23.056168556,-6.57990299999997,0.3180296,-4.99723,0.2699668,0.1563713,0.9178731,-12.82191,-27.90731,-19.16041
23.066054821,-2.787645,0.965297,-6.58560600000002,0.2839383,0.1286379,0.9213957,-12.82191,-27.90731,-19.16041
23.075940609,-1.792954,-2.27104,-8.418347,0.2596493,0.1014435,0.8907265,-12.82191,-27.90731,-19.16041
23.085826397,-6.51773500000002,-6.91959600000003,-8.72380399999998,0.2609619,0.05208639,0.8794354,-12.51377,-27.5267,-18.76945
23.095712662,-8.50711499999998,-8.39065799999998,-6.95215400000001,0.2710271,0.02500579,0.8935304,-12.51377,-27.5267,-18.76945
23.10559845,-5.150035,-7.39033600000002,-5.974692,0.2559326,0.007920464,0.8887903,-12.51377,-27.5267,-18.76945
23.115484238,-2.103795,-7.91991900000001,-5.119412,0.2543742,-0.01481933,0.8985219,-12.51377,-27.5267,-18.76945
23.125370503,0.693772100000003,-9.68519299999999,-4.508498,0.2674934,-0.02588168,0.8769513,-12.51377,-27.5267,-18.76945
23.13525629,2.683153,-7.97876099999998,-5.363778,0.3159653,-0.01809806,0.9154407,-12.1315,-28.2955,-19.13938
23.145141602,-1.482114,-6.68422599999997,-5.119412,0.355116,-0.01066601,0.9943187,-12.1315,-28.2955,-19.13938
23.15502739,-10.06132,-3.271362,-1.331746,0.3720326,-0.01422838,1.018883,-12.1315,-28.2955,-19.13938
23.164913654,-8.81795700000002,-1.388402,0.4399042,0.3527654,-0.01114305,0.9620968,-12.1315,-28.2955,-19.13938
23.174799442,-2.787645,-0.0938677799999998,1.478458,0.3246632,-0.0148844,0.936114,-12.1315,-28.2955,-19.13938
23.18468523,-0.736095699999999,-0.5057651,2.517012,0.3078176,0.01112068,0.914322,-11.75386,-27.92297,-19.1361
23.194571495,-2.911981,3.966264,2.639194,0.3364669,0.04333411,0.9555509,-11.75386,-27.92297,-19.1361
23.204457283,-6.02038900000001,13.73412,2.578103,0.3612075,0.07322837,1.004001,-11.75386,-27.92297,-19.1361
23.214343071,-6.952912,20.38332,-0.04882693,0.3463309,0.1144832,0.9927144,-11.75386,-27.92297,-19.1361
23.224229336,-9.19096599999999,20.44216,-3.225579,0.3385302,0.09580755,0.980296,-11.75386,-27.92297,-19.1361
23.234115124,-12.92105,21.20711,-3.653219,0.3349354,0.05077992,0.9973517,-12.12372,-28.30386,-19.59335
23.244000912,-15.84296,22.8547,-1.453929,0.3180336,0.03782716,0.9430538,-12.12372,-28.30386,-19.59335
23.256358624,-11.42902,19.85373,1.050818,0.2803229,0.03447479,0.8766609,-12.12372,-28.30386,-19.59335
23.266244412,-3.347158,23.09007,0.01226447,0.2923427,0.04263959,0.9357865,-12.12372,-28.30386,-19.59335
23.276130199,0.3829313,28.97432,-2.309208,0.2922575,0.03820162,0.9646641,-12.12372,-28.30386,-19.59335
23.286016464,-2.2903,29.38622,-4.264133,0.2714837,0.01573126,0.892135,-11.74078,-28.6946,-19.96858
23.295902252,-5.336539,28.26821,-4.508498,0.2461838,-0.01668098,0.8706285,-11.74078,-28.6946,-19.96858
23.30578804,-7.45025699999999,24.38461,-3.225579,0.2431079,-0.06142399,0.8742176,-11.74078,-28.6946,-19.96858
23.315674305,-12.54805,20.501,-2.309208,0.2498603,-0.07310977,0.8752462,-11.74078,-28.6946,-19.96858
23.325560093,-15.40778,20.32447,-1.392838,0.2804058,-0.06897976,0.8949777,-11.74078,-28.6946,-19.96858
23.335445881,-14.28875,22.61933,-0.2931925,0.3182152,-0.03589486,0.9631444,-11.72428,-27.57594,-20.82758
23.345332146,-15.78079,30.03348,-1.820477,0.38339,-0.08008781,1.045198,-11.72428,-27.57594,-20.82758
23.355217934,-20.2569,38.15375,-0.1710097,0.4393108,-0.1056486,1.167064,-11.72428,-27.57594,-20.82758
23.365103722,-24.73301,47.9216,3.494474,0.4960369,-0.09441513,1.209393,-11.72428,-27.57594,-20.82758
23.374989987,-23.80048,59.1016700000002,4.349754,0.4890157,-0.03881179,1.181692,-11.72428,-27.57594,-20.82758
23.384875774,-18.57836,70.87017,0.4399042,0.436786,-0.02896624,1.116658,-10.21045,-27.98326,-21.17707
23.394761562,-17.77017,74.4007200000002,-0.3542839,0.3444168,-0.1064767,1.066448,-10.21045,-27.98326,-21.17707
23.404647827,-15.34561,73.45924,1.783915,0.2330925,-0.1340254,1.098201,-10.21045,-27.98326,-21.17707
23.414533615,-10.18566,72.0470200000003,3.250108,0.1929714,-0.1195624,1.050471,-10.21045,-27.98326,-21.17707
23.424419403,4.48603,68.10458,4.838485,0.1141037,-0.1309285,0.9311709,-10.21045,-27.98326,-21.17707
23.434305668,22.76347,62.1614799999997,5.571581,0.04434713,-0.1266832,0.8800924,-9.867848,-27.63964,-22.79655
23.444191456,35.25927,55.51228,7.09886600000001,0.02792707,-0.11523,0.8622218,-9.867848,-27.63964,-22.79655
23.454076767,40.73007,52.27594,9.84797900000002,0.0435886,-0.08970421,0.8452784,-9.867848,-27.63964,-22.79655
23.463962555,41.53825,48.86308,10.94762,0.05007514,-0.06097452,0.8133998,-9.867848,-27.63964,-22.79655
23.476320744,34.38892,39.86018,11.00872,0.00448729,-0.002479693,0.6807991,-6.50777,-26.96336,-24.41754
23.486206532,29.47763,27.44441,8.07632800000003,-0.0475027,0.05760559,0.5885804,-6.50777,-26.96336,-24.41754
23.496092796,25.93405,16.08781,4.105388,-0.08213113,0.1128896,0.5358413,-6.50777,-26.96336,-24.41754
23.505978584,20.83626,9.14440199999997,0.3177214,-0.09510896,0.1529171,0.5404335,-6.50777,-26.96336,-24.41754
23.515863896,13.12741,2.789414,-3.469945,-0.1081633,0.2003947,0.5873089,-6.50777,-26.96336,-24.41754
23.525749684,5.107712,-3.506732,-4.56959,-0.07714951,0.2240396,0.6420498,-6.139956,-27.71665,-23.94438
23.535635948,-2.787645,-9.037926,-4.875047,-0.0423674,0.2036144,0.6811471,-6.139956,-27.71665,-23.94438
23.545521736,-7.82326600000002,-16.45208,-3.775402,-0.03141277,0.1377323,0.6733168,-6.139956,-27.71665,-23.94438
23.555407524,-8.44494700000003,-23.74855,-1.331746,-0.04820235,0.06592686,0.68905,-6.139956,-27.71665,-23.94438
23.565293789,-5.087867,-30.98617,0.867544000000001,-0.04461936,-0.002351971,0.7153689,-6.139956,-27.71665,-23.94438
23.575179577,1.43979,-36.34084,2.88356,-0.003716855,-0.07633226,0.7561867,-5.400056,-28.09144,-23.14368
23.585065365,7.097093,-39.87138,5.51049,0.02705891,-0.1372743,0.7882704,-5.400056,-28.09144,-23.14368
23.59495163,13.50041,-43.16656,7.95414600000001,0.001256886,-0.1641062,0.7816437,-5.400056,-28.09144,-23.14368
23.604837418,21.45794,-46.63827,9.35924799999999,-0.04780731,-0.1741993,0.7840436,-5.400056,-28.09144,-23.14368
23.614723205,29.5398,-53.464,9.17597399999999,-0.09814883,-0.1167456,0.8091848,-5.400056,-28.09144,-23.14368
23.62460947,36.93781,-61.8196299999999,7.34323199999999,-0.119834,-0.03508537,0.8611678,-6.545386,-28.05935,-22.32634
23.634495258,42.2221,-69.2926300000001,3.494474,-0.08099696,0.02948582,0.950818,-6.545386,-28.05935,-22.32634
23.644381046,45.57919,-73.2350800000001,-0.4153753,0.02187339,0.09216961,1.053054,-6.545386,-28.05935,-22.32634
23.654267311,47.19556,-68.8807299999998,-2.79794,0.1906862,0.147692,1.173677,-6.545386,-28.05935,-22.32634
23.664153099,45.45485,-54.87622,-3.592128,0.3429909,0.1759112,1.257388,-6.545386,-28.05935,-22.32634
23.674038887,36.44046,-39.7537,-2.79794,0.4682297,0.2158976,1.31023,-7.649008,-28.00551,-20.27536
23.683925152,22.5148,-26.16109,0.867544000000001,0.502476,0.1873318,1.358505,-7.649008,-28.00551,-20.27536
23.696282387,10.45417,-20.98295,7.64868900000003,0.3955713,0.05494831,1.219104,-7.649008,-28.00551,-20.27536
23.706168175,13.68692,-22.39517,13.51346,0.2509452,0.05853772,1.016454,-7.649008,-28.00551,-20.27536
23.716054439,14.61944,-22.86591,15.95712,0.1439513,0.1544746,0.8393493,-7.649008,-28.00551,-20.27536
23.725940227,9.27297899999999,-23.92507,15.22402,0.07843927,0.2430166,0.7594755,-8.4182,-29.0513,-19.49925
23.735826015,12.25705,-24.39581,9.053791,0.06985991,0.2679164,0.7300037,-8.4182,-29.0513,-19.49925
23.74571228,24.13117,-23.21896,1.173001,0.1128207,0.2429578,0.7926984,-8.4182,-29.0513,-19.49925
23.755598068,34.82409,-19.09999,-4.14195,0.1794282,0.203389,0.891082,-8.4182,-29.0513,-19.49925
23.765483856,31.40484,-10.68552,-3.408854,0.2579218,0.1016684,1.003259,-8.4182,-29.0513,-19.49925
23.775370121,14.24643,-5.330849,6.85450100000001,0.2410868,0.04159495,1.054521,-9.20102,-29.00922,-17.83024
23.785255909,9.397315,-12.68616,10.51998,0.2464743,0.04177649,1.034808,-9.20102,-29.00922,-17.83024
23.795141697,1.874967,-20.68874,6.61013499999998,0.2944416,0.01186271,1.027319,-9.20102,-29.00922,-17.83024
23.805027962,-12.11287,-22.1598,5.693764,0.314346,-0.05936341,0.923823,-9.20102,-29.00922,-17.83024
23.81491375,-15.03477,-26.51414,5.75485600000001,0.3062853,-0.05905849,0.8454222,-9.20102,-29.00922,-17.83024
23.824799538,-11.61552,-32.33955,6.304678,0.3054625,-0.006744706,0.8591036,-10.26976,-29.37163,-17.84925
23.834685802,-8.63145299999999,-29.57395,6.121404,0.3719323,0.02563844,0.9167261,-10.26976,-29.37163,-17.84925
23.84457159,-3.782336,-15.33407,5.327216,0.4035451,0.05652702,0.934881,-10.26976,-29.37163,-17.84925
23.854457378,3.491339,-0.1527103,5.51049,0.361913,0.09671893,0.9466535,-10.26976,-29.37163,-17.84925
23.864343643,5.045544,10.43894,8.68724300000001,0.2646985,0.1325461,0.854506,-10.26976,-29.37163,-17.84925
23.874228954,7.71877499999998,8.73250499999998,8.38178500000001,0.1346539,0.212614,0.7529601,-11.39995,-28.97699,-17.88029
23.884114742,8.46479200000001,-11.627,4.960668,0.04423197,0.2788002,0.7053926,-11.39995,-28.97699,-17.88029
23.89400053,4.175189,-33.5164,-0.904106400000002,0.1083794,0.228996,0.8028633,-11.39995,-28.97699,-17.88029
23.903886795,6.22673899999999,-39.51833,-1.881569,0.2829426,0.1432287,0.9525807,-11.39995,-28.97699,-17.88029
23.916244507,7.656606,-31.22154,2.944651,0.4452329,0.08764207,1.0021,-11.39995,-28.97699,-17.88029
23.926130772,5.16988,-27.39678,5.693764,0.4442274,0.07193944,0.9940026,-11.79025,-28.95714,-17.11064
23.93601656,-0.860432000000003,-25.57266,7.221049,0.4319062,0.0393041,1.024452,-11.79025,-28.95714,-17.11064
23.945901871,-2.849813,-22.51285,8.25960299999999,0.4125198,0.03617627,1.008094,-11.79025,-28.95714,-17.11064
23.955787659,1.688463,-18.09967,7.83196300000002,0.4013962,0.01056577,0.9548285,-11.79025,-28.95714,-17.11064
23.965673923,8.83780200000001,-14.33375,5.205033,0.3548882,-0.00482794,0.896181,-11.79025,-28.95714,-17.11064
23.975559711,15.73847,-12.86269,4.044297,0.3328331,0.02932705,0.8325018,-12.55862,-28.93058,-16.28471
23.985445499,18.22519,-12.39195,0.4399042,0.3369359,0.0771963,0.8101422,-12.55862,-28.93058,-16.28471
23.995331764,13.74909,-12.98037,-0.3542839,0.3483251,0.1424323,0.8103064,-12.55862,-28.93058,-16.28471
24.005217552,4.423862,-12.50963,-0.781923700000001,0.3604876,0.1715913,0.840471,-12.55862,-28.93058,-16.28471
24.01510334,-5.89605299999999,-9.74403599999999,-1.148472,0.3639423,0.1846602,0.8355997,-12.55862,-28.93058,-16.28471
24.024989605,-8.693621,-6.27232800000001,0.3788128,0.3662758,0.1842497,0.8735971,-12.56472,-28.60837,-15.90002
24.034875393,-3.347158,-2.329882,1.906098,0.3763101,0.1767713,0.9284713,-12.56472,-28.60837,-15.90002
24.044761181,5.356384,-0.3880802,3.127926,0.3737281,0.1548655,0.9612817,-12.56472,-28.60837,-15.90002
24.054647446,13.68692,-1.388402,3.616657,0.36683,0.1306467,0.969091,-12.56472,-28.60837,-15.90002
24.064533234,17.66568,-2.918307,3.555565,0.3478191,0.1073107,0.9691873,-12.56472,-28.60837,-15.90002
24.074419022,15.8628,-4.389369,3.3112,0.3361236,0.08523407,0.9567816,-13.64181,-29.27747,-15.46063
24.084305286,9.21081099999998,-5.448534,4.471936,0.323087,0.07487378,0.9135362,-13.64181,-29.27747,-15.46063
24.094191074,3.056162,-6.15464400000001,4.594119,0.3279589,0.06330483,0.8895541,-13.64181,-29.27747,-15.46063
24.104076862,-1.109105,-4.801267,3.922114,0.3309451,0.06382709,0.8597378,-13.64181,-29.27747,-15.46063
24.113963127,-2.911981,-2.74178,3.250108,0.3285693,0.06749014,0.8438462,-13.64181,-29.27747,-15.46063
24.126320362,-2.2903,0.2591871,1.661732,0.3485031,0.08913538,0.8610727,-13.64112,-28.89941,-15.46594
24.13620615,-0.922600200000001,3.260154,0.928635399999997,0.3781238,0.1158682,0.8941548,-13.64112,-28.89941,-15.46594
24.146092415,0.2585949,5.319641,0.1955387,0.3756571,0.1191111,0.9152962,-13.64112,-28.89941,-15.46594
24.155978203,1.564126,5.613853,0.01226447,0.3687968,0.1225209,0.9470119,-13.64112,-28.89941,-15.46594
24.165863991,0.7559403,5.90806599999998,1.050818,0.3541585,0.1100976,0.9610047,-13.64112,-28.89941,-15.46594
24.175750256,-0.05224587,5.613853,3.127926,0.3371179,0.09503582,0.9610615,-14.00974,-28.58718,-15.93291
24.185636044,0.0720904500000002,6.20227800000001,4.960668,0.3279856,0.1158849,0.9537319,-14.00974,-28.58718,-15.93291
24.195521832,-0.673927500000001,7.43797000000002,5.143942,0.3223155,0.146272,0.9333733,-14.00974,-28.58718,-15.93291
24.205408096,-1.792954,8.85018899999998,4.65521,0.3297132,0.1669159,0.9145214,-14.00974,-28.58718,-15.93291
24.215293884,-1.792954,10.43894,4.16648,0.3302373,0.1666704,0.8981719,-14.00974,-28.58718,-15.93291
24.225179672,-1.295609,10.96852,3.983205,0.3234144,0.1583985,0.8977251,-14.02475,-28.88672,-15.0854
24.235065937,-0.673927500000001,11.43926,3.616657,0.3078261,0.1398749,0.8944345,-14.02475,-28.88672,-15.0854
24.244951725,-0.4252549,10.49778,2.944651,0.2956583,0.132645,0.8978237,-14.02475,-28.88672,-15.0854
24.254837513,-0.611759299999997,9.67398500000002,2.150463,0.2830394,0.1436129,0.9131433,-14.02475,-28.88672,-15.0854
24.264723778,-1.917291,9.73282600000002,0.806452599999999,0.2815852,0.1525606,0.9251195,-14.02475,-28.88672,-15.0854
24.274609566,-5.212203,9.203244,-0.3542839,0.2753325,0.1636578,0.9173616,-13.64056,-28.58436,-15.47036
24.284495354,-7.38808899999998,7.61449700000002,-1.51502,0.2642471,0.1721428,0.8971074,-13.64056,-28.58436,-15.47036
24.294381619,-7.88543400000003,5.260798,-2.187026,0.2603378,0.1578852,0.8875566,-13.64056,-28.58436,-15.47036
24.304267407,-6.82857599999998,2.848256,-2.981214,0.2618026,0.1533488,0.8774818,-13.64056,-28.58436,-15.47036
24.314153195,-6.20689400000001,0.965297,-3.225579,0.2802051,0.1426283,0.8794806,-13.64056,-28.58436,-15.47036
24.324039459,-4.279681,-2.565252,1.356275,0.1809485,0.225872,0.8967412,-13.25638,-28.91329,-15.91132
24.333925247,-6.57990299999997,-0.85882,-1.698295,0.2671143,0.1390802,0.8684224,-13.25638,-28.91329,-15.91132
24.346282482,-5.958221,-1.270717,-2.125934,0.2897221,0.08608731,0.8773726,-13.25638,-28.91329,-15.91132
24.356168747,-5.83388499999998,-1.623772,-3.042305,0.2954624,0.06719995,0.8851692,-13.25638,-28.91329,-15.91132
24.366054535,-5.585212,-1.623772,-3.042305,0.303185,0.05501812,0.8857206,-13.63278,-28.59271,-15.92432
24.375940323,-4.839194,-1.682615,-3.408854,0.3103814,0.03612787,0.8935189,-13.63278,-28.59271,-15.92432
24.385826588,-4.217513,-1.8003,-3.531036,0.3113308,0.03028979,0.8940305,-13.63278,-28.59271,-15.92432
24.395712376,-3.28499,-2.094512,-3.408854,0.3239342,0.02688499,0.8959856,-13.63278,-28.59271,-15.92432
24.405598164,-2.60114,-1.682615,-3.164488,0.3321794,0.02441956,0.8950456,-13.63278,-28.59271,-15.92432
24.415484429,-2.352468,-1.211875,-2.675757,0.3428763,0.02975488,0.8950309,-12.87942,-28.91881,-15.90275
24.425370216,-2.165963,0.02381719,-2.003752,0.3390236,0.041514,0.8992953,-12.87942,-28.91881,-15.90275
24.435256004,-1.482114,1.200667,-1.148472,0.332278,0.05315662,0.8953814,-12.87942,-28.91881,-15.90275
24.445142269,-0.673927500000001,1.671407,0.01226447,0.3342601,0.06583498,0.8967624,-12.87942,-28.91881,-15.90275
24.455028057,0.00992228700000002,2.142147,0.6842698,0.3444722,0.07166539,0.8972254,-12.87942,-28.91881,-15.90275
24.464913845,0.5072676,3.024784,1.11191,0.3367632,0.08475639,0.8923413,-12.87942,-28.91881,-15.90275
24.47480011,0.818108400000001,4.025106,1.661732,0.3343441,0.08869271,0.8947233,-13.25707,-29.29135,-15.90602
24.484685421,1.191117,4.378161,2.150463,0.3231803,0.09369211,0.9018991,-13.25707,-29.29135,-15.90602
24.494571209,1.626294,4.495846,2.394829,0.3134808,0.09565189,0.9013973,-13.25707,-29.29135,-15.90602
24.504456997,1.937135,4.319319,2.639194,0.3110623,0.1000824,0.9042577,-13.25707,-29.29135,-15.90602
24.514343262,1.937135,3.907421,2.88356,0.3008784,0.1010404,0.9018366,-13.25707,-29.29135,-15.90602
24.52422905,1.43979,3.318996,3.066834,0.2853916,0.1107381,0.8969609,-13.62611,-28.59987,-16.31344
24.534114838,1.937135,2.436359,3.250108,0.2795317,0.09753737,0.8926925,-13.62611,-28.59987,-16.31344
24.544001103,2.620985,1.671407,3.372291,0.2829667,0.1032661,0.8854538,-13.62611,-28.59987,-16.31344
24.55388689,3.367003,0.788769499999999,3.3112,0.2805324,0.1018245,0.8864201,-13.62611,-28.59987,-16.31344
24.566245079,3.180499,0.4357146,3.005743,0.2805602,0.1051324,0.8796705,-13.24248,-28.61256,-16.69398
24.576130867,2.80749,-0.2703952,2.88356,0.2766631,0.1007504,0.8792073,-13.24248,-28.61256,-16.69398
24.586016655,2.434481,-1.388402,2.578103,0.2776543,0.1055964,0.8777412,-13.24248,-28.61256,-16.69398
24.595901966,2.434481,-2.565252,2.45592,0.273769,0.1066139,0.8801362,-13.24248,-28.61256,-16.69398
24.605788231,1.874967,-3.330204,2.700286,0.2785865,0.09986614,0.8854659,-13.24248,-28.61256,-16.69398
24.615674019,1.937135,-4.153999,3.3112,0.2727326,0.09409183,0.8893358,-14.00238,-28.21629,-16.32732
24.625559807,2.247976,-4.683581,3.555565,0.2755871,0.08350269,0.8980492,-14.00238,-28.21629,-16.32732
24.635446072,2.993994,-4.330527,3.799931,0.2828096,0.06942438,0.9019758,-14.00238,-28.21629,-16.32732
24.64533186,3.491339,-4.565897,4.349754,0.2871858,0.07434275,0.9058034,-14.00238,-28.21629,-16.32732
24.655217647,3.864348,-4.683581,4.349754,0.2939845,0.07331227,0.9029308,-14.00238,-28.21629,-16.32732
24.665103912,4.237358,-4.624739,4.288662,0.3071223,0.0830325,0.9033775,-13.63403,-29.28582,-15.9146
24.6749897,3.491339,-3.977472,4.471936,0.3299585,0.09677297,0.9134333,-13.63403,-29.28582,-15.9146
24.684875488,2.434481,-3.330204,4.899576,0.3430823,0.1001125,0.9105459,-13.63403,-29.28582,-15.9146
24.694761753,2.310144,-3.212519,5.388307,0.3358039,0.09911709,0.908138,-13.63403,-29.28582,-15.9146
24.704647541,3.491339,-2.918307,5.99922100000002,0.3251545,0.1054253,0.9052085,-13.63403,-29.28582,-15.9146
24.714533329,4.237358,-1.917985,6.304678,0.3232495,0.1176388,0.9075493,-14.01809,-28.89388,-15.47451
24.724419594,4.423862,-1.211875,7.037775,0.3091526,0.1028712,0.8951039,-14.01809,-28.89388,-15.47451
24.734305382,1.688463,-1.211875,6.976684,0.315536,0.1153324,0.8825442,-14.01809,-28.89388,-15.47451
24.74419117,2.80749,-1.32956,6.85450100000001,0.3188261,0.09609951,0.8994774,-14.01809,-28.89388,-15.47451
24.754077434,1.937135,0.4357146,5.93813000000001,0.340647,0.1121133,0.9311621,-14.01809,-28.89388,-15.47451
24.763963222,-0.922600200000001,1.494879,4.899576,0.3548705,0.1415088,0.9122738,-14.39504,-28.88836,-15.4831
24.776320457,-2.352468,1.318352,4.288662,0.3486183,0.1540956,0.906432,-14.39504,-28.88836,-15.4831
24.786206245,-0.922600200000001,0.0826596800000002,3.738839,0.352422,0.1426457,0.9228455,-14.39504,-28.88836,-15.4831
24.79609251,0.2585949,-3.742102,7.09886600000001,0.3417153,0.1418511,0.9334177,-14.39504,-28.88836,-15.4831
24.805978298,1.315454,-0.5646076,3.738839,0.3508123,0.1028124,0.929297,-14.39504,-28.88836,-15.4831
24.815864563,1.377622,-0.2115527,3.189017,0.346891,0.07569281,0.9063454,-14.76366,-28.57613,-15.95006
24.825750351,0.2585949,0.965297,3.494474,0.324769,0.185412,0.9783848,-14.76366,-28.57613,-15.95006
24.835636139,-2.352468,2.024462,4.65521,0.3312488,0.03262766,0.8901939,-14.76366,-28.57613,-15.95006
24.845522404,-2.352468,2.848256,5.327216,0.2919177,0.02086041,0.8796284,-14.76366,-28.57613,-15.95006
24.855408192,-2.476804,3.083626,6.06031299999999,0.2977422,0.02283984,0.8825105,-14.76366,-28.57613,-15.95006
24.86529398,-4.155344,3.201311,7.15995799999999,0.2996899,0.04071129,0.9055066,-14.7563,-28.20523,-16.34448
24.875180244,-3.96884,3.260154,8.07632800000003,0.31421,0.03049259,0.9079794,-14.7563,-28.20523,-16.34448
24.885066032,-1.544282,4.260476,9.053791,0.3369696,0.0188399,0.9133543,-14.7563,-28.20523,-16.34448
24.89495182,0.693772100000003,6.20227800000001,9.54252199999998,0.3538978,0.005250922,0.9187323,-14.7563,-28.20523,-16.34448
24.904838085,2.12364,6.49648999999998,10.94762,0.3427868,0.01539099,0.9114546,-14.7563,-28.20523,-16.34448
24.914723873,2.434481,5.496168,12.71927,0.334583,0.02008259,0.8984367,-14.38601,-28.2036,-15.94679
24.924609661,2.931826,4.790059,14.36874,0.3365289,0.02701827,0.9065796,-14.38601,-28.2036,-15.94679
24.934495926,3.180499,5.613853,15.3462,0.3370682,0.03314625,0.8930833,-14.38601,-28.2036,-15.94679
24.944381714,4.610366,6.614175,16.8124,0.3211102,0.04225729,0.8814771,-14.38601,-28.2036,-15.94679
24.954267502,4.983376,7.32028499999999,17.17895,0.3036859,0.05143594,0.8741971,-14.38601,-28.2036,-15.94679
24.964153767,5.667225,7.96755199999999,17.36222,0.297424,0.06059971,0.8674108,-14.39379,-28.19525,-15.49282
24.974039555,6.97275699999999,8.20292199999998,17.36222,0.276003,0.04910622,0.8775439,-14.39379,-28.19525,-15.49282
24.983925343,8.02961499999997,7.49681300000002,16.56803,0.2663604,0.06414164,0.8721667,-14.39379,-28.19525,-15.49282
24.996282578,9.58381899999998,5.90806599999998,15.4073,0.2625118,0.07537785,0.8740293,-14.39379,-28.19525,-15.49282
25.006168842,10.019,3.730894,14.36874,0.2553058,0.1082622,0.8902062,-14.39379,-28.19525,-15.49282
25.01605463,9.77032399999997,2.789414,13.02473,0.2646362,0.1404041,0.8914972,-14.38533,-27.82554,-15.95209
25.025940895,9.70815600000002,1.436037,11.74181,0.2438398,0.1683379,0.9004699,-14.38533,-27.82554,-15.95209
25.035826683,9.397315,-0.5646076,10.58108,0.2439411,0.1871059,0.8854666,-14.38533,-27.82554,-15.95209
25.045712471,10.14333,-2.388725,8.74833400000002,0.2536741,0.2078261,0.9046098,-14.38533,-27.82554,-15.95209
25.055598736,9.64598800000001,-3.683259,7.89305399999997,0.2470281,0.2377498,0.8856951,-14.38533,-27.82554,-15.95209
25.065484524,9.02430599999998,-3.624417,5.08285,0.2576681,0.2414537,0.906849,-14.76939,-27.4336,-15.51201
25.075370312,4.299526,-3.859787,2.700286,0.2680528,0.2939663,0.9027481,-14.76939,-27.4336,-15.51201
25.085256577,0.1964268,-4.565897,1.417367,0.2753085,0.2901283,0.907585,-14.76939,-27.4336,-15.51201
25.095142365,-1.792954,-5.448534,-0.720832200000002,0.2874379,0.2866525,0.9047308,-14.76939,-27.4336,-15.51201
25.105028152,-2.911981,-5.74274599999998,-3.103397,0.2902559,0.2648492,0.9125388,-14.76939,-27.4336,-15.51201
25.114914417,-4.341849,-6.09580100000001,-5.547052,0.2920884,0.238164,0.9194087,-15.07642,-27.81541,-15.96782
25.124800205,-6.82857599999998,-6.44885599999998,-7.19651999999998,0.2914861,0.2085475,0.9253288,-15.07642,-27.81541,-15.96782
25.134685993,-10.30999,-6.50769899999997,-8.418347,0.2991819,0.1826017,0.917293,-15.07642,-27.81541,-15.96782
25.144572258,-13.35623,-7.037281,-9.45690200000001,0.2995621,0.1419612,0.9025903,-15.07642,-27.81541,-15.96782
25.154458046,-14.66176,-7.74339099999999,-10.31218,0.3028489,0.1043374,0.8946084,-15.07642,-27.81541,-15.96782
25.164343834,-14.53743,-8.27297300000001,-11.10637,0.3153655,0.07261772,0.8918974,-14.76297,-28.19807,-15.95537
25.174230099,-12.92105,-8.21413099999998,-11.35073,0.3196222,0.04246154,0.8949402,-14.76297,-28.19807,-15.95537
25.184115887,-11.42902,-7.80223399999999,-10.92309,0.3268175,0.02357848,0.9032195,-14.76297,-28.19807,-15.95537
25.194001675,-9.87481500000001,-7.037281,-10.55655,0.3302081,0.01217062,0.8898151,-14.76297,-28.19807,-15.95537
25.20388794,-8.00976999999999,-6.68422599999997,-9.76235899999999,0.3335754,0.0004124604,0.8855501,-14.76297,-28.19807,-15.95537
25.216245174,-5.64738,-6.21348599999998,-8.35725599999999,0.3311123,-0.00731636,0.8894337,-15.07574,-27.43735,-15.97313
25.226130962,-4.031008,-5.154321,-7.25761099999999,0.3321074,-0.003988759,0.8841279,-15.07574,-27.43735,-15.97313
25.236017227,-2.725477,-3.800944,-6.64669700000003,0.3350004,-0.005863192,0.8894308,-15.07574,-27.43735,-15.97313
25.245903015,-1.917291,-2.329882,-5.974692,0.3384189,0.0004675938,0.8898836,-15.07574,-27.43735,-15.97313
25.255788803,-1.730786,-1.447245,-5.363778,0.3369732,0.01185004,0.9018475,-15.07574,-27.43735,-15.97313
25.265675068,-1.668618,-0.3880802,-5.119412,0.3345574,0.02074214,0.9099755,-15.0842,-27.80706,-15.51385
25.275560856,-1.109105,0.847612000000001,-4.752864,0.3365291,0.03746709,0.9214353,-15.0842,-27.80706,-15.51385
25.285446644,-1.171273,1.553722,-4.508498,0.3405103,0.06271593,0.9169839,-15.0842,-27.80706,-15.51385
25.295332909,-1.419945,2.200989,-3.958676,0.338645,0.08463237,0.9168711,-15.0842,-27.80706,-15.51385
25.305218697,-1.730786,2.612886,-3.531036,0.3382002,0.09532458,0.9153738,-15.0842,-27.80706,-15.51385
25.315104485,-1.233441,2.789414,-3.347762,0.3372713,0.1040196,0.9105196,-15.83035,-27.80436,-15.98498
25.324990749,-0.4252549,3.024784,-2.981214,0.3353293,0.1015384,0.9071634,-15.83035,-27.80436,-15.98498
25.334876537,0.5072676,3.024784,-3.103397,0.3299926,0.09755269,0.9004446,-15.83035,-27.80436,-15.98498
25.344762325,1.066781,3.201311,-3.286671,0.3241908,0.09841582,0.892258,-15.83035,-27.80436,-15.98498
25.35464859,0.693772100000003,3.318996,-3.531036,0.3207965,0.09939644,0.8922492,-15.83035,-27.80436,-15.98498
25.364534378,-0.3009185,3.377839,-3.775402,0.3130329,0.09740646,0.8884031,-15.07642,-27.81541,-15.96782
25.374420166,-1.295609,2.848256,-4.019767,0.3048048,0.09777308,0.8792543,-15.07642,-27.81541,-15.96782
25.384306431,-1.917291,2.259832,-3.897585,0.3048269,0.101117,0.8749092,-15.07642,-27.81541,-15.96782
25.394192219,-1.730786,1.612564,-4.080859,0.2945938,0.09392641,0.8811858,-15.07642,-27.81541,-15.96782
25.404078007,-1.419945,0.906454499999998,-3.958676,0.312057,0.09495208,0.8869715,-15.07642,-27.81541,-15.96782
25.413964272,-1.544282,0.3180296,-3.836493,0.309143,0.09845275,0.8927216,-15.06976,-27.82257,-16.35694
25.426321507,-1.668618,-0.6234501,-3.286671,0.3110341,0.0922984,0.9047779,-15.06976,-27.82257,-16.35694
25.436207295,-1.544282,-1.153032,-2.614666,0.3144232,0.08886148,0.9033563,-15.06976,-27.82257,-16.35694
25.446093559,-0.984768300000001,-1.153032,-2.248117,0.3105245,0.08299702,0.9014579,-15.06976,-27.82257,-16.35694
25.455979347,-0.736095699999999,-1.741457,-1.881569,0.3149127,0.08535121,0.8966418,-14.76229,-27.82001,-15.96067
25.465865135,-0.673927500000001,-1.8003,-1.453929,0.3168497,0.08438067,0.8971298,-14.76229,-27.82001,-15.96067
25.4757514,-0.860432000000003,-1.741457,-0.965197799999999,0.3265213,0.06866413,0.8895254,-14.76229,-27.82001,-15.96067
25.485637188,-0.673927500000001,-1.447245,-0.2931925,0.3182338,0.05995135,0.8919647,-14.76229,-27.82001,-15.96067
25.495522976,-0.3009185,-1.153032,-0.04882693,0.3221167,0.06392556,0.89772,-14.76229,-27.82001,-15.96067
25.505409241,-0.3009185,-0.976504999999998,0.4399042,0.3177314,0.05906472,0.8977396,-14.75562,-27.82718,-16.34979
25.515295029,-0.114414,-0.741135099999998,0.623178399999998,0.3215995,0.06114147,0.906871,-14.75562,-27.82718,-16.34979
25.525180817,-0.114414,-0.3292377,0.745361200000002,0.3143381,0.06501547,0.9044386,-14.75562,-27.82718,-16.34979
25.535067082,-0.114414,-0.2115527,0.867544000000001,0.3172723,0.07034455,0.9029723,-14.75562,-27.82718,-16.34979
25.54495287,0.00992228700000002,-0.3292377,0.806452599999999,0.3143786,0.07769766,0.9058173,-14.75562,-27.82718,-16.34979
25.554838657,0.4450994,-0.0938677799999998,1.050818,0.3134368,0.08299127,0.9014612,-15.08489,-28.18512,-15.50855
25.564724922,0.7559403,-0.1527103,1.050818,0.3212148,0.0814072,0.8942642,-15.08489,-28.18512,-15.50855
25.57461071,1.066781,-0.2703952,1.173001,0.3207113,0.0795323,0.8990824,-15.08489,-28.18512,-15.50855
25.584496498,1.377622,-0.2115527,1.356275,0.3221692,0.07603449,0.8933306,-15.08489,-28.18512,-15.50855
25.594382763,1.377622,-0.2115527,1.356275,0.3109998,0.07708798,0.89716,-15.08489,-28.18512,-15.50855
25.604268551,1.501958,-0.3292377,1.539549,0.294023,0.0780451,0.8937694,-15.44603,-27.43898,-16.37082
25.614154339,1.253286,-0.741135099999998,1.417367,0.2911164,0.08000584,0.8942371,-15.44603,-27.43898,-16.37082
25.624040604,0.7559403,-0.917662500000002,0.989726799999999,0.3008329,0.08490647,0.8975898,-15.44603,-27.43898,-16.37082
25.633926392,0.880276599999999,-1.153032,0.562087,0.3032718,0.08333296,0.8903867,-15.44603,-27.43898,-16.37082
25.646283626,1.253286,-1.388402,0.3788128,0.3071638,0.08625415,0.8908573,-15.44603,-27.43898,-16.37082
25.656169891,1.688463,-1.32956,-0.2321011,0.3037749,0.09715349,0.9028215,-15.08489,-28.18512,-15.50855
25.666055679,1.066781,-1.506087,-0.3542839,0.3096045,0.09760734,0.901383,-15.08489,-28.18512,-15.50855
25.675941467,0.7559403,-1.8003,-0.843015,0.3037715,0.09518413,0.9013886,-15.08489,-28.18512,-15.50855
25.685827732,0.4450994,-1.976827,-0.965197799999999,0.3071748,0.09812786,0.9033013,-15.08489,-28.18512,-15.50855
25.69571352,-0.1765822,-2.212197,-1.026289,0.3139795,0.1045239,0.9085668,-15.08489,-28.18512,-15.50855
25.705599308,-0.922600200000001,-2.094512,-1.270655,0.3149328,0.09915832,0.9081141,-15.07642,-27.81541,-15.96782
25.715485573,-1.295609,-1.917985,-1.209563,0.3183329,0.09316442,0.8985298,-15.07642,-27.81541,-15.96782
25.725371361,-1.233441,-1.8003,-1.087381,0.3240931,0.0756444,0.9000677,-15.07642,-27.81541,-15.96782
25.735257149,-0.736095699999999,-1.8003,-0.904106400000002,0.3240767,0.07226454,0.9020084,-15.07642,-27.81541,-15.96782
25.745143413,0.5072676,-1.859142,-0.4764667,0.3240654,0.06835458,0.9010664,-15.07642,-27.81541,-15.96782
25.755029201,1.004613,-2.153355,-0.1710097,0.3279402,0.05993936,0.8924567,-15.45338,-27.80988,-15.9764
25.764914989,1.253286,-2.153355,0.01226447,0.3323242,0.06679832,0.8957934,-15.45338,-27.80988,-15.9764
25.774801254,1.377622,-1.859142,0.1955387,0.3323464,0.06815129,0.8885729,-15.45338,-27.80988,-15.9764
25.784687042,1.688463,-1.388402,0.562087,0.3308977,0.06661422,0.8832888,-15.45338,-27.80988,-15.9764
25.79457283,1.564126,-0.682292600000002,0.867544000000001,0.331903,0.07485444,0.8808438,-15.45338,-27.80988,-15.9764
25.804459095,1.626294,-0.2115527,1.295184,0.3270178,0.07555953,0.8947814,-15.07642,-27.81541,-15.96782
25.814344883,1.315454,0.3180296,1.234092,0.3260644,0.08490694,0.900985,-15.07642,-27.81541,-15.96782
25.824230671,1.066781,0.4945571,1.11191,0.3241517,0.09418433,0.9023787,-15.07642,-27.81541,-15.96782
25.834116936,0.818108400000001,0.729926999999997,1.050818,0.3202918,0.1015106,0.9032991,-15.07642,-27.81541,-15.96782
25.844002724,0.3829313,0.906454499999998,1.11191,0.3188164,0.09765384,0.9057215,-15.07642,-27.81541,-15.96782
25.853888512,0.818108400000001,0.3768721,0.806452599999999,0.3100711,0.09523638,0.9057238,-14.76297,-28.19807,-15.95537
25.866246223,1.004613,-0.2703952,0.3177214,0.3008645,0.09067792,0.8927515,-14.76297,-28.19807,-15.95537
25.876132011,1.128949,-0.5057651,-0.04882693,0.3013408,0.09272542,0.8994746,-14.76297,-28.19807,-15.95537
25.886017799,1.128949,-1.035347,-0.3542839,0.3047475,0.09266117,0.8956314,-14.76297,-28.19807,-15.95537
25.895904064,0.4450994,-1.211875,-0.720832200000002,0.3086181,0.08875073,0.8951746,-14.76297,-28.19807,-15.95537
25.905789852,-0.05224587,-1.506087,-1.148472,0.3023033,0.08332049,0.8894238,-15.45338,-27.80988,-15.9764
25.91567564,-0.3009185,-1.976827,-1.392838,0.3032808,0.08526636,0.8894151,-15.45338,-27.80988,-15.9764
25.925561905,-0.611759299999997,-2.27104,-1.331746,0.3061868,0.08380695,0.8899068,-15.45338,-27.80988,-15.9764
25.935447693,-0.3630867,-2.212197,-1.51502,0.3115288,0.08527163,0.8908672,-15.45338,-27.80988,-15.9764
25.945333481,-0.487423,-2.50641,-1.698295,0.3173758,0.09208457,0.8913204,-15.45338,-27.80988,-15.9764
25.955219746,-0.5495912,-2.329882,-1.759386,0.3246331,0.09371081,0.9033434,-15.45338,-27.80988,-15.9764
25.965105534,-0.673927500000001,-2.388725,-1.881569,0.3265878,0.09014013,0.8927834,-15.45338,-27.80988,-15.9764
25.974991322,-0.922600200000001,-2.212197,-1.576112,0.3290084,0.08868168,0.8932745,-15.45338,-27.80988,-15.9764
25.984877586,-0.922600200000001,-2.50641,-1.698295,0.3314205,0.08877037,0.8995287,-15.45338,-27.80988,-15.9764
25.994763374,-0.798263799999999,-2.50641,-1.51502,0.3357652,0.0819445,0.8995682,-15.45338,-27.80988,-15.9764
26.004649162,-0.736095699999999,-2.329882,-1.209563,0.3411113,0.07989986,0.8938136,-15.83035,-27.80436,-15.98498
26.014535427,-0.860432000000003,-2.447567,-1.026289,0.3401367,0.07345641,0.8861502,-15.83035,-27.80436,-15.98498
26.024421215,-0.3630867,-2.50641,-0.781923700000001,0.3449758,0.06955843,0.8866564,-15.83035,-27.80436,-15.98498
26.034307003,0.1342586,-2.212197,-0.598649399999998,0.3536895,0.06122711,0.8843038,-15.83035,-27.80436,-15.98498
26.044193268,0.2585949,-1.976827,-0.1710097,0.3512654,0.06270713,0.8852554,-15.83035,-27.80436,-15.98498
26.054079056,0.2585949,-1.8003,0.1955387,0.3531957,0.0568024,0.88144,-15.07711,-28.19347,-15.96252
26.063964844,0.4450994,-1.741457,0.3788128,0.349814,0.05869937,0.8775793,-15.07711,-28.19347,-15.96252
26.076322556,1.191117,-1.623772,1.050818,0.3498043,0.05925823,0.8823857,-15.07711,-28.19347,-15.96252
26.086208344,1.750631,-0.976504999999998,1.050818,0.3420201,0.05938864,0.8900709,-15.07711,-28.19347,-15.96252
26.096094131,2.185808,-0.917662500000002,1.295184,0.3308372,0.05754202,0.8953576,-15.07711,-28.19347,-15.96252
26.105980396,2.310144,-0.976504999999998,1.539549,0.3279287,0.06399315,0.9030165,-15.07711,-28.19347,-15.96252
26.115866184,2.247976,-0.799977499999998,1.967189,0.3206654,0.07036661,0.9048997,-15.07711,-28.19347,-15.96252
26.125751972,2.310144,-0.6234501,1.600641,0.3182497,0.07826323,0.9115899,-15.07711,-28.19347,-15.96252
26.135638237,1.812799,-0.03502529,1.600641,0.3217003,0.09484148,0.9134337,-15.07711,-28.19347,-15.96252
26.145524025,1.937135,0.788769499999999,1.600641,0.3163849,0.1006738,0.9119555,-15.07711,-28.19347,-15.96252
26.155409813,1.999303,1.612564,1.661732,0.3130268,0.1073971,0.9051848,-15.08489,-28.18512,-15.50855
26.165296078,1.874967,1.965619,1.661732,0.3072481,0.1195607,0.903674,-15.08489,-28.18512,-15.50855
26.175181866,1.812799,1.847934,1.661732,0.3072532,0.1200261,0.9022288,-15.08489,-28.18512,-15.50855
26.185067654,1.750631,1.612564,1.722824,0.3062592,0.1147004,0.9041783,-15.08489,-28.18512,-15.50855
26.194953919,1.315454,1.141824,1.295184,0.3077315,0.1106149,0.8916967,-15.08489,-28.18512,-15.50855
26.204839706,1.191117,0.729926999999997,1.11191,0.3072043,0.09893635,0.8922361,-15.45407,-28.18794,-15.9711
26.214725494,0.7559403,0.2591871,0.4399042,0.3154898,0.1006952,0.8806945,-15.45407,-28.18794,-15.9711
26.224611759,0.2585949,-0.2703952,0.01226447,0.3198573,0.09372551,0.8711162,-15.45407,-28.18794,-15.9711
26.234497547,-0.4252549,-0.741135099999998,-0.2931925,0.3290917,0.09960099,0.8744635,-15.45407,-28.18794,-15.9711
26.244383335,-0.736095699999999,-0.682292600000002,-0.843015,0.3300427,0.09723625,0.8792858,-15.45407,-28.18794,-15.9711
26.2542696,-0.984768300000001,-0.917662500000002,-1.087381,0.3300398,0.09775198,0.8812068,-15.83813,-27.79601,-15.53101
26.264155388,-1.171273,-1.506087,-0.965197799999999,0.3339235,0.09525203,0.8773766,-15.83813,-27.79601,-15.53101
26.274041176,-1.046937,-2.094512,-1.087381,0.3411414,0.08219795,0.8846645,-15.83813,-27.79601,-15.53101
26.283927441,-0.984768300000001,-1.976827,-0.904106400000002,0.3513165,0.08477796,0.8957242,-15.83813,-27.79601,-15.53101
26.296285153,-0.922600200000001,-1.447245,-0.843015,0.3585672,0.0784836,0.8991307,-15.83813,-27.79601,-15.53101
26.306171417,-0.798263799999999,-1.035347,-0.659740900000002,0.3585849,0.07886986,0.8923959,-15.45338,-27.80988,-15.9764
26.316057205,-0.798263799999999,-0.4469227,-0.4153753,0.348856,0.06807553,0.8857065,-15.45338,-27.80988,-15.9764
26.325942993,-0.114414,0.1415022,-0.04882693,0.3439847,0.06570792,0.8895602,-15.45338,-27.80988,-15.9764
26.335829258,0.1964268,0.4945571,-0.1710097,0.3420341,0.06477382,0.8919674,-15.45338,-27.80988,-15.9764
26.345715046,0.3829313,0.671084500000001,-0.1710097,0.3362096,0.06478533,0.8919607,-15.45338,-27.80988,-15.9764
26.355600834,0.3829313,0.906454499999998,0.01226447,0.3352406,0.06328326,0.8890817,-15.45338,-27.80988,-15.9764
26.365487099,0.7559403,1.082982,0.3177214,0.3274163,0.05421203,0.9001798,-15.45338,-27.80988,-15.9764
26.375372887,1.43979,0.965297,0.1955387,0.3211289,0.06104894,0.900619,-15.45338,-27.80988,-15.9764
26.385258675,1.999303,0.965297,0.0733558600000001,0.3124052,0.06347217,0.8986731,-15.45338,-27.80988,-15.9764
26.39514494,2.061472,1.024139,0.25663,0.3056556,0.07464222,0.8957235,-15.45338,-27.80988,-15.9764
26.405030727,1.564126,0.671084500000001,0.3177214,0.3070966,0.06926136,0.8943095,-15.07711,-28.19347,-15.96252
26.414916515,1.377622,0.612241999999999,0.4399042,0.3056658,0.07656842,0.894271,-15.07711,-28.19347,-15.96252
26.42480278,1.43979,0.02381719,0.562087,0.3042468,0.08927508,0.8970907,-15.07711,-28.19347,-15.96252
26.434688568,1.43979,-0.2115527,0.623178399999998,0.3062226,0.1014953,0.9003977,-15.07711,-28.19347,-15.96252
26.444574833,0.7559403,-0.682292600000002,0.6842698,0.3120584,0.1063892,0.9027842,-15.07711,-28.19347,-15.96252
26.454460621,0.3829313,-0.799977499999998,0.745361200000002,0.3135248,0.1063216,0.8984579,-15.46116,-27.80153,-15.52243
26.464346409,0.3829313,-1.035347,0.806452599999999,0.3140137,0.1043081,0.8941403,-15.46116,-27.80153,-15.52243
26.474232674,0.631603899999999,-1.447245,0.806452599999999,0.3101306,0.1043158,0.8941358,-15.46116,-27.80153,-15.52243
26.484118462,0.818108400000001,-1.623772,0.867544000000001,0.3198507,0.1042175,0.8888573,-15.46116,-27.80153,-15.52243
26.49400425,0.818108400000001,-2.03567,0.5009956,0.3242005,0.0998479,0.890327,-15.46116,-27.80153,-15.52243
26.503890514,0.1342586,-1.8003,0.4399042,0.3237365,0.105685,0.8898162,-15.46783,-27.79437,-15.13332
26.516247749,-0.673927500000001,-2.03567,0.1955387,0.3324598,0.09779032,0.8840949,-15.46783,-27.79437,-15.13332
26.526133537,-0.984768300000001,-2.03567,-0.2321011,0.3324394,0.09592883,0.8898754,-15.46783,-27.79437,-15.13332
26.536019325,-0.984768300000001,-2.329882,-0.2321011,0.3348413,0.09309585,0.8961443,-15.46783,-27.79437,-15.13332
26.54590559,-0.3630867,-2.27104,-0.3542839,0.3406473,0.08772792,0.896178,-15.83949,-28.55212,-15.52041
26.555791378,-0.1765822,-2.03567,-0.5375581,0.3469511,0.08028899,0.8880472,-15.83949,-28.55212,-15.52041
26.565677166,-0.114414,-1.506087,-0.3542839,0.3474139,0.07644998,0.8919145,-15.83949,-28.55212,-15.52041
26.575563431,-0.114414,-1.153032,-0.2321011,0.3449763,0.07403444,0.8928857,-15.83949,-28.55212,-15.52041
26.585449219,-0.1765822,-0.85882,0.01226447,0.3439981,0.07358538,0.8952915,-15.83949,-28.55212,-15.52041
26.595335007,-0.3009185,-0.5646076,-0.04882693,0.3425509,0.07850806,0.8986314,-15.84548,-28.1669,-15.13659
26.605221271,-0.05224587,-0.3292377,0.01226447,0.3469244,0.07896479,0.8971913,-15.84548,-28.1669,-15.13659
26.615107059,0.1964268,-0.03502529,-0.04882693,0.3449711,0.07556,0.8972064,-15.84548,-28.1669,-15.13659
26.624992847,0.1964268,0.4945571,0.1344473,0.3415605,0.07316075,0.8991383,-15.84548,-28.1669,-15.13659
26.634879112,0.1342586,0.671084500000001,0.1344473,0.3357598,0.07302123,0.889033,-15.84548,-28.1669,-15.13659
26.6447649,-0.114414,0.906454499999998,0.1344473,0.3348088,0.07837238,0.888524,-15.83813,-27.79601,-15.53101
26.654651165,-0.2387504,0.906454499999998,0.01226447,0.3265676,0.08131036,0.8884998,-15.83813,-27.79601,-15.53101
26.664536953,-0.1765822,0.965297,0.25663,0.3221987,0.07783844,0.8837031,-15.83813,-27.79601,-15.53101
26.674422741,0.3829313,0.4357146,0.3177214,0.3158668,0.07450701,0.8880411,-15.83813,-27.79601,-15.53101
26.684309006,0.7559403,0.0826596800000002,-0.04882693,0.3115028,0.07846875,0.8918635,-15.83813,-27.79601,-15.53101
26.694194794,0.880276599999999,-0.2703952,-0.04882693,0.3183014,0.08142015,0.8947418,-15.46116,-27.80153,-15.52243
26.704080582,0.7559403,-0.682292600000002,-0.2321011,0.3221962,0.08482112,0.8947291,-15.46116,-27.80153,-15.52243
26.713966846,0.5694358,-0.741135099999998,-0.4153753,0.3241767,0.09402611,0.8917993,-15.46116,-27.80153,-15.52243
26.723852634,0.3829313,-0.741135099999998,-0.1710097,0.3280676,0.09595904,0.891313,-15.46116,-27.80153,-15.52243
26.736209869,0.3207631,-0.2703952,-0.3542839,0.3314461,0.09010177,0.8908655,-15.46116,-27.80153,-15.52243
26.746095657,0.5072676,-0.2115527,-0.2931925,0.3348522,0.09352526,0.8922948,-15.09087,-27.7999,-15.12474
26.755981922,0.4450994,0.02381719,-0.5375581,0.3280192,0.08133624,0.890425,-15.09087,-27.7999,-15.12474
26.76586771,0.3829313,0.2003446,-0.3542839,0.3294561,0.07747376,0.8928507,-15.09087,-27.7999,-15.12474
26.775753498,0.2585949,0.1415022,-0.4764667,0.3279756,0.07315164,0.8967183,-15.09087,-27.7999,-15.12474
26.785639763,0.4450994,0.3180296,-0.3542839,0.3304042,0.0736338,0.8967186,-15.09087,-27.7999,-15.12474
26.795525551,0.3207631,0.4357146,-0.2931925,0.3323627,0.07352209,0.8895075,-15.0842,-27.80706,-15.51385
26.805411339,0.631603899999999,0.612241999999999,-0.1710097,0.3333605,0.08230679,0.890907,-15.0842,-27.80706,-15.51385
26.815297604,0.7559403,0.847612000000001,-0.04882693,0.3343448,0.08520497,0.8894507,-15.0842,-27.80706,-15.51385
26.825183392,0.880276599999999,0.906454499999998,-0.04882693,0.3299905,0.09059879,0.8913422,-15.0842,-27.80706,-15.51385
26.835069179,0.693772100000003,1.200667,0.01226447,0.3362953,0.09012095,0.8927945,-15.0842,-27.80706,-15.51385
26.844955444,0.693772100000003,1.141824,0.01226447,0.3333854,0.08712592,0.8875163,-15.08489,-28.18512,-15.50855
26.854841232,0.5694358,1.082982,0.01226447,0.3343347,0.08029236,0.8865901,-15.08489,-28.18512,-15.50855
26.864727497,0.693772100000003,1.318352,0.1344473,0.3319102,0.0792873,0.8841878,-15.08489,-28.18512,-15.50855
26.874613285,0.880276599999999,0.847612000000001,0.3177214,0.3343489,0.0807002,0.8812978,-15.08489,-28.18512,-15.50855
26.884499073,0.7559403,0.4945571,0.3788128,0.3323819,0.07937264,0.889959,-15.08489,-28.18512,-15.50855
26.894385338,0.818108400000001,0.671084500000001,0.3788128,0.332861,0.07990897,0.8933232,-15.83813,-27.79601,-15.53101
26.904271126,0.5694358,0.612241999999999,0.3788128,0.3323904,0.08180737,0.8899467,-15.83813,-27.79601,-15.53101
26.914156914,0.631603899999999,0.729926999999997,0.1344473,0.3314145,0.08034845,0.889953,-15.83813,-27.79601,-15.53101
26.924043179,0.5072676,0.847612000000001,-0.1099183,0.3333305,0.0800087,0.9000561,-15.83813,-27.79601,-15.53101
26.933928967,0.631603899999999,0.847612000000001,-0.3542839,0.3280089,0.08339192,0.8976284,-15.83813,-27.79601,-15.53101
26.946286678,0.631603899999999,1.259509,-0.3542839,0.3260826,0.08578734,0.8947286,-15.83881,-28.17406,-15.52571
26.956172943,0.7559403,1.377194,-0.3542839,0.3226839,0.08281484,0.8908923,-15.83881,-28.17406,-15.52571
26.966058731,1.004613,1.318352,-0.2931925,0.3202695,0.0867224,0.8913508,-15.83881,-28.17406,-15.52571
26.975944519,1.253286,1.259509,-0.2931925,0.3236445,0.08287764,0.8952214,-15.83881,-28.17406,-15.52571
26.985830784,1.315454,1.318352,-0.3542839,0.3207418,0.08431547,0.8932872,-15.83881,-28.17406,-15.52571
26.995716572,1.315454,1.024139,-0.2931925,0.3231709,0.0872827,0.8966414,-15.45407,-28.18794,-15.9711
27.005602837,0.7559403,1.200667,-0.2321011,0.3222206,0.08815064,0.8894221,-15.45407,-28.18794,-15.9711
27.015488625,0.3829313,1.318352,-0.1099183,0.3187925,0.0793923,0.8894624,-15.45407,-28.18794,-15.9711
27.025374413,0.0720904500000002,0.729926999999997,0.1344473,0.3202725,0.08023387,0.8808033,-15.45407,-28.18794,-15.9711
27.035260677,0.818108400000001,0.4945571,0.3788128,0.3217236,0.07877015,0.8808124,-15.45407,-28.18794,-15.9711
27.045146465,1.315454,0.3180296,0.5009956,0.3251211,0.08174985,0.8851294,-15.46852,-28.17243,-15.12801
27.055032253,1.626294,-0.03502529,0.562087,0.3246372,0.08920603,0.8951905,-15.46852,-28.17243,-15.12801
27.064918518,1.315454,-0.0938677799999998,0.3177214,0.3300079,0.0989488,0.8961092,-15.46852,-28.17243,-15.12801
27.074804306,0.5694358,0.2591871,0.3177214,0.3329276,0.09740309,0.8908303,-15.46852,-28.17243,-15.12801
27.084690094,-0.1765822,0.3180296,0.25663,0.329035,0.0929923,0.8884435,-15.46852,-28.17243,-15.12801
27.094576359,0.1964268,0.0826596800000002,0.25663,0.3290419,0.09294914,0.8855582,-15.83949,-28.55212,-15.52041
27.104462147,0.5072676,-0.03502529,0.1955387,0.3275675,0.09406255,0.8946885,-15.83949,-28.55212,-15.52041
27.114347935,1.066781,0.0826596800000002,0.1344473,0.3275505,0.09217949,0.8990262,-15.83949,-28.55212,-15.52041
27.1242342,0.818108400000001,0.2591871,-0.1099183,0.3304487,0.08778402,0.8985708,-15.83949,-28.55212,-15.52041
27.134119988,0.1964268,0.2591871,-0.04882693,0.3314296,0.08970832,0.8971195,-15.83949,-28.55212,-15.52041
27.144005775,-0.4252549,0.3180296,0.0733558600000001,0.3255938,0.08680534,0.8976083,-15.83103,-28.18242,-15.97968
27.15389204,-0.2387504,0.0826596800000002,0.1955387,0.3290136,0.08815159,0.8903916,-15.83103,-28.18242,-15.97968
27.166249275,0.3207631,0.0826596800000002,0.3788128,0.3294809,0.08328836,0.8908977,-15.83103,-28.18242,-15.97968
27.176135063,0.5072676,0.2591871,0.25663,0.3260893,0.091717,0.9004697,-15.83103,-28.18242,-15.97968
27.186020851,0.3207631,0.3768721,0.3177214,0.3236733,0.08916479,0.8923042,-15.83103,-28.18242,-15.97968
27.195907116,0.1964268,0.671084500000001,0.25663,0.3285213,0.09018663,0.8961518,-15.83813,-27.79601,-15.53101
27.205792904,0.00992228700000002,0.729926999999997,0.3177214,0.3251136,0.08428526,0.8918495,-15.83813,-27.79601,-15.53101
27.215679169,0.1342586,0.729926999999997,0.1344473,0.3265471,0.08143981,0.8971557,-15.83813,-27.79601,-15.53101
27.225564957,0.1342586,0.3180296,0.1955387,0.3236677,0.08521888,0.8889577,-15.83813,-27.79601,-15.53101
27.235450745,0.3829313,0.2003446,0.25663,0.3217207,0.0782904,0.8812957,-15.83813,-27.79601,-15.53101
27.245337009,0.3207631,0.1415022,0.25663,0.3260952,0.08471277,0.8880011,-15.82966,-27.4263,-15.99029
27.255222797,0.3829313,0.2591871,0.1955387,0.3222241,0.08812906,0.8879794,-15.82966,-27.4263,-15.99029
27.265108585,0.3829313,0.2003446,0.3788128,0.3226918,0.08774184,0.8947149,-15.82966,-27.4263,-15.99029
27.27499485,0.4450994,0.2003446,0.0733558600000001,0.3197761,0.08577823,0.8932787,-15.82966,-27.4263,-15.99029
27.284880638,0.5694358,0.2003446,0.1344473,0.3236568,0.08678041,0.8956826,-15.82966,-27.4263,-15.99029
27.294766426,0.2585949,0.0826596800000002,-0.1099183,0.3260708,0.08436964,0.8976212,-15.46852,-28.17243,-15.12801
27.304652691,0.2585949,0.0826596800000002,-0.2931925,0.324605,0.08294044,0.8995505,-15.46852,-28.17243,-15.12801
27.314538479,0.3829313,-0.2115527,-0.2321011,0.3212223,0.07688086,0.8846687,-15.46852,-28.17243,-15.12801
27.324424267,0.4450994,-0.3880802,-0.1099183,0.3222021,0.08080328,0.8865737,-15.46852,-28.17243,-15.12801
27.334310532,0.5072676,-0.2115527,0.1344473,0.3236388,0.08191813,0.896188,-15.46852,-28.17243,-15.12801
27.34419632,0.3829313,-0.1527103,0.0733558600000001,0.3275349,0.08332096,0.8928189,-15.4527,-27.43182,-15.98171
27.354082108,0.4450994,-0.1527103,0.01226447,0.3299548,0.08634571,0.9000203,-15.4527,-27.43182,-15.98171
27.363968372,0.631603899999999,-0.0938677799999998,-0.04882693,0.3275319,0.0858276,0.8976155,-15.4527,-27.43182,-15.98171
27.376326084,0.880276599999999,0.2003446,-0.1710097,0.3299496,0.08687582,0.9029031,-15.4527,-27.43182,-15.98171
27.386212349,0.7559403,0.1415022,-0.1099183,0.3275433,0.08675116,0.8942444,-15.4527,-27.43182,-15.98171
27.396098137,0.5694358,0.2003446,-0.2321011,0.3270561,0.09024704,0.8999973,-15.46783,-27.79437,-15.13332
27.405983925,0.631603899999999,0.3768721,-0.1710097,0.3295034,0.09210373,0.8942196,-15.46783,-27.79437,-15.13332
27.41587019,0.5694358,0.3180296,-0.1710097,0.3309544,0.09263095,0.8971041,-15.46783,-27.79437,-15.13332
27.425755978,0.631603899999999,0.4945571,-0.2931925,0.32659,0.09211669,0.8946972,-15.46783,-27.79437,-15.13332
27.435641766,0.5072676,0.671084500000001,-0.4153753,0.3236788,0.09410618,0.8970884,-15.46783,-27.79437,-15.13332
27.44552803,0.2585949,0.671084500000001,-0.4153753,0.3226951,0.08871573,0.8947099,-15.84548,-28.1669,-15.13659
27.455413818,0.2585949,0.4945571,-0.3542839,0.320765,0.08964313,0.8913366,-15.84548,-28.1669,-15.13659
27.465299606,0.5072676,0.3768721,-0.1710097,0.3227037,0.0871686,0.8889467,-15.84548,-28.1669,-15.13659
27.475185871,0.5694358,0.1415022,-0.2931925,0.3197965,0.08963066,0.8903737,-15.84548,-28.1669,-15.13659
27.485071659,0.5072676,-0.03502529,-0.2931925,0.3202831,0.0866361,0.8855802,-15.84548,-28.1669,-15.13659
27.494957447,0.2585949,-0.2703952,-0.2321011,0.3217307,0.08718489,0.8899074,-16.21508,-27.79048,-15.53959
27.504843712,0.1342586,-0.0938677799999998,-0.2321011,0.3217257,0.08373311,0.8870392,-16.21508,-27.79048,-15.53959
27.5147295,-0.3630867,-0.3880802,-0.1099183,0.3241498,0.08225309,0.8860877,-16.21508,-27.79048,-15.53959
27.524615288,0.00992228700000002,-0.4469227,0.0733558600000001,0.3289967,0.08029571,0.886103,-16.21508,-27.79048,-15.53959
27.534501553,0.3207631,-0.85882,0.1344473,0.3309265,0.07588778,0.8846848,-16.21508,-27.79048,-15.53959
27.544387341,0.631603899999999,-0.917662500000002,0.1955387,0.3284927,0.07892213,0.8918805,-15.83813,-27.79601,-15.53101
27.554273128,0.631603899999999,-0.976504999999998,0.25663,0.3270534,0.08379447,0.8918542,-15.83813,-27.79601,-15.53101
27.564159393,0.4450994,-0.917662500000002,0.3788128,0.3309323,0.08729612,0.8985738,-15.83813,-27.79601,-15.53101
27.574045181,0.1964268,-0.85882,0.3177214,0.3284983,0.08087711,0.8923515,-15.83813,-27.79601,-15.53101
27.583930969,-0.05224587,-0.799977499999998,0.3788128,0.3256115,0.08520066,0.8879981,-15.83813,-27.79601,-15.53101
27.596288681,0.3207631,-0.799977499999998,0.562087,0.3217161,0.08230104,0.8889702,-15.46116,-27.80153,-15.52243
27.606174469,0.631603899999999,-0.6234501,0.5009956,0.3265629,0.08631647,0.8976119,-15.46116,-27.80153,-15.52243
27.616060257,0.7559403,-0.5646076,0.5009956,0.3212288,0.08679239,0.8961607,-15.46116,-27.80153,-15.52243
27.625946522,0.631603899999999,-0.6234501,0.4399042,0.3256006,0.08875312,0.8975985,-15.46116,-27.80153,-15.52243
27.63583231,0.631603899999999,-0.5646076,0.3177214,0.3319156,0.0872151,0.8932852,-15.84548,-28.1669,-15.13659
27.645718098,0.4450994,-0.2703952,0.4399042,0.3275507,0.08521121,0.8889621,-15.84548,-28.1669,-15.13659
27.655604362,0.5694358,-0.03502529,0.3177214,0.3270681,0.08867833,0.8927913,-15.84548,-28.1669,-15.13659
27.66549015,0.5694358,-0.0938677799999998,0.1955387,0.3251248,0.08919069,0.8942294,-15.84548,-28.1669,-15.13659
27.675375938,0.5072676,0.0826596800000002,0.0733558600000001,0.3275596,0.09212196,0.8951792,-15.84548,-28.1669,-15.13659
27.685262203,0.5072676,0.02381719,-0.2321011,0.3270583,0.09023266,0.8990355,-15.84616,-28.54496,-15.13129
27.695148468,0.5072676,-0.2115527,-0.2931925,0.32758,0.09497891,0.8908364,-15.84616,-28.54496,-15.13129
27.705034733,0.693772100000003,-0.1527103,0.0733558600000001,0.3309816,0.0944493,0.8884384,-15.84616,-28.54496,-15.13129
27.714920521,0.9424447,-0.03502529,-0.1099183,0.3338808,0.09303305,0.8918153,-15.84616,-28.54496,-15.13129
27.724806309,0.4450994,0.0826596800000002,-0.1710097,0.3304731,0.08912261,0.8903884,-15.84616,-28.54496,-15.13129
27.734692573,0.00992228700000002,0.02381719,-0.1710097,0.328556,0.0914605,0.8836415,-15.46852,-28.17243,-15.12801
27.744578361,-0.487423,-0.03502529,-0.1099183,0.3319299,0.08463653,0.8836799,-15.46852,-28.17243,-15.12801
27.754464149,-0.2387504,0.0826596800000002,-0.2321011,0.3270427,0.08137412,0.8928282,-15.46852,-28.17243,-15.12801
27.764350414,0.1342586,0.1415022,-0.1710097,0.3304421,0.08185437,0.8928297,-15.46852,-28.17243,-15.12801
27.774236202,0.3207631,0.1415022,-0.4764667,0.3323902,0.08479379,0.8942598,-15.46852,-28.17243,-15.12801
27.784122467,0.2585949,0.0826596800000002,-0.4764667,0.3289796,0.08239453,0.8961917,-15.46116,-27.80153,-15.52243
27.794008255,0.1964268,0.2003446,-0.659740900000002,0.3275041,0.08351513,0.9058028,-15.46116,-27.80153,-15.52243
27.803894043,0.1342586,0.4357146,-0.843015,0.3328728,0.08530853,0.8961814,-15.46116,-27.80153,-15.52243
27.816251278,-0.114414,0.671084500000001,-0.781923700000001,0.3299695,0.08923863,0.898082,-15.46116,-27.80153,-15.52243
27.826137543,-0.05224587,0.612241999999999,-0.781923700000001,0.3338549,0.08722565,0.8942492,-15.46116,-27.80153,-15.52243
27.836023331,-0.1765822,0.5533996,-0.843015,0.3285015,0.08782382,0.900973,-15.83633,-27.41914,-15.60117
27.845909119,-0.1765822,0.671084500000001,-0.843015,0.332902,0.0960717,0.8994936,-15.83633,-27.41914,-15.60117
27.855795383,-0.673927500000001,0.906454499999998,-0.781923700000001,0.3401917,0.09799073,0.8985303,-15.83633,-27.41914,-15.60117
27.865681171,-1.295609,1.082982,-1.087381,0.3435881,0.1019731,0.904766,-15.83633,-27.41914,-15.60117
27.875566959,-1.979459,1.141824,-1.331746,0.3591178,0.1009613,0.9043078,-15.83633,-27.41914,-15.60117
27.885453224,-2.911981,1.612564,-1.392838,0.3683258,0.09953977,0.9081729,-15.46852,-28.17243,-15.12801
27.895339012,-3.098486,1.789092,-1.209563,0.3784968,0.09219386,0.9067788,-15.46852,-28.17243,-15.12801
27.9052248,-2.974149,2.024462,-1.026289,0.3823882,0.09362544,0.9053333,-15.46852,-28.17243,-15.12801
27.915111065,-3.098486,2.318674,-0.4153753,0.3789862,0.08967905,0.901502,-15.46852,-28.17243,-15.12801
27.924996853,-2.911981,2.554044,0.623178399999998,0.3741189,0.0847976,0.9000783,-15.46852,-28.17243,-15.12801
27.934882641,-2.476804,2.789414,1.539549,0.3609959,0.07299294,0.8905046,-15.08284,-27.05094,-15.52446
27.944768906,-1.792954,3.318996,2.45592,0.3561195,0.07015995,0.8958035,-15.08284,-27.05094,-15.52446
27.954654694,-0.860432000000003,3.966264,2.944651,0.3497775,0.0619159,0.8972808,-15.08284,-27.05094,-15.52446
27.964540482,-0.5495912,4.790059,3.677748,0.3434902,0.06775735,0.8962822,-15.08284,-27.05094,-15.52446
27.974426746,-0.798263799999999,5.437326,4.349754,0.3425279,0.06820306,0.8933934,-15.08284,-27.05094,-15.52446
27.984312534,-1.419945,5.84922299999998,4.838485,0.3410893,0.07257408,0.8924078,-15.45338,-27.80988,-15.9764
27.994198799,-1.544282,5.437326,5.327216,0.3474021,0.07005496,0.8876185,-15.45338,-27.80988,-15.9764
28.004084587,-1.544282,5.378483,5.81594700000002,0.3551627,0.077538,0.9005744,-15.45338,-27.80988,-15.9764
28.013970375,-1.60645,4.790059,6.48795199999999,0.3600171,0.079018,0.902496,-15.45338,-27.80988,-15.9764
28.02385664,-1.419945,4.907743,7.037775,0.3541954,0.07751834,0.8991306,-15.45338,-27.80988,-15.9764
28.036214352,-1.357777,5.143113,7.34323199999999,0.3541919,0.08052631,0.9048865,-15.46005,-27.80272,-15.58729
28.04610014,-1.046937,5.319641,7.46541499999997,0.3527398,0.08000629,0.9024828,-15.46005,-27.80272,-15.58729
28.055986404,-0.611759299999997,5.555011,7.58759699999999,0.3468954,0.07765498,0.9072973,-15.46005,-27.80272,-15.58729
28.065872192,-0.4252549,5.73153800000001,7.52650599999998,0.3512751,0.0785699,0.9039312,-15.46005,-27.80272,-15.58729
28.07575798,-0.611759299999997,5.90806599999998,7.89305399999997,0.344988,0.08042947,0.8971817,-15.46005,-27.80272,-15.58729
28.085644245,-0.611759299999997,5.84922299999998,7.83196300000002,0.350788,0.08107032,0.9082463,-15.07642,-27.81541,-15.96782
28.095530033,-0.673927500000001,6.08459299999998,7.58759699999999,0.3420462,0.07863127,0.9068059,-15.07642,-27.81541,-15.96782
28.105415821,-0.05224587,6.37880599999998,7.89305399999997,0.329436,0.08207922,0.907736,-15.07642,-27.81541,-15.96782
28.115302086,0.2585949,7.084915,7.52650599999998,0.3158862,0.08881546,0.9004727,-15.07642,-27.81541,-15.96782
28.125187874,0.1964268,7.20260000000002,7.221049,0.3120497,0.1283398,0.9377805,-15.07642,-27.81541,-15.96782
28.135074139,-3.036318,7.43797000000002,6.48795199999999,0.3053176,0.1284519,0.9118025,-14.76161,-27.44196,-15.96598
28.144959927,-3.844504,7.26144300000002,5.205033,0.2936954,0.1278081,0.8997695,-14.76161,-27.44196,-15.96598
28.154845715,-5.274371,7.79102499999999,4.16648,0.2810487,0.11606,0.8940434,-14.76161,-27.44196,-15.96598
28.164731979,-6.952912,7.73218199999999,3.127926,0.2703521,0.10077,0.8796809,-14.76161,-27.44196,-15.96598
28.174617767,-7.63676199999999,8.43829199999998,2.089372,0.251381,0.09659034,0.8907416,-14.76161,-27.44196,-15.96598
28.184503555,-9.75047899999999,7.02607300000003,2.272646,0.2387038,0.07906361,0.889373,-13.99255,-27.09046,-16.79721
28.19438982,-9.43963799999997,6.31996299999998,1.845006,0.2333254,0.06140744,0.8803186,-13.99255,-27.09046,-16.79721
28.204275608,-9.812647,5.319641,1.600641,0.2211758,0.05704889,0.8803268,-13.99255,-27.09046,-16.79721
28.214161396,-7.57459399999998,3.730894,1.11191,0.2036784,0.05524351,0.8875299,-13.99255,-27.09046,-16.79721
28.224047661,-7.20158399999998,2.318674,0.562087,0.2041619,0.04132037,0.868364,-13.99255,-27.09046,-16.79721
28.233933449,-5.77171700000003,0.847612000000001,-0.2931925,0.2080052,0.038578,0.8808862,-13.9852,-26.71956,-17.19163
28.246291161,-2.414636,-0.03502529,-1.148472,0.2041192,0.02566616,0.8636339,-13.9852,-26.71956,-17.19163
28.256177425,-0.3630867,-0.3880802,-1.759386,0.1904966,0.01345462,0.8593518,-13.9852,-26.71956,-17.19163
28.266063213,1.812799,-1.447245,-2.309208,0.1778846,0.01840656,0.8631598,-13.9852,-26.71956,-17.19163
28.275949001,1.750631,-2.212197,-2.859031,0.1750327,0.03644373,0.8640273,-13.9852,-26.71956,-17.19163
28.285835266,1.128949,-3.918629,-3.531036,0.1910523,0.04037957,0.8688347,-14.35686,-27.47731,-17.57871
28.295721054,0.880276599999999,-5.330849,-4.14195,0.2060898,0.04040737,0.8726991,-14.35686,-27.47731,-17.57871
28.305607319,1.066781,-6.27232800000001,-4.691772,0.2323051,0.04480282,0.877035,-14.35686,-27.47731,-17.57871
28.315493107,2.496649,-6.68422599999997,-5.180504,0.2415362,0.0497044,0.8803871,-14.35686,-27.47731,-17.57871
28.325378895,4.672534,-7.15496600000002,-5.424869,0.2531426,0.0474624,0.8948393,-14.35686,-27.47731,-17.57871
28.33526516,6.102402,-7.97876099999998,-5.302687,0.2667041,0.04811667,0.9078363,-14.35686,-27.47731,-17.57871
28.345150948,6.72408399999998,-7.97876099999998,-4.813955,0.2793136,0.04915192,0.9136164,-14.35686,-27.47731,-17.57871
28.355036736,6.16457000000001,-7.56686399999999,-4.325224,0.295314,0.0442508,0.9136593,-14.35686,-27.47731,-17.57871
28.364923,5.542889,-7.44917799999999,-3.531036,0.3026083,0.04415012,0.9078971,-14.35686,-27.47731,-17.57871
28.374808788,5.356384,-6.860754,-2.79794,0.3113364,0.0342357,0.897377,-14.35686,-27.47731,-17.57871
28.384694576,5.729393,-5.97811599999998,-2.614666,0.3166454,0.03093159,0.9050944,-13.61807,-27.85091,-16.71317
28.394580841,6.102402,-4.977794,-2.309208,0.3205273,0.03192658,0.9070174,-13.61807,-27.85091,-16.71317
28.404466629,6.66191600000002,-4.389369,-1.820477,0.3200538,0.0343407,0.905562,-13.61807,-27.85091,-16.71317
28.414352417,6.97275699999999,-4.212842,-1.637203,0.3278048,0.03840072,0.9175733,-13.61807,-27.85091,-16.71317
28.424238682,6.97275699999999,-3.977472,-2.003752,0.3423596,0.04587751,0.9310179,-13.61807,-27.85091,-16.71317
28.43412447,6.53758000000001,-3.271362,-2.431391,0.3560377,0.06669588,0.9246762,-14.75562,-27.82718,-16.34979
28.444010258,5.356384,-2.329882,-2.553574,0.3643603,0.08314946,0.9188315,-14.75562,-27.82718,-16.34979
28.453896523,4.423862,-1.976827,-2.553574,0.3663216,0.08650391,0.9154503,-14.75562,-27.82718,-16.34979
28.466253758,3.864348,-0.799977499999998,-2.675757,0.3629738,0.09316248,0.9043517,-14.75562,-27.82718,-16.34979
28.476140499,4.050853,-0.03502529,-2.431391,0.3629545,0.09129379,0.9096512,-14.75562,-27.82718,-16.34979
28.486026287,4.859039,0.788769499999999,-2.3703,0.3600299,0.08739679,0.9091867,-14.76229,-27.82001,-15.96067
28.495912075,5.294216,1.259509,-2.003752,0.3532341,0.0829342,0.9029496,-14.76229,-27.82001,-15.96067
28.50579834,5.16988,1.847934,-1.453929,0.3469418,0.08631933,0.9005207,-14.76229,-27.82001,-15.96067
28.515684128,5.045544,2.142147,-0.904106400000002,0.3391668,0.08440128,0.9014834,-14.76229,-27.82001,-15.96067
28.525569916,5.045544,2.436359,-0.4153753,0.3285021,0.08533155,0.8971382,-14.76229,-27.82001,-15.96067
28.535456181,4.983376,2.377517,-0.2321011,0.3207287,0.08688685,0.9024116,-15.07642,-27.81541,-15.96782
28.545341968,4.734703,2.200989,-0.04882693,0.3197822,0.09121375,0.8985413,-15.07642,-27.81541,-15.96782
28.555227756,4.113021,2.200989,0.01226447,0.3231798,0.09319798,0.9014207,-15.07642,-27.81541,-15.96782
28.565114021,3.677844,1.847934,-0.04882693,0.3154328,0.1020503,0.9061764,-15.07642,-27.81541,-15.96782
28.574999809,3.11833,1.612564,0.1955387,0.3149737,0.1028813,0.8965533,-15.07642,-27.81541,-15.96782
28.584885597,2.620985,1.200667,0.1344473,0.3144923,0.1023594,0.8941507,-14.77007,-27.81166,-15.5067
28.594771862,2.683153,0.729926999999997,0.01226447,0.3086643,0.1043834,0.8984621,-14.77007,-27.81166,-15.5067
28.60465765,2.931826,0.671084500000001,0.01226447,0.3111086,0.1107377,0.9003565,-14.77007,-27.81166,-15.5067
28.614543438,2.247976,0.612241999999999,-0.1710097,0.3072301,0.1127075,0.901304,-14.77007,-27.81166,-15.5067
28.624429703,1.377622,0.3180296,-0.2931925,0.3023847,0.1161473,0.9027239,-14.77007,-27.81166,-15.5067
28.634315491,0.5072676,0.1415022,-0.3542839,0.297062,0.1185422,0.8993393,-15.07642,-27.81541,-15.96782
28.644201279,0.4450994,-0.3880802,-0.3542839,0.2955784,0.1072734,0.8945854,-15.07642,-27.81541,-15.96782
28.654087543,0.3829313,-1.09419,-0.2931925,0.2980031,0.1042966,0.8912367,-15.07642,-27.81541,-15.96782
28.663973331,-0.114414,-1.388402,-0.04882693,0.3018996,0.1101754,0.8940969,-15.07642,-27.81541,-15.96782
28.676330566,-0.736095699999999,-1.859142,0.1955387,0.3038394,0.1086892,0.8926638,-14.76366,-28.57613,-15.95006
28.686216831,-1.046937,-1.917985,0.1955387,0.303827,0.1057819,0.8936404,-14.76366,-28.57613,-15.95006
28.696102619,-1.233441,-1.8003,0.25663,0.3043037,0.1073281,0.8994042,-14.76366,-28.57613,-15.95006
28.705989361,-1.544282,-1.976827,0.1955387,0.3106313,0.1067064,0.8912388,-14.76366,-28.57613,-15.95006
28.715875149,-1.855123,-2.03567,0.5009956,0.3091646,0.1013025,0.887898,-14.76366,-28.57613,-15.95006
28.725760937,-2.165963,-2.329882,0.6842698,0.3091516,0.09690562,0.8869584,-15.07711,-28.19347,-15.96252
28.735647201,-2.849813,-2.624094,1.173001,0.3091435,0.1009378,0.8960754,-15.07711,-28.19347,-15.96252
28.745532989,-2.787645,-3.212519,0.928635399999997,0.3115687,0.09945062,0.8946431,-15.07711,-28.19347,-15.96252
28.755418777,-2.60114,-3.447889,0.806452599999999,0.3178523,0.08517286,0.8851039,-15.07711,-28.19347,-15.96252
28.765305042,-2.2903,-4.036314,0.623178399999998,0.3226741,0.08934651,0.9043251,-15.07711,-28.19347,-15.96252
28.77519083,-1.730786,-3.800944,0.867544000000001,0.3265431,0.08295818,0.9009954,-15.07711,-28.19347,-15.96252
28.785076618,-1.60645,-4.095157,0.745361200000002,0.3328445,0.08051098,0.9010149,-15.07711,-28.19347,-15.96252
28.794962883,-1.109105,-4.507054,0.867544000000001,0.3318935,0.08486667,0.8990681,-15.07711,-28.19347,-15.96252
28.804848671,-0.922600200000001,-4.742424,0.989726799999999,0.3309132,0.08244103,0.8995602,-15.07711,-28.19347,-15.96252
28.814734459,-0.611759299999997,-4.801267,1.478458,0.3318939,0.0739165,0.883253,-15.07711,-28.19347,-15.96252
28.824620724,-0.673927500000001,-4.095157,1.906098,0.3274973,0.06415024,0.8808928,-15.08489,-28.18512,-15.50855
28.834506512,-1.171273,-4.095157,2.517012,0.3274787,0.0597893,0.8823576,-15.08489,-28.18512,-15.50855
28.8443923,-1.357777,-3.330204,2.639194,0.3288703,0.04725525,0.8910791,-15.08489,-28.18512,-15.50855
28.854278564,-1.046937,-2.682937,2.944651,0.3322555,0.0453367,0.8934972,-15.08489,-28.18512,-15.50855
28.864164352,-0.984768300000001,-1.8003,3.189017,0.334206,0.04826174,0.8939656,-15.08489,-28.18512,-15.50855
28.874050617,-1.109105,-1.506087,3.616657,0.3337626,0.05496489,0.8862364,-15.4527,-27.43182,-15.98171
28.883936405,-0.984768300000001,-1.447245,3.799931,0.3361944,0.05940734,0.8905451,-15.4527,-27.43182,-15.98171
28.89629364,-0.114414,-1.211875,3.738839,0.3386476,0.07366784,0.9000942,-15.4527,-27.43182,-15.98171
28.906179428,0.5072676,-0.917662500000002,3.3112,0.3338028,0.07760177,0.9019925,-15.4527,-27.43182,-15.98171
28.916065693,0.5694358,-0.5646076,3.066834,0.3294314,0.08210798,0.9096596,-15.4527,-27.43182,-15.98171
28.925951958,0.0720904500000002,-0.3880802,2.822469,0.3313689,0.08362252,0.9135014,-15.07574,-27.43735,-15.97313
28.935838222,-0.798263799999999,0.2591871,2.517012,0.3337874,0.08018753,0.9120788,-15.07574,-27.43735,-15.97313
28.94572401,-1.233441,0.4945571,2.150463,0.3279556,0.07576617,0.9087281,-15.07574,-27.43735,-15.97313
28.955609798,-1.357777,0.906454499999998,1.600641,0.3352505,0.07416869,0.9005688,-15.07574,-27.43735,-15.97313
28.965496063,-0.798263799999999,1.377194,1.050818,0.3376837,0.07263114,0.8957701,-15.07574,-27.43735,-15.97313
28.975381851,-0.4252549,1.612564,0.5009956,0.3401269,0.07700167,0.8952699,-15.82966,-27.4263,-15.99029
28.985267639,-0.611759299999997,1.730249,0.1344473,0.3328418,0.07704482,0.897185,-15.82966,-27.4263,-15.99029
28.995153904,-0.922600200000001,1.553722,-0.04882693,0.3274993,0.07409054,0.8943083,-15.82966,-27.4263,-15.99029
29.005039692,-1.046937,1.553722,-0.5375581,0.3207192,0.07948196,0.8957162,-15.82966,-27.4263,-15.99029
29.014925957,-1.109105,1.200667,-1.026289,0.3153677,0.07459427,0.8938111,-15.82966,-27.4263,-15.99029
29.024811745,-0.860432000000003,1.082982,-1.331746,0.3158282,0.06977419,0.8972024,-15.82898,-27.04824,-15.99559
29.034697533,-1.046937,1.200667,-1.637203,0.3143767,0.0667619,0.890964,-15.82898,-27.04824,-15.99559
29.044583797,-1.357777,0.847612000000001,-1.576112,0.314844,0.06289413,0.8929077,-15.82898,-27.04824,-15.99559
29.054469585,-1.60645,0.2591871,-1.698295,0.3089924,0.05810089,0.8972537,-15.82898,-27.04824,-15.99559
29.064355373,-1.730786,-0.4469227,-1.270655,0.307035,0.05621447,0.9011083,-15.82898,-27.04824,-15.99559
29.074241638,-1.544282,-0.682292600000002,-1.453929,0.3133455,0.05470521,0.8987185,-15.4527,-27.43182,-15.98171
29.084127426,-0.984768300000001,-0.6234501,-1.148472,0.3206532,0.0614865,0.8972498,-15.4527,-27.43182,-15.98171
29.094013214,-0.860432000000003,-0.2703952,-0.904106400000002,0.321624,0.06148459,0.897251,-15.4527,-27.43182,-15.98171
29.103899479,-0.798263799999999,0.02381719,-0.720832200000002,0.3216187,0.06599655,0.9058847,-15.4527,-27.43182,-15.98171
29.116257191,-1.109105,0.612241999999999,-0.2931925,0.3235845,0.0703177,0.9020177,-15.4527,-27.43182,-15.98171
29.126142979,-1.482114,0.788769499999999,0.25663,0.3192288,0.06626536,0.890972,-15.45202,-27.05376,-15.98701
29.136029244,-1.668618,0.906454499999998,0.4399042,0.3119448,0.06331491,0.8880932,-15.45202,-27.05376,-15.98701
29.145915031,-0.984768300000001,0.906454499999998,0.867544000000001,0.311897,0.04719532,0.8848081,-15.45202,-27.05376,-15.98701
29.155800819,0.1964268,1.024139,1.050818,0.3138373,0.04918962,0.8881667,-15.45202,-27.05376,-15.98701
29.165687084,0.9424447,0.965297,1.173001,0.311895,0.05467213,0.8963124,-15.45202,-27.05376,-15.98701
29.175572872,0.880276599999999,1.024139,1.417367,0.315306,0.0645338,0.9049231,-15.82898,-27.04824,-15.99559
29.185459137,0.3207631,0.671084500000001,1.783915,0.3153111,0.06499917,0.9034779,-15.82898,-27.04824,-15.99559
29.195344925,0.3829313,0.5533996,1.967189,0.3104522,0.06454339,0.9049175,-15.82898,-27.04824,-15.99559
29.205230713,1.253286,-0.03502529,1.906098,0.3065845,0.06793811,0.9034532,-15.82898,-27.04824,-15.99559
29.215116978,2.185808,-0.5646076,1.539549,0.3085413,0.07032587,0.9005578,-15.82898,-27.04824,-15.99559
29.225002766,2.993994,-0.3292377,1.539549,0.3061064,0.06938554,0.9024835,-15.44603,-27.43898,-16.37082
29.234888554,2.931826,-0.3880802,1.478458,0.310996,0.07263354,0.8923733,-15.44603,-27.43898,-16.37082
29.244774818,3.242667,-0.5646076,1.478458,0.3109586,0.06789352,0.9010538,-15.44603,-27.43898,-16.37082
29.254660606,3.367003,-1.035347,1.417367,0.3191948,0.06050829,0.8967721,-15.44603,-27.43898,-16.37082
29.264546394,4.237358,-1.56493,1.661732,0.3172697,0.06289652,0.8933915,-15.44603,-27.43898,-16.37082
29.274432659,4.859039,-1.56493,1.783915,0.325068,0.06914676,0.8890405,-15.08241,-27.43019,-15.58401
29.284318447,4.983376,-1.506087,1.906098,0.3212127,0.07544878,0.8865996,-15.08241,-27.43019,-15.58401
29.294204235,4.734703,-1.917985,1.478458,0.3241504,0.08175176,0.8851283,-15.08241,-27.43019,-15.58401
29.3040905,4.921207,-2.212197,1.173001,0.3202923,0.08558309,0.8802953,-15.08241,-27.43019,-15.58401
29.313976288,4.734703,-2.329882,0.6842698,0.3236588,0.0793036,0.8841783,-15.08241,-27.43019,-15.58401
29.323862076,4.48603,-2.565252,0.3788128,0.3265647,0.08282154,0.8918586,-15.46647,-27.03825,-15.14393
29.336220265,3.491339,-2.800622,0.5009956,0.3401743,0.09063618,0.895201,-15.46647,-27.03825,-15.14393
29.346106052,2.993994,-3.094834,0.3177214,0.345011,0.089739,0.9009821,-15.46647,-27.03825,-15.14393
29.355992317,2.993994,-3.212519,0.4399042,0.3503654,0.09212004,0.8980907,-15.46647,-27.03825,-15.14393
29.365878105,2.869658,-3.330204,0.3177214,0.3561753,0.0892156,0.9000356,-15.46647,-27.03825,-15.14393
29.375763893,2.745321,-3.153677,0.5009956,0.3610402,0.09311598,0.9009833,-15.82966,-27.4263,-15.99029
29.385650158,2.558817,-3.330204,0.4399042,0.3644612,0.09644597,0.8961611,-15.82966,-27.4263,-15.99029
29.395535946,2.496649,-3.506732,-0.1099183,0.3576692,0.09942423,0.8990238,-15.82966,-27.4263,-15.99029
29.405421734,2.310144,-3.800944,-0.720832200000002,0.3557383,0.1058303,0.9037985,-15.82966,-27.4263,-15.99029
29.415307999,1.750631,-3.389047,-1.148472,0.3596313,0.1127262,0.9095392,-15.82966,-27.4263,-15.99029
29.425193787,0.880276599999999,-2.624094,-1.209563,0.3582154,0.1199398,0.9032491,-15.46185,-28.17959,-15.51713
29.435079575,-0.487423,-1.447245,-0.904106400000002,0.3562829,0.121877,0.9022753,-15.46185,-28.17959,-15.51713
29.444965839,-1.233441,-0.6234501,-0.781923700000001,0.3480723,0.1286027,0.8950181,-15.46185,-28.17959,-15.51713
29.454851627,-2.228132,0.5533996,-0.781923700000001,0.3354578,0.1231202,0.8849321,-15.46185,-28.17959,-15.51713
29.464737415,-2.414636,0.5533996,-0.781923700000001,0.3281485,0.1128655,0.8820902,-15.46185,-28.17959,-15.51713
29.47462368,-1.60645,0.4945571,-0.598649399999998,0.3218063,0.1086034,0.8893182,-15.08241,-27.43019,-15.58401
29.484509468,-0.611759299999997,0.612241999999999,-0.5375581,0.3271526,0.1140211,0.8941061,-15.08241,-27.43019,-15.58401
29.494395256,-1.046937,1.141824,-0.4764667,0.330558,0.1229233,0.9036835,-15.08241,-27.43019,-15.58401
29.504281521,-3.098486,1.259509,-0.2321011,0.3266677,0.1175026,0.8988972,-15.08241,-27.43019,-15.58401
29.514167309,-5.709548,0.671084500000001,0.0733558600000001,0.329579,0.1125267,0.8921928,-15.08241,-27.43019,-15.58401
29.524053097,-6.144726,-0.2115527,0.25663,0.3242131,0.09578691,0.8792864,-15.46005,-27.80272,-15.58729
29.533939839,-5.087867,-1.09419,0.3788128,0.3304564,0.07927579,0.8832243,-15.46005,-27.80272,-15.58729
29.546297073,-3.471495,-0.682292600000002,0.5009956,0.3318543,0.06421352,0.8857067,-15.46005,-27.80272,-15.58729
29.556183338,-3.347158,0.02381719,0.562087,0.3458803,0.0595248,0.899693,-15.46005,-27.80272,-15.58729
29.566069126,-3.782336,1.082982,1.417367,0.3409888,0.04733195,0.8978254,-15.45407,-28.18794,-15.9711
29.575954914,-3.782336,1.847934,1.906098,0.3210324,0.0352839,0.9036346,-15.45407,-28.18794,-15.9711
29.585841179,-3.28499,1.847934,2.639194,0.3069246,0.02008692,0.8950388,-15.45407,-28.18794,-15.9711
29.595726967,-2.352468,1.789092,2.88356,0.2947856,0.02013966,0.8969484,-15.45407,-28.18794,-15.9711
29.605612755,-1.482114,1.494879,2.822469,0.2802446,0.02800274,0.8997777,-15.45407,-28.18794,-15.9711
29.61549902,-1.046937,1.082982,3.127926,0.2744958,0.04545084,0.893431,-15.45407,-28.18794,-15.9711
29.625384807,-0.860432000000003,0.729926999999997,3.066834,0.2765247,0.0702741,0.8928269,-15.45338,-27.80988,-15.9764
29.635270595,-1.046937,0.847612000000001,3.250108,0.2789932,0.08493525,0.896603,-15.45338,-27.80988,-15.9764
29.64515686,-1.668618,0.906454499999998,3.616657,0.2819405,0.09466123,0.8960763,-15.45338,-27.80988,-15.9764
29.655042648,-1.668618,0.1415022,3.922114,0.2897259,0.09253269,0.8850347,-15.45338,-27.80988,-15.9764
29.664928436,-1.357777,-0.4469227,4.105388,0.2965555,0.1027523,0.8854718,-15.45338,-27.80988,-15.9764
29.674814701,-1.357777,-0.741135099999998,4.410845,0.2956013,0.1021522,0.8777789,-15.44671,-27.81704,-16.36552
29.684700489,-1.792954,-1.035347,4.105388,0.2931607,0.1022433,0.8835468,-15.44671,-27.81704,-16.36552
29.694587231,-2.60114,-2.03567,4.16648,0.2917002,0.09729763,0.87828,-15.44671,-27.81704,-16.36552
29.704473019,-3.471495,-2.800622,3.494474,0.29556,0.09494872,0.8845482,-15.44671,-27.81704,-16.36552
29.714359283,-4.839194,-3.859787,2.45592,0.3091433,0.08849806,0.8783443,-15.44671,-27.81704,-16.36552
29.724245071,-6.20689400000001,-4.389369,0.623178399999998,0.3329062,0.089576,0.8884652,-16.21261,-27.03555,-15.61505
29.734130859,-7.82326600000002,-4.271684,-1.270655,0.356178,0.0916863,0.9024277,-16.21261,-27.03555,-15.61505
29.744017124,-8.88012499999997,-3.683259,-2.859031,0.3696857,0.08322521,0.9246082,-16.21261,-27.03555,-15.61505
29.753902912,-8.81795700000002,-2.50641,-4.14195,0.3788508,0.07013135,0.929494,-16.21261,-27.03555,-15.61505
29.766260147,-7.88543400000003,-1.388402,-5.241595,0.3845861,0.04878766,0.9358603,-15.45869,-27.04661,-15.59789
29.776145935,-6.51773500000002,0.02381719,-6.09687499999998,0.3883868,0.02541373,0.9364637,-15.45869,-27.04661,-15.59789
29.7860322,-5.025699,1.082982,-6.21905800000003,0.3820715,0.01451201,0.9230458,-15.45869,-27.04661,-15.59789
29.795917988,-4.404017,2.377517,-5.91360000000002,0.3844899,-0.004349156,0.8995788,-15.45869,-27.04661,-15.59789
29.805803776,-3.409327,3.613209,-5.058321,0.3796332,-0.01825455,0.8808875,-15.45869,-27.04661,-15.59789
29.815690041,-1.979459,5.613853,-4.019767,0.3752473,-0.02062312,0.884742,-15.81453,-27.06375,-16.83868
29.825575829,0.3207631,7.43797000000002,-3.164488,0.3640904,-0.02064421,0.8818438,-15.81453,-27.06375,-16.83868
29.835461616,3.304835,8.67366199999998,-2.187026,0.3529307,-0.01815865,0.8837423,-15.81453,-27.06375,-16.83868
29.845348358,5.91589799999997,8.90903199999997,-1.453929,0.3310524,-0.0198763,0.89623,-15.81453,-27.06375,-16.83868
29.855234623,6.59974800000002,8.85018899999998,-0.720832200000002,0.3242633,-0.01542281,0.9000471,-15.81453,-27.06375,-16.83868
29.865120411,6.22673899999999,8.43829199999998,-0.2931925,0.3107395,-0.002879172,0.89035,-16.19149,-27.05823,-16.84726
29.875006199,5.605057,7.32028499999999,-0.1710097,0.3073978,0.01021038,0.8859518,-16.19149,-27.05823,-16.84726
29.884892464,5.294216,6.55533299999998,-0.2321011,0.3089173,0.02175039,0.8762767,-16.19149,-27.05823,-16.84726
29.894778252,5.045544,6.08459299999998,-0.2321011,0.3094556,0.03833439,0.8781172,-16.19149,-27.05823,-16.84726
29.90466404,4.983376,6.02575100000001,-0.1099183,0.3090182,0.05146854,0.8770885,-16.19149,-27.05823,-16.84726
29.914550304,5.79156200000001,5.613853,0.25663,0.299336,0.05978739,0.8784782,-15.82231,-27.0554,-16.38471
29.924436092,7.15926100000001,4.790059,0.623178399999998,0.2910765,0.06184497,0.8847104,-15.82231,-27.0554,-16.38471
29.93432188,9.33514699999999,3.730894,1.173001,0.2750234,0.06060995,0.8976832,-15.82231,-27.0554,-16.38471
29.944208145,11.32453,2.554044,1.417367,0.2730981,0.06897099,0.902929,-15.82231,-27.0554,-16.38471
29.954093933,12.25705,1.494879,1.661732,0.269724,0.07878137,0.9072038,-15.82231,-27.0554,-16.38471
29.963979721,11.63537,0.729926999999997,1.600641,0.2726955,0.09581876,0.9071211,-15.44603,-27.43898,-16.37082
29.973865986,10.26767,0.1415022,1.906098,0.278578,0.113853,0.9089603,-15.44603,-27.43898,-16.37082
29.986223221,7.03492499999999,-0.03502529,1.661732,0.2951486,0.1293164,0.90313,-15.44603,-27.43898,-16.37082
29.996109962,4.299526,0.3180296,1.661732,0.3053891,0.1359625,0.8930088,-15.44603,-27.43898,-16.37082
30.00599575,2.496649,0.612241999999999,1.783915,0.3044699,0.1431032,0.8819104,-15.44603,-27.43898,-16.37082
30.015881538,1.191117,0.906454499999998,1.783915,0.3044614,0.1406685,0.8819227,-15.07574,-27.43735,-15.97313
30.025767803,1.626294,0.671084500000001,2.211555,0.3020001,0.1334266,0.8858038,-15.07574,-27.43735,-15.97313
30.035653591,2.620985,0.729926999999997,2.272646,0.2980548,0.1238752,0.8978707,-15.07574,-27.43735,-15.97313
30.045539379,3.367003,0.4945571,2.089372,0.30286,0.1122292,0.9013014,-15.07574,-27.43735,-15.97313
30.055425644,2.993994,-0.3880802,2.02828,0.3043241,0.1131714,0.8993747,-15.07574,-27.43735,-15.97313
30.065311432,1.564126,-0.85882,1.478458,0.2960778,0.1146486,0.8993578,-15.45338,-27.80988,-15.9764
30.07519722,-0.2387504,-1.8003,0.806452599999999,0.2975542,0.1184981,0.8964545,-15.45338,-27.80988,-15.9764
30.085083485,-1.482114,-2.918307,0.3788128,0.3106403,0.1096353,0.891705,-15.45338,-27.80988,-15.9764
30.094969273,-1.109105,-3.506732,-0.3542839,0.3275776,0.0979797,0.8961114,-15.45338,-27.80988,-15.9764
30.104855061,-0.05224587,-3.330204,-0.659740900000002,0.3387174,0.09611773,0.9033473,-15.45338,-27.80988,-15.9764
30.114741325,0.3207631,-2.447567,-0.843015,0.3396645,0.09029403,0.9048206,-15.44535,-27.06092,-16.37613
30.124627113,-0.611759299999997,-1.56493,-0.4764667,0.3289654,0.08198669,0.901484,-15.44535,-27.06092,-16.37613
30.134512901,-1.730786,-1.388402,-0.2321011,0.3231088,0.07175075,0.9000862,-15.44535,-27.06092,-16.37613
30.144399166,-2.538972,-1.388402,-0.1710097,0.3240496,0.06546886,0.9034855,-15.44535,-27.06092,-16.37613
30.154284954,-2.352468,-1.211875,-0.1710097,0.3303296,0.05619001,0.9025777,-15.44535,-27.06092,-16.37613
30.164170742,-1.668618,-0.976504999999998,-0.2321011,0.3201056,0.04993738,0.9064451,-15.07574,-27.43735,-15.97313
30.174057007,-1.295609,-0.917662500000002,-0.04882693,0.3249379,0.04508708,0.9083987,-15.07574,-27.43735,-15.97313
30.183943272,-0.860432000000003,-0.682292600000002,0.3788128,0.3186474,0.04398183,0.8987787,-15.07574,-27.43735,-15.97313
30.196300983,0.1964268,-1.09419,0.745361200000002,0.3181713,0.03894791,0.8877425,-15.07574,-27.43735,-15.97313
30.206186771,1.128949,-1.270717,1.234092,0.3211006,0.04082522,0.883408,-15.07574,-27.43735,-15.97313
30.216072559,1.874967,-0.799977499999998,1.539549,0.3269277,0.04627081,0.89012,-15.83701,-27.7972,-15.59586
30.225958824,2.12364,-0.3880802,1.783915,0.3395849,0.05198136,0.8828917,-15.83701,-27.7972,-15.59586
30.235844612,2.434481,-0.03502529,1.600641,0.3439524,0.05944233,0.8939202,-15.83701,-27.7972,-15.59586
30.2457304,2.434481,0.2003446,1.600641,0.3478246,0.06199165,0.9020873,-15.83701,-27.7972,-15.59586
30.255616665,2.620985,0.2591871,1.478458,0.348819,0.06880699,0.902054,-15.83701,-27.7972,-15.59586
30.265502453,2.869658,-0.0938677799999998,1.295184,0.3473487,0.0664111,0.9044691,-15.83103,-28.18242,-15.97968
30.275388241,3.553508,0.02381719,1.295184,0.3381266,0.06543384,0.9030208,-15.83103,-28.18242,-15.97968
30.285274506,3.367003,-0.03502529,1.295184,0.3284208,0.06793091,0.9058827,-15.83103,-28.18242,-15.97968
30.295160294,3.180499,0.02381719,1.295184,0.3221398,0.07024866,0.8972072,-15.83103,-28.18242,-15.97968
30.305046082,2.80749,0.1415022,1.478458,0.3197379,0.07407712,0.8923759,-15.83103,-28.18242,-15.97968
30.314932346,2.620985,0.612241999999999,1.295184,0.3280236,0.08329843,0.8913769,-15.4527,-27.43182,-15.98171
30.324818611,2.372312,1.318352,1.173001,0.3314393,0.08715852,0.8894376,-15.4527,-27.43182,-15.98171
30.334704876,2.558817,1.906777,0.989726799999999,0.3285501,0.0994602,0.8975478,-15.4527,-27.43182,-15.98171
30.344590664,2.372312,2.495202,0.989726799999999,0.3329263,0.1023876,0.8984998,-15.4527,-27.43182,-15.98171
30.354476929,2.061472,3.083626,0.4399042,0.3300439,0.1116598,0.8994116,-15.4527,-27.43182,-15.98171
30.364362717,1.377622,3.318996,0.1344473,0.3198804,0.1174657,0.8955233,-16.58957,-27.03003,-15.62363
30.374248505,0.818108400000001,3.201311,-0.2321011,0.3155153,0.1204392,0.8983888,-16.58957,-27.03003,-15.62363
30.38413477,0.3829313,3.142469,-0.598649399999998,0.3125936,0.1140355,0.8931277,-16.58957,-27.03003,-15.62363
30.394020557,0.1342586,2.965941,-0.904106400000002,0.3062838,0.1130525,0.8916827,-16.58957,-27.03003,-15.62363
30.403906345,-0.1765822,2.377517,-1.026289,0.3086829,0.1087443,0.8969974,-16.58957,-27.03003,-15.62363
30.41626358,-0.673927500000001,1.847934,-1.51502,0.3057578,0.1013668,0.8917412,-15.45869,-27.04661,-15.59789
30.426149845,-1.482114,1.847934,-1.698295,0.3052719,0.09888265,0.8883868,-15.45869,-27.04661,-15.59789
30.436035633,-2.041627,1.494879,-2.064843,0.3057556,0.09839474,0.8883898,-15.45869,-27.04661,-15.59789
30.445922375,-2.476804,1.259509,-2.3703,0.3076763,0.09205341,0.8879431,-15.45869,-27.04661,-15.59789
30.455808163,-2.2903,0.671084500000001,-2.492483,0.3120022,0.08385298,0.8937605,-15.45869,-27.04661,-15.59789
30.465693951,-1.419945,0.4357146,-2.675757,0.3124571,0.07707792,0.8966808,-15.45338,-27.80988,-15.9764
30.475580216,-0.922600200000001,0.02381719,-2.79794,0.3187483,0.07369997,0.8995905,-15.45338,-27.80988,-15.9764
30.485466004,-0.673927500000001,-0.03502529,-3.042305,0.3109676,0.0708224,0.9015199,-15.45338,-27.80988,-15.9764
30.495351791,-0.984768300000001,-0.3292377,-3.042305,0.3109235,0.06015272,0.9044593,-15.45338,-27.80988,-15.9764
30.505238056,-1.109105,-0.2115527,-2.79794,0.3104286,0.05473973,0.9006387,-15.45338,-27.80988,-15.9764
30.515123844,-1.046937,-0.0938677799999998,-2.736848,0.3094501,0.05081012,0.8982529,-15.83035,-27.80436,-15.98498
30.525010109,-0.860432000000003,0.4357146,-2.309208,0.3147729,0.0444333,0.8958865,-15.83035,-27.80436,-15.98498
30.534895897,-0.3009185,0.5533996,-2.003752,0.3167281,0.04434317,0.8901182,-15.83035,-27.80436,-15.98498
30.544781685,0.1342586,0.906454499999998,-1.453929,0.3142876,0.04144785,0.8915728,-15.83035,-27.80436,-15.98498
30.55466795,0.7559403,1.082982,-1.209563,0.3191413,0.04442467,0.8958915,-15.83035,-27.80436,-15.98498
30.564553738,1.191117,1.141824,-0.720832200000002,0.3138219,0.04978444,0.8953775,-15.45937,-27.42467,-15.59259
30.574439526,1.937135,1.141824,-0.5375581,0.312338,0.0454839,0.9006876,-15.45937,-27.42467,-15.59259
30.58432579,1.937135,1.141824,-0.4764667,0.3074971,0.05287681,0.9059349,-15.45937,-27.42467,-15.59259
30.594211578,1.626294,1.082982,-0.2321011,0.3060805,0.06258266,0.9034796,-15.45937,-27.42467,-15.59259
30.604097366,1.066781,0.729926999999997,-0.2931925,0.3008109,0.07857616,0.8976218,-15.45937,-27.42467,-15.59259
30.613983631,0.9424447,0.4357146,-0.04882693,0.3046967,0.07805277,0.8957052,-15.45407,-28.18794,-15.9711
30.623869896,1.004613,0.1415022,0.0733558600000001,0.306671,0.0867996,0.8947014,-15.45407,-28.18794,-15.9711
30.636227131,1.688463,-0.03502529,0.25663,0.3129705,0.08983826,0.9033498,-15.45407,-28.18794,-15.9711
30.646113396,2.310144,-0.0938677799999998,0.3177214,0.3124772,0.08789861,0.9038399,-15.45407,-28.18794,-15.9711
30.655999184,2.620985,-0.03502529,0.1344473,0.308128,0.09375781,0.9042863,-15.06907,-27.44451,-16.36224
30.665885448,2.185808,-0.03502529,0.0733558600000001,0.3081545,0.1000594,0.9023308,-15.06907,-27.44451,-16.36224
30.675771236,1.501958,-0.2115527,0.1955387,0.3072014,0.1024385,0.8984703,-15.06907,-27.44451,-16.36224
30.685657024,0.880276599999999,-0.799977499999998,0.1955387,0.3067268,0.1028688,0.8946203,-15.06907,-27.44451,-16.36224
30.695543289,0.7559403,-1.035347,0.3177214,0.3145002,0.1042999,0.89366,-15.06907,-27.44451,-16.36224
30.705429077,0.9424447,-0.85882,0.25663,0.3188612,0.1028449,0.8946342,-15.13857,-27.43643,-15.97456
30.715314865,1.191117,-0.85882,0.1955387,0.320796,0.09989777,0.8932085,-15.13857,-27.43643,-15.97456
30.72520113,1.128949,-0.4469227,0.3177214,0.3178951,0.1008271,0.8898341,-15.13857,-27.43643,-15.97456
30.735086918,0.693772100000003,-0.5057651,0.745361200000002,0.3125435,0.09793033,0.8908044,-15.13857,-27.43643,-15.97456
30.744973659,0.1342586,-0.85882,0.806452599999999,0.3115444,0.09413016,0.8970745,-15.13857,-27.43643,-15.97456
30.754859447,-0.1765822,-0.917662500000002,0.562087,0.3071744,0.09365185,0.897072,-15.07574,-27.43735,-15.97313
30.764745235,-0.3630867,-1.09419,0.25663,0.3081044,0.08494962,0.9014453,-15.07574,-27.43735,-15.97313
30.7746315,-0.5495912,-1.09419,0.1344473,0.3120179,0.09072058,0.8970923,-15.07574,-27.43735,-15.97313
30.784517288,-0.922600200000001,-1.153032,0.0733558600000001,0.3192856,0.08730476,0.8975987,-15.07574,-27.43735,-15.97313
30.794403076,-1.233441,-0.799977499999998,-0.1099183,0.3226584,0.08048798,0.898118,-15.07574,-27.43735,-15.97313
30.804289341,-1.792954,-0.1527103,-0.1099183,0.3226691,0.0839038,0.8985816,-15.46783,-27.79437,-15.13332
30.814175129,-1.730786,0.2591871,0.1955387,0.3119841,0.07998618,0.8957037,-15.46783,-27.79437,-15.13332
30.824060917,-1.60645,0.788769499999999,0.25663,0.3090618,0.07607478,0.8942773,-15.46783,-27.79437,-15.13332
30.833947182,-1.233441,1.082982,0.4399042,0.3124543,0.07659815,0.8971641,-15.46783,-27.79437,-15.13332
30.84383297,-0.860432000000003,1.200667,0.745361200000002,0.3153326,0.06983987,0.9015298,-15.46783,-27.79437,-15.13332
30.856191158,-1.233441,1.259509,0.745361200000002,0.3129464,0.07854499,0.8971549,-15.46005,-27.80272,-15.58729
30.866076946,-1.419945,0.906454499999998,0.806452599999999,0.3134425,0.08295532,0.8990568,-15.46005,-27.80272,-15.58729
30.875962734,-1.792954,0.847612000000001,0.3177214,0.3144291,0.08484366,0.895201,-15.46005,-27.80272,-15.58729
30.885848999,-1.792954,0.788769499999999,0.1344473,0.3144483,0.08870327,0.8927768,-15.46005,-27.80272,-15.58729
30.895734787,-1.855123,0.847612000000001,-0.1099183,0.3139578,0.09022979,0.8970969,-15.46005,-27.80272,-15.58729
30.905620575,-2.2903,0.5533996,-0.4153753,0.3081181,0.08187691,0.8913615,-15.45338,-27.80988,-15.9764
30.91550684,-2.476804,0.4357146,-0.4764667,0.3061564,0.07305097,0.8870755,-15.45338,-27.80988,-15.9764
30.925392628,-2.911981,0.0826596800000002,-0.843015,0.3124531,0.07660534,0.8976449,-15.45338,-27.80988,-15.9764
30.935278416,-2.663309,-0.799977499999998,-0.904106400000002,0.3090087,0.06247623,0.8967506,-15.45338,-27.80988,-15.9764
30.94516468,-1.979459,-1.035347,-0.843015,0.3147811,0.05483178,0.9073761,-15.45338,-27.80988,-15.9764
30.955050468,-1.109105,-1.211875,-0.904106400000002,0.3118841,0.05623365,0.9030375,-15.83701,-27.7972,-15.59586
30.964936256,-1.171273,-1.035347,-1.270655,0.3211118,0.06215228,0.90927,-15.83701,-27.7972,-15.59586
30.974822521,-1.419945,-0.5057651,-0.843015,0.32355,0.06506197,0.9087771,-15.83701,-27.7972,-15.59586
30.984708309,-1.792954,0.0826596800000002,-0.843015,0.3201626,0.06599943,0.905883,-15.83701,-27.7972,-15.59586
30.994594097,-1.730786,0.788769499999999,-0.659740900000002,0.314827,0.06101106,0.8972456,-15.83701,-27.7972,-15.59586
31.004480362,-1.730786,1.024139,-0.4764667,0.3095026,0.06391454,0.8953012,-15.4527,-27.43182,-15.98171
31.01436615,-1.295609,1.141824,-0.2931925,0.3007472,0.05957085,0.8967559,-15.4527,-27.43182,-15.98171
31.024252892,-1.419945,1.200667,-0.1710097,0.3041605,0.06543626,0.8986538,-15.4527,-27.43182,-15.98171
31.03413868,-1.171273,0.847612000000001,-0.1710097,0.3065655,0.05810568,0.8972509,-15.4527,-27.43182,-15.98171
31.044024944,-1.046937,0.3768721,-0.04882693,0.3065632,0.05911554,0.8996503,-15.4527,-27.43182,-15.98171
31.053910732,-0.673927500000001,-0.5646076,0.01226447,0.3070536,0.06157089,0.9010813,-15.46005,-27.80272,-15.58729
31.066267967,0.1342586,-1.623772,0.1955387,0.319167,0.05819581,0.9049595,-15.46005,-27.80272,-15.58729
31.076153755,0.5694358,-1.741457,-0.2931925,0.3172626,0.07090342,0.9077786,-15.46005,-27.80272,-15.58729
31.08604002,0.4450994,-1.859142,-0.598649399999998,0.3148601,0.07523321,0.9039066,-15.46005,-27.80272,-15.58729
31.095925808,0.1964268,-2.153355,-0.659740900000002,0.3105009,0.07418884,0.8986168,-15.46005,-27.80272,-15.58729
31.105811596,0.1964268,-2.624094,-0.5375581,0.317763,0.06583163,0.894339,-15.4527,-27.43182,-15.98171
31.115697861,1.004613,-2.624094,-0.3542839,0.3143371,0.06004532,0.8977308,-15.4527,-27.43182,-15.98171
31.125584126,2.061472,-2.03567,-0.2931925,0.3167636,0.05655999,0.892942,-15.4527,-27.43182,-15.98171
31.13547039,2.80749,-1.270717,-0.1710097,0.325985,0.06102496,0.8996628,-15.4527,-27.43182,-15.98171
31.145356178,2.745321,-0.741135099999998,0.0733558600000001,0.3259996,0.06590881,0.9006,-15.4527,-27.43182,-15.98171
31.155242443,2.558817,-0.5057651,0.3788128,0.3304092,0.07808104,0.9010244,-15.45338,-27.80988,-15.9764
31.165128231,2.247976,-0.3880802,0.4399042,0.3353313,0.09406159,0.8956591,-15.45338,-27.80988,-15.9764
31.175014019,1.750631,-0.4469227,0.1955387,0.334848,0.0990255,0.9018854,-15.45338,-27.80988,-15.9764
31.184900284,1.626294,-0.2703952,0.1955387,0.3450488,0.100946,0.9014065,-15.45338,-27.80988,-15.9764
31.194786072,1.377622,0.02381719,0.25663,0.3499426,0.1111335,0.8994368,-15.45338,-27.80988,-15.9764
31.20467186,0.693772100000003,0.1415022,0.01226447,0.3485048,0.1070394,0.8859901,-15.4527,-27.43182,-15.98171
31.214558125,0.1342586,0.2003446,0.0733558600000001,0.3533361,0.09920992,0.8841115,-15.4527,-27.43182,-15.98171
31.224443913,0.0720904500000002,0.906454499999998,-0.4153753,0.3455328,0.0924943,0.8899076,-15.4527,-27.43182,-15.98171
31.234329701,0.1342586,1.553722,-0.965197799999999,0.3416345,0.087124,0.8884875,-15.4527,-27.43182,-15.98171
31.244215965,0.1964268,2.318674,-1.392838,0.3362913,0.09064385,0.8951966,-15.4527,-27.43182,-15.98171
31.254101753,-0.3009185,2.554044,-1.759386,0.3251321,0.09362355,0.8975734,-15.4527,-27.43182,-15.98171
31.263987541,-0.922600200000001,2.612886,-2.248117,0.3207717,0.09358184,0.8942022,-15.4527,-27.43182,-15.98171
31.273874283,-1.171273,2.730572,-2.675757,0.3222232,0.09559867,0.8990029,-15.4527,-27.43182,-15.98171
31.286231518,-1.109105,2.671729,-3.042305,0.3134673,0.08976539,0.8985415,-15.4527,-27.43182,-15.98171
31.296117783,-0.798263799999999,2.554044,-3.164488,0.3158844,0.09131491,0.9047884,-15.4527,-27.43182,-15.98171
31.306003571,-0.984768300000001,2.318674,-3.042305,0.3091304,0.1005228,0.9008868,-15.45338,-27.80988,-15.9764
31.315889359,-1.295609,1.906777,-2.859031,0.3101033,0.1034929,0.9042394,-15.45338,-27.80988,-15.9764
31.325775623,-1.855123,1.436037,-2.492483,0.3057175,0.09714247,0.9023427,-15.45338,-27.80988,-15.9764
31.335661411,-2.103795,0.788769499999999,-2.064843,0.298402,0.08543416,0.899989,-15.45338,-27.80988,-15.9764
31.345547199,-2.165963,0.1415022,-1.270655,0.2876894,0.07124031,0.8937966,-15.45338,-27.80988,-15.9764
31.355433464,-2.041627,-0.1527103,-0.5375581,0.282309,0.06305188,0.8991219,-15.14592,-27.80733,-15.58013
31.365319252,-2.165963,-0.2703952,-0.1710097,0.2740437,0.05270566,0.8900274,-15.14592,-27.80733,-15.58013
31.37520504,-1.979459,-0.682292600000002,0.1344473,0.2827421,0.04297823,0.8920101,-15.14592,-27.80733,-15.58013
31.385091782,-1.917291,-0.85882,0.562087,0.2832349,0.04243279,0.8881661,-15.14592,-27.80733,-15.58013
31.39497757,-1.730786,-1.270717,0.928635399999997,0.2943849,0.0434925,0.8953872,-15.14592,-27.80733,-15.58013
31.404863834,-1.295609,-1.32956,1.11191,0.3030944,0.04165689,0.9040629,-15.44603,-27.43898,-16.37082
31.414749622,0.0720904500000002,-1.506087,1.417367,0.3098941,0.04460111,0.9064604,-15.44603,-27.43898,-16.37082
31.42463541,1.874967,-1.153032,1.356275,0.3128097,0.04756018,0.9093343,-15.44603,-27.43898,-16.37082
31.434521675,2.620985,-0.917662500000002,1.478458,0.3118875,0.05919848,0.905908,-15.44603,-27.43898,-16.37082
31.444407463,2.247976,-0.2703952,1.478458,0.3060915,0.07246543,0.9130481,-15.44603,-27.43898,-16.37082
31.454293251,0.818108400000001,0.02381719,1.234092,0.3104796,0.07979695,0.9154208,-15.1319,-27.44359,-16.36367
31.464179516,-0.984768300000001,0.3768721,1.600641,0.309531,0.08314277,0.9110744,-15.1319,-27.44359,-16.36367
31.474065304,-2.041627,1.259509,1.661732,0.308119,0.088838,0.9009447,-15.1319,-27.44359,-16.36367
31.483951092,-2.538972,1.553722,1.906098,0.3027991,0.0946991,0.90139,-15.1319,-27.44359,-16.36367
31.496309281,-1.917291,1.259509,2.45592,0.2979521,0.09566101,0.8999368,-15.1319,-27.44359,-16.36367
31.506195068,-0.487423,0.906454499999998,2.45592,0.2993868,0.09081743,0.9018866,-15.1319,-27.44359,-16.36367
31.516081333,0.880276599999999,0.788769499999999,2.639194,0.2920859,0.08498846,0.9019077,-15.1319,-27.44359,-16.36367
31.525967121,1.128949,0.729926999999997,2.333737,0.2979071,0.08201212,0.8990439,-15.1319,-27.44359,-16.36367
31.535852909,0.4450994,0.3768721,1.967189,0.3008119,0.08155537,0.9014542,-15.1319,-27.44359,-16.36367
31.545739174,-0.984768300000001,0.2003446,1.173001,0.3119994,0.08237776,0.8928061,-15.1319,-27.44359,-16.36367
31.555624962,-2.165963,-0.0938677799999998,-0.1710097,0.3207035,0.07360984,0.8938222,-15.14524,-27.42927,-15.58544
31.56551075,-2.849813,-0.2703952,-0.965197799999999,0.33234,0.07267045,0.8976874,-15.14524,-27.42927,-15.58544
31.575397015,-2.911981,-0.85882,-1.331746,0.328926,0.06730637,0.8967489,-15.14524,-27.42927,-15.58544
31.585282802,-2.60114,-0.917662500000002,-1.637203,0.3298835,0.05743606,0.8881432,-15.14524,-27.42927,-15.58544
31.59516859,-1.855123,-1.270717,-1.698295,0.3283811,0.04578818,0.890605,-15.14524,-27.42927,-15.58544
31.605054855,-0.798263799999999,-1.153032,-1.637203,0.320567,0.03466128,0.8944997,-14.76161,-27.44196,-15.96598
31.614940643,0.0720904500000002,-1.211875,-1.453929,0.3132779,0.0332364,0.8959414,-14.76161,-27.44196,-15.96598
31.624827385,0.693772100000003,-1.270717,-1.148472,0.3088586,0.0226185,0.9017611,-14.76161,-27.44196,-15.96598
31.634713173,1.253286,-1.211875,-0.5375581,0.3040274,0.0274616,0.8993265,-14.76161,-27.44196,-15.96598
31.644599438,1.564126,-1.035347,-0.1710097,0.3035752,0.0416847,0.905987,-14.76161,-27.44196,-15.96598
31.654485226,1.377622,-0.799977499999998,0.0733558600000001,0.3070135,0.05236924,0.9044942,-15.45475,-28.566,-15.96579
31.664371014,1.501958,-0.3880802,0.1344473,0.3186946,0.06259368,0.9058986,-15.45475,-28.566,-15.96579
31.674257278,1.501958,0.4945571,0.5009956,0.3264888,0.07036229,0.9053873,-15.45475,-28.566,-15.96579
31.684143066,1.688463,1.318352,0.4399042,0.3240909,0.07366785,0.898154,-15.45475,-28.566,-15.96579
31.694028854,1.688463,1.612564,0.4399042,0.3183231,0.07929258,0.8827295,-15.45475,-28.566,-15.96579
31.703915119,2.247976,1.436037,0.25663,0.3124783,0.07346074,0.8827524,-15.4527,-27.43182,-15.98171
31.716272354,3.242667,0.612241999999999,0.4399042,0.3143654,0.06583834,0.8943351,-15.4527,-27.43182,-15.98171
31.726158619,4.672534,-0.0938677799999998,0.3177214,0.305124,0.06299242,0.8981864,-15.4527,-27.43182,-15.98171
31.736044884,4.983376,-0.741135099999998,0.6842698,0.298337,0.06842698,0.9024795,-15.4527,-27.43182,-15.98171
31.745930672,4.921207,-1.32956,0.6842698,0.2968882,0.07286272,0.9058219,-15.4527,-27.43182,-15.98171
31.755816936,4.050853,-1.8003,0.989726799999999,0.2974177,0.08054505,0.8985698,-15.4527,-27.43182,-15.98171
31.765702724,2.620985,-1.682615,1.11191,0.3032705,0.08533108,0.8937431,-15.4527,-27.43182,-15.98171
31.775588512,0.880276599999999,-1.447245,1.356275,0.3047335,0.08628052,0.8922972,-15.4527,-27.43182,-15.98171
31.785474777,-0.487423,-1.211875,1.845006,0.3081532,0.08663131,0.8836427,-15.4527,-27.43182,-15.98171
31.795360565,0.0720904500000002,-1.56493,2.150463,0.3100445,0.07549961,0.8885103,-15.4527,-27.43182,-15.98171
31.805246353,1.937135,-1.623772,2.150463,0.3177511,0.06540941,0.8986694,-15.4527,-27.43182,-15.98171
31.815132618,4.361694,-1.388402,2.089372,0.3177526,0.07087369,0.9058557,-15.4527,-27.43182,-15.98171
31.825018406,5.232048,-0.917662500000002,1.722824,0.3143922,0.08059777,0.9043599,-15.4527,-27.43182,-15.98171
31.834904194,4.113021,-0.5057651,1.356275,0.3110088,0.0820078,0.9005016,-15.4527,-27.43182,-15.98171
31.844790459,1.253286,-0.4469227,1.234092,0.3110659,0.09309251,0.8927509,-15.82898,-27.04824,-15.99559
31.854676723,-1.357777,-0.3880802,0.806452599999999,0.311614,0.1081222,0.8883473,-15.82898,-27.04824,-15.99559
31.864562988,-2.787645,-0.2703952,0.6842698,0.3125795,0.1096458,0.8926689,-15.82898,-27.04824,-15.99559
31.874448776,-2.2903,-0.4469227,0.928635399999997,0.3164247,0.1004221,0.8951246,-15.82898,-27.04824,-15.99559
31.884334564,-0.5495912,-0.5057651,1.11191,0.3178349,0.09623089,0.9081322,-15.82898,-27.04824,-15.99559
31.894220829,1.066781,-1.035347,0.867544000000001,0.3274954,0.08804867,0.9158792,-15.82299,-27.43346,-16.3794
31.904106617,2.061472,-1.56493,0.928635399999997,0.3313933,0.08595657,0.9067568,-15.82299,-27.43346,-16.3794
31.913992405,1.937135,-1.917985,0.4399042,0.3338373,0.08484845,0.8981086,-15.82299,-27.43346,-16.3794
31.92387867,0.693772100000003,-1.976827,0.0733558600000001,0.334337,0.08127344,0.887066,-15.82299,-27.43346,-16.3794
31.936235905,-0.922600200000001,-1.270717,-0.1099183,0.3391727,0.07640157,0.8875771,-15.82299,-27.43346,-16.3794
31.946122646,-1.668618,-0.4469227,-0.04882693,0.3377115,0.07494362,0.8875828,-15.45937,-27.42467,-15.59259
31.956008434,-2.041627,0.2003446,0.0733558600000001,0.3323085,0.06092619,0.8938994,-15.45937,-27.42467,-15.59259
31.965894222,-1.544282,0.4945571,0.25663,0.3332469,0.05664963,0.9011359,-15.45937,-27.42467,-15.59259
31.975780487,-0.984768300000001,0.965297,0.1955387,0.3259352,0.05238218,0.907882,-15.45937,-27.42467,-15.59259
31.985666275,-0.5495912,1.200667,0.3177214,0.3308179,0.05268693,0.8963439,-15.45937,-27.42467,-15.59259
31.995552063,-0.114414,1.200667,0.0733558600000001,0.3313093,0.05911697,0.903045,-15.4527,-27.43182,-15.98171
32.005438328,-0.05224587,1.553722,-0.04882693,0.334746,0.06831909,0.9001168,-15.4527,-27.43182,-15.98171
32.015324116,-0.1765822,2.083304,-0.4153753,0.3259838,0.06202762,0.9015814,-15.4527,-27.43182,-15.98171
32.025209904,-0.114414,2.377517,-0.5375581,0.3245487,0.06438612,0.8962777,-15.4527,-27.43182,-15.98171
32.035096169,-0.2387504,2.612886,-0.5375581,0.3148423,0.06439812,0.8957857,-15.4527,-27.43182,-15.98171
32.044981956,-0.5495912,2.671729,-0.904106400000002,0.3105005,0.06971283,0.8923875,-15.14592,-27.80733,-15.58013
32.054867744,-0.2387504,2.612886,-0.843015,0.3041776,0.06433292,0.8900029,-15.14592,-27.80733,-15.58013
32.064754009,0.00992228700000002,2.024462,-0.965197799999999,0.2978265,0.05515093,0.8938894,-15.14592,-27.80733,-15.58013
32.074639797,0.3207631,1.612564,-0.843015,0.296385,0.05904219,0.8933872,-15.14592,-27.80733,-15.58013
32.084526539,0.631603899999999,1.141824,-0.843015,0.3080357,0.06149706,0.8962735,-15.14592,-27.80733,-15.58013
32.094412327,0.693772100000003,0.906454499999998,-1.026289,0.3114916,0.07256786,0.8880459,-15.44603,-27.43898,-16.37082
32.104298592,0.5694358,1.318352,-0.904106400000002,0.3095386,0.07762095,0.9000412,-15.44603,-27.43898,-16.37082
32.11418438,0.880276599999999,1.141824,-0.965197799999999,0.3139618,0.08771595,0.8918195,-15.44603,-27.43898,-16.37082
32.124070168,1.128949,1.024139,-1.270655,0.313008,0.0905964,0.8889183,-15.44603,-27.43898,-16.37082
32.133956432,1.43979,0.906454499999998,-1.637203,0.3139594,0.09071674,0.8970945,-15.44603,-27.43898,-16.37082
32.14384222,1.43979,0.5533996,-1.881569,0.3091205,0.09162831,0.8922752,-15.4527,-27.43182,-15.98171
32.156199455,1.066781,0.4945571,-2.248117,0.3139465,0.08731531,0.8975925,-15.4527,-27.43182,-15.98171
32.166086197,0.631603899999999,0.5533996,-2.248117,0.3120044,0.08483407,0.8942364,-15.4527,-27.43182,-15.98171
32.175971985,0.2585949,0.5533996,-2.3703,0.3134425,0.08195984,0.897619,-15.4527,-27.43182,-15.98171
32.185857773,-0.05224587,0.788769499999999,-2.3703,0.3080779,0.07665713,0.9005253,-15.4527,-27.43182,-15.98171
32.195744038,-0.2387504,0.906454499999998,-2.3703,0.3099955,0.07580885,0.9091883,-15.45338,-27.80988,-15.9764
32.205629826,-0.1765822,0.906454499999998,-2.309208,0.3061295,0.07769959,0.9048461,-15.45338,-27.80988,-15.9764
32.21551609,-0.05224587,1.082982,-2.003752,0.3066173,0.07469784,0.8995717,-15.45338,-27.80988,-15.9764
32.225401878,-0.2387504,1.318352,-2.003752,0.3085774,0.07905495,0.8981091,-15.45338,-27.80988,-15.9764
32.235287666,-0.5495912,1.494879,-1.94266,0.3037012,0.07124462,0.8962193,-15.45338,-27.80988,-15.9764
32.245173931,-0.798263799999999,1.553722,-1.576112,0.3056365,0.06879167,0.8952721,-15.44671,-27.81704,-16.36552
32.255059719,-0.5495912,1.141824,-1.576112,0.2983563,0.07129113,0.8986176,-15.44671,-27.81704,-16.36552
32.264945507,-0.2387504,0.847612000000001,-1.51502,0.300772,0.06737638,0.8976783,-15.44671,-27.81704,-16.36552
32.274831772,0.1342586,0.4357146,-1.270655,0.2958996,0.06302502,0.8991376,-15.44671,-27.81704,-16.36552
32.28471756,0.2585949,0.02381719,-1.026289,0.2968527,0.06263684,0.9058735,-15.44671,-27.81704,-16.36552
32.294604302,0.0720904500000002,-0.6234501,-0.904106400000002,0.2978359,0.06255582,0.9005849,-15.1319,-27.44359,-16.36367
32.304490089,-0.114414,-1.153032,-0.4764667,0.304142,0.05908438,0.8972432,-15.1319,-27.44359,-16.36367
32.314375877,-0.1765822,-1.09419,-0.3542839,0.3061056,0.06142898,0.8914625,-15.1319,-27.44359,-16.36367
32.324262142,-0.1765822,-1.211875,0.01226447,0.3099852,0.06044741,0.8914719,-15.1319,-27.44359,-16.36367
32.33414793,-0.2387504,-1.211875,0.0733558600000001,0.3162971,0.06738884,0.9005815,-15.1319,-27.44359,-16.36367
32.344033718,0.3829313,-0.976504999999998,0.3177214,0.3167756,0.06942197,0.9063428,-15.45338,-27.80988,-15.9764
32.353919983,1.066781,-0.976504999999998,0.25663,0.310954,0.06792229,0.9029773,-15.45338,-27.80988,-15.9764
32.366277218,2.247976,-1.211875,0.3177214,0.3191979,0.07143687,0.9111446,-15.45338,-27.80988,-15.9764
32.37616396,2.80749,-1.32956,0.1955387,0.3235855,0.07528786,0.9087255,-15.45338,-27.80988,-15.9764
32.386049748,2.745321,-1.623772,-0.04882693,0.3202173,0.08008493,0.9034073,-15.45338,-27.80988,-15.9764
32.395935536,1.937135,-1.56493,0.1344473,0.3280025,0.08592014,0.9038676,-15.07642,-27.81541,-15.96782
32.4058218,0.9424447,-1.153032,0.25663,0.3260911,0.08822208,0.8947163,-15.07642,-27.81541,-15.96782
32.415707588,0.4450994,-0.85882,0.1344473,0.3202412,0.08092938,0.8947465,-15.07642,-27.81541,-15.96782
32.425593376,0.4450994,-0.5646076,0.562087,0.3115084,0.08141919,0.8937722,-15.07642,-27.81541,-15.96782
32.435479641,1.004613,-0.2703952,0.806452599999999,0.3071015,0.07470407,0.9000531,-15.07642,-27.81541,-15.96782
32.445365429,1.937135,-0.3880802,0.867544000000001,0.304655,0.06736871,0.8976828,-15.13857,-27.43643,-15.97456
32.455251217,2.683153,-0.6234501,0.806452599999999,0.3085487,0.07177233,0.8995886,-15.13857,-27.43643,-15.97456
32.465137482,2.683153,-0.682292600000002,0.867544000000001,0.3085849,0.07751501,0.8928267,-15.13857,-27.43643,-15.97456
32.47502327,2.247976,-0.917662500000002,1.11191,0.3100438,0.07998282,0.8952206,-15.13857,-27.43643,-15.97456
32.484909058,1.253286,-0.85882,1.050818,0.3071078,0.07615772,0.8995649,-15.13857,-27.43643,-15.97456
32.494795799,0.3829313,-0.976504999999998,1.173001,0.3042539,0.08325912,0.885579,-15.45338,-27.80988,-15.9764
32.504681587,-0.2387504,-0.976504999999998,1.356275,0.3105477,0.08633374,0.8966318,-15.45338,-27.80988,-15.9764
32.514567852,-0.3009185,-0.85882,1.417367,0.3071467,0.08636202,0.8980706,-15.45338,-27.80988,-15.9764
32.52445364,0.00992228700000002,-0.917662500000002,1.356275,0.3032535,0.08444349,0.8995186,-15.45338,-27.80988,-15.9764
32.534339905,0.0720904500000002,-0.799977499999998,1.417367,0.305665,0.08403804,0.9052945,-15.45338,-27.80988,-15.9764
32.544225693,-0.487423,-0.5057651,1.417367,0.3076139,0.08548067,0.9043275,-15.45338,-27.80988,-15.9764
32.554111481,-0.798263799999999,-0.3292377,0.928635399999997,0.3144233,0.08786601,0.9019186,-15.45338,-27.80988,-15.9764
32.563997745,-1.171273,0.1415022,0.867544000000001,0.3124976,0.09274651,0.9023727,-15.45338,-27.80988,-15.9764
32.573883533,-1.109105,0.1415022,0.623178399999998,0.3217288,0.09366622,0.8999739,-15.45338,-27.80988,-15.9764
32.586241245,-1.233441,0.2591871,0.1955387,0.3212513,0.09461232,0.8980449,-15.45338,-27.80988,-15.9764
32.59612751,-1.544282,0.612241999999999,-0.3542839,0.3231991,0.09506665,0.8961211,-15.82966,-27.4263,-15.99029
32.606013298,-2.165963,0.729926999999997,-0.720832200000002,0.3222244,0.09459601,0.8970843,-15.82966,-27.4263,-15.99029
32.615899086,-2.911981,0.906454499999998,-1.148472,0.3178272,0.08732202,0.8985588,-15.82966,-27.4263,-15.99029
32.625785351,-3.28499,0.5533996,-1.453929,0.3153682,0.07608388,0.8957273,-15.82966,-27.4263,-15.99029
32.635671139,-3.657999,0.612241999999999,-1.453929,0.3158451,0.07464366,0.8971779,-15.82966,-27.4263,-15.99029
32.645556927,-3.160654,0.3768721,-1.881569,0.3124193,0.06786188,0.8991319,-15.82898,-27.04824,-15.99559
32.655443191,-2.60114,0.1415022,-1.820477,0.3089803,0.06066507,0.9058973,-15.82898,-27.04824,-15.99559
32.665328979,-1.730786,-0.03502529,-1.94266,0.3114011,0.05721569,0.9035128,-15.82898,-27.04824,-15.99559
32.675214767,-1.419945,-0.03502529,-2.064843,0.3152525,0.0474547,0.9026047,-15.82898,-27.04824,-15.99559
32.685101032,-1.544282,-0.1527103,-2.248117,0.3162635,0.05366802,0.8948798,-15.82898,-27.04824,-15.99559
32.694987774,-1.668618,-0.2115527,-2.187026,0.318649,0.04745518,0.9030895,-16.2073,-27.79883,-15.99356
32.704873562,-2.041627,-0.3292377,-2.125934,0.3201029,0.04647122,0.9026151,-16.2073,-27.79883,-15.99356
32.71475935,-2.2903,0.4945571,-2.064843,0.3181446,0.03861918,0.8983244,-16.2073,-27.79883,-15.99356
32.724645615,-1.668618,0.965297,-1.759386,0.3147447,0.03864028,0.8992822,-16.2073,-27.79883,-15.99356
32.734531403,-0.984768300000001,1.200667,-1.51502,0.3084382,0.03863117,0.8978323,-16.2073,-27.79883,-15.99356
32.74441719,-0.2387504,0.965297,-1.148472,0.2967925,0.03962808,0.897814,-14.76024,-26.68584,-15.97658
32.754303455,0.3207631,0.4945571,-1.026289,0.3079899,0.05233137,0.9020908,-14.76024,-26.68584,-15.97658
32.764189243,0.2585949,0.02381719,-0.720832200000002,0.3089769,0.05969118,0.9059022,-14.76024,-26.68584,-15.97658
32.774075031,0.5072676,-0.1527103,-0.5375581,0.3216149,0.06154212,0.901098,-14.76024,-26.68584,-15.97658
32.783961296,1.315454,-0.1527103,-0.598649399999998,0.3327734,0.06205016,0.9039936,-14.76024,-26.68584,-15.97658
32.793847084,1.315454,-0.03502529,-0.2931925,0.3327853,0.06147691,0.8982255,-15.45202,-27.05376,-15.98701
32.806205273,1.750631,0.2591871,0.01226447,0.325537,0.0667614,0.8924195,-15.45202,-27.05376,-15.98701
32.816091061,1.812799,0.4945571,-0.1099183,0.3167821,0.0619164,0.8929149,-15.45202,-27.05376,-15.98701
32.825976849,1.501958,0.5533996,-0.1099183,0.3085205,0.06100196,0.8957957,-15.45202,-27.05376,-15.98701
32.835863113,1.253286,0.2003446,-0.04882693,0.3090173,0.06192455,0.8924252,-15.44603,-27.43898,-16.37082
32.845748901,1.066781,0.2003446,-0.04882693,0.3075651,0.06239999,0.8914592,-15.44603,-27.43898,-16.37082
32.855634689,1.812799,-0.5646076,-0.04882693,0.3099935,0.06686401,0.8972105,-15.44603,-27.43898,-16.37082
32.865520954,2.620985,-0.6234501,0.01226447,0.3129272,0.07368991,0.8981412,-15.44603,-27.43898,-16.37082
32.875406742,3.242667,-0.5646076,-0.04882693,0.3231511,0.08392441,0.9000248,-15.44603,-27.43898,-16.37082
32.885293484,3.429171,-0.6234501,0.0733558600000001,0.3324195,0.09655242,0.8990096,-15.44603,-27.43898,-16.37082
32.895179272,3.11833,0.0826596800000002,0.3177214,0.3383038,0.1130827,0.897971,-15.44603,-27.43898,-16.37082
32.90506506,2.185808,0.3768721,0.25663,0.3417054,0.1135486,0.8970107,-15.44603,-27.43898,-16.37082
32.914951324,1.066781,0.906454499999998,0.3177214,0.3387988,0.1145138,0.8960406,-15.44603,-27.43898,-16.37082
32.924837112,0.1964268,1.318352,0.562087,0.3285709,0.1067932,0.8994344,-15.44603,-27.43898,-16.37082
32.9347229,-0.05224587,1.553722,0.1955387,0.3188435,0.1034541,0.9028068,-15.44603,-27.43898,-16.37082
32.944609165,-0.114414,1.789092,-0.04882693,0.3159133,0.09561114,0.8989956,-15.44603,-27.43898,-16.37082
32.954494953,-0.3630867,1.494879,-0.3542839,0.3115253,0.08728414,0.8951854,-15.44603,-27.43898,-16.37082
32.964380741,-0.1765822,0.847612000000001,-0.720832200000002,0.3110242,0.08240844,0.8947285,-15.44603,-27.43898,-16.37082
32.974267006,-0.3009185,0.788769499999999,-1.148472,0.3119926,0.08042997,0.8928159,-15.44603,-27.43898,-16.37082
32.984152794,-0.673927500000001,0.788769499999999,-1.51502,0.3183256,0.08972703,0.8966236,-15.44535,-27.06092,-16.37613
32.994039536,-0.984768300000001,0.847612000000001,-2.003752,0.3236607,0.09023938,0.8990316,-15.44535,-27.06092,-16.37613
33.003925323,-1.357777,1.082982,-2.492483,0.3261068,0.09608513,0.8994858,-15.44535,-27.06092,-16.37613
33.016282558,-1.233441,1.494879,-2.675757,0.3299756,0.09367868,0.9019069,-15.44535,-27.06092,-16.37613
33.026168823,-1.668618,2.024462,-2.614666,0.3183255,0.09470436,0.9038122,-15.44535,-27.06092,-16.37613
33.036054611,-2.041627,2.024462,-2.431391,0.315378,0.08896025,0.9100898,-15.13857,-27.43643,-15.97456
33.045940399,-2.103795,1.612564,-2.309208,0.3095131,0.07429863,0.905829,-15.13857,-27.43643,-15.97456
33.055826664,-1.979459,1.377194,-2.003752,0.3085112,0.06902324,0.9111446,-15.13857,-27.43643,-15.97456
33.065712452,-1.730786,0.906454499999998,-1.637203,0.2992858,0.06309022,0.9039503,-15.13857,-27.43643,-15.97456
33.075599194,-1.357777,0.4945571,-1.087381,0.2934212,0.05190915,0.9044811,-15.13857,-27.43643,-15.97456
33.085484982,-1.357777,0.2003446,-0.843015,0.2939057,0.04693804,0.8977738,-15.13258,-27.82165,-16.35837
33.09537077,-1.046937,0.02381719,-0.4153753,0.2861063,0.04069499,0.9026057,-15.13258,-27.82165,-16.35837
33.105257034,-0.736095699999999,-0.1527103,0.01226447,0.2861449,0.04443236,0.8920066,-15.13258,-27.82165,-16.35837
33.115142822,-0.487423,0.02381719,0.25663,0.2904872,0.03961178,0.8958833,-15.13258,-27.82165,-16.35837
33.125029087,0.00992228700000002,0.3180296,0.1955387,0.2992702,0.05224075,0.8948677,-15.13258,-27.82165,-16.35837
33.134914875,0.00992228700000002,0.965297,0.1344473,0.3056064,0.06649358,0.9044212,-15.13993,-28.19255,-15.96395
33.144800663,-0.1765822,1.082982,0.3177214,0.3051708,0.07712826,0.8990768,-15.13993,-28.19255,-15.96395
33.154686928,-0.4252549,1.318352,0.3177214,0.306655,0.08889122,0.9043092,-15.13993,-28.19255,-15.96395
33.164572716,-0.984768300000001,1.200667,0.1955387,0.3081261,0.1002391,0.9143529,-15.13993,-28.19255,-15.96395
33.174458504,-1.419945,1.259509,0.1955387,0.3076657,0.1020728,0.9066483,-15.13993,-28.19255,-15.96395
33.184345245,-1.979459,1.082982,0.25663,0.3061616,0.08894251,0.9076748,-15.1319,-27.44359,-16.36367
33.194231033,-1.730786,1.024139,0.1344473,0.300297,0.07975237,0.911081,-15.1319,-27.44359,-16.36367
33.204117298,-1.419945,0.612241999999999,-0.04882693,0.3007424,0.06756336,0.9101813,-15.1319,-27.44359,-16.36367
33.214003086,-1.419945,0.3768721,-0.1099183,0.2982981,0.05921815,0.9054115,-15.1319,-27.44359,-16.36367
33.223888874,-1.109105,-0.03502529,-0.04882693,0.2929296,0.05145193,0.9064065,-15.1319,-27.44359,-16.36367
33.236246109,-0.984768300000001,-0.2703952,0.0733558600000001,0.2914944,0.05580137,0.9039783,-14.75494,-27.44912,-16.35509
33.246132374,-1.046937,-0.2703952,0.0733558600000001,0.293979,0.06538448,0.8938333,-14.75494,-27.44912,-16.35509
33.256019116,-1.60645,-0.3880802,-0.04882693,0.2993284,0.06630468,0.8909492,-14.75494,-27.44912,-16.35509
33.265904903,-1.171273,-0.4469227,-0.4153753,0.3041431,0.05907719,0.8967623,-14.75494,-27.44912,-16.35509
33.275790691,-0.4252549,-0.741135099999998,-0.659740900000002,0.3167619,0.05308663,0.8886313,-14.75494,-27.44912,-16.35509
33.285676956,0.818108400000001,-1.153032,-0.5375581,0.3182113,0.0531269,0.8915182,-15.13258,-27.82165,-16.35837
33.295562744,1.626294,-1.506087,-0.2931925,0.3138378,0.0516747,0.8915206,-15.13258,-27.82165,-16.35837
33.305448532,1.937135,-1.8003,0.25663,0.3172049,0.04489387,0.8944442,-15.13258,-27.82165,-16.35837
33.315334797,1.564126,-1.976827,0.745361200000002,0.3070596,0.05357118,0.887175,-15.13258,-27.82165,-16.35837
33.325220585,0.5694358,-1.682615,1.050818,0.3026832,0.05363015,0.8905361,-15.13258,-27.82165,-16.35837
33.335106373,0.2585949,-1.859142,1.356275,0.2982741,0.04493847,0.8949034,-15.1319,-27.44359,-16.36367
33.344992638,0.1964268,-1.56493,1.173001,0.3002132,0.04893089,0.9016183,-15.1319,-27.44359,-16.36367
33.354878426,0.5072676,-1.211875,0.928635399999997,0.3055217,0.04513264,0.9088573,-15.1319,-27.44359,-16.36367
33.364765167,1.315454,-1.32956,0.806452599999999,0.3118246,0.04914519,0.9175008,-15.1319,-27.44359,-16.36367
33.374650955,2.185808,-1.388402,0.806452599999999,0.3113446,0.04264325,0.905991,-15.1319,-27.44359,-16.36367
33.384536743,3.180499,-1.917985,0.928635399999997,0.3138134,0.05033612,0.899703,-15.13993,-28.19255,-15.96395
33.394423008,4.175189,-2.27104,1.050818,0.3187126,0.05302526,0.8847864,-15.13993,-28.19255,-15.96395
33.404308796,4.610366,-1.8003,1.234092,0.3260044,0.05990724,0.8900501,-15.13993,-28.19255,-15.96395
33.414195061,4.423862,-0.976504999999998,1.539549,0.3255467,0.06421161,0.8847377,-15.13993,-28.19255,-15.96395
33.424080849,3.429171,-0.0938677799999998,1.661732,0.3236095,0.07215042,0.8943137,-15.13993,-28.19255,-15.96395
33.433966637,2.372312,0.5533996,1.845006,0.3148759,0.07911439,0.9029253,-15.4527,-27.43182,-15.98171
33.443852902,1.43979,0.729926999999997,1.967189,0.3119443,0.08023789,0.9125346,-15.4527,-27.43182,-15.98171
33.456210613,1.43979,0.4357146,1.967189,0.301735,0.07588269,0.9130259,-15.4527,-27.43182,-15.98171
33.466096401,2.185808,-0.3292377,2.150463,0.3002919,0.08028248,0.9139639,-15.4527,-27.43182,-15.98171
33.475982666,2.80749,-0.5646076,2.02828,0.3080756,0.07667151,0.9014871,-15.4527,-27.43182,-15.98171
33.485868454,3.429171,-0.85882,2.02828,0.3081612,0.08857191,0.883152,-15.13258,-27.82165,-16.35837
33.495754242,3.180499,-0.917662500000002,1.722824,0.3091431,0.09646182,0.8898462,-15.13258,-27.82165,-16.35837
33.505640507,2.434481,-1.09419,1.661732,0.3086962,0.1031865,0.8835597,-15.13258,-27.82165,-16.35837
33.515526295,2.061472,-1.035347,1.661732,0.3106105,0.09837796,0.8879145,-15.13258,-27.82165,-16.35837
33.525412083,1.999303,-1.447245,1.295184,0.3193155,0.09458019,0.8956383,-15.13258,-27.82165,-16.35837
33.535298348,2.12364,-1.270717,0.928635399999997,0.3202796,0.09163502,0.8942115,-15.13788,-27.05837,-15.97986
33.545185089,2.12364,-0.976504999999998,0.745361200000002,0.3275341,0.08879963,0.900967,-15.13788,-27.05837,-15.97986
33.555070877,1.688463,-0.682292600000002,0.5009956,0.322216,0.08917487,0.8927833,-15.13788,-27.05837,-15.97986
33.564956665,0.9424447,-0.5057651,0.4399042,0.3246388,0.09168392,0.8980636,-15.13788,-27.05837,-15.97986
33.57484293,0.5694358,-0.3880802,0.5009956,0.3251246,0.09715444,0.9057313,-15.13788,-27.05837,-15.97986
33.584728718,0.693772100000003,-0.6234501,0.3177214,0.3197562,0.08839276,0.9052885,-15.13326,-28.19971,-16.35307
33.594614506,1.315454,-0.85882,0.1955387,0.3211957,0.08998737,0.9144196,-15.13326,-28.19971,-16.35307
33.60450077,1.315454,-0.799977499999998,0.1955387,0.3221661,0.08451395,0.9067535,-15.13326,-28.19971,-16.35307
33.614386558,1.191117,-0.6234501,0.25663,0.3211819,0.07663842,0.9010212,-15.13326,-28.19971,-16.35307
33.624272346,0.9424447,-0.4469227,0.3788128,0.3260136,0.07228947,0.9039342,-15.13326,-28.19971,-16.35307
33.634159088,0.631603899999999,0.02381719,0.1344473,0.3240723,0.06731596,0.8967433,-15.44671,-27.81704,-16.36552
33.644044876,0.2585949,0.847612000000001,0.1344473,0.3245888,0.0725923,0.8914271,-15.44671,-27.81704,-16.36552
33.653931141,-0.3630867,1.200667,-0.04882693,0.3255709,0.07351394,0.8880571,-15.44671,-27.81704,-16.36552
33.663816929,-0.4252549,2.024462,0.01226447,0.3217189,0.08377626,0.8899246,-15.44671,-27.81704,-16.36552
33.676174164,-0.5495912,2.083304,0.01226447,0.314892,0.0760273,0.8918796,-15.44671,-27.81704,-16.36552
33.686060429,-0.736095699999999,2.142147,-0.2321011,0.3153767,0.07851862,0.8957149,-15.44603,-27.43898,-16.37082
33.695946217,-0.3009185,1.847934,-0.1710097,0.3110038,0.07855602,0.8976334,-15.44603,-27.43898,-16.37082
33.705832004,-0.487423,1.789092,-0.5375581,0.3080876,0.07609827,0.8957189,-15.44603,-27.43898,-16.37082
33.715718746,-0.5495912,1.494879,-0.659740900000002,0.3119779,0.07952799,0.8976297,-15.44603,-27.43898,-16.37082
33.725604534,-1.046937,1.377194,-0.965197799999999,0.3139472,0.08183663,0.8894446,-15.44603,-27.43898,-16.37082
33.735490799,-1.60645,1.436037,-1.148472,0.3129695,0.08586358,0.8980798,-15.13258,-27.82165,-16.35837
33.745376587,-1.917291,1.259509,-1.453929,0.3134697,0.08477366,0.8903911,-15.13258,-27.82165,-16.35837
33.755262375,-2.2903,1.082982,-1.759386,0.3173306,0.08341302,0.8976161,-15.13258,-27.82165,-16.35837
33.76514864,-1.917291,1.024139,-1.881569,0.3134096,0.07818652,0.9058138,-15.13258,-27.82165,-16.35837
33.775034428,-1.295609,1.200667,-2.248117,0.3143465,0.06944114,0.9073018,-15.13258,-27.82165,-16.35837
33.784920216,-0.984768300000001,1.259509,-2.736848,0.31383,0.06516027,0.9140557,-15.82231,-27.0554,-16.38471
33.79480648,-0.922600200000001,1.436037,-3.225579,0.3225543,0.06124023,0.9136045,-15.82231,-27.0554,-16.38471
33.804692745,-1.295609,1.730249,-3.592128,0.3186747,0.06023087,0.9107197,-15.82231,-27.0554,-16.38471
33.81457901,-1.482114,1.847934,-3.836493,0.3113769,0.04890883,0.9016311,-15.82231,-27.0554,-16.38471
33.824464798,-1.171273,1.671407,-4.019767,0.3001946,0.04357448,0.9016454,-15.82231,-27.0554,-16.38471
33.834351063,-0.3009185,1.553722,-3.897585,0.3006948,0.04148909,0.8925189,-16.2073,-27.79883,-15.99356
33.844236851,0.7559403,1.494879,-3.469945,0.3103843,0.03561216,0.8915978,-16.2073,-27.79883,-15.99356
33.854122639,1.066781,2.142147,-3.042305,0.3118199,0.03573873,0.9002554,-16.2073,-27.79883,-15.99356
33.864008903,1.004613,2.789414,-2.614666,0.3113532,0.04109611,0.9002278,-16.2073,-27.79883,-15.99356
33.873894691,0.5072676,2.965941,-2.125934,0.303116,0.04251572,0.8963639,-16.2073,-27.79883,-15.99356
33.886252403,0.00992228700000002,2.789414,-1.698295,0.2880954,0.04735739,0.8924749,-15.13122,-27.06553,-16.36898
33.896138668,0.00992228700000002,2.200989,-1.270655,0.288131,0.05459686,0.8881102,-15.13122,-27.06553,-16.36898
33.906024456,0.1964268,1.847934,-0.781923700000001,0.2930094,0.06438375,0.8919136,-15.13122,-27.06553,-16.36898
33.915910244,0.3829313,1.494879,-0.4153753,0.2896309,0.07123648,0.8937988,-15.13122,-27.06553,-16.36898
33.925796509,0.7559403,1.141824,-0.1099183,0.2872007,0.07126285,0.8952386,-15.45338,-27.80988,-15.9764
33.935682297,1.066781,0.729926999999997,0.25663,0.2862446,0.07515316,0.8947371,-15.45338,-27.80988,-15.9764
33.945568085,1.066781,0.1415022,0.5009956,0.2833593,0.08394552,0.896132,-15.45338,-27.80988,-15.9764
33.95545435,1.253286,-0.4469227,0.562087,0.2833656,0.08440371,0.894206,-15.45338,-27.80988,-15.9764
33.965340137,1.812799,-0.917662500000002,0.5009956,0.2988901,0.08690843,0.900944,-15.45338,-27.80988,-15.9764
33.975226879,1.874967,-1.682615,0.3177214,0.299379,0.08489497,0.8966264,-15.13258,-27.82165,-16.35837
33.985112667,1.874967,-2.27104,0.4399042,0.3046987,0.08699761,0.907683,-15.13258,-27.82165,-16.35837
33.994998932,1.626294,-2.74178,0.1955387,0.3071291,0.08597577,0.9048054,-15.13258,-27.82165,-16.35837
34.00488472,1.066781,-2.624094,0.01226447,0.3124541,0.0815755,0.9043528,-15.13258,-27.82165,-16.35837
34.014770508,0.4450994,-2.27104,0.1955387,0.3144142,0.08593261,0.9028903,-15.13258,-27.82165,-16.35837
34.024656773,0.3207631,-1.917985,0.1955387,0.3163065,0.07678466,0.9101524,-14.75494,-27.44912,-16.35509
34.034542561,0.5694358,-1.506087,0.1955387,0.3182588,0.07920117,0.9091806,-14.75494,-27.44912,-16.35509
34.044428349,0.9424447,-1.153032,0.3177214,0.3206936,0.07914604,0.9058172,-14.75494,-27.44912,-16.35509
34.054314613,1.004613,-0.917662500000002,0.5009956,0.3158607,0.08648859,0.9076983,-14.75494,-27.44912,-16.35509
34.064200878,1.564126,-1.035347,0.3788128,0.3202343,0.08296346,0.9005073,-14.75494,-27.44912,-16.35509
34.074087143,2.12364,-0.5646076,0.562087,0.3241241,0.08589904,0.9019396,-15.1319,-27.44359,-16.36367
34.083972931,2.12364,-0.3880802,0.623178399999998,0.3241053,0.0845245,0.9077176,-15.1319,-27.44359,-16.36367
34.093858719,2.12364,-0.3880802,0.5009956,0.3202257,0.08550607,0.9077082,-15.1319,-27.44359,-16.36367
34.106216431,1.750631,-0.4469227,0.3788128,0.3197708,0.09128566,0.9033502,-15.1319,-27.44359,-16.36367
34.116102219,1.688463,-0.4469227,0.1955387,0.3187758,0.08596712,0.9057806,-15.1319,-27.44359,-16.36367
34.125988007,1.128949,0.02381719,0.4399042,0.3173385,0.08535361,0.8971254,-15.44671,-27.81704,-16.36552
34.135874748,0.631603899999999,0.2591871,0.4399042,0.3061585,0.07801393,0.8933024,-15.44671,-27.81704,-16.36552
34.145760536,0.4450994,0.2003446,0.745361200000002,0.3017914,0.07602444,0.8899411,-15.44671,-27.81704,-16.36552
34.155646801,0.3829313,0.02381719,0.989726799999999,0.2998244,0.07071501,0.8928512,-15.44671,-27.81704,-16.36552
34.165532589,0.7559403,-0.2703952,1.173001,0.2998058,0.06535859,0.8928782,-15.44671,-27.81704,-16.36552
