Time (s),Gyroscope X (deg/s),Gyroscope Y (deg/s),Gyroscope Z (deg/s),Accelerometer X (g),Accelerometer Y (g),Accelerometer Z (g),Magnetometer X (uT),Magnetometer Y (uT),Magnetometer Z (uT)
0,0.8287475,0.5977212,0.8644169,0.9862079,-0.0998202,-0.1643533,-32.08666,-39.07006,6.829612
0.019991875,1.321013,0.5977212,0.7424754,0.9946046,-0.1060593,-0.1739379,-32.08666,-39.07006,6.829612
0.022490501,1.197947,0.7757784,0.8644169,0.9966719,-0.1123269,-0.1729827,-32.08666,-39.07006,6.829612
0.032486439,0.7672142,0.8351307,0.4985923,0.9969695,-0.1020504,-0.1658072,-32.47095,-38.68925,7.211805
0.042481899,-0.094251,1.07254,0.3766508,1.002639,-0.1184254,-0.1619843,-32.47095,-38.68925,7.211805
0.052477837,-0.3403839,1.191245,0.2547093,1.012969,-0.123571,-0.1624796,-32.47095,-38.68925,7.211805
0.062473297,-0.4019172,1.488007,-0.05014454,1.016396,-0.1245059,-0.1658353,-32.47095,-38.68925,7.211805
0.072469234,-0.4634504,1.606712,-0.2940276,1.011303,-0.1130273,-0.1749223,-32.47095,-38.68925,7.211805
0.082465172,-0.4634504,1.666064,-0.4769399,1.010358,-0.1144467,-0.1686988,-32.47095,-38.68925,7.211805
0.092460632,-0.7095833,1.903473,-0.4159691,1.000008,-0.108391,-0.1749039,-32.47095,-38.68925,7.211805
0.10245657,-0.4634504,2.022178,-0.4159691,0.9927207,-0.1094761,-0.1715408,-32.47095,-38.68925,7.211805
0.112451553,-0.5249836,2.200235,-0.4769399,1.005508,-0.1154311,-0.1595972,-32.47095,-38.68925,7.211805
0.122447968,-0.4019172,2.140883,-0.5379106,1.006013,-0.1164062,-0.1610335,-32.47095,-38.68925,7.211805
0.132443905,-0.094251,2.140883,-0.5379106,1.008018,-0.1191988,-0.1519434,-32.47095,-38.68925,7.211805
0.142438889,0.02881546,1.844121,-0.6598521,1.009966,-0.1191691,-0.1529039,-32.47095,-38.68925,7.211805
0.152434826,0.2749484,1.488007,-1.208589,1.007567,-0.1211866,-0.1557707,-32.47095,-38.68925,7.211805
0.162430286,0.2134152,1.191245,-1.208589,0.9978639,-0.12323,-0.1457032,-32.47095,-38.68925,7.211805
0.172426224,0.5210813,1.013188,-1.330531,1.003835,-0.129981,-0.1528905,-32.47095,-38.68925,7.211805
0.182422161,1.07488,0.7757784,-1.818297,1.00277,-0.1251382,-0.1524113,-32.47095,-38.68925,7.211805
0.192417622,1.25948,0.716426,-1.757326,0.9995545,-0.1096648,-0.1538454,-32.47095,-38.68925,7.211805
0.202413559,1.44408,0.4790165,-1.757326,0.9995714,-0.1106802,-0.1586309,-32.47095,-38.68925,7.211805
0.21240902,1.321013,0.5383689,-1.635384,0.9994438,-0.1038751,-0.1581539,-32.47095,-38.68925,7.211805
0.222404957,0.9518139,0.4790165,-1.452472,0.9987732,-0.09420028,-0.1615052,-32.83586,-39.07623,6.75955
0.232400894,0.705681,0.7757784,-1.208589,0.9935496,-0.1016628,-0.1691514,-32.83586,-39.07623,6.75955
0.242396355,0.7672142,0.8351307,-1.086647,1.002402,-0.1057868,-0.16103,-32.83586,-39.07623,6.75955
0.252392292,0.8287475,0.8351307,-1.025677,0.9989369,-0.1029615,-0.1634175,-32.83586,-39.07623,6.75955
0.262387276,0.705681,1.07254,-0.6598521,1.000976,-0.107785,-0.1638985,-32.83586,-39.07623,6.75955
0.27238369,0.3364816,1.131893,-0.5988814,1.001145,-0.0907606,-0.1624674,-32.53761,-38.31644,6.37081
0.282379627,-0.6480501,1.191245,-0.4769399,1.002201,-0.0951132,-0.1624681,-32.53761,-38.31644,6.37081
0.292374611,-1.017249,1.250597,-0.2940276,1.006878,-0.1105446,-0.1596009,-32.53761,-38.31644,6.37081
0.302370548,-1.263382,1.369302,-0.3549984,1.007017,-0.1177432,-0.1500277,-32.53761,-38.31644,6.37081
0.312366009,-1.017249,1.250597,-0.3549984,1.012337,-0.115747,-0.1557804,-32.53761,-38.31644,6.37081
0.322361946,-0.4019172,1.013188,-0.4159691,1.005859,-0.1081131,-0.1572068,-32.16625,-38.30709,7.147594
0.332357884,-0.03271778,1.131893,-0.5988814,1.005151,-0.09650396,-0.1615158,-32.16625,-38.30709,7.147594
0.342353344,-0.4634504,1.013188,-0.4159691,0.9974055,-0.09901214,-0.1533658,-32.16625,-38.30709,7.147594
0.352349281,-1.140316,0.8351307,-0.1720861,0.993196,-0.1082931,-0.1495275,-32.16625,-38.30709,7.147594
0.362345219,-1.140316,0.5977212,-0.05014454,0.9912003,-0.1059555,-0.1552675,-32.16625,-38.30709,7.147594
0.372340679,-1.201849,0.4196641,0.07179698,1.001413,-0.104738,-0.1504999,-32.15839,-38.68745,7.149622
0.382336617,-1.078783,-0.1145072,0.07179698,1.002331,-0.1018305,-0.1533737,-32.15839,-38.68745,7.149622
0.392332077,-0.9557163,-0.05515479,0.07179698,1.002359,-0.103279,-0.1524162,-32.15839,-38.68745,7.149622
0.402328014,-1.632582,-0.5299737,0.2547093,0.997057,-0.1062555,-0.1476204,-32.15839,-38.68745,7.149622
0.412323952,-1.694115,-0.7080309,0.1937385,1.003011,-0.1119823,-0.149065,-32.15839,-38.68745,7.149622
0.422319412,-1.078783,-0.9454404,0.4376215,1.005059,-0.1173399,-0.1548102,-33.29835,-37.93517,7.137224
0.43231535,-0.8326498,-0.9454404,0.4376215,1.001786,-0.09903526,-0.1653378,-33.29835,-37.93517,7.137224
0.442310333,-2.063314,-0.9454404,0.3766508,1.003193,-0.09607425,-0.1634267,-33.29835,-37.93517,7.137224
0.452306271,-2.186381,-0.8267356,0.31568,0.9913818,-0.1157014,-0.1586154,-33.29835,-37.93517,7.137224
0.462302685,-0.9557163,-0.8267356,0.1327677,0.995927,-0.1244507,-0.1686711,-33.29835,-37.93517,7.137224
0.472297669,0.2749484,-0.7673832,0.07179698,0.9962534,-0.1155876,-0.1567096,-33.28879,-38.3188,6.75225
0.482293606,0.1518819,-0.6486785,-0.1111153,1.004921,-0.110071,-0.1567261,-33.28879,-38.3188,6.75225
0.492289543,-0.094251,-0.5299737,-0.2330568,1.00241,-0.1063033,-0.1643799,-33.28879,-38.3188,6.75225
0.502285004,-0.2173175,-0.2925643,0.01082622,1.001355,-0.1019199,-0.1610292,-33.28879,-38.3188,6.75225
0.512280941,-0.3403839,-0.05515479,0.1937385,1.00754,-0.09407971,-0.1672634,-33.28879,-38.3188,6.75225
0.522276402,-0.5865169,-0.1738595,0.1937385,1.000849,-0.1009932,-0.1648571,-32.16456,-38.31036,6.760592
0.532272339,-0.5865169,0.004197581,0.3766508,0.989076,-0.0968435,-0.1638805,-32.16456,-38.31036,6.760592
0.542268276,-0.5249836,-0.1145072,0.4985923,0.9885331,-0.09396928,-0.1672303,-32.16456,-38.31036,6.760592
0.552263737,-0.5865169,0.004197581,0.6205339,0.9891954,-0.1031321,-0.1610076,-32.16456,-38.31036,6.760592
0.562259674,-0.4019172,-0.1738595,0.8644169,0.9848195,-0.1037352,-0.1643499,-32.16456,-38.31036,6.760592
0.572255612,-0.5249836,0.004197581,0.8644169,0.9898557,-0.1123563,-0.161485,-32.90618,-38.69634,6.757059
0.582251072,-0.894183,0.1229023,0.9253877,0.9962084,-0.1131413,-0.1547958,-32.90618,-38.69634,6.757059
0.592247009,-1.078783,0.004197581,0.8644169,0.9993039,-0.1223261,-0.1562346,-32.90618,-38.69634,6.757059
0.602241993,-0.894183,0.06354995,0.8644169,1.006537,-0.1183176,-0.1586411,-32.90618,-38.69634,6.757059
0.612238407,-0.894183,-0.05515479,0.5595631,1.008384,-0.1129753,-0.1629529,-32.90618,-38.69634,6.757059
0.622234344,-0.094251,0.2416071,0.7424754,1.005902,-0.1106209,-0.1658206,-32.52975,-38.6968,6.372838
0.632229328,0.2134152,0.1822547,0.6205339,1.00325,-0.09892738,-0.156726,-32.52975,-38.6968,6.372838
0.642225265,-0.094251,0.06354995,0.5595631,1.003765,-0.1003487,-0.1538551,-32.52975,-38.6968,6.372838
0.652221203,0.09034869,0.1822547,0.5595631,1.007465,-0.1158871,-0.1605576,-32.52975,-38.6968,6.372838
0.662216663,0.5210813,0.06354995,0.5595631,1.004919,-0.11015,-0.1653404,-32.52975,-38.6968,6.372838
0.672212601,0.2134152,0.1822547,0.4985923,0.9980986,-0.1102979,-0.1667642,-32.53592,-38.31971,5.983808
0.682208061,-0.4019172,0.2416071,0.4985923,0.9971623,-0.1122119,-0.1614978,-32.53592,-38.31971,5.983808
0.692203998,-1.140316,0.2416071,0.4985923,0.9942766,-0.1141996,-0.1600565,-32.53592,-38.31971,5.983808
0.702199936,-1.140316,0.1229023,0.6205339,0.9993585,-0.1252495,-0.1571911,-32.53592,-38.31971,5.983808
0.712195396,-1.078783,0.06354995,0.3766508,1.007098,-0.1221634,-0.1552911,-32.53592,-38.31971,5.983808
0.722191334,-0.894183,0.004197581,0.01082622,1.005265,-0.1286309,-0.1677292,-32.90618,-38.69634,6.757059
0.732187271,-0.3403839,-0.1738595,-0.2330568,1.003649,-0.1203667,-0.1638999,-32.90618,-38.69634,6.757059
0.742182732,-0.4634504,0.06354995,-0.4769399,1.005066,-0.1178871,-0.1615101,-32.90618,-38.69634,6.757059
0.752178669,-0.4019172,0.06354995,-0.5988814,0.9981447,-0.1127092,-0.1648494,-32.90618,-38.69634,6.757059
0.762174606,-0.2173175,0.3603118,-0.7817937,0.993789,-0.1142267,-0.1619699,-32.90618,-38.69634,6.757059
0.772170067,-0.3403839,0.1229023,-0.5988814,0.9922629,-0.1108816,-0.1648396,-32.53144,-38.69353,6.759839
0.782166004,-0.094251,0.3009594,-0.5988814,0.9921099,-0.1025578,-0.1576629,-32.53144,-38.69353,6.759839
0.792160988,-0.094251,0.4196641,-0.2330568,0.9941033,-0.1049701,-0.1600586,-32.53144,-38.69353,6.759839
0.802156925,-0.2173175,0.2416071,-0.3549984,1.007752,-0.1051864,-0.1600823,-32.53144,-38.69353,6.759839
0.812153339,0.09034869,0.2416071,0.01082622,1.006669,-0.0993326,-0.1552962,-32.53144,-38.69353,6.759839
0.822148323,0.09034869,-0.05515479,0.1937385,1.013561,-0.1031015,-0.1572215,-32.89832,-39.07669,6.759087
0.83214426,-0.094251,-0.3519166,0.4376215,1.006763,-0.1041244,-0.1481165,-32.89832,-39.07669,6.759087
0.842140198,-0.7711166,-0.6486785,0.31568,1.001032,-0.1106689,-0.1605478,-32.89832,-39.07669,6.759087
0.852135658,-0.4019172,-0.7673832,0.6205339,1.001557,-0.1125716,-0.1571982,-32.89832,-39.07669,6.759087
0.862131596,0.02881546,-0.9454404,0.6815046,0.9961424,-0.1098068,-0.1619752,-32.5363,-38.37983,6.371148
0.872127533,-0.4634504,-0.9454404,0.6815046,0.9936045,-0.104573,-0.1686722,-32.5363,-38.37983,6.371148
0.882122993,-0.2788507,-0.7673832,0.8034461,0.9883271,-0.1090902,-0.172969,-32.5363,-38.37983,6.371148
0.892118931,0.09034869,-0.5893261,0.7424754,0.9849903,-0.113048,-0.1734408,-32.5363,-38.37983,6.371148
0.902114868,-0.03271778,-0.5893261,0.4985923,0.9924724,-0.1220673,-0.1662728,-32.5363,-38.37983,6.371148
0.912110329,0.02881546,-0.3519166,0.4376215,0.9866738,-0.1245765,-0.1624335,-32.90618,-38.69634,6.757059
0.922106266,0.09034869,-0.2925643,0.2547093,0.9993832,-0.1267902,-0.1662836,-32.90618,-38.69634,6.757059
0.932101727,0.02881546,-0.1738595,0.2547093,1.008505,-0.1192199,-0.1552943,-32.90618,-38.69634,6.757059
0.942097664,-0.03271778,-0.2925643,0.07179698,1.011998,-0.1234893,-0.1514706,-32.90618,-38.69634,6.757059
0.952093601,0.09034869,-0.05515479,-0.1720861,1.014495,-0.1012621,-0.1706237,-32.90618,-38.69634,6.757059
0.962089062,-0.03271778,0.1822547,-0.1720861,1.008679,-0.1027734,-0.1639132,-32.90618,-38.69634,6.757059
0.972084999,-0.094251,0.4196641,-0.1111153,1.000258,-0.0957428,-0.1739504,-32.90618,-38.69634,6.757059
0.982080936,-0.03271778,0.6570736,-0.1111153,1.004194,-0.09753424,-0.165821,-32.90618,-38.69634,6.757059
0.99207592,-0.6480501,0.716426,0.2547093,0.9954734,-0.1000836,-0.1600622,-32.90618,-38.69634,6.757059
1.002072334,-0.8326498,0.5383689,0.5595631,0.996078,-0.106424,-0.1638903,-32.90618,-38.69634,6.757059
1.012068272,-0.894183,0.716426,0.4376215,0.9976308,-0.1112439,-0.1629346,-33.29365,-38.0051,6.363558
1.022063255,-1.017249,0.6570736,0.8034461,0.9902967,-0.1099354,-0.1634007,-33.29365,-38.0051,6.363558
1.032059193,-0.8326498,0.716426,0.4985923,0.9880429,-0.1197207,-0.1657871,-33.29365,-38.0051,6.363558
1.042055607,-0.4634504,0.6570736,0.3766508,1.001206,-0.119872,-0.1576743,-33.29365,-38.0051,6.363558
1.052050591,-0.3403839,0.4790165,0.31568,1.012475,-0.1230247,-0.1548216,-33.29365,-38.0051,6.363558
1.062046528,-0.2173175,0.3009594,0.07179698,1.00688,-0.1104744,-0.1519437,-32.91104,-38.38264,6.368367
1.072042465,-0.7711166,0.3009594,-0.05014454,1.00741,-0.1129901,-0.1624726,-32.91104,-38.38264,6.368367
1.082037926,-0.8326498,0.3603118,-0.05014454,1.000562,-0.1116895,-0.1648539,-32.91104,-38.38264,6.368367
1.092033863,-1.017249,0.6570736,-0.1111153,1.000129,-0.1146444,-0.1682024,-32.91104,-38.38264,6.368367
1.1020298,-0.9557163,0.8944831,-0.05014454,0.9953315,-0.1186004,-0.1653216,-32.91104,-38.38264,6.368367
1.112025261,-0.8326498,1.30995,-0.1720861,0.9981712,-0.1141972,-0.1681991,-32.91104,-38.38264,6.368367
1.122021198,-0.8326498,1.547359,-0.3549984,0.9985754,-0.1098376,-0.1705938,-32.91104,-38.38264,6.368367
1.132016659,-1.140316,2.081531,-0.2940276,1.001029,-0.1107742,-0.1720336,-32.91104,-38.38264,6.368367
1.142012596,-1.201849,2.496997,-0.05014454,0.9986216,-0.1122489,-0.168679,-32.91104,-38.38264,6.368367
1.152008534,-1.078783,2.971816,-0.2330568,1.001462,-0.1078193,-0.168685,-32.91104,-38.38264,6.368367
1.162003994,-1.140316,3.505987,-0.05014454,1.003924,-0.1092636,-0.1725176,-32.90488,-38.75973,6.757397
1.171999931,-1.571049,3.862102,0.1327677,1.007575,-0.0960447,-0.1696559,-32.90488,-38.75973,6.757397
1.181995869,-2.74018,4.336921,0.2547093,1.003563,-0.08971462,-0.1596004,-32.90488,-38.75973,6.757397
1.191991329,-3.478579,4.396273,0.1937385,1.003385,-0.1062665,-0.1624673,-32.90488,-38.75973,6.757397
1.201987267,-3.109379,4.396273,0.1937385,1.009742,-0.1333185,-0.1586428,-32.90488,-38.75973,6.757397
1.211983204,-1.694115,4.514977,0.01082622,1.010579,-0.1260304,-0.1605604,-32.54417,-37.99948,6.36912
1.221978188,-1.509515,4.752387,0.01082622,1.004427,-0.1095246,-0.1490682,-32.54417,-37.99948,6.36912
1.231974602,-2.063314,4.633682,-0.2330568,1.002524,-0.1120139,-0.1514571,-32.54417,-37.99948,6.36912
1.241970539,-2.124848,4.455625,0.01082622,1.001007,-0.1091501,-0.1538481,-32.54417,-37.99948,6.36912
1.251965523,-2.370981,4.218216,-0.1720861,0.995099,-0.1058214,-0.1490528,-32.54417,-37.99948,6.36912
1.26196146,-3.109379,3.921454,0.31568,0.9925544,-0.1000272,-0.1476142,-32.15987,-38.38029,5.986926
1.271957398,-4.216978,3.56534,0.4985923,0.9887853,-0.1069049,-0.1476058,-32.15987,-38.38029,5.986926
1.281952858,-3.909311,3.209226,0.5595631,0.988407,-0.1127612,-0.149518,-32.15987,-38.38029,5.986926
1.291948795,-2.678647,2.675054,0.3766508,0.9871127,-0.121446,-0.139942,-32.15987,-38.38029,5.986926
1.301944733,-1.571049,2.259588,0.5595631,0.9981975,-0.1149141,-0.1404415,-32.15987,-38.38029,5.986926
1.311940193,-1.694115,2.081531,0.31568,1.001586,-0.113963,-0.1500192,-33.2841,-38.38873,5.978584
1.321936131,-2.063314,1.962826,0.1937385,1.011366,-0.1156916,-0.1476429,-33.2841,-38.38873,5.978584
1.331932068,-1.878715,1.903473,0.1937385,1.002689,-0.1207049,-0.1457122,-33.2841,-38.38873,5.978584
1.341927528,-1.817181,1.962826,0.1327677,1.006888,-0.1109821,-0.1543364,-33.2841,-38.38873,5.978584
1.351923466,-2.186381,1.962826,-0.1111153,1.005392,-0.1090108,-0.1481128,-33.2841,-38.38873,5.978584
1.361919403,-2.309447,1.666064,-0.1720861,1.001569,-0.1129608,-0.1466694,-32.8998,-38.76954,5.596391
1.371914864,-1.632582,1.606712,-0.1720861,1.004094,-0.1178098,-0.1509798,-32.8998,-38.76954,5.596391
1.381910801,-1.755648,1.784769,-0.3549984,0.9951614,-0.1092656,-0.1538378,-32.8998,-38.76954,5.596391
1.391906738,-1.817181,1.903473,-0.4769399,0.998103,-0.1101575,-0.1514498,-32.8998,-38.76954,5.596391
1.401902199,-2.063314,2.200235,-0.1720861,0.995557,-0.1044072,-0.1547969,-32.8998,-38.76954,5.596391
1.411898136,-2.494047,2.55635,0.1327677,1.000353,-0.1004907,-0.1619849,-32.52505,-38.76673,5.599172
1.421894074,-3.109379,3.031168,-0.05014454,1.009213,-0.1051487,-0.1591277,-32.52505,-38.76673,5.599172
1.431889534,-2.617113,3.56534,0.01082622,1.009855,-0.1134058,-0.1600839,-32.52505,-38.76673,5.599172
1.441885471,-2.494047,4.158864,0.07179698,1.003424,-0.1081349,-0.1543311,-32.52505,-38.76673,5.599172
1.451881409,-2.55558,4.57433,0.2547093,0.9911729,-0.1044982,-0.1552678,-33.29026,-38.01164,5.589555
1.461876392,-2.55558,4.871092,0.4985923,0.981384,-0.1022969,-0.15908,-33.29026,-38.01164,5.589555
1.471872807,-2.92478,5.167854,1.047329,0.979779,-0.09448343,-0.1514219,-33.29026,-38.01164,5.589555
1.481868744,-2.617113,4.989797,1.047329,0.985302,-0.1030993,-0.1490365,-33.29026,-38.01164,5.589555
1.491863728,-1.940248,4.930444,1.291212,0.9961845,-0.1115742,-0.1428318,-33.29026,-38.01164,5.589555
1.501859665,-1.386449,4.752387,1.230241,1.008895,-0.1137441,-0.1418962,-32.90935,-38.38591,5.981365
1.511856079,-1.447982,4.633682,1.352183,1.007776,-0.1059516,-0.1375891,-32.90935,-38.38591,5.981365
1.521851063,-2.432514,4.218216,1.291212,1.007344,-0.1088802,-0.1380662,-32.90935,-38.38591,5.981365
1.531847,-2.678647,4.040159,1.047329,1.010965,-0.1199327,-0.1323267,-32.90935,-38.38591,5.981365
1.541842938,-2.124848,3.743397,0.9863584,1.003679,-0.1209871,-0.1256137,-32.90935,-38.38591,5.981365
1.551838398,-1.817181,3.387283,1.230241,1.004566,-0.1167364,-0.1409308,-32.89641,-38.77608,4.822387
1.561834335,-1.755648,3.149873,1.1083,1.00626,-0.1030879,-0.1399801,-32.89641,-38.77608,4.822387
1.571830273,-1.755648,2.912464,1.1083,0.9932748,-0.1119992,-0.129905,-32.89641,-38.77608,4.822387
1.584324837,-0.5249836,2.675054,1.1083,0.9999787,-0.1318693,-0.138526,-32.89641,-38.77608,4.822387
1.594320297,0.8902807,2.496997,0.7424754,0.9988109,-0.121749,-0.1452266,-32.89641,-38.77608,4.822387
1.604316235,1.936346,2.31894,0.6815046,1.003224,-0.1230627,-0.1390125,-32.52167,-38.77327,4.825168
1.611813069,2.920877,2.437645,0.5595631,1.002985,-0.1105031,-0.1466725,-32.52167,-38.77327,4.825168
1.624307632,2.613211,3.149873,0.5595631,0.9921939,-0.1068726,-0.1514404,-32.52167,-38.77327,4.825168
1.63430357,2.367078,3.743397,0.9253877,0.9978266,-0.09566803,-0.160546,-32.52167,-38.77327,4.825168
1.644299507,1.874812,4.396273,1.352183,0.9974138,-0.09952424,-0.1562371,-32.52167,-38.77327,4.825168
1.654294968,1.197947,5.049149,1.535095,0.9976165,-0.1101495,-0.1495347,-33.65206,-38.40462,4.427796
1.664290905,1.013347,5.58332,1.839949,1.001606,-0.1149038,-0.146669,-33.65206,-38.40462,4.427796
1.674286842,0.5826145,6.176844,1.96189,1.007745,-0.1046084,-0.1500324,-33.65206,-38.40462,4.427796
1.684282303,-0.03271778,6.354901,1.96189,1.007387,-0.111388,-0.14668,-33.65206,-38.40462,4.427796
1.69427824,-0.2173175,6.651663,1.839949,1.00762,-0.1233872,-0.1308843,-33.65206,-38.40462,4.427796
1.704274177,0.705681,7.06713,1.839949,1.021126,-0.1421071,-0.1347316,-33.28349,-38.02472,4.041547
1.714269638,2.182479,7.245187,1.169271,1.023281,-0.1269302,-0.127082,-33.28349,-38.02472,4.041547
1.724265575,2.428612,7.304539,0.8034461,1.018791,-0.1210955,-0.1170256,-33.28349,-38.02472,4.041547
1.734261513,2.490145,7.541948,0.8034461,1.023452,-0.1098224,-0.1165581,-33.28349,-38.02472,4.041547
1.744256973,1.874812,7.126482,0.4985923,1.005906,-0.1097313,-0.1217918,-33.28349,-38.02472,4.041547
1.754252911,1.321013,7.06713,0.8644169,0.9965563,-0.1307896,-0.1193772,-33.27732,-38.4018,4.430577
1.764248848,2.428612,6.948425,0.5595631,1.004504,-0.1389287,-0.1232176,-33.27732,-38.4018,4.430577
1.774244785,3.16701,6.711015,0.3766508,0.9945982,-0.1303599,-0.1212882,-33.27732,-38.4018,4.430577
1.784240246,3.53621,6.711015,0.31568,1.000498,-0.133159,-0.1212978,-33.27732,-38.4018,4.430577
1.794236183,4.028476,6.473606,0.1937385,1.000704,-0.11806,-0.117952,-33.27732,-38.4018,4.430577
1.80423212,3.659276,6.117492,-0.05014454,0.9995927,-0.1107841,-0.1169948,-33.27732,-38.4018,4.430577
1.814227104,3.35161,5.761377,-0.1720861,1.001733,-0.1209334,-0.1155602,-33.27732,-38.4018,4.430577
1.824223518,3.966942,5.227206,-0.2330568,1.005749,-0.1271538,-0.1136513,-33.27732,-38.4018,4.430577
1.834219456,4.274609,4.752387,-0.2940276,1.004179,-0.1213228,-0.1103,-33.27732,-38.4018,4.430577
1.844214439,3.966942,4.218216,-0.2330568,1.005513,-0.1144845,-0.109347,-33.27732,-38.4018,4.430577
1.854210377,3.782343,3.624692,-0.2330568,1.005218,-0.1246951,-0.1093438,-33.64868,-38.41116,3.653793
1.864206314,3.720809,3.268578,0.01082622,1.014392,-0.1200921,-0.1040967,-33.64868,-38.41116,3.653793
1.874201775,4.028476,3.209226,0.01082622,1.013315,-0.1148645,-0.1146248,-33.64868,-38.41116,3.653793
1.884197712,3.35161,2.615702,-0.05014454,1.003399,-0.1058144,-0.1131741,-33.64868,-38.41116,3.653793
1.894193649,2.305545,2.675054,0.1327677,1.010016,-0.1206952,-0.1074389,-33.64868,-38.41116,3.653793
1.90418911,1.813279,2.378292,0.01082622,1.01123,-0.1332399,-0.1002591,-32.91044,-38.01863,4.431329
1.914185047,1.936346,2.140883,-0.2330568,1.000916,-0.129136,-0.1074209,-32.91044,-38.01863,4.431329
1.924180984,1.997879,1.844121,-0.2330568,1.00383,-0.1285837,-0.1064689,-32.91044,-38.01863,4.431329
1.934176445,1.567146,1.488007,-0.2940276,1.007582,-0.1207214,-0.1050418,-32.91044,-38.01863,4.431329
1.944172382,1.25948,1.488007,-0.3549984,1.005171,-0.1223014,-0.113173,-33.65206,-38.40462,4.427796
1.95416832,1.136414,1.488007,-0.3549984,1.011093,-0.1259579,-0.1007394,-33.65206,-38.40462,4.427796
1.964164257,0.7672142,1.250597,-0.4159691,1.006976,-0.1144117,-0.1045638,-33.65206,-38.40462,4.427796
1.974159718,0.705681,1.191245,-0.5379106,1.004995,-0.1388137,-0.1117327,-33.65206,-38.40462,4.427796
1.984155655,1.751746,1.013188,-0.7817937,1.006944,-0.1387533,-0.1093432,-33.65206,-38.40462,4.427796
1.994151592,1.997879,0.7757784,-1.086647,1.006799,-0.1309328,-0.1040806,-33.28349,-38.02472,4.041547
2.004147053,1.321013,0.716426,-0.8427644,1.006385,-0.1091877,-0.1165285,-33.28349,-38.02472,4.041547
2.01414299,0.02881546,0.9538354,-0.7817937,1.008233,-0.103797,-0.1155759,-33.28349,-38.02472,4.041547
2.024138927,-1.078783,0.7757784,-0.4769399,1.00738,-0.1100741,-0.1093514,-33.28349,-38.02472,4.041547
2.034134388,-1.386449,0.5977212,-0.4769399,1.011284,-0.1105312,-0.1146224,-33.28349,-38.02472,4.041547
2.044130325,-1.263382,0.8351307,-0.2940276,1.011036,-0.1231179,-0.1088758,-33.26777,-38.78543,4.045603
2.054126263,0.09034869,0.8944831,-0.5379106,1.009699,-0.1300352,-0.1184432,-33.26777,-38.78543,4.045603
2.064121723,0.5210813,1.013188,-0.5988814,1.006,-0.1144924,-0.1112621,-33.26777,-38.78543,4.045603
2.074117661,-0.094251,0.8944831,-0.7208229,1.007579,-0.1207916,-0.112699,-33.26777,-38.78543,4.045603
2.084113598,-0.1557842,1.013188,-0.8427644,1.008765,-0.1318834,-0.1059981,-33.26777,-38.78543,4.045603
2.094108582,0.5210813,0.9538354,-0.9647059,1.004315,-0.1286443,-0.114127,-33.27563,-38.40507,4.043575
2.104104996,0.5826145,1.07254,-1.391501,0.9999685,-0.1306476,-0.1112474,-33.27563,-38.40507,4.043575
2.114100933,0.5210813,1.07254,-1.26956,1.002733,-0.1224241,-0.1213045,-33.27563,-38.40507,4.043575
2.12409687,0.3364816,1.131893,-0.8427644,1.005906,-0.1097313,-0.1217918,-33.27563,-38.40507,4.043575
2.134091854,-0.6480501,1.547359,-0.9037352,1.010651,-0.1027774,-0.1155804,-33.27563,-38.40507,4.043575
2.144088268,-0.894183,1.903473,-0.5988814,1.012149,-0.1046872,-0.115104,-33.27394,-38.40834,3.656573
2.154084206,-1.017249,1.725416,-0.8427644,1.009499,-0.1193485,-0.1184456,-33.27394,-38.40834,3.656573
2.164079189,-0.9557163,1.844121,-0.8427644,1.011007,-0.1217177,-0.1150976,-33.27394,-38.40834,3.656573
2.174075127,-0.7095833,2.081531,-0.7817937,1.008608,-0.1236869,-0.1127,-33.27394,-38.40834,3.656573
2.184071064,-0.4019172,2.081531,-1.025677,0.9989931,-0.130702,-0.1150743,-33.27394,-38.40834,3.656573
2.194066525,-0.3403839,2.140883,-0.9647059,1.000043,-0.1088577,-0.1198675,-33.64868,-38.41116,3.653793
2.204062462,-1.386449,1.962826,-0.9647059,1.004302,-0.1018783,-0.1098267,-33.64868,-38.41116,3.653793
2.214058399,-2.74018,1.962826,-0.8427644,1.006395,-0.1096471,-0.1136569,-33.64868,-38.41116,3.653793
2.22405386,-2.186381,1.962826,-0.5988814,1.006422,-0.1111263,-0.1160495,-33.64868,-38.41116,3.653793
2.234049797,-2.678647,2.200235,-0.8427644,1.012105,-0.1022013,-0.108883,-33.64868,-38.41116,3.653793
2.244045734,-2.247914,2.675054,-0.7817937,1.006193,-0.1246539,-0.1069526,-32.89302,-38.78262,4.048384
2.254041672,-1.324916,2.378292,-0.6598521,1.008579,-0.1222823,-0.1184432,-32.89302,-38.78262,4.048384
2.264037132,-0.894183,2.734407,-0.9037352,1.011981,-0.1216941,-0.1146207,-32.89302,-38.78262,4.048384
2.27403307,-1.078783,3.031168,-1.086647,1.00803,-0.1188477,-0.1136574,-32.89302,-38.78262,4.048384
2.284029007,-1.201849,3.624692,-0.9647059,1.009317,-0.1096069,-0.1155763,-32.89302,-38.78262,4.048384
2.294024468,-1.571049,3.980806,-1.025677,1.012681,-0.1071064,-0.1151043,-32.89133,-38.78588,3.661382
2.304020405,-1.817181,3.921454,-1.025677,1.009851,-0.1119866,-0.1112695,-32.89133,-38.78588,3.661382
2.314016342,-1.201849,4.158864,-0.9037352,1.005541,-0.1159417,-0.1093466,-32.89133,-38.78588,3.661382
2.324011803,-0.7711166,4.277568,-0.6598521,1.010237,-0.1066468,-0.1127072,-32.89133,-38.78588,3.661382
2.33400774,-1.140316,4.455625,-0.4159691,1.001757,-0.09607974,-0.1079094,-32.89133,-38.78588,3.661382
2.344003677,-1.878715,4.57433,-0.1720861,1.002336,-0.1009277,-0.1079092,-33.64868,-38.41116,3.653793
2.353999615,-2.001781,4.811739,0.2547093,1.001896,-0.1033179,-0.1026435,-33.64868,-38.41116,3.653793
2.363995075,-1.817181,4.811739,0.5595631,1.010185,-0.1036576,-0.1045721,-33.64868,-38.41116,3.653793
2.373991013,-2.494047,4.336921,0.5595631,1.010738,-0.1069781,-0.09691502,-33.64868,-38.41116,3.653793
2.38398695,-2.124848,4.158864,0.8034461,1.009441,-0.1157682,-0.09882481,-33.64868,-38.41116,3.653793
2.393982411,-1.755648,3.921454,0.7424754,1.005445,-0.110436,-0.09164057,-33.26438,-38.79197,3.271599
2.403978348,-2.001781,3.446635,0.6815046,1.01188,-0.1155972,-0.08542898,-33.26438,-38.79197,3.271599
2.413974285,-1.940248,2.793759,0.6205339,1.00711,-0.121028,-0.0844621,-33.26438,-38.79197,3.271599
2.423969746,-1.878715,2.140883,0.6205339,1.002218,-0.1202098,-0.09067528,-33.26438,-38.79197,3.271599
2.433965683,-2.309447,1.725416,0.4985923,1.001688,-0.1177204,-0.08301778,-33.26438,-38.79197,3.271599
2.44396162,-3.047846,1.191245,0.4376215,1.001696,-0.1182544,-0.08828199,-34.02173,-38.41723,3.26401
2.453957558,-2.74018,0.7757784,0.5595631,1.009533,-0.1205819,-0.09403796,-34.02173,-38.41723,3.26401
2.463953018,-2.309447,0.5977212,0.3766508,1.010361,-0.1127949,-0.09452,-34.02173,-38.41723,3.26401
2.473948956,-2.370981,0.8944831,0.4376215,1.013144,-0.1055429,-0.1045768,-34.02173,-38.41723,3.26401
2.483944893,-2.247914,0.8351307,0.4376215,1.010801,-0.1104091,-0.1002643,-34.02173,-38.41723,3.26401
2.493939877,-1.509515,0.7757784,0.3766508,1.008107,-0.1226021,-0.0992993,-33.27394,-38.40834,3.656573
2.503935814,-0.8326498,0.8351307,0.4376215,1.005533,-0.1154121,-0.104561,-33.27394,-38.40834,3.656573
2.513932228,-1.017249,1.131893,0.4985923,1.002923,-0.1062483,-0.1064731,-33.27394,-38.40834,3.656573
2.523927212,-2.063314,1.191245,0.8644169,1.008199,-0.101775,-0.106962,-33.27394,-38.40834,3.656573
2.533923149,-2.494047,1.547359,1.047329,1.012308,-0.1128222,-0.101702,-33.27394,-38.40834,3.656573
2.543919087,-1.694115,1.962826,1.352183,1.008942,-0.1153623,-0.1064812,-33.65315,-38.03733,2.877761
2.553915501,-1.017249,2.022178,1.352183,1.00422,-0.1231385,-0.09642093,-33.65315,-38.03733,2.877761
2.563910484,-0.1557842,2.200235,1.596066,1.008476,-0.1162644,-0.09786584,-33.65315,-38.03733,2.877761
2.573906422,-0.1557842,2.200235,1.535095,1.016509,-0.103016,-0.1012333,-33.65315,-38.03733,2.877761
2.583902359,-1.078783,2.259588,1.778978,1.010628,-0.1011884,-0.1012235,-32.88795,-38.79242,2.887378
2.59389782,-1.694115,2.022178,2.022861,1.006013,-0.1148377,-0.09594762,-32.88795,-38.79242,2.887378
2.603893757,-1.755648,1.606712,1.96189,1.011356,-0.1136945,-0.08877858,-32.88795,-38.79242,2.887378
2.613889694,-2.986313,1.131893,1.778978,1.00702,-0.1161265,-0.07967745,-32.88795,-38.79242,2.887378
2.623885631,-2.92478,0.6570736,1.778978,1.003965,-0.1351561,-0.08158153,-32.88795,-38.79242,2.887378
2.633881092,-1.940248,-0.1145072,1.230241,1.00458,-0.1419515,-0.08205942,-32.89581,-38.41206,2.88535
2.643877029,-0.3403839,-0.6486785,0.8644169,1.002292,-0.1497104,-0.07535337,-32.89581,-38.41206,2.88535
2.653872967,1.07488,-1.004793,0.6205339,1.000002,-0.1319249,-0.09162554,-32.89581,-38.41206,2.88535
2.663868427,1.197947,-1.18285,0.3766508,1.014339,-0.1171468,-0.1007473,-32.89581,-38.41206,2.88535
2.673864365,0.5826145,-1.18285,0.4376215,1.010241,-0.1065371,-0.1007429,-32.89581,-38.41206,2.88535
2.683860302,0.3364816,-1.064145,0.5595631,1.008871,-0.1114191,-0.1002607,-34.02003,-38.4205,2.877008
2.693855762,0.5210813,-1.064145,0.6205339,1.005038,-0.1148921,-0.09977451,-34.02003,-38.4205,2.877008
2.7038517,0.5210813,-1.064145,0.8644169,1.002024,-0.110101,-0.1007276,-34.02003,-38.4205,2.877008
2.713847637,-0.03271778,-0.6486785,1.413154,1.013955,-0.096758,-0.1021876,-34.02003,-38.4205,2.877008
2.723843574,-1.078783,-0.411269,1.718008,1.014443,-0.09671326,-0.09835985,-34.02003,-38.4205,2.877008
2.733839035,-2.309447,-0.3519166,1.96189,1.009827,-0.1104196,-0.09930544,-33.63743,-38.79805,2.881817
2.743834972,-1.878715,-0.1738595,2.449656,1.016798,-0.1186613,-0.112237,-33.63743,-38.79805,2.881817
2.75383091,-2.432514,0.06354995,2.449656,1.018889,-0.1000928,-0.1055454,-33.63743,-38.79805,2.881817
2.76382637,-3.601645,0.1822547,2.266744,1.014945,-0.1234345,-0.09883243,-33.63743,-38.79805,2.881817
2.773822308,-2.92478,0.5977212,2.022861,1.00516,-0.1475223,-0.1079021,-33.63743,-38.79805,2.881817
2.783818245,-2.001781,0.5977212,1.596066,1.007864,-0.1357844,-0.105517,-34.02621,-38.04342,2.487978
2.793814182,-2.678647,0.6570736,1.169271,1.008642,-0.1249467,-0.09116383,-34.02621,-38.04342,2.487978
2.803809643,-3.478579,0.5977212,0.9253877,1.009395,-0.138989,-0.08733291,-34.02621,-38.04342,2.487978
2.81380558,-3.047846,0.1229023,0.6815046,1.003196,-0.1464883,-0.0968917,-34.02621,-38.04342,2.487978
2.823801517,-2.432514,-0.2332119,0.1937385,1.007455,-0.1395265,-0.08876513,-34.02621,-38.04342,2.487978
2.833796978,-1.571049,-0.3519166,-0.2330568,1.007986,-0.1419939,-0.09402975,-33.6436,-38.42096,2.492787
2.843792915,-0.7711166,-0.8267356,-0.3549984,1.008725,-0.1292834,-0.08733425,-33.6436,-38.42096,2.492787
2.853788853,-0.7711166,-1.004793,-0.4769399,1.004313,-0.1279435,-0.09067693,-33.6436,-38.42096,2.492787
2.86378479,-0.3403839,-1.479612,-0.5379106,0.9991592,-0.1129723,-0.08971466,-33.6436,-38.42096,2.492787
2.873780251,-0.7095833,-1.598316,0.01082622,1.002925,-0.1062088,-0.1021659,-33.6436,-38.42096,2.492787
2.883776188,-1.509515,-1.835726,-0.1720861,1.010407,-0.1152193,-0.09404086,-33.65146,-38.0406,2.490759
2.893772125,-1.017249,-1.776374,0.1937385,1.011597,-0.1269549,-0.1045686,-33.65146,-38.0406,2.490759
2.903767109,-0.4634504,-1.717021,0.1937385,1.009474,-0.1178122,-0.1098316,-33.65146,-38.0406,2.490759
2.913763523,-0.8326498,-1.301555,0.1327677,1.010486,-0.1196965,-0.1055257,-33.65146,-38.0406,2.490759
2.92375946,-0.9557163,-1.004793,0.1937385,1.008179,-0.1265277,-0.1036056,-33.65146,-38.0406,2.490759
2.933755398,-0.5865169,-0.8267356,0.1937385,1.009152,-0.1265304,-0.1060002,-33.64529,-38.41769,2.879789
2.943750381,-1.140316,-0.7080309,0.1937385,1.007168,-0.1245864,-0.10169,-33.64529,-38.41769,2.879789
2.953746319,-1.447982,-0.6486785,0.1937385,1.010578,-0.1245409,-0.1040889,-33.64529,-38.41769,2.879789
2.963742733,-1.817181,-0.5893261,0.1937385,1.006092,-0.1193281,-0.1088681,-33.64529,-38.41769,2.879789
2.973737717,-2.124848,-0.5299737,-0.05014454,1.014538,-0.1278862,-0.1064878,-33.64529,-38.41769,2.879789
2.983733654,-1.940248,-0.5299737,-0.05014454,1.005835,-0.1313983,-0.09977165,-33.26886,-38.41815,2.495568
2.993729591,-1.878715,-0.411269,-0.05014454,1.011499,-0.1215413,-0.09691259,-33.26886,-38.41815,2.495568
3.003726006,-1.817181,-0.5893261,-0.1720861,1.009603,-0.1245733,-0.1055229,-33.26886,-38.41815,2.495568
3.013720989,-0.894183,-0.6486785,-0.5379106,1.010301,-0.1356967,-0.1012141,-33.26886,-38.41815,2.495568
3.023716927,0.02881546,-0.2332119,-0.5379106,1.008831,-0.1352398,-0.1012116,-33.26886,-38.41815,2.495568
3.033712864,-0.2788507,0.1229023,-0.8427644,1.00554,-0.1159549,-0.1107824,-34.02621,-38.04342,2.487978
3.043708324,-1.386449,0.1822547,-0.6598521,1.005899,-0.109171,-0.1136562,-34.02621,-38.04342,2.487978
3.053704262,-1.817181,0.5977212,-0.4769399,1.011984,-0.1216019,-0.1045706,-34.02621,-38.04342,2.487978
3.063700199,-1.571049,0.716426,-0.5988814,1.005121,-0.1192464,-0.09785923,-34.02621,-38.04342,2.487978
3.073696136,-1.201849,0.716426,-0.6598521,1.007629,-0.1231063,-0.1002555,-34.02621,-38.04342,2.487978
3.083691597,-0.5865169,0.7757784,-0.6598521,1.010687,-0.1303613,-0.1031304,-34.40264,-38.04296,2.8722
3.093687534,-0.5249836,0.7757784,-0.8427644,1.00234,-0.1271904,-0.1102953,-34.40264,-38.04296,2.8722
3.103683472,-0.2788507,0.7757784,-0.6598521,0.9970102,-0.128736,-0.1083713,-34.40264,-38.04296,2.8722
3.113678932,-0.9557163,1.07254,-0.5988814,0.996663,-0.1102902,-0.1098112,-34.40264,-38.04296,2.8722
3.12367487,-2.001781,0.9538354,-0.4769399,0.9987135,-0.1155424,-0.1040705,-34.40264,-38.04296,2.8722
3.133670807,-2.55558,0.4790165,-0.6598521,1.002923,-0.1319155,-0.09689497,-33.28628,-37.65417,2.878513
3.143666744,-1.571049,0.3009594,-0.8427644,1.004974,-0.1371502,-0.08923999,-33.28628,-37.65417,2.878513
3.153662205,-0.4634504,0.004197581,-0.9647059,1.003927,-0.133257,-0.08636771,-33.28628,-37.65417,2.878513
3.163658142,-0.1557842,-0.1738595,-1.26956,1.002867,-0.1290317,-0.1002457,-33.28628,-37.65417,2.878513
3.173654079,-0.4634504,-0.4706214,-1.574414,1.010001,-0.1196359,-0.09786763,-33.28628,-37.65417,2.878513
3.183650017,-0.4634504,-0.5299737,-1.696355,1.003126,-0.1168868,-0.1012064,-33.6436,-38.42096,2.492787
3.193645477,-0.5249836,-0.5893261,-1.818297,0.9930685,-0.1263578,-0.1054936,-33.6436,-38.42096,2.492787
3.203641415,-0.094251,-1.123497,-2.184121,0.9932141,-0.1341432,-0.1069276,-33.6436,-38.42096,2.492787
3.213637352,0.5826145,-1.657669,-2.732858,0.9979499,-0.1267122,-0.1016734,-33.6436,-38.42096,2.492787
3.223632813,0.6441478,-2.607306,-2.793829,0.9994904,-0.130372,-0.08013923,-34.02003,-38.4205,2.877008
3.23362875,1.874812,-3.20083,-2.488975,1.010673,-0.1549165,-0.07823809,-34.02003,-38.4205,2.877008
3.243624687,5.44374,-3.260183,-2.8548,1.00269,-0.1455484,-0.09928395,-34.02003,-38.4205,2.877008
3.253620625,6.797471,-3.319535,-2.976741,1.004915,-0.1087088,-0.1141332,-34.02003,-38.4205,2.877008
3.263616085,5.505273,-3.022773,-2.671887,1.011371,-0.08912172,-0.1117566,-34.02003,-38.4205,2.877008
3.273612022,3.53621,-2.369897,-2.91577,1.01122,-0.1071484,-0.1165374,-33.6436,-38.42096,2.492787
3.28360796,3.043944,-1.479612,-2.793829,1.009405,-0.1145699,-0.1270611,-33.6436,-38.42096,2.492787
3.293603897,1.936346,-0.7673832,-2.549946,1.013644,-0.1066848,-0.124199,-33.6436,-38.42096,2.492787
3.303599358,-0.2173175,-0.05515479,-2.428004,1.01976,-0.09480042,-0.1132055,-33.6436,-38.42096,2.492787
3.313595295,-2.617113,0.7757784,-2.184121,1.015809,-0.09195407,-0.1122422,-33.6436,-38.42096,2.492787
3.323591232,-3.663178,1.30995,-1.879267,1.005141,-0.1209143,-0.1208305,-34.02621,-38.04342,2.487978
3.333586693,-3.109379,1.784769,-1.391501,1.009813,-0.1100962,-0.1170128,-34.02621,-38.04342,2.487978
3.34358263,-2.432514,2.378292,-1.208589,1.01883,-0.09730554,-0.1194247,-34.02621,-38.04342,2.487978
3.353578568,-2.801713,2.912464,-1.086647,1.019973,-0.08024868,-0.1165596,-34.02621,-38.04342,2.487978
3.363574505,-3.786245,3.090521,-1.086647,1.012563,-0.1007915,-0.1151057,-34.02621,-38.04342,2.487978
3.373569965,-2.986313,3.268578,-1.208589,1.012805,-0.1396752,-0.1165318,-33.25483,-39.17559,2.886625
3.383565903,-1.878715,3.505987,-1.757326,1.006733,-0.1276203,-0.1136529,-33.25483,-39.17559,2.886625
3.39356184,-2.001781,3.624692,-1.940238,1.006701,-0.09988277,-0.1093528,-33.25483,-39.17559,2.886625
3.403557777,-2.863246,3.862102,-2.06218,1.009073,-0.09640798,-0.1064864,-33.25483,-39.17559,2.886625
3.413553238,-3.417045,3.921454,-2.306063,1.011569,-0.09986552,-0.1179757,-33.25483,-39.17559,2.886625
3.423549175,-3.724712,3.862102,-2.671887,1.008573,-0.1217219,-0.1103076,-33.25931,-38.80177,2.110594
3.433545113,-2.247914,4.099511,-2.488975,1.003024,-0.1372194,-0.09258661,-33.25931,-38.80177,2.110594
3.443540096,-0.4019172,3.684045,-2.245092,1.003317,-0.1263211,-0.07057543,-33.25931,-38.80177,2.110594
3.453536511,1.874812,3.684045,-1.513443,1.012776,-0.1111007,-0.07394587,-33.25931,-38.80177,2.110594
3.463532448,3.782343,3.505987,-1.086647,1.012342,-0.1140557,-0.07729439,-33.25931,-38.80177,2.110594
3.473528385,4.397675,3.802749,-0.7817937,1.016496,-0.1026531,-0.1146335,-32.89243,-38.4186,2.111346
3.483523369,4.705341,4.633682,-0.4159691,1.034555,-0.07863436,-0.1309427,-32.89243,-38.4186,2.111346
3.493519783,0.705681,5.227206,0.01082622,1.032522,-0.04795932,-0.1199398,-32.89243,-38.4186,2.111346
3.50351572,-5.139976,5.523968,0.6205339,1.01357,-0.07640431,-0.1074565,-32.89243,-38.4186,2.111346
3.513511658,-6.493707,5.998787,0.8034461,1.002702,-0.1202967,-0.1012048,-32.89243,-38.4186,2.111346
3.523506642,-5.01691,5.761377,1.169271,0.9969526,-0.1251381,-0.08683623,-33.26717,-38.42142,2.108566
3.533503056,-3.970845,4.989797,0.9253877,0.9961033,-0.1312748,-0.06529724,-33.26717,-38.42142,2.108566
3.543498993,-2.494047,3.446635,0.6815046,0.9911417,-0.1521367,-0.05092593,-33.26717,-38.42142,2.108566
3.55349493,0.5210813,1.606712,0.1327677,0.9917943,-0.1608269,-0.04613907,-33.26717,-38.42142,2.108566
3.563489914,2.982411,-0.411269,-0.1720861,0.9876425,-0.1472894,-0.04469959,-33.26717,-38.42142,2.108566
3.573485851,3.413143,-3.141478,-0.9647059,0.9781891,-0.1367109,-0.03655005,-33.24975,-39.1854,1.72562
3.583482266,3.35161,-6.049744,-1.330531,0.9737354,-0.1328105,-0.02553604,-33.24975,-39.1854,1.72562
3.593477249,4.889941,-9.195419,-1.452472,0.972361,-0.1114167,-0.02123197,-33.24975,-39.1854,1.72562
3.603473187,4.397675,-11.68822,-1.208589,0.9851211,-0.09025159,-0.01934536,-33.24975,-39.1854,1.72562
3.613469124,5.566806,-13.76555,-0.9037352,0.9923741,-0.1399902,-0.05380267,-33.24975,-39.1854,1.72562
3.623465538,10.48946,-14.89325,-0.5988814,0.9927567,-0.1611807,-0.08681963,-33.64977,-38.04387,2.103757
3.633460522,15.28906,-15.54612,-0.4159691,0.9887549,-0.1304096,-0.1140994,-33.64977,-38.04387,2.103757
3.643456459,15.16599,-15.54612,0.1327677,0.9987797,-0.06758206,-0.1203546,-33.64977,-38.04387,2.103757
3.653452396,10.551,-15.36807,0.6815046,1.002946,-0.05580645,-0.1170148,-33.64977,-38.04387,2.103757
3.66344881,5.936006,-14.83389,1.778978,1.000774,-0.06997238,-0.1203574,-33.64977,-38.04387,2.103757
3.673443794,2.490145,-14.77454,2.449656,0.9959939,-0.07492623,-0.1203478,-33.28011,-38.03125,3.267543
3.683439732,0.5210813,-14.41843,2.632569,1.012048,-0.09936576,-0.117498,-33.28011,-38.03125,3.267543
3.693435669,1.567146,-13.52814,2.75451,1.015765,-0.1159064,-0.1275504,-33.28011,-38.03125,3.267543
3.703431606,4.151542,-12.5785,2.632569,1.016239,-0.1155339,-0.1409514,-33.28011,-38.03125,3.267543
3.713427067,4.459208,-11.15405,2.449656,1.02991,-0.09091414,-0.1352387,-33.28011,-38.03125,3.267543
3.723423004,2.920877,-9.551534,2.205774,1.02054,-0.08468553,-0.1246953,-33.26608,-38.7887,3.658601
3.733418941,1.197947,-9.432829,2.69354,1.015175,-0.1106473,-0.1356865,-33.26608,-38.7887,3.658601
3.743414402,-0.03271778,-11.15405,2.327715,1.011504,-0.1221675,-0.1122269,-33.26608,-38.7887,3.658601
3.753410339,0.5826145,-11.98498,2.022861,0.9971303,-0.1350026,-0.1031056,-33.26608,-38.7887,3.658601
3.763406277,1.874812,-13.17203,1.778978,0.9773833,-0.1476553,-0.1155109,-33.26608,-38.7887,3.658601
3.773402214,2.736278,-13.52814,1.657037,0.9993377,-0.1228105,-0.1031126,-33.26777,-38.78543,4.045603
3.783397675,1.07488,-12.40045,1.839949,1.009188,-0.1020879,-0.09021351,-33.26777,-38.78543,4.045603
3.793393612,-1.324916,-13.17203,1.778978,0.9932895,-0.1123094,-0.1107619,-33.26777,-38.78543,4.045603
3.803389549,-2.247914,-12.63786,1.96189,1.019879,-0.15319,-0.121805,-33.26777,-38.78543,4.045603
3.813385487,-0.894183,-11.15405,2.083832,1.017665,-0.1399388,-0.1557835,-33.26777,-38.78543,4.045603
3.823380947,-0.7711166,-11.0947,1.718008,1.01678,-0.09282438,-0.1562726,-33.27732,-38.4018,4.430577
3.833376884,-3.417045,-11.15405,1.1083,1.037215,-0.09081367,-0.1400372,-33.27732,-38.4018,4.430577
3.843372822,-5.201509,-11.3321,0.4376215,1.021442,-0.1328022,-0.1275559,-33.27732,-38.4018,4.430577
3.853368759,-2.001781,-11.0947,-0.4159691,0.9851936,-0.2013538,-0.1590611,-33.27732,-38.4018,4.430577
3.86336422,4.828408,-11.98498,-2.245092,0.9753827,-0.2239448,-0.1638239,-32.90427,-38.39572,4.820359
3.873360157,12.70466,-10.26376,-3.281595,0.9929297,-0.2247937,-0.1882617,-32.90427,-38.39572,4.820359
3.883356094,19.28872,-9.788943,-4.683922,1.007862,-0.1645928,-0.2265893,-32.90427,-38.39572,4.820359
3.893352032,21.13471,-9.610886,-5.598484,1.034496,-0.1038055,-0.2261728,-32.90427,-38.39572,4.820359
3.903347492,18.36572,-8.661248,-5.720425,1.045827,-0.05833204,-0.2199828,-32.90427,-38.39572,4.820359
3.91334343,12.95079,-7.474201,-4.683922,1.023894,-0.006349481,-0.2271366,-32.90765,-38.38918,5.594363
3.923339367,4.951474,-6.94003,-4.196156,1.01437,0.00818974,-0.2108521,-32.90765,-38.38918,5.594363
3.933335304,-2.55558,-5.812335,-3.037712,1.008422,-0.03792114,-0.1921654,-32.90765,-38.38918,5.594363
3.943330765,-5.755308,-5.396868,-2.610917,0.9998343,-0.07353384,-0.1887912,-32.90765,-38.38918,5.594363
3.953326702,-5.939908,-4.625287,-2.91577,1.020257,-0.09681428,-0.1749421,-32.90765,-38.38918,5.594363
3.963322639,-5.632242,-3.675649,-3.220624,1.040805,-0.1013072,-0.179284,-32.53461,-38.3831,5.984146
3.973318577,-6.309107,-2.666659,-3.220624,1.057813,-0.0984055,-0.1644785,-32.53461,-38.3831,5.984146
3.983314037,-8.64737,-1.420259,-3.159653,1.044453,-0.1130635,-0.1443513,-32.53461,-38.3831,5.984146
3.993309975,-11.04717,-0.4706214,-4.257127,1.092549,-0.1566225,-0.122888,-32.53461,-38.3831,5.984146
4.003305912,-10.0011,-0.886088,-7.000811,1.198146,-0.2013796,-0.1441179,-32.53461,-38.3831,5.984146
4.013301373,-3.293979,-1.776374,-9.988379,1.094362,-0.2020687,-0.1544654,-32.152,-38.76065,5.988954
4.02329731,5.812939,-5.040754,-14.50021,1.008219,-0.2340262,-0.1681857,-32.152,-38.76065,5.988954
4.033293247,16.33512,-7.949019,-17.06099,1.013557,-0.258638,-0.1610101,-32.152,-38.76065,5.988954
4.043289185,24.64211,-10.73858,-18.03652,1.001872,-0.2330437,-0.1533391,-32.152,-38.76065,5.988954
4.053284645,25.31897,-13.46879,-17.2439,1.026785,-0.1844521,-0.1543522,-32.152,-38.76065,5.988954
4.063280582,21.75005,-15.90224,-13.95148,1.077558,-0.137867,-0.1649814,-32.52844,-38.76019,6.373176
4.07327652,17.68885,-17.02993,-9.805466,1.106051,-0.04725667,-0.2019047,-32.52844,-38.76019,6.373176
4.083272457,10.42793,-19.16662,-6.634986,1.032157,0.02121512,-0.2065793,-32.52844,-38.76019,6.373176
4.093267918,1.813279,-22.72776,-3.891303,0.9856005,-0.01817837,-0.2687029,-32.52844,-38.76019,6.373176
4.103263855,-0.7711166,-25.75473,-2.306063,0.9801565,-0.03967613,-0.269645,-32.52844,-38.76019,6.373176
4.113259792,-2.370981,-28.24753,-1.635384,0.9595072,-0.02985301,-0.2667401,-32.15708,-38.75084,7.14996
4.12325573,-4.032378,-29.85004,-1.208589,0.9380841,-0.05715657,-0.2834459,-32.15708,-38.75084,7.14996
4.13325119,-2.001781,-30.26551,-0.9647059,0.9237595,-0.09951128,-0.3140388,-32.15708,-38.75084,7.14996
4.143247128,1.751746,-30.20616,-0.2940276,0.9279721,-0.1165501,-0.3264848,-32.15708,-38.75084,7.14996
4.153243065,5.997539,-29.43458,1.230241,0.8972906,-0.1433751,-0.3240315,-32.15708,-38.75084,7.14996
4.163239002,10.24333,-28.06947,2.388686,0.8756663,-0.1335932,-0.3235178,-32.52735,-39.12747,7.923211
4.173234463,13.13539,-27.06048,3.242276,0.8563784,-0.1183847,-0.3191809,-32.52735,-39.12747,7.923211
4.1832304,13.99686,-25.57667,4.461692,0.852367,-0.08637425,-0.3172678,-32.52735,-39.12747,7.923211
4.193226337,12.39699,-23.85546,5.376253,0.8477191,-0.07235622,-0.315349,-32.52735,-39.12747,7.923211
4.203222275,10.42793,-21.89683,6.595668,0.88486,-0.1042858,-0.3268914,-32.52735,-39.12747,7.923211
4.213217735,11.35093,-20.23496,7.632172,0.858253,-0.1144864,-0.3220566,-31.84709,-39.10924,9.476316
4.223213673,10.98173,-19.40403,8.363821,0.8634347,-0.1316639,-0.3517329,-31.84709,-39.10924,9.476316
4.23320961,9.504933,-19.40403,9.217411,0.8593765,-0.1493214,-0.3608142,-31.84709,-39.10924,9.476316
4.243205547,5.62834,-20.0569,10.37586,0.8578738,-0.1988469,-0.3531417,-31.84709,-39.10924,9.476316
4.253201008,3.105477,-19.81949,11.71721,0.8775875,-0.261857,-0.3249238,-31.84709,-39.10924,9.476316
4.263196945,2.428612,-17.62346,14.88769,0.8510184,-0.2475361,-0.295688,-31.86282,-38.34853,9.47226
4.273192883,-3.170913,-15.19001,17.9972,0.8334689,-0.2203543,-0.261207,-31.86282,-38.34853,9.47226
4.28318882,-9.939568,-11.51016,21.47253,0.8263051,-0.2011844,-0.2219562,-31.86282,-38.34853,9.47226
4.29318428,-15.29296,-5.812335,23.72845,0.7961187,-0.1485008,-0.1348163,-31.86282,-38.34853,9.47226
4.303180218,-18.36962,4.336921,23.30166,0.7662145,-0.05884057,-0.04337921,-31.86282,-38.34853,9.47226
4.313176155,-19.29262,20.24335,21.28962,0.7393148,-0.02478931,0.07151717,-32.55323,-38.34715,10.24117
4.323172093,-9.631902,40.77927,15.0706,0.7408638,0.0254136,0.190667,-32.55323,-38.34715,10.24117
4.333167553,8.028135,58.34758,2.937423,0.7777557,0.2380813,0.09196124,-32.55323,-38.34715,10.24117
4.34316349,0.5826145,64.40151,-6.269162,0.8893496,0.2037426,-0.2370062,-32.55323,-38.34715,10.24117
4.353159428,-8.155105,57.576,-9.927407,1.023014,-0.1298898,-0.8205376,-32.55323,-38.34715,10.24117
4.363155365,-25.13828,33.47894,-0.5988814,1.507833,-0.9151297,-1.172455,-34.06732,-37.23367,8.28895
4.373150826,12.45853,10.68762,15.86322,2.057225,-0.9026381,-0.199514,-34.06732,-37.23367,8.28895
4.383146763,99.09731,7.185834,4.705575,1.870759,0.2379327,1.163981,-34.06732,-37.23367,8.28895
4.3931427,96.94365,32.88541,-7.854402,1.16036,0.5595998,0.6789028,-34.06732,-37.23367,8.28895
4.403138638,32.94909,22.79551,-10.23226,0.8825191,0.5117619,-0.3887822,-34.06732,-37.23367,8.28895
4.413134575,10.61253,8.135472,-7.488577,1.038422,-0.108984,-0.375494,-34.7977,-38.00655,7.513441
4.423130035,10.98173,17.33509,0.07179698,0.9240069,-0.3705731,-0.251276,-34.7977,-38.00655,7.513441
4.433125973,20.27325,25.28831,6.107903,0.8523712,-0.29448,-0.3306144,-34.7977,-38.00655,7.513441
4.44312191,24.33444,26.11924,10.13197,0.912199,-0.1585298,-0.3130463,-34.7977,-38.00655,7.513441
4.453117848,15.04292,25.94118,11.35139,1.018371,0.027938,-0.2386216,-34.7977,-38.00655,7.513441
4.463113308,-5.447642,25.0509,10.86362,1.064175,0.10857,-0.1291283,-35.18199,-37.62573,7.895635
4.473109245,-24.58448,24.81349,12.63177,1.078158,0.01260348,-0.1319994,-35.18199,-37.62573,7.895635
4.483105183,-33.5068,24.57608,13.85119,1.056394,-0.04889819,-0.1678388,-35.18199,-37.62573,7.895635
4.49310112,-36.76806,26.2973,14.52187,1.030406,-0.09219205,-0.1696967,-35.18199,-37.62573,7.895635
4.503096581,-38.30639,27.06888,14.33895,0.9845202,-0.1661258,-0.1844335,-34.82407,-36.49493,6.344324
4.513092518,-33.38373,26.416,13.48536,0.9627789,-0.3053855,-0.1680882,-34.82407,-36.49493,6.344324
4.523088455,-17.38509,27.60305,13.05857,0.9720506,-0.4103412,-0.1872203,-34.82407,-36.49493,6.344324
4.533084393,4.274609,28.19657,9.705177,0.9686612,-0.308742,-0.2288767,-34.82407,-36.49493,6.344324
4.543079853,15.35059,27.89981,8.790616,1.01064,-0.233646,-0.1849402,-34.82407,-36.49493,6.344324
4.553075791,18.42725,27.30629,6.534698,1.054417,-0.1236836,-0.1051227,-36.32751,-36.13236,5.557169
4.563071728,11.59706,25.52571,6.839551,0.9955379,-0.05063377,-0.1198747,-36.32751,-36.13236,5.557169
4.573067665,3.043944,23.98255,6.229844,1.006898,-0.08351383,-0.07346415,-36.32751,-36.13236,5.557169
4.583063126,0.09034869,22.79551,6.351786,0.9757541,-0.1126427,-0.1092956,-36.32751,-36.13236,5.557169
4.593059063,-0.8326498,21.4304,5.437224,0.9629442,-0.1827924,-0.1006408,-36.32751,-36.13236,5.557169
4.603055,1.936346,20.42141,5.437224,1.00526,-0.2305725,-0.1030951,-35.94153,-36.51645,4.787974
4.613050938,9.566466,18.40343,4.33975,1.00898,-0.2213802,-0.115547,-35.94153,-36.51645,4.787974
4.623045921,14.73526,16.20739,3.791013,1.007078,-0.197418,-0.09497105,-35.94153,-36.51645,4.787974
4.633042335,18.24265,15.0797,3.48616,1.002481,-0.1864286,-0.1054945,-35.94153,-36.51645,4.787974
4.643038273,18.73492,13.89265,2.510627,0.9905891,-0.1503364,-0.1184047,-35.94153,-36.51645,4.787974
4.65303421,15.04292,13.23978,2.144803,1.001682,-0.1692084,-0.08061162,-36.68932,-36.52534,4.395411
4.663029194,11.53553,12.64625,1.778978,1.01294,-0.1726551,-0.1098235,-36.68932,-36.52534,4.395411
4.673025608,9.258801,13.06172,1.657037,0.9937437,-0.1623042,-0.1054855,-36.68932,-36.52534,4.395411
4.683021545,4.582274,14.01136,1.474125,1.014153,-0.1331558,-0.09739281,-36.68932,-36.52534,4.395411
4.693017483,-0.894183,15.43581,1.718008,1.018801,-0.1215374,-0.1122398,-36.68932,-36.52534,4.395411
4.703012466,-5.386109,16.56351,2.266744,1.017156,-0.1383024,-0.1352042,-35.94431,-36.1459,3.624941
4.713008881,-7.416706,18.22537,2.998394,1.021695,-0.1208329,-0.1476596,-35.94431,-36.1459,3.624941
4.723004818,-10.3703,20.24335,3.608101,1.031115,-0.103731,-0.1577305,-35.94431,-36.1459,3.624941
4.733000755,-13.20083,22.85486,4.27878,1.044479,-0.115362,-0.1831154,-35.94431,-36.1459,3.624941
4.742996693,-12.64703,25.70377,4.827517,1.053323,-0.1453683,-0.188866,-35.94431,-36.1459,3.624941
4.752992153,-8.64737,28.73074,5.620136,1.048208,-0.1579196,-0.1687536,-36.30949,-36.53233,3.237186
4.76298809,-4.278511,31.4016,5.985961,1.026635,-0.1504041,-0.1505321,-36.30949,-36.53233,3.237186
4.772984028,-0.7711166,31.81707,6.534698,1.00683,-0.1587011,-0.1117307,-36.30949,-36.53233,3.237186
4.782979965,0.02881546,30.80808,7.144405,0.977099,-0.1567438,-0.04611451,-36.30949,-36.53233,3.237186
4.792974949,-1.817181,29.50232,6.534698,0.9564384,-0.145734,-0.01975965,-36.30949,-36.53233,3.237186
4.802971363,-4.401577,27.00952,6.473727,0.959112,-0.1575139,0.0146962,-37.43651,-36.17022,2.065811
4.8129673,-8.155105,24.21996,6.961493,0.9615847,-0.1586159,0.0481925,-37.43651,-36.17022,2.065811
4.822963238,-12.89316,21.3117,7.266347,0.9692259,-0.1757702,0.06876238,-37.43651,-36.17022,2.065811
4.832958221,-16.27749,18.64084,7.144405,0.9752152,-0.2099046,0.04291761,-37.43651,-36.17022,2.065811
4.842954636,-17.07742,15.85128,6.656639,0.9724818,-0.2202336,0.03526782,-37.43651,-36.17022,2.065811
4.852950573,-17.63122,13.952,6.534698,0.9815922,-0.212239,0.03955706,-37.06793,-35.79032,1.679562
4.86294651,-15.53909,11.93402,5.498195,0.9809948,-0.2328622,0.01754891,-37.06793,-35.79032,1.679562
4.872941494,-11.4779,10.15345,5.010429,0.9807107,-0.244255,-0.005419307,-37.06793,-35.79032,1.679562
4.882937908,-8.216638,8.135472,4.766546,0.9903113,-0.210509,-0.002573277,-37.06793,-35.79032,1.679562
4.892933845,-6.247574,6.948425,4.27878,0.99578,-0.1897853,0.01990493,-37.06793,-35.79032,1.679562
4.902929783,-5.509175,5.761377,3.973926,0.9956324,-0.1820658,0.01416028,-38.19297,-35.43202,0.05668449
4.91292572,-6.493707,4.396273,4.034896,0.988919,-0.188135,0.002687726,-38.19297,-35.43202,0.05668449
4.922920704,-6.73984,4.040159,3.912955,0.999548,-0.209359,-0.003068251,-38.19297,-35.43202,0.05668449
4.932917118,-4.586177,3.921454,3.608101,0.9994717,-0.2319902,-0.03321258,-38.19297,-35.43202,0.05668449
4.942913055,-1.694115,3.921454,3.059364,0.9944879,-0.2263582,-0.04421259,-38.19297,-35.43202,0.05668449
4.952908993,0.4595481,4.336921,2.571598,0.9978934,-0.2000106,-0.03991813,-37.80867,-35.81284,-0.3255091
4.962903976,-0.1557842,4.514977,2.510627,1.004513,-0.1891584,-0.03658243,-37.80867,-35.81284,-0.3255091
4.972900391,-1.263382,4.57433,2.510627,1.002575,-0.1896476,-0.03275032,-37.80867,-35.81284,-0.3255091
4.982896328,-1.509515,4.633682,2.266744,0.9970771,-0.2082001,-0.03034308,-37.80867,-35.81284,-0.3255091
4.992892265,-0.9557163,4.158864,2.266744,0.9921736,-0.206226,-0.01645633,-37.80867,-35.81284,-0.3255091
5.002887249,-1.078783,3.980806,1.90092,0.9960734,-0.2060568,-0.006413077,-38.57219,-35.06102,-0.7221279
5.012883663,-1.817181,5.227206,1.535095,1.024127,-0.2204001,0.0117276,-38.57219,-35.06102,-0.7221279
5.022879601,-1.140316,7.007777,1.839949,1.011218,-0.2082224,-0.01026753,-38.57219,-35.06102,-0.7221279
5.032875538,-1.324916,7.007777,1.839949,0.9891123,-0.1990543,-0.02267433,-38.57219,-35.06102,-0.7221279
5.042871475,-2.186381,6.948425,1.96189,1.002396,-0.2054723,-0.009295706,-38.57219,-35.06102,-0.7221279
5.052866936,-2.247914,6.532958,2.266744,0.9906117,-0.2009202,-0.01741213,-37.43841,-35.4362,-1.098761
5.062862873,-1.201849,4.57433,1.778978,0.979362,-0.1987303,-0.01930738,-37.43841,-35.4362,-1.098761
5.07285881,-0.094251,2.615702,1.596066,0.9871513,-0.1722961,-0.01502059,-37.43841,-35.4362,-1.098761
5.082854748,0.2134152,1.013188,0.9863584,0.9983814,-0.1735584,-0.01791129,-37.43841,-35.4362,-1.098761
5.092849731,0.3364816,-0.3519166,0.8644169,0.9999756,-0.2065841,-0.0193413,-38.57667,-34.6872,-1.49816
5.102846146,1.136414,-1.004793,-0.05014454,1.005955,-0.2138384,-0.0284428,-38.57667,-34.6872,-1.49816
5.112842083,2.182479,-1.064145,-0.7208229,0.9983501,-0.2242811,-0.03799837,-38.57667,-34.6872,-1.49816
5.12283802,1.628679,-1.242202,-1.330531,0.9950854,-0.2057351,-0.02220445,-38.57667,-34.6872,-1.49816
5.132833004,-0.4634504,-1.123497,-1.574414,0.9922528,-0.21069,-0.02650542,-38.57667,-34.6872,-1.49816
5.142829418,-1.509515,-0.886088,-1.818297,0.9933185,-0.2155196,-0.02554888,-37.80529,-35.81937,-1.099513
5.152825356,-1.263382,-1.301555,-2.428004,0.9977707,-0.2186972,-0.01071997,-37.80529,-35.81937,-1.099513
5.162821293,-0.4634504,-0.9454404,-2.8548,1.011318,-0.2135789,-0.01170205,-37.80529,-35.81937,-1.099513
5.17281723,0.5826145,-0.7673832,-2.732858,1.001639,-0.1915484,-0.02604814,-37.80529,-35.81937,-1.099513
5.182812691,-0.1557842,-0.7080309,-2.610917,1.005429,-0.1599181,-0.02941292,-37.80529,-35.81937,-1.099513
5.192808628,-1.632582,-0.411269,-2.06218,1.011971,-0.1709874,-0.03181435,-38.56264,-35.44464,-1.107102
5.202804565,-1.263382,-0.1145072,-1.452472,1.005442,-0.1867016,-0.03562753,-38.56264,-35.44464,-1.107102
5.212800503,-0.03271778,0.1229023,-1.513443,1.006914,-0.1871014,-0.02940851,-38.56264,-35.44464,-1.107102
5.222795487,0.5210813,0.3603118,-1.452472,1.005888,-0.1841227,-0.02031454,-38.56264,-35.44464,-1.107102
5.232791901,0.2134152,0.1822547,-1.208589,0.9973308,-0.1954421,-0.01742525,-38.56264,-35.44464,-1.107102
5.242787838,0.6441478,0.1822547,-1.147618,1.001274,-0.1977852,-0.01647437,-37.81315,-35.43902,-1.101541
5.252783775,0.705681,0.2416071,-1.147618,1.001725,-0.1958193,-0.01503993,-37.81315,-35.43902,-1.101541
5.262778759,0.2749484,0.7757784,-1.086647,1.010425,-0.1923599,-0.02749897,-37.81315,-35.43902,-1.101541
5.272775173,-0.5865169,1.07254,-0.9037352,1.00097,-0.1818209,-0.02365659,-37.81315,-35.43902,-1.101541
5.282771111,-1.940248,1.725416,-0.4769399,1.00177,-0.1726204,-0.02892469,-37.81315,-35.43902,-1.101541
5.292767048,-3.540112,2.022178,-0.3549984,1.004442,-0.1852284,-0.03179756,-37.43671,-35.43947,-1.485763
5.302762985,-3.601645,2.022178,-0.2940276,0.9994794,-0.2061079,-0.01934055,-37.43671,-35.43947,-1.485763
5.312758446,-2.247914,1.962826,-0.3549984,1.00254,-0.2133059,-0.015994,-37.43671,-35.43947,-1.485763
5.322754383,-1.201849,2.200235,-0.4769399,0.9959877,-0.201799,-0.018857,-37.43671,-35.43947,-1.485763
5.332750321,-2.432514,1.844121,-0.2940276,0.995793,-0.1652783,-0.0102517,-37.43671,-35.43947,-1.485763
5.342746258,-5.139976,2.496997,0.1327677,1.007306,-0.1559628,-0.02606717,-37.81932,-35.06193,-1.490571
5.352742195,-6.73984,2.971816,0.6815046,1.008101,-0.1725348,-0.03324293,-37.81932,-35.06193,-1.490571
5.362737656,-6.370641,3.090521,0.8034461,1.016114,-0.1840391,-0.03325394,-37.81932,-35.06193,-1.490571
5.372733593,-4.155444,3.149873,0.8644169,1.007595,-0.1972445,-0.02414274,-37.81932,-35.06193,-1.490571
5.38272953,-1.201849,3.031168,0.7424754,1.003837,-0.2045377,-0.0164771,-37.81932,-35.06193,-1.490571
5.392725468,0.6441478,2.793759,0.3766508,0.9991581,-0.2148086,-0.01359484,-37.81932,-35.06193,-1.490571
5.402720928,1.321013,2.378292,-0.2330568,0.9991056,-0.2118238,-0.005938302,-37.81932,-35.06193,-1.490571
5.412716866,1.197947,2.259588,-0.3549984,0.9980115,-0.205572,-0.01072376,-37.81932,-35.06193,-1.490571
5.422712803,-0.2788507,2.259588,-0.5379106,0.9971114,-0.183797,-0.0188636,-37.81932,-35.06193,-1.490571
5.43270874,-2.986313,2.437645,-0.5379106,1.005758,-0.1773923,-0.02797326,-37.81932,-35.06193,-1.490571
5.442704678,-4.401577,2.675054,-0.6598521,1.002117,-0.1910706,-0.02796339,-37.07153,-35.05304,-1.098008
5.452700138,-3.909311,2.675054,-0.7817937,0.9959688,-0.2008451,-0.02077152,-37.07153,-35.05304,-1.098008
5.462696076,-2.55558,2.31894,-0.7208229,0.9940014,-0.199934,-0.0231612,-37.07153,-35.05304,-1.098008
5.472692013,-1.509515,1.844121,-0.8427644,0.996858,-0.1957751,0.0002829731,-37.07153,-35.05304,-1.098008
5.48268795,-0.3403839,1.07254,-0.8427644,0.9978969,-0.1991298,0.003153482,-37.07153,-35.05304,-1.098008
5.492683411,1.44408,0.9538354,-0.8427644,0.9998066,-0.1972185,-0.004507556,-37.45244,-34.67876,-1.489819
5.502679348,1.997879,0.3009594,-0.9037352,1.003896,-0.1816709,-0.01361163,-37.45244,-34.67876,-1.489819
5.512675285,1.197947,0.4790165,-0.6598521,1.007177,-0.1748512,-0.01888344,-37.45244,-34.67876,-1.489819
5.522671223,0.8902807,0.3603118,-0.5379106,1.007295,-0.1811837,-0.02079632,-37.45244,-34.67876,-1.489819
5.53266716,0.6441478,0.6570736,-0.4159691,1.001595,-0.1890889,-0.02269866,-37.45244,-34.67876,-1.489819
5.542662621,0.2134152,0.8944831,-0.4769399,1.003121,-0.192434,-0.019829,-37.80807,-35.44883,-2.262546
5.552658558,-0.1557842,0.9538354,-0.05014454,0.997619,-0.1846887,-0.01120703,-37.80807,-35.44883,-2.262546
5.562654495,-0.5865169,0.9538354,-0.1720861,0.9978557,-0.197336,-0.01311849,-37.80807,-35.44883,-2.262546
5.572650433,-0.3403839,0.716426,0.07179698,1.001266,-0.1972643,-0.01264588,-37.80807,-35.44883,-2.262546
5.582645893,0.5826145,0.5383689,-0.1111153,1.006624,-0.1971672,-0.0136124,-37.80807,-35.44883,-2.262546
5.592641831,1.628679,0.8351307,0.07179698,1.004436,-0.1846461,-0.02126903,-37.81593,-35.06847,-2.264574
5.602637768,1.321013,1.013188,0.2547093,1.011273,-0.1854917,-0.02223788,-37.81593,-35.06847,-2.264574
5.612633705,1.07488,1.547359,0.1937385,1.012923,-0.195756,-0.03228821,-37.81593,-35.06847,-2.264574
5.622629642,0.5826145,2.496997,0.3766508,1.011406,-0.1929054,-0.03611491,-37.81593,-35.06847,-2.264574
5.632625103,-0.5249836,3.446635,0.4376215,1.011271,-0.1855707,-0.03085222,-37.81593,-35.06847,-2.264574
5.64262104,-1.755648,4.099511,0.4985923,1.003735,-0.1736017,-0.0341922,-37.81593,-35.06847,-2.264574
5.652616978,-3.847778,4.277568,0.8644169,0.9984626,-0.1779566,-0.02078176,-37.81593,-35.06847,-2.264574
5.662612915,-5.632242,3.921454,0.7424754,1.006113,-0.1956054,-0.001168932,-37.81593,-35.06847,-2.264574
5.672608375,-5.201509,3.743397,0.31568,0.9977121,-0.2151301,0.007465109,-37.81593,-35.06847,-2.264574
5.682604313,-4.155444,3.624692,-0.1111153,0.9967642,-0.2166418,0.003638542,-37.81593,-35.06847,-2.264574
5.69260025,-4.955376,3.32793,-0.4159691,0.9907715,-0.2090289,-0.001138732,-37.81763,-35.0652,-1.877573
5.702596188,-5.693775,3.090521,-0.7817937,1.005219,-0.200036,-0.005473419,-37.81763,-35.0652,-1.877573
5.712592125,-6.616774,2.853111,-1.025677,1.000219,-0.1933843,-0.01120933,-37.81763,-35.0652,-1.877573
5.722587585,-6.247574,2.200235,-0.7817937,1.000165,-0.1904258,-0.006424235,-37.81763,-35.0652,-1.877573
5.732583523,-4.216978,1.191245,-0.9037352,0.9843149,-0.2022437,0.01083518,-38.18282,-35.45164,-2.265326
5.74257946,-0.4019172,-0.1738595,-1.025677,0.9889596,-0.2155916,0.02901641,-38.18282,-35.45164,-2.265326
5.752575397,4.397675,-1.479612,-1.26956,0.9826619,-0.2177168,0.02280645,-38.18282,-35.45164,-2.265326
5.762571335,7.35127,-2.726011,-1.391501,0.9893,-0.2078361,0.02614236,-38.18282,-35.45164,-2.265326
5.772566795,7.966602,-3.378887,-1.330531,0.993459,-0.1962756,0.00603194,-38.18282,-35.45164,-2.265326
5.782562733,6.735938,-3.972411,-1.086647,0.9868401,-0.1814562,-0.006403315,-37.4395,-35.06892,-2.648795
5.79255867,5.197607,-4.150468,-0.8427644,1.004454,-0.1856089,-0.02031166,-37.4395,-35.06892,-2.648795
5.802554607,5.197607,-3.497592,-1.025677,1.010517,-0.1972087,-0.02654073,-37.4395,-35.06892,-2.648795
5.812550068,5.566806,-2.963421,-0.9037352,1.01454,-0.1783354,-0.04378134,-37.4395,-35.06892,-2.648795
5.822546005,3.966942,-1.717021,-0.5379106,1.018304,-0.1452039,-0.0423607,-37.4395,-35.06892,-2.648795
5.832541943,1.321013,-0.5299737,-0.1720861,1.019359,-0.1495784,-0.0447543,-38.18451,-35.44837,-1.878325
5.84253788,-0.2173175,0.7757784,0.07179698,1.012225,-0.184637,-0.03707562,-38.18451,-35.44837,-1.878325
5.852533817,0.8902807,1.606712,0.1327677,1.000046,-0.2105536,-0.02843334,-38.18451,-35.44837,-1.878325
5.862529278,2.367078,1.962826,-0.05014454,1.001463,-0.2080432,-0.02269355,-38.18451,-35.44837,-1.878325
5.872525215,2.797811,2.200235,-0.4159691,0.9984535,-0.2031161,-0.008810863,-38.18451,-35.44837,-1.878325
5.882521152,2.244012,2.022178,-0.4769399,0.994413,-0.1953462,-0.0006700273,-37.82718,-34.68158,-1.492599
5.89251709,1.136414,1.725416,-0.4159691,1.001454,-0.1811455,-0.004035991,-37.82718,-34.68158,-1.492599
5.902513027,0.02881546,1.488007,-0.1720861,1.002374,-0.1781854,-0.001166901,-37.82718,-34.68158,-1.492599
5.912508488,-0.1557842,1.191245,-0.05014454,1.001057,-0.1860479,-0.007862645,-37.82718,-34.68158,-1.492599
5.922504425,2.182479,0.6570736,-0.1720861,0.9946231,-0.20651,0.0002896331,-37.82718,-34.68158,-1.492599
5.932500362,5.936006,-0.1145072,-0.3549984,0.9972593,-0.217153,-0.000190798,-37.05859,-35.4432,-2.256985
5.9424963,8.581935,-0.4706214,-0.5379106,1.000449,-0.2054625,-0.004027977,-37.05859,-35.4432,-2.256985
5.95249176,9.566466,-0.7673832,-0.7208229,1.002673,-0.1942858,-0.008820494,-37.05859,-35.4432,-2.256985
5.962487698,8.828068,-0.5893261,-0.6598521,1.004454,-0.1856133,-0.02079023,-37.05859,-35.4432,-2.256985
5.972483635,6.920537,0.06354995,-0.2330568,1.008985,-0.1676141,-0.02845998,-37.05859,-35.4432,-2.256985
5.982479572,4.028476,0.8944831,-0.05014454,1.00789,-0.1613843,-0.03563832,-37.43671,-35.43947,-1.485763
5.99247551,2.797811,1.369302,0.2547093,1.010987,-0.1705472,-0.03468421,-37.43671,-35.43947,-1.485763
6.00247097,2.120945,1.488007,0.07179698,1.00155,-0.1866162,-0.01791346,-37.43671,-35.43947,-1.485763
6.012466908,2.490145,1.488007,0.31568,0.9982172,-0.1904555,-0.005463679,-37.43671,-35.43947,-1.485763
6.022462845,3.290077,0.8351307,0.3766508,0.9937276,-0.1845945,0.007464192,-37.43671,-35.43947,-1.485763
6.032458782,2.920877,-0.4706214,0.2547093,0.9993654,-0.1732319,0.01558723,-37.80976,-35.44556,-1.875545
6.04245472,1.936346,-1.538964,0.3766508,1.001963,-0.1820021,0.007449168,-37.80976,-35.44556,-1.875545
6.05245018,1.44408,-2.726011,0.1327677,0.9987453,-0.1922485,0.009850296,-37.80976,-35.44556,-1.875545
6.062446117,1.382547,-3.794354,-0.05014454,0.9916329,-0.2025104,0.01895828,-37.80976,-35.44556,-1.875545
6.072442055,1.690213,-4.565935,-0.2940276,0.9893332,-0.2098801,0.01513558,-37.80976,-35.44556,-1.875545
6.082437992,1.936346,-5.100106,-0.5988814,0.9952109,-0.2118349,0.001247132,-37.81145,-35.44229,-1.488543
6.092433929,3.35161,-5.337515,-0.7817937,0.994215,-0.2109924,-0.01071575,-37.81145,-35.44229,-1.488543
6.10242939,3.720809,-5.396868,-0.8427644,0.9968541,-0.195898,-0.01311712,-37.81145,-35.44229,-1.488543
6.112425327,2.367078,-5.574925,-0.7817937,1.000991,-0.1827134,-0.01504203,-37.81145,-35.44229,-1.488543
6.122421265,0.8902807,-5.278163,-0.9037352,1.002039,-0.1865583,-0.01264999,-37.81145,-35.44229,-1.488543
6.132417202,-0.03271778,-4.44723,-0.5988814,1.009411,-0.1897879,-0.009790548,-38.17048,-36.20581,-1.487267
6.142412663,0.2134152,-3.556944,-0.3549984,1.01087,-0.1898205,-0.01649315,-38.17048,-36.20581,-1.487267
6.1524086,0.3364816,-2.607306,0.01082622,1.013885,-0.1945765,-0.01171142,-38.17048,-36.20581,-1.487267
6.162404537,1.197947,-1.301555,0.1327677,1.016199,-0.1883056,-0.02176717,-38.17048,-36.20581,-1.487267
6.172400475,1.321013,-0.7673832,0.4376215,1.01015,-0.1778309,-0.03228799,-38.17048,-36.20581,-1.487267
6.182396412,0.9518139,-0.411269,0.4985923,1.007483,-0.165836,-0.04329368,-38.1879,-35.44183,-1.104321
6.192391872,-1.324916,0.004197581,0.3766508,1.010442,-0.1677125,-0.0423412,-38.1879,-35.44183,-1.104321
6.20238781,-3.663178,0.06354995,0.3766508,1.003963,-0.1857458,-0.03418947,-38.1879,-35.44183,-1.104321
6.212383747,-4.340044,0.1822547,0.31568,1.002278,-0.1999021,-0.03753292,-38.1879,-35.44183,-1.104321
6.222379685,-3.909311,0.5383689,0.1937385,1.002675,-0.1949953,-0.03322769,-38.1879,-35.44183,-1.104321
6.232376099,-4.709243,0.7757784,0.1327677,1.002164,-0.1934599,-0.02365568,-38.17834,-35.82545,-1.489296
6.242371082,-4.709243,1.369302,0.01082622,0.9995549,-0.1842698,-0.02269634,-38.17834,-35.82545,-1.489296
6.25236702,-5.01691,1.784769,0.01082622,1.014957,-0.1743432,-0.03325442,-38.17834,-35.82545,-1.489296
6.262362957,-5.201509,2.022178,0.2547093,1.012448,-0.1705271,-0.03564391,-38.17834,-35.82545,-1.489296
6.272358894,-4.955376,2.853111,0.4376215,1.007039,-0.1940118,-0.04137135,-38.17834,-35.82545,-1.489296
6.282355309,-3.540112,3.446635,0.5595631,1.004391,-0.2085941,-0.03609864,-37.81145,-35.44229,-1.488543
6.292350292,-1.447982,4.336921,0.1327677,0.9994837,-0.2067429,-0.03561199,-37.81145,-35.44229,-1.488543
6.30234623,-1.755648,5.049149,0.1327677,1.006905,-0.1866245,-0.03036577,-37.81145,-35.44229,-1.488543
6.312342167,-3.478579,5.642673,0.4376215,1.013918,-0.1709796,-0.03516778,-37.81145,-35.44229,-1.488543
6.322338581,-5.01691,6.651663,0.6815046,1.023551,-0.1649624,-0.0356647,-37.81145,-35.44229,-1.488543
6.332334519,-5.632242,7.779358,1.047329,1.019791,-0.1723083,-0.03374195,-37.82718,-34.68158,-1.492599
6.342329502,-7.232106,8.254177,1.169271,1.012062,-0.1758362,-0.03085611,-37.82718,-34.68158,-1.492599
6.35232544,-6.73984,8.016768,0.7424754,1.001513,-0.2103272,-0.006900037,-37.82718,-34.68158,-1.492599
6.362321854,-3.417045,7.660653,0.7424754,0.9862322,-0.2265072,0.01035951,-37.82718,-34.68158,-1.492599
6.372317791,-0.6480501,6.889072,0.2547093,0.9746556,-0.2324269,0.02569565,-37.82549,-34.68484,-1.879601
6.382313728,0.7672142,5.227206,0.31568,0.9868131,-0.2048599,0.03811033,-37.82549,-34.68484,-1.879601
6.392308712,0.8287475,4.158864,-0.1720861,0.99258,-0.2002585,0.05054207,-37.82549,-34.68484,-1.879601
6.402305126,1.997879,3.209226,-0.05014454,0.9969999,-0.2029035,0.0175133,-37.82549,-34.68484,-1.879601
6.412301064,2.367078,2.615702,-0.1720861,1.010893,-0.1906384,0.0002571836,-37.82549,-34.68484,-1.879601
6.422297001,2.367078,2.081531,-0.4159691,1.009633,-0.1756824,-0.008837417,-37.81424,-35.07174,-2.651576
6.432292938,1.505613,2.022178,-0.2330568,1.001223,-0.1691112,-0.01600309,-37.81424,-35.07174,-2.651576
6.442287922,0.2749484,1.903473,-0.05014454,1.000956,-0.1807396,-0.01169244,-37.81424,-35.07174,-2.651576
6.452284336,0.2134152,1.666064,0.07179698,1.001903,-0.2048908,0.00219083,-37.81424,-35.07174,-2.651576
6.462280274,2.059412,1.428654,0.1937385,0.9944196,-0.2215563,0.002686742,-37.81424,-35.07174,-2.651576
6.472276211,4.951474,1.369302,0.01082622,0.9942647,-0.2132895,0.003642036,-38.18282,-35.45164,-2.265326
6.482272148,5.689873,1.428654,0.1327677,0.995709,-0.1866088,-0.004503145,-38.18282,-35.45164,-2.265326
6.492267609,3.720809,1.844121,0.31568,1.004099,-0.1666379,-0.01744447,-38.18282,-35.45164,-2.265326
6.502263546,0.7672142,2.31894,0.5595631,1.008322,-0.1841185,-0.02510455,-38.18282,-35.45164,-2.265326
6.512259483,-0.3403839,3.090521,0.7424754,1.008128,-0.1996418,-0.02175018,-38.18282,-35.45164,-2.265326
6.522255421,-0.4634504,3.743397,0.4985923,1.003248,-0.1992347,-0.01982747,-37.80807,-35.44883,-2.262546
6.532251358,-1.017249,4.099511,0.4985923,0.9992909,-0.1958104,-0.008814204,-37.80807,-35.44883,-2.262546
6.542246819,-0.4634504,3.980806,0.4985923,0.9997808,-0.195713,0.0007564378,-37.80807,-35.44883,-2.262546
6.552242756,0.705681,3.624692,0.2547093,0.9939395,-0.1957012,0.01464532,-37.80807,-35.44883,-2.262546
6.562238693,1.874812,2.793759,0.07179698,0.9998693,-0.1998829,0.02277186,-37.80807,-35.44883,-2.262546
6.572234631,3.720809,2.140883,-0.05014454,0.9984242,-0.2009492,0.01559601,-37.80807,-35.44883,-2.262546
6.582230568,3.659276,1.428654,-0.1720861,1.001606,-0.1887158,0.01798019,-37.80807,-35.44883,-2.262546
6.592226029,2.551678,1.250597,-0.2940276,0.9949205,-0.1962423,0.00650796,-37.80807,-35.44883,-2.262546
6.602221966,1.874812,1.191245,-0.4769399,0.9955773,-0.2055763,-0.00593376,-37.80807,-35.44883,-2.262546
6.612217903,1.25948,1.30995,-0.4159691,1.000961,-0.206976,-0.01120712,-37.80807,-35.44883,-2.262546
6.62221384,0.8287475,1.725416,-0.7208229,1.011982,-0.1970482,-0.01218604,-38.18451,-35.44837,-1.878325
6.632209778,0.705681,2.022178,-0.9037352,1.004558,-0.1908294,-0.006910365,-38.18451,-35.44837,-1.878325
6.642205238,0.3364816,2.496997,-1.086647,1.002546,-0.1874675,-0.006907723,-38.18451,-35.44837,-1.878325
6.652201176,0.3980148,2.496997,-1.025677,1.004615,-0.1936737,0.0007474844,-38.18451,-35.44837,-1.878325
6.662197113,0.8902807,2.259588,-1.147618,0.9978625,-0.197121,0.01033167,-38.18451,-35.44837,-1.878325
6.67219305,1.690213,1.725416,-1.391501,0.9949783,-0.1990603,0.01703726,-37.4395,-35.06892,-2.648795
6.682188988,1.813279,1.131893,-1.513443,0.9958255,-0.1922185,0.0194269,-37.4395,-35.06892,-2.648795
6.692184448,0.8902807,0.716426,-1.452472,0.9971592,-0.1853845,0.01990139,-37.4395,-35.06892,-2.648795
6.702180386,-0.094251,0.3603118,-1.025677,0.997048,-0.1796125,0.01367861,-37.4395,-35.06892,-2.648795
6.712176323,-0.8326498,0.3009594,-0.7817937,1.005877,-0.1829142,0.005528274,-37.4395,-35.06892,-2.648795
6.72217226,-0.894183,0.1822547,-0.7817937,1.002558,-0.1878743,0.001706731,-37.81593,-35.06847,-2.264574
6.732168198,-0.894183,0.4790165,-0.4769399,1.002133,-0.1913501,-0.005470274,-37.81593,-35.06847,-2.264574
6.742163658,-0.4019172,0.6570736,-0.4769399,1.001719,-0.1952063,-0.001161377,-37.81593,-35.06847,-2.264574
6.752159595,0.2749484,0.5977212,-0.4769399,0.9996818,-0.1903257,0.005540984,-37.81593,-35.06847,-2.264574
6.762155533,0.1518819,0.3603118,-0.4159691,1.001983,-0.1829166,0.01367086,-37.81593,-35.06847,-2.264574
6.77215147,-0.5249836,-0.1145072,-0.3549984,0.9974793,-0.176719,0.01032708,-37.81593,-35.06847,-2.264574
6.782147407,-0.9557163,-0.411269,-0.05014454,1.009764,-0.1823822,0.00217133,-37.81593,-35.06847,-2.264574
6.792143345,-1.386449,-0.4706214,-0.05014454,1.006402,-0.1848037,0.01031361,-37.81593,-35.06847,-2.264574
6.802138805,-1.078783,-0.411269,0.01082622,1.002118,-0.1902732,0.0060153,-37.81593,-35.06847,-2.264574
6.812134743,-0.5249836,-0.411269,-0.1720861,1.003766,-0.200577,-0.008342203,-37.81593,-35.06847,-2.264574
6.82213068,-0.4634504,-0.05515479,0.01082622,1.002398,-0.179748,-0.01265237,-38.18282,-35.45164,-2.265326
6.832126617,-1.632582,0.3009594,-0.05014454,1.003824,-0.1777541,-0.01026248,-38.18282,-35.45164,-2.265326
6.842122555,-2.247914,0.06354995,0.1937385,1.003667,-0.1951897,-0.003557657,-38.18282,-35.45164,-2.265326
6.852118015,-1.694115,-0.4706214,0.01082622,0.9945173,-0.2005667,0.01273127,-38.18282,-35.45164,-2.265326
6.862113953,-1.509515,-1.064145,-0.05014454,0.9880708,-0.1942365,0.02805531,-38.18282,-35.45164,-2.265326
6.87210989,-1.940248,-1.360907,-0.05014454,0.9939064,-0.1936528,0.02613068,-37.8019,-35.82591,-1.873517
6.882105827,-2.432514,-1.95443,-0.05014454,1.0022,-0.1946319,0.007452007,-37.8019,-35.82591,-1.873517
6.892101765,-2.247914,-2.073135,-0.2330568,1.003081,-0.1898296,-0.000686558,-37.8019,-35.82591,-1.873517
6.902097225,-2.186381,-1.657669,-0.1720861,1.009815,-0.1854196,-0.01122811,-37.8019,-35.82591,-1.873517
6.912093163,-2.124848,-1.004793,0.01082622,1.004908,-0.1835465,-0.008348579,-37.8019,-35.82591,-1.873517
6.9220891,-2.124848,-0.5299737,-0.05014454,1.010005,-0.1956864,-0.01840443,-37.79852,-35.83245,-2.64752
6.932085037,-1.571049,-0.2332119,-0.1111153,1.007526,-0.1932355,-0.01074353,-37.79852,-35.83245,-2.64752
6.942081451,-1.447982,0.1229023,-0.1720861,1.001976,-0.1831316,-0.009779302,-37.79852,-35.83245,-2.64752
6.952076435,-2.001781,0.5383689,0.07179698,1.002455,-0.1826143,-0.007387389,-37.79852,-35.83245,-2.64752
6.962072372,-2.678647,0.7757784,0.1937385,1.001003,-0.183107,-0.004991852,-37.79852,-35.83245,-2.64752
6.97206831,-2.55558,0.8351307,0.2547093,1.002082,-0.1882994,0.009364886,-37.43164,-35.44928,-2.646768
6.982064724,-1.755648,0.5383689,0.3766508,1.000748,-0.1951465,0.007454671,-37.43164,-35.44928,-2.646768
6.992060661,-0.4634504,0.4196641,0.4376215,1.002804,-0.201003,0.0002739541,-37.43164,-35.44928,-2.646768
7.002056599,-0.2173175,0.06354995,0.1937385,1.003697,-0.1965724,0.00457844,-37.43164,-35.44928,-2.646768
7.012051582,-0.7095833,0.2416071,0.1327677,1.004589,-0.1921989,0.002661455,-37.81424,-35.07174,-2.651576
7.02204752,-1.263382,0.3009594,0.4985923,1.003521,-0.1874395,-0.005952277,-37.81424,-35.07174,-2.651576
7.032043934,-1.694115,0.5383689,0.1937385,1.008032,-0.1941623,-0.006915562,-37.81424,-35.07174,-2.651576
7.042039871,-1.263382,0.1822547,0.3766508,1.001331,-0.2006032,-0.005945071,-37.81424,-35.07174,-2.651576
7.052035809,-0.3403839,0.5383689,0.2547093,0.9969407,-0.200125,0.002676829,-37.81424,-35.07174,-2.651576
7.062030792,0.7672142,0.2416071,0.5595631,0.9992664,-0.1942609,0.001235537,-37.43164,-35.44928,-2.646768
7.072027206,1.567146,0.1822547,0.4376215,1.007108,-0.1964699,0.008401076,-37.43164,-35.44928,-2.646768
7.082023144,2.244012,-0.05515479,0.3766508,1.00219,-0.19419,0.00266615,-37.43164,-35.44928,-2.646768
7.092019081,2.305545,-0.3519166,0.4376215,0.9976848,-0.1880276,-0.004506224,-37.43164,-35.44928,-2.646768
7.102015018,1.505613,-0.4706214,0.3766508,0.9986244,-0.1860038,0.002191682,-37.43164,-35.44928,-2.646768
7.112010479,0.4595481,-0.411269,0.5595631,0.9995686,-0.1846107,-0.006903268,-37.81424,-35.07174,-2.651576
7.122006416,-0.2173175,-0.5893261,0.8644169,1.002712,-0.1961717,-0.002598586,-37.81424,-35.07174,-2.651576
7.132002354,0.705681,-0.886088,0.6815046,1.001032,-0.2101612,0.0122438,-37.81424,-35.07174,-2.651576
7.141998291,2.551678,-1.242202,0.5595631,0.9908121,-0.2108447,0.01274037,-37.81424,-35.07174,-2.651576
7.151994228,3.16701,-1.835726,0.07179698,1.002669,-0.1936551,0.006972362,-37.81424,-35.07174,-2.651576
7.161990166,3.228544,-2.310545,0.07179698,0.995427,-0.1971691,0.01033592,-38.18899,-35.07455,-2.654357
7.171985626,4.090009,-2.310545,-0.05014454,1.003704,-0.197124,-0.002600071,-38.18899,-35.07455,-2.654357
7.181981564,4.459208,-2.19184,-0.05014454,1.003556,-0.189422,-0.01025901,-38.18899,-35.07455,-2.654357
7.191977501,4.459208,-2.132488,-0.1111153,1.00987,-0.1883386,-0.01170603,-38.18899,-35.07455,-2.654357
7.201973438,5.074541,-1.95443,-0.2330568,1.002288,-0.1996124,-0.005946993,-38.18899,-35.07455,-2.654357
7.211969376,5.751406,-1.895078,-0.4769399,1.001359,-0.2020385,-0.00355187,-37.82379,-34.68811,-2.266602
7.221964836,5.812939,-2.310545,-0.5988814,0.9948564,-0.1928508,0.005550046,-37.82379,-34.68811,-2.266602
7.231960774,4.459208,-2.251192,-0.5988814,0.9987247,-0.1913516,0.001714308,-37.82379,-34.68811,-2.266602
7.241956711,3.105477,-2.369897,-0.3549984,1.004119,-0.1932019,0.0002696525,-37.82379,-34.68811,-2.266602
7.251952648,2.551678,-2.19184,-0.5379106,0.9996325,-0.188011,-0.006902504,-37.82379,-34.68811,-2.266602
7.261948586,2.059412,-1.95443,-0.05014454,1.004256,-0.1748343,-0.01074257,-37.81424,-35.07174,-2.651576
7.271944046,1.382547,-1.479612,0.1327677,1.006756,-0.1781866,-0.01074606,-37.81424,-35.07174,-2.651576
7.281939983,1.628679,-1.301555,0.31568,1.00408,-0.1913291,-0.007387979,-37.81424,-35.07174,-2.651576
7.291935921,2.059412,-0.5299737,0.6205339,1.00157,-0.1875482,-0.01360606,-37.81424,-35.07174,-2.651576
7.301931858,1.628679,-0.411269,0.8644169,0.999698,-0.1657178,-0.01360842,-37.81424,-35.07174,-2.651576
7.311927795,-0.894183,0.4790165,0.9253877,1.012607,-0.1786446,-0.02032766,-38.57328,-34.69374,-2.272163
7.321923733,-2.309447,1.131893,0.9863584,1.01096,-0.1947176,-0.02079923,-38.57328,-34.69374,-2.272163
7.331919193,-2.74018,1.428654,0.9253877,1.002908,-0.2070033,-0.01838915,-38.57328,-34.69374,-2.272163
7.341915131,-2.74018,1.606712,0.6205339,0.9999242,-0.2035642,-0.00785616,-38.57328,-34.69374,-2.272163
7.351911068,-3.109379,1.725416,0.2547093,0.996546,-0.2049571,0.00650737,-38.57328,-34.69374,-2.272163
7.361907005,-2.801713,1.369302,-0.1111153,1.000287,-0.1966398,0.004584402,-37.81763,-35.0652,-1.877573
7.371902943,-3.232446,1.013188,-0.4159691,0.9973204,-0.1942248,0.009374713,-37.81763,-35.0652,-1.877573
7.381898403,-3.047846,0.4196641,-0.5379106,1.000268,-0.1956858,0.002669885,-37.81763,-35.0652,-1.877573
7.391894341,-2.92478,-0.05515479,-0.5379106,0.9973368,-0.1952534,0.00315346,-37.81763,-35.0652,-1.877573
7.401890278,-3.232446,-0.5299737,-0.7817937,1.001537,-0.1854866,-0.0006849855,-37.81763,-35.0652,-1.877573
7.411886215,-4.64771,-0.4706214,-0.5379106,0.9976851,-0.1880188,-0.003549075,-37.81763,-35.0652,-1.877573
7.421882153,-5.632242,-0.7080309,-0.5379106,1.00214,-0.1918797,-0.01025591,-37.81763,-35.0652,-1.877573
7.431878567,-5.939908,-0.8267356,-0.5988814,0.9964773,-0.2017104,-0.01024351,-37.81763,-35.0652,-1.877573
7.441873551,-5.816842,-0.6486785,-0.5988814,0.9978206,-0.1953491,-0.008333184,-37.81763,-35.0652,-1.877573
7.451869488,-5.816842,-0.5299737,-0.6598521,1.000329,-0.1992046,-0.01025087,-37.81763,-35.0652,-1.877573
7.461865425,-5.632242,-0.411269,-0.4159691,1.009004,-0.1942045,-0.01361731,-38.19067,-35.07128,-2.267355
7.471861363,-5.263042,-0.5893261,-0.3549984,1.012433,-0.1694371,-0.02272261,-38.19067,-35.07128,-2.267355
7.481857777,-6.55524,-0.2925643,-0.2330568,1.012642,-0.1542372,-0.008369607,-38.19067,-35.07128,-2.267355
7.49185276,-7.908971,-0.5893261,0.01082622,1.014523,-0.1508905,-0.01842385,-38.19067,-35.07128,-2.267355
7.501848698,-9.631902,-0.886088,0.01082622,1.006251,-0.1772027,-0.008352553,-38.19067,-35.07128,-2.267355
7.511844635,-10.43183,-1.420259,-0.1720861,0.995284,-0.1900758,-0.010723,-37.44736,-34.68857,-2.650824
7.521841049,-11.17023,-2.251192,-0.3549984,0.9876688,-0.1992968,0.006999964,-37.44736,-34.68857,-2.650824
7.531836987,-11.90863,-2.666659,-0.4159691,0.9919923,-0.2213454,0.03092691,-37.44736,-34.68857,-2.650824
7.541832924,-9.939568,-3.43824,-0.5988814,0.9888372,-0.235036,0.02854305,-37.44736,-34.68857,-2.650824
7.551827908,-7.416706,-3.853706,-1.086647,0.9829574,-0.2339225,0.00366706,-37.44736,-34.68857,-2.650824
7.561824322,-5.632242,-4.387877,-1.574414,0.9881139,-0.2231606,0.000305268,-38.19067,-35.07128,-2.267355
7.571820259,-4.401577,-4.565935,-1.879267,0.9933322,-0.2158605,-0.009755806,-38.19067,-35.07128,-2.267355
7.584314823,-4.032378,-4.625287,-2.306063,1.000199,-0.1924654,-0.01695244,-38.19067,-35.07128,-2.267355
7.594310761,-4.893843,-4.803344,-2.428004,1.004664,-0.196777,-0.01983057,-38.19067,-35.07128,-2.267355
7.601808071,-5.01691,-4.743992,-2.610917,0.9954265,-0.1979533,-0.02220705,-38.19067,-35.07128,-2.267355
7.611803532,-6.186041,-4.922049,-2.976741,0.9981429,-0.1866133,-0.0102503,-37.80638,-35.4521,-2.649548
7.621799469,-7.170573,-5.100106,-2.91577,0.9990613,-0.1837102,-0.01360268,-37.80638,-35.4521,-2.649548
7.631795406,-8.770436,-5.396868,-2.976741,0.995699,-0.1861494,-0.007374702,-37.80638,-35.4521,-2.649548
7.64428997,-10.61643,-5.45622,-3.281595,0.9968821,-0.1973333,-0.01072392,-37.80638,-35.4521,-2.649548
7.651787281,-10.9241,-5.812335,-3.159653,0.9965309,-0.2046601,-0.01407145,-37.81255,-35.075,-3.038578
7.664281845,-10.43183,-6.168448,-4.074214,1.001647,-0.2177277,-0.01934134,-37.81255,-35.075,-3.038578
7.674277782,-8.893503,-6.524563,-4.683922,0.9967864,-0.2182614,-0.01406839,-37.81255,-35.075,-3.038578
7.68427372,-7.970505,-6.70262,-5.171688,0.990198,-0.2047984,-0.0154961,-37.81255,-35.075,-3.038578
7.69426918,-8.708903,-6.94003,-5.476542,0.9991155,-0.1866468,-0.0159949,-37.81255,-35.075,-3.038578
7.704265118,-9.878035,-6.880677,-5.415571,1.003229,-0.1983026,-0.02413486,-37.44567,-34.69184,-3.037826
7.714261055,-9.570369,-6.287153,-5.3546,1.003233,-0.1989596,-0.04279917,-37.44567,-34.69184,-3.037826
7.724256992,-8.770436,-5.45622,-5.476542,1.011798,-0.1881567,-0.04903837,-37.44567,-34.69184,-3.037826
7.73425293,-9.262702,-4.565935,-5.537513,1.01267,-0.1828555,-0.05574132,-37.44567,-34.69184,-3.037826
7.74424839,-9.631902,-3.853706,-5.659454,1.014482,-0.1754999,-0.05239634,-37.44567,-34.69184,-3.037826
7.754244327,-9.508835,-3.141478,-5.903337,1.008813,-0.1847702,-0.04424828,-37.43164,-35.44928,-2.646768
7.764240265,-8.401237,-2.310545,-5.659454,1.000705,-0.1941676,-0.0447103,-37.43164,-35.44928,-2.646768
7.774236202,-7.478239,-1.895078,-5.537513,1.001297,-0.1737069,-0.04040942,-37.43164,-35.44928,-2.646768
7.78423214,-7.662838,-1.598316,-5.415571,1.007125,-0.1726155,-0.03994128,-37.43164,-35.44928,-2.646768
7.794228554,-7.847438,-1.360907,-5.171688,1.010975,-0.1701273,-0.04186293,-37.43164,-35.44928,-2.646768
7.804223537,-7.724371,-1.301555,-5.232659,1.013962,-0.1734523,-0.03995298,-37.79513,-35.83899,-3.421524
7.814219475,-7.109039,-1.420259,-5.476542,1.003374,-0.1804647,-0.03993272,-37.79513,-35.83899,-3.421524
7.824215412,-6.493707,-1.479612,-5.476542,1.001438,-0.180888,-0.02892198,-37.79513,-35.83899,-3.421524
7.834211826,-5.939908,-1.835726,-5.598484,0.9921358,-0.1786772,-0.03273495,-37.79513,-35.83899,-3.421524
7.844207764,-5.939908,-2.132488,-5.720425,1.002256,-0.1726459,-0.03275414,-37.79513,-35.83899,-3.421524
7.854203701,-5.693775,-2.42925,-5.659454,1.004735,-0.1750881,-0.0394579,-37.42208,-35.8329,-3.031741
7.864198685,-4.64771,-2.666659,-6.08625,1.010844,-0.189086,-0.0423364,-37.42208,-35.8329,-3.031741
7.874194622,-2.74018,-2.42925,-6.208191,1.009887,-0.1901119,-0.04616307,-37.42208,-35.8329,-3.031741
7.884191036,-1.447982,-2.310545,-6.634986,1.008622,-0.174556,-0.04281484,-37.42208,-35.8329,-3.031741
7.894186974,-1.324916,-2.073135,-6.574016,1.00468,-0.1721779,-0.03993713,-37.42208,-35.8329,-3.031741
7.904182911,-1.140316,-1.95443,-6.634986,1.009818,-0.1604401,-0.04282057,-36.67091,-35.83055,-3.413182
7.914178848,-1.078783,-1.776374,-6.695957,1.007762,-0.1546056,-0.03803272,-36.67091,-35.83055,-3.413182
7.924174309,-2.001781,-1.835726,-6.513045,1.008552,-0.144915,-0.04282236,-36.67091,-35.83055,-3.413182
7.934170246,-2.986313,-1.538964,-6.025279,1.008994,-0.1424765,-0.04282375,-36.67091,-35.83055,-3.413182
7.944166183,-4.216978,-1.242202,-5.720425,1.007947,-0.1386053,-0.04234435,-36.67091,-35.83055,-3.413182
7.954162121,-5.01691,-1.004793,-5.537513,1.015829,-0.1433836,-0.05049266,-37.03947,-36.21045,-3.026933
7.964158058,-4.83231,-0.5893261,-4.805864,1.00582,-0.1552044,-0.04616497,-37.03947,-36.21045,-3.026933
7.974153996,-3.970845,-0.1145072,-4.622952,1.003401,-0.1562724,-0.05142482,-37.03947,-36.21045,-3.026933
7.984149456,-2.494047,0.1229023,-4.257127,1.00889,-0.1628794,-0.04186117,-37.03947,-36.21045,-3.026933
7.994145393,-0.7711166,0.7757784,-4.074214,1.010211,-0.1556782,-0.0543083,-37.03947,-36.21045,-3.026933
8.004141331,-0.7711166,1.488007,-3.891303,1.006709,-0.1509187,-0.05765345,-37.03778,-36.21372,-3.413935
8.014137268,-1.201849,2.437645,-3.769361,1.010825,-0.1625043,-0.05813622,-37.03778,-36.21372,-3.413935
8.024133205,-1.571049,3.209226,-3.464507,1.003812,-0.152482,-0.06291234,-37.03778,-36.21372,-3.413935
8.034129143,-2.986313,3.921454,-2.91577,1.015425,-0.1220935,-0.05959038,-37.03778,-36.21372,-3.413935
8.044124603,-4.032378,4.514977,-2.123151,1.017716,-0.1142468,-0.05672493,-37.03778,-36.21372,-3.413935
8.054120541,-4.278511,5.049149,-1.635384,1.017874,-0.1224126,-0.04667301,-37.02823,-36.59734,-3.798908
8.064116478,-3.663178,5.464615,-0.9647059,1.010778,-0.13369,-0.04235055,-37.02823,-36.59734,-3.798908
8.074112415,-2.432514,5.523968,-0.5988814,1.004757,-0.1503046,-0.03946432,-37.02823,-36.59734,-3.798908
8.084108353,-1.694115,5.939435,-0.1111153,1.00492,-0.1590878,-0.04376953,-37.02823,-36.59734,-3.798908
8.094103813,-0.8326498,6.058139,-0.1111153,1.005856,-0.1571562,-0.04712169,-37.02823,-36.59734,-3.798908
8.104099751,0.2134152,6.354901,-0.1111153,1.009908,-0.1653416,-0.04760522,-37.03778,-36.21372,-3.413935
8.114095688,2.182479,6.176844,-0.1720861,1.016995,-0.1535609,-0.05001349,-37.03778,-36.21372,-3.413935
8.124091625,2.797811,5.939435,-0.1720861,1.010835,-0.1365343,-0.0346927,-37.03778,-36.21372,-3.413935
8.134087563,2.120945,5.345911,-0.1111153,1.002171,-0.14195,-0.02366895,-37.03778,-36.21372,-3.413935
8.1440835,1.997879,4.514977,-0.1720861,0.9992296,-0.1666858,-0.01217163,-36.66135,-36.21417,-3.798156
8.154079914,3.228544,3.505987,-0.05014454,0.9891041,-0.1721216,-0.0001881766,-36.66135,-36.21417,-3.798156
8.164074898,5.013007,2.140883,-0.3549984,0.9984497,-0.1768183,-0.002596139,-36.66135,-36.21417,-3.798156
8.174070835,6.243672,1.369302,-0.2940276,0.9976138,-0.1584348,-0.009778057,-36.66135,-36.21417,-3.798156
8.184066773,6.859004,1.191245,0.07179698,1.00547,-0.136071,-0.02559052,-36.66135,-36.21417,-3.798156
8.19406271,6.059072,1.369302,0.3766508,1.015633,-0.1069199,-0.04810882,-37.04565,-35.83336,-3.415963
8.204059124,4.705341,2.200235,0.8644169,1.024111,-0.1175572,-0.06056384,-37.04565,-35.83336,-3.415963
8.214055061,4.151542,2.912464,1.230241,1.018715,-0.1414091,-0.05336965,-37.04565,-35.83336,-3.415963
8.224050045,4.889941,3.505987,1.230241,1.008204,-0.1521583,-0.03707697,-37.04565,-35.83336,-3.415963
8.234045982,6.551338,4.099511,1.230241,1.004211,-0.1731546,-0.03945749,-37.04565,-35.83336,-3.415963
8.244042397,7.105137,3.980806,1.169271,1.003268,-0.1745171,-0.02701251,-37.39849,-36.97397,-3.025658
8.254038334,6.674405,4.099511,1.291212,1.005221,-0.1486885,-0.02319396,-37.39849,-36.97397,-3.025658
8.264034271,5.812939,3.802749,1.474125,1.000304,-0.1463822,-0.02605744,-37.39849,-36.97397,-3.025658
8.274030209,5.689873,3.684045,1.778978,1.012854,-0.139703,-0.01363806,-37.39849,-36.97397,-3.025658
8.284025669,6.243672,3.32793,2.022861,1.012833,-0.1387886,-0.01985975,-37.39849,-36.97397,-3.025658
8.294021607,6.551338,2.853111,2.388686,1.014865,-0.1430824,-0.015555,-36.66135,-36.21417,-3.798156
8.304017544,7.228204,2.615702,2.144803,1.014668,-0.1587066,-0.02320785,-36.66135,-36.21417,-3.798156
8.314013481,8.028135,2.437645,2.083832,1.005542,-0.1656594,-0.01984011,-36.66135,-36.21417,-3.798156
8.324009419,8.212735,2.200235,1.96189,1.006266,-0.1782884,-0.02079528,-36.66135,-36.21417,-3.798156
8.334005356,8.643468,2.140883,1.839949,1.001602,-0.1632198,-0.01026235,-36.66135,-36.21417,-3.798156
8.344000816,7.966602,2.022178,1.90092,1.008337,-0.1587834,-0.01793245,-36.66473,-36.20763,-3.024152
8.353996754,7.53587,1.962826,2.266744,1.005386,-0.1574102,-0.02079912,-36.66473,-36.20763,-3.024152
8.363992691,6.920537,2.200235,2.083832,1.005871,-0.1574621,-0.02750002,-36.66473,-36.20763,-3.024152
8.373988628,5.997539,1.962826,2.205774,1.010549,-0.1728496,-0.01984699,-36.66473,-36.20763,-3.024152
8.383984566,6.243672,1.903473,2.144803,0.9988133,-0.1706474,-0.01934852,-36.66473,-36.20763,-3.024152
8.393980503,6.059072,1.547359,1.96189,0.9935399,-0.1750417,-0.01024526,-36.6726,-35.82728,-3.02618
8.403975964,7.412803,1.428654,2.205774,0.9978891,-0.1729593,-0.00451046,-36.6726,-35.82728,-3.02618
8.413971901,8.397335,1.07254,2.388686,1.00143,-0.1539377,-0.004521531,-36.6726,-35.82728,-3.02618
8.423967838,9.258801,0.716426,2.388686,1.002007,-0.1588295,-0.009307038,-36.6726,-35.82728,-3.02618
8.433963776,10.3664,0.3603118,2.510627,1.007205,-0.1762778,-0.0155331,-36.6726,-35.82728,-3.02618
8.443959713,11.35093,0.4196641,2.388686,1.005944,-0.1613569,-0.02845629,-37.03778,-36.21372,-3.413935
8.45395565,9.689533,0.5977212,2.144803,1.011708,-0.1568301,-0.02416032,-37.03778,-36.21372,-3.413935
8.463951111,7.966602,0.5977212,1.474125,1.011806,-0.1878977,-0.02080246,-37.03778,-36.21372,-3.413935
8.473947048,8.028135,0.4196641,0.9253877,1.001467,-0.2079247,-0.009772031,-37.03778,-36.21372,-3.413935
8.483942986,8.889601,0.06354995,0.31568,0.9968281,-0.1943968,-0.008331698,-37.03778,-36.21372,-3.413935
8.493938923,9.197267,-0.2332119,-0.3549984,1.006261,-0.1776577,-0.005002421,-37.04117,-36.20718,-2.639931
8.50393486,8.828068,-0.4706214,-0.7208229,1.00813,-0.1475275,-0.008842045,-37.04117,-36.20718,-2.639931
8.513930798,6.551338,-0.7673832,-0.6598521,1.004392,-0.1301075,-0.008840014,-37.04117,-36.20718,-2.639931
8.523926258,5.62834,-0.886088,-0.1720861,1.009514,-0.1437311,-0.02176699,-37.04117,-36.20718,-2.639931
8.533922196,6.612871,-0.9454404,-0.1111153,1.007674,-0.1496338,-0.02559087,-37.04117,-36.20718,-2.639931
8.543918133,7.597403,-1.064145,0.1327677,1.006764,-0.1530402,-0.02415268,-37.04734,-35.83009,-3.028961
8.55391407,7.966602,-1.064145,-0.05014454,1.006582,-0.143325,-0.02415486,-37.04734,-35.83009,-3.028961
8.563910484,5.997539,-0.8267356,0.31568,1.001721,-0.1438675,-0.01983907,-37.04734,-35.83009,-3.028961
8.573906422,3.597743,-0.5299737,0.1937385,1.010818,-0.1611817,-0.01985046,-37.04734,-35.83009,-3.028961
8.583901405,2.797811,-0.2925643,0.31568,1.006128,-0.1710151,-0.02223264,-37.04734,-35.83009,-3.028961
8.593897343,1.690213,0.004197581,0.1937385,1.005983,-0.1632385,-0.02175581,-37.04117,-36.20718,-2.639931
8.603893757,0.5826145,0.4196641,0.01082622,1.014797,-0.1654765,-0.01985629,-37.04117,-36.20718,-2.639931
8.613889694,-0.5865169,0.7757784,0.07179698,1.011096,-0.1499601,-0.01554666,-37.04117,-36.20718,-2.639931
8.623885631,-1.386449,1.191245,0.4376215,1.011202,-0.1558945,-0.02703114,-37.04117,-36.20718,-2.639931
8.633881569,-0.7711166,2.022178,0.6205339,1.008489,-0.1671379,-0.02845924,-37.04117,-36.20718,-2.639931
8.643877506,-0.4634504,2.793759,0.8034461,1.010634,-0.1514884,-0.02224552,-37.04286,-36.20391,-2.252929
8.653872967,-0.03271778,4.158864,0.9253877,1.009802,-0.1594247,-0.03803504,-37.04286,-36.20391,-2.252929
8.663868904,-0.094251,5.642673,1.1083,1.019069,-0.1603933,-0.05767256,-37.04286,-36.20391,-2.252929
8.673864841,-1.140316,6.651663,0.6205339,1.024904,-0.1598184,-0.06055434,-37.04286,-36.20391,-2.252929
8.683860779,-2.863246,7.126482,0.6205339,1.015454,-0.1747929,-0.03038372,-37.04286,-36.20391,-2.252929
8.693856716,-3.293979,7.245187,0.31568,1.001351,-0.1758899,-0.01360869,-37.04286,-36.20391,-2.252929
8.703852653,-4.586177,6.117492,-0.1720861,1.001019,-0.1569789,0.03568036,-37.04286,-36.20391,-2.252929
8.713848114,-5.386109,5.049149,0.1937385,0.9834655,-0.1563231,0.03906082,-37.04286,-36.20391,-2.252929
8.723844051,-6.55524,3.980806,0.6815046,0.9941036,-0.1523921,0.02085537,-37.04286,-36.20391,-2.252929
8.733839989,-7.355172,3.32793,0.9863584,1.017214,-0.1380274,0.0007111926,-37.03331,-36.58754,-2.637903
8.743835926,-7.724371,2.971816,1.352183,1.011315,-0.1352108,0.002635056,-37.03331,-36.58754,-2.637903
8.753831863,-7.662838,2.971816,1.535095,1.009752,-0.1563609,-0.02176415,-37.03331,-36.58754,-2.637903
8.763827801,-6.247574,3.624692,1.90092,1.017901,-0.1495151,-0.03470168,-37.03331,-36.58754,-2.637903
8.773823738,-6.432174,3.505987,2.205774,1.019433,-0.1526847,-0.01268903,-37.03331,-36.58754,-2.637903
8.783819199,-4.64771,3.743397,2.75451,0.9962431,-0.1633432,-0.01216728,-36.64901,-36.96835,-3.020096
8.793815136,-2.92478,3.387283,3.120335,0.9865771,-0.1673208,-0.00114216,-36.64901,-36.96835,-3.020096
8.803811073,-1.140316,2.971816,3.912955,0.9993364,-0.1718273,0.009844007,-36.64901,-36.96835,-3.020096
8.813807011,0.1518819,2.55635,3.973926,1.001337,-0.174778,0.001705486,-36.64901,-36.96835,-3.020096
8.823802948,0.5826145,2.022178,4.33975,0.9988184,-0.1704893,-0.002119836,-36.64901,-36.96835,-3.020096
8.833798885,-0.03271778,1.666064,4.583633,1.005039,-0.1646009,-0.009310838,-37.0535,-35.45301,-3.417991
8.843794346,-1.263382,1.428654,4.827517,1.004372,-0.1548339,-0.002612124,-37.0535,-35.45301,-3.417991
8.853790283,-4.093911,1.488007,4.949458,1.007278,-0.1537564,0.00264687,-37.0535,-35.45301,-3.417991
8.863786221,-5.447642,1.250597,4.827517,1.009399,-0.1629517,0.002166963,-37.0535,-35.45301,-3.417991
8.873782158,-6.985973,1.07254,4.705575,1.006282,-0.1785459,0.004090716,-37.0535,-35.45301,-3.417991
8.883778572,-6.862906,0.6570736,4.400721,1.001684,-0.1932193,0.003623934,-37.04395,-35.83663,-3.802965
8.893774509,-5.324575,0.06354995,3.912955,1.000512,-0.2088716,-0.004984363,-37.04395,-35.83663,-3.802965
8.903770447,-3.601645,-0.2925643,3.730042,0.9914379,-0.1924192,0.006991622,-37.04395,-35.83663,-3.802965
8.91376543,-2.617113,-0.5299737,3.425189,0.9972256,-0.1894769,-0.002590746,-37.04395,-35.83663,-3.802965
8.923761368,-1.509515,-0.886088,3.181306,1.004567,-0.1913283,-0.00834598,-37.04395,-35.83663,-3.802965
8.933757782,-0.5865169,-0.886088,2.876452,1.002277,-0.199153,-0.00881855,-37.05181,-35.45628,-3.804993
8.943753719,0.4595481,-0.5893261,2.266744,1.004876,-0.2078749,-0.01169229,-37.05181,-35.45628,-3.804993
8.953749657,1.567146,-0.4706214,1.596066,1.009727,-0.2068774,-0.01935822,-37.05181,-35.45628,-3.804993
8.963745594,1.197947,-0.1738595,0.9863584,1.006424,-0.1864409,-0.009307628,-37.05181,-35.45628,-3.804993
8.973741055,-0.1557842,0.06354995,0.5595631,1.005668,-0.1981448,-0.01217475,-37.05181,-35.45628,-3.804993
8.983736992,-0.2788507,0.1229023,0.3766508,0.9971953,-0.1881118,-0.01264114,-37.42825,-35.45582,-3.420772
8.993732929,-0.894183,0.2416071,0.31568,1.002082,-0.162663,-0.003563268,-37.42825,-35.45582,-3.420772
9.003728867,-1.509515,0.2416071,0.5595631,1.002947,-0.1568014,-0.002130558,-37.42825,-35.45582,-3.420772
9.013724804,-0.9557163,-0.1145072,0.7424754,1.006234,-0.1761829,-0.00308845,-37.42825,-35.45582,-3.420772
9.023720741,0.8287475,-0.4706214,0.6815046,1.00456,-0.1907899,-0.002603193,-37.42825,-35.45582,-3.420772
9.033716679,2.059412,-0.886088,0.1937385,1.004587,-0.1922427,-0.002124291,-37.80469,-35.45536,-3.03655
9.043712139,1.997879,-1.420259,0.07179698,0.9976068,-0.1835284,0.009371459,-37.80469,-35.45536,-3.03655
9.053708076,0.5826145,-1.479612,-0.1111153,0.9984877,-0.178713,0.002668618,-37.80469,-35.45536,-3.03655
9.063704014,-1.201849,-1.360907,0.01082622,1.008301,-0.1824725,-0.004526161,-37.80469,-35.45536,-3.03655
9.073699951,-1.694115,-1.242202,0.01082622,1.009281,-0.1830531,-0.0169707,-37.80469,-35.45536,-3.03655
9.083695889,-1.140316,-0.6486785,0.1327677,1.010631,-0.1772346,-0.02128173,-37.42825,-35.45582,-3.420772
9.093691826,-0.2173175,-0.2332119,0.3766508,1.002287,-0.1739935,-0.02078944,-37.42825,-35.45582,-3.420772
9.103687763,1.197947,0.3009594,0.8034461,1.002487,-0.184689,-0.02174419,-37.42825,-35.45582,-3.420772
9.113683224,2.305545,0.716426,0.7424754,1.007021,-0.166602,-0.01984245,-37.42825,-35.45582,-3.420772
9.123679161,1.813279,1.013188,1.169271,1.00805,-0.1694886,-0.01888635,-37.42825,-35.45582,-3.420772
9.133675098,1.936346,1.013188,1.474125,0.9988618,-0.1729884,-0.009776485,-36.68494,-35.0731,-3.80424
9.143671036,1.382547,1.428654,1.657037,1.006213,-0.1753079,-0.01361731,-36.68494,-35.0731,-3.80424
9.153666973,0.8287475,1.547359,1.657037,1.007776,-0.1805654,-0.007397194,-36.68494,-35.0731,-3.80424
9.163663387,0.2134152,1.784769,1.596066,1.008343,-0.1850066,-0.01601141,-36.68494,-35.0731,-3.80424
9.173658371,-0.6480501,2.081531,1.230241,1.005763,-0.1772562,-0.01313745,-36.68494,-35.0731,-3.80424
9.183654308,-2.617113,2.140883,1.1083,1.006801,-0.1806373,-0.01313839,-37.04565,-35.83336,-3.415963
9.193650246,-3.786245,2.081531,0.9863584,1.005912,-0.1849318,-0.002607058,-37.04565,-35.83336,-3.415963
9.20364666,-4.155444,2.022178,0.5595631,1.004036,-0.1888433,-0.001167054,-37.04565,-35.83336,-3.415963
9.213642597,-3.909311,1.666064,0.4376215,1.002017,-0.1849518,0.003621226,-37.04565,-35.83336,-3.415963
9.223638535,-3.663178,1.07254,0.31568,1.001382,-0.1772331,-0.001165416,-37.04565,-35.83336,-3.415963
9.233634472,-3.540112,0.5383689,0.2547093,0.9996001,-0.1859407,0.006975725,-37.05968,-35.07592,-3.807021
9.243629456,-2.801713,0.06354995,0.07179698,1.006052,-0.1921129,0.008880372,-37.05968,-35.07592,-3.807021
9.25362587,-1.755648,-0.1145072,-0.1111153,1.005507,-0.1893001,-0.0011695,-37.05968,-35.07592,-3.807021
9.263621807,-2.247914,-0.3519166,0.1937385,0.9993119,-0.1710489,-0.0112135,-37.05968,-35.07592,-3.807021
9.273617745,-3.663178,-0.05515479,-0.05014454,1.008206,-0.1777422,-0.01840592,-37.05968,-35.07592,-3.807021
9.283613682,-3.970845,0.1229023,0.1327677,1.006457,-0.1885025,-0.02222871,-37.05181,-35.45628,-3.804993
9.293609619,-3.970845,0.5977212,-0.05014454,1.006502,-0.1909489,-0.02414246,-37.05181,-35.45628,-3.804993
9.303605557,-3.601645,0.8944831,-0.1111153,1.000676,-0.1919876,-0.0188677,-37.05181,-35.45628,-3.804993
9.313601017,-3.540112,0.716426,0.31568,0.9938306,-0.1385684,-0.007862273,-37.05181,-35.45628,-3.804993
9.323596954,-6.186041,0.5383689,0.6815046,1.003943,-0.1319987,-0.00213868,-37.05181,-35.45628,-3.804993
9.333592892,-7.416706,-0.2332119,0.9253877,1.016282,-0.1662261,0.001198654,-37.79343,-35.84225,-3.808526
9.343588829,-5.693775,-0.7673832,0.8644169,1.008218,-0.2037678,0.005050988,-37.79343,-35.84225,-3.808526
9.353584766,-3.355512,-1.479612,0.3766508,1.00094,-0.2053256,0.009849837,-37.79343,-35.84225,-3.808526
9.363580704,-1.940248,-1.835726,-0.1720861,1.000913,-0.203877,0.00889236,-37.79343,-35.84225,-3.808526
9.373576641,-1.694115,-2.369897,-0.4159691,0.9919854,-0.1959196,-0.004972832,-37.42487,-35.46236,-4.194776
9.383572102,-2.74018,-2.310545,-0.6598521,0.9976491,-0.1860582,-0.001635212,-37.42487,-35.46236,-4.194776
9.393568039,-3.970845,-2.369897,-0.7817937,0.9997774,-0.1958183,-0.01072935,-37.42487,-35.46236,-4.194776
9.403563976,-3.786245,-2.073135,-0.7817937,0.9974033,-0.1993414,-0.0188601,-37.42487,-35.46236,-4.194776
9.413559914,-3.847778,-2.19184,-1.147618,0.9979987,-0.1787841,-0.004030575,-37.42487,-35.46236,-4.194776
9.423555851,-4.524643,-2.132488,-1.391501,1.002216,-0.1956824,-0.001162119,-37.80916,-35.08154,-3.812582
9.433551788,-3.663178,-2.488602,-1.513443,0.9986952,-0.2156054,0.006506366,-37.80916,-35.08154,-3.812582
9.443548203,-1.386449,-2.844716,-1.757326,0.9970941,-0.20844,-0.003542786,-37.80916,-35.08154,-3.812582
9.453543186,-0.7711166,-3.497592,-2.06218,0.9963723,-0.1957408,0.005069572,-37.80916,-35.08154,-3.812582
9.463539124,-0.8326498,-3.675649,-2.06218,0.9987076,-0.190345,0.005542687,-37.80916,-35.08154,-3.812582
9.473535061,-0.7095833,-3.43824,-1.818297,1.003037,-0.1881061,-0.02461573,-37.79932,-35.46571,-4.262055
9.483531475,-1.632582,-3.497592,-2.367033,1.014122,-0.181583,-0.02607246,-37.79932,-35.46571,-4.262055
9.493527413,-2.494047,-3.141478,-2.488975,1.004691,-0.1982474,-0.02126597,-37.79932,-35.46571,-4.262055
9.50352335,-2.186381,-2.785364,-2.671887,1.004792,-0.2035776,-0.01982904,-37.79932,-35.46571,-4.262055
9.513519287,-2.309447,-2.726011,-3.098683,0.9997561,-0.1949434,-0.02125822,-37.79932,-35.46571,-4.262055
9.523514271,-2.92478,-2.607306,-2.91577,0.9959459,-0.1736065,-0.01790704,-37.43611,-35.07546,-3.422799
9.533510685,-3.847778,-3.022773,-2.793829,0.9994593,-0.1787772,-0.006426004,-37.43611,-35.07546,-3.422799
9.543506622,-3.293979,-3.378887,-2.8548,0.997648,-0.1860933,-0.00546381,-37.43611,-35.07546,-3.422799
9.55350256,-1.755648,-3.497592,-2.732858,1.001921,-0.180239,-0.01217283,-37.43611,-35.07546,-3.422799
9.563498497,-1.509515,-3.853706,-2.91577,1.009262,-0.1821035,-0.01936379,-37.43611,-35.07546,-3.422799
9.573494434,-1.017249,-3.794354,-3.159653,1.008913,-0.1893381,-0.01266125,-37.78558,-36.22261,-3.806498
9.583490372,-0.894183,-3.913059,-3.464507,1.00165,-0.1919991,-0.02221943,-37.78558,-36.22261,-3.806498
9.593485832,-0.4634504,-4.031764,-3.586449,1.00518,-0.1981808,-0.01504535,-37.78558,-36.22261,-3.806498
9.60348177,-0.03271778,-4.20982,-3.769361,0.9976999,-0.1891001,-0.01551322,-37.78558,-36.22261,-3.806498
9.613477707,0.3980148,-4.506582,-3.403537,0.9924997,-0.1717264,-0.01742294,-37.78558,-36.22261,-3.806498
9.623473644,0.8287475,-4.981401,-3.281595,1.004901,-0.1573716,-0.01553395,-37.42458,-35.4629,-4.259275
9.633469582,1.25948,-5.45622,-2.91577,1.005027,-0.164203,-0.01888244,-37.42458,-35.4629,-4.259275
9.643465519,3.16701,-5.931039,-2.976741,1.005789,-0.1787311,-0.01505142,-37.42458,-35.4629,-4.259275
9.653461456,4.889941,-6.227801,-2.976741,1.004877,-0.1821989,-0.02031327,-37.42458,-35.4629,-4.259275
9.663456917,4.828408,-6.405858,-2.91577,1.004014,-0.1623713,-0.02893124,-37.42458,-35.4629,-4.259275
9.673452854,3.720809,-6.46521,-2.8548,1.009775,-0.1579323,-0.03420677,-37.04198,-35.84045,-4.254467
9.683448791,2.859344,-6.643268,-3.098683,1.00721,-0.1768996,-0.0303688,-37.04198,-35.84045,-4.254467
9.693444729,2.797811,-6.761972,-3.342566,1.006116,-0.1706259,-0.03276139,-37.04198,-35.84045,-4.254467
9.703440666,2.859344,-6.821325,-3.342566,1.001981,-0.1837447,-0.02365786,-37.04198,-35.84045,-4.254467
9.713436603,3.043944,-6.880677,-3.891303,0.9956664,-0.1848545,-0.02508229,-37.04198,-35.84045,-4.254467
9.723433018,2.674744,-7.177439,-4.135185,0.9993889,-0.1755831,-0.02891978,-37.42039,-35.83617,-3.418743
9.733428955,1.321013,-7.355496,-4.196156,1.001578,-0.1624326,-0.03036271,-37.42039,-35.83617,-3.418743
9.743423939,0.3364816,-7.414848,-4.196156,1.002461,-0.1575558,-0.0303655,-37.42039,-35.83617,-3.418743
9.753419876,-0.7711166,-7.414848,-4.074214,1.004712,-0.1478407,-0.03563627,-37.42039,-35.83617,-3.418743
9.76341629,-1.447982,-7.296144,-3.586449,1.007157,-0.1482652,-0.03420469,-37.42039,-35.83617,-3.418743
9.773412228,-1.509515,-7.177439,-3.403537,1.018487,-0.1548972,-0.03996564,-37.03947,-36.21045,-3.026933
9.783408165,-1.324916,-6.880677,-3.159653,1.008456,-0.1658518,-0.04712398,-37.03947,-36.21045,-3.026933
9.793404102,-1.632582,-6.346506,-3.098683,1.005145,-0.1713328,-0.05477401,-37.03947,-36.21045,-3.026933
9.803399086,-2.247914,-5.45622,-3.098683,1.012078,-0.1512459,-0.05191982,-37.03947,-36.21045,-3.026933
9.8133955,-4.709243,-4.506582,-2.428004,1.004496,-0.1368613,-0.05669606,-37.03947,-36.21045,-3.026933
9.823391437,-6.309107,-3.082125,-1.757326,1.012587,-0.1528516,-0.06914902,-36.66812,-36.2011,-2.250148
9.833387375,-6.493707,-2.073135,-1.574414,1.017208,-0.1654079,-0.07058958,-36.66812,-36.2011,-2.250148
9.843383312,-5.693775,-1.360907,-1.696355,1.014397,-0.1712509,-0.0657974,-36.66812,-36.2011,-2.250148
9.85337925,-5.078443,-0.4706214,-1.391501,1.014884,-0.1712237,-0.06388397,-36.66812,-36.2011,-2.250148
9.863375187,-4.340044,-0.05515479,-1.696355,1.00393,-0.1844509,-0.05189706,-36.66812,-36.2011,-2.250148
9.873371124,-3.970845,0.004197581,-1.757326,1.004264,-0.1761438,-0.0475926,-36.6726,-35.82728,-3.02618
9.883366585,-3.786245,-0.411269,-1.818297,1.002605,-0.1653762,-0.03562808,-36.6726,-35.82728,-3.02618
9.893362522,-3.293979,-0.886088,-1.635384,0.9938489,-0.1659518,-0.02651972,-36.6726,-35.82728,-3.02618
9.903358459,-1.694115,-1.598316,-1.635384,0.9939219,-0.1698379,-0.02651885,-36.6726,-35.82728,-3.02618
9.913354397,-0.1557842,-2.19184,-1.635384,1.007782,-0.1555332,-0.03324676,-36.6726,-35.82728,-3.02618
9.923350334,0.8902807,-2.42925,-1.757326,1.017564,-0.1579319,-0.0509705,-37.03947,-36.21045,-3.026933
9.933346271,1.751746,-2.726011,-1.757326,1.007298,-0.1561998,-0.05191021,-37.03947,-36.21045,-3.026933
9.943342209,2.613211,-2.488602,-1.818297,1.006789,-0.1553432,-0.06339537,-37.03947,-36.21045,-3.026933
9.953337669,2.797811,-2.251192,-1.879267,0.9994491,-0.1534523,-0.05333296,-37.03947,-36.21045,-3.026933
9.963333607,3.413143,-2.251192,-1.818297,1.00444,-0.1596227,-0.04807574,-37.03947,-36.21045,-3.026933
9.973329544,4.090009,-2.310545,-1.818297,1.003846,-0.1537374,-0.04089757,-36.66643,-36.20437,-2.63715
9.983325481,4.336142,-2.19184,-1.513443,1.013983,-0.1487084,-0.04426657,-36.66643,-36.20437,-2.63715
9.993321419,3.16701,-1.95443,-1.147618,1.013423,-0.1448275,-0.04378802,-36.66643,-36.20437,-2.63715
10.003317833,2.859344,-1.301555,-1.025677,1.008223,-0.1538614,-0.06387682,-36.66643,-36.20437,-2.63715
10.01331377,3.228544,-0.7673832,-0.9647059,1.016403,-0.148372,-0.0658068,-37.03331,-36.58754,-2.637903
10.023309708,2.797811,-0.1738595,-0.8427644,1.009558,-0.1469924,-0.05957374,-37.03331,-36.58754,-2.637903
10.033304691,2.367078,0.2416071,-0.7817937,1.005035,-0.1655168,-0.05621105,-37.03331,-36.58754,-2.637903
10.043301106,2.367078,0.5977212,-0.6598521,1.008932,-0.1654311,-0.05526071,-37.03331,-36.58754,-2.637903
10.053297043,1.567146,0.716426,-0.7208229,1.0106,-0.150255,-0.04665316,-37.03331,-36.58754,-2.637903
10.06329298,0.09034869,1.07254,-0.6598521,1.00141,-0.1537943,-0.04185047,-36.66812,-36.2011,-2.250148
10.073288918,-0.4634504,0.8944831,-0.5988814,1.006076,-0.1688101,-0.04664049,-36.66812,-36.2011,-2.250148
10.083284855,0.3980148,1.191245,-0.4159691,1.006372,-0.158582,-0.04472934,-36.66812,-36.2011,-2.250148
10.093280792,0.5826145,1.30995,-0.5988814,1.002877,-0.1543565,-0.0533387,-36.66812,-36.2011,-2.250148
10.10327673,1.321013,1.191245,-0.2330568,1.009165,-0.1517762,-0.05047888,-36.66812,-36.2011,-2.250148
10.11327219,1.25948,1.428654,-0.2330568,1.010617,-0.1512748,-0.05191726,-36.66643,-36.20437,-2.63715
10.123268127,1.628679,1.666064,-0.1720861,1.010431,-0.1673014,-0.05047708,-36.66643,-36.20437,-2.63715
10.133264065,2.367078,1.962826,-0.2940276,1.005607,-0.1697825,-0.04568227,-36.66643,-36.20437,-2.63715
10.143260002,2.982411,2.140883,-0.2940276,0.9998262,-0.1732764,-0.04327841,-36.66643,-36.20437,-2.63715
10.15325594,3.905409,2.496997,-0.4159691,1.009393,-0.1639159,-0.04999757,-36.66643,-36.20437,-2.63715
10.163251877,3.720809,3.090521,-0.1111153,1.009468,-0.1420997,-0.05574623,-36.66643,-36.20437,-2.63715
10.173247814,2.982411,3.446635,-0.1720861,1.013869,-0.1430373,-0.06149657,-36.66643,-36.20437,-2.63715
10.183243275,2.674744,4.099511,-0.05014454,1.011977,-0.1459113,-0.05287816,-36.66643,-36.20437,-2.63715
10.193239212,3.53621,4.040159,0.1327677,1.007381,-0.1605365,-0.04808063,-36.66643,-36.20437,-2.63715
10.203235149,4.766874,3.921454,0.31568,0.9980295,-0.1552619,-0.03562271,-36.66643,-36.20437,-2.63715
10.213231087,5.44374,3.505987,0.2547093,1.005272,-0.1517391,-0.03802912,-37.41592,-36.20999,-2.642712
10.223227024,5.320673,2.971816,0.3766508,1.001017,-0.158565,-0.03131988,-37.41592,-36.20999,-2.642712
10.233223438,6.366738,2.55635,0.4376215,1.000142,-0.1639846,-0.03753845,-37.41592,-36.20999,-2.642712
10.243219376,7.966602,2.022178,0.2547093,1.001245,-0.1707221,-0.03275288,-37.41592,-36.20999,-2.642712
10.253215313,9.135734,1.606712,0.1937385,1.011246,-0.1583892,-0.03420921,-37.41592,-36.20999,-2.642712
10.263210297,9.258801,1.547359,0.2547093,1.009718,-0.1551099,-0.04425749,-37.04903,-35.82682,-2.641959
10.273206234,9.012668,1.30995,0.31568,1.008653,-0.1502583,-0.04282115,-37.04903,-35.82682,-2.641959
10.283202648,8.397335,1.488007,0.31568,1.007055,-0.1429701,-0.03947021,-37.04903,-35.82682,-2.641959
10.293198586,7.289737,1.844121,0.6205339,1.011789,-0.1356181,-0.04283039,-37.04903,-35.82682,-2.641959
10.303194523,6.059072,2.081531,0.7424754,1.01097,-0.1438997,-0.0433054,-37.04903,-35.82682,-2.641959
10.31319046,5.689873,2.378292,0.9253877,1.013001,-0.1482111,-0.04091496,-36.29337,-36.19829,-2.247368
10.323186398,5.62834,2.971816,1.230241,1.012064,-0.1501339,-0.03660564,-36.29337,-36.19829,-2.247368
10.333182335,5.320673,3.268578,1.596066,1.005315,-0.1542425,-0.04616434,-36.29337,-36.19829,-2.247368
10.343177795,5.382206,3.56534,2.022861,1.004673,-0.1459679,-0.0432939,-36.29337,-36.19829,-2.247368
10.353173733,5.25914,3.862102,2.266744,1.00848,-0.1410157,-0.0413875,-36.29337,-36.19829,-2.247368
10.36316967,4.397675,4.099511,2.510627,1.009987,-0.1434069,-0.04043236,-36.29169,-36.20156,-2.63437
10.373165608,3.720809,4.218216,2.75451,1.011045,-0.14772,-0.03612591,-36.29169,-36.20156,-2.63437
10.383161545,2.920877,4.218216,2.815481,1.006312,-0.15505,-0.03037286,-36.29169,-36.20156,-2.63437
10.393157482,2.428612,4.218216,2.998394,1.003051,-0.1628149,-0.02222938,-36.29169,-36.20156,-2.63437
10.40315342,2.613211,3.802749,3.181306,1.005604,-0.1691124,-0.02558224,-36.29169,-36.20156,-2.63437
10.413149357,2.613211,3.56534,3.181306,1.000219,-0.1677346,-0.02270176,-37.04117,-36.20718,-2.639931
10.423144817,2.613211,3.149873,3.364218,1.010056,-0.1722988,-0.01171048,-37.04117,-36.20718,-2.639931
10.433140755,3.53621,2.853111,3.608101,1.000357,-0.1749815,-0.01839295,-37.04117,-36.20718,-2.639931
10.443136692,4.766874,2.496997,3.608101,0.9978743,-0.1726535,-0.02413213,-37.04117,-36.20718,-2.639931
10.45313263,6.305205,2.140883,3.181306,1.001339,-0.1755051,-0.02461601,-37.04117,-36.20718,-2.639931
10.463128567,6.797471,1.844121,3.303247,1.000511,-0.1832878,-0.02365541,-36.67767,-35.81747,-1.865175
10.473124981,6.98207,1.547359,2.876452,1.002642,-0.1929645,-0.02365664,-36.67767,-35.81747,-1.865175
10.483120918,7.228204,1.488007,2.510627,1.000746,-0.195979,-0.03035262,-36.67767,-35.81747,-1.865175
10.493116856,6.243672,1.488007,2.144803,1.001536,-0.1863104,-0.03753513,-36.67767,-35.81747,-1.865175
10.503111839,4.766874,1.725416,1.778978,1.009193,-0.1788393,-0.03420037,-36.67767,-35.81747,-1.865175
10.513108254,4.213075,2.022178,1.474125,1.009764,-0.183162,-0.02989306,-37.4176,-36.20672,-2.25571
10.523104191,4.336142,2.200235,0.8644169,1.009847,-0.18749,-0.02510634,-37.4176,-36.20672,-2.25571
10.533100128,4.459208,2.259588,0.6205339,1.007487,-0.1657087,-0.02941502,-37.4176,-36.20672,-2.25571
10.543096066,3.53621,2.378292,0.6205339,1.005864,-0.1569148,-0.02080008,-37.4176,-36.20672,-2.25571
10.553092003,2.182479,2.31894,0.9253877,1.011038,-0.1471596,-0.02799025,-37.4176,-36.20672,-2.25571
10.56308794,2.059412,2.140883,0.9863584,1.00497,-0.1613586,-0.02654029,-37.4176,-36.20672,-2.25571
10.573083878,2.736278,2.140883,1.169271,1.007993,-0.1666618,-0.0284585,-37.4176,-36.20672,-2.25571
10.583079338,3.782343,2.140883,0.9863584,1.006731,-0.1774213,-0.03323929,-37.4176,-36.20672,-2.25571
10.593075276,4.766874,2.140883,1.169271,1.005785,-0.1788496,-0.02797293,-37.4176,-36.20672,-2.25571
10.603071213,5.25914,1.962826,0.9253877,1.00099,-0.1827441,-0.01839205,-36.68554,-35.43712,-1.867203
10.61306715,5.566806,1.903473,0.6815046,0.9971766,-0.1871535,-0.01407708,-36.68554,-35.43712,-1.867203
10.623063087,5.566806,1.606712,0.8034461,1.000726,-0.168657,-0.01839522,-36.68554,-35.43712,-1.867203
10.633059025,4.766874,1.547359,0.8034461,1.000627,-0.1632698,-0.01361067,-36.68554,-35.43712,-1.867203
10.643054962,3.905409,1.191245,1.169271,1.003807,-0.1510935,-0.01744796,-36.68554,-35.43712,-1.867203
10.653050899,3.105477,1.250597,1.474125,1.003393,-0.1550068,-0.01936053,-37.05241,-35.82029,-1.867956
10.66304636,2.490145,1.428654,1.596066,1.005448,-0.1608896,-0.0294127,-37.05241,-35.82029,-1.867956
10.673042297,2.305545,1.962826,1.90092,1.007909,-0.1623338,-0.03324522,-37.05241,-35.82029,-1.867956
10.683038235,0.4595481,2.912464,1.96189,1.018587,-0.1602581,-0.04187874,-37.05241,-35.82029,-1.867956
10.693034172,-2.247914,3.802749,1.778978,1.017436,-0.1768028,-0.04187248,-37.05241,-35.82029,-1.867956
10.703030109,-3.847778,4.752387,1.291212,1.018096,-0.1860095,-0.04043553,-37.4193,-36.20345,-1.868709
10.713026524,-5.01691,5.227206,1.1083,1.009878,-0.1631966,-0.02559122,-37.4193,-36.20345,-1.868709
10.723022461,-6.493707,5.523968,1.291212,1.005776,-0.1519738,-0.01170825,-37.4193,-36.20345,-1.868709
10.733018398,-7.293639,5.702025,1.90092,1.007118,-0.145652,-0.0141051,-37.4193,-36.20345,-1.868709
10.743014336,-6.985973,5.642673,2.571598,1.00829,-0.1563898,-0.0217616,-37.4193,-36.20345,-1.868709
10.753009796,-4.770776,5.58332,2.632569,1.017505,-0.180032,-0.0232073,-36.66982,-36.19783,-1.863147
10.763005733,-2.494047,5.939435,2.75451,1.008753,-0.181247,-0.03084895,-36.66982,-36.19783,-1.863147
10.773001671,-2.801713,6.651663,2.632569,1.006602,-0.1706514,-0.03659084,-36.66982,-36.19783,-1.863147
10.782997608,-5.878375,7.541948,2.876452,1.009399,-0.1637315,-0.02989743,-36.66982,-36.19783,-1.863147
10.792993545,-9.324236,8.194824,2.815481,1.006886,-0.1856749,-0.03275886,-36.66982,-36.19783,-1.863147
10.802989483,-10.98563,8.907053,2.449656,1.004779,-0.2032016,-0.03179352,-37.41592,-36.20999,-2.642712
10.81298542,-11.4779,9.381872,2.022861,1.009681,-0.2044617,-0.02079449,-37.41592,-36.20999,-2.642712
10.822981358,-11.1087,9.500577,1.657037,0.9987048,-0.1904327,-0.004028806,-37.41592,-36.20999,-2.642712
10.832976818,-10.30877,8.788348,1.413154,0.9886358,-0.1987304,0.0136982,-37.41592,-36.20999,-2.642712
10.842972755,-8.032038,7.304539,1.413154,0.989732,-0.2049207,0.02518371,-37.41592,-36.20999,-2.642712
10.852968693,-4.155444,5.939435,1.169271,0.9902695,-0.2071906,0.04145494,-37.42995,-35.45255,-3.03377
10.86296463,0.02881546,4.514977,1.169271,0.9845529,-0.2140761,0.04481671,-37.42995,-35.45255,-3.03377
10.872960567,3.53621,3.149873,0.8034461,0.9934543,-0.1956538,0.02086765,-37.42995,-35.45255,-3.03377
10.882956505,4.520741,2.259588,0.6815046,1.006092,-0.168301,0.00887417,-37.42995,-35.45255,-3.03377
10.892952442,2.797811,1.962826,0.5595631,1.011768,-0.1595823,-0.006452404,-37.42995,-35.45255,-3.03377
10.902948856,0.2134152,2.022178,0.8034461,1.008123,-0.1733923,-0.02079977,-37.80469,-35.45536,-3.03655
10.912944794,-1.324916,2.734407,0.31568,1.019194,-0.1921691,-0.0256,-37.80469,-35.45536,-3.03655
10.922939777,-1.263382,3.32793,-0.05014454,1.005601,-0.1948542,-0.02413988,-37.80469,-35.45536,-3.03655
10.932935715,-1.509515,3.624692,-0.3549984,1.00314,-0.1933573,-0.01456446,-37.80469,-35.45536,-3.03655
10.942932129,-1.878715,3.56534,-0.7208229,0.9952957,-0.1904782,-0.001629972,-37.80469,-35.45536,-3.03655
10.952928066,-2.617113,3.32793,-0.9037352,0.9953276,-0.191795,0.01368475,-37.80299,-35.45863,-3.423552
10.962924004,-2.863246,2.912464,-1.025677,0.9958705,-0.1946648,0.01751315,-37.80299,-35.45863,-3.423552
10.972919941,-2.801713,2.437645,-1.086647,1.000605,-0.1872822,0.01750299,-37.80299,-35.45863,-3.423552
10.982915878,-1.263382,1.725416,-1.025677,0.9925416,-0.1991435,0.01321292,-37.80299,-35.45863,-3.423552
10.992911816,0.9518139,1.250597,-1.086647,1.008304,-0.1823715,0.006481057,-37.80299,-35.45863,-3.423552
11.002907276,1.936346,1.013188,-0.7208229,1.000963,-0.154853,0.002658159,-37.04367,-35.83718,-3.867465
11.012903214,1.874812,0.8944831,-0.3549984,1.007367,-0.1586535,-0.001659211,-37.04367,-35.83718,-3.867465
11.022899151,2.059412,1.07254,0.01082622,1.007566,-0.1694016,-0.008356854,-37.04367,-35.83718,-3.867465
11.032895088,2.428612,1.131893,0.31568,1.010397,-0.1645214,-0.01219165,-37.04367,-35.83718,-3.867465
11.042891026,1.690213,1.191245,0.5595631,1.006924,-0.1611709,-0.01027216,-37.04367,-35.83718,-3.867465
11.052886963,0.2749484,1.428654,1.1083,1.002386,-0.1529425,-0.004044878,-37.42628,-35.45963,-3.872273
11.0628829,-1.324916,1.606712,1.230241,1.005556,-0.1659652,-0.0002184425,-37.42628,-35.45963,-3.872273
11.072878838,-2.247914,1.250597,1.535095,0.9996167,-0.1869649,0.001233047,-37.42628,-35.45963,-3.872273
11.082874775,-1.509515,0.9538354,1.413154,0.9975028,-0.20394,0.009376896,-37.42628,-35.45963,-3.872273
11.092870235,0.5826145,0.8944831,1.596066,0.9941091,-0.2050492,0.001725881,-37.42628,-35.45963,-3.872273
11.102866173,2.059412,0.3603118,1.535095,1.003583,-0.1644718,0.007920406,-37.43414,-35.07928,-3.874301
11.11286211,1.321013,0.3009594,2.144803,1.002703,-0.14362,0.005045115,-37.43414,-35.07928,-3.874301
11.122858048,0.3364816,0.3603118,2.632569,1.009738,-0.1552401,-0.005492831,-37.43414,-35.07928,-3.874301
11.132853985,0.5826145,0.3603118,2.998394,1.011373,-0.1644319,-0.004536162,-37.43414,-35.07928,-3.874301
11.142850399,0.9518139,0.06354995,2.998394,1.00695,-0.1882997,-0.001172273,-37.43414,-35.07928,-3.874301
11.152846336,1.997879,0.1229023,2.937423,0.9973653,-0.1966756,0.006982385,-36.6751,-35.45728,-4.253714
11.162842274,2.305545,0.1229023,2.632569,0.9987711,-0.1937585,0.004107727,-36.6751,-35.45728,-4.253714
11.172838211,0.8287475,0.004197581,2.510627,1.003055,-0.1883065,0.006491736,-36.6751,-35.45728,-4.253714
11.182833672,-0.9557163,-0.1738595,2.449656,0.9948559,-0.1928639,0.004114322,-36.6751,-35.45728,-4.253714
11.192829609,-1.755648,-0.05515479,2.571598,0.9992944,-0.1957007,0.003150163,-36.6751,-35.45728,-4.253714
11.202825546,-1.940248,0.004197581,2.144803,0.9998884,-0.2015992,-0.005463723,-37.40886,-36.22361,-4.255219
11.212821484,-1.386449,0.06354995,1.90092,1.0077,-0.2024343,-0.00739143,-37.40886,-36.22361,-4.255219
11.222817421,-0.5865169,0.3009594,1.413154,1.00861,-0.1990279,-0.008829622,-37.40886,-36.22361,-4.255219
11.232813358,-0.6480501,0.2416071,1.1083,1.006046,-0.1922841,-0.009784041,-37.40886,-36.22361,-4.255219
11.242809296,-1.940248,0.4196641,1.1083,1.002088,-0.1888905,-0.002120797,-37.42458,-35.4629,-4.259275
11.252805233,-3.540112,0.4790165,0.8644169,1.0051,-0.1937343,-0.006910562,-37.42458,-35.4629,-4.259275
11.26280117,-4.955376,0.3009594,0.5595631,1.001122,-0.1894219,-0.004990432,-37.42458,-35.4629,-4.259275
11.272796631,-6.370641,0.3603118,0.1327677,1.002242,-0.1971836,-0.005947539,-37.42458,-35.4629,-4.259275
11.282792568,-7.416706,0.4196641,0.1937385,0.99462,-0.1801946,0.008418655,-37.42458,-35.4629,-4.259275
11.292788506,-8.216638,0.1229023,0.3766508,0.9957082,-0.1602188,0.01176165,-37.80719,-35.08536,-4.264084
11.302784443,-8.339704,-0.05515479,0.8644169,0.9916437,-0.1773027,0.01225171,-37.80719,-35.08536,-4.264084
11.31278038,-6.062974,-0.4706214,1.1083,1.000543,-0.2102455,0.004108884,-37.80719,-35.08536,-4.264084
11.322776318,-1.447982,-1.123497,0.8644169,1.000558,-0.2113004,-0.004983816,-37.80719,-35.08536,-4.264084
11.332772732,0.8287475,-1.420259,0.4985923,1.006184,-0.1995573,-0.008346679,-37.80719,-35.08536,-4.264084
11.342768669,0.2749484,-1.479612,0.07179698,1.011552,-0.1999065,-0.005005915,-37.8055,-35.08863,-4.651086
11.352764607,-0.6480501,-1.776374,-0.2940276,0.9994113,-0.2020682,-0.002591314,-37.8055,-35.08863,-4.651086
11.36275959,-2.309447,-1.717021,-0.6598521,0.9954407,-0.1982811,-0.004978248,-37.8055,-35.08863,-4.651086
11.372756004,-4.032378,-2.132488,-0.7208229,0.9964912,-0.1499854,0.01319337,-37.8055,-35.08863,-4.651086
11.382751942,-7.724371,-2.547954,-0.05014454,0.9963769,-0.1435344,0.02802777,-37.8055,-35.08863,-4.651086
11.392747879,-9.078103,-3.20083,0.2547093,1.007357,-0.1838612,0.005047363,-37.81505,-34.705,-4.266111
11.402743816,-5.632242,-4.091116,0.31568,0.9977148,-0.2150467,0.01655803,-37.81505,-34.705,-4.266111
11.412739754,-0.8326498,-4.44723,0.01082622,0.99522,-0.2123207,0.001247241,-37.81505,-34.705,-4.266111
11.422735691,1.628679,-5.040754,0.01082622,0.9972631,-0.1913892,0.0007597132,-37.81505,-34.705,-4.266111
11.432731629,1.321013,-5.040754,0.01082622,1.000893,-0.1772866,-0.005950311,-37.81505,-34.705,-4.266111
11.442727566,-0.03271778,-4.922049,-0.05014454,1.004356,-0.1802084,-0.01409139,-37.04984,-35.46009,-4.256495
11.452723026,-1.632582,-4.625287,0.07179698,1.009719,-0.1806937,-0.02558644,-37.04984,-35.46009,-4.256495
11.462718964,-3.293979,-4.091116,0.01082622,1.012479,-0.1718571,-0.02176492,-37.04984,-35.46009,-4.256495
11.472714901,-4.83231,-3.319535,0.1327677,1.010108,-0.1752705,-0.0179313,-37.04984,-35.46009,-4.256495
11.482710838,-6.124507,-3.141478,0.1327677,1.010888,-0.1908096,-0.01840723,-37.04984,-35.46009,-4.256495
11.492706776,-6.309107,-2.963421,0.1937385,1.000556,-0.2113531,-0.01072671,-37.80719,-35.08536,-4.264084
11.502702713,-4.46311,-2.963421,-0.2330568,0.9942424,-0.2124453,-0.01023685,-37.80719,-35.08536,-4.264084
11.51269865,-3.109379,-3.319535,-0.4159691,0.9976728,-0.2132748,-0.002106822,-37.80719,-35.08536,-4.264084
11.522695065,-1.817181,-3.913059,-0.4769399,0.9960297,-0.2035665,0.000286423,-37.80719,-35.08536,-4.264084
11.532691002,-2.309447,-4.387877,-0.5988814,0.9976768,-0.1875067,-0.0006777357,-37.80719,-35.08536,-4.264084
11.542686939,-3.724712,-4.684639,-0.4769399,0.999323,-0.1714732,-0.004513342,-37.80888,-35.08209,-3.877082
11.552681923,-4.709243,-4.862697,-0.5988814,1.003987,-0.1865461,-0.01552484,-37.80888,-35.08209,-3.877082
11.56267786,-5.755308,-4.981401,-0.4769399,1.012763,-0.1868894,-0.01889008,-37.80888,-35.08209,-3.877082
11.572674275,-5.816842,-4.922049,-0.6598521,1.008477,-0.1923764,-0.02510269,-37.80888,-35.08209,-3.877082
11.582670212,-5.01691,-4.743992,-0.7817937,1.000227,-0.1939051,-0.01503782,-37.80888,-35.08209,-3.877082
11.592666149,-4.278511,-4.565935,-0.6598521,0.9993788,-0.2007733,-0.02029891,-37.43414,-35.07928,-3.874301
11.602662087,-3.232446,-4.684639,-0.9647059,0.9951757,-0.2106235,-0.02555338,-37.43414,-35.07928,-3.874301
11.612658024,-1.940248,-4.565935,-1.086647,1.000857,-0.2017599,-0.02508699,-37.43414,-35.07928,-3.874301
11.622653961,-1.878715,-3.972411,-1.330531,1.008338,-0.1851559,-0.03228294,-37.43414,-35.07928,-3.874301
11.632649898,-3.109379,-3.913059,-1.391501,1.008607,-0.173488,-0.03228642,-37.43414,-35.07928,-3.874301
11.642645359,-5.01691,-3.497592,-1.452472,1.012307,-0.1889913,-0.03516033,-37.81505,-34.705,-4.266111
11.652641296,-5.263042,-3.082125,-1.940238,1.005357,-0.2080716,-0.03418615,-37.81505,-34.705,-4.266111
11.662637234,-4.093911,-2.666659,-2.184121,0.9975345,-0.2068034,-0.03800145,-37.81505,-34.705,-4.266111
11.672633171,-3.047846,-2.904068,-2.488975,1.000325,-0.1993056,-0.02125808,-37.81505,-34.705,-4.266111
11.682629108,-2.678647,-3.20083,-2.793829,0.9953272,-0.1925792,-0.01885822,-37.81505,-34.705,-4.266111
11.692625046,-2.247914,-4.031764,-3.281595,0.9974972,-0.2041156,-0.009766092,-37.43414,-35.07928,-3.874301
