Time (s),Gyroscope X (deg/s),Gyroscope Y (deg/s),Gyroscope Z (deg/s),Accelerometer X (g),Accelerometer Y (g),Accelerometer Z (g),Magnetometer X (uT),Magnetometer Y (uT),Magnetometer Z (uT)
125.44,7.64266200000001,-0.649343199999997,2.667897,0.9482074,-0.02450301,0.3088728,-38.83694,-22.13158,-17.73671
125.45,8.45160000000001,-0.5904367,2.606838,0.9398339,-0.0167022,0.3223793,-38.83694,-22.13158,-17.73671
125.46,8.70050299999999,-0.767156199999999,2.606838,0.9420587,0.002285818,0.3330419,-38.83694,-22.13158,-17.73671
125.47,8.26492200000001,-1.120595,2.301542,0.9356166,0.01342786,0.339805,-38.83694,-22.13158,-17.73671
125.48,6.95817699999997,-1.002782,1.813069,0.9340028,0.0265917,0.3518929,-39.14474,-21.77429,-18.18773
125.49,5.589206,-1.002782,1.324595,0.9436663,0.03155054,0.3567539,-39.14474,-21.77429,-18.18773
125.5,3.535749,-0.767156199999999,0.836122100000001,0.9402159,0.03496396,0.3625429,-39.14474,-21.77429,-18.18773
125.51,1.668971,-0.4726236,0.4697671,0.9479598,0.03795006,0.3649821,-39.14474,-21.77429,-18.18773
125.52,-0.695615499999999,-0.2369976,0.1644713,0.9469543,0.04274217,0.3606468,-39.14474,-21.77429,-18.18773
125.53,-2.749072,-0.1191846,-0.1408246,0.9529377,0.02728493,0.3586988,-39.14895,-21.76708,-17.74545
125.54,-4.242495,0.410974,-0.3850612,0.9535676,0.0150901,0.3475756,-39.14895,-21.76708,-17.74545
125.55,-5.300336,0.410974,-0.629297899999999,0.9507972,0.001922781,0.3388543,-39.14895,-21.76708,-17.74545
125.56,-5.54924,0.5287871,-0.812475399999998,0.9490218,-0.01271936,0.3267545,-39.14895,-21.76708,-17.74545
125.57,-4.740303,0.1164415,-0.812475399999998,0.9496666,-0.0287154,0.323344,-39.14895,-21.76708,-17.74545
125.58,-3.620235,-0.1191846,-0.629297899999999,0.9502147,-0.03313694,0.3156151,-39.52088,-21.4626,-17.75379
125.59,-2.686846,-0.4137172,-0.3240021,0.9420236,-0.03766183,0.3040031,-39.52088,-21.4626,-17.75379
125.6,-1.317875,-0.708249700000001,-0.07976539,0.9401156,-0.04295625,0.3088123,-39.52088,-21.4626,-17.75379
125.61,0.3622258,-1.002782,0.3476488,0.9410863,-0.04388143,0.3126732,-39.52088,-21.4626,-17.75379
125.62,1.233389,-1.002782,0.4697671,0.9493219,-0.0399719,0.3098075,-39.52088,-21.4626,-17.75379
125.63,2.415682,-1.120595,0.836122100000001,0.9464419,-0.04199167,0.3030401,-38.84512,-21.47417,-18.1897
125.64,3.286846,-1.120595,0.958240400000002,0.9468277,-0.03415324,0.3131914,-38.84512,-21.47417,-18.1897
125.65,4.220235,-1.238408,0.958240400000002,0.9516192,-0.02778936,0.3170778,-38.84512,-21.47417,-18.1897
125.66,3.971331,-1.474034,1.0193,0.9447421,-0.01963347,0.3151475,-38.84512,-21.47417,-18.1897
125.67,3.22462,-1.650754,1.263536,0.949018,-0.009423979,0.3166281,-38.84512,-21.47417,-18.1897
125.68,2.042326,-1.532941,1.141418,0.9460422,-0.004093016,0.3200097,-39.15458,-21.46498,-17.75031
125.69,1.357841,-1.297315,1.263536,0.9427101,-0.01138705,0.3190203,-39.15458,-21.46498,-17.75031
125.7,1.606745,-1.061689,1.324595,0.9441532,-0.0108567,0.3228856,-39.15458,-21.46498,-17.75031
125.71,2.104553,-1.120595,1.385654,0.9485466,-0.01182105,0.319517,-39.15458,-21.46498,-17.75031
125.72,2.60236,-1.061689,0.897181199999997,0.9470947,-0.0127915,0.3204763,-39.15458,-21.46498,-17.75031
125.73,3.22462,-1.002782,0.775062900000002,0.9471365,-0.01808826,0.3233603,-39.15818,-21.4588,-17.37121
125.74,3.660201,-0.8849692,0.714003699999998,0.9446191,-0.009379256,0.3253027,-39.15818,-21.4588,-17.37121
125.75,3.597975,-0.8849692,0.652944600000002,0.946973,-0.002541669,0.330149,-39.15818,-21.4588,-17.37121
125.76,3.286846,-1.002782,0.591885399999997,0.9401236,0.002239969,0.329659,-39.15818,-21.4588,-17.37121
125.77,2.60236,-0.826062700000002,0.836122100000001,0.9449767,0.002304202,0.332567,-39.15818,-21.4588,-17.37121
125.78,1.917875,-0.826062700000002,0.775062900000002,0.9416037,-0.0006346048,0.3315869,-38.8437,-21.76906,-17.74255
125.79,1.482293,-0.9438758,0.775062900000002,0.9444575,0.005692188,0.3330555,-38.8437,-21.76906,-17.74255
125.8,0.673355500000001,-1.002782,0.714003699999998,0.945958,0.001343963,0.3325675,-38.8437,-21.76906,-17.74255
125.81,0.2377739,-1.002782,0.652944600000002,0.9464805,-0.001586399,0.3291847,-38.8437,-21.76906,-17.74255
125.82,0.05109601,-1.061689,0.5308262,0.9411024,0.002225649,0.3272488,-38.8437,-21.76906,-17.74255
125.83,-0.4467116,-1.238408,0.5308262,0.9460066,-0.003037554,0.3296628,-39.51105,-21.77192,-18.19122
125.84,-0.4467116,-1.002782,0.2865896,0.9489216,-0.001602482,0.3253305,-39.51105,-21.77192,-18.19122
125.85,-0.695615499999999,-1.061689,0.1034121,0.9518686,-0.004962732,0.3258134,-39.51105,-21.77192,-18.19122
125.86,-0.944519300000001,-1.120595,0.1034121,0.9480152,-0.006985706,0.319526,-39.51105,-21.77192,-18.19122
125.87,-1.131197,-1.002782,-0.07976539,0.9538541,-0.008365626,0.3224334,-39.51105,-21.77192,-18.19122
125.88,-1.442327,-0.8849692,-0.1408246,0.949962,-0.007916449,0.3219418,-38.84932,-21.46696,-17.74741
125.89,-2.064586,-0.9438758,-0.1408246,0.9446825,-0.01615405,0.3252883,-38.84932,-21.46696,-17.74741
125.9,-1.940134,-0.9438758,-0.3240021,0.9461432,-0.01474351,0.3195045,-38.84932,-21.46696,-17.74741
125.91,-2.002361,-0.826062700000002,-0.3240021,0.9456949,-0.01768584,0.3156366,-38.84932,-21.46696,-17.74741
125.92,-2.126812,-0.8849692,-0.3240021,0.9447285,-0.01818172,0.3151505,-38.84932,-21.46696,-17.74741
125.93,-1.566779,-0.708249700000001,-0.5071796,0.9442118,-0.01573966,0.3180498,-38.83694,-22.13158,-17.73671
125.94,-1.193423,-0.8849692,-0.629297899999999,0.9481051,-0.01619322,0.3180588,-38.83694,-22.13158,-17.73671
125.95,-1.006745,-0.708249700000001,-0.629297899999999,0.942775,-0.01722907,0.3151475,-38.83694,-22.13158,-17.73671
125.96,-1.131197,-0.708249700000001,-0.5682387,0.9427428,-0.0133709,0.3137081,-38.83694,-22.13158,-17.73671
125.97,-0.882293300000001,-0.708249700000001,-0.934593699999998,0.9495004,-0.008469881,0.3147012,-38.83694,-22.13158,-17.73671
125.98,-0.695615499999999,-0.708249700000001,-0.873534600000002,0.9451204,-0.00989443,0.3214425,-38.85713,-21.45356,-16.92602
125.99,-0.757841400000003,-1.002782,-0.873534600000002,0.9475661,-0.01039443,0.3175873,-38.85713,-21.45356,-16.92602
126,-0.757841400000003,-0.826062700000002,-0.873534600000002,0.9500179,-0.01279064,0.3180711,-38.85713,-21.45356,-16.92602
126.01,-0.633389499999999,-0.9438758,-1.117771,0.9504294,-0.00550623,0.3205005,-38.85713,-21.45356,-16.92602
126.02,-0.695615499999999,-1.179502,-1.117771,0.9509172,-0.006914741,0.3248417,-39.52449,-21.45642,-17.37469
126.03,-1.006745,-1.061689,-1.117771,0.9513889,-0.005925592,0.3267753,-39.52449,-21.45642,-17.37469
126.04,-1.317875,-1.002782,-1.056712,0.9528366,-0.003534073,0.3224412,-39.52449,-21.45642,-17.37469
126.05,-1.753457,-0.708249700000001,-0.934593699999998,0.9528496,-0.004515047,0.3209914,-39.52449,-21.45642,-17.37469
126.06,-1.940134,-0.649343199999997,-1.178831,0.9494092,-0.0006659122,0.3214734,-39.52449,-21.45642,-17.37469
126.07,-2.375716,-0.3548107,-1.056712,0.9508899,-0.001666175,0.3166496,-38.84055,-22.1254,-17.35761
126.08,-2.62462,-0.5904367,-1.23989,0.9504089,-0.002624652,0.318094,-38.84055,-22.1254,-17.35761
126.09,-2.811298,-0.3548107,-1.300949,0.9455449,-0.001245906,0.3142239,-38.84055,-22.1254,-17.35761
126.1,-3.122427,-0.4726236,-1.362008,0.952368,-0.002657673,0.3127909,-38.84055,-22.1254,-17.35761
126.11,-3.060202,-0.3548107,-1.423067,0.9499813,-0.007511406,0.3132568,-38.84055,-22.1254,-17.35761
126.12,-2.93575,-0.4726236,-1.362008,0.9519662,-0.01044353,0.3084302,-38.8473,-21.76288,-17.36345
126.13,-2.873524,-0.5315301,-1.300949,0.9519607,-0.01136316,0.3137362,-38.8473,-21.76288,-17.36345
126.14,-2.811298,-0.4137172,-1.300949,0.9490483,-0.01046191,0.3089052,-38.8473,-21.76288,-17.36345
126.15,-2.873524,-0.4726236,-1.117771,0.9456717,-0.01245042,0.3059969,-38.8473,-21.76288,-17.36345
126.16,-2.500168,-0.5315301,-1.056712,0.9500881,-0.01630511,0.3040698,-38.8473,-21.76288,-17.36345
126.17,-2.251264,-0.8849692,-1.178831,0.9519787,-0.01329881,0.3137321,-39.14895,-21.76708,-17.74545
126.18,-2.189038,-0.5904367,-0.812475399999998,0.9515414,-0.01768412,0.3108262,-39.14895,-21.76708,-17.74545
126.19,-1.815683,-0.767156199999999,-0.751416300000002,0.9514586,-0.008969291,0.3113273,-39.14895,-21.76708,-17.74545
126.2,-1.629005,-0.767156199999999,-0.5682387,0.9515063,-0.01475435,0.3137277,-39.14895,-21.76708,-17.74545
126.21,-1.317875,-0.767156199999999,-0.5071796,0.9549423,-0.01718241,0.309871,-39.14895,-21.76708,-17.74545
126.22,-1.068971,-0.826062700000002,-0.3240021,0.9534481,-0.01238533,0.3064996,-39.16494,-21.09628,-17.37704
126.23,-0.757841400000003,-0.9438758,-0.3240021,0.9515595,-0.0172747,0.3026238,-39.16494,-21.09628,-17.37704
126.24,-0.5089375,-0.8849692,-0.2629429,0.947656,-0.01491177,0.2997236,-39.16494,-21.09628,-17.37704
126.25,-0.1978078,-0.649343199999997,-0.3240021,0.9461884,-0.01489248,0.3030977,-39.16494,-21.09628,-17.37704
126.26,0.113322,-0.708249700000001,-0.2018837,0.9495429,-0.01095518,0.3074577,-39.16494,-21.09628,-17.37704
126.27,-0.0733558899999998,-0.708249700000001,-0.01870623,0.9528996,-0.006555865,0.309406,-39.15256,-21.7609,-17.36634
126.28,-0.1355819,-0.5904367,-0.07976539,0.9524435,-0.00853475,0.3050576,-39.15256,-21.7609,-17.36634
126.29,-0.2600338,-0.708249700000001,-0.01870623,0.9490574,-0.01142974,0.3089031,-39.15256,-21.7609,-17.36634
126.3,-0.2600338,-0.649343199999997,-0.2018837,0.9520059,-0.01385722,0.3055276,-39.15256,-21.7609,-17.36634
126.31,-0.2600338,-0.5904367,-0.01870623,0.9500796,-0.01580805,0.3055185,-39.15256,-21.7609,-17.36634
126.32,0.113322,-0.5315301,-0.01870623,0.9462124,-0.01731644,0.30261,-38.85293,-21.46078,-17.36831
126.33,0.3622258,-0.5315301,0.04235294,0.9466547,-0.01388581,0.3069614,-38.85293,-21.46078,-17.36831
126.34,0.4866776,-0.5904367,0.04235294,0.9466407,-0.0119633,0.3055179,-38.85293,-21.46078,-17.36831
126.35,0.1755479,-0.767156199999999,-0.07976539,0.944693,-0.01149894,0.3050313,-38.85293,-21.46078,-17.36831
126.36,0.4866776,-0.649343199999997,0.04235294,0.9485707,-0.01096277,0.3074552,-38.85293,-21.46078,-17.36831
126.37,0.5489036,-0.708249700000001,-0.1408246,0.9427654,-0.01344539,0.3055047,-38.8437,-21.76906,-17.74255
126.38,0.860033299999997,-0.708249700000001,-0.01870623,0.9447234,-0.01488196,0.3055066,-38.8437,-21.76906,-17.74255
126.39,1.357841,-1.002782,-0.1408246,0.9486365,-0.0163384,0.3016532,-38.8437,-21.76906,-17.74255
126.4,1.731197,-1.002782,-0.2018837,0.953894,-0.008497076,0.3079568,-38.8437,-21.76906,-17.74255
126.41,1.544519,-0.8849692,-0.3850612,0.9553461,-0.008934556,0.31182,-38.8437,-21.76906,-17.74255
126.42,0.4244517,-0.767156199999999,-0.2629429,0.9489232,0.001675374,0.3132738,-39.15458,-21.46498,-17.75031
126.43,-1.131197,-0.708249700000001,-0.2629429,0.9455281,0.00303045,0.3055472,-39.15458,-21.46498,-17.75031
126.44,-1.629005,-0.708249700000001,-0.1408246,0.947534,-0.003254019,0.3045738,-39.15458,-21.46498,-17.75031
126.45,-1.753457,-0.5315301,-0.01870623,0.9505404,-0.01337592,0.30649,-39.15458,-21.46498,-17.75031
126.46,-1.255649,-0.0602780799999998,0.04235294,0.9535364,-0.02018053,0.3006925,-39.15458,-21.46498,-17.75031
126.47,-0.5089375,-0.1780911,-0.2629429,0.9520618,-0.01873141,0.3016569,-39.14895,-21.76708,-17.74545
126.48,0.2377739,-0.3548107,-0.2629429,0.9525104,-0.01485192,0.3021489,-39.14895,-21.76708,-17.74545
126.49,1.046711,-0.3548107,-0.629297899999999,0.9544178,-0.01143182,0.3040914,-39.14895,-21.76708,-17.74545
126.5,1.917875,-0.5904367,-0.934593699999998,0.952897,-0.006547101,0.3103711,-39.14895,-21.76708,-17.74545
126.51,2.104553,-0.3548107,-0.5682387,0.9547351,0.004136094,0.3128116,-39.14895,-21.76708,-17.74545
126.52,1.793423,-0.649343199999997,-0.3240021,0.953755,0.001809714,0.3239027,-39.88719,-21.46023,-17.75727
126.53,1.046711,-0.5315301,-0.5682387,0.9488468,0.007086063,0.3229362,-39.88719,-21.46023,-17.75727
126.54,0.05109601,-0.2369976,-0.3850612,0.9517698,0.006149763,0.3239069,-39.88719,-21.46023,-17.75727
126.55,-0.5089375,-0.0602780799999998,-0.3240021,0.9508075,0.005640734,0.3219731,-39.88719,-21.46023,-17.75727
126.56,-0.882293300000001,-0.0602780799999998,-0.2629429,0.948411,0.003633526,0.316172,-39.88719,-21.46023,-17.75727
126.57,-1.193423,0.4698806,-0.07976539,0.9528171,0.0007510455,0.3147296,-39.16494,-21.09628,-17.37704
126.58,-1.629005,0.646600100000001,-0.3850612,0.9513287,0.002714754,0.3190729,-39.16494,-21.09628,-17.37704
126.59,-2.002361,0.5287871,-0.5682387,0.9552095,0.00511648,0.31378,-39.16494,-21.09628,-17.37704
126.6,-2.251264,0.941132699999998,-0.4461204,0.9552563,-0.001134967,0.3181097,-39.16494,-21.09628,-17.37704
126.61,-2.437942,0.705506599999998,-0.690357099999997,0.9557311,0.0007825745,0.3157022,-39.16133,-21.10246,-17.75615
126.62,-2.500168,0.646600100000001,-0.873534600000002,0.9542664,0.001730257,0.3147354,-39.16133,-21.10246,-17.75615
126.63,-2.562394,0.8822262,-0.873534600000002,0.9552335,0.002692529,0.3132923,-39.16133,-21.10246,-17.75615
126.64,-2.93575,0.823319700000002,-1.117771,0.953354,-0.003164671,0.3094145,-39.16133,-21.10246,-17.75615
126.65,-3.24688,0.823319700000002,-1.117771,0.9489812,-0.005081896,0.3151897,-39.16133,-21.10246,-17.75615
126.66,-3.24688,1.058946,-1.423067,0.9514389,-0.007966409,0.3151898,-39.16133,-21.10246,-17.75615
126.67,-3.371331,0.941132699999998,-1.423067,0.9476015,-0.01238704,0.31131,-39.21,-21.76668,-17.74603
126.68,-3.309105,1.058946,-1.545185,0.9451782,-0.01289869,0.3103375,-39.21,-21.76668,-17.74603
126.69,-3.060202,1.000039,-1.667304,0.9442464,-0.01819866,0.3137016,-39.21,-21.76668,-17.74603
126.7,-2.686846,1.000039,-1.545185,0.9471703,-0.01866858,0.312743,-39.21,-21.76668,-17.74603
126.71,-2.126812,0.8822262,-1.484126,0.9476227,-0.01480223,0.3117874,-39.21,-21.76668,-17.74603
126.72,-1.629005,1.000039,-1.545185,0.9515212,-0.01621047,0.3132421,-39.21,-21.76668,-17.74603
126.73,-1.317875,1.058946,-1.362008,0.9465555,-0.006992707,0.3200048,-39.21,-21.76668,-17.74603
126.74,-1.442327,1.000039,-1.484126,0.9529146,-0.01035707,0.3171186,-39.21,-21.76668,-17.74603
126.75,-1.566779,0.823319700000002,-1.545185,0.944149,-0.00943563,0.3195108,-39.21,-21.76668,-17.74603
126.76,-1.629005,0.764413100000002,-1.667304,0.9494663,-0.006481647,0.3204959,-39.14895,-21.76708,-17.74545
126.77,-1.753457,0.823319700000002,-1.850481,0.9475608,-0.0103769,0.3195176,-39.14895,-21.76708,-17.74545
126.78,-1.566779,0.587693599999997,-1.789422,0.9504134,-0.003108566,0.3180929,-39.14895,-21.76708,-17.74545
126.79,-1.442327,0.646600100000001,-1.850481,0.9514794,-0.01325879,0.3185564,-39.14895,-21.76708,-17.74545
126.8,-1.380101,0.764413100000002,-1.850481,0.9475296,-0.00746027,0.3209714,-39.14895,-21.76708,-17.74545
126.81,-1.940134,1.000039,-2.094718,0.9469743,-0.0002009699,0.3214681,-38.47064,-22.13395,-17.73323
126.82,-2.811298,1.058946,-2.338954,0.9434954,0.006120315,0.3277459,-38.47064,-22.13395,-17.73323
126.83,-3.931365,1.058946,-2.888487,0.9546015,0.009735195,0.3432238,-38.47064,-22.13395,-17.73323
126.84,-5.922596,1.530198,-3.071665,0.9477473,0.01640867,0.3379125,-38.47064,-22.13395,-17.73323
126.85,-7.54047000000001,1.706917,-3.315901,0.952037,0.02375849,0.3442125,-38.47064,-22.13395,-17.73323
126.86,-9.158345,2.00145,-3.499079,0.9476669,0.02652267,0.332626,-39.1422,-22.1296,-17.73961
126.87,-9.90505599999998,1.942543,-3.43802,0.9331763,0.01953765,0.3219575,-39.1422,-22.1296,-17.73961
126.88,-9.78060399999997,1.471291,-3.560138,0.9341919,0.01752633,0.3127874,-39.1422,-22.1296,-17.73961
126.89,-9.03389299999999,0.4698806,-3.987552,0.9313919,0.008208416,0.3016615,-39.1422,-22.1296,-17.73961
126.9,-9.220571,-0.9438758,-4.292848,0.9294447,0.01054708,0.2944233,-39.1422,-22.1296,-17.73961
126.91,-12.26964,-2.711071,-5.697209,0.9473308,0.02039643,0.2978685,-39.15037,-21.47219,-18.1926
126.92,-15.56762,-3.653575,-8.13957499999997,0.9857591,0.008416745,0.3312376,-39.15037,-21.47219,-18.1926
126.93,-18.36779,-2.298726,-8.50592999999999,0.9928337,0.01528596,0.388694,-39.15037,-21.47219,-18.1926
126.94,-20.7946,-1.061689,-6.67415600000002,0.9814727,0.03173941,0.398351,-39.15037,-21.47219,-18.1926
126.95,-23.71922,2.00145,-2.766369,0.973084,0.04474934,0.3993225,-39.15037,-21.47219,-18.1926
126.96,-27.32832,7.53866200000001,-0.3850612,0.9569917,0.05088872,0.3963988,-39.15037,-21.47219,-18.1926
126.97,-32.55531,11.77993,0.2255304,0.9478235,0.04824809,0.3799629,-39.15037,-21.47219,-18.1926
126.98,-38.03119,13.84166,-0.934593699999998,0.9552991,0.03222191,0.3674014,-39.15037,-21.47219,-18.1926
126.99,-41.76474,15.90339,-2.338954,0.9713276,0.02863794,0.3852894,-39.15037,-21.47219,-18.1926
127,-44.93827,18.20074,-2.583191,0.9791105,0.0310262,0.375181,-39.15037,-21.47219,-18.1926
127.01,-47.11618,20.91044,-3.315901,0.9830436,0.02481387,0.3804859,-38.83731,-21.48756,-19.01109
127.02,-48.79628,23.38451,-4.537085,0.9947269,0.02062858,0.3891929,-38.83731,-21.48756,-19.01109
127.03,-49.91634,25.79968,-6.06356399999997,1.010869,0.01479346,0.3723328,-38.83731,-21.48756,-19.01109
127.04,-49.54299,27.56688,-7.10157000000002,1.02262,0.007573232,0.366557,-38.83731,-21.48756,-19.01109
127.05,-48.85851,29.68751,-9.17757999999999,1.021802,-0.005605198,0.3549454,-38.83731,-21.48756,-19.01109
127.06,-47.30286,31.27799,-10.88724,1.022805,-0.008514239,0.353494,-38.83265,-21.14462,-20.21741
127.07,-45.99611,33.04518,-12.78007,1.017984,-0.01806396,0.3717979,-38.83265,-21.14462,-20.21741
127.08,-43.25817,34.93019,-14.85608,1.019422,-0.02220624,0.39399,-38.83265,-21.14462,-20.21741
127.09,-41.26694,36.57957,-16.87104,0.9987853,-0.007101365,0.4229222,-38.83265,-21.14462,-20.21741
127.1,-41.26694,39.05365,-18.51963,0.9947985,-0.00258808,0.4436712,-38.83265,-21.14462,-20.21741
127.11,-41.45362,40.82084,-19.55764,0.9823533,0.02501409,0.4562447,-38.09011,-20.46451,-22.68629
127.12,-41.95142,44.70867,-21.08412,1.000686,0.03593583,0.4707919,-38.09011,-20.46451,-22.68629
127.13,-41.8892,47.83072,-22.6106,1.012267,0.04006033,0.488685,-38.09011,-20.46451,-22.68629
127.14,-45.06272,50.54042,-24.38132,1.003536,0.07999226,0.5234918,-38.09011,-20.46451,-22.68629
127.15,-47.67621,58.43389,-26.6405,1.020026,0.03455506,0.5152333,-38.09011,-20.46451,-22.68629
127.16,-48.17402,63.6176600000002,-27.43427,1.009844,0.03485852,0.5041091,-37.33407,-20.50944,-25.1435
127.17,-46.99173,68.4480000000001,-28.16698,1.008501,0.01476812,0.5310851,-37.33407,-20.50944,-25.1435
127.18,-44.87604,74.5742800000002,-29.51028,0.9817268,0.02969415,0.4924443,-37.33407,-20.50944,-25.1435
127.19,-40.02242,79.22789,-31.281,0.9855495,-0.01199668,0.4812659,-37.33407,-20.50944,-25.1435
127.2,-33.7376,83.2335399999999,-32.56324,0.9693453,0.006236171,0.4778855,-35.48227,-20.20516,-27.9752
127.21,-26.76829,82.9979100000002,-35.55514,0.9490898,0.03669864,0.4923752,-35.48227,-20.20516,-27.9752
127.22,-20.98128,84.3527599999999,-37.75327,0.9447484,0.03514703,0.4851224,-35.48227,-20.20516,-27.9752
127.23,-17.93221,86.29668,-39.89034,0.9515141,0.0353316,0.4996167,-35.48227,-20.20516,-27.9752
127.24,-17.12327,87.76934,-41.96635,0.9538661,0.04029925,0.5116972,-35.48227,-20.20516,-27.9752
127.25,-17.55885,88.2994999999998,-43.49283,0.9533875,0.03604977,0.5237506,-35.48227,-20.20516,-27.9752
127.26,-16.12765,88.1816900000001,-43.9813,0.9290892,0.004215365,0.4497895,-32.56707,-20.65325,-32.04905
127.27,-16.12765,89.242,-44.10342,0.9366403,0.05071423,0.5541394,-32.56707,-20.65325,-32.04905
127.28,-18.18111,92.7174799999999,-45.01931,0.9339331,0.0251448,0.5651761,-32.56707,-20.65325,-32.04905
127.29,-20.29679,94.4846800000002,-44.34766,0.9211956,0.03381357,0.571435,-32.56707,-20.65325,-32.04905
127.3,-20.35902,95.0737500000001,-44.04236,0.8980221,0.01340783,0.5824301,-30.40011,-21.06981,-34.48708
127.31,-19.92344,95.1915599999998,-43.79813,0.8835208,0.0008305432,0.5953944,-30.40011,-21.06981,-34.48708
127.32,-19.67453,95.1915599999998,-41.78318,0.8772349,-0.00870865,0.6161073,-30.40011,-21.06981,-34.48708
127.33,-17.6833,96.4285999999998,-38.97445,0.8665111,-0.007287803,0.6218733,-30.40011,-21.06981,-34.48708
127.34,-16.74991,97.1354799999999,-36.77632,0.8541474,0.009258832,0.6426266,-30.40011,-21.06981,-34.48708
127.35,-17.49662,97.4889100000003,-35.37196,0.8453216,0.01647554,0.6455147,-26.75651,-21.51544,-38.11169
127.36,-17.18549,97.2532900000002,-34.21184,0.824208,0.03529895,0.6580469,-26.75651,-21.51544,-38.11169
127.37,-17.49662,97.6067299999997,-33.23489,0.8008624,0.03562703,0.6608827,-26.75651,-21.51544,-38.11169
127.38,-17.12327,96.19297,-32.319,0.7790902,0.02104841,0.6728589,-26.75651,-21.51544,-38.11169
127.39,-17.37217,95.5449999999999,-30.9757,0.7528579,0.01844148,0.6747159,-26.75651,-21.51544,-38.11169
127.4,-17.55885,94.1901500000002,-28.04486,0.7407051,0.01506438,0.6862584,-22.37828,-22.26174,-41.34537
127.41,-17.37217,92.6585800000002,-25.96885,0.7222219,0.01308094,0.6968226,-22.37828,-22.26174,-41.34537
127.42,-16.62546,92.1284199999997,-24.68661,0.7095596,0.01399831,0.7020999,-22.37828,-22.26174,-41.34537
127.43,-15.50539,90.77357,-22.97695,0.6959183,0.01493001,0.7097875,-22.37828,-22.26174,-41.34537
127.44,-14.01197,89.6543500000001,-21.81683,0.6788693,0.01444475,0.724219,-22.37828,-22.26174,-41.34537
127.45,-11.64738,88.4762200000002,-20.90094,0.6755271,0.006714999,0.7285367,-18.75031,-22.68059,-43.32719
127.46,-8.72276299999999,86.5323,-18.33646,0.6348515,0.03562333,0.7492435,-18.75031,-22.68059,-43.32719
127.47,-8.10050400000002,85.4130800000001,-17.42057,0.6347051,0.04548564,0.7695314,-18.75031,-22.68059,-43.32719
127.48,-8.84721600000002,85.3541700000001,-16.6268,0.6281951,0.06388639,0.7763098,-18.75031,-22.68059,-43.32719
127.49,-9.59392599999997,84.9418299999997,-15.58879,0.6184358,0.06393319,0.7897961,-18.75031,-22.68059,-43.32719
127.5,-9.656153,84.1760400000001,-14.18443,0.6027873,0.07115374,0.7989397,-15.12908,-22.73691,-45.31485
127.51,-10.83845,83.7047899999997,-13.39066,0.5920728,0.07019883,0.8095261,-15.12908,-22.73691,-45.31485
127.52,-12.70522,83.2335399999999,-12.2916,0.5779917,0.06769114,0.8118972,-15.12908,-22.73691,-45.31485
127.53,-15.00758,82.1732200000003,-11.25359,0.5662868,0.07335447,0.8060886,-15.12908,-22.73691,-45.31485
127.54,-16.81214,81.5252500000002,-8.99440300000003,0.5471472,0.09068874,0.8128322,-15.12908,-22.73691,-45.31485
127.55,-19.79898,80.6416500000003,-8.93334399999998,0.5303361,0.06972134,0.8098484,-11.14876,-22.78324,-46.54082
127.56,-21.23018,78.8744499999999,-9.05546200000001,0.5138747,0.05811861,0.8252226,-11.14876,-22.78324,-46.54082
127.57,-21.41686,78.2264900000001,-9.17757999999999,0.5022384,0.05136229,0.8372418,-11.14876,-22.78324,-46.54082
127.58,-20.7946,77.75523,-9.84923100000002,0.4960218,0.03784225,0.8458825,-11.14876,-22.78324,-46.54082
127.59,-19.17672,77.4017899999999,-8.93334399999998,0.4760944,0.03861508,0.8414899,-11.14876,-22.78324,-46.54082
127.6,-17.30995,75.7524100000001,-8.32275199999999,0.4517657,0.04037854,0.8433611,-7.89744,-22.83101,-48.15285
127.61,-16.68769,73.2783399999999,-8.20063400000002,0.4347008,0.03994586,0.8635832,-7.89744,-22.83101,-48.15285
127.62,-16.06543,72.8070799999998,-8.07851500000002,0.4235033,0.04319779,0.8582533,-7.89744,-22.83101,-48.15285
127.63,-16.87436,71.7467699999999,-7.83427999999998,0.4152214,0.04272387,0.8664343,-7.89744,-22.83101,-48.15285
127.64,-17.49662,70.4508199999999,-8.07851500000002,0.4030318,0.04603393,0.8683401,-7.89744,-22.83101,-48.15285
127.67,-17.80775,69.8028499999998,-7.162629,0.3861345,0.03332375,0.8687518,-3.573092,-21.49623,-49.77682
127.68,-16.43878,65.9150199999999,-5.452972,0.3601207,-0.0004878389,0.8980475,-3.573092,-21.49623,-49.77682
127.69,-15.50539,65.6204899999998,-5.57509,0.3547289,0.001493714,0.9076889,-3.573092,-21.49623,-49.77682
127.7,-13.26526,64.7957999999999,-5.452972,0.3465828,-0.008807472,0.8994423,-1.073154,-21.15612,-50.13797
127.71,-11.58516,63.9710999999997,-4.598144,0.3337515,0.0100191,0.9052403,-1.073154,-21.15612,-50.13797
127.72,-12.14519,62.4984399999997,-3.987552,0.3137642,0.01567927,0.906166,-1.073154,-21.15612,-50.13797
127.73,-13.01635,60.3189000000001,-3.315901,0.2966871,0.02232127,0.9061362,-1.073154,-21.15612,-50.13797
127.74,-14.572,57.13795,-3.254842,0.2874108,0.0228514,0.9191423,-1.073154,-21.15612,-50.13797
127.75,-16.68769,55.66528,-3.071665,0.2962534,0.006668174,0.9413275,2.156845,-20.46546,-50.94028
127.76,-19.30118,55.54747,-0.751416300000002,0.2609562,-0.00783073,0.9204557,2.156845,-20.46546,-50.94028
127.77,-18.61669,51.48292,0.2255304,0.2582887,0.01638106,0.9243613,2.156845,-20.46546,-50.94028
127.78,-19.17672,51.77745,1.813069,0.2548721,0.01921416,0.9195331,2.156845,-20.46546,-50.94028
127.79,-19.73676,50.83495,1.080359,0.245253,0.008949793,0.9165909,4.646427,-19.75664,-50.92817
127.8,-20.60792,51.18839,0.591885399999997,0.2472081,0.004239754,0.9291321,4.646427,-19.75664,-50.92817
127.81,-20.17234,49.53901,-1.056712,0.2406307,-0.0190763,0.9252046,4.646427,-19.75664,-50.92817
127.82,-19.55008,49.18557,-1.484126,0.231983,-0.02979947,0.9241942,4.646427,-19.75664,-50.92817
127.83,-17.80775,47.18275,-0.995652900000003,0.221811,-0.03140537,0.9159611,4.646427,-19.75664,-50.92817
127.84,-16.0032,44.82648,-0.873534600000002,0.1985054,-0.03355383,0.9125186,4.646427,-19.75664,-50.92817
127.85,-14.63423,41.52772,-1.728363,0.1976062,-0.04177481,0.9139463,7.199244,-18.75952,-51.74173
127.86,-13.70084,40.58522,-1.484126,0.1917766,-0.04042556,0.907661,7.199244,-18.75952,-51.74173
127.87,-12.14519,37.87551,-1.789422,0.1796189,-0.03956573,0.9061838,7.199244,-18.75952,-51.74173
127.88,-9.40724800000003,33.86987,-4.537085,0.178228,-0.04871015,0.9129162,7.199244,-18.75952,-51.74173
127.89,-8.16272899999999,34.22331,-4.231789,0.1723057,-0.03579953,0.9008651,9.322519,-18.04833,-51.73309
127.9,-6.79375899999998,32.04377,-3.926493,0.1578022,-0.04414867,0.8998446,9.322519,-18.04833,-51.73309
127.91,-5.611465,28.6861,-4.476026,0.153875,-0.04076971,0.9022545,9.322519,-18.04833,-51.73309
127.92,-4.678076,27.62578,-4.353907,0.1395619,-0.06850608,0.897815,9.322519,-18.04833,-51.73309
127.93,-2.189038,23.44342,-4.720262,0.1202414,-0.08641806,0.9136508,9.322519,-18.04833,-51.73309
127.94,-0.2600338,21.73513,-4.353907,0.1241377,-0.08828832,0.9175172,10.78099,-17.69531,-51.72501
127.95,2.975716,19.55559,-5.330854,0.1280625,-0.09541152,0.9290931,10.78099,-17.69531,-51.72501
127.96,6.14923999999999,18.96653,-4.537085,0.1355582,-0.06534375,0.9296597,10.78099,-17.69531,-51.72501
127.97,8.94940800000002,17.25824,-5.514031,0.1498604,-0.0385095,0.9413354,10.78099,-17.69531,-51.72501
127.98,9.50944000000002,18.02402,-5.514031,0.1520888,-0.0181267,0.9457279,10.78099,-17.69531,-51.72501
127.99,8.82495499999999,16.61027,-6.00250499999999,0.1432394,-0.009893968,0.9539261,12.18516,-17.70441,-51.71166
128,7.89156600000001,15.49104,-5.63615,0.1432224,-0.01124493,0.9650218,12.18516,-17.70441,-51.71166
128.01,6.08701300000002,13.72385,-5.57509,0.1248505,-0.02016091,0.9581996,12.18516,-17.70441,-51.71166
128.02,4.095783,12.07446,-4.476026,0.126381,-0.02882931,0.9615628,12.18516,-17.70441,-51.71166
128.03,4.220235,10.13055,-3.743315,0.1278532,-0.03167759,0.9663858,12.18516,-17.70441,-51.71166
128.04,4.344687,9.54148400000002,-3.499079,0.1336268,-0.02815265,0.9765419,13.28407,-17.71154,-51.70123
128.05,4.966946,8.59897899999997,-2.522132,0.1306303,-0.01853219,0.9726945,13.28407,-17.71154,-51.70123
128.06,4.220235,8.18663399999997,-2.216836,0.1421019,-0.0009150561,0.9843431,13.28407,-17.71154,-51.70123
128.07,2.726812,7.53866200000001,-2.155777,0.137625,0.008297743,0.990142,13.28407,-17.71154,-51.70123
128.08,1.544519,6.24271900000001,-2.522132,0.1454336,0.004504666,0.9920841,13.28407,-17.71154,-51.70123
128.09,0.860033299999997,4.887869,-3.254842,0.1368062,-0.005347073,0.9804595,13.65353,-18.07025,-51.31281
128.1,1.295615,3.827552,-2.949546,0.1334793,-0.01265863,0.9775399,13.65353,-18.07025,-51.31281
128.11,2.104553,2.943954,-3.621197,0.1224214,-0.02487443,0.9741073,13.65353,-18.07025,-51.31281
128.12,3.22462,2.00145,-3.743315,0.1146102,-0.02576274,0.9895268,13.65353,-18.07025,-51.31281
128.13,3.162394,1.942543,-3.560138,0.1328982,-0.009535478,1.002155,13.65353,-18.07025,-51.31281
128.14,2.042326,1.942543,-3.37696,0.126488,0.001501403,0.9973367,14.39395,-18.08839,-52.12724
128.15,1.171163,0.941132699999998,-3.315901,0.1269605,0.005302021,0.989143,14.39395,-18.08839,-52.12724
128.16,0.984485200000001,-0.1191846,-3.682256,0.1153534,-0.001550693,0.9905459,14.39395,-18.08839,-52.12724
128.17,1.295615,-0.649343199999997,-4.17073,0.124237,-0.01646182,0.9929495,14.39395,-18.08839,-52.12724
128.18,1.482293,-0.4726236,-4.414967,0.1296838,-0.02706619,0.9929407,14.39395,-18.08839,-52.12724
128.19,2.29123,-0.767156199999999,-4.231789,0.1252761,-0.02746157,1.00644,14.01563,-18.06541,-50.86704
128.2,3.349072,-0.4137172,-3.987552,0.1227721,-0.01879638,1.003557,14.01563,-18.06541,-50.86704
128.21,3.349072,0.0575349400000002,-4.414967,0.1162842,-0.002344428,1.008883,14.01563,-18.06541,-50.86704
128.22,2.851264,-0.2369976,-4.598144,0.1192131,-0.003769023,1.00937,14.01563,-18.06541,-50.86704
128.23,2.29123,-0.4726236,-4.048611,0.1236522,-0.01238837,1.015636,14.01563,-18.06541,-50.86704
128.24,1.917875,-1.591848,-3.37696,0.1211892,-0.009486327,1.017567,14.38554,-18.07397,-51.24266
128.25,1.108937,-1.591848,-2.155777,0.1328887,-0.01278704,1.017107,14.38554,-18.07397,-51.24266
128.26,0.860033299999997,-1.591848,-1.300949,0.1299892,-0.01614901,1.0224,14.38554,-18.07397,-51.24266
128.27,0.611129500000001,-1.532941,-0.812475399999998,0.1289885,-0.01324873,1.022887,14.38554,-18.07397,-51.24266
128.28,-0.01112994,-0.8849692,-0.5682387,0.1338402,-0.01318012,1.026277,14.38554,-18.07397,-51.24266
128.29,-0.757841400000003,-0.1780911,-0.2018837,0.135183,-0.002470043,1.032094,14.75184,-18.07635,-51.23918
128.3,-1.566779,-0.00137157,-0.3240021,0.1366027,0.002358571,1.029696,14.75184,-18.07635,-51.23918
128.31,-2.002361,0.705506599999998,-0.1408246,0.1366296,-0.00148207,1.033065,14.75184,-18.07635,-51.23918
128.32,-2.375716,1.412385,0.2255304,0.1273931,-0.001083393,1.031595,14.75184,-18.07635,-51.23918
128.33,-2.873524,1.648011,0.714003699999998,0.1212097,-0.0123679,1.019973,14.75184,-18.07635,-51.23918
128.34,-2.811298,2.119263,0.897181199999997,0.1241575,-0.01526177,1.018527,14.75244,-18.07738,-51.30237
128.35,-2.126812,1.942543,0.775062900000002,0.1256683,-0.0205822,1.017554,14.75244,-18.07738,-51.30237
128.36,-1.504553,2.413795,1.202477,0.1275924,-0.01674829,1.011777,14.75244,-18.07738,-51.30237
128.37,-1.068971,1.883637,1.141418,0.1207728,-0.0148789,1.010316,14.75244,-18.07738,-51.30237
128.38,-0.882293300000001,1.589104,1.141418,0.1216579,-0.004735407,1.007445,14.75244,-18.07738,-51.30237
128.39,-1.006745,1.706917,0.958240400000002,0.1234658,0.006985723,1.017608,14.37518,-17.70527,-50.86939
128.4,-1.629005,1.883637,0.2865896,0.1171885,0.00257679,1.0171,14.37518,-17.70527,-50.86939
128.41,-1.877908,1.117852,-0.3240021,0.1158501,-0.01189943,1.022856,14.37518,-17.70527,-50.86939
128.42,-2.437942,2.119263,-0.07976539,0.1347672,-0.01067847,1.034488,14.37518,-17.70527,-50.86939
128.43,-2.31349,2.708328,-0.2018837,0.1315009,-0.02569322,1.035895,14.37518,-17.70527,-50.86939
128.44,-2.002361,3.768645,0.2255304,0.1280723,-0.02516576,1.043608,14.38614,-18.075,-51.30585
128.45,-1.877908,4.53443,0.3476488,0.1357355,-0.01300282,1.044137,14.38614,-18.075,-51.30585
128.46,-1.753457,5.476934,0.3476488,0.1254599,-0.006294555,1.045572,14.38614,-18.075,-51.30585
128.47,-1.566779,5.241308,-0.3850612,0.1234846,-0.002455945,1.043645,14.38614,-18.075,-51.30585
128.48,-1.566779,6.00709300000002,-1.423067,0.1274267,-0.009636106,1.048948,14.37878,-17.71145,-51.2485
128.49,-1.380101,8.24554100000001,-1.23989,0.125497,-0.01204456,1.051833,14.37878,-17.71145,-51.2485
128.5,1.108937,10.13055,-1.423067,0.1414366,-0.009707647,1.08228,14.37878,-17.71145,-51.2485
128.51,2.353456,13.48822,-0.934593699999998,0.1480488,0.004114151,1.106454,14.37878,-17.71145,-51.2485
128.52,2.166778,16.19792,-2.400014,0.1586672,0.01382771,1.101194,14.37878,-17.71145,-51.2485
128.53,0.2377739,19.31997,-2.033659,0.14685,0.04002767,1.065512,14.74569,-17.71486,-51.3082
128.54,-2.002361,17.55277,-4.048611,0.1084672,0.05045045,1.020558,14.74569,-17.71486,-51.3082
128.55,-4.864754,15.54995,-5.697209,0.07738602,0.06136586,0.9703162,14.74569,-17.71486,-51.3082
128.56,-7.47824400000001,12.54572,-7.34580600000002,0.03905072,0.06037625,0.9475353,14.74569,-17.71486,-51.3082
128.57,-9.282797,11.13196,-8.68910700000001,0.04676909,0.06250845,0.9625189,14.74569,-17.71486,-51.3082
128.58,-11.58516,11.30868,-11.49783,0.07073097,0.03408455,1.009327,15.04674,-17.70962,-50.86301
128.59,-12.82968,13.37041,-12.53583,0.107035,-0.009407948,1.03828,15.04674,-17.70962,-50.86301
128.6,-11.58516,16.37464,-11.74207,0.1237344,-0.03094991,1.049858,15.04674,-17.70962,-50.86301
128.61,-9.78060399999997,19.37887,-11.19253,0.1200341,-0.04989235,1.045465,15.04674,-17.70962,-50.86301
128.62,-6.04704700000003,19.20215,-11.61995,0.1104182,-0.05594609,1.026607,15.04674,-17.70962,-50.86301
128.63,-3.993591,18.84871,-12.04736,0.08899032,-0.04613488,1.006306,16.1389,-17.35423,-50.85841
128.64,-2.437942,16.66917,-12.71901,0.0646285,-0.03394438,0.9840723,16.1389,-17.35423,-50.85841
128.65,-2.62462,15.19651,-12.78007,0.08682413,-0.02712842,1.022748,16.1389,-17.35423,-50.85841
128.66,-4.180269,13.78275,-11.68101,0.07155333,0.00530957,0.9841745,16.1389,-17.35423,-50.85841
128.67,-8.59831099999999,14.254,-10.82618,0.07775827,0.01277097,1.001096,16.1389,-17.35423,-50.85841
128.68,-13.38971,14.31291,-10.09347,0.1009264,-0.02000067,0.9962596,17.23467,-17.00501,-51.2329
128.69,-16.31433,15.54995,-9.60499500000001,0.09775238,-0.04282378,0.9904118,17.23467,-17.00501,-51.2329
128.7,-16.0032,15.96229,-8.93334399999998,0.06941832,-0.07467293,0.9714507,17.23467,-17.00501,-51.2329
128.71,-12.76745,13.90057,-8.68910700000001,0.0526078,-0.09376601,0.9617154,17.23467,-17.00501,-51.2329
128.72,-9.345023,12.95806,-7.77322099999999,0.06665205,-0.08457116,0.9497077,17.23467,-17.00501,-51.2329
128.73,-6.73153299999997,10.6018,-7.712162,0.06593665,-0.06130765,0.9540988,17.59168,-16.28956,-51.68338
128.74,-5.79814300000002,9.71820300000003,-7.83427999999998,0.07037397,-0.01625693,0.9551722,17.59168,-16.28956,-51.68338
128.75,-6.91821099999998,9.36476399999998,-9.78817199999998,0.05910965,-0.006687829,0.9527509,17.59168,-16.28956,-51.68338
128.76,-7.85160000000001,7.65647500000001,-12.65795,0.04507737,-0.01592212,0.9604157,17.59168,-16.28956,-51.68338
128.77,-7.22934099999998,6.12490600000001,-12.53583,0.07840381,-0.05360851,0.9917862,17.59168,-16.28956,-51.68338
128.78,-6.73153299999997,6.71397099999999,-12.78007,0.05831484,-0.08064166,0.963206,18.98129,-15.92274,-50.85448
128.79,-4.678076,5.005682,-11.49783,0.0647719,-0.09558491,0.9641556,18.98129,-15.92274,-50.85448
128.8,-3.122427,4.180991,-9.78817199999998,0.09047054,-0.09188686,0.9762936,18.98129,-15.92274,-50.85448
128.81,-2.437942,3.827552,-8.07851500000002,0.08169344,-0.08670659,0.9680787,18.98129,-15.92274,-50.85448
128.82,-1.877908,3.17958,-7.22368799999999,0.05988871,-0.09132896,0.9573964,18.98129,-15.92274,-50.85448
128.83,-1.380101,1.058946,-6.12462300000002,0.04733443,-0.1015548,0.9612026,18.60681,-15.26296,-51.31094
128.84,-1.380101,-0.0602780799999998,-5.208735,0.0526984,-0.1057894,0.9698932,18.60681,-15.26296,-51.31094
128.85,-0.633389499999999,-1.120595,-4.17073,0.05999987,-0.108579,0.9761791,18.60681,-15.26296,-51.31094
128.86,0.860033299999997,-1.591848,-2.766369,0.06719291,-0.0988175,0.9791139,18.60681,-15.26296,-51.31094
128.87,1.917875,-1.709661,-1.911541,0.0787519,-0.09039912,0.9902605,18.60681,-15.26296,-51.31094
128.88,2.353456,-1.415128,-0.751416300000002,0.0762372,-0.08169887,0.9912378,19.34444,-15.56878,-51.23594
128.89,2.664586,-1.532941,-0.5071796,0.07616053,-0.07488026,0.9960778,19.34444,-15.56878,-51.23594
128.9,2.664586,-1.827474,-0.3850612,0.07566193,-0.07437386,0.9989728,19.34444,-15.56878,-51.23594
128.91,3.411298,-2.004193,-0.1408246,0.05920415,-0.08223671,0.9998786,19.34444,-15.56878,-51.23594
128.92,4.344687,-1.650754,0.04235294,0.07429898,-0.08595535,1.00377,19.34444,-15.56878,-51.23594
128.93,4.780269,-1.591848,0.591885399999997,0.07757544,-0.07050489,0.9970558,18.97814,-15.56641,-51.23942
128.94,4.158009,-2.180913,1.141418,0.08160312,-0.03555882,1.004862,18.97814,-15.56641,-51.23942
128.95,2.540134,-2.652165,0.958240400000002,0.07804168,-0.01958555,1.008265,18.97814,-15.56641,-51.23942
128.96,1.980101,-2.475445,0.4697671,0.07223366,-0.01971433,0.9990814,18.97814,-15.56641,-51.23942
128.97,1.046711,-2.593258,0.1034121,0.06410335,-0.03569542,1.004817,18.97814,-15.56641,-51.23942
128.98,0.5489036,-2.652165,-0.3240021,0.07255916,-0.05643045,1.005759,18.97453,-15.56022,-50.86031
128.99,0.5489036,-2.357632,-0.3850612,0.07919209,-0.03986292,1.012568,18.97453,-15.56022,-50.86031
129,0.1755479,-2.475445,-0.690357099999997,0.07466138,-0.02531392,1.019825,18.97453,-15.56022,-50.86031
129.01,0.922259299999998,-2.534352,-1.423067,0.06205276,-0.02973274,1.023644,18.97453,-15.56022,-50.86031
129.02,1.482293,-2.357632,-2.705309,0.06757167,-0.04667182,1.018796,18.97453,-15.56022,-50.86031
129.03,2.60236,-1.88638,-2.827428,0.07363822,-0.06990674,1.012971,19.35795,-16.29382,-51.22427
129.04,3.162394,-1.709661,-2.277895,0.07181255,-0.08110014,1.007634,19.35795,-16.29382,-51.22427
129.05,3.162394,-2.298726,-0.995652900000003,0.07857246,-0.07479995,1.00284,19.35795,-16.29382,-51.22427
129.06,2.60236,-2.239819,0.1034121,0.08506659,-0.0422983,1.005822,19.35795,-16.29382,-51.22427
129.07,1.233389,-2.357632,-0.01870623,0.08580095,-0.01618126,1.003467,18.61183,-15.56403,-51.2429
129.08,-0.633389499999999,-2.534352,-0.812475399999998,0.07272346,-0.01831576,0.9928126,18.61183,-15.56403,-51.2429
129.09,-0.882293300000001,-3.182323,-1.300949,0.07986502,-0.05266873,0.9874492,18.61183,-15.56403,-51.2429
129.1,-0.1355819,-3.476856,-0.873534600000002,0.07483219,-0.08892076,0.9965267,18.61183,-15.56403,-51.2429
129.11,1.606745,-4.007014,0.3476488,0.06914166,-0.1025685,0.990692,18.61183,-15.56403,-51.2429
129.12,2.91349,-3.830295,2.179424,0.08314122,-0.09135033,0.9883395,19.3518,-15.93233,-51.29329
129.13,3.971331,-3.889201,3.278489,0.08882298,-0.07814272,0.9989986,19.3518,-15.93233,-51.29329
129.14,4.90472,-3.476856,3.705903,0.08840997,-0.03785517,1.012596,19.3518,-15.93233,-51.29329
129.15,4.531364,-3.24123,3.21743,0.0940352,-0.01461243,1.009282,19.3518,-15.93233,-51.29329
129.16,2.477908,-3.182323,2.362601,0.09686714,-0.005399683,1.008827,19.3518,-15.93233,-51.29329
129.17,1.295615,-2.711071,1.568832,0.09373153,-0.03397717,1.008757,18.97251,-15.26431,-51.24428
129.18,1.171163,-2.534352,1.263536,0.08526453,-0.06593121,1.014457,18.97251,-15.26431,-51.24428
129.19,1.606745,-2.769978,1.996246,0.07860179,-0.07958651,1.00862,18.97251,-15.26431,-51.24428
129.2,2.975716,-2.887791,3.522725,0.08132451,-0.05828905,1.006743,18.97251,-15.26431,-51.24428
129.21,4.095783,-2.769978,3.095311,0.08643543,-0.03355017,1.008739,18.97251,-15.26431,-51.24428
129.22,4.966946,-2.357632,2.790015,0.08954283,-0.003472744,1.01412,18.31754,-15.93179,-51.68225
129.23,4.282461,-2.298726,1.629891,0.09317758,0.02412757,1.012741,18.31754,-15.93179,-51.68225
129.24,1.855649,-2.239819,0.1034121,0.08423167,0.04487195,1.013245,18.31754,-15.93179,-51.68225
129.25,-0.757841400000003,-2.180913,-1.911541,0.05571252,0.0323925,0.995773,18.31754,-15.93179,-51.68225
129.26,-2.500168,-3.771388,-3.682256,0.03765605,-0.01367532,1.000936,18.31754,-15.93179,-51.68225
129.27,-3.060202,-4.772799,-4.353907,0.05959621,-0.07066718,0.9945964,17.95438,-16.28575,-51.3008
129.28,-1.629005,-5.067332,-2.949546,0.07549779,-0.1068612,0.9921468,17.95438,-16.28575,-51.3008
129.29,2.104553,-5.538584,-1.423067,0.08545877,-0.1314913,0.9892243,17.95438,-16.28575,-51.3008
129.3,6.89595099999997,-6.06874200000002,0.5308262,0.08829439,-0.1208837,0.9824988,17.95438,-16.28575,-51.3008
129.31,10.3806,-6.06874200000002,2.667897,0.07053044,-0.09388607,0.9863714,17.95438,-16.28575,-51.3008
129.32,12.30961,-7.12906,4.011199,0.05774477,-0.02811166,0.992753,18.31754,-15.93179,-51.68225
129.33,10.94064,-7.83593799999998,3.583785,0.06186096,0.04754394,1.00692,18.31754,-15.93179,-51.68225
129.34,6.83372499999997,-8.07156499999999,1.996246,0.0635814,0.0708089,1.009387,18.31754,-15.93179,-51.68225
129.35,0.673355500000001,-8.24828299999998,0.2255304,0.07000386,0.05832466,1.014685,18.31754,-15.93179,-51.68225
129.36,-4.92698,-8.83734899999998,-0.5682387,0.08065046,0.01099829,1.016541,18.31754,-15.93179,-51.68225
129.37,-7.97605200000001,-9.19078800000002,-0.07976539,0.08667593,-0.05966838,1.010131,17.58132,-15.92085,-51.31011
129.38,-6.73153299999997,-9.01406900000002,2.057305,0.09549737,-0.1163139,0.999899,17.58132,-15.92085,-51.31011
129.39,-0.0733558899999998,-9.01406900000002,3.705903,0.07459905,-0.1132079,0.9868228,17.58132,-15.92085,-51.31011
129.4,6.89595099999997,-9.779853,4.011199,0.04722625,-0.04753417,0.9946142,17.58132,-15.92085,-51.31011
129.41,9.69611800000003,-10.36892,2.301542,0.0479213,0.03143845,1.003954,17.58132,-15.92085,-51.31011
129.42,8.07824400000001,-10.66345,-1.056712,0.06446019,0.0772213,1.02195,17.60263,-16.65929,-52.11983
129.43,2.851264,-10.01548,-3.621197,0.09422372,0.0625478,1.032611,17.60263,-16.65929,-52.11983
129.44,-2.62462,-10.1922,-5.147676,0.1053783,0.01233927,1.036392,17.60263,-16.65929,-52.11983
129.45,-4.864754,-10.78126,-4.659203,0.115231,-0.04965232,1.022773,17.60263,-16.65929,-52.11983
129.46,-3.24688,-10.01548,-3.560138,0.1000202,-0.07998672,0.9995061,17.60263,-16.65929,-52.11983
129.47,1.668971,-10.31001,-3.193783,0.07941917,-0.05890207,0.9941903,17.22537,-16.28718,-51.68686
129.48,5.713658,-10.36892,-3.682256,0.0819188,-0.01857861,1.009242,17.22537,-16.28718,-51.68686
129.49,6.14923999999999,-10.1922,-5.391913,0.118054,0.01137808,1.026289,17.22537,-16.28718,-51.68686
129.5,2.166778,-9.60313300000002,-5.94144499999997,0.1252344,0.02633994,1.015724,17.22537,-16.28718,-51.68686
129.51,-2.002361,-10.01548,-6.12462300000002,0.1034571,0.02209632,0.9934613,17.22537,-16.28718,-51.68686
129.52,-4.92698,-11.84158,-6.30779999999998,0.06327745,0.01231975,0.9639012,16.129,-16.63537,-51.24918
129.53,-5.73591799999999,-13.96222,-6.55203700000002,0.05473608,-0.009071441,0.9604553,16.129,-16.63537,-51.24918
129.54,-5.23811,-16.84863,-6.73521500000001,0.05215819,-0.04350907,0.9541015,16.129,-16.63537,-51.24918
129.55,-3.806913,-17.96786,-6.73521500000001,0.05972911,-0.07110535,0.9463409,16.129,-16.63537,-51.24918
129.56,0.05109601,-19.2638,-6.91839200000003,0.08807344,-0.08873314,0.9526492,16.129,-16.63537,-51.24918
129.57,4.842494,-19.2049,-7.10157000000002,0.1169122,-0.1101364,0.9690843,16.50987,-17.01366,-52.06126
129.58,10.31838,-19.55833,-7.04051099999997,0.1340238,-0.1192374,0.9647659,16.50987,-17.01366,-52.06126
129.59,16.54097,-18.96927,-6.613096,0.1469994,-0.107856,0.9812305,16.50987,-17.01366,-52.06126
129.6,22.95024,-18.20349,-5.147676,0.1603398,-0.0843466,1.000617,16.50987,-17.01366,-52.06126
129.61,25.56374,-17.31989,-4.109671,0.165991,-0.06869313,1.014177,16.50987,-17.01366,-52.06126
129.62,26.06154,-16.61301,-2.827428,0.1630357,-0.06624375,1.019965,15.03429,-16.63545,-51.7019
129.63,26.6838,-15.31706,-1.056712,0.1746299,-0.06075516,1.02821,15.03429,-16.63545,-51.7019
129.64,26.6838,-14.55128,0.958240400000002,0.1827437,-0.04425072,1.026819,15.03429,-16.63545,-51.7019
129.65,26.55935,-13.54987,2.362601,0.1931134,-0.0116749,1.034637,15.03429,-16.63545,-51.7019
129.66,25.99932,-12.13611,3.400607,0.2020069,0.02610743,1.03088,15.05455,-17.72302,-51.6844
129.67,23.3236,-10.84017,4.560731,0.1922097,0.03378294,1.031837,15.05455,-17.72302,-51.6844
129.68,20.27453,-10.36892,5.84297399999999,0.1862486,0.04588345,1.037155,15.05455,-17.72302,-51.6844
129.69,16.66542,-9.367508,6.14826899999999,0.1963863,0.04854045,1.054559,15.05455,-17.72302,-51.6844
129.7,12.86964,-8.778442,7.00309800000001,0.206394,0.06991673,1.055113,15.05455,-17.72302,-51.6844
129.71,8.51382499999999,-6.59890099999998,7.91898499999999,0.2143714,0.1014094,1.052306,14.03274,-18.79664,-51.23447
129.72,5.091398,-5.067332,7.24733400000002,0.203072,0.1115631,1.060985,14.03274,-18.79664,-51.23447
129.73,0.984485200000001,-3.653575,5.232382,0.192346,0.1172122,1.052766,14.03274,-18.79664,-51.23447
129.74,-1.877908,-4.065921,2.973193,0.1758107,0.1180466,1.052243,14.03274,-18.79664,-51.23447
129.75,-4.740303,-3.123417,1.75201,0.1861326,0.1079027,1.045492,14.03274,-18.79664,-51.23447
129.76,-7.91382600000001,-1.827474,0.897181199999997,0.168521,0.07698219,1.013049,13.67206,-19.09636,-51.23309
129.77,-8.78498899999999,-2.357632,-0.07976539,0.1571738,0.0444163,1.007159,13.67206,-19.09636,-51.23309
129.78,-6.98043699999998,-2.416539,-1.056712,0.1564614,0.01869555,0.9998638,13.67206,-19.09636,-51.23309
129.79,-2.749072,-2.652165,-2.827428,0.1600363,-0.002011706,1.008032,13.67206,-19.09636,-51.23309
129.8,0.922259299999998,-1.945287,-3.560138,0.1633901,0.001459213,1.014321,13.67206,-19.09636,-51.23309
129.81,2.60236,-2.004193,-3.926493,0.1725227,0.01078263,1.020638,14.02238,-18.42793,-50.86121
129.82,2.540134,-1.120595,-3.987552,0.1819537,0.04417848,1.013013,14.02238,-18.42793,-50.86121
129.83,0.4866776,-0.5904367,-4.17073,0.1757203,0.03727987,1.004779,14.02238,-18.42793,-50.86121
129.84,-1.442327,-0.5904367,-4.109671,0.168686,0.01151855,0.9984322,14.02238,-18.42793,-50.86121
129.85,-1.068971,-0.5904367,-3.193783,0.1592549,-0.01718714,0.9896604,14.02238,-18.42793,-50.86121
129.86,0.4244517,-0.9438758,-2.155777,0.1588312,-0.02536927,0.9949496,13.30073,-18.79292,-51.30462
129.87,0.984485200000001,-1.061689,-0.690357099999997,0.1688799,-0.01210122,1.008515,13.30073,-18.79292,-51.30462
129.88,0.2377739,-0.1780911,0.5308262,0.1803129,0.01033314,1.017762,13.30073,-18.79292,-51.30462
129.89,-0.4467116,0.587693599999997,1.141418,0.175447,0.01218703,1.012928,13.30073,-18.79292,-51.30462
129.9,-0.8200673,1.058946,1.507773,0.1657127,0.01355851,1.012423,13.30073,-18.79292,-51.30462
129.91,-1.380101,1.353478,1.813069,0.1652644,0.01061618,1.008555,13.29397,-18.4304,-51.31046
129.92,-1.815683,1.235665,2.667897,0.1600038,0.0009093033,1.009968,13.29397,-18.4304,-51.31046
129.93,-1.504553,0.705506599999998,3.339548,0.1624695,-0.00434658,1.015271,13.29397,-18.4304,-51.31046
129.94,-0.8200673,1.412385,4.011199,0.1702144,-0.002302016,1.020604,13.29397,-18.4304,-51.31046
129.95,-0.3844857,2.060356,4.743908,0.1677235,0.003037119,1.024469,13.29397,-18.4304,-51.31046
129.96,0.05109601,2.354889,5.110263,0.1738759,0.0205205,1.02597,13.29337,-18.42937,-51.24727
129.97,-0.4467116,2.708328,5.171323,0.1800909,0.03076269,1.029386,13.29337,-18.42937,-51.24727
129.98,-1.380101,3.17958,5.049204,0.1878896,0.02747105,1.03326,13.29337,-18.42937,-51.24727
129.99,-2.375716,4.416617,5.171323,0.1845703,0.01591381,1.042395,13.29337,-18.42937,-51.24727
130,-2.562394,5.300215,5.84297399999999,0.1846933,0.005659597,1.032239,13.29337,-18.42937,-51.24727
130.01,-2.997976,5.88928000000002,6.636743,0.1778444,0.009970466,1.033196,13.30433,-18.7991,-51.68372
130.02,-2.997976,6.30162599999999,6.69780199999999,0.173373,0.02244798,1.025491,13.30433,-18.7991,-51.68372
130.03,-2.997976,7.12631700000001,6.514624,0.1713096,0.03267386,1.034193,13.30433,-18.7991,-51.68372
130.04,-2.93575,8.18663399999997,6.02615100000001,0.1742637,0.02882094,1.03371,13.30433,-18.7991,-51.68372
130.05,-3.184654,9.65929599999999,4.988145,0.1777903,0.01671459,1.029833,13.30433,-18.7991,-51.68372
130.06,-2.686846,10.6018,4.682849,0.1695856,0.01129636,1.026422,13.29397,-18.4304,-51.31046
130.07,-1.815683,10.83743,4.560731,0.1640113,0.03498394,1.028389,13.29397,-18.4304,-51.31046
130.08,-2.749072,11.60321,3.705903,0.1594083,0.06290288,1.01589,13.29397,-18.4304,-51.31046
130.09,-5.79814300000002,11.77993,2.362601,0.1515778,0.071927,1.003826,13.29397,-18.4304,-51.31046
130.1,-8.66053800000002,10.95524,0.775062900000002,0.1418975,0.07124451,0.9902883,13.29397,-18.4304,-51.31046
130.11,-10.27841,10.07164,-0.3850612,0.132814,0.05941388,0.9743153,14.02658,-18.43515,-51.3035
130.12,-11.2118,9.71820300000003,-1.850481,0.135447,0.03531602,0.9829562,14.02658,-18.43515,-51.3035
130.13,-9.78060399999997,10.24836,-3.315901,0.1431381,-0.008153033,0.9857779,14.02658,-18.43515,-51.3035
130.14,-5.73591799999999,11.13196,-4.659203,0.148223,-0.03933727,1.011299,14.02658,-18.43515,-51.3035
130.15,-1.193423,12.369,-5.269794,0.1608214,-0.04332657,1.040758,14.02658,-18.43515,-51.3035
130.16,2.789038,14.66635,-5.57509,0.1707756,-0.02271217,1.063991,14.39964,-18.80004,-51.29418
130.17,4.593591,16.61027,-4.964499,0.1606756,0.01925988,1.058264,14.39964,-18.80004,-51.29418
130.18,3.100168,17.14042,-5.330854,0.1337769,0.0444445,1.030261,14.39964,-18.80004,-51.29418
130.19,-0.882293300000001,16.13901,-5.94144499999997,0.1211481,0.05416189,0.9921282,14.39964,-18.80004,-51.29418
130.2,-4.740303,13.72385,-6.12462300000002,0.0952213,0.0299122,0.9553355,14.39964,-18.80004,-51.29418
130.21,-7.29156600000001,11.4854,-6.30779999999998,0.07308543,0.01023651,0.939312,15.05094,-17.71684,-51.3053
130.22,-7.41601800000001,9.011325,-6.24674099999999,0.06295508,-0.002293484,0.9537354,15.05094,-17.71684,-51.3053
130.23,-6.54485499999997,8.18663399999997,-6.67415600000002,0.07793426,-0.00328583,0.9914107,15.05094,-17.71684,-51.3053
130.24,-5.79814300000002,10.01274,-6.91839200000003,0.1279028,-0.002095624,1.026286,15.05094,-17.71684,-51.3053
130.25,-5.051432,13.3115,-7.40686599999998,0.1568726,-0.0361245,1.037868,15.79031,-18.0841,-51.2925
130.26,-2.873524,14.78416,-6.36886,0.1377207,-0.06256536,1.02039,15.79031,-18.0841,-51.2925
130.27,0.3622258,13.78275,-4.964499,0.1076367,-0.06063518,0.9923291,15.79031,-18.0841,-51.2925
130.28,3.349072,11.72102,-3.865434,0.08667925,-0.05217551,0.9826423,15.79031,-18.0841,-51.2925
130.29,4.780269,10.13055,-2.888487,0.07641622,-0.04832254,0.9893798,15.79031,-18.0841,-51.2925
130.3,5.278076,9.65929599999999,-2.277895,0.08936186,-0.03168377,0.9986174,15.79031,-18.0841,-51.2925
130.31,5.464754,11.01415,-0.995652900000003,0.121983,0.00986906,1.016645,16.14311,-17.36144,-51.3007
130.32,4.593591,13.19369,-1.423067,0.1338919,0.03421658,1.023001,16.14311,-17.36144,-51.3007
130.33,2.477908,14.254,-1.545185,0.1290021,0.03849443,1.018655,16.14311,-17.36144,-51.3007
130.34,0.4866776,13.37041,-2.583191,0.110802,0.01259764,1.006971,16.14311,-17.36144,-51.3007
130.35,-0.0733558899999998,11.77993,-2.277895,0.09344009,0.0007507149,0.996285,16.87406,-17.71428,-50.40333
130.36,-0.0733558899999998,10.07164,-2.033659,0.05610206,-0.003596788,0.9759122,16.87406,-17.71428,-50.40333
130.37,0.5489036,7.892101,-1.911541,0.04593224,-0.009430857,0.981664,16.87406,-17.71428,-50.40333
130.38,0.05109601,7.24413000000001,-1.056712,0.04874054,-0.001547161,0.9947169,16.87406,-17.71428,-50.40333
130.39,-0.01112994,7.185224,-0.3850612,0.06675712,-0.008542797,1.00826,16.87406,-17.71428,-50.40333
130.4,1.233389,8.304446,0.04235294,0.09544667,-0.01069469,1.013155,17.24772,-18.08021,-50.45719
130.41,1.793423,9.30585799999997,0.04235294,0.1213549,-0.02691599,1.016564,17.24772,-18.08021,-50.45719
130.42,2.353456,9.42367100000003,1.141418,0.1096625,-0.02410795,1.016058,17.24772,-18.08021,-50.45719
130.43,2.60236,8.48116599999998,1.446714,0.07785355,0.005891008,0.9895,17.24772,-18.08021,-50.45719
130.44,2.789038,6.478345,1.080359,0.05243672,0.02444367,0.975963,17.24772,-18.08021,-50.45719
130.45,1.420067,4.53443,0.4087079,0.04463179,0.0319766,0.9595524,17.60727,-17.72006,-50.45955
130.46,-0.3844857,3.3563,0.2255304,0.05120362,0.005868282,0.956618,17.60727,-17.72006,-50.45955
130.47,-1.629005,1.353478,0.1644713,0.05500691,-0.03622759,0.9541245,17.60727,-17.72006,-50.45955
130.48,-0.1355819,-0.00137157,1.629891,0.07055512,-0.03795857,0.9633293,17.60727,-17.72006,-50.45955
130.49,0.5489036,-0.649343199999997,2.48472,0.06799437,-0.02488558,0.9662461,17.60727,-17.72006,-50.45955
130.5,0.922259299999998,-2.0631,3.278489,0.07603341,-0.002037679,0.9706589,17.62123,-18.09495,-51.21192
130.51,0.4244517,-3.535763,3.278489,0.0788483,0.008169189,0.9731008,17.62123,-18.09495,-51.21192
130.52,0.3622258,-4.478266,2.423661,0.07756814,-0.009782068,0.9691986,17.62123,-18.09495,-51.21192
130.53,1.668971,-5.538584,2.057305,0.08254475,-0.02044281,0.9633979,17.62123,-18.09495,-51.21192
130.54,2.664586,-6.71671399999998,2.545779,0.07292999,-0.03212826,0.9638305,17.62123,-18.09495,-51.21192
130.55,3.535749,-8.71953599999998,3.034252,0.05868141,-0.01673113,0.9662396,17.61402,-18.08258,-50.45371
130.56,5.029172,-9.72094600000002,2.728956,0.06478295,0.004671757,0.973057,17.61402,-18.08258,-50.45371
130.57,6.33591700000003,-10.66345,1.874128,0.07973718,0.0150173,0.9803561,17.61402,-18.08258,-50.45371
130.58,7.70488800000001,-10.72236,0.5308262,0.08800933,0.008957425,0.9987013,17.61402,-18.08258,-50.45371
130.59,8.63827699999999,-10.78126,-0.1408246,0.1006199,0.008210937,1.012244,17.61402,-18.08258,-50.45371
130.6,8.63827699999999,-10.60454,-0.2629429,0.1049164,0.01084869,1.032527,17.62859,-18.4585,-51.26927
130.61,8.20269600000001,-9.95657299999998,0.2255304,0.09947365,0.01909483,1.039287,17.62859,-18.4585,-51.26927
130.62,7.58043600000001,-9.19078800000002,0.1034121,0.1079964,0.04289244,1.04129,17.62859,-18.4585,-51.26927
130.63,6.95817699999997,-7.77703200000002,-0.690357099999997,0.1218889,0.06196714,1.0515,17.62859,-18.4585,-51.26927
130.64,5.77588399999999,-6.65780699999999,-1.545185,0.120831,0.069746,1.05634,17.62859,-18.4585,-51.26927
130.65,3.535749,-5.656397,-2.155777,0.1291251,0.06642748,1.056837,17.25808,-18.44891,-50.83046
130.66,0.113322,-5.008425,-2.461073,0.1352305,0.03931248,1.050038,17.25808,-18.44891,-50.83046
130.67,-2.064586,-3.535763,-1.728363,0.1331339,0.006770488,1.038864,17.25808,-18.44891,-50.83046
130.68,-2.437942,-2.828884,-1.056712,0.1200772,0.00269157,1.027241,17.25808,-18.44891,-50.83046
130.69,-1.629005,-2.475445,-0.4461204,0.1132267,0.008414747,1.023858,17.25808,-18.44891,-50.83046
130.7,-0.5711635,-2.0631,-0.751416300000002,0.1135709,0.02483218,1.019551,16.89852,-18.80906,-50.82811
130.71,-0.01112994,-1.532941,-1.362008,0.1145664,0.02523167,1.009421,16.89852,-18.80906,-50.82811
130.72,0.113322,-1.002782,-2.033659,0.1121341,0.02568785,1.00845,16.89852,-18.80906,-50.82811
130.73,-0.2600338,-0.4726236,-2.155777,0.1200508,0.01075161,1.008921,16.89852,-18.80906,-50.82811
130.74,-0.4467116,-0.3548107,-1.606245,0.112932,-0.004882574,0.9987358,16.89852,-18.80906,-50.82811
130.75,0.4244517,-0.1780911,-1.117771,0.1126749,-0.02674575,0.9895197,16.52547,-18.44416,-50.83743
130.76,2.229004,-0.708249700000001,-0.1408246,0.1106852,-0.02192179,0.9895249,16.52547,-18.44416,-50.83743
130.77,4.033557,-1.179502,0.2865896,0.1116235,-0.01664373,0.9837481,16.52547,-18.44416,-50.83743
130.78,4.966946,-1.238408,0.714003699999998,0.1197654,-0.004921471,0.9886197,16.52547,-18.44416,-50.83743
130.79,5.402528,-1.532941,0.897181199999997,0.1265732,-0.005814271,0.9910482,16.52547,-18.44416,-50.83743
130.8,5.713658,-1.650754,1.080359,0.1284697,0.001393892,0.9838303,16.88141,-18.07784,-50.46067
130.81,5.96256199999999,-1.88638,1.75201,0.1300689,-0.01406683,0.9852488,16.88141,-18.07784,-50.46067
130.82,6.58482100000003,-2.593258,2.057305,0.1199342,-0.02283067,0.9880992,16.88141,-18.07784,-50.46067
130.83,8.01601800000001,-3.476856,3.21743,0.1102225,-0.02387876,0.9875894,16.88141,-18.07784,-50.46067
130.84,10.25615,-3.653575,4.011199,0.1123955,0.0009074546,0.9972991,16.53222,-18.80668,-50.83159
130.85,11.43845,-3.830295,4.682849,0.1130854,0.02998494,1.001224,16.53222,-18.80668,-50.83159
130.86,10.62951,-3.476856,3.95014,0.1107924,0.06488606,1.009496,16.53222,-18.80668,-50.83159
130.87,9.44721499999999,-3.300136,3.339548,0.1092459,0.07595212,1.003726,16.53222,-18.80668,-50.83159
130.88,7.82934000000001,-3.417949,1.874128,0.1102501,0.07350948,1.000345,16.53222,-18.80668,-50.83159
130.89,6.02478700000002,-3.830295,0.591885399999997,0.109426,0.05753709,1.000791,16.53222,-18.80668,-50.83159
130.9,4.531364,-3.300136,0.714003699999998,0.1242192,0.03491573,1.001746,16.16231,-18.79813,-50.45596
130.91,4.531364,-3.123417,0.836122100000001,0.1292007,0.02001806,1.008965,16.16231,-18.79813,-50.45596
130.92,5.091398,-2.534352,0.836122100000001,0.133244,0.003124571,1.010387,16.16231,-18.79813,-50.45596
130.93,7.26930699999998,-2.180913,1.385654,0.1199639,0.02182467,1.002672,16.16231,-18.79813,-50.45596
130.94,9.13608600000002,-2.828884,1.324595,0.1078108,0.07539549,0.996965,16.16793,-19.10023,-50.4511
130.95,7.26930699999998,-3.712482,0.1034121,0.1007097,0.1068012,0.9974967,16.16793,-19.10023,-50.4511
130.96,3.722427,-4.183734,-1.23989,0.1079858,0.1064399,1.004753,16.16793,-19.10023,-50.4511
130.97,0.735581500000002,-3.889201,-2.338954,0.118511,0.07264559,1.004707,16.16793,-19.10023,-50.4511
130.98,-0.8200673,-4.124827,-2.461073,0.1281883,0.02389493,1.010418,16.16793,-19.10023,-50.4511
130.99,0.05109601,-4.478266,-1.362008,0.1265835,-0.0124138,1.010336,16.17469,-19.46275,-50.44527
131,2.415682,-4.772799,-0.3240021,0.1114936,-0.007304765,0.999692,16.17469,-19.46275,-50.44527
131.01,6.02478700000002,-5.420771,-0.1408246,0.09762321,0.02486664,0.9838012,16.17469,-19.46275,-50.44527
131.02,8.32714699999999,-6.127649,-1.23989,0.09553239,0.09025377,0.9916572,16.17469,-19.46275,-50.44527
131.03,7.02040299999997,-6.18655500000001,-3.682256,0.1174118,0.1361003,1.012079,16.17469,-19.46275,-50.44527
131.04,2.851264,-5.067332,-5.75826800000001,0.1349105,0.1348333,1.01743,15.81513,-19.82289,-50.44292
131.05,-2.064586,-4.124827,-7.22368799999999,0.1421416,0.0893985,1.017351,15.81513,-19.82289,-50.44292
131.06,-4.055817,-3.06451,-7.28474699999998,0.1484441,0.04052927,1.012919,15.81513,-19.82289,-50.44292
131.07,-2.811298,-2.887791,-6.67415600000002,0.1323733,-0.005659197,1.003127,15.81513,-19.82289,-50.44292
131.08,0.735581500000002,-3.889201,-5.63615,0.114554,-0.01948063,0.988575,15.81513,-19.82289,-50.44292
131.09,5.52698,-5.420771,-5.025558,0.09974787,0.009749033,0.9692978,15.81513,-19.82289,-50.44292
131.1,8.51382499999999,-6.83452699999997,-5.452972,0.09148813,0.0605212,0.9717983,15.81513,-19.82289,-50.44292
131.11,8.88718099999999,-7.65921900000002,-6.796274,0.1024332,0.08108184,0.9882774,15.81513,-19.82289,-50.44292
131.12,6.77149900000003,-7.83593799999998,-7.04051099999997,0.1272898,0.07168032,0.9974897,15.81513,-19.82289,-50.44292
131.13,3.597975,-7.12906,-6.49097799999997,0.1357845,0.04706521,0.9974587,15.81513,-19.82289,-50.44292
131.14,2.664586,-7.42359200000001,-5.391913,0.1312111,0.01559476,0.999792,15.81768,-20.1782,-49.9948
131.15,3.846879,-8.18937700000002,-4.292848,0.1356475,0.01401943,0.9824283,15.81768,-20.1782,-49.9948
131.16,6.33591700000003,-9.897666,-3.37696,0.1189479,0.03227916,0.9824245,15.81768,-20.1782,-49.9948
131.17,8.38937400000001,-11.31142,-3.926493,0.1206528,0.05981609,0.9757324,15.81768,-20.1782,-49.9948
131.18,9.88279600000003,-11.84158,-5.025558,0.1235418,0.06321311,0.9742996,15.81768,-20.1782,-49.9948
131.19,10.06947,-10.84017,-5.514031,0.1215759,0.0599858,0.9935895,15.08928,-20.18067,-50.44404
131.2,9.945023,-12.31283,-5.75826800000001,0.1293272,0.0610713,0.9998849,15.08928,-20.18067,-50.44404
131.21,8.82495499999999,-11.95939,-5.88038599999998,0.1554124,0.07307417,1.020245,15.08928,-20.18067,-50.44404
131.22,7.95379200000001,-11.90049,-4.964499,0.1587598,0.07750415,1.025571,15.08928,-20.18067,-50.44404
131.23,5.77588399999999,-11.90049,-4.292848,0.1712467,0.09451787,1.023227,15.08928,-20.18067,-50.44404
131.24,3.100168,-11.66486,-3.621197,0.1552904,0.08942207,1.008699,14.78657,-20.53399,-49.99882
131.25,1.980101,-12.37174,-3.499079,0.1465759,0.08736116,1.002399,14.78657,-20.53399,-49.99882
131.26,1.544519,-13.66768,-4.109671,0.1363855,0.08675376,0.9975456,14.78657,-20.53399,-49.99882
131.27,1.855649,-14.43347,-4.90344,0.1407828,0.08577625,0.9927294,14.78657,-20.53399,-49.99882
131.28,2.229004,-14.02112,-5.57509,0.1503385,0.1004703,1.003884,14.78657,-20.53399,-49.99882
131.29,1.793423,-13.01971,-6.36886,0.1701415,0.1099561,1.018915,14.79753,-20.90373,-50.43527
131.3,0.2999998,-12.25393,-7.04051099999997,0.1759365,0.1110659,1.029548,14.79753,-20.90373,-50.43527
131.31,-1.691231,-12.25393,-7.28474699999998,0.1783758,0.1091798,1.032928,14.79753,-20.90373,-50.43527
131.32,-4.304721,-11.95939,-6.97945100000002,0.1765121,0.1023329,1.026636,14.79753,-20.90373,-50.43527
131.33,-5.611465,-11.95939,-7.46792500000003,0.1635456,0.08998364,1.010169,14.79753,-20.90373,-50.43527
131.34,-5.300336,-11.95939,-7.46792500000003,0.1583247,0.07920816,1.000481,14.05141,-20.17394,-50.4539
131.35,-3.931365,-11.95939,-8.26169300000001,0.1656021,0.08118758,0.9990567,14.05141,-20.17394,-50.4539
131.36,-2.31349,-11.25252,-8.62804800000002,0.1747724,0.08663531,1.004883,14.05141,-20.17394,-50.4539
131.37,-2.126812,-10.78126,-9.48287600000001,0.1830258,0.08532693,1.013587,14.05141,-20.17394,-50.4539
131.38,-3.060202,-10.89908,-9.78817199999998,0.1820475,0.08487049,1.017444,14.05141,-20.17394,-50.4539
131.39,-3.993591,-11.1347,-9.60499500000001,0.1736372,0.09935846,1.021314,14.06177,-20.54264,-50.82717
131.4,-5.673692,-11.42924,-9.60499500000001,0.1823692,0.1046447,1.009766,14.06177,-20.54264,-50.82717
131.41,-8.41163299999999,-11.0758,-9.42181700000002,0.187657,0.109103,1.016545,14.06177,-20.54264,-50.82717
131.42,-10.46509,-10.25111,-9.54393600000003,0.1959485,0.1081383,1.009809,14.06177,-20.54264,-50.82717
131.43,-11.33625,-9.83875900000001,-10.15453,0.1931437,0.09602206,1.010258,13.34011,-20.90762,-51.27058
131.44,-11.39848,-9.95657299999998,-11.25359,0.189958,0.07652063,0.9971793,13.34011,-20.90762,-51.27058
131.45,-10.40286,-10.07439,-12.10842,0.1865875,0.0726359,0.9986098,13.34011,-20.90762,-51.27058
131.46,-9.220571,-10.42782,-13.14643,0.1895603,0.06872163,0.9913708,13.34011,-20.90762,-51.27058
131.47,-7.66492200000001,-10.66345,-14.18443,0.1862178,0.06005472,0.9990644,13.34011,-20.90762,-51.27058
131.48,-7.10488800000001,-10.72236,-14.24549,0.1872646,0.05043661,1.004837,13.34011,-20.90762,-51.27058
131.49,-7.78937400000001,-11.37033,-13.75702,0.2018683,0.04766886,1.007281,13.3224,-20.17537,-50.83997
131.5,-9.40724800000003,-10.1922,-12.96325,0.2174076,0.05018794,1.004914,13.3224,-20.17537,-50.83997
131.51,-9.96728199999997,-9.42641400000002,-12.23054,0.2223448,0.04387803,0.9986402,13.3224,-20.17537,-50.83997
131.52,-9.96728199999997,-8.95516199999997,-11.49783,0.2248209,0.03764994,1.003459,13.3224,-20.17537,-50.83997
131.53,-10.15396,-8.83734899999998,-10.82618,0.2272245,0.03916448,1.008294,12.58979,-20.17062,-50.84693
131.54,-10.71399,-8.13047100000001,-9.97135000000002,0.2261804,0.04877383,1.001556,12.58979,-20.17062,-50.84693
131.55,-12.26964,-7.65921900000002,-9.17757999999999,0.2257614,0.04339001,0.9952701,12.58979,-20.17062,-50.84693
131.56,-13.26526,-7.60031199999999,-8.13957499999997,0.2195938,0.02642561,0.9976305,12.58979,-20.17062,-50.84693
131.57,-14.38533,-8.07156499999999,-7.10157000000002,0.2138699,0.01992269,0.979265,12.58979,-20.17062,-50.84693
131.58,-15.31871,-8.48390999999999,-5.88038599999998,0.1985171,0.00365684,0.9598884,12.20744,-19.08789,-51.3102
131.59,-14.3231,-9.07297500000003,-5.330854,0.2156912,-0.01596759,0.9690589,12.20744,-19.08789,-51.3102
131.6,-11.64738,-9.19078800000002,-4.842381,0.2117746,-0.01262368,0.9676084,12.20744,-19.08789,-51.3102
131.61,-9.59392599999997,-8.83734899999998,-4.476026,0.2259303,-0.01974169,0.9710075,12.20744,-19.08789,-51.3102
131.62,-7.78937400000001,-8.95516199999997,-3.621197,0.22586,-0.01388214,0.9768105,12.20744,-19.08789,-51.3102
131.63,-6.66930699999997,-9.54422700000001,-2.766369,0.2204708,-0.00721919,0.96909,12.56136,-18.42565,-51.31741
131.64,-6.10927300000003,-10.25111,-2.155777,0.2194208,0.0005333759,0.9710342,12.56136,-18.42565,-51.31741
131.65,-5.79814300000002,-11.25252,-1.300949,0.2019284,0.000841259,0.9666468,12.56136,-18.42565,-51.31741
131.66,-5.051432,-12.13611,-1.178831,0.2125194,0.01252114,0.964769,12.56136,-18.42565,-51.31741
131.67,-4.92698,-12.72518,-0.751416300000002,0.2159517,0.0086983,0.9671824,12.56136,-18.42565,-51.31741
131.68,-5.113658,-11.95939,-0.3240021,0.2222538,0.008804588,0.9734721,12.19191,-18.06693,-51.70583
131.69,-5.487014,-11.95939,-0.07976539,0.2286201,0.002602466,0.9778181,12.19191,-18.06693,-51.70583
131.7,-5.487014,-11.90049,0.1034121,0.2388477,-0.001602972,0.9855562,12.19191,-18.06693,-51.70583
131.71,-4.92698,-11.66486,0.4087079,0.2530518,-0.009349491,0.97303,12.19191,-18.06693,-51.70583
131.72,-2.62462,-11.66486,-0.3850612,0.2570061,-0.01563193,0.9706139,12.19191,-18.06693,-51.70583
131.73,-0.5711635,-11.48814,-0.629297899999999,0.2666566,-0.009692109,0.9769247,11.14054,-17.33516,-51.72736
131.74,0.984485200000001,-11.19361,-0.1408246,0.2627648,-0.01065086,0.9812555,11.14054,-17.33516,-51.72736
131.75,1.233389,-10.60454,0.836122100000001,0.2675394,-0.003292859,0.9880394,11.14054,-17.33516,-51.72736
131.76,-0.1355819,-10.72236,1.935187,0.2647596,-0.0164295,0.9826959,11.14054,-17.33516,-51.72736
131.77,-0.633389499999999,-10.78126,3.278489,0.2629228,-0.02711708,0.9797729,11.14054,-17.33516,-51.72736
131.78,0.05109601,-10.72236,4.255435,0.2615989,-0.03929642,0.9720224,11.4458,-17.33714,-51.72446
131.79,2.104553,-9.95657299999998,4.866027,0.270742,-0.03094521,0.9778546,11.4458,-17.33714,-51.72446
131.8,3.660201,-8.83734899999998,5.415559,0.2891227,-0.02393422,0.9880506,11.4458,-17.33714,-51.72446
131.81,4.158009,-7.71812499999998,5.84297399999999,0.2845131,-0.0006835265,0.9943619,11.4458,-17.33714,-51.72446
131.82,3.037942,-6.65780699999999,6.33144699999998,0.2855394,-0.005074981,0.9895296,11.4458,-17.33714,-51.72446
131.83,1.855649,-5.83311600000003,7.24733400000002,0.2802782,-0.011966,0.9812979,10.41829,-17.69912,-52.10759
131.84,1.668971,-5.067332,8.407459,0.2746106,-0.02709613,0.9720822,10.41829,-17.69912,-52.10759
131.85,3.22462,-4.301547,8.89593300000002,0.2664086,-0.0348682,0.9759048,10.41829,-17.69912,-52.10759
131.86,6.02478700000002,-3.476856,9.384406,0.2717128,-0.02858816,0.9701414,10.41829,-17.69912,-52.10759
131.87,8.20269600000001,-2.828884,9.62864299999998,0.2749827,-0.01546087,0.9740384,10.41829,-17.69912,-52.10759
131.88,9.88279600000003,-2.298726,10.11712,0.2747223,0.008377993,0.9880829,10.42144,-18.05545,-51.72266
131.89,10.1317,-2.004193,10.30029,0.2692348,0.02099251,0.9962991,10.42144,-18.05545,-51.72266
131.9,9.633893,-1.827474,10.42241,0.261992,0.01889916,0.9851774,10.42144,-18.05545,-51.72266
131.91,9.88279600000003,-1.415128,10.11712,0.265404,0.01654997,0.9900067,10.42144,-18.05545,-51.72266
131.92,10.56728,-0.649343199999997,9.75076100000001,0.2659934,0.009647514,0.9755169,10.42144,-18.05545,-51.72266
131.93,12.37183,0.4698806,9.26228800000003,0.2711986,0.02375781,0.9794211,9.682073,-17.68818,-51.73545
131.94,14.11416,0.8822262,8.407459,0.2788713,0.03448215,0.9813941,9.682073,-17.68818,-51.73545
131.95,14.48752,1.648011,7.55262999999998,0.2865189,0.04528975,0.9925356,9.682073,-17.68818,-51.73545
131.96,14.05194,2.295982,7.24733400000002,0.2801453,0.04870231,1.00073,9.682073,-17.68818,-51.73545
131.97,12.74519,2.590515,7.12521599999998,0.2709412,0.04617998,0.9973229,9.682073,-17.68818,-51.73545
131.98,11.68735,2.590515,7.064157,0.2584077,0.03400977,1.00016,9.691371,-18.40601,-51.28149
131.99,12.74519,3.061767,6.514624,0.2638378,0.03096399,0.9799001,9.691371,-18.40601,-51.28149
132,14.98532,3.709739,6.209329,0.2677501,0.02904116,0.9779758,9.691371,-18.40601,-51.28149
132.01,16.47875,4.298804,5.598737,0.2792382,0.04613494,0.9852804,9.691371,-18.40601,-51.28149
132.02,16.78988,4.71115,5.537678,0.2786644,0.05673782,0.9809588,9.691371,-18.40601,-51.28149
132.03,16.35429,5.123496,5.78191399999998,0.267801,0.07128131,0.9930258,9.348403,-19.43799,-51.71073
132.04,14.9231,5.064589,6.27038799999999,0.2517505,0.07212393,0.9929862,9.348403,-19.43799,-51.71073
132.05,13.42968,5.241308,6.08721,0.2424461,0.07743623,0.9997293,9.348403,-19.43799,-51.71073
132.06,12.37183,6.00709300000002,6.209329,0.2580652,0.06937493,1.004578,9.348403,-19.43799,-51.71073
132.07,12.55851,6.83178399999998,6.08721,0.2668787,0.06360558,1.00121,9.348403,-19.43799,-51.71073
132.08,13.11855,7.361943,6.209329,0.2756378,0.06598829,0.9896569,9.35155,-19.79433,-51.32579
132.09,13.74081,7.597569,6.75886099999997,0.2624011,0.0803244,0.9809676,9.35155,-19.79433,-51.32579
132.1,13.42968,7.42084900000002,7.308393,0.2524798,0.1015407,0.9809876,9.35155,-19.79433,-51.32579
132.11,11.68735,7.06740999999997,7.735807,0.2348751,0.1120678,0.982895,9.35155,-19.79433,-51.32579
132.12,10.06947,7.361943,7.55262999999998,0.2275995,0.1072681,0.9934821,10.08671,-20.15439,-50.87071
132.13,9.19831099999999,7.185224,6.39250600000002,0.2320569,0.09436804,1.007942,10.08671,-20.15439,-50.87071
132.14,9.69611800000003,7.479756,5.537678,0.2394246,0.08807711,1.001675,10.08671,-20.15439,-50.87071
132.15,9.945023,7.71538199999999,5.110263,0.2345401,0.09233742,0.995398,10.08671,-20.15439,-50.87071
132.16,9.50944000000002,7.53866200000001,5.232382,0.2271536,0.1057249,0.9838266,10.08671,-20.15439,-50.87071
132.17,8.76273000000002,7.00850400000002,4.927086,0.2164678,0.1074895,0.9741518,10.09661,-20.87325,-50.47994
132.18,8.63827699999999,6.53725100000001,4.194376,0.2087782,0.09869643,0.9717003,10.09661,-20.87325,-50.47994
132.19,9.01163299999999,6.24271900000001,3.095311,0.2179682,0.1007962,0.9818621,10.09661,-20.87325,-50.47994
132.2,9.13608600000002,6.18381299999999,2.423661,0.2266825,0.1019199,0.9915379,10.09661,-20.87325,-50.47994
132.21,9.01163299999999,6.478345,1.813069,0.2228309,0.09707674,0.994413,10.09661,-20.87325,-50.47994
132.22,8.63827699999999,6.360532,1.935187,0.2184498,0.09893881,0.9900627,9.743807,-21.59592,-50.47175
132.23,7.39375800000001,6.12490600000001,2.790015,0.2131527,0.09685627,0.9784634,9.743807,-21.59592,-50.47175
132.24,6.46036900000003,5.94818599999998,3.644844,0.2024677,0.09439703,0.983256,9.743807,-21.59592,-50.47175
132.25,6.33591700000003,5.653654,3.95014,0.205334,0.09786853,0.9900265,9.743807,-21.59592,-50.47175
132.26,6.64704700000003,5.535841,3.705903,0.2125359,0.1080701,0.9881369,9.743807,-21.59592,-50.47175
132.27,6.64704700000003,6.12490600000001,2.728956,0.2249872,0.1237942,1.003644,10.84272,-21.60304,-50.46131
132.28,6.46036900000003,6.30162599999999,1.935187,0.2292013,0.1393662,1.009479,10.84272,-21.60304,-50.46131
132.29,5.029172,6.71397099999999,1.263536,0.2353954,0.1538979,1.005666,10.84272,-21.60304,-50.46131
132.3,2.540134,7.06740999999997,0.775062900000002,0.2219076,0.1388473,1.011872,10.84272,-21.60304,-50.46131
132.31,0.735581500000002,7.06740999999997,0.4697671,0.2168429,0.1130179,0.9963619,10.84272,-21.60304,-50.46131
132.32,0.673355500000001,7.00850400000002,0.4087079,0.214174,0.08638424,0.9967804,10.84167,-21.95217,-49.63409
132.33,2.477908,7.12631700000001,0.1644713,0.2146795,0.084448,0.9962949,10.84167,-21.95217,-49.63409
132.34,4.344687,7.06740999999997,-0.07976539,0.2223693,0.09417823,0.9953705,10.84167,-21.95217,-49.63409
132.35,4.780269,7.06740999999997,-0.1408246,0.220235,0.1154246,0.9920329,10.84167,-21.95217,-49.63409
132.36,3.473523,7.12631700000001,-0.01870623,0.2191256,0.1299388,0.9925438,10.84167,-21.95217,-49.63409
132.37,1.357841,7.42084900000002,0.2865896,0.2112838,0.1338414,1.002665,10.84167,-21.95217,-49.63409
132.38,-0.3844857,7.597569,0.5308262,0.2080438,0.1178019,0.9977971,10.84167,-21.95217,-49.63409
132.39,-1.380101,7.30303600000002,0.652944600000002,0.1998998,0.1056176,0.9953372,10.84167,-21.95217,-49.63409
132.4,-1.255649,7.479756,0.652944600000002,0.1994196,0.1051255,0.9948524,10.84167,-21.95217,-49.63409
132.41,-0.8200673,7.65647500000001,0.5308262,0.2096661,0.104141,0.9842606,10.84167,-21.95217,-49.63409
132.42,-0.4467116,7.892101,0.1644713,0.2226898,0.1116117,0.996374,11.54017,-22.99706,-50.43256
132.43,-0.882293300000001,7.774288,-0.3240021,0.2159,0.1105688,0.9939415,11.54017,-22.99706,-50.43256
132.44,-1.691231,7.65647500000001,-0.5682387,0.2154674,0.1066368,0.9876588,11.54017,-22.99706,-50.43256
132.45,-2.31349,7.65647500000001,-0.4461204,0.2009804,0.09776428,0.9822943,11.54017,-22.99706,-50.43256
132.46,-2.251264,7.12631700000001,-0.4461204,0.2014302,0.1016394,0.9823038,11.54017,-22.99706,-50.43256
132.47,-2.002361,7.361943,-0.873534600000002,0.2023929,0.1007405,0.98906,11.21158,-21.96073,-50.0097
132.48,-2.002361,7.95100700000001,-1.362008,0.199394,0.1089618,0.9910002,11.21158,-21.96073,-50.0097
132.49,-2.064586,7.479756,-1.850481,0.1974376,0.1113311,0.9871399,11.21158,-21.96073,-50.0097
132.5,-2.93575,6.94959699999998,-2.155777,0.201348,0.1098834,0.9842516,11.21158,-21.96073,-50.0097
132.51,-4.180269,6.18381299999999,-2.338954,0.1974434,0.1108428,0.9866562,11.21158,-21.96073,-50.0097
132.52,-4.864754,5.653654,-2.216836,0.2004583,0.1002239,0.9871238,11.88314,-21.96508,-50.00333
132.53,-4.92698,5.182402,-2.461073,0.1966805,0.08997875,0.9813014,11.88314,-21.96508,-50.00333
132.54,-4.491398,5.005682,-2.705309,0.1996536,0.08465655,0.9788848,11.88314,-21.96508,-50.00333
132.55,-4.242495,4.946776,-2.888487,0.2035531,0.08465185,0.9750345,11.88314,-21.96508,-50.00333
132.56,-4.864754,4.357711,-3.010605,0.200962,0.1011079,0.977476,11.88314,-21.96508,-50.00333
132.57,-6.29595100000003,3.886459,-3.132724,0.2052849,0.1083481,0.9717121,11.88059,-21.60977,-50.45145
132.58,-7.91382600000001,3.17958,-3.560138,0.1980839,0.09861295,0.9716725,11.88059,-21.60977,-50.45145
132.59,-9.345023,2.413795,-3.254842,0.2005818,0.09418906,0.9620186,11.88059,-21.60977,-50.45145
132.6,-10.40286,1.471291,-3.254842,0.1944001,0.08149225,0.9547371,11.88059,-21.60977,-50.45145
132.61,-10.21619,0.587693599999997,-3.743315,0.1881939,0.06934506,0.9546949,11.88059,-21.60977,-50.45145
132.62,-9.469475,-0.767156199999999,-3.315901,0.1771444,0.05897729,0.9416154,12.60224,-21.24479,-50.00803
132.63,-9.656153,-3.300136,-2.461073,0.1631339,0.05154721,0.9348076,12.60224,-21.24479,-50.00803
132.64,-9.96728199999997,-6.24546199999999,-1.117771,0.1457119,0.04599554,0.9246172,12.60224,-21.24479,-50.00803
132.65,-10.52732,-8.30719000000001,0.2255304,0.1398879,0.04591934,0.9212242,12.60224,-21.24479,-50.00803
132.66,-10.52732,-9.95657299999998,0.775062900000002,0.1477396,0.03682512,0.9255678,12.60224,-21.24479,-50.00803
132.67,-8.90944099999999,-11.37033,0.897181199999997,0.1657524,0.03312487,0.9289841,12.23339,-20.8871,-50.45963
132.68,-7.22934099999998,-12.54846,1.629891,0.1762936,0.0501278,0.9271176,12.23339,-20.8871,-50.45963
132.69,-6.29595100000003,-14.55128,1.935187,0.1741729,0.06757735,0.9319752,12.23339,-20.8871,-50.45963
132.7,-6.54485499999997,-16.90754,1.629891,0.1746409,0.06717172,0.9401789,12.23339,-20.8871,-50.45963
132.71,-7.97605200000001,-19.08708,2.48472,0.1693121,0.06613148,0.936785,12.23024,-20.53077,-50.84457
132.72,-9.469475,-20.38303,2.851075,0.1746428,0.06669657,0.9411429,12.23024,-20.53077,-50.84457
132.73,-9.96728199999997,-21.73787,2.912134,0.1887202,0.06780948,0.9450421,12.23024,-20.53077,-50.84457
132.74,-9.78060399999997,-21.91459,2.790015,0.2071685,0.06662461,0.9585984,12.23024,-20.53077,-50.84457
132.75,-8.66053800000002,-23.15163,1.813069,0.2056719,0.07002254,0.9610146,12.23024,-20.53077,-50.84457
132.76,-8.10050400000002,-23.91742,1.629891,0.2012501,0.07154968,0.9730703,11.50078,-20.88235,-50.4666
132.77,-7.85160000000001,-24.44757,1.141418,0.2088899,0.08332071,0.9837313,11.50078,-20.88235,-50.4666
132.78,-8.41163299999999,-24.38867,0.591885399999997,0.218629,0.08240248,0.9808592,11.50078,-20.88235,-50.4666
132.79,-8.78498899999999,-24.09414,0.4087079,0.2274919,0.06943577,0.984232,11.50078,-20.88235,-50.4666
132.8,-9.90505599999998,-24.44757,0.836122100000001,0.2382304,0.06562164,0.9813562,11.50078,-20.88235,-50.4666
132.81,-11.27403,-25.80243,0.775062900000002,0.2543232,0.06370166,0.9693298,10.44626,-19.79424,-50.87306
132.82,-13.51416,-26.92165,0.591885399999997,0.2616884,0.06070173,0.9524532,10.44626,-19.79424,-50.87306
132.83,-15.31871,-28.33541,0.775062900000002,0.2725902,0.04040385,0.9461645,10.44626,-19.79424,-50.87306
132.84,-15.7543,-29.63135,1.202477,0.2640549,0.01946152,0.9388593,10.44626,-19.79424,-50.87306
132.85,-13.20303,-31.63417,0.591885399999997,0.2623697,-0.009078294,0.9416889,10.44626,-19.79424,-50.87306
132.86,-8.78498899999999,-33.16574,-0.4461204,0.2512581,-0.01267565,0.9281411,9.35155,-19.79433,-51.32579
132.87,-4.989206,-34.75621,-0.873534600000002,0.2396027,-0.00858237,0.9093004,9.35155,-19.79433,-51.32579
132.88,-1.380101,-36.28778,-1.117771,0.2487121,0.008321553,0.8977791,9.35155,-19.79433,-51.32579
132.89,1.793423,-38.46733,-1.728363,0.2651391,0.01534804,0.9113479,9.35155,-19.79433,-51.32579
132.9,4.344687,-39.76327,-1.606245,0.2982185,0.01411926,0.9075702,9.35155,-19.79433,-51.32579
132.91,5.52698,-40.58796,-0.995652900000003,0.3050114,0.01468258,0.9104843,7.195639,-18.75334,-51.36263
132.92,6.58482100000003,-42.17844,0.4087079,0.3045405,0.01181474,0.9148198,7.195639,-18.75334,-51.36263
132.93,6.21146500000002,-42.82641,1.75201,0.3045948,0.00600777,0.9148075,7.195639,-18.75334,-51.36263
132.94,7.20708,-44.41689,2.179424,0.3027011,-0.001209157,0.9210602,7.195639,-18.75334,-51.36263
132.95,9.633893,-46.06627,3.15637,0.2976365,0.01912111,0.9259163,7.195639,-18.75334,-51.36263
132.96,11.12732,-47.71565,3.766962,0.3101242,0.03660123,0.9216432,5.742796,-19.40846,-51.36585
132.97,10.31838,-48.65815,4.499672,0.3327032,0.06955426,0.9072958,5.742796,-19.40846,-51.36585
132.98,8.45160000000001,-49.0705,4.743908,0.3570198,0.0725204,0.8933709,5.742796,-19.40846,-51.36585
132.99,5.52698,-49.12941,3.95014,0.3853989,0.05806091,0.8755587,5.742796,-19.40846,-51.36585
133,5.77588399999999,-49.36503,3.15637,0.3944013,0.0272814,0.8890271,5.742796,-19.40846,-51.36585
133.01,8.51382499999999,-49.42394,4.194376,0.3943189,0.02989815,0.9107473,4.269768,-19.38556,-50.55838
133.02,11.50067,-49.30613,3.889081,0.3893887,0.03243314,0.9276292,4.269768,-19.38556,-50.55838
133.03,13.30522,-49.83628,4.072258,0.3703784,0.03855413,0.9251806,4.269768,-19.38556,-50.55838
133.04,14.79865,-50.36644,4.499672,0.3762217,0.04138046,0.9116904,4.269768,-19.38556,-50.55838
133.05,16.10539,-51.25004,4.62179,0.409712,0.04790685,0.9088955,4.269768,-19.38556,-50.55838
133.06,14.73642,-50.30753,4.011199,0.459799,0.04636201,0.9090213,2.12878,-19.3645,-50.1364
133.07,13.92748,-49.24722,3.644844,0.4749944,0.0357459,0.8993868,2.12878,-19.3645,-50.1364
133.08,16.22984,-48.77597,3.095311,0.475468,0.03625989,0.9022843,2.12878,-19.3645,-50.1364
133.09,19.9634,-49.60066,2.545779,0.4688357,0.07007141,0.9008923,2.12878,-19.3645,-50.1364
133.1,21.33237,-50.71988,2.545779,0.4664434,0.1142107,0.9140098,2.12878,-19.3645,-50.1364
133.11,18.84333,-51.30894,2.423661,0.4808885,0.1330701,0.9000937,-0.3540497,-20.43583,-50.14268
133.12,15.60758,-51.8391,3.400607,0.4970851,0.1237731,0.875023,-0.3540497,-20.43583,-50.14268
133.13,12.74519,-52.42817,4.988145,0.5134603,0.09043816,0.8672728,-0.3540497,-20.43583,-50.14268
133.14,10.94064,-51.8391,6.88097900000001,0.5253881,0.06246658,0.867726,-0.3540497,-20.43583,-50.14268
133.15,11.37622,-50.36644,7.43051200000001,0.5358334,0.03128026,0.8884354,-0.3540497,-20.43583,-50.14268
133.16,15.79426,-49.01159,6.94203900000002,0.5090178,0.03602464,0.9009228,-2.909344,-21.48719,-48.94904
133.17,19.65227,-48.65815,6.209329,0.4873285,0.06592608,0.9081693,-2.909344,-21.48719,-48.94904
133.18,22.45244,-47.42112,4.866027,0.4955354,0.1203111,0.9213362,-2.909344,-21.48719,-48.94904
133.19,21.51905,-47.48002,3.766962,0.5223234,0.1697908,0.9113782,-2.909344,-21.48719,-48.94904
133.2,17.78549,-47.3033,3.034252,0.5578347,0.1742039,0.8873518,-2.909344,-21.48719,-48.94904
133.21,12.99409,-46.53752,4.438612,0.576528,0.1557972,0.8695061,-5.043575,-21.82865,-48.52122
133.22,8.51382499999999,-46.24298,5.293441,0.5918884,0.1352574,0.8328279,-5.043575,-21.82865,-48.52122
133.23,5.21585,-47.53893,5.720855,0.5966622,0.09927162,0.8096005,-5.043575,-21.82865,-48.52122
133.24,6.02478700000002,-48.36362,4.743908,0.5859885,0.09396149,0.8201776,-5.043575,-21.82865,-48.52122
133.25,9.820571,-49.30613,2.240483,0.5942315,0.09597041,0.8211683,-5.043575,-21.82865,-48.52122
133.26,14.6742,-49.65956,-0.2018837,0.5823878,0.1152228,0.8197315,-7.180815,-22.16496,-47.77749
133.27,18.71888,-49.83628,-2.277895,0.5857266,0.12484,0.8101097,-7.180815,-22.16496,-47.77749
133.28,19.77672,-49.83628,-3.193783,0.5914775,0.1354747,0.8038743,-7.180815,-22.16496,-47.77749
133.29,19.21669,-49.30613,-3.926493,0.5968619,0.1353937,0.7903767,-7.180815,-22.16496,-47.77749
133.3,16.97655,-48.59925,-4.842381,0.6188043,0.1250235,0.8019922,-9.378281,-22.79472,-46.52399
133.31,14.86087,-46.77314,-4.90344,0.6392838,0.119816,0.7972082,-9.378281,-22.79472,-46.52399
133.32,14.86087,-43.94563,-5.63615,0.6310059,0.121674,0.7957433,-9.378281,-22.79472,-46.52399
133.33,15.98094,-42.17844,-5.514031,0.6060228,0.1432172,0.7913823,-9.378281,-22.79472,-46.52399
133.34,16.35429,-42.53188,-5.697209,0.5858321,0.1669005,0.805375,-9.378281,-22.79472,-46.52399
133.35,14.86087,-42.47297,-5.63615,0.6036425,0.1826269,0.8165534,-11.13631,-23.85741,-45.70193
133.36,12.24738,-42.06062,-5.94144499999997,0.6290078,0.1778448,0.8011669,-11.13631,-23.85741,-45.70193
133.37,7.76711400000001,-40.64687,-4.964499,0.6737452,0.1748591,0.8070664,-11.13631,-23.85741,-45.70193
133.38,3.162394,-38.93858,-4.476026,0.7132352,0.1644677,0.8013554,-11.13631,-23.85741,-45.70193
133.39,-0.5711635,-36.75904,-4.17073,0.7357199,0.1525094,0.7975273,-11.13631,-23.85741,-45.70193
133.4,-1.255649,-34.69731,-5.269794,0.729984,0.1460459,0.7835047,-12.6104,-24.18364,-44.06724
133.41,-0.1355819,-33.57809,-4.292848,0.7042428,0.1448331,0.7786102,-12.6104,-24.18364,-44.06724
133.42,1.731197,-33.57809,-4.17073,0.6795378,0.1340373,0.7833487,-12.6104,-24.18364,-44.06724
133.43,2.477908,-33.28355,-3.743315,0.679639,0.124324,0.7794677,-12.6104,-24.18364,-44.06724
133.44,1.544519,-31.98761,-3.071665,0.6918903,0.1156515,0.7732075,-12.6104,-24.18364,-44.06724
133.45,0.735581500000002,-30.80948,-1.850481,0.7104217,0.109034,0.7746888,-14.00782,-24.53706,-44.07475
133.46,0.4244517,-28.74775,-1.362008,0.7240859,0.1042748,0.7718185,-14.00782,-24.53706,-44.07475
133.47,1.917875,-26.39149,-0.1408246,0.7267714,0.12804,0.7752544,-14.00782,-24.53706,-44.07475
133.48,2.789038,-23.97632,0.5308262,0.7115639,0.1410407,0.7810336,-14.00782,-24.53706,-44.07475
133.49,2.166778,-21.26662,0.652944600000002,0.7147818,0.1613741,0.7791555,-14.00782,-24.53706,-44.07475
133.5,0.113322,-18.14458,0.652944600000002,0.7313866,0.1518686,0.7840033,-15.11454,-24.51654,-43.26379
133.51,-2.064586,-15.37597,0.5308262,0.7469246,0.1543921,0.7821187,-15.11454,-24.51654,-43.26379
133.52,-3.558009,-12.84299,0.3476488,0.7611378,0.1433327,0.7777886,-15.11454,-24.51654,-43.26379
133.53,-4.055817,-10.48673,0.04235294,0.7641415,0.1355646,0.7724716,-15.11454,-24.51654,-43.26379
133.54,-3.184654,-8.36609600000003,-0.01870623,0.7637862,0.1219981,0.7709939,-15.11454,-24.51654,-43.26379
133.55,-1.753457,-6.77561999999999,-0.01870623,0.7555616,0.1189906,0.7666233,-16.22127,-24.49602,-42.45284
133.56,-0.3844857,-4.360454,-0.01870623,0.7516143,0.1271255,0.7598749,-16.22127,-24.49602,-42.45284
133.57,0.3622258,-2.593258,-0.01870623,0.7476695,0.1343144,0.7555372,-16.22127,-24.49602,-42.45284
133.58,0.3622258,-0.649343199999997,-0.07976539,0.7437021,0.1415778,0.759403,-16.22127,-24.49602,-42.45284
133.59,-0.2600338,0.764413100000002,0.04235294,0.7457063,0.1357685,0.7574655,-16.22127,-24.49602,-42.45284
133.6,-0.4467116,2.826141,0.591885399999997,0.7462211,0.1338016,0.7536023,-16.94713,-24.85379,-42.45397
133.61,-1.006745,5.241308,1.080359,0.7511213,0.1308966,0.7492657,-16.94713,-24.85379,-42.45397
133.62,-1.255649,7.71538199999999,1.568832,0.7530264,0.1329176,0.7569957,-16.94713,-24.85379,-42.45397
133.63,-1.442327,10.18946,1.813069,0.7486182,0.1386203,0.7492758,-16.94713,-24.85379,-42.45397
133.64,-1.629005,12.48681,1.69095,0.7427331,0.1410907,0.759882,-16.94713,-24.85379,-42.45397
133.65,-2.31349,14.54854,1.935187,0.7288705,0.1191038,0.7487004,-16.94607,-24.50467,-43.2812
133.66,-2.62462,15.66776,2.790015,0.7158304,0.1130936,0.7375552,-16.94607,-24.50467,-43.2812
133.67,-2.749072,16.9048,3.461666,0.7220702,0.1213782,0.7385542,-16.94607,-24.50467,-43.2812
133.68,-2.437942,18.08293,3.583785,0.7205853,0.1237995,0.7400033,-16.94607,-24.50467,-43.2812
133.69,-1.877908,19.08434,4.133317,0.7190604,0.1310425,0.7395323,-16.94607,-24.50467,-43.2812
133.7,-1.940134,20.20356,4.133317,0.7146002,0.138324,0.7458096,-15.8539,-24.14927,-43.27659
133.71,-2.437942,21.91185,3.828021,0.7092526,0.1364079,0.7525473,-15.8539,-24.14927,-43.27659
133.72,-2.997976,23.44342,3.889081,0.7040871,0.118884,0.7457407,-15.8539,-24.14927,-43.27659
133.73,-2.562394,24.56264,4.438612,0.6968745,0.1110625,0.7432925,-15.8539,-24.14927,-43.27659
133.74,-2.126812,24.68046,4.560731,0.6775144,0.1021915,0.7422584,-15.8539,-24.14927,-43.27659
133.75,-0.757841400000003,24.68046,4.927086,0.6847625,0.1033302,0.7548258,-15.86066,-23.78675,-43.28242
133.76,1.917875,25.38733,5.232382,0.6920472,0.1001268,0.7688317,-15.86066,-23.78675,-43.28242
133.77,3.660201,26.27093,4.988145,0.6934632,0.1035606,0.7727031,-15.86066,-23.78675,-43.28242
133.78,4.220235,27.62578,5.293441,0.6870202,0.1142363,0.7813953,-15.86066,-23.78675,-43.28242
133.79,3.846879,28.33266,5.537678,0.6766999,0.127658,0.7760895,-15.86066,-23.78675,-43.28242
133.8,2.726812,29.03954,6.02615100000001,0.6659329,0.136725,0.7712557,-14.74043,-24.53231,-44.0817
133.81,1.233389,29.27517,6.02615100000001,0.6657888,0.1503316,0.7775578,-14.74043,-24.53231,-44.0817
133.82,-0.3844857,30.63002,5.84297399999999,0.6706982,0.1417686,0.7896158,-14.74043,-24.53231,-44.0817
133.83,-1.815683,32.10268,6.209329,0.6581244,0.135828,0.7857101,-14.74043,-24.53231,-44.0817
133.84,-2.686846,32.3383,5.96509200000002,0.6484295,0.1328486,0.7856787,-14.74043,-24.53231,-44.0817
133.85,-3.184654,33.33971,6.45356500000001,0.6532224,0.1392081,0.7890826,-14.01097,-24.18072,-44.45968
133.86,-3.24688,33.51643,6.636743,0.6402178,0.1265151,0.7880567,-14.01097,-24.18072,-44.45968
133.87,-4.055817,33.92878,7.24733400000002,0.6344705,0.1163381,0.7913979,-14.01097,-24.18072,-44.45968
133.88,-4.61585,34.22331,7.24733400000002,0.6209541,0.1041953,0.7980925,-14.01097,-24.18072,-44.45968
133.89,-4.118043,35.22472,7.18627500000003,0.6165304,0.1061976,0.8091841,-12.96889,-24.19466,-44.89211
133.9,-2.811298,36.40285,7.43051200000001,0.6039299,0.09706233,0.8265037,-12.96889,-24.19466,-44.89211
133.91,-1.753457,37.10973,7.064157,0.6101303,0.1073527,0.8352276,-12.96889,-24.19466,-44.89211
133.92,-1.629005,38.05223,7.43051200000001,0.6276633,0.1026896,0.8396058,-12.96889,-24.19466,-44.89211
133.93,-2.31349,38.87693,9.07910999999998,0.6242746,0.1030856,0.8328422,-12.96889,-24.19466,-44.89211
133.94,-4.304721,39.05365,11.09406,0.6166495,0.0889213,0.8250713,-12.96889,-24.19466,-44.89211
133.95,-5.362562,39.11255,12.74266,0.6107684,0.09372367,0.8260316,-11.49841,-23.86225,-46.1477
133.96,-5.362562,38.93583,13.23113,0.5979714,0.1114992,0.822659,-11.49841,-23.86225,-46.1477
133.97,-4.304721,38.52349,13.29219,0.5848215,0.1147622,0.8202193,-11.49841,-23.86225,-46.1477
133.98,-3.869139,38.22895,13.47537,0.5818432,0.1201019,0.824566,-11.49841,-23.86225,-46.1477
133.99,-4.989206,38.11114,13.84173,0.5817995,0.1235288,0.8289163,-10.10414,-23.15249,-46.52512
134,-7.22934099999998,38.81802,13.90278,0.5770311,0.1142745,0.8264713,-10.10414,-23.15249,-46.52512
134.01,-8.97166699999999,39.81943,14.3302,0.572929,0.08191893,0.8374898,-10.10414,-23.15249,-46.52512
134.02,-8.78498899999999,39.76052,14.3302,0.5488644,0.05889324,0.8272447,-10.10414,-23.15249,-46.52512
134.03,-6.54485499999997,38.34677,14.75761,0.5310702,0.04170632,0.8150982,-10.10414,-23.15249,-46.52512
134.04,-2.997976,36.75629,14.63549,0.5247253,0.04314817,0.8194278,-9.008371,-22.80328,-46.89962
134.05,1.420067,35.8727,13.90278,0.5338274,0.05726254,0.8204467,-9.008371,-22.80328,-46.89962
134.06,5.52698,35.51926,13.29219,0.5336776,0.07463963,0.8156582,-9.008371,-22.80328,-46.89962
134.07,8.76273000000002,35.10691,12.43736,0.5224959,0.07221165,0.82431,-9.008371,-22.80328,-46.89962
134.08,11.37622,34.04659,12.00995,0.4997215,0.0642907,0.8242342,-9.008371,-22.80328,-46.89962
134.09,14.17639,33.28081,11.09406,0.4783471,0.05516599,0.8502172,-7.908398,-22.46128,-47.7164
134.1,17.59881,31.74924,10.30029,0.4689992,0.0648423,0.8579346,-7.908398,-22.46128,-47.7164
134.11,20.89679,30.98345,9.07910999999998,0.4780502,0.08193902,0.8676457,-7.908398,-22.46128,-47.7164
134.12,23.3236,31.16017,7.064157,0.4875676,0.1000424,0.8812206,-7.908398,-22.46128,-47.7164
134.13,23.88363,31.51361,5.720855,0.498647,0.1107802,0.8817548,-7.908398,-22.46128,-47.7164
134.14,22.95024,31.45471,4.438612,0.4936308,0.1248546,0.8904579,-6.489666,-22.84629,-48.51862
134.15,21.14569,31.21908,3.644844,0.4852703,0.1363646,0.8861182,-6.489666,-22.84629,-48.51862
134.16,18.84333,31.16017,2.301542,0.4870927,0.1480375,0.8909734,-6.489666,-22.84629,-48.51862
134.17,17.97217,32.04377,1.629891,0.4947731,0.1545162,0.9050011,-6.489666,-22.84629,-48.51862
134.18,16.78988,31.98487,-0.07976539,0.4919621,0.1466413,0.8929132,-6.489666,-22.84629,-48.51862
134.19,14.98532,32.39721,-0.4461204,0.4851172,0.1485939,0.9006205,-5.370951,-24.29114,-47.72664
134.2,12.43406,31.98487,-1.056712,0.4671361,0.1512519,0.8889987,-5.370951,-24.29114,-47.72664
134.21,11.00286,31.45471,-2.277895,0.4483109,0.1380031,0.8850613,-5.370951,-24.29114,-47.72664
134.22,11.06509,30.92455,-2.766369,0.4338374,0.1276789,0.8796937,-5.370951,-24.29114,-47.72664
134.23,11.62512,30.5122,-2.949546,0.4217857,0.1169336,0.879157,-5.370951,-24.29114,-47.72664
134.24,13.36745,29.51079,-3.804374,0.4134727,0.1170312,0.8969901,-3.539423,-24.30301,-47.70924
134.25,15.54536,29.33407,-4.781322,0.4202228,0.1238328,0.8941268,-3.539423,-24.30301,-47.70924
134.26,17.03878,28.33266,-5.819327,0.4352898,0.1281786,0.8801811,-3.539423,-24.30301,-47.70924
134.27,17.78549,27.62578,-6.613096,0.4311768,0.1528059,0.8778107,-3.539423,-24.30301,-47.70924
134.28,17.78549,27.50797,-7.52898400000002,0.4222816,0.1640035,0.8927708,-3.539423,-24.30301,-47.70924
134.29,17.59881,27.09562,-9.72711299999999,0.4188311,0.1674169,0.8985599,-2.481903,-25.39627,-47.61868
134.3,16.91433,26.68328,-10.45982,0.4091745,0.1610282,0.8961084,-2.481903,-25.39627,-47.61868
134.31,17.16323,24.97499,-12.65795,0.3936469,0.1575326,0.8975086,-2.481903,-25.39627,-47.61868
134.32,16.78988,24.79827,-13.69596,0.3990004,0.1589603,0.8902872,-2.481903,-25.39627,-47.61868
134.33,15.79426,24.1503,-14.61185,0.3906727,0.1661414,0.8888335,-2.481903,-25.39627,-47.61868
134.34,15.66981,23.73795,-15.71091,0.3964854,0.1667234,0.8946404,-1.376236,-25.76592,-47.60241
134.35,16.66542,23.14889,-16.9321,0.39468,0.1564014,0.8786894,-1.376236,-25.76592,-47.60241
134.36,16.8521,22.14748,-17.60375,0.3967024,0.1472485,0.8815703,-1.376236,-25.76592,-47.60241
134.37,16.8521,19.79122,-17.60375,0.3781751,0.1515078,0.8868396,-1.376236,-25.76592,-47.60241
134.38,17.41214,17.43496,-16.80998,0.3635155,0.1614948,0.8800676,-1.376236,-25.76592,-47.60241
134.39,17.10101,15.37323,-16.13833,0.3526145,0.1846042,0.8762287,0.7625656,-26.07569,-47.19814
134.4,15.85649,15.72667,-15.89409,0.3462691,0.1818266,0.8955084,0.7625656,-26.07569,-47.19814
134.41,13.92748,15.78557,-15.71091,0.3515131,0.1864295,0.9182116,0.7625656,-26.07569,-47.19814
134.42,12.24738,15.49104,-15.16138,0.3460974,0.1941172,0.9167665,0.7625656,-26.07569,-47.19814
134.43,10.94064,15.49104,-15.64985,0.3650513,0.1933412,0.9216393,0.7625656,-26.07569,-47.19814
134.44,9.571667,15.43214,-15.46667,0.3634623,0.2045475,0.9313102,1.508682,-26.80548,-47.17951
134.45,7.70488800000001,15.78557,-15.77197,0.3693427,0.1969337,0.9404774,1.508682,-26.80548,-47.17951
134.46,7.08262899999997,14.96088,-15.95515,0.3693121,0.1993795,0.9433779,1.508682,-26.80548,-47.17951
134.47,6.27369100000003,14.78416,-15.52773,0.3693228,0.1969994,0.9477157,1.508682,-26.80548,-47.17951
134.48,5.153624,14.90198,-13.9402,0.3557579,0.1925204,0.9457409,2.621103,-27.53765,-47.1574
134.49,5.278076,14.254,-13.14643,0.3508413,0.1959487,0.9544215,2.621103,-27.53765,-47.1574
134.5,4.406913,14.13619,-11.9863,0.3366859,0.1993137,0.9640432,2.621103,-27.53765,-47.1574
134.51,3.037942,14.72526,-11.25359,0.3347594,0.1964257,0.9674098,2.621103,-27.53765,-47.1574
134.52,1.606745,14.90198,-9.54393600000003,0.3371892,0.1936332,0.9775437,2.621103,-27.53765,-47.1574
134.53,-0.695615499999999,16.9048,-7.34580600000002,0.3576255,0.1913818,0.9785566,2.621103,-27.53765,-47.1574
134.54,-3.682461,19.6734,-5.75826800000001,0.3654882,0.1831897,0.975664,3.72677,-27.90729,-47.14113
134.55,-5.23811,20.85153,-4.537085,0.3578345,0.1742783,0.9601836,3.72677,-27.90729,-47.14113
134.56,-5.300336,21.14607,-3.560138,0.3539941,0.1736194,0.9442481,3.72677,-27.90729,-47.14113
134.57,-5.051432,20.67481,-2.522132,0.3472578,0.1663032,0.9437324,3.72677,-27.90729,-47.14113
134.58,-4.989206,20.85153,-1.850481,0.3292099,0.1729332,0.9432176,4.401936,-27.91783,-47.51385
134.59,-4.802528,19.90903,-1.300949,0.3063321,0.1766087,0.9412363,4.401936,-27.91783,-47.51385
134.6,-5.051432,18.90762,-0.4461204,0.3068224,0.1798816,0.9282159,4.401936,-27.91783,-47.51385
134.61,-5.673692,17.37605,0.3476488,0.3009056,0.1937118,0.9108586,4.401936,-27.91783,-47.51385
134.62,-6.73153299999997,15.90339,1.141418,0.3004724,0.1949406,0.8867326,4.401936,-27.91783,-47.51385
134.63,-6.29595100000003,14.54854,1.568832,0.2869962,0.1836036,0.8755748,5.497247,-27.91877,-47.12431
134.64,-4.491398,12.31009,1.874128,0.2647767,0.1721764,0.8619816,5.497247,-27.91877,-47.12431
134.65,-2.93575,9.24695099999999,1.568832,0.2517655,0.1641955,0.8469719,5.497247,-27.91877,-47.12431
134.66,-1.006745,6.12490600000001,1.507773,0.2503312,0.1617601,0.8464804,5.497247,-27.91877,-47.12431
134.67,1.046711,3.297393,1.0193,0.2537536,0.1607838,0.8426268,5.497247,-27.91877,-47.12431
134.68,2.60236,1.117852,0.591885399999997,0.2625626,0.1531533,0.8474585,6.226709,-27.56718,-47.50228
134.69,5.091398,-1.179502,-0.2018837,0.2692871,0.1614461,0.8489414,6.226709,-27.56718,-47.50228
134.7,7.51821000000001,-2.828884,-0.629297899999999,0.2690706,0.1827953,0.8552598,6.226709,-27.56718,-47.50228
134.71,10.25615,-3.653575,-1.789422,0.2742346,0.1993865,0.8659248,6.226709,-27.56718,-47.50228
134.72,11.25177,-4.772799,-3.315901,0.2561572,0.2051758,0.879402,6.226709,-27.56718,-47.50228
134.73,10.75396,-7.24687199999997,-4.292848,0.2469412,0.2003478,0.8885363,6.226253,-27.91734,-46.73824
134.74,10.3806,-10.36892,-3.987552,0.2410649,0.1985682,0.9107147,6.226253,-27.91734,-46.73824
134.75,8.32714699999999,-12.84299,-2.583191,0.2717544,0.2381877,0.9306635,6.226253,-27.91734,-46.73824
134.76,3.411298,-12.9608,-2.705309,0.296677,0.2266928,0.9224997,6.226253,-27.91734,-46.73824
134.77,0.611129500000001,-12.13611,-2.888487,0.3280115,0.2004036,0.9316924,6.226253,-27.91734,-46.73824
134.78,0.7978074,-11.90049,-2.766369,0.3354245,0.1869284,0.9336127,6.229857,-27.92352,-47.11735
134.79,2.29123,-11.95939,-2.338954,0.3334602,0.186979,0.940846,6.229857,-27.92352,-47.11735
134.8,4.220235,-12.54846,-2.583191,0.3238182,0.178197,0.9412848,6.229857,-27.92352,-47.11735
134.81,5.589206,-13.01971,-2.827428,0.3156924,0.1664222,0.9306225,6.229857,-27.92352,-47.11735
134.82,7.58043600000001,-13.66768,-2.583191,0.3128319,0.1601173,0.9315667,6.229857,-27.92352,-47.11735
134.83,9.384989,-14.19784,-1.484126,0.3002201,0.1585231,0.9267052,5.503999,-28.28129,-47.11847
134.84,10.44283,-15.49378,-0.07976539,0.2981549,0.1748514,0.9146713,5.503999,-28.28129,-47.11847
134.85,10.56728,-16.90754,1.080359,0.3004164,0.1918425,0.918574,5.503999,-28.28129,-47.11847
134.86,10.3806,-17.61442,1.202477,0.3157997,0.2103526,0.9186535,5.503999,-28.28129,-47.11847
134.87,11.43845,-18.08567,0.2865896,0.3195916,0.2210203,0.9177211,5.503999,-28.28129,-47.11847
134.88,12.93187,-18.91036,-0.873534600000002,0.3253374,0.2349548,0.9018418,4.767784,-28.27036,-46.74633
134.89,13.4919,-20.1474,-2.155777,0.32724,0.2402667,0.8989628,4.767784,-28.27036,-46.74633
134.9,13.61635,-21.20772,-3.743315,0.3302077,0.2396522,0.8820799,4.767784,-28.27036,-46.74633
134.91,14.42529,-21.50225,-3.621197,0.3238785,0.2401043,0.8839948,4.767784,-28.27036,-46.74633
134.92,15.23423,-20.91319,-3.43802,0.3048429,0.2439635,0.898913,4.767784,-28.27036,-46.74633
134.93,15.10978,-21.26662,-3.37696,0.294524,0.2526906,0.9095212,4.102375,-28.6275,-46.68369
134.94,14.17639,-21.56116,-3.743315,0.2920173,0.2590195,0.9158015,4.102375,-28.6275,-46.68369
134.95,12.68296,-22.50366,-4.353907,0.3001586,0.2735576,0.9110283,4.102375,-28.6275,-46.68369
134.96,10.75396,-23.38726,-5.147676,0.3165578,0.2863035,0.9149584,4.102375,-28.6275,-46.68369
134.97,9.44721499999999,-23.7407,-6.67415600000002,0.3398456,0.2913247,0.9150292,4.102375,-28.6275,-46.68369
134.98,8.38937400000001,-23.32835,-7.89533900000002,0.3633011,0.2793783,0.9116862,3.751596,-29.64608,-46.29153
134.99,8.26492200000001,-23.50507,-8.20063400000002,0.3624317,0.2682451,0.9121425,3.751596,-29.64608,-46.29153
135,8.14047000000001,-23.62288,-8.32275199999999,0.3697066,0.2655431,0.9280795,3.751596,-29.64608,-46.29153
135.01,7.26930699999998,-23.62288,-8.38381099999998,0.3740814,0.2599499,0.9478633,3.751596,-29.64608,-46.29153
135.02,5.589206,-23.09273,-7.590043,0.3872104,0.2609764,0.9430739,3.751596,-29.64608,-46.29153
135.03,4.095783,-22.79819,-7.10157000000002,0.3959585,0.2615198,0.9421325,3.011177,-29.62794,-45.47711
135.04,3.349072,-21.91459,-6.73521500000001,0.413879,0.2712553,0.9330313,3.011177,-29.62794,-45.47711
135.05,2.229004,-20.55975,-6.24674099999999,0.4220972,0.2775668,0.9282405,3.011177,-29.62794,-45.47711
135.06,0.2377739,-19.55833,-5.514031,0.4147779,0.2832293,0.9185829,3.011177,-29.62794,-45.47711
135.07,-1.380101,-19.38161,-5.75826800000001,0.4085153,0.276427,0.9209648,2.65523,-29.99427,-45.85386
135.08,-2.811298,-18.43911,-5.57509,0.4159818,0.2590236,0.9166037,2.65523,-29.99427,-45.85386
135.09,-3.620235,-18.26239,-5.269794,0.4112224,0.2511466,0.9059585,2.65523,-29.99427,-45.85386
135.1,-4.553625,-18.14458,-5.147676,0.410788,0.2453446,0.9069099,2.65523,-29.99427,-45.85386
135.11,-4.118043,-17.61442,-5.514031,0.4065371,0.2364598,0.8914384,2.65523,-29.99427,-45.85386
135.12,-2.686846,-17.31989,-6.12462300000002,0.4094622,0.2383306,0.881799,2.65523,-29.99427,-45.85386
135.13,-0.0733558899999998,-16.96645,-6.97945100000002,0.4254518,0.2409718,0.892462,1.186403,-29.97859,-45.48868
135.14,1.606745,-16.20066,-7.22368799999999,0.4360979,0.2426209,0.9050392,1.186403,-29.97859,-45.48868
135.15,1.855649,-15.49378,-7.590043,0.4429095,0.2431229,0.9011975,1.186403,-29.97859,-45.48868
135.16,1.108937,-14.728,-7.162629,0.4439638,0.2339493,0.9026281,1.186403,-29.97859,-45.48868
135.17,0.673355500000001,-14.43347,-6.55203700000002,0.4420185,0.2358128,0.896354,0.4988575,-29.30343,-45.12666
135.18,1.793423,-13.31424,-6.30779999999998,0.4542031,0.2311123,0.9012008,0.4988575,-29.30343,-45.12666
135.19,3.535749,-12.31283,-5.88038599999998,0.4599573,0.2389224,0.9036451,0.4988575,-29.30343,-45.12666
135.2,4.344687,-10.66345,-4.537085,0.4676669,0.2429596,0.9152549,0.4988575,-29.30343,-45.12666
135.21,3.846879,-9.07297500000003,-3.254842,0.471511,0.2450132,0.9249202,0.4988575,-29.30343,-45.12666
135.22,2.851264,-7.48249899999999,-2.094718,0.4699874,0.2522518,0.9239667,0.8190403,-30.32534,-44.66493
135.23,1.482293,-6.127649,-1.23989,0.4665684,0.2560308,0.9167278,0.8190403,-30.32534,-44.66493
135.24,0.611129500000001,-5.361864,-0.1408246,0.4554141,0.2563267,0.905601,0.8190403,-30.32534,-44.66493
135.25,-0.2600338,-5.067332,0.591885399999997,0.4486096,0.2600222,0.8920801,0.8190403,-30.32534,-44.66493
135.26,-0.944519300000001,-5.185144,1.75201,0.4404547,0.2492809,0.8886581,0.8190403,-30.32534,-44.66493
135.27,-0.944519300000001,-5.008425,2.790015,0.4322311,0.2453319,0.8871807,0.521595,-30.33675,-45.48923
135.28,-0.5089375,-4.596079,3.095311,0.4264471,0.2404341,0.8857077,0.521595,-30.33675,-45.48923
135.29,-0.0733558899999998,-3.948108,3.522725,0.425412,0.2490756,0.8789679,0.521595,-30.33675,-45.48923
135.3,0.673355500000001,-3.06451,3.766962,0.4311518,0.2578711,0.8833445,0.521595,-30.33675,-45.48923
135.31,0.984485200000001,-2.652165,3.644844,0.4319731,0.272915,0.8872394,0.521595,-30.33675,-45.48923
135.32,0.611129500000001,-2.298726,3.400607,0.4328179,0.286943,0.8858241,-0.5840721,-29.96711,-45.5055
135.33,-0.757841400000003,-2.357632,3.034252,0.4362316,0.2855266,0.8867949,-0.5840721,-29.96711,-45.5055
135.34,-2.251264,-2.652165,2.851075,0.4324229,0.2767901,0.8872489,-0.5840721,-29.96711,-45.5055
135.35,-3.24688,-2.534352,2.423661,0.4368959,0.2675905,0.8828977,-0.5840721,-29.96711,-45.5055
135.36,-2.93575,-1.88638,2.118365,0.4476323,0.2633144,0.8824336,-0.5840721,-29.96711,-45.5055
135.37,-2.375716,-1.474034,1.935187,0.4462122,0.2622387,0.8718116,0.1449337,-29.96567,-45.11944
135.38,-1.815683,-1.356221,1.813069,0.4452192,0.2641756,0.8727783,0.1449337,-29.96567,-45.11944
135.39,-2.189038,-0.8849692,1.69095,0.4448024,0.2569087,0.872279,0.1449337,-29.96567,-45.11944
135.4,-2.126812,-0.9438758,1.446714,0.441458,0.251062,0.8708102,0.1449337,-29.96567,-45.11944
135.41,-2.437942,-0.826062700000002,1.75201,0.4415107,0.2466674,0.8664579,0.1449337,-29.96567,-45.11944
135.42,-2.064586,-0.8849692,2.057305,0.4503849,0.2364771,0.8558428,-0.580925,-30.32345,-45.12057
135.43,-1.317875,-0.4726236,2.240483,0.4572695,0.2264206,0.8616296,-0.580925,-30.32345,-45.12057
135.44,0.2999998,-0.1780911,2.728956,0.4621619,0.224479,0.8568126,-0.580925,-30.32345,-45.12057
135.45,2.477908,-0.2959041,3.095311,0.4625197,0.2370997,0.860701,-0.580925,-30.32345,-45.12057
135.46,4.033557,0.3520675,3.278489,0.4647322,0.25519,0.8790824,-0.580925,-30.32345,-45.12057
135.47,3.597975,0.705506599999998,3.828021,0.4675562,0.2620839,0.8897206,-0.9571304,-29.60221,-45.51482
135.48,2.042326,0.823319700000002,4.194376,0.459663,0.2727219,0.8955137,-0.9571304,-29.60221,-45.51482
135.49,0.05109601,1.176759,4.377553,0.4606091,0.2746914,0.8984157,-0.9571304,-29.60221,-45.51482
135.5,-2.251264,1.589104,4.316494,0.467926,0.27232,0.8974643,-0.9571304,-29.60221,-45.51482
135.51,-3.495783,2.590515,3.828021,0.4689666,0.2645981,0.8988981,-0.9571304,-29.60221,-45.51482
135.52,-3.371331,3.297393,3.828021,0.4670057,0.2674513,0.8950388,0.1449337,-29.96567,-45.11944
135.53,-3.371331,4.122085,3.705903,0.4631512,0.2663699,0.8858581,0.1449337,-29.96567,-45.11944
135.54,-3.806913,4.828963,3.400607,0.4566987,0.2761391,0.901304,0.1449337,-29.96567,-45.11944
135.55,-5.113658,5.418028,3.522725,0.4425971,0.276513,0.9012685,0.1449337,-29.96567,-45.11944
135.56,-6.48262899999997,5.94818599999998,3.400607,0.4323847,0.2755093,0.9060654,0.1449337,-29.96567,-45.11944
135.57,-7.78937400000001,6.12490600000001,3.278489,0.4246533,0.272013,0.9007299,-0.5840721,-29.96711,-45.5055
135.58,-8.78498899999999,6.00709300000002,2.912134,0.4217577,0.2686379,0.9045756,-0.5840721,-29.96711,-45.5055
135.59,-8.84721600000002,5.712561,2.912134,0.4180084,0.260175,0.8818679,-0.5840721,-29.96711,-45.5055
135.6,-8.90944099999999,4.593337,2.545779,0.4111626,0.2663515,0.8751079,-0.5840721,-29.96711,-45.5055
135.61,-8.78498899999999,3.709739,2.301542,0.4038827,0.2676631,0.8659235,-0.5840721,-29.96711,-45.5055
135.62,-8.53608499999999,3.415206,2.118365,0.4008652,0.2759457,0.8746194,-0.5840721,-29.96711,-45.5055
135.63,-9.158345,3.17958,1.507773,0.4058191,0.2677045,0.8688238,-0.5840721,-29.96711,-45.5055
135.64,-9.09611899999999,3.061767,0.5308262,0.4029745,0.2580648,0.8755515,-0.5840721,-29.96711,-45.5055
135.65,-9.282797,2.826141,-0.2629429,0.4117574,0.2547413,0.8750845,-0.5840721,-29.96711,-45.5055
135.66,-8.90944099999999,2.413795,-0.873534600000002,0.4166512,0.2504503,0.8779832,-0.5840721,-29.96711,-45.5055
135.67,-8.72276299999999,1.412385,-1.911541,0.4196243,0.2451281,0.8755666,-0.5964527,-29.30249,-45.5162
135.68,-8.66053800000002,-0.00137157,-2.400014,0.4128609,0.2430605,0.8668589,-0.5964527,-29.30249,-45.5162
135.69,-8.34940699999999,-1.061689,-2.461073,0.4118732,0.2449798,0.8658953,-0.5964527,-29.30249,-45.5162
135.7,-8.16272899999999,-2.298726,-2.338954,0.4115101,0.2323767,0.8639371,-0.5964527,-29.30249,-45.5162
135.71,-8.10050400000002,-2.769978,-2.033659,0.4177648,0.2392052,0.8644505,-0.5964527,-29.30249,-45.5162
135.72,-8.72276299999999,-2.887791,-2.400014,0.4162764,0.2411689,0.8687938,-0.6021461,-28.59084,-46.34925
135.73,-8.59831099999999,-3.06451,-2.949546,0.4255329,0.2383594,0.8712243,-0.6021461,-28.59084,-46.34925
135.74,-8.66053800000002,-3.535763,-3.37696,0.4328234,0.2370128,0.8765483,-0.6021461,-28.59084,-46.34925
135.75,-8.53608499999999,-4.301547,-3.621197,0.436235,0.2327893,0.8881292,-0.6021461,-28.59084,-46.34925
135.76,-8.78498899999999,-5.185144,-3.43802,0.4327716,0.2371837,0.895368,-0.9684525,-28.58846,-46.35273
135.77,-10.34064,-5.244051,-3.499079,0.4376737,0.2338036,0.8919955,-0.9684525,-28.58846,-46.35273
135.78,-10.9629,-5.008425,-3.499079,0.4470652,0.2183553,0.8881261,-0.9684525,-28.58846,-46.35273
135.79,-11.52293,-4.890612,-3.193783,0.4543943,0.2168816,0.879456,-0.9684525,-28.58846,-46.35273
135.8,-11.52293,-5.302958,-3.071665,0.4465998,0.2210973,0.870759,-0.9684525,-28.58846,-46.35273
135.81,-11.4607,-6.009836,-3.010605,0.4373747,0.2195822,0.8716971,-0.231636,-28.60042,-46.78806
135.82,-11.14958,-7.07015300000002,-2.827428,0.4311413,0.2126836,0.8634629,-0.231636,-28.60042,-46.78806
135.83,-10.77622,-7.54140599999997,-2.64425,0.431726,0.1982927,0.8769448,-0.231636,-28.60042,-46.78806
135.84,-10.21619,-7.48249899999999,-2.277895,0.4182913,0.1807217,0.8720469,-0.231636,-28.60042,-46.78806
135.85,-9.531701,-7.83593799999998,-1.9726,0.41934,0.1706284,0.8787836,-0.231636,-28.60042,-46.78806
135.86,-8.28718200000002,-8.48390999999999,-1.300949,0.4271331,0.1711074,0.8715665,-1.337904,-28.22975,-46.74115
135.87,-7.66492200000001,-8.89625499999999,-0.5682387,0.4449477,0.1901028,0.869723,-1.337904,-28.22975,-46.74115
135.88,-7.04266299999998,-9.24969500000001,0.1644713,0.457908,0.2066934,0.8736526,-1.337904,-28.22975,-46.74115
135.89,-7.10488800000001,-9.54422700000001,0.5308262,0.4636979,0.2111029,0.8746421,-1.337904,-28.22975,-46.74115
135.9,-8.10050400000002,-9.60313300000002,1.385654,0.4637243,0.205388,0.8847634,-1.337904,-28.22975,-46.74115
135.91,-8.59831099999999,-9.30860100000002,2.118365,0.459971,0.1899031,0.8880982,-0.9819565,-27.86342,-46.3644
135.92,-9.469475,-9.24969500000001,3.278489,0.4444929,0.1824923,0.8846645,-0.9819565,-27.86342,-46.3644
135.93,-9.90505599999998,-9.19078800000002,4.438612,0.4455282,0.177133,0.8798301,-0.9819565,-27.86342,-46.3644
135.94,-9.469475,-9.42641400000002,5.110263,0.446494,0.1804447,0.8706714,-0.9819565,-27.86342,-46.3644
135.95,-8.78498899999999,-9.60313300000002,5.659796,0.4507933,0.188701,0.8702177,-0.9819565,-27.86342,-46.3644
135.96,-7.97605200000001,-9.60313300000002,5.232382,0.4595277,0.1906962,0.8692794,-0.9876518,-27.15177,-47.19746
135.97,-7.72714800000001,-9.24969500000001,4.866027,0.4590794,0.1854088,0.8736098,-0.9876518,-27.15177,-47.19746
135.98,-7.04266299999998,-9.42641400000002,4.560731,0.4562207,0.1753465,0.8870922,-0.9876518,-27.15177,-47.19746
135.99,-7.04266299999998,-9.83875900000001,3.95014,0.4499636,0.171809,0.8759698,-0.9876518,-27.15177,-47.19746
136,-7.29156600000001,-9.60313300000002,4.133317,0.459269,0.1655552,0.87212,-0.9876518,-27.15177,-47.19746
136.01,-6.98043699999998,-9.07297500000003,4.133317,0.4684323,0.1747778,0.8673379,-1.720261,-27.14702,-47.20442
136.02,-5.922596,-8.778442,3.095311,0.4859603,0.1734145,0.8620721,-1.720261,-27.14702,-47.20442
136.03,-4.678076,-8.30719000000001,2.606838,0.4869009,0.1721193,0.8784785,-1.720261,-27.14702,-47.20442
136.04,-3.869139,-8.24828299999998,1.996246,0.4819858,0.1764804,0.8833007,-1.720261,-27.14702,-47.20442
136.05,-3.184654,-7.60031199999999,1.629891,0.4776271,0.1749858,0.8823211,-1.720261,-27.14702,-47.20442
136.06,-3.309105,-7.54140599999997,1.507773,0.4727936,0.1682913,0.8953231,-2.089113,-26.78934,-47.65602
136.07,-3.682461,-7.71812499999998,2.057305,0.482468,0.1741523,0.8929479,-2.089113,-26.78934,-47.65602
136.08,-4.740303,-6.89343400000001,2.790015,0.4920759,0.1849224,0.8983039,-2.089113,-26.78934,-47.65602
136.09,-6.04704700000003,-5.656397,3.034252,0.5003753,0.1815864,0.8968704,-2.089113,-26.78934,-47.65602
136.1,-6.66930699999997,-3.712482,3.034252,0.5150184,0.1768129,0.8915899,-2.089113,-26.78934,-47.65602
136.11,-6.42040300000003,-2.357632,2.606838,0.5174851,0.1729605,0.891588,-2.840492,-26.40146,-46.40514
136.12,-5.487014,-1.650754,1.935187,0.5098268,0.1612508,0.8876827,-2.840492,-26.40146,-46.40514
136.13,-4.055817,-1.768567,1.202477,0.4967944,0.150995,0.8885921,-2.840492,-26.40146,-46.40514
136.14,-2.873524,-2.475445,1.935187,0.4860231,0.1544479,0.9049784,-2.840492,-26.40146,-46.40514
136.15,-3.184654,-2.652165,2.728956,0.5048266,0.1658924,0.9233884,-2.840492,-26.40146,-46.40514
136.16,-4.989206,-0.2369976,3.828021,0.5227404,0.1723675,0.9282739,-2.822325,-26.78356,-47.5998
136.17,-6.35817700000003,2.531609,4.377553,0.524648,0.1767247,0.9268406,-2.822325,-26.78356,-47.5998
136.18,-8.41163299999999,5.182402,4.927086,0.5308913,0.1831219,0.9331436,-2.822325,-26.78356,-47.5998
136.19,-10.83845,7.95100700000001,5.537678,0.5334322,0.175742,0.9176927,-2.822325,-26.78356,-47.5998
136.2,-12.82968,10.13055,5.90403299999998,0.5248445,0.1601315,0.911364,-2.822325,-26.78356,-47.5998
136.21,-13.20303,11.4854,6.33144699999998,0.5118086,0.151763,0.9069693,-3.504242,-26.4105,-47.23291
136.22,-11.83406,12.19228,7.00309800000001,0.498372,0.1346672,0.9011074,-3.504242,-26.4105,-47.23291
136.23,-10.9629,12.95806,7.12521599999998,0.4921256,0.1287496,0.8943229,-3.504242,-26.4105,-47.23291
136.24,-9.40724800000003,13.42931,7.79686700000002,0.4877041,0.1312139,0.9030026,-3.504242,-26.4105,-47.23291
136.25,-7.29156600000001,14.254,8.407459,0.4900535,0.1338452,0.9242464,-3.504242,-26.4105,-47.23291
136.26,-6.91821099999998,16.0212,8.834873,0.488427,0.1465821,0.9426066,-2.837252,-25.76363,-48.05862
136.27,-7.66492200000001,18.37746,9.01805099999999,0.5000536,0.1491497,0.9489151,-2.837252,-25.76363,-48.05862
136.28,-9.03389299999999,20.85153,9.68970200000002,0.4956861,0.14956,0.9445618,-2.837252,-25.76363,-48.05862
136.29,-10.15396,22.73654,10.17817,0.5019221,0.1587949,0.9436327,-2.837252,-25.76363,-48.05862
136.3,-12.20742,24.91608,10.78877,0.5033663,0.1607288,0.9421929,-2.837252,-25.76363,-48.05862
136.31,-14.75868,26.15312,11.70465,0.486351,0.1596633,0.9460071,-2.481302,-25.3973,-47.68187
136.32,-17.55885,26.32984,12.92584,0.472299,0.1537769,0.9493361,-2.481302,-25.3973,-47.68187
136.33,-20.17234,27.86141,14.0249,0.4736609,0.1639549,0.949844,-2.481302,-25.3973,-47.68187
136.34,-22.7236,30.80674,13.90278,0.4690286,0.1411204,0.9439924,-2.481302,-25.3973,-47.68187
136.35,-23.09696,32.75065,13.65855,0.4663668,0.1163392,0.9352464,-2.107187,-25.41307,-48.49978
136.36,-22.66138,34.28222,14.51338,0.4553137,0.09988645,0.9448335,-2.107187,-25.41307,-48.49978
136.37,-22.97251,36.04942,15.12397,0.4558794,0.09165495,0.9438521,-2.107187,-25.41307,-48.49978
136.38,-22.78583,39.11255,16.10091,0.4481018,0.08690407,0.9602286,-2.107187,-25.41307,-48.49978
136.39,-21.60354,39.93724,17.07786,0.4274976,0.1004959,0.9824018,-2.107187,-25.41307,-48.49978
136.4,-22.97251,42.58804,17.68845,0.4490307,0.131808,1.001344,-0.3058205,-23.61852,-48.89065
136.41,-27.14165,46.29915,17.19998,0.4427677,0.1287588,0.9907053,-0.3058205,-23.61852,-48.89065
136.42,-30.31517,47.53619,17.0168,0.4331931,0.115534,0.9814838,-0.3058205,-23.61852,-48.89065
136.43,-33.61314,48.00744,17.68845,0.4314278,0.1013275,0.9640769,-0.3058205,-23.61852,-48.89065
136.44,-36.41331,48.83213,19.03175,0.4393422,0.08499213,0.9703354,-0.3058205,-23.61852,-48.89065
136.45,-38.90235,50.24588,20.37505,0.4194904,0.07988789,0.9582095,0.3586254,-22.61634,-50.16447
136.46,-39.89797,51.36511,21.16882,0.3942758,0.07338656,0.9566828,0.3586254,-22.61634,-50.16447
136.47,-38.96458,51.54183,21.16882,0.3908744,0.07101053,0.9643897,0.3586254,-22.61634,-50.16447
136.48,-38.7779,53.54465,20.49717,0.3786776,0.07246819,0.97546,0.3586254,-22.61634,-50.16447
136.49,-39.46238,54.78168,19.82552,0.3587556,0.07087842,0.9773354,0.3586254,-22.61634,-50.16447
136.5,-40.2091,55.19403,19.21493,0.352473,0.06648701,0.9787574,2.534109,-20.83756,-51.37326
136.51,-41.76474,55.42966,19.03175,0.3346068,0.05891702,0.9598756,2.534109,-20.83756,-51.37326
136.52,-43.38262,54.78168,19.45917,0.3188777,0.0300919,0.9433665,2.534109,-20.83756,-51.37326
136.53,-43.8182,54.07481,19.52023,0.3097501,0.01746872,0.9466936,2.534109,-20.83756,-51.37326
136.54,-42.63591,53.19121,19.21493,0.3084759,-0.0009708302,0.9423077,2.534109,-20.83756,-51.37326
136.55,-40.83136,52.66105,18.78752,0.3051453,-0.009677173,0.9456583,5.01379,-19.40989,-51.75191
136.56,-39.15126,52.83777,17.99375,0.2959029,-0.008790198,0.9446712,5.01379,-19.40989,-51.75191
136.57,-37.90673,51.65964,17.13892,0.2487595,-0.008718147,0.9397243,5.01379,-19.40989,-51.75191
136.58,-37.40893,50.48151,16.58939,0.2381213,-0.01273866,0.9324501,5.01379,-19.40989,-51.75191
136.59,-37.0978,48.41978,16.34515,0.2060837,-0.01782822,0.9323565,5.01379,-19.40989,-51.75191
136.6,-38.34232,48.00744,16.34515,0.2025792,-0.007670679,0.934782,6.823638,-18.03931,-52.19917
136.61,-39.96019,47.77181,15.6735,0.2065781,-0.02160372,0.9424831,6.823638,-18.03931,-52.19917
136.62,-40.89358,47.30056,15.73456,0.2202479,-0.02778837,0.9425051,6.823638,-18.03931,-52.19917
136.63,-41.95142,45.71008,15.55138,0.2275235,-0.02767887,0.9483147,6.823638,-18.03931,-52.19917
136.64,-43.88043,46.12243,13.78067,0.2364789,-0.01730192,1.017365,6.823638,-18.03931,-52.19917
136.65,-43.38262,42.64695,14.69655,0.1834608,-0.08647883,0.9060928,8.550452,-15.51933,-52.60228
136.66,-42.26255,40.76194,13.53643,0.1598801,-0.1155901,0.9180332,8.550452,-15.51933,-52.60228
136.67,-38.96458,39.46599,13.10902,0.1372374,-0.1333251,0.9029777,8.550452,-15.51933,-52.60228
136.68,-34.91989,37.58099,12.25419,0.1456224,-0.1477298,0.9082763,8.550452,-15.51933,-52.60228
136.69,-31.12411,36.40285,11.64359,0.1325085,-0.1516203,0.9174026,8.550452,-15.51933,-52.60228
136.7,-26.83052,34.04659,11.64359,0.1232304,-0.1449877,0.9096722,11.09291,-14.1535,-53.04257
136.71,-24.52816,31.69033,12.13207,0.1178023,-0.1391349,0.9193217,11.09291,-14.1535,-53.04257
136.72,-23.59477,28.56829,11.82677,0.1349041,-0.1477344,0.9169346,11.09291,-14.1535,-53.04257
136.73,-22.41247,25.38733,12.13207,0.1529143,-0.1490809,0.9131177,11.09291,-14.1535,-53.04257
136.74,-20.54569,22.14748,11.70465,0.1583545,-0.1516909,0.8875511,11.09291,-14.1535,-53.04257
136.75,-17.86998,18.84871,10.23923,0.1380834,-0.1607711,0.8643169,12.10062,-12.35381,-53.44099
136.76,-14.26087,15.0787,7.735807,0.1228276,-0.1900193,0.8540812,12.10062,-12.35381,-53.44099
136.77,-9.09611899999999,11.36759,4.804968,0.1044947,-0.2075056,0.8626822,12.10062,-12.35381,-53.44099
136.78,-3.620235,8.12772800000002,3.400607,0.1043882,-0.2024649,0.88489,12.10062,-12.35381,-53.44099
136.79,-0.2600338,5.182402,2.48472,0.1037715,-0.1935961,0.9027618,12.10062,-12.35381,-53.44099
136.8,2.477908,2.472702,2.240483,0.1055612,-0.1822844,0.9211276,13.54986,-11.69251,-53.05865
136.81,3.784653,0.705506599999998,2.179424,0.10452,-0.1740917,0.9182472,13.54986,-11.69251,-53.05865
136.82,5.402528,-2.416539,2.179424,0.08982793,-0.1611837,0.9134116,13.54986,-11.69251,-53.05865
136.83,6.58482100000003,-5.420771,1.874128,0.1138487,-0.1808908,0.9076406,13.54986,-11.69251,-53.05865
136.84,9.44721499999999,-6.77561999999999,0.591885399999997,0.1180759,-0.2115223,0.8882837,13.54986,-11.69251,-53.05865
136.85,15.42091,-9.485321,-0.07976539,0.08715821,-0.228816,0.8756205,13.55767,-11.7059,-53.88005
136.86,20.52343,-13.8444,0.4087079,0.08167685,-0.2157527,0.8799774,13.55767,-11.7059,-53.88005
136.87,23.88363,-16.73082,2.362601,0.1125488,-0.1978392,0.9076008,13.55767,-11.7059,-53.88005
136.88,24.69257,-18.20349,3.889081,0.1093899,-0.1736137,0.9134353,13.55767,-11.7059,-53.88005
136.89,25.50151,-20.44193,5.659796,0.1118429,-0.1284467,0.9289803,13.55767,-11.7059,-53.88005
136.9,25.68819,-21.56116,5.659796,0.1171207,-0.1291143,0.9574628,13.55548,-11.99461,-53.05379
136.91,28.61281,-23.38726,3.034252,0.1095834,-0.1632656,0.9868054,13.55548,-11.99461,-53.05379
136.92,35.14653,-24.32976,0.958240400000002,0.1163783,-0.2060548,0.9587432,13.55548,-11.99461,-53.05379
136.93,43.04923,-26.21477,1.996246,0.1116273,-0.2097387,0.9302526,13.55548,-11.99461,-53.05379
136.94,48.71179,-29.39572,4.072258,0.1125669,-0.1974297,0.8993984,12.46587,-12.70531,-52.61028
136.95,52.63203,-31.33964,5.598737,0.134531,-0.2013056,0.8801448,12.46587,-12.70531,-52.61028
136.96,56.30336,-32.45886,5.171323,0.1519355,-0.1966341,0.8999842,12.46587,-12.70531,-52.61028
136.97,66.0106099999998,-31.45745,7.55262999999998,0.1771195,-0.1876869,0.9044113,12.46587,-12.70531,-52.61028
136.98,75.9667600000001,-34.87403,11.58254,0.1522042,-0.12818,0.9237769,12.46587,-12.70531,-52.61028
136.99,77.8335400000002,-39.88108,15.12397,0.1467441,-0.01911435,0.9481248,11.09861,-14.86515,-52.20952
137,74.0999800000001,-42.06062,15.85668,0.1813271,0.06621127,0.9884489,11.09861,-14.86515,-52.20952
137.01,65.20167,-39.52764,13.53643,0.2578152,0.1407463,1.030306,11.09861,-14.86515,-52.20952
137.02,55.6811,-33.6959,10.23923,0.2979253,0.1591939,1.055541,11.09861,-14.86515,-52.20952
137.03,46.90724,-29.51353,8.04110399999999,0.3239182,0.17666,1.091354,11.09861,-14.86515,-52.20952
137.04,38.25783,-25.62571,5.293441,0.3335496,0.1784418,1.119371,10.03802,-17.32186,-51.3587
137.05,30.29291,-21.73787,1.996246,0.3325837,0.1718478,1.140104,10.03802,-17.32186,-51.3587
137.06,23.69696,-19.02818,0.3476488,0.329533,0.1882124,1.132893,10.03802,-17.32186,-51.3587
137.07,16.72765,-14.61019,-1.911541,0.322253,0.1918691,1.11551,10.03802,-17.32186,-51.3587
137.08,9.13608600000002,-10.84017,-3.804374,0.2900174,0.1595626,1.102811,10.03802,-17.32186,-51.3587
137.09,1.233389,-8.24828299999998,-4.659203,0.2512553,0.1033028,1.069295,8.251576,-20.13633,-50.50901
137.1,-4.242495,-7.77703200000002,-4.414967,0.2140165,0.04121239,1.031909,8.251576,-20.13633,-50.50901
137.11,-5.611465,-8.54281600000001,-3.621197,0.2003233,0.004127713,1.010079,8.251576,-20.13633,-50.50901
137.12,-4.92698,-8.83734899999998,-2.338954,0.1977378,-0.01902898,0.9670758,8.251576,-20.13633,-50.50901
137.13,-3.620235,-9.30860100000002,-0.934593699999998,0.1960721,-0.04153644,0.9414482,8.251576,-20.13633,-50.50901
137.14,-1.629005,-10.89908,1.263536,0.1972205,-0.0543034,0.9201914,7.590375,-20.50068,-50.88866
137.15,0.2377739,-13.43206,3.522725,0.2025106,-0.04610086,0.9129845,7.590375,-20.50068,-50.88866
137.16,0.922259299999998,-16.08285,4.377553,0.2194169,-0.03435851,0.9125708,7.590375,-20.50068,-50.88866
137.17,1.233389,-16.78973,4.682849,0.2447353,-0.04320659,0.9290237,7.590375,-20.50068,-50.88866
137.18,2.789038,-16.67192,5.232382,0.2486543,-0.05218656,0.9492816,7.590375,-20.50068,-50.88866
137.19,4.531364,-16.84863,6.08721,0.2626028,-0.04033115,0.9638195,7.214769,-19.78048,-51.3461
137.2,6.70927299999997,-15.96504,7.18627500000003,0.2774546,-0.02026789,0.9754821,7.214769,-19.78048,-51.3461
137.21,8.51382499999999,-14.61019,6.94203900000002,0.2904492,-0.01176364,0.9948359,7.214769,-19.78048,-51.3461
137.22,10.87841,-13.01971,7.18627500000003,0.3151263,0.001469261,0.9920327,7.214769,-19.78048,-51.3461
137.23,11.93625,-11.1347,7.18627500000003,0.3000733,-0.000108867,0.9910254,7.214769,-19.78048,-51.3461
137.24,11.87403,-11.42924,6.69780199999999,0.291891,-0.01122891,0.9991837,6.101293,-19.39744,-50.54098
137.25,12.55851,-10.89908,7.12521599999998,0.2927794,-0.006255108,1.013191,6.101293,-19.39744,-50.54098
137.26,12.86964,-10.1922,8.71275500000003,0.2794184,0.01599451,1.023337,6.101293,-19.39744,-50.54098
137.27,11.99848,-8.71953599999998,10.72771,0.2825185,0.04328238,1.041258,6.101293,-19.39744,-50.54098
137.28,8.76273000000002,-6.06874200000002,12.13207,0.2881254,0.06283344,1.057722,6.101293,-19.39744,-50.54098
137.29,5.340302,-3.653575,12.43736,0.2977711,0.0706651,1.059211,5.39569,-20.84277,-50.5246
137.3,2.166778,-1.532941,12.13207,0.303099,0.07358404,1.056336,5.39569,-20.84277,-50.5246
137.31,-0.633389499999999,0.764413100000002,11.88783,0.2968512,0.07001586,1.041835,5.39569,-20.84277,-50.5246
137.32,-2.500168,1.82473,11.46042,0.2857803,0.05878104,1.039853,5.39569,-20.84277,-50.5246
