Time (s),Gyroscope X (deg/s),Gyroscope Y (deg/s),Gyroscope Z (deg/s),Accelerometer X (g),Accelerometer Y (g),Accelerometer Z (g),Magnetometer X (uT),Magnetometer Y (uT),Magnetometer Z (uT)
14.764578342,-3.540112,-21.24395,-5.476542,0.08815541,-0.1711118,0.144955,-25.65826,-18.32223,-34.51321
14.774576187,7.47433699999998,-36.43816,-10.53712,0.09212395,-0.2006056,0.1526129,-25.65826,-18.32223,-34.51321
14.784574032,18.42725,-51.27625,-14.80507,0.08511622,-0.1904341,0.1641083,-25.65826,-18.32223,-34.51321
14.794572353,24.94977,-65.58017,-17.85361,0.1099466,-0.1887786,0.1851219,-25.65826,-18.32223,-34.51321
14.804570198,27.9649,-79.29057,-20.23147,0.1507943,-0.18397,0.1974925,-25.65826,-18.32223,-34.51321
14.814568043,29.74937,-91.93262,-22.12156,0.2033718,-0.1807901,0.2189359,-25.67568,-17.55825,-34.13027
14.824565887,29.4417,-103.2689,-23.21903,0.2565992,-0.1863881,0.2355947,-25.67568,-17.55825,-34.13027
14.834564686,28.5187,-113.7743,-24.1336,0.2917421,-0.1888673,0.2604201,-25.67568,-17.55825,-34.13027
14.84456253,26.6727,-123.8642,-24.43845,0.3270805,-0.2014246,0.2986478,-25.67568,-17.55825,-34.13027
14.854560852,25.07284,-133.0045,-24.49942,0.3782502,-0.2004565,0.3468945,-25.67568,-17.55825,-34.13027
14.864558697,24.21138,-140.8983,-24.62136,0.4238901,-0.1654336,0.3582917,-28.29556,-18.31468,-31.30766
14.874556541,21.13471,-148.9109,-25.1701,0.4508546,-0.1477131,0.3778618,-28.29556,-18.31468,-31.30766
14.884554863,17.93499,-158.526,-26.38951,0.4821618,-0.1281077,0.3816308,-28.29556,-18.31468,-31.30766
14.894552708,14.42759,-170.2184,-28.40155,0.5345762,-0.1169244,0.375315,-28.29556,-18.31468,-31.30766
14.904551506,11.16633,-183.0385,-31.75494,0.6135803,-0.09453386,0.3679929,-28.29556,-18.31468,-31.30766
14.914549351,5.566806,-195.2651,-35.65707,0.7105264,-0.06660918,0.3955741,-32.02145,-20.21026,-27.26181
14.924547195,-0.2173175,-206.0079,-37.73008,0.7941387,-0.05562785,0.4059542,-32.02145,-20.21026,-27.26181
14.93454504,-4.64771,-215.3262,-38.27881,0.8652074,-0.07754456,0.4063145,-32.02145,-20.21026,-27.26181
14.944543362,-6.862906,-222.0924,-38.0959,0.9258413,-0.1411874,0.3832536,-32.02145,-20.21026,-27.26181
14.954541206,-6.24757399999999,-227.3747,-37.30328,0.9909542,-0.1838375,0.3611365,-32.02145,-20.21026,-27.26181
14.964540005,-2.678647,-230.461,-37.24231,1.062042,-0.1810497,0.3528761,-35.75636,-22.08841,-21.15195
14.974537849,3.228544,-231.2326,-38.21784,1.116976,-0.1484791,0.3417647,-35.75636,-22.08841,-21.15195
14.984535694,7.53587,-232.3603,-40.71764,1.149874,-0.1099432,0.3397831,-35.75636,-22.08841,-21.15195
14.994534016,9.99719900000002,-234.1409,-43.40036,1.199301,-0.1210845,0.3430499,-35.75636,-22.08841,-21.15195
15.00453186,14.55066,-235.2092,-44.43686,1.260861,-0.1303187,0.3161447,-35.75636,-22.08841,-21.15195
15.014529705,19.71945,-235.506,-44.68074,1.315319,-0.1245983,0.292598,-39.45329,-23.18848,-13.04617
15.02452755,23.78064,-234.9718,-43.33939,1.359116,-0.09631941,0.261407,-39.45329,-23.18848,-13.04617
15.034526348,23.84218,-234.2596,-41.08347,1.384027,-0.04856905,0.2216294,-39.45329,-23.18848,-13.04617
15.044524193,19.35025,-235.0905,-37.60814,1.40716,-0.0101832,0.1713287,-39.45329,-23.18848,-13.04617
15.054522514,9.812599,-235.2686,-34.25474,1.445789,0.007714198,0.1320135,-39.45329,-23.18848,-13.04617
15.064520359,-4.278511,-235.3279,-31.75494,1.464248,-0.01607438,0.09465856,-42.05897,-25.7982,-4.472894
15.074518204,-15.41603,-237.2272,-29.25514,1.459141,-0.05632514,0.06165607,-42.05897,-25.7982,-4.472894
15.084516525,-22.67695,-239.9574,-26.69437,1.466311,-0.07606857,0.0128339,-42.05897,-25.7982,-4.472894
15.09451437,-29.261,-241.2632,-25.04816,1.461956,-0.1039936,-0.002465755,-42.05897,-25.7982,-4.472894
15.104512692,-34.2452,-241.9754,-23.95068,1.469033,-0.1181742,-0.02736039,-42.05897,-25.7982,-4.472894
15.114511013,-36.02966,-241.7973,-22.79224,1.472428,-0.1177923,-0.04603088,-42.42826,-27.63741,3.274502
15.124508858,-38.73712,-239.8981,-21.51185,1.480312,-0.09686823,-0.05992872,-42.42826,-27.63741,3.274502
15.134506702,-42.92138,-236.5743,-20.35341,1.491757,-0.1099029,-0.07525975,-42.42826,-27.63741,3.274502
15.144505024,-47.47484,-232.479,-19.07302,1.48973,-0.131898,-0.08482207,-42.42826,-27.63741,3.274502
15.154502869,-49.8131,-229.0366,-18.76817,1.484311,-0.1549014,-0.09102818,-42.42826,-27.63741,3.274502
15.164500713,-49.8131,-225.8316,-18.7072,1.494246,-0.191313,-0.1087434,-41.30446,-29.08883,10.57949
15.174499512,-46.98257,-222.8046,-18.2804,1.514872,-0.2003051,-0.126963,-41.30446,-29.08883,10.57949
15.184497356,-42.92138,-218.9467,-18.58526,1.511518,-0.2032694,-0.1250421,-41.30446,-29.08883,10.57949
15.194495201,-38.67559,-214.1391,-18.76817,1.502308,-0.2058899,-0.1259825,-41.30446,-29.08883,10.57949
15.204493523,-34.49133,-208.6194,-19.19496,1.486252,-0.2071658,-0.1245184,-41.30446,-29.08883,10.57949
15.214491367,-29.0764,-202.2093,-19.62176,1.455104,-0.2092478,-0.1254207,-40.18147,-30.17352,16.26995
15.224489212,-22.36928,-194.4935,-20.1705,1.426376,-0.2102399,-0.1186704,-40.18147,-30.17352,16.26995
15.234487534,-15.90829,-186.1248,-20.35341,1.405546,-0.1906445,-0.1095461,-40.18147,-30.17352,16.26995
15.244485855,-10.86257,-176.7471,-20.29244,1.370224,-0.1775825,-0.09273776,-40.18147,-30.17352,16.26995
15.254484177,-6.30910700000001,-167.1914,-19.98759,1.33079,-0.1792194,-0.08022562,-38.72708,-32.02311,21.19277
15.264482021,-1.324916,-156.9828,-19.07302,1.288884,-0.1533162,-0.07968066,-38.72708,-32.02311,21.19277
15.274479866,2.490145,-145.8246,-18.03652,1.251834,-0.1262399,-0.06765865,-38.72708,-32.02311,21.19277
15.284477711,4.090009,-133.5386,-16.69516,1.221749,-0.1068317,-0.05899683,-38.72708,-32.02311,21.19277
15.294476032,4.028476,-120.7779,-14.56119,1.184749,-0.1084951,-0.05462471,-38.72708,-32.02311,21.19277
15.304474354,3.597743,-108.3732,-12.48818,1.146795,-0.1110484,-0.03924346,-36.48854,-32.35227,25.275
15.314472675,4.582274,-95.3750599999998,-10.59809,1.098128,-0.1144922,-0.04490064,-36.48854,-32.35227,25.275
15.32447052,5.99753899999999,-82.7330099999998,-8.829934,1.06297,-0.1109625,-0.06111185,-36.48854,-32.35227,25.275
15.334468365,6.05907200000001,-69.7348399999998,-6.45207400000002,1.035518,-0.1022895,-0.06298053,-36.48854,-32.35227,25.275
15.344466686,4.582274,-55.49026,-4.379068,1.013915,-0.09338696,-0.05241649,-36.48854,-32.35227,25.275
15.354464531,3.413143,-41.12699,-2.671887,0.9948676,-0.1171104,-0.05477006,-35.00565,-32.30997,28.96264
15.364462376,3.966942,-26.76372,-0.964705900000002,0.9784974,-0.127643,-0.05521739,-35.00565,-32.30997,28.96264
15.374461174,5.44374,-12.99397,0.681504599999997,0.9634209,-0.1295083,-0.06715502,-35.00565,-32.30997,28.96264
15.384459019,7.10513699999998,0.3009594,2.266744,0.9448987,-0.1294805,-0.07717284,-35.00565,-32.30997,28.96264
15.394456863,8.64346799999999,13.23978,4.156838,0.9300526,-0.1177744,-0.09342156,-35.00565,-32.30997,28.96264
15.404455185,9.56646600000001,25.76312,6.35178600000003,0.9357502,-0.1099394,-0.09917642,-33.87723,-32.6748,29.81151
15.41445303,9.56646600000001,38.34583,8.42479100000002,0.9435394,-0.1099302,-0.114983,-33.87723,-32.6748,29.81151
15.424450874,9.38186599999998,50.39436,10.55877,0.9496236,-0.09674662,-0.1212185,-33.87723,-32.6748,29.81151
15.434449673,8.21273500000003,61.3151899999999,12.32692,0.9501252,-0.09782703,-0.1341406,-33.87723,-32.6748,29.81151
15.444447517,7.65893599999998,71.7018599999999,13.72925,0.9581038,-0.1080847,-0.1571236,-33.87723,-32.6748,29.81151
15.454445839,8.27426799999999,81.1982300000003,14.76575,0.9757419,-0.1137956,-0.1820388,-34.24411,-33.05797,29.81076
15.464443684,10.3664,90.1010900000001,15.4974,0.9936103,-0.1059351,-0.2112651,-34.24411,-33.05797,29.81076
15.474441528,11.72013,98.29172,15.98516,1.014645,-0.08479072,-0.2294931,-34.24411,-33.05797,29.81076
15.484439373,11.41246,105.8888,16.41196,1.041584,-0.06634886,-0.237202,-34.24411,-33.05797,29.81076
15.494437695,10.61253,112.833,16.35099,1.070849,-0.0684109,-0.2602242,-34.24411,-33.05797,29.81076
15.504436016,11.41246,118.8276,16.22905,1.088963,-0.07370105,-0.2932762,-35.75764,-31.94559,27.72954
15.514434338,12.08933,123.4571,16.16808,1.124938,-0.06979485,-0.3158329,-35.75764,-31.94559,27.72954
15.524432182,12.0278,127.7305,15.98516,1.142975,-0.07053319,-0.3292643,-35.75764,-31.94559,27.72954
15.534430027,10.61253,130.6388,15.98516,1.146869,-0.07055276,-0.3397998,-35.75764,-31.94559,27.72954
15.544428349,9.812599,132.2413,16.04613,1.140789,-0.08437575,-0.3503143,-35.75764,-31.94559,27.72954
15.554426193,9.812599,133.3096,15.74128,1.133765,-0.09959626,-0.3522124,-36.88151,-31.22437,24.04063
15.564424038,10.3664,133.8438,15.61934,1.114658,-0.09415562,-0.3536163,-36.88151,-31.22437,24.04063
15.574422836,10.24333,134.0219,15.61934,1.098951,-0.08816624,-0.3555047,-36.88151,-31.22437,24.04063
15.584420681,9.19726699999998,133.3096,15.37546,1.073017,-0.08233508,-0.3525895,-36.88151,-31.22437,24.04063
15.594418526,8.397335,132.538,15.00963,1.051298,-0.09342855,-0.3496774,-36.88151,-31.22437,24.04063
15.604416847,8.88960099999997,131.1729,14.88769,1.042485,-0.09115542,-0.3477483,-38.38799,-30.1256,20.3469
15.614414692,10.24333,130.6388,14.70478,1.041392,-0.0848861,-0.3506195,-38.38799,-30.1256,20.3469
15.624412537,10.24333,129.6298,14.58284,1.038465,-0.05864606,-0.3443996,-38.38799,-30.1256,20.3469
15.634410381,7.65893599999998,128.7988,14.52187,1.034951,-0.05272189,-0.3266877,-38.38799,-30.1256,20.3469
15.64440918,4.151542,126.4841,15.13157,1.012294,-0.06581277,-0.327602,-38.38799,-30.1256,20.3469
15.654407024,2.613211,123.4571,15.61934,0.9896476,-0.07934555,-0.3237304,-39.81657,-29.78654,16.7222
15.664405346,2.736278,120.3708,15.61934,0.9835253,-0.09062999,-0.3222812,-39.81657,-29.78654,16.7222
15.674403191,3.720809,117.0471,15.19255,0.9822959,-0.1026844,-0.3093543,-39.81657,-29.78654,16.7222
15.684401035,5.751406,113.3672,14.70478,0.9899209,-0.1195724,-0.3127133,-39.81657,-29.78654,16.7222
15.694399357,9.32033300000002,108.7971,14.15604,1.011466,-0.1248947,-0.3036565,-39.81657,-29.78654,16.7222
15.704397678,12.52006,104.5831,13.30245,1.03421,-0.1160308,-0.2869483,-40.55783,-29.44286,13.03809
15.714396,14.85832,99.7755300000001,12.32692,1.042764,-0.1040281,-0.2683018,-40.55783,-29.44286,13.03809
15.724393845,15.71979,94.9086300000002,11.71721,1.029436,-0.09438402,-0.2477023,-40.55783,-29.44286,13.03809
15.734391689,15.16599,89.6856200000002,11.22945,1.026319,-0.08356188,-0.2266423,-40.55783,-29.44286,13.03809
15.744389534,13.50459,84.1065,10.80265,1.008436,-0.09109028,-0.2141662,-40.55783,-29.44286,13.03809
15.754387855,12.08933,78.1712599999999,10.19294,0.9992089,-0.09271725,-0.212714,-42.05814,-28.72118,9.733398
15.764386177,10.551,72.23603,9.40032399999997,0.9805673,-0.1120416,-0.2131551,-42.05814,-28.72118,9.733398
15.774384499,10.24333,64.9356799999999,8.60770299999997,0.9601291,-0.1133515,-0.2059405,-42.05814,-28.72118,9.733398
15.784382343,9.87413200000002,58.22887,7.81508400000003,0.9539561,-0.1216029,-0.1915703,-42.05814,-28.72118,9.733398
15.794380188,9.074201,51.40335,7.022464,0.9362922,-0.1151575,-0.1924984,-42.06539,-27.97682,7.794333
15.804378509,7.28973700000001,44.93394,6.35178600000003,0.9192722,-0.1169033,-0.1872039,-42.06539,-27.97682,7.794333
15.814376354,5.25914,38.58324,5.681107,0.8984365,-0.1231331,-0.1857302,-42.06539,-27.97682,7.794333
15.824374199,3.35161,32.05448,4.827517,0.888164,-0.1208318,-0.1775771,-42.06539,-27.97682,7.794333
15.834372997,0.8287475,25.52571,4.33975,0.8799512,-0.1242684,-0.1636832,-42.06539,-27.97682,7.794333
15.844370842,-1.447982,19.53113,3.669072,0.8817548,-0.1164183,-0.1593812,-42.81541,-27.61625,6.109735
15.854368687,-3.786245,13.12107,3.120335,0.872936,-0.1135584,-0.146445,-42.81541,-27.61625,6.109735
15.864367008,-5.87837500000002,6.71101499999999,2.571598,0.8811547,-0.1099374,-0.1402388,-42.81541,-27.61625,6.109735
15.874364853,-7.97050500000002,0.775778400000001,2.144803,0.8760444,-0.1231149,-0.1354407,-42.81541,-27.61625,6.109735
15.884362698,-8.77043599999998,-4.862697,1.596066,0.880484,-0.1259122,-0.1320977,-42.81541,-27.61625,6.109735
15.894361019,-8.64737,-10.26376,0.7424754,0.8829294,-0.1263235,-0.1292304,-42.43111,-27.99707,5.727542
15.904359341,-8.46277000000003,-15.36807,0.01082622,0.8965086,-0.1225308,-0.1158549,-42.43111,-27.99707,5.727542
15.914357662,-8.52430299999999,-20.53172,-0.659852100000001,0.9006396,-0.1087639,-0.1072513,-42.43111,-27.99707,5.727542
15.924355507,-8.955036,-25.33926,-1.452472,0.9132959,-0.1080103,-0.1053593,-42.43111,-27.99707,5.727542
15.934353352,-8.955036,-29.96875,-2.306063,0.9260072,-0.1101626,-0.1025094,-42.43111,-27.99707,5.727542
15.944351196,-8.52430299999999,-34.53888,-3.159653,0.9328176,-0.1095377,-0.1020429,-42.82327,-27.2359,6.107708
15.954349518,-7.84743800000001,-38.69355,-4.318098,0.9444483,-0.1057835,-0.08866397,-42.82327,-27.2359,6.107708
15.964347839,-7.66283799999999,-42.67015,-5.049747,0.9537146,-0.1060206,-0.08150143,-42.82327,-27.2359,6.107708
15.974346161,-7.41670600000002,-46.64676,-5.78139599999999,0.966693,-0.09653565,-0.08200507,-42.82327,-27.2359,6.107708
15.984344006,-7.41670600000002,-49.9705,-6.513045,0.9730449,-0.09734256,-0.07770875,-42.82327,-27.2359,6.107708
15.99434185,-7.41670600000002,-53.76905,-7.366636,0.9854408,-0.1087822,-0.0801203,-42.83311,-26.85173,6.557181
16.004340172,-6.862906,-57.5082500000001,-8.22022599999998,1.000565,-0.1356873,-0.07918258,-42.83311,-26.85173,6.557181
16.014338017,-4.64771,-60.8913300000001,-8.76896300000003,1.013311,-0.1398572,-0.08446807,-42.83311,-26.85173,6.557181
16.024336338,-2.063314,-64.2744199999998,-9.07381699999998,1.02727,-0.1309178,-0.09358764,-42.83311,-26.85173,6.557181
16.03433466,-1.571049,-66.5298100000001,-9.01284600000001,1.038256,-0.1189899,-0.08834554,-42.83311,-26.85173,6.557181
16.044332504,-2.494047,-68.8445499999999,-9.07381699999998,1.043442,-0.1096283,-0.08548553,-42.81827,-27.97591,8.562776
16.054330349,-4.216978,-70.26901,-9.13478800000001,1.039922,-0.1038797,-0.0869166,-42.81827,-27.97591,8.562776
16.064328671,-5.324575,-71.5747600000002,-9.378671,1.039111,-0.1126689,-0.08978438,-42.81827,-27.97591,8.562776
16.074326515,-6.24757399999999,-72.4056899999998,-10.04935,1.040183,-0.1180721,-0.09839922,-42.81827,-27.97591,8.562776
16.08432436,-5.01691,-73.0585699999998,-10.65906,1.048637,-0.1271555,-0.1003259,-42.81827,-27.97591,8.562776
16.094323158,-3.540112,-73.2959799999998,-11.20779,1.06108,-0.1153436,-0.1108793,-42.46183,-27.57258,10.95004
16.104321003,-3.909311,-73.0585699999998,-11.69556,1.067847,-0.1122197,-0.1027562,-42.46183,-27.57258,10.95004
16.114318848,-4.709243,-72.8211599999998,-12.12236,1.059015,-0.1089969,-0.1032202,-42.46183,-27.57258,10.95004
16.124317169,-5.386109,-72.5837499999998,-12.42721,1.05453,-0.1037665,-0.1060851,-42.46183,-27.57258,10.95004
16.134315014,-6.30910700000001,-72.1089299999997,-12.48818,1.050199,-0.1068204,-0.1118197,-42.46183,-27.57258,10.95004
16.144312859,-7.04750599999997,-71.1592900000003,-12.854,1.04734,-0.1102916,-0.1132496,-42.07253,-28.6934,13.02291
16.154311657,-7.10903899999999,-70.2096599999999,-12.67109,1.047944,-0.116632,-0.1170776,-42.07253,-28.6934,13.02291
16.164309502,-6.678307,-68.7851999999998,-12.42721,1.053275,-0.1150776,-0.1180444,-42.07253,-28.6934,13.02291
16.174307823,-6.43217400000002,-67.2420299999998,-11.87847,1.058846,-0.1004069,-0.1199722,-42.07253,-28.6934,13.02291
16.184305668,-7.84743800000001,-65.3427700000003,-11.02488,1.059692,-0.09360012,-0.1214112,-42.07253,-28.6934,13.02291
16.194303513,-9.75496900000002,-63.6215399999998,-10.41517,1.043204,-0.09779587,-0.1194671,-40.56855,-29.42216,15.4891
16.204301357,-10.5549,-61.9003299999999,-9.98837900000002,1.048707,-0.1054797,-0.121389,-40.56855,-29.42216,15.4891
16.214300156,-10.3703,-59.8229899999999,-9.43964200000003,1.051131,-0.1050292,-0.1304863,-40.56855,-29.42216,15.4891
16.224298,-9.93956800000001,-57.4488899999997,-8.890904,1.051575,-0.1025206,-0.1228305,-40.56855,-29.42216,15.4891
16.234296322,-10.3703,-54.71869,-8.64702100000002,1.058926,-0.1048489,-0.1276284,-40.56855,-29.42216,15.4891
16.244294167,-10.61643,-51.86977,-7.976343,1.065872,-0.1115544,-0.131946,-40.94865,-29.41462,16.71183
16.254292011,-10.0011,-49.02086,-7.54954800000001,1.065031,-0.1189478,-0.1415142,-40.94865,-29.41462,16.71183
16.264290333,-8.52430299999999,-45.93454,-7.366636,1.073153,-0.136312,-0.1448739,-40.94865,-29.41462,16.71183
16.274288178,-6.18604100000003,-42.25469,-7.12275300000002,1.081397,-0.1341922,-0.1434531,-40.94865,-29.41462,16.71183
16.284286976,-3.293979,-38.21873,-6.93983999999998,1.088876,-0.1433299,-0.1492067,-40.94865,-29.41462,16.71183
16.294284821,-0.709583300000001,-34.18277,-6.39110400000002,1.098083,-0.1407665,-0.1544877,-39.82192,-29.77619,17.9477
16.304282665,0.8287475,-29.67199,-6.20819099999998,1.109393,-0.1464665,-0.1645561,-39.82192,-29.77619,17.9477
16.31428051,2.182479,-25.16121,-5.476542,1.111285,-0.1435705,-0.1707816,-39.82192,-29.77619,17.9477
16.324278832,3.16701,-21.06589,-4.805864,1.094688,-0.1419415,-0.1693173,-39.82192,-29.77619,17.9477
16.334276676,3.843876,-17.14864,-4.074214,1.067897,-0.1424489,-0.1668776,-39.82192,-29.77619,17.9477
16.344275475,3.843876,-13.88426,-3.220624,1.027156,-0.1524121,-0.1586683,-39.13211,-30.14158,19.11584
16.354273319,3.843876,-10.73858,-2.428004,1.002358,-0.15538,-0.1638886,-39.13211,-30.14158,19.11584
16.364271164,5.074541,-7.17743899999998,-1.452472,0.9921749,-0.1579802,-0.1605201,-39.13211,-30.14158,19.11584
16.374269486,6.428272,-3.853706,-0.4769399,0.9790213,-0.1582971,-0.1667186,-39.13211,-30.14158,19.11584
16.38426733,7.28973700000001,-0.708030899999999,0.925387699999998,0.9575536,-0.131084,-0.1733883,-39.06377,-30.51765,19.56983
16.394265175,5.751406,2.912464,2.510627,0.9477217,-0.1007297,-0.1805576,-39.06377,-30.51765,19.56983
16.404263973,1.813279,6.117492,4.27878,0.9335462,-0.07227781,-0.1738401,-39.06377,-30.51765,19.56983
16.414261818,-2.801713,9.08511,6.59566799999998,0.922171,-0.06322141,-0.1685583,-39.06377,-30.51765,19.56983
16.426759243,-7.724371,11.87467,9.03449899999999,0.9323636,-0.06108065,-0.1690552,-39.06377,-30.51765,19.56983
16.436757088,-10.49337,14.42682,10.37586,0.9482158,-0.04921453,-0.1810503,-39.07501,-30.13076,20.34181
16.444255829,-11.78556,16.02934,11.22945,0.9622868,-0.04602965,-0.1820328,-39.07501,-30.13076,20.34181
16.454253674,-13.1393,17.86926,12.38789,0.9804763,-0.02870619,-0.1868547,-39.07501,-30.13076,20.34181
16.464251995,-14.98529,19.41242,13.30245,0.98809,-0.01875359,-0.1777776,-39.07501,-30.13076,20.34181
16.474250317,-17.69275,20.65882,14.52187,0.9870514,-0.01539445,-0.1801695,-39.07501,-30.13076,20.34181
16.484248161,-19.47722,21.66781,15.43643,0.9720599,-0.02153949,-0.1820561,-39.49899,-30.52475,19.11508
16.494246483,-19.60028,22.5581,15.43643,0.9617215,-0.01589928,-0.1806038,-39.49899,-30.52475,19.11508
16.504244328,-19.84642,23.09227,15.0706,0.9536545,-0.001471644,-0.1796363,-39.49899,-30.52475,19.11508
16.514242172,-20.52328,23.38903,13.91216,0.9554556,0.006299528,-0.1839487,-39.49899,-30.52475,19.11508
16.524240494,-21.87701,24.10126,12.5708,0.9662332,0.003027529,-0.1930595,-39.49899,-30.52475,19.11508
16.536738396,-22.67695,24.81349,10.55877,0.9600061,-0.003058391,-0.2074044,-40.19049,-30.15609,18.33395
16.546736241,-22.43081,25.28831,8.79061600000001,0.9548206,0.01322958,-0.2217568,-40.19049,-30.15609,18.33395
16.554234982,-22.98461,25.46636,7.08343500000003,0.9507144,0.02434266,-0.2198382,-40.19049,-30.15609,18.33395
16.564232826,-24.89214,25.58507,5.010429,0.9529855,0.0331257,-0.2208016,-40.19049,-30.15609,18.33395
16.574230671,-26.92274,26.2973,2.388686,0.949623,0.004265897,-0.2341885,-40.19049,-30.15609,18.33395
16.584228993,-27.90727,26.77212,-0.2330568,0.95407,0.0009258462,-0.2370668,-40.55988,-30.16925,17.10567
16.596726895,-28.1534,26.71276,-3.464507,0.9698824,-0.01100679,-0.24762,-40.55988,-30.16925,17.10567
16.606724739,-27.72267,26.71276,-5.415571,0.9833191,-9.885244e-05,-0.2529106,-40.55988,-30.16925,17.10567
16.61422348,-28.95334,26.05989,-7.00081100000001,0.9849859,0.01503336,-0.2490887,-40.55988,-30.16925,17.10567
16.624221325,-29.4456,25.40701,-9.74449500000001,0.9849136,-0.007474907,-0.265833,-40.55988,-30.16925,17.10567
16.63671875,-29.0764,24.87284,-13.03692,0.9875936,-0.0205994,-0.2720558,-40.91772,-30.56985,15.0409
16.644217491,-28.03034,25.0509,-15.04895,0.9916998,-0.03171248,-0.2739743,-40.91772,-30.56985,15.0409
16.654216289,-25.56901,25.28831,-17.42681,0.9884524,-0.04058061,-0.2801879,-40.91772,-30.56985,15.0409
16.666713238,-21.50782,25.34766,-19.92661,1.001704,-0.04570365,-0.2845169,-40.91772,-30.56985,15.0409
16.676711559,-18.30809,25.0509,-21.99962,1.014533,-0.05418396,-0.2831013,-40.91772,-30.56985,15.0409
16.686709404,-15.10836,24.39802,-23.88971,1.024005,-0.06572521,-0.2902935,-40.5219,-31.3381,13.82224
16.696707249,-11.2933,23.62644,-25.35301,1.0339,-0.07386529,-0.2984444,-40.5219,-31.3381,13.82224
16.70420599,-8.58583600000001,22.97356,-26.2066,1.044662,-0.07607799,-0.2979841,-40.5219,-31.3381,13.82224
16.716703892,-5.447642,21.96457,-27.73087,1.045138,-0.0756265,-0.3027708,-40.5219,-31.3381,13.82224
16.726701736,-3.724712,20.30271,-28.82834,1.045996,-0.0692353,-0.2965524,-40.5219,-31.3381,13.82224
16.736700058,-3.047846,18.16602,-29.31611,1.044436,-0.06386812,-0.2908082,-39.75134,-32.10354,12.60635
16.746697903,-2.863246,15.25776,-29.1332,1.042858,-0.05752942,-0.2850642,-39.75134,-32.10354,12.60635
16.756695747,-3.293979,12.52755,-29.19417,1.041425,-0.05898925,-0.2821898,-39.75134,-32.10354,12.60635
16.766694546,-4.032378,10.2128,-28.58446,1.040468,-0.05999318,-0.2836236,-39.75134,-32.10354,12.60635
16.77669239,-4.83231,7.72000599999998,-27.54796,1.04645,-0.06716412,-0.2836322,-39.40421,-33.62916,11.84277
16.786690712,-5.632242,6.35490099999999,-26.32854,1.05141,-0.07199572,-0.2912968,-39.40421,-33.62916,11.84277
16.796688557,-6.12450699999998,4.989797,-24.92622,1.056313,-0.07398737,-0.3070979,-39.40421,-33.62916,11.84277
16.806686401,-6.98597300000001,3.446635,-23.34098,1.057346,-0.07675979,-0.2936988,-39.40421,-33.62916,11.84277
16.816684246,-7.84743800000001,1.428654,-21.69477,1.045537,-0.07068904,-0.2951155,-39.40421,-33.62916,11.84277
16.826683044,-8.40123700000001,-1.004793,-19.92661,1.029482,-0.07192548,-0.2893443,-38.26426,-34.38143,11.85517
16.836680889,-8.52430299999999,-3.082125,-17.97555,1.012813,-0.06635332,-0.2816595,-38.26426,-34.38143,11.85517
16.846679211,-8.70890300000002,-4.803344,-16.26837,1.018209,-0.06815538,-0.2778398,-38.26426,-34.38143,11.85517
16.856677055,-8.46277000000003,-6.16844799999999,-14.50021,1.016317,-0.07105578,-0.2720928,-38.26426,-34.38143,11.85517
16.8666749,-7.04750599999997,-7.83031500000001,-12.54915,1.00845,-0.06734124,-0.2739944,-38.26426,-34.38143,11.85517
16.876673222,-5.87837500000002,-9.848295,-10.23226,0.9989957,-0.05677588,-0.2672806,-37.8502,-36.2804,11.86809
16.886671543,-6.24757399999999,-11.51016,-7.91537200000002,0.9855615,-0.04195518,-0.2648681,-37.8502,-36.2804,11.86809
16.896669865,-7.232106,-12.69721,-5.537513,0.9878978,-0.03653297,-0.2615235,-37.8502,-36.2804,11.86809
16.906667709,-7.97050500000002,-13.52814,-3.098683,0.9748213,-0.04060428,-0.2533639,-37.8502,-36.2804,11.86809
16.916665554,-8.33970399999999,-14.29972,-0.964705900000002,0.9585017,-0.02776242,-0.248553,-37.8502,-36.2804,11.86809
16.926663399,-9.07810300000001,-14.65584,1.169271,0.9403744,-0.02213135,-0.2312941,-37.48671,-35.89069,12.64285
16.93666172,-10.24723,-15.13066,2.876452,0.9216648,-0.01177081,-0.2269569,-37.48671,-35.89069,12.64285
16.946660042,-11.23177,-15.60548,4.27878,0.8953075,-0.009336424,-0.2226044,-37.48671,-35.89069,12.64285
16.956658363,-11.60097,-16.02094,5.80304899999998,0.8875446,-0.01083796,-0.2106261,-37.48671,-35.89069,12.64285
16.966656208,-11.1087,-15.48677,6.53469799999998,0.8831514,-0.0104432,-0.2110971,-37.48671,-35.89069,12.64285
16.976654053,-10.1857,-14.53713,7.022464,0.879184,-0.006555097,-0.2024769,-37.46312,-37.03176,12.64893
16.986651897,-9.508835,-13.8249,7.63217200000002,0.8678022,0.003066068,-0.1885808,-37.46312,-37.03176,12.64893
16.996650219,-9.26270200000001,-13.64685,8.24187900000002,0.8519774,0.01538351,-0.189035,-37.46312,-37.03176,12.64893
17.006648064,-9.324236,-13.35009,8.54673300000003,0.8385558,0.02982379,-0.1751366,-37.46312,-37.03176,12.64893
17.016646862,-10.24723,-12.69721,8.72964499999998,0.8173796,0.04224606,-0.1526098,-37.46312,-37.03176,12.64893
17.026644707,-11.8471,-12.40045,8.85158600000001,0.7906836,0.03697764,-0.1396403,-38.22244,-36.65321,13.09284
17.036642551,-12.83163,-12.22239,8.85158600000001,0.7702531,0.03513371,-0.1376899,-38.22244,-36.65321,13.09284
17.046640873,-13.07776,-12.34109,8.30284999999999,0.7653748,0.03558468,-0.1309815,-38.22244,-36.65321,13.09284
17.056638718,-12.27783,-12.04433,7.63217200000002,0.7741135,0.03715375,-0.1376972,-38.22244,-36.65321,13.09284
17.066636562,-12.70856,-11.39146,6.65663900000001,0.78645,0.05490015,-0.1367661,-38.22244,-36.65321,13.09284
17.076635361,-15.53909,-10.56052,5.92499000000001,0.8082432,0.0621646,-0.1334559,-38.57779,-37.42382,12.25562
17.086633205,-19.23109,-10.73858,4.522663,0.8259069,0.05571479,-0.1330065,-38.57779,-37.42382,12.25562
17.09663105,-21.87701,-11.39146,2.632569,0.8545132,0.03727122,-0.1392731,-38.57779,-37.42382,12.25562
17.106629372,-22.36928,-11.74757,-0.4159691,0.8927104,0.0009890595,-0.1508162,-38.57779,-37.42382,12.25562
17.116627216,-20.33868,-12.69721,-3.830332,0.9200563,-0.02816574,-0.1565992,-38.57779,-37.42382,12.25562
17.126625061,-16.83129,-13.88426,-7.73246000000002,0.9552796,-0.03584489,-0.1691016,-38.96657,-36.66919,11.86178
17.136623859,-12.64703,-15.30871,-11.45168,1.000286,-0.04513415,-0.1663062,-38.96657,-36.66919,11.86178
17.146621704,-8.03203799999998,-16.91123,-15.23186,1.047787,-0.05792047,-0.1793073,-38.96657,-36.66919,11.86178
17.156620026,-3.355512,-17.92022,-19.01205,1.084489,-0.06657737,-0.1956407,-38.96657,-36.66919,11.86178
17.16661787,2.059412,-19.16662,-22.30447,1.117589,-0.06509628,-0.2114917,-38.96657,-36.66919,11.86178
17.176615715,7.10513699999998,-19.81949,-24.1336,1.12986,-0.04401977,-0.2182186,-38.9587,-37.04955,11.86381
17.186614513,9.56646600000001,-19.76014,-25.29204,1.12684,-0.01298355,-0.2186999,-38.9587,-37.04955,11.86381
17.196612358,9.32033300000002,-19.16662,-25.23107,1.12257,0.006895168,-0.2143904,-38.9587,-37.04955,11.86381
17.206610203,6.79747099999997,-18.03892,-24.43845,1.11849,0.01648074,-0.2201287,-38.9587,-37.04955,11.86381
17.216608524,3.659276,-16.49576,-22.97515,1.119903,0.01887697,-0.2268319,-38.9587,-37.04955,11.86381
17.226606369,1.25948,-14.77454,-20.47535,1.121924,0.01502937,-0.2268344,-38.56824,-37.80745,11.87064
17.236604214,-1.571049,-12.87527,-17.73167,1.117079,0.0134144,-0.2335256,-38.56824,-37.80745,11.87064
17.246602535,-3.970845,-10.67923,-14.43924,1.117153,0.009563423,-0.2296961,-38.56824,-37.80745,11.87064
17.256600857,-5.447642,-8.30513400000001,-11.08585,1.12202,0.009549931,-0.241669,-38.56824,-37.80745,11.87064
17.266599178,-6.862906,-5.931039,-8.03731400000003,1.114316,0.004459334,-0.2502686,-38.56824,-37.80745,11.87064
17.276597023,-7.90897099999997,-3.497592,-4.988776,1.103128,0.003187459,-0.2588632,-37.43953,-38.17282,12.65502
17.286594868,-8.15510499999999,-0.886087999999999,-2.610917,1.084754,-0.004473445,-0.2597863,-37.43953,-38.17282,12.65502
17.296592712,-7.78590499999999,1.725416,-0.3549984,1.064968,-0.01450863,-0.2516134,-37.43953,-38.17282,12.65502
17.306591034,-6.862906,4.336921,1.352183,1.049985,-0.0211482,-0.2544571,-37.43953,-38.17282,12.65502
17.316589356,-4.83231,6.59230999999998,2.571598,1.031683,-0.03274348,-0.2606437,-37.43953,-38.17282,12.65502
17.326587677,-2.370981,8.72899499999998,3.303247,1.020546,-0.03629054,-0.2524875,-37.04737,-38.93399,12.27485
17.336585522,-0.03271778,11.04374,4.034896,1.002882,-0.02985828,-0.2548513,-37.04737,-38.93399,12.27485
17.346583366,1.197947,12.76496,4.583633,0.9911007,-0.02519653,-0.2510033,-37.04737,-38.93399,12.27485
17.356581688,2.490145,14.36747,5.0714,0.9794716,-0.02890683,-0.2595965,-37.04737,-38.93399,12.27485
17.366579533,4.028476,15.13905,5.559165,0.982354,-0.02702016,-0.272045,-36.67094,-38.93445,11.89063
17.376577854,5.62834,15.55452,5.92499000000001,0.983327,-0.02704041,-0.2763538,-36.67094,-38.93445,11.89063
17.386576176,6.79747099999997,15.37646,6.41275599999997,0.9791937,-0.01446128,-0.2734784,-36.67094,-38.93445,11.89063
17.39657402,7.10513699999998,15.31711,7.022464,0.9757087,-0.01071717,-0.2816091,-36.67094,-38.93445,11.89063
17.406571865,7.10513699999998,14.42682,7.69314200000002,0.9781888,-0.01312858,-0.2849628,-36.67094,-38.93445,11.89063
17.416570187,7.53587,13.47719,8.11993799999998,0.9772217,-0.01369504,-0.2916611,-36.66307,-39.31481,11.89266
17.426568508,8.08966899999999,12.40884,8.91255800000001,0.9727008,-0.006499625,-0.2921336,-36.66307,-39.31481,11.89266
17.43656683,8.45886800000002,11.3405,9.46129399999998,0.9647166,0.003582495,-0.2882937,-36.66307,-39.31481,11.89266
17.446564674,8.028135,10.15345,9.94906,0.9470627,0.009568494,-0.2863501,-36.66307,-39.31481,11.89266
17.456562519,7.10513699999998,8.78834800000002,10.55877,0.9395909,0.01813712,-0.2896894,-36.66307,-39.31481,11.89266
17.466560364,5.99753899999999,7.54194799999998,10.80265,0.9368063,0.01083245,-0.2853754,-36.67879,-38.5541,11.8886
17.476558685,5.44374,6.65166300000002,10.68071,0.9240324,0.01642454,-0.2839189,-36.67879,-38.5541,11.8886
17.48655653,5.25914,5.523968,10.68071,0.9162291,0.01673876,-0.2858196,-36.67879,-38.5541,11.8886
17.496555328,5.751406,4.693035,10.4978,0.9215688,0.01781176,-0.2863078,-36.67879,-38.5541,11.8886
17.506553173,5.87447300000001,4.099511,10.31489,0.927802,0.02331536,-0.2824915,-36.67879,-38.5541,11.8886
17.516551018,5.99753899999999,3.209226,10.13197,0.941855,0.02747615,-0.2829957,-37.44401,-37.79901,11.87898
17.526549339,6.12060500000003,2.853111,9.46129399999998,0.9570014,0.02535885,-0.2815858,-37.44401,-37.79901,11.87898
17.536547184,6.24367199999998,1.844121,8.79061600000001,0.9636941,0.03232496,-0.2782492,-37.44401,-37.79901,11.87898
17.546545982,6.24367199999998,0.953835399999999,8.42479100000002,0.9640926,0.03727121,-0.2696368,-37.44401,-37.79901,11.87898
17.556543827,5.99753899999999,0.06354995,7.99799599999998,0.9635437,0.04072775,-0.2624581,-37.44401,-37.79901,11.87898
17.566541672,5.93600600000003,-0.826735599999998,7.57120099999999,0.9699169,0.03904587,-0.2476329,-38.20305,-37.42101,12.2584
17.576539517,6.48980500000002,-1.301555,6.83955100000002,0.9737781,0.04109225,-0.2447687,-38.20305,-37.42101,12.2584
17.586537838,7.04360400000002,-1.538964,5.98596099999998,0.9757093,0.04213299,-0.2414223,-38.20305,-37.42101,12.2584
17.596535683,7.22820399999999,-1.538964,5.010429,0.9740953,0.05043668,-0.2332859,-38.20305,-37.42101,12.2584
17.606534481,7.35127000000003,-1.301555,3.973926,0.9609724,0.04877222,-0.2275196,-38.20305,-37.42101,12.2584
17.616532326,7.53587,-0.589326100000003,2.998394,0.9668016,0.04992945,-0.2198729,-37.82831,-37.4182,12.26118
17.62653017,7.96660199999998,0.5383689,1.96189,0.9785664,0.04630945,-0.2160639,-37.82831,-37.4182,12.26118
17.636528492,9.074201,1.547359,0.986358399999998,1.002535,0.04144203,-0.2156258,-37.82831,-37.4182,12.26118
17.646526337,9.935666,2.200235,0.1327677,1.00974,0.04689465,-0.2194684,-37.82831,-37.4182,12.26118
17.656524181,9.56646600000001,2.437645,-0.4769399,1.016938,0.05287692,-0.2185253,-37.82831,-37.4182,12.26118
17.66652298,8.45886800000002,2.615702,-0.964705900000002,1.013422,0.05874403,-0.2070349,-37.84234,-36.66076,11.87012
17.676520824,7.22820399999999,2.734407,-1.574414,1.017402,0.05448867,-0.2027335,-37.84234,-36.66076,11.87012
17.686518669,6.48980500000002,2.971816,-1.879267,1.023852,0.04828132,-0.2046575,-37.84234,-36.66076,11.87012
17.696516991,6.12060500000003,3.209226,-2.245092,1.019921,0.05020883,-0.1979511,-37.84234,-36.66076,11.87012
17.706514835,5.81293900000002,3.684045,-2.488975,1.020526,0.04387283,-0.2013005,-37.84234,-36.66076,11.87012
17.71651268,5.136074,3.980806,-3.037712,1.010675,0.04953583,-0.1984133,-38.21877,-36.6603,12.25434
17.726511478,4.336142,4.57433,-3.70839,1.00458,0.03678092,-0.1983994,-38.21877,-36.6603,12.25434
17.736509323,4.151542,5.108501,-4.50101,1.001019,0.01869126,-0.2026958,-38.21877,-36.6603,12.25434
17.746507645,5.074541,5.345911,-5.232659,1.007155,0.003222883,-0.2070096,-38.21877,-36.6603,12.25434
17.756505489,6.428272,5.998787,-6.08625000000001,1.007857,-0.008561829,-0.2218437,-38.21877,-36.6603,12.25434
17.766503334,7.59740300000001,6.41425300000001,-7.00081100000001,1.011541,-0.02305413,-0.2204107,-37.85976,-35.89677,12.25307
17.776501179,9.44340000000003,6.473606,-8.03731400000003,1.009716,-0.03001618,-0.2338058,-37.85976,-35.89677,12.25307
17.786499977,11.474,6.473606,-8.829934,0.9967205,-0.03850325,-0.2304309,-37.85976,-35.89677,12.25307
17.796497822,13.07386,6.71101499999999,-9.378671,0.997637,-0.0356616,-0.2404834,-37.85976,-35.89677,12.25307
17.806496143,13.93533,6.88907200000001,-9.62255399999997,0.9839614,-0.03398803,-0.2404599,-37.85976,-35.89677,12.25307
17.816493988,14.18146,6.77036799999997,-9.378671,0.9804237,-0.02726351,-0.2414127,-37.84403,-36.65749,12.25712
17.826491833,13.99686,6.65166300000002,-9.13478800000001,0.9778425,-0.01953067,-0.240453,-37.84403,-36.65749,12.25712
17.836489677,13.25846,6.53295800000002,-8.15925599999997,0.9654736,-0.009557113,-0.2389983,-37.84403,-36.65749,12.25712
17.846488476,11.35093,6.23619700000001,-6.93983999999998,0.9560804,-0.002493047,-0.2432909,-37.84403,-36.65749,12.25712
17.85648632,9.56646600000001,5.88008199999999,-4.927805,0.9551609,-0.005431252,-0.2437671,-37.84403,-36.65749,12.25712
17.866484642,8.397335,5.345911,-2.610917,0.9541312,-0.002557876,-0.246159,-37.09454,-36.65186,12.26268
17.876482487,7.22820399999999,4.752387,0.01082622,0.9452269,0.00457287,-0.244231,-37.09454,-36.65186,12.26268
17.886480331,5.81293900000002,4.336921,2.510627,0.9425943,0.01532562,-0.2317862,-37.09454,-36.65186,12.26268
17.896478653,4.151542,3.802749,5.010429,0.9464467,0.01786653,-0.2279649,-37.09454,-36.65186,12.26268
17.906476974,3.105477,3.149873,7.51023000000002,0.9484212,0.01640824,-0.2322752,-37.09035,-37.02514,13.10321
17.916475296,2.367078,2.675054,9.82711900000002,0.9488552,0.01938071,-0.2270124,-37.09035,-37.02514,13.10321
17.926473141,1.813279,2.259588,11.77818,0.958111,0.0195899,-0.2241571,-37.09035,-37.02514,13.10321
17.936470985,2.120945,1.725416,13.48536,0.9727321,0.01935335,-0.2284897,-37.09035,-37.02514,13.10321
17.94646883,1.690213,1.606712,14.64381,0.9875141,0.03668405,-0.2251699,-37.09035,-37.02514,13.10321
17.956467628,-0.0942510000000003,1.30995,15.4974,0.9957222,0.04074253,-0.2242281,-37.83786,-37.03457,12.64615
17.966465473,-1.878715,1.250597,15.80225,0.9909338,0.03629199,-0.2223043,-37.83786,-37.03457,12.64615
17.976463795,-3.786245,0.894483100000001,15.31449,0.9954375,0.03009883,-0.218482,-37.83786,-37.03457,12.64615
17.986461639,-4.709243,0.953835399999999,14.64381,0.9969634,0.02674931,-0.2160909,-37.83786,-37.03457,12.64615
17.996459484,-5.139976,1.250597,13.48536,0.9926348,0.02376569,-0.2141683,-37.83786,-37.03457,12.64615
18.006457806,-5.570708,1.369302,12.26595,0.9863127,0.02319432,-0.2098499,-38.22833,-36.27667,12.63931
18.016456127,-5.816842,1.962826,10.37586,0.9732348,0.01907911,-0.206476,-38.22833,-36.27667,12.63931
18.026454449,-5.693775,2.675054,8.85158600000001,0.9697546,0.02297684,-0.1978566,-38.22833,-36.27667,12.63931
18.036452293,-5.01691,3.268578,7.205376,0.9736627,0.02263391,-0.1906847,-38.22833,-36.27667,12.63931
18.046450138,-4.709243,4.040159,5.80304899999998,0.9702418,0.02299085,-0.1973789,-38.22833,-36.27667,12.63931
18.056447983,-3.970845,4.396273,4.583633,0.9774315,0.02950278,-0.1916502,-38.60924,-35.9024,12.2475
18.066446304,-3.232446,5.167854,3.425189,0.9876592,0.0296566,-0.1969324,-38.60924,-35.9024,12.2475
18.076444626,-1.878715,5.286559,2.632569,0.9915853,0.02833336,-0.1907174,-38.60924,-35.9024,12.2475
18.086442947,-0.586516899999998,5.405263,1.90092,0.9967726,0.03774769,-0.1821145,-38.60924,-35.9024,12.2475
18.096440792,0.5210813,5.405263,1.230241,0.9991534,0.040706,-0.182598,-38.60924,-35.9024,12.2475
18.106438637,1.197947,5.58332,0.864416900000002,1.003068,0.03980707,-0.1830831,-38.61541,-35.52531,11.85847
18.116436958,2.120945,5.58332,0.5595631,1.003607,0.03680118,-0.1940906,-38.61541,-35.52531,11.85847
18.126434803,3.043944,5.82073000000003,0.1937385,1.009992,0.03396344,-0.1993653,-38.61541,-35.52531,11.85847
18.136433125,3.782343,6.77036799999997,-0.1111153,1.009558,0.03096902,-0.207021,-38.61541,-35.52531,11.85847
18.146431446,4.274609,7.779358,-0.5379106,1.015097,0.02131138,-0.2122925,-38.61541,-35.52531,11.85847
18.156429291,5.197607,8.96640499999999,-0.7817937,1.013755,0.014972,-0.2118099,-38.24406,-35.51596,12.63526
18.166427136,5.689873,9.79733799999999,-0.903735200000002,1.008379,0.01587277,-0.2079722,-38.24406,-35.51596,12.63526
18.176425457,5.074541,10.03475,-1.025677,1.00376,0.02849495,-0.199353,-38.24406,-35.51596,12.63526
18.186423302,3.043944,9.73798600000003,-1.147618,0.9930565,0.02789842,-0.188327,-38.24406,-35.51596,12.63526
18.1964221,0.5826145,9.559929,-1.208589,0.994648,0.02120564,-0.1797136,-38.24406,-35.51596,12.63526
18.206419945,-1.694115,9.08511,-1.452472,0.9958169,0.01112046,-0.1691844,-38.61541,-35.52531,11.85847
18.21641779,-3.478579,8.72899499999998,-2.06218,0.9960721,-0.002489635,-0.1701385,-38.61541,-35.52531,11.85847
18.226415634,-4.401577,8.84769999999998,-3.159653,1.003898,-0.00442793,-0.1864232,-38.61541,-35.52531,11.85847
18.236413956,-4.278511,9.32251899999998,-4.440039,1.015897,-0.02074796,-0.1902685,-38.61541,-35.52531,11.85847
18.246412277,-3.293979,10.03475,-5.964308,1.022338,-0.02648271,-0.1936283,-38.61541,-35.52531,11.85847
18.256410599,-2.124848,11.16244,-7.30566500000003,1.028138,-0.02393842,-0.1936391,-39.35506,-35.91511,11.40344
18.266408444,-1.447982,11.99338,-8.22022599999998,1.027807,-0.03216209,-0.1888506,-39.35506,-35.91511,11.40344
18.276406288,-0.894183000000003,12.34949,-9.31770000000002,1.02475,-0.02485441,-0.1802328,-39.35506,-35.91511,11.40344
18.28640461,-0.3403839,12.23079,-10.04935,1.020931,-0.02868143,-0.1653893,-39.35506,-35.91511,11.40344
18.296402454,0.0903486900000002,11.3405,-10.47614,1.00338,-0.02795541,-0.1543517,-39.35506,-35.91511,11.40344
18.306401253,0.2134152,9.44122399999999,-10.47614,0.986632,-0.01791045,-0.1356606,-38.60557,-35.90948,11.409
18.316399098,-0.586516899999998,7.72000599999998,-10.41517,0.9815626,-0.007245327,-0.1275187,-38.60557,-35.90948,11.409
18.326396942,-1.755648,6.35490099999999,-9.86643700000001,0.9765916,-0.001985023,-0.1260757,-38.60557,-35.90948,11.409
18.336394787,-3.293979,5.642673,-9.25672899999999,0.9842297,0.006413732,-0.1275269,-38.60557,-35.90948,11.409
18.346393108,-5.324575,5.227206,-8.52507999999999,0.9842463,0.00538954,-0.1332696,-38.60557,-35.90948,11.409
18.356390953,-7.35517199999998,4.514977,-7.61051899999998,0.9836143,0.01318282,-0.1299204,-38.59432,-36.29638,10.63702
18.366389752,-10.43183,4.336921,-6.75692799999998,0.981594,0.01706992,-0.1256107,-38.59432,-36.29638,10.63702
18.376387596,-13.81616,4.336921,-5.78139599999999,0.9860061,0.0157212,-0.1232252,-38.59432,-36.29638,10.63702
18.386385441,-16.64669,4.336921,-5.049747,0.9817947,0.00637878,-0.1260869,-38.59432,-36.29638,10.63702
18.396383762,-18.00042,5.345911,-4.561981,0.9815904,-0.008689445,-0.1260827,-38.59432,-36.29638,10.63702
18.406381607,-17.93889,6.29554899999997,-4.135185,0.9812378,-0.0160601,-0.1342159,-37.83698,-36.6711,10.64461
18.416380406,-17.20049,7.83871000000002,-3.769361,0.9848202,-0.02523976,-0.1361341,-37.83698,-36.6711,10.64461
18.42637825,-15.41603,9.20381500000001,-3.647419,0.9935119,-0.02128578,-0.1476361,-37.83698,-36.6711,10.64461
18.436376095,-13.5085,10.56892,-3.647419,1.000991,-0.03038405,-0.1490825,-37.83698,-36.6711,10.64461
18.44637394,-11.1087,12.05273,-3.647419,1.010712,-0.02931223,-0.1591499,-37.83698,-36.6711,10.64461
18.456372261,-8.27817099999997,13.59589,-4.013244,1.020159,-0.03934354,-0.1605995,-37.83331,-36.67819,9.806109
18.466370106,-5.386109,15.25776,-4.561981,1.025949,-0.0363047,-0.1596532,-37.83331,-36.67819,9.806109
18.476368904,-2.001781,16.68221,-5.049747,1.038651,-0.03798436,-0.1582392,-37.83331,-36.67819,9.806109
18.486366749,0.951813900000003,18.10667,-5.476542,1.037612,-0.03464717,-0.163024,-37.83331,-36.67819,9.806109
18.496364594,3.782343,18.87825,-5.84236700000003,1.034688,-0.0347488,-0.1678046,-37.43946,-37.44262,9.038942
18.506362915,6.24367199999998,19.47177,-6.33013299999999,1.025756,-0.02616516,-0.1663555,-37.43946,-37.44262,9.038942
18.51636076,7.78200200000001,19.23436,-6.33013299999999,1.035399,-0.02058103,-0.1611094,-37.43946,-37.44262,9.038942
18.526358605,8.82806800000001,19.11566,-6.26916200000001,1.034647,-0.006534296,-0.1644618,-37.43946,-37.44262,9.038942
18.536357403,9.01266799999998,18.64084,-5.964308,1.028684,-0.0002909942,-0.1596673,-37.43946,-37.44262,9.038942
18.546355248,8.45886800000002,17.92861,-5.29363,1.02309,0.01227683,-0.154875,-37.82037,-37.06835,8.647132
18.556353092,7.41280299999999,17.15703,-4.440039,1.014185,0.01936369,-0.1577327,-37.82037,-37.06835,8.647132
18.566351414,5.44374,16.38545,-3.70839,1.001897,0.02494345,-0.1586699,-37.82037,-37.06835,8.647132
18.576349259,3.659276,15.67322,-2.549946,0.987394,0.01885193,-0.1557716,-37.82037,-37.06835,8.647132
18.586348057,1.567146,14.66423,-1.513443,0.9751449,0.02254571,-0.1504868,-37.82037,-37.06835,8.647132
18.596345902,0.3980148,13.47719,-0.659852100000001,0.963979,0.02041643,-0.1466382,-37.43777,-37.44589,8.65194
18.606343746,-0.832649800000001,12.29014,0.1937385,0.9595603,0.02232992,-0.1404095,-37.43777,-37.44589,8.65194
18.616341591,-1.632582,11.2218,0.803446099999999,0.9557461,0.01789425,-0.138966,-37.43777,-37.44589,8.65194
18.626339912,-2.186381,10.27216,1.474125,0.9551775,0.02227842,-0.1365733,-37.43777,-37.44589,8.65194
18.636337757,-2.432514,8.610291,2.022861,0.9570899,0.02427313,-0.1351414,-37.43777,-37.44589,8.65194
18.646336555,-2.678647,7.12648200000003,2.266744,0.9638634,0.0268235,-0.1365896,-37.0456,-38.20706,8.271775
18.6563344,-2.92478,5.405263,2.388686,0.9633507,0.02832822,-0.1303676,-37.0456,-38.20706,8.271775
18.666332245,-3.047846,3.684045,2.327715,0.9668417,0.0239974,-0.133244,-37.0456,-38.20706,8.271775
18.676330566,-3.232446,2.022178,2.205774,0.9677247,0.02887426,-0.1332468,-37.0456,-38.20706,8.271775
18.686328411,-3.170913,0.657073599999999,1.90092,0.9726964,0.0236359,-0.132297,-37.0456,-38.20706,8.271775
18.696327209,-2.74018,-0.2925643,1.291212,0.9858935,0.02145377,-0.1337551,-37.81868,-37.07162,8.26013
18.706325054,-1.817181,-1.18285,0.5595631,0.9883931,0.01810595,-0.1332801,-37.81868,-37.07162,8.26013
18.716322899,-1.140316,-1.776374,0.01082622,1.000567,0.0182412,-0.1447871,-37.81868,-37.07162,8.26013
18.726320743,-0.5249836,-1.895078,-0.5379106,1.009224,0.02418212,-0.1515038,-37.81868,-37.07162,8.26013
18.736319065,0.2749484,-2.369897,-1.391501,1.016992,0.02584606,-0.1457749,-37.81868,-37.07162,8.26013
18.74631691,0.8287475,-2.369897,-1.818297,1.021413,0.02400279,-0.1443464,-38.18387,-37.45805,7.872375
18.756315708,0.8287475,-2.963421,-2.306063,1.015468,0.02925702,-0.1414659,-38.18387,-37.45805,7.872375
18.766313553,0.4595481,-4.20982,-2.306063,0.9982942,0.03579985,-0.1328233,-38.18387,-37.45805,7.872375
18.776311398,-0.5249836,-5.515573,-2.367033,0.9874637,0.04204786,-0.117013,-38.18387,-37.45805,7.872375
18.786309719,-1.817181,-6.94003,-2.245092,0.9743201,0.04127592,-0.1198614,-38.18387,-37.45805,7.872375
18.796307564,-2.55558,-8.245782,-2.428004,0.9708752,0.04319549,-0.1150701,-38.19959,-36.69734,7.86832
18.806305408,-2.678647,-8.77995300000002,-2.306063,0.9783077,0.03648213,-0.1213028,-38.19959,-36.69734,7.86832
18.816304207,-2.74018,-8.83930499999998,-2.367033,0.9942888,0.0415871,-0.1289892,-38.19959,-36.69734,7.86832
18.826302052,-2.494047,-8.42383900000002,-2.732858,1.001595,0.0417139,-0.1309163,-38.19959,-36.69734,7.86832
18.836299896,-2.986313,-8.542543,-2.8548,1.007329,0.04761024,-0.1361921,-38.19959,-36.69734,7.86832
18.846298218,-3.417045,-8.42383900000002,-3.220624,1.012128,0.0516233,-0.1328515,-37.42822,-37.82952,8.266967
18.856296062,-3.540112,-8.245782,-3.403537,1.015867,0.0342252,-0.1304606,-37.42822,-37.82952,8.266967
18.866294861,-3.355512,-8.48319099999998,-3.525478,1.010637,0.02732746,-0.1294926,-37.42822,-37.82952,8.266967
18.876292706,-2.494047,-9.19541899999997,-3.769361,1.004169,0.0345195,-0.1261332,-37.42822,-37.82952,8.266967
18.88629055,-1.817181,-10.0857,-3.952273,0.9988933,0.03006373,-0.1237299,-37.42822,-37.82952,8.266967
18.896288872,-1.324916,-10.91664,-4.379068,0.9938786,0.03781429,-0.1155874,-37.41866,-38.21314,7.881993
18.906286716,-1.386449,-11.45081,-4.988776,0.9914624,0.03682976,-0.1117543,-37.41866,-38.21314,7.881993
18.916284561,-1.263382,-11.74757,-5.415571,0.9940864,0.02657594,-0.1227635,-37.41866,-38.21314,7.881993
18.92628336,-0.955716300000001,-11.92563,-6.20819099999998,1.007869,0.01899861,-0.1309214,-37.41866,-38.21314,7.881993
18.936281204,0.2134152,-11.62887,-7.30566500000003,1.02233,0.001221135,-0.1400349,-37.41866,-38.21314,7.881993
18.946279049,2.551678,-11.27275,-8.15925599999997,1.032243,-0.007908026,-0.1501,-37.03943,-38.58415,8.660805
18.95627737,4.459208,-10.79793,-8.890904,1.027777,-0.003596453,-0.1472218,-37.03943,-38.58415,8.660805
18.966275215,5.87447300000001,-10.32311,-9.378671,1.024807,-0.001278059,-0.1529602,-37.03943,-38.58415,8.660805
18.976274014,6.55133799999999,-10.0857,-9.68352500000001,1.021317,0.003074704,-0.1476909,-37.03943,-38.58415,8.660805
18.986271858,7.22820399999999,-9.72959,-9.74449500000001,1.018872,0.003503573,-0.1486439,-37.03943,-38.58415,8.660805
18.996269703,7.65893599999998,-9.43282899999999,-9.50061200000003,1.008652,0.002824488,-0.1476687,-37.04729,-38.20379,8.658777
19.006267548,8.21273500000003,-9.43282899999999,-9.19575899999999,1.00913,0.003315486,-0.1481483,-37.04729,-38.20379,8.658777
19.016265869,8.705001,-9.31412399999998,-8.64702100000002,1.004223,0.005184237,-0.1457473,-37.04729,-38.20379,8.658777
19.026263714,8.705001,-9.61088600000001,-7.79343099999999,0.9990892,0.01922336,-0.1404776,-37.04729,-38.20379,8.658777
19.036262512,8.27426799999999,-9.551534,-6.45207400000002,0.9936311,0.02447843,-0.1385552,-37.05068,-38.19725,9.432781
19.046260357,7.35127000000003,-9.72959,-4.927805,0.9868126,0.02437442,-0.1351932,-37.05068,-38.19725,9.432781
19.056258202,5.99753899999999,-9.90764799999999,-3.159653,0.9851507,0.03503668,-0.1347145,-37.05068,-38.19725,9.432781
19.066256523,4.766874,-10.0857,-1.26956,0.9807669,0.03495446,-0.1342282,-37.05068,-38.19725,9.432781
19.076254368,3.413143,-10.44182,0.5595631,0.9745892,0.02655824,-0.1356511,-37.05068,-38.19725,9.432781
19.086253166,2.182479,-11.0947,2.632569,0.9730729,0.02943955,-0.1361277,-36.29671,-38.56545,10.21437
19.096251011,1.25948,-11.2134,4.461692,0.9770445,0.02568312,-0.1303908,-36.29671,-38.56545,10.21437
19.106248856,0.5210813,-10.85729,5.80304899999998,0.9828321,0.028621,-0.1404517,-36.29671,-38.56545,10.21437
19.1162467,0.0903486900000002,-9.96700000000001,6.96149300000002,0.9871879,0.03014295,-0.1428526,-36.29671,-38.56545,10.21437
19.126245022,-0.2788507,-9.19541899999997,7.87605399999997,0.9911107,0.02871438,-0.1481234,-36.29671,-38.56545,10.21437
19.136242867,0.02881546,-8.067724,8.30284999999999,1.000566,0.01818853,-0.15053,-36.30289,-38.18836,9.825344
19.146241665,1.013347,-7.17743899999998,8.60770299999997,1.003937,0.02012872,-0.1581936,-36.30289,-38.18836,9.825344
19.15623951,1.813279,-5.99039199999999,8.48576300000002,1.013643,0.02226424,-0.1582111,-36.30289,-38.18836,9.825344
19.166237354,2.859344,-4.922049,8.18090799999998,1.011686,0.02275101,-0.1539006,-36.30289,-38.18836,9.825344
19.176235676,3.597743,-4.150468,7.81508400000003,1.012534,0.02961481,-0.1491181,-36.30289,-38.18836,9.825344
19.186233521,4.520741,-3.853706,7.51023000000002,1.009465,0.03732925,-0.1491148,-36.30656,-38.18128,10.66385
19.196232319,5.013007,-3.378887,7.08343500000003,1.004872,0.04842392,-0.1481525,-36.30656,-38.18128,10.66385
19.206230164,5.382206,-2.666659,6.90052199999999,1.005764,0.0528238,-0.147198,-36.30656,-38.18128,10.66385
19.216228008,5.074541,-1.776374,6.83955100000002,1.004011,0.06833929,-0.1471989,-36.30656,-38.18128,10.66385
19.226225853,4.151542,-1.064145,6.90052199999999,0.9999514,0.07704989,-0.1424083,-36.30656,-38.18128,10.66385
19.236224175,3.16701,-0.2332119,6.90052199999999,1.001346,0.08040009,-0.151026,-36.69872,-37.42011,11.04401
19.246222019,1.813279,0.5383689,7.14440499999997,1.003259,0.08241674,-0.1472012,-36.69872,-37.42011,11.04401
19.256220818,1.25948,1.547359,7.44925899999998,0.9989274,0.07933217,-0.1562858,-36.69872,-37.42011,11.04401
19.266218662,0.8287475,2.793759,7.81508400000003,1.000766,0.08517785,-0.1586834,-36.69872,-37.42011,11.04401
19.276216507,0.02881546,3.980806,8.42479100000002,1.005552,0.08957572,-0.1663501,-36.69872,-37.42011,11.04401
19.286214352,-0.4019172,5.286559,8.60770299999997,1.005332,0.1011989,-0.1701813,-37.44651,-37.429,10.65145
19.296212673,-0.894183000000003,6.77036799999997,8.91255800000001,1.001243,0.1112965,-0.1730483,-37.44651,-37.429,10.65145
19.306210995,-2.494047,7.36389100000001,9.46129399999998,1.000107,0.1200868,-0.1658699,-37.44651,-37.429,10.65145
19.316209316,-4.83231,7.12648200000003,9.70517700000002,0.9877068,0.132179,-0.1452726,-37.44651,-37.429,10.65145
19.326207161,-7.539772,6.59230999999998,9.88808900000002,0.9829292,0.1272954,-0.1376058,-37.44651,-37.429,10.65145
19.336205006,-9.63190200000001,5.93943499999998,9.76614900000002,0.9870261,0.1166637,-0.1400031,-37.08749,-36.66548,10.65018
19.346203327,-10.7395,5.76137699999998,8.72964499999998,0.9912057,0.1016777,-0.1404851,-37.08749,-36.66548,10.65018
19.356201172,-10.5549,5.88008199999999,7.57120099999999,0.9871275,0.08493911,-0.1553096,-37.08749,-36.66548,10.65018
19.36619997,-9.878035,6.35490099999999,5.80304899999998,0.9872557,0.07815162,-0.1538723,-37.08749,-36.66548,10.65018
19.376197815,-9.57036899999999,6.59230999999998,3.669072,0.9918321,0.06806357,-0.1510062,-37.08749,-36.66548,10.65018
19.38619566,-9.20116899999999,6.41425300000001,1.596066,1.000735,0.06090211,-0.1562842,-37.45438,-37.04865,10.64942
19.396193504,-8.77043599999998,6.23619700000001,-0.720822899999998,1.00683,0.04799421,-0.1462415,-37.45438,-37.04865,10.64942
19.406191826,-7.66283799999999,6.05813900000001,-3.159653,1.00999,0.03543533,-0.144808,-37.45438,-37.04865,10.64942
19.416190147,-6.55523999999999,5.88008199999999,-5.598484,1.013088,0.02633383,-0.1371538,-37.45438,-37.04865,10.64942
19.426188469,-5.632242,5.998787,-8.22022599999998,1.010718,0.02291172,-0.1342774,-37.45438,-37.04865,10.64942
19.436186314,-4.770776,5.88008199999999,-10.53712,1.010762,0.02045219,-0.1376269,-37.44901,-37.059,9.423916
19.446184158,-3.970845,5.76137699999998,-12.91498,1.014841,0.0107964,-0.1395458,-37.44901,-37.059,9.423916
19.45618248,-3.109379,6.117492,-15.17089,1.021879,-0.000744701,-0.1414694,-37.44901,-37.059,9.423916
19.466180802,-1.817181,6.473606,-17.00002,1.033713,-0.008382472,-0.1520167,-37.44901,-37.059,9.423916
19.476179123,-0.03271778,7.36389100000001,-18.76817,1.040578,-0.01067215,-0.1515495,-37.44901,-37.059,9.423916
19.486176968,1.382547,8.31352900000002,-19.68273,1.036763,-0.01512978,-0.1524989,-37.43946,-37.44262,9.038942
19.496174812,2.551678,9.26316700000002,-20.35341,1.029722,-0.003667688,-0.1591896,-37.43946,-37.44262,9.038942
19.506172657,2.244012,10.39086,-20.29244,1.012602,-7.892598e-05,-0.1548535,-37.43946,-37.44262,9.038942
19.516170979,2.244012,11.51856,-19.68273,1.000939,-0.001745235,-0.1524399,-37.43946,-37.44262,9.038942
19.5261693,2.120945,12.17143,-18.2804,0.9896635,0.001941452,-0.1500283,-37.43946,-37.44262,9.038942
19.536167622,1.505613,12.40884,-16.2074,0.9851263,0.01016984,-0.143801,-37.06471,-37.43981,9.041723
19.546165466,0.8287475,12.5869,-13.82954,0.9827456,0.007211542,-0.1433175,-37.06471,-37.43981,9.041723
19.556163311,0.3364816,12.94301,-11.45168,0.9840978,0.01308271,-0.1418857,-37.06471,-37.43981,9.041723
19.566161633,0.5210813,13.12107,-8.70799300000002,0.982564,0.01695749,-0.1399697,-37.06471,-37.43981,9.041723
19.576159954,-0.1557842,13.65524,-5.537513,0.9822378,0.03451074,-0.132795,-37.06471,-37.43981,9.041723
19.586157799,-2.370981,13.71459,-2.428004,0.9806231,0.04279686,-0.1265728,-36.67425,-38.19771,9.048559
19.59615612,-5.263042,13.35848,0.864416900000002,0.9888583,0.04538928,-0.1265878,-36.67425,-38.19771,9.048559
19.606153965,-7.78590499999999,13.18042,3.48616,0.9934445,0.03483303,-0.1218073,-36.67425,-38.19771,9.048559
19.61615181,-9.878035,12.82431,6.16887299999999,0.9954023,0.03439455,-0.1208535,-36.67425,-38.19771,9.048559
19.626150131,-11.8471,12.11208,8.18090799999998,0.9995002,0.02379357,-0.1199008,-36.67086,-38.20425,8.274556
19.636148453,-13.20083,11.39985,9.64420700000001,0.9986094,0.01944197,-0.1155909,-36.67086,-38.20425,8.274556
19.646146774,-13.75463,10.86568,10.61974,1.008047,0.009909598,-0.1156049,-36.67086,-38.20425,8.274556
19.656144619,-13.6931,10.74698,11.04653,1.015988,0.002344067,-0.1098739,-36.67086,-38.20425,8.274556
19.666142464,-13.44696,10.80633,10.68071,1.021428,-0.001930703,-0.1108394,-36.67086,-38.20425,8.274556
19.676140308,-12.64703,11.16244,10.01003,1.013284,-0.00939828,-0.1127376,-36.663,-38.58461,8.276584
19.686139107,-11.4779,10.98439,8.85158600000001,1.008569,-0.01771735,-0.1088986,-36.663,-38.58461,8.276584
19.696136951,-9.63190200000001,11.16244,7.38828800000001,1.013136,-0.0273284,-0.1069898,-36.663,-38.58461,8.276584
19.706135273,-6.98597300000001,11.2218,5.92499000000001,1.009971,-0.04054643,-0.1108095,-36.663,-38.58461,8.276584
19.716133118,-3.355512,11.39985,4.400721,1.008512,-0.04051824,-0.1045855,-36.663,-38.58461,8.276584
19.726130962,0.5210813,11.81532,2.75451,1.001654,-0.038767,-0.1107955,-37.0498,-37.83379,7.431243
19.736129761,3.905409,11.81532,1.657037,0.9946795,-0.0306394,-0.1103068,-37.0498,-37.83379,7.431243
19.746127605,6.48980500000002,11.57791,0.4985923,0.9930469,-0.02137297,-0.1031277,-37.0498,-37.83379,7.431243
19.756125927,8.64346799999999,11.16244,0.01082622,0.9938641,-0.01315723,-0.1098313,-37.0498,-37.83379,7.431243
19.766123772,10.30486,10.68762,-0.2330568,0.9985713,-0.004308509,-0.1088847,-37.0498,-37.83379,7.431243
19.776121616,10.98173,10.56892,0.0717969800000001,0.98919,0.002361967,-0.1031271,-37.02621,-38.97486,7.437327
19.786119461,11.72013,10.2128,0.01082622,0.9914209,0.01296955,-0.1170124,-37.02621,-38.97486,7.437327
19.796118259,12.27393,10.03475,0.5595631,0.9956961,0.01890725,-0.1146285,-37.02621,-38.97486,7.437327
19.806116104,12.52006,10.15345,1.169271,1.005667,0.03261849,-0.1246995,-37.02621,-38.97486,7.437327
19.816114426,12.15086,10.45021,2.144803,1.007974,0.03944532,-0.1270982,-37.02621,-38.97486,7.437327
19.82611227,11.04326,10.15345,3.059364,1.006691,0.05599463,-0.1213573,-36.6655,-38.2146,7.04905
19.836110115,9.13573400000002,9.38187199999997,4.156838,1.003126,0.06418081,-0.1218318,-36.6655,-38.2146,7.04905
19.846108913,7.04360400000002,8.19482400000001,5.254312,0.9996641,0.06709824,-0.1141693,-36.6655,-38.2146,7.04905
19.856106758,4.828408,6.65166300000002,6.35178600000003,0.9931952,0.07427272,-0.1127241,-36.6655,-38.2146,7.04905
19.86610508,2.982411,4.989797,7.26634699999998,0.9829026,0.0774885,-0.1107927,-36.6655,-38.2146,7.04905
19.876102924,1.321013,3.32793,7.99799599999998,0.9726366,0.07922067,-0.1117324,-37.41499,-38.22023,7.043489
19.886100769,-0.03271778,1.962826,8.54673300000003,0.9736345,0.07766852,-0.1241767,-37.41499,-38.22023,7.043489
19.896099567,-0.4634504,1.07254,8.24187900000002,0.981941,0.07632217,-0.1299338,-37.41499,-38.22023,7.043489
19.906097412,-0.3403839,0.1822547,8.11993799999998,0.9815283,0.07247034,-0.1251463,-37.41499,-38.22023,7.043489
19.916095257,-0.6480501,-0.9454404,7.69314200000002,0.9794418,0.07967877,-0.1294517,-37.41499,-38.22023,7.043489
19.926093578,-1.078783,-2.251192,7.205376,0.9819708,0.0749395,-0.1217977,-37.41499,-38.22023,7.043489
19.936091423,-1.571049,-3.735002,6.35178600000003,0.9850032,0.06917689,-0.1208443,-37.41499,-38.22023,7.043489
19.946090221,-1.324916,-5.040754,5.376253,0.9748371,0.06555251,-0.1232185,-37.41499,-38.22023,7.043489
19.956088066,-0.6480501,-6.405858,4.156838,0.9778883,0.05883593,-0.1203507,-37.41499,-38.22023,7.043489
19.966085911,0.3980148,-7.83031500000001,2.510627,0.9766537,0.04661913,-0.1251311,-37.41499,-38.22023,7.043489
19.976083755,1.874812,-9.13606700000001,0.925387699999998,0.9761854,0.04565554,-0.1232158,-37.42285,-37.83987,7.041461
19.986082077,2.982411,-10.73858,-0.903735200000002,0.9834369,0.0487013,-0.1246649,-37.42285,-37.83987,7.041461
19.996079922,4.028476,-11.98498,-2.367033,0.9898063,0.04690092,-0.1227613,-37.42285,-37.83987,7.041461
20.00607872,4.336142,-12.87527,-3.769361,0.9947119,0.04499267,-0.1294694,-37.42285,-37.83987,7.041461
20.016076565,4.951474,-13.88426,-5.476542,1.007018,0.03844577,-0.1280534,-37.42285,-37.83987,7.041461
20.026074409,5.320673,-14.41843,-6.695957,1.005188,0.03207921,-0.1294843,-37.81699,-37.07489,7.873128
20.036072731,5.320673,-15.19001,-7.42760699999997,1.004718,0.03106734,-0.1328333,-37.81699,-37.07489,7.873128
20.046070576,5.81293900000002,-16.0803,-8.52507999999999,1.007316,0.02232787,-0.1376213,-37.81699,-37.07489,7.873128
20.056069374,5.93600600000003,-16.49576,-9.19575899999999,1.006323,0.02324942,-0.1409699,-37.81699,-37.07489,7.873128
20.066067219,6.05907200000001,-16.73317,-9.62255399999997,1.00589,0.02032961,-0.1404898,-37.81699,-37.07489,7.873128
20.076065063,6.18213799999999,-17.20799,-9.86643700000001,1.0049,0.02134334,-0.1337882,-37.05964,-37.44962,7.880717
20.086062908,6.12060500000003,-17.08928,-10.04935,1.005397,0.02088037,-0.1323533,-37.05964,-37.44962,7.880717
20.09606123,5.99753899999999,-17.26734,-9.98837900000002,1.001004,0.02129268,-0.13091,-37.05964,-37.44962,7.880717
20.106059551,5.93600600000003,-17.32669,-9.50061200000003,1.002851,0.02665699,-0.1328289,-37.05964,-37.44962,7.880717
20.116057873,5.320673,-17.26734,-8.70799300000002,1.006668,0.03117168,-0.1256581,-37.05964,-37.44962,7.880717
20.126055717,4.151542,-17.14864,-7.54954800000001,0.9961936,0.04411585,-0.1222931,-37.05516,-37.82344,8.656749
20.136053562,3.043944,-17.32669,-6.02527899999998,0.9996952,0.03934316,-0.1203837,-37.05516,-37.82344,8.656749
20.146051884,1.44408,-17.20799,-4.318098,0.9967269,0.04171423,-0.1203791,-37.05516,-37.82344,8.656749
20.156050205,-0.03271778,-17.38605,-2.610917,0.9922529,0.04652473,-0.1160654,-37.05516,-37.82344,8.656749
20.166048527,-1.755648,-17.5641,-0.8427644,0.991913,0.03877804,-0.1122342,-37.04899,-38.20052,9.045779
20.176046372,-3.109379,-17.97957,0.864416900000002,0.9895146,0.03680882,-0.1098366,-37.04899,-38.20052,9.045779
20.186044216,-3.786245,-17.86087,2.266744,0.995487,0.03010609,-0.1117596,-37.04899,-38.20052,9.045779
20.196042061,-4.216978,-17.62346,3.364218,0.9995297,0.02240212,-0.1127218,-37.04899,-38.20052,9.045779
20.206040382,-3.786245,-16.79252,4.156838,1.00109,0.01704373,-0.1175089,-37.04899,-38.20052,9.045779
20.216038704,-3.417045,-15.90224,4.461692,1.005923,0.01903473,-0.1227822,-37.03496,-38.95797,9.436837
20.226037026,-3.047846,-14.89325,4.705575,1.008569,0.007936674,-0.1199125,-37.03496,-38.95797,9.436837
20.23603487,-2.001781,-13.52814,4.766546,1.012501,0.006035506,-0.1237475,-37.03496,-38.95797,9.436837
20.246032715,-0.6480501,-12.10369,4.156838,1.02034,0.003725566,-0.1275891,-37.03496,-38.95797,9.436837
20.256031036,0.890280700000001,-10.67923,3.791013,1.025294,-0.0005149354,-0.1237681,-37.03496,-38.95797,9.436837
20.266029358,2.428612,-9.25477200000002,3.364218,1.018953,-0.0001279458,-0.1208857,-37.06193,-37.81036,10.20476
20.276027203,3.35161,-7.889668,2.571598,1.01979,0.007160162,-0.1228033,-37.06193,-37.81036,10.20476
20.286025524,4.274609,-6.58391499999997,2.144803,1.021638,0.01255081,-0.1218508,-37.06193,-37.81036,10.20476
20.296023369,4.336142,-5.278163,1.90092,1.014151,0.02216557,-0.1170544,-37.06193,-37.81036,10.20476
20.306021214,4.090009,-4.091116,2.022861,1.012948,0.0342728,-0.1189698,-37.06193,-37.81036,10.20476
20.316020012,3.720809,-2.785364,2.022861,1.010827,0.04348133,-0.1170541,-37.06193,-37.81036,10.20476
20.326017857,2.613211,-1.657669,2.205774,1.01317,0.04836511,-0.1194523,-37.06193,-37.81036,10.20476
20.336016178,1.567146,-0.2332119,2.75451,1.005918,0.04529741,-0.1203961,-37.06193,-37.81036,10.20476
20.346014023,0.705681,0.657073599999999,3.120335,1.005321,0.05111253,-0.1208751,-37.06193,-37.81036,10.20476
20.356011868,-0.4634504,1.369302,3.669072,1.003391,0.05010252,-0.1208715,-37.06193,-37.81036,10.20476
20.366009712,-1.140316,2.140883,3.973926,1.002489,0.04615767,-0.1251761,-37.06193,-37.81036,10.20476
20.376008511,-0.894183000000003,2.793759,4.27878,0.9947931,0.04059009,-0.1328184,-37.06193,-37.81036,10.20476
20.386006355,-0.3403839,3.743397,4.522663,0.9992323,0.0377753,-0.1313897,-37.06193,-37.81036,10.20476
20.396004677,-0.03271778,4.693035,4.27878,0.9947455,0.04295745,-0.139519,-37.06193,-37.81036,10.20476
20.406002522,0.4595481,5.58332,3.973926,0.9918332,0.04244906,-0.1356852,-37.06193,-37.81036,10.20476
20.416000366,0.951813900000003,6.05813900000001,3.48616,0.9987785,0.03572168,-0.1423956,-37.43668,-37.81318,10.20198
20.425999165,1.690213,6.473606,2.69354,0.9997799,0.03427926,-0.1428756,-37.43668,-37.81318,10.20198
20.435997009,2.059412,6.82971999999999,2.266744,1.003675,0.03430797,-0.1481467,-37.43668,-37.81318,10.20198
20.445995331,2.551678,6.77036799999997,1.1083,1.004695,0.03188963,-0.149105,-37.43668,-37.81318,10.20198
20.455993176,3.413143,6.948425,0.2547093,0.9992993,0.03370048,-0.1519676,-37.43668,-37.81318,10.20198
20.46599102,3.597743,6.88907200000001,-0.8427644,0.9914303,0.03736675,-0.1591334,-37.82125,-37.43182,10.64867
20.475989819,3.105477,6.948425,-1.757326,0.9898601,0.04318457,-0.1572179,-37.82125,-37.43182,10.64867
20.485987663,2.613211,6.35490099999999,-2.91577,0.9857103,0.03037599,-0.1672574,-37.82125,-37.43182,10.64867
20.495985508,2.920877,5.93943499999998,-4.196156,0.9768714,0.0341503,-0.1605429,-37.82125,-37.43182,10.64867
20.50598383,3.720809,5.82073000000003,-5.476542,0.9765561,0.02486293,-0.1658043,-37.82125,-37.43182,10.64867
20.515981674,4.397675,5.998787,-6.75692799999998,0.9761341,0.02149248,-0.1614956,-37.43668,-37.81318,10.20198
20.525980473,5.320673,5.82073000000003,-7.67149000000001,0.9705928,0.0310799,-0.1638812,-37.43668,-37.81318,10.20198
20.535978317,5.44374,5.345911,-8.34216799999998,0.9665052,0.04123023,-0.1610053,-37.43668,-37.81318,10.20198
20.545976162,5.074541,4.871092,-8.46410900000001,0.9683742,0.04572397,-0.1519167,-37.43668,-37.81318,10.20198
20.555974484,4.151542,3.802749,-8.40313799999999,0.9687715,0.0506395,-0.1466544,-37.43668,-37.81318,10.20198
20.565972328,2.982411,2.793759,-7.976343,0.9813195,0.05726166,-0.1404565,-37.45071,-37.05573,9.810918
20.57597065,1.628679,1.784769,-7.00081100000001,0.9953815,0.06093231,-0.1414391,-37.45071,-37.05573,9.810918
20.585968971,-0.2173175,0.657073599999999,-5.964308,1.008425,0.06705201,-0.1381133,-37.45071,-37.05573,9.810918
20.595966816,-2.001781,-0.05515479,-4.927805,1.017678,0.0671778,-0.144351,-37.45071,-37.05573,9.810918
20.605964661,-3.478579,-0.3519166,-4.074214,1.022972,0.07065327,-0.1477111,-37.45071,-37.05573,9.810918
20.615962982,-4.64771,-0.1738595,-3.159653,1.021997,0.07061647,-0.1496238,-37.05237,-38.19398,9.819783
20.625961304,-5.324575,1.547359,-1.879267,1.028724,0.07557809,-0.1529868,-37.05237,-38.19398,9.819783
20.635959625,-6.24757399999999,3.268578,-1.452472,1.02458,0.08857276,-0.1577687,-37.05237,-38.19398,9.819783
20.64595747,-7.539772,5.405263,-0.4769399,1.022714,0.08417997,-0.15585,-37.05237,-38.19398,9.819783
20.655955315,-8.77043599999998,7.12648200000003,0.4376215,1.023727,0.0823264,-0.148194,-37.05237,-38.19398,9.819783
20.665953159,-9.20116899999999,8.78834800000002,1.047329,1.018498,0.07547255,-0.1424403,-37.05237,-38.19398,9.819783
20.675951481,-9.20116899999999,9.73798600000003,1.657037,1.021052,0.069197,-0.1434003,-37.05237,-38.19398,9.819783
20.685949802,-8.70890300000002,10.56892,2.022861,1.019141,0.06725495,-0.1390892,-37.05237,-38.19398,9.819783
20.695948124,-8.40123700000001,11.04374,2.144803,1.01565,0.07156383,-0.1386057,-37.05237,-38.19398,9.819783
20.705945969,-8.33970399999999,11.3405,2.144803,1.016213,0.06779271,-0.1271199,-36.67594,-38.19444,9.435561
20.715943813,-7.84743800000001,10.80633,1.657037,1.014246,0.06870817,-0.129031,-36.67594,-38.19444,9.435561
20.725942135,-7.35517199999998,10.62827,0.681504599999997,1.020155,0.06542772,-0.1285619,-36.67594,-38.19444,9.435561
20.735940456,-6.80137299999998,10.74698,-0.3549984,1.020418,0.05130114,-0.1328659,-36.67594,-38.19444,9.435561
20.745938778,-5.87837500000002,11.39985,-1.940238,1.013781,0.04142924,-0.1352446,-36.67594,-38.19444,9.435561
20.755936623,-4.64771,11.16244,-3.525478,1.010587,0.02961582,-0.1448075,-36.68381,-37.81409,9.433534
20.765934467,-3.293979,11.04374,-5.110718,1.002949,0.02122584,-0.1423992,-36.68381,-37.81409,9.433534
20.775932312,-2.063314,10.50957,-6.513045,0.9957805,0.01383456,-0.1380776,-36.68381,-37.81409,9.433534
20.78593111,-0.7711166,10.03475,-8.03731400000003,0.994521,0.003154056,-0.134244,-36.68381,-37.81409,9.433534
20.795928955,0.4595481,9.32251899999998,-9.50061200000003,0.9814046,0.0009248321,-0.1370921,-36.68381,-37.81409,9.433534
20.805927277,2.059412,8.66964300000001,-10.65906,0.9780411,-0.001558172,-0.1356498,-36.28995,-38.57853,8.666367
20.815925121,3.474676,7.54194799999998,-11.51265,0.9725914,0.003189188,-0.1361201,-36.28995,-38.57853,8.666367
20.825922966,4.274609,6.65166300000002,-12.18333,0.9705617,0.007548879,-0.1332463,-36.28995,-38.57853,8.666367
20.835921764,4.889941,5.405263,-12.48818,0.9627038,0.01078645,-0.1341905,-36.28995,-38.57853,8.666367
20.845919609,5.382206,4.218216,-12.2443,0.9669689,0.01717918,-0.1351568,-36.28995,-38.57853,8.666367
20.855917931,5.62834,3.268578,-11.87847,0.9643967,0.02442187,-0.1346756,-36.29781,-38.19817,8.664338
20.865915775,5.81293900000002,2.437645,-11.08585,0.9667133,0.03077611,-0.1356384,-36.29781,-38.19817,8.664338
20.87591362,5.320673,1.547359,-10.23226,0.9670734,0.03760834,-0.1332479,-36.29781,-38.19817,8.664338
20.885912418,4.705341,0.3603118,-8.829934,0.969086,0.03425528,-0.1322934,-36.29781,-38.19817,8.664338
20.895910263,4.028476,-0.767383199999997,-7.42760699999997,0.9763554,0.03632074,-0.1346995,-36.29781,-38.19817,8.664338
20.905908108,3.597743,-2.310545,-5.90333699999997,0.9800521,0.04710204,-0.1327944,-36.64728,-39.34532,8.28064
20.915906429,3.043944,-3.319535,-4.440039,0.9873945,0.0452814,-0.1351996,-36.64728,-39.34532,8.28064
20.925904274,1.997879,-4.44723,-3.037712,0.9911745,0.05173035,-0.1289864,-36.64728,-39.34532,8.28064
20.935903072,1.197947,-5.337515,-1.757326,0.9891696,0.05454937,-0.1352051,-36.64728,-39.34532,8.28064
20.945900917,0.2749484,-6.405858,-0.659852100000001,0.9924799,0.05999083,-0.1318623,-36.64728,-39.34532,8.28064
20.955898762,-0.5249836,-7.41484800000003,0.0717969800000001,0.9871772,0.05699234,-0.1294593,-35.51688,-39.71397,8.678012
20.965896606,-1.078783,-7.83031500000001,1.047329,0.9897117,0.0516532,-0.1342481,-35.51688,-39.71397,8.678012
20.975894928,-1.571049,-8.48319099999998,1.413154,0.9882492,0.05158921,-0.1380742,-35.51688,-39.71397,8.678012
20.98589325,-2.001781,-9.07671499999999,1.596066,0.982828,0.05490562,-0.1356727,-35.51688,-39.71397,8.678012
20.995891571,-1.694115,-9.551534,1.718008,0.9797,0.03974893,-0.1390134,-35.51688,-39.71397,8.678012
21.005889416,-1.571049,-9.96700000000001,1.413154,0.9829826,0.04663451,-0.1371066,-35.89162,-39.71678,8.675231
21.01588726,-1.078783,-10.14506,1.169271,0.9879619,0.04086212,-0.141421,-35.89162,-39.71678,8.675231
21.025885582,-0.2173175,-10.14506,0.4985923,0.9934091,0.03604013,-0.1490864,-35.89162,-39.71678,8.675231
21.035883904,0.767214200000001,-9.67023799999998,0.01082622,1.004667,0.03334253,-0.1495839,-35.89162,-39.71678,8.675231
21.045882225,2.120945,-9.61088600000001,-0.7817937,1.010925,0.03729667,-0.1558174,-35.89162,-39.71678,8.675231
21.05588007,2.920877,-9.25477200000002,-1.391501,1.020954,0.04822502,-0.1515305,-35.90903,-38.9528,9.058177
21.065877914,3.474676,-9.13606700000001,-1.879267,1.030851,0.04013322,-0.1544171,-35.90903,-38.9528,9.058177
21.075875759,4.028476,-8.95800999999999,-2.549946,1.024925,0.04444664,-0.1481864,-35.90903,-38.9528,9.058177
21.085874558,4.274609,-9.01736299999997,-2.732858,1.013025,0.05539696,-0.1472113,-35.90903,-38.9528,9.058177
21.095872402,3.905409,-9.49218100000001,-2.549946,1.008552,0.0602338,-0.1400261,-35.90903,-38.9528,9.058177
21.105870724,3.16701,-10.0857,-2.367033,1.003223,0.05871015,-0.1357092,-36.28547,-38.95234,9.442398
21.115868568,2.736278,-10.50117,-1.635384,0.9997483,0.06202117,-0.1380969,-36.28547,-38.95234,9.442398
21.125866413,2.182479,-10.73858,-0.7817937,0.9957507,0.06727438,-0.139527,-36.28547,-38.95234,9.442398
21.135865212,1.321013,-10.79793,0.01082622,0.986964,0.06805952,-0.1409477,-36.28547,-38.95234,9.442398
21.145863056,0.3364816,-10.67923,0.925387699999998,0.9859809,0.06853481,-0.1399889,-36.28547,-38.95234,9.442398
21.155861378,-0.1557842,-10.26376,2.022861,0.991909,0.06430038,-0.1376053,-35.895,-39.71024,9.449235
21.165859222,-0.586516899999998,-9.67023799999998,2.876452,0.98654,0.06462761,-0.1433389,-35.895,-39.71024,9.449235
21.175857067,-0.709583300000001,-9.31412399999998,3.912955,0.9860785,0.06310365,-0.1495592,-35.895,-39.71024,9.449235
21.185855866,-1.324916,-8.77995300000002,4.888487,0.9879946,0.06521686,-0.1352058,-35.895,-39.71024,9.449235
21.19585371,-1.878715,-8.42383900000002,5.98596099999998,0.9880027,0.06470037,-0.1385557,-35.895,-39.71024,9.449235
21.205851555,-2.494047,-8.00837199999998,6.41275599999997,0.9924875,0.05945678,-0.1371264,-36.2793,-39.32943,9.831428
21.215849876,-2.55558,-7.77096299999999,6.83955100000002,0.9944177,0.06046681,-0.1371301,-36.2793,-39.32943,9.831428
21.225847721,-2.74018,-7.59290600000003,7.022464,1.006163,0.05776565,-0.1390642,-36.2793,-39.32943,9.831428
21.23584652,-2.432514,-7.05873399999998,6.96149300000002,1.006786,0.05047568,-0.1404991,-36.2793,-39.32943,9.831428
21.245844364,-1.694115,-6.46521000000002,6.71760999999998,1.014553,0.05209573,-0.1395559,-36.2793,-39.32943,9.831428
21.255842209,-0.832649800000001,-5.515573,6.04693200000002,1.015626,0.04671893,-0.1452993,-35.91242,-38.94626,9.832181
21.265840054,0.3980148,-4.862697,5.498195,1.016673,0.0428477,-0.1457787,-35.91242,-38.94626,9.832181
21.275838375,1.567146,-3.972411,4.644604,1.020129,0.04051259,-0.1429127,-35.91242,-38.94626,9.832181
21.285836697,2.490145,-2.904068,4.034896,1.014825,0.03747022,-0.1452955,-35.91242,-38.94626,9.832181
21.295835018,3.043944,-2.251192,3.48616,1.011713,0.0476793,-0.1381141,-36.66977,-38.57153,9.824592
21.305832863,3.290077,-1.420259,3.181306,1.017593,0.04580785,-0.1429096,-36.66977,-38.57153,9.824592
21.315830708,3.474676,-0.708030899999999,2.632569,1.009259,0.04859393,-0.1390672,-36.66977,-38.57153,9.824592
21.325829029,3.53621,-0.2332119,2.632569,1.011694,0.04863327,-0.1400286,-36.66977,-38.57153,9.824592
21.335827351,3.720809,0.3603118,2.75451,1.006632,0.05876875,-0.1366723,-36.66977,-38.57153,9.824592
21.345825672,3.413143,1.07254,2.815481,1.00663,0.05870291,-0.143851,-36.29671,-38.56545,10.21437
21.355823517,3.105477,1.191245,2.998394,1.006696,0.0553728,-0.136193,-36.29671,-38.56545,10.21437
21.365821362,2.120945,1.606712,3.364218,0.9998123,0.05862523,-0.1376176,-36.29671,-38.56545,10.21437
21.375819206,1.197947,2.022178,3.912955,0.9876179,0.05940444,-0.1323322,-36.29671,-38.56545,10.21437
21.385817528,0.0903486900000002,2.31894,4.461692,0.9876163,0.05935615,-0.1375965,-36.29671,-38.56545,10.21437
21.395815849,-0.4019172,2.378292,5.010429,0.9877989,0.04964532,-0.1371157,-36.28716,-38.94907,9.8294
21.405814171,-0.586516899999998,3.031168,5.376253,0.9800484,0.04698792,-0.1452374,-36.28716,-38.94907,9.8294
21.415812016,-0.586516899999998,2.971816,5.437224,0.9811687,0.03923937,-0.1447587,-36.28716,-38.94907,9.8294
21.42580986,-0.6480501,3.209226,5.254312,0.9826949,0.03589864,-0.1414105,-36.28716,-38.94907,9.8294
21.435808659,-0.2173175,3.387283,4.949458,0.9843202,0.02717503,-0.1423682,-36.28716,-38.94907,9.8294
21.445806503,0.8287475,3.446635,4.33975,0.9843354,0.02610694,-0.1528967,-36.66977,-38.57153,9.824592
21.455804825,2.244012,3.446635,3.669072,0.9852727,0.02805607,-0.1543345,-36.66977,-38.57153,9.824592
21.46580267,3.043944,3.387283,3.120335,0.9866539,0.03251824,-0.147638,-36.66977,-38.57153,9.824592
21.475800514,3.16701,3.505987,2.449656,0.9861112,0.03539685,-0.1505093,-36.66977,-38.57153,9.824592
21.485799313,3.413143,3.624692,1.778978,0.9885602,0.03432421,-0.1667848,-36.66977,-38.57153,9.824592
21.495797157,3.966942,3.802749,1.169271,0.9940287,0.02862728,-0.1639215,-37.05604,-38.1869,10.65829
21.505795002,4.705341,4.040159,0.803446099999999,0.9906446,0.02704995,-0.1696581,-37.05604,-38.1869,10.65829
21.515793324,5.87447300000001,4.277568,0.1327677,0.9938872,0.03576885,-0.1797161,-37.05604,-38.1869,10.65829
21.525791168,7.28973700000001,4.455625,0.1327677,0.9916648,0.05029442,-0.1806731,-37.05604,-38.1869,10.65829
21.535789967,7.41280299999999,4.277568,0.4376215,0.9898281,0.07013787,-0.1854607,-37.05604,-38.1869,10.65829
21.545787811,6.305205,3.624692,0.986358399999998,0.9815123,0.07196998,-0.1797038,-36.67932,-38.1879,10.20957
21.555785656,4.520741,2.912464,1.839949,0.977603,0.07227342,-0.1911829,-36.67932,-38.1879,10.20957
21.565783978,3.290077,2.378292,2.937423,0.9693746,0.06912062,-0.1993035,-36.67932,-38.1879,10.20957
21.575781822,2.490145,1.962826,4.034896,0.9632213,0.05917934,-0.2102975,-36.67932,-38.1879,10.20957
21.585780144,2.059412,1.547359,5.13237,0.9646294,0.06216666,-0.205515,-36.67932,-38.1879,10.20957
21.595778465,1.505613,1.369302,6.16887299999999,0.9713679,0.06670836,-0.2016993,-36.68549,-37.81082,9.820536
21.60577631,0.8287475,0.5383689,6.71760999999998,0.9692181,0.07733906,-0.2036126,-36.68549,-37.81082,9.820536
21.615774155,-0.3403839,-0.4706214,6.96149300000002,0.9775997,0.07217246,-0.2021901,-36.68549,-37.81082,9.820536
21.625772476,-1.201849,-1.064145,6.71760999999998,0.9865345,0.06368537,-0.1931106,-36.68549,-37.81082,9.820536
21.635770798,-1.078783,-1.895078,5.92499000000001,0.9928204,0.06620856,-0.1964722,-36.68549,-37.81082,9.820536
21.645769119,-0.586516899999998,-2.785364,4.888487,0.9942729,0.06673198,-0.1955177,-36.68719,-37.80755,10.20754
21.655766964,-0.4019172,-4.150468,3.48616,1.000084,0.06886074,-0.1878712,-36.68719,-37.80755,10.20754
21.665764809,-1.140316,-5.218811,1.90092,1.00051,0.07236726,-0.1773442,-36.68719,-37.80755,10.20754
21.675762653,-1.447982,-6.761972,-0.2330568,1.00102,0.07155459,-0.1610732,-36.68719,-37.80755,10.20754
21.685761452,-1.694115,-8.542543,-1.940238,0.9952618,0.0672121,-0.1452691,-36.68719,-37.80755,10.20754
21.695759296,-2.74018,-10.38247,-3.586449,0.986486,0.06756413,-0.1409467,-37.42881,-38.19353,10.204
21.705757618,-3.909311,-12.40045,-5.476542,0.9807522,0.06168095,-0.1342351,-37.42881,-38.19353,10.204
21.715755463,-3.724712,-13.58749,-7.48857699999998,0.9852171,0.0573606,-0.1380704,-37.42881,-38.19353,10.204
21.725753307,-3.047846,-13.52814,-9.80546599999998,0.9857675,0.05395234,-0.1399848,-37.42881,-38.19353,10.204
21.735752106,-2.801713,-13.05332,-11.75653,0.9849285,0.04659401,-0.1457243,-37.42881,-38.19353,10.204
21.74574995,-1.878715,-11.92563,-13.46371,0.9903966,0.0408839,-0.1442967,-37.07963,-37.04584,10.6522
21.755748272,-0.3403839,-10.61988,-14.68313,0.9994764,0.05023477,-0.151015,-37.07963,-37.04584,10.6522
21.765746117,0.951813900000003,-8.77995300000002,-15.47575,1.012098,0.0529928,-0.1424233,-37.07963,-37.04584,10.6522
21.775743961,1.997879,-6.46521000000002,-15.41478,1.031041,0.05629147,-0.1415,-37.07963,-37.04584,10.6522
21.78574276,2.120945,-4.20982,-14.98798,1.046988,0.06340972,-0.1415297,-37.07963,-37.04584,10.6522
21.795740604,1.505613,-2.132488,-14.13439,1.059109,0.06650344,-0.1482517,-37.07346,-37.42292,11.04123
21.805738449,1.321013,-0.826735599999998,-12.79303,1.062204,0.05732732,-0.1487333,-37.07346,-37.42292,11.04123
21.815736771,1.382547,0.4196641,-11.69556,1.05468,0.06886318,-0.1463303,-37.07346,-37.42292,11.04123
21.825734615,0.951813900000003,1.903473,-10.59809,1.035564,0.07482031,-0.1443841,-37.07346,-37.42292,11.04123
21.835733414,-0.1557842,3.149873,-9.74449500000001,1.01861,0.06970926,-0.1352603,-37.0462,-38.57108,10.20881
21.845731258,-1.324916,4.811739,-8.70799300000002,1.005051,0.06501966,-0.1404998,-37.0462,-38.57108,10.20881
21.855729103,-2.186381,6.77036799999997,-7.12275300000002,0.9969871,0.05313194,-0.1476613,-37.0462,-38.57108,10.20881
21.865727425,-3.170913,8.43223400000003,-6.02527899999998,1.000056,0.04542628,-0.1467076,-37.0462,-38.57108,10.20881
21.875725269,-4.524643,10.39086,-4.805864,0.9943357,0.03842674,-0.1557887,-37.0462,-38.57108,10.20881
21.885723591,-5.693775,12.23079,-3.586449,0.9882508,0.02522119,-0.1519461,-36.29869,-38.56163,10.66588
21.895721912,-6.61677399999998,13.35848,-2.428004,0.9918615,0.01461059,-0.1509925,-36.29869,-38.56163,10.66588
21.905719757,-6.49370699999998,14.54553,-1.025677,0.9998364,0.005005451,-0.1557897,-36.29869,-38.56163,10.66588
21.915717602,-5.87837500000002,15.43581,-0.1720861,1.008128,0.004731575,-0.1505398,-36.29869,-38.56163,10.66588
21.925715923,-5.693775,15.91063,0.3766508,1.01436,0.01020884,-0.1495949,-36.29869,-38.56163,10.66588
21.935714245,-5.324575,16.02934,0.681504599999997,1.015499,0.001484384,-0.1495946,-36.28099,-39.32616,10.21843
21.945712566,-4.401577,16.3261,0.7424754,1.020847,0.002049668,-0.1524756,-36.28099,-39.32616,10.21843
21.955710411,-2.863246,16.4448,0.7424754,1.027362,-0.007540448,-0.1524844,-36.28099,-39.32616,10.21843
21.965708256,-0.709583300000001,16.68221,0.2547093,1.019097,-0.008741411,-0.1596484,-36.28099,-39.32616,10.21843
21.9757061,1.997879,16.86027,0.1327677,1.024087,-0.01494252,-0.1577412,-36.28099,-39.32616,10.21843
21.985704899,4.397675,17.03833,-0.05014454,1.018952,-0.0009341163,-0.1558215,-35.91242,-38.94626,9.832181
21.995702744,5.93600600000003,16.97897,-0.1111153,1.013476,0.005296864,-0.1534207,-35.91242,-38.94626,9.832181
22.005701065,6.92053700000001,16.56351,0.3766508,0.9981313,0.01817114,-0.1471757,-35.91242,-38.94626,9.832181
22.01569891,7.59740300000001,15.79193,1.291212,0.9872881,0.0247908,-0.1438085,-35.91242,-38.94626,9.832181
22.025697708,7.96660199999998,15.0797,2.144803,0.9709316,0.03956253,-0.1404338,-35.91242,-38.94626,9.832181
22.035695553,7.41280299999999,13.952,3.120335,0.9590335,0.05057869,-0.1322801,-36.27761,-39.3327,9.444427
22.045693398,6.24367199999998,12.5869,4.27878,0.9530897,0.05585925,-0.1265282,-36.27761,-39.3327,9.444427
22.055691719,5.074541,11.4592,5.0714,0.963767,0.05793501,-0.1351617,-36.27761,-39.3327,9.444427
22.065689564,4.397675,9.85669000000001,5.92499000000001,0.966183,0.05891515,-0.1394733,-36.27761,-39.3327,9.444427
22.075688362,3.474676,8.254177,6.65663900000001,0.9734534,0.06101133,-0.1385294,-36.27761,-39.3327,9.444427
22.085686207,2.244012,6.35490099999999,7.32731800000001,0.9792819,0.06214223,-0.1337541,-36.28378,-38.95561,9.055396
22.095684052,1.136414,4.752387,7.51023000000002,0.9753727,0.06245006,-0.1447546,-36.28378,-38.95561,9.055396
22.105681896,0.02881546,3.505987,7.81508400000003,0.9700329,0.06137706,-0.1442664,-36.28378,-38.95561,9.055396
22.115680218,-1.571049,2.378292,7.69314200000002,0.9617535,0.06126174,-0.1389876,-36.28378,-38.95561,9.055396
22.125678539,-3.047846,1.250597,7.99799599999998,0.9568903,0.06064023,-0.1432862,-36.28378,-38.95561,9.055396
22.135676861,-4.093911,-0.05515479,7.81508400000003,0.9570287,0.05340209,-0.1380202,-36.66022,-38.95515,9.439617
22.145674706,-4.770776,-1.538964,7.69314200000002,0.9576075,0.04856727,-0.1365843,-36.66022,-38.95515,9.439617
22.15567255,-4.955376,-3.20083,7.51023000000002,0.9834881,0.045677,-0.1366286,-36.66022,-38.95515,9.439617
22.165670872,-4.709243,-4.565935,6.90052199999999,0.9894173,0.0414777,-0.1304164,-36.66022,-38.95515,9.439617
22.175669193,-3.478579,-5.81233500000002,6.16887299999999,0.9971165,0.04638395,-0.1419169,-36.66022,-38.95515,9.439617
22.185667038,-2.617113,-6.82132499999999,5.437224,0.9941497,0.0488033,-0.136648,-36.29333,-38.57199,9.440371
22.19566536,-2.432514,-7.71161000000001,4.705575,0.993037,0.05601779,-0.1423909,-36.29333,-38.57199,9.440371
22.205663204,-2.247914,-8.89865800000003,3.851984,0.993084,0.05363288,-0.1376046,-36.29333,-38.57199,9.440371
22.215661049,-1.509515,-9.78894299999998,3.181306,0.9868243,0.0496129,-0.1385498,-36.29333,-38.57199,9.440371
22.225659847,-0.2788507,-10.44182,2.388686,0.9863081,0.0510079,-0.1442921,-36.29333,-38.57199,9.440371
22.235657692,1.25948,-10.32311,1.657037,0.9883279,0.04710763,-0.1500376,-36.67594,-38.19444,9.435561
22.245656014,2.797811,-9.67023799999998,0.925387699999998,0.9858353,0.04990385,-0.1576912,-36.67594,-38.19444,9.435561
22.255653858,3.659276,-8.89865800000003,0.0717969800000001,0.9823157,0.05565245,-0.1591222,-36.67594,-38.19444,9.435561
22.265651703,3.905409,-8.48319099999998,-0.2330568,0.9798431,0.05752982,-0.1610327,-36.67594,-38.19444,9.435561
22.275650501,3.843876,-8.245782,-0.720822899999998,0.9805437,0.0721263,-0.1605591,-36.67594,-38.19444,9.435561
22.285648346,2.982411,-7.94901899999999,-0.4159691,0.991622,0.07922731,-0.1519659,-37.05237,-38.19398,9.819783
22.295646191,2.244012,-7.65225799999999,-0.1111153,0.9959597,0.08172078,-0.154367,-37.05237,-38.19398,9.819783
22.305644512,1.628679,-7.11808599999999,0.2547093,1.011553,0.08142448,-0.1673156,-37.05237,-38.19398,9.819783
22.315642834,0.890280700000001,-6.64326800000002,0.7424754,1.020841,0.07955895,-0.1788172,-37.05237,-38.19398,9.819783
22.325641155,0.2749484,-6.88067700000001,0.803446099999999,1.02767,0.07922987,-0.1764361,-37.05237,-38.19398,9.819783
22.335639,-1.017249,-7.29614399999999,0.925387699999998,1.028693,0.07691687,-0.1659086,-37.0681,-37.43327,9.815727
22.345636845,-2.063314,-7.889668,0.803446099999999,1.020634,0.06518277,-0.15632,-37.0681,-37.43327,9.815727
22.355635166,-2.370981,-9.49218100000001,0.620533899999998,1.0106,0.05490697,-0.1424212,-37.0681,-37.43327,9.815727
22.365633488,-2.001781,-10.61988,0.1937385,0.9967036,0.04252774,-0.137608,-37.0681,-37.43327,9.815727
22.375631809,-1.571049,-11.56951,-0.4769399,0.9890357,0.03551165,-0.1442929,-37.06193,-37.81036,10.20476
22.385629654,-0.586516899999998,-12.51915,-1.330531,0.987656,0.03109776,-0.1457251,-37.06193,-37.81036,10.20476
22.395627499,0.1518819,-13.05332,-2.184121,0.9881955,0.0281182,-0.1538611,-37.06193,-37.81036,10.20476
22.405625343,0.767214200000001,-13.23138,-2.8548,0.9846403,0.03584057,-0.1519426,-37.06193,-37.81036,10.20476
22.415624142,0.5210813,-13.05332,-3.220624,0.9904849,0.03593411,-0.1543456,-37.06193,-37.81036,10.20476
22.425621986,0.0903486900000002,-12.04433,-3.159653,0.9895559,0.03347289,-0.1557791,-36.67932,-38.1879,10.20957
22.435620308,-0.3403839,-11.39146,-2.671887,0.9959801,0.02875794,-0.1538748,-36.67932,-38.1879,10.20957
22.445618153,-0.5249836,-10.56052,-2.306063,0.9946104,0.02388463,-0.1524354,-36.67932,-38.1879,10.20957
22.455615997,-0.7711166,-9.67023799999998,-1.513443,0.9993809,0.02931546,-0.1534023,-36.67932,-38.1879,10.20957
22.465614796,-0.955716300000001,-8.542543,-1.208589,1.002973,0.01967638,-0.1524489,-36.67932,-38.1879,10.20957
22.47561264,-1.140316,-7.65225799999999,-0.7817937,1.006402,0.018781,-0.1514975,-37.42292,-38.57007,10.65753
22.485610485,-0.832649800000001,-6.761972,-0.3549984,1.009742,0.02283102,-0.1409757,-37.42292,-38.57007,10.65753
22.495608807,-0.832649800000001,-5.396868,-0.1111153,1.007792,0.02277058,-0.1433652,-37.42292,-38.57007,10.65753
22.505606651,-0.894183000000003,-4.625287,0.1327677,1.005613,0.009156261,-0.1395293,-37.42292,-38.57007,10.65753
22.51560545,-0.1557842,-3.675649,0.3766508,1.011974,0.00784603,-0.1371471,-37.42292,-38.57007,10.65753
22.525603294,0.951813900000003,-3.141478,0.4985923,1.015006,0.002074637,-0.1371509,-37.42881,-38.19353,10.204
22.535601139,2.059412,-2.369897,0.5595631,1.013913,0.008370287,-0.1371506,-37.42881,-38.19353,10.204
22.545599461,2.305545,-1.895078,1.169271,1.009384,0.01606463,-0.1361876,-37.42881,-38.19353,10.204
22.555597782,2.182479,-1.123497,1.718008,1.002951,0.02129607,-0.134742,-37.42881,-38.19353,10.204
22.565596104,1.997879,-0.648678499999998,2.632569,0.9976826,0.01627992,-0.1404744,-37.42881,-38.19353,10.204
22.575593948,1.813279,-0.1145072,3.54713,0.9897253,0.02489159,-0.1380699,-36.30656,-38.18128,10.66385
22.585591793,1.628679,0.775778400000001,4.33975,0.9941545,0.02253623,-0.1395127,-36.30656,-38.18128,10.66385
22.595589638,1.690213,1.903473,4.888487,0.9947694,0.01574958,-0.1390335,-36.30656,-38.18128,10.66385
22.605588436,1.997879,2.912464,5.376253,0.9942085,0.01959971,-0.141905,-36.30656,-38.18128,10.66385
22.615586281,1.997879,4.218216,5.80304899999998,0.9931165,0.0259217,-0.1390332,-36.30656,-38.18128,10.66385
22.625584602,1.813279,4.930444,6.16887299999999,0.9969476,0.02934196,-0.1452623,-36.68916,-37.80373,10.65904
22.635582447,1.44408,5.642673,6.59566799999998,0.9988131,0.03372158,-0.1486167,-36.68916,-37.80373,10.65904
22.645580292,1.25948,6.23619700000001,6.65663900000001,0.9979401,0.02838529,-0.1457423,-36.68916,-37.80373,10.65904
22.65557909,1.25948,6.77036799999997,7.08343500000003,1.007597,0.03284867,-0.1567676,-36.68916,-37.80373,10.65904
22.665576935,1.136414,7.66065299999999,7.08343500000003,1.005136,0.03432806,-0.1491064,-36.68916,-37.80373,10.65904
22.675575256,1.25948,8.076119,7.26634699999998,1.003102,0.03855608,-0.1605898,-37.05773,-38.18364,11.04529
22.685573101,1.07488,8.31352900000002,7.26634699999998,1.003057,0.04100244,-0.1586761,-37.05773,-38.18364,11.04529
22.695570946,0.890280700000001,8.78834800000002,7.754113,1.001447,0.04866236,-0.1677682,-37.05773,-38.18364,11.04529
22.705569744,0.3364816,8.96640499999999,7.937025,0.9939312,0.05970368,-0.1663222,-37.05773,-38.18364,11.04529
22.715567589,-0.0942510000000003,8.254177,8.60770299999997,0.9786679,0.06818855,-0.1619906,-37.05773,-38.18364,11.04529
22.725565433,-1.263382,8.13547199999999,9.09546899999999,0.9694929,0.063568,-0.169152,-37.42881,-38.19353,10.204
22.735563755,-2.494047,7.36389100000001,9.339353,0.9743882,0.06211039,-0.1796888,-37.42881,-38.19353,10.204
22.745562077,-2.370981,6.88907200000001,9.339353,0.9658075,0.05160012,-0.194507,-37.42881,-38.19353,10.204
22.755560398,-2.063314,5.76137699999998,9.03449899999999,0.9657814,0.0530969,-0.1902002,-37.42881,-38.19353,10.204
22.765558243,-1.878715,4.811739,7.99799599999998,0.9688935,0.04288782,-0.1973816,-37.42881,-38.19353,10.204
22.775556087,-0.7711166,3.149873,6.41275599999997,0.9715339,0.03160542,-0.2146121,-37.45071,-37.05573,9.810918
22.785553932,1.567146,1.666064,4.156838,0.9790017,0.02290951,-0.2251515,-37.45071,-37.05573,9.810918
22.795552731,4.643808,0.4790165,1.778978,0.9749752,0.02957612,-0.2313677,-37.45071,-37.05573,9.810918
22.805550575,6.92053700000001,-0.648678499999998,-0.659852100000001,0.9777596,0.03687639,-0.2361602,-37.45071,-37.05573,9.810918
22.815548897,7.59740300000001,-1.479612,-3.037712,0.9751157,0.04804467,-0.2313727,-37.45071,-37.05573,9.810918
22.825546741,7.59740300000001,-2.904068,-5.659454,0.9726442,0.04995716,-0.2294546,-37.4524,-37.05246,10.19792
22.835544586,7.843536,-4.387877,-7.48857699999998,0.9662863,0.05135078,-0.2227438,-37.4524,-37.05246,10.19792
22.845543385,7.47433699999998,-5.87168699999998,-9.07381699999998,0.9714475,0.06225751,-0.2103126,-37.4524,-37.05246,10.19792
22.855541229,6.36673800000001,-7.47420100000002,-10.11032,0.9697732,0.07407565,-0.189734,-37.4524,-37.05246,10.19792
22.865539551,3.53621,-9.90764799999999,-10.84197,0.9665916,0.08828054,-0.170589,-37.4524,-37.05246,10.19792
22.875537395,0.0903486900000002,-12.5785,-10.90294,0.957926,0.1092417,-0.1447362,-37.84653,-36.28748,11.02959
22.88553524,-4.64771,-15.19001,-10.47614,0.9670392,0.117324,-0.1308755,-37.84653,-36.28748,11.02959
22.895534039,-9.508835,-17.50475,-10.04935,0.9826267,0.1176364,-0.1304242,-37.84653,-36.28748,11.02959
22.905531883,-13.81616,-19.16662,-9.92740700000002,1.004298,0.1054739,-0.1256731,-37.84653,-36.28748,11.02959
22.915529728,-16.40056,-19.81949,-10.11032,1.02419,0.08389426,-0.137188,-37.08132,-37.04257,11.0392
22.925528049,-16.70822,-19.46338,-10.72003,1.041049,0.06809039,-0.1482206,-37.08132,-37.04257,11.0392
22.935526371,-14.98529,-17.97957,-11.32973,1.060318,0.05381827,-0.1563863,-37.08132,-37.04257,11.0392
22.945524693,-12.0317,-15.30871,-12.00041,1.072702,0.04278101,-0.1678908,-37.08132,-37.04257,11.0392
22.955522537,-8.58583600000001,-12.28174,-12.18333,1.094101,0.04522651,-0.1593144,-37.08132,-37.04257,11.0392
22.965520382,-5.632242,-8.77995300000002,-12.30527,1.078935,0.048289,-0.163596,-37.07177,-37.42619,10.65423
22.975518703,-4.032378,-5.75298199999998,-12.18333,1.063392,0.04551712,-0.1673968,-37.07177,-37.42619,10.65423
22.985517025,-2.92478,-2.547954,-11.93944,1.039793,0.03108137,-0.1539518,-37.07177,-37.42619,10.65423
22.995515347,-0.709583300000001,-0.2332119,-11.8175,1.020002,0.02091451,-0.1601361,-37.07177,-37.42619,10.65423
23.005513191,1.628679,1.903473,-11.69556,1.003333,0.02650422,-0.150537,-37.07177,-37.42619,10.65423
23.015511036,3.843876,3.980806,-11.51265,0.9873852,0.01934647,-0.1548145,-36.67344,-38.56445,10.6631
23.025508881,5.505273,6.473606,-11.57362,0.9825864,0.0153422,-0.157198,-36.67344,-38.56445,10.6631
23.035507679,6.24367199999998,9.32251899999998,-11.8175,0.9811966,0.01138334,-0.1619803,-36.67344,-38.56445,10.6631
23.045505524,6.36673800000001,11.99338,-11.87847,0.9900994,0.004204315,-0.1691726,-36.67344,-38.56445,10.6631
23.055503845,5.81293900000002,14.36747,-11.93944,0.9924913,0.00674269,-0.1624774,-36.67344,-38.56445,10.6631
23.06550169,4.705341,16.3261,-11.45168,0.9993196,0.006378495,-0.163925,-36.30038,-38.55836,11.05288
23.075500488,2.367078,17.5725,-10.84197,1.01499,0.002327774,-0.1625155,-36.30038,-38.55836,11.05288
23.085498333,0.767214200000001,18.52213,-9.92740700000002,1.028759,-0.004133193,-0.1548806,-36.30038,-38.55836,11.05288
23.095496178,0.0903486900000002,18.99695,-8.64702100000002,1.039161,-0.01315178,-0.1539393,-36.30038,-38.55836,11.05288
23.105494022,0.2749484,19.17501,-7.00081100000001,1.034842,-0.01661239,-0.1510594,-36.30038,-38.55836,11.05288
23.115492344,0.2749484,18.75954,-5.3546,1.033226,-0.008370149,-0.149623,-35.53937,-38.94018,10.22196
23.125490665,0.3980148,18.22537,-3.891303,1.019552,-0.006639512,-0.1433781,-35.53937,-38.94018,10.22196
23.135488987,0.644147799999998,17.80991,-2.184121,1.006753,0.0004669161,-0.1357004,-35.53937,-38.94018,10.22196
23.145486832,0.644147799999998,17.80991,-0.598881400000002,0.990137,0.003067441,-0.1342364,-35.53937,-38.94018,10.22196
23.155484676,1.07488,17.92861,0.986358399999998,0.9867546,0.00154279,-0.1342301,-35.53937,-38.94018,10.22196
23.165482998,3.105477,18.34408,2.632569,0.982074,-0.00878955,-0.1380479,-35.90823,-39.31953,10.67271
23.175481319,5.81293900000002,18.8189,3.669072,0.9852408,-0.0219132,-0.1452287,-35.90823,-39.31953,10.67271
23.185479641,8.58193500000002,18.58149,4.949458,0.9817233,-0.01609876,-0.1394811,-35.90823,-39.31953,10.67271
23.195477486,10.42793,17.92861,6.16887299999999,0.9739618,0.008084452,-0.1351666,-35.90823,-39.31953,10.67271
23.20547533,10.85866,16.80092,7.38828800000001,0.9691963,0.02845248,-0.1294206,-35.90823,-39.31953,10.67271
23.215474129,9.87413200000002,15.25776,8.42479100000002,0.9664606,0.04446521,-0.12607,-35.91242,-38.94626,9.832181
23.225471973,8.705001,13.53654,9.46129399999998,0.9604411,0.05355285,-0.1289333,-35.91242,-38.94626,9.832181
23.235469818,7.28973700000001,11.57791,10.19294,0.9587043,0.06803977,-0.1351555,-35.91242,-38.94626,9.832181
23.24546814,4.643808,9.85669000000001,10.4978,0.9510714,0.08545304,-0.1274894,-35.91242,-38.94626,9.832181
23.255465984,1.690213,7.66065299999999,10.61974,0.9427177,0.08917552,-0.1274758,-35.91242,-38.94626,9.832181
23.265464783,-0.7711166,5.82073000000003,10.55877,0.9394333,0.08223289,-0.1356041,-35.90456,-39.32661,9.834208
23.275462627,-2.124848,4.336921,10.13197,0.9404583,0.07921467,-0.1490052,-35.90456,-39.32661,9.834208
23.285460472,-2.863246,2.971816,9.70517700000002,0.9454123,0.07496539,-0.1461413,-35.90456,-39.32661,9.834208
23.295458794,-3.355512,1.725416,8.85158600000001,0.9503241,0.0724792,-0.1628994,-35.90456,-39.32661,9.834208
23.305456638,-3.724712,0.1822547,7.87605399999997,0.9543217,0.06722598,-0.1614693,-35.90456,-39.32661,9.834208
23.31545496,-2.92478,-1.004793,6.71760999999998,0.9662084,0.05662536,-0.1772803,-36.29502,-38.56872,9.827372
23.325453281,-0.894183000000003,-2.073135,5.376253,0.9692041,0.05279702,-0.1772845,-36.29502,-38.56872,9.827372
23.335451126,1.25948,-2.904068,4.095867,0.974371,0.06311265,-0.1763391,-36.29502,-38.56872,9.827372
23.345448971,2.367078,-4.091116,2.937423,0.9712132,0.07575053,-0.1691581,-36.29502,-38.56872,9.827372
23.355447769,2.182479,-5.75298199999998,2.083832,0.9774747,0.07982757,-0.1619915,-36.29502,-38.56872,9.827372
23.365445614,1.197947,-7.83031500000001,1.352183,0.9836899,0.08631147,-0.1572182,-36.68381,-37.81409,9.433534
23.375443935,0.2749484,-9.551534,1.047329,0.9953727,0.0870677,-0.1529316,-36.68381,-37.81409,9.433534
23.38544178,-0.2173175,-11.0947,0.4376215,1.008649,0.08042154,-0.1644389,-36.68381,-37.81409,9.433534
23.395439625,-0.894183000000003,-12.10369,0.0717969800000001,1.012633,0.07550047,-0.179759,-36.68381,-37.81409,9.433534
23.405438423,-1.447982,-12.99397,-0.5379106,1.015039,0.07696638,-0.1840707,-36.68381,-37.81409,9.433534
23.415436268,-1.509515,-13.29073,-1.147618,1.017692,0.06529917,-0.1902938,-36.67763,-38.19117,9.822563
23.425434113,-0.832649800000001,-13.76555,-1.940238,1.013721,0.06905998,-0.1955522,-36.67763,-38.19117,9.822563
23.435432434,-0.1557842,-13.46879,-2.793829,1.017184,0.06616889,-0.2003433,-36.67763,-38.19117,9.822563
23.445430756,0.4595481,-13.17203,-3.098683,1.015253,0.06515009,-0.2012968,-36.67763,-38.19117,9.822563
23.455429077,1.44408,-12.51915,-3.464507,1.018699,0.06324808,-0.2041738,-36.67763,-38.19117,9.822563
23.465426922,2.551678,-11.56951,-3.769361,1.025039,0.06286109,-0.2070562,-37.06193,-37.81036,10.20476
23.475424767,3.53621,-11.27275,-4.074214,1.025451,0.06668657,-0.2147151,-37.06193,-37.81036,10.20476
23.485423088,3.597743,-11.2134,-4.013244,1.012544,0.07966603,-0.202253,-37.06193,-37.81036,10.20476
23.49542141,2.982411,-11.56951,-3.647419,1.006059,0.08788665,-0.1926723,-37.06193,-37.81036,10.20476
23.505419731,1.874812,-12.51915,-3.464507,1.002646,0.08848939,-0.1725662,-37.0462,-38.57108,10.20881
23.515417576,1.07488,-13.35009,-2.91577,1.005253,0.07923343,-0.1807042,-37.0462,-38.57108,10.20881
23.525415421,0.0903486900000002,-14.47778,-2.245092,1.006329,0.07396636,-0.1744833,-37.0462,-38.57108,10.20881
23.535413265,-1.078783,-15.36807,-1.879267,1.000104,0.06794628,-0.1816495,-37.0462,-38.57108,10.20881
23.545412064,-2.124848,-16.49576,-1.696355,0.9928448,0.06543017,-0.1754147,-37.0462,-38.57108,10.20881
23.555409908,-2.92478,-17.26734,-1.635384,0.993046,0.05475659,-0.1739766,-36.30825,-38.17801,11.05085
23.56540823,-3.355512,-18.03892,-1.574414,0.990875,0.0406214,-0.1739691,-36.30825,-38.17801,11.05085
23.575406075,-2.986313,-18.45439,-1.818297,0.9802437,0.03612999,-0.1638994,-36.30825,-38.17801,11.05085
23.585404873,-2.74018,-18.6918,-1.757326,0.9754906,0.0297013,-0.1658037,-36.30825,-38.17801,11.05085
23.595402718,-2.678647,-18.5731,-1.940238,0.9726936,0.02277706,-0.1729757,-36.30825,-38.17801,11.05085
23.605400562,-2.186381,-18.51374,-1.879267,0.9693308,0.02032039,-0.168662,-35.92734,-38.55228,11.44266
23.615398884,-2.247914,-18.33569,-2.06218,0.9688381,0.02090625,-0.1566969,-35.92734,-38.55228,11.44266
23.625396728,-2.063314,-17.86087,-2.123151,0.9714357,0.01214483,-0.1638778,-35.92734,-38.55228,11.44266
23.63539505,-1.694115,-17.20799,-2.428004,0.9690748,0.008263295,-0.1581298,-35.92734,-38.55228,11.44266
23.645393371,-0.709583300000001,-16.37706,-2.184121,0.9715385,0.006876076,-0.1557409,-35.92734,-38.55228,11.44266
23.655391216,-0.03271778,-15.30871,-2.610917,0.9822454,0.007564782,-0.1567169,-36.68468,-38.17755,11.43507
23.665389061,0.3364816,-13.94361,-2.793829,0.9837691,0.004145042,-0.161983,-36.68468,-38.17755,11.43507
23.675387859,0.644147799999998,-12.75656,-2.732858,0.9881728,0.003308416,-0.1567261,-36.68468,-38.17755,11.43507
23.685385704,0.890280700000001,-11.62887,-2.428004,0.9866289,0.00763384,-0.1586388,-36.68468,-38.17755,11.43507
23.695384026,0.705681,-10.56052,-2.123151,0.9962288,0.01571701,-0.1457361,-36.68468,-38.17755,11.43507
23.70538187,0.4595481,-9.551534,-1.330531,0.994759,0.01619584,-0.1433408,-35.55457,-38.54566,11.89694
23.715379715,-0.1557842,-8.364487,-0.5379106,0.9994398,0.02652818,-0.139523,-35.55457,-38.54566,11.89694
23.725378513,-0.4019172,-6.88067700000001,0.4376215,1.000413,0.02650353,-0.1443104,-35.55457,-38.54566,11.89694
23.735376358,-0.894183000000003,-5.159458,1.657037,1.006728,0.0276265,-0.1414503,-35.55457,-38.54566,11.89694
23.745374203,-0.832649800000001,-3.319535,2.449656,1.010669,0.02525274,-0.1438494,-35.55457,-38.54566,11.89694
23.755372524,-0.6480501,-1.657669,3.48616,1.013995,0.02963051,-0.1505564,-36.30744,-38.54475,12.66539
23.765370369,0.02881546,0.2416071,4.522663,1.018389,0.02924892,-0.1486496,-36.30744,-38.54475,12.66539
23.775369167,0.5826145,2.259588,5.437224,1.027643,0.02940105,-0.1520159,-36.30744,-38.54475,12.66539
23.785367012,0.767214200000001,4.099511,6.473727,1.028462,0.03769141,-0.1505837,-36.30744,-38.54475,12.66539
23.795364857,1.013347,6.05813900000001,7.32731800000001,1.027084,0.0333214,-0.1472301,-36.30744,-38.54475,12.66539
23.805363178,1.567146,7.89806300000001,8.24187900000002,1.028395,0.04098201,-0.1625488,-35.93101,-38.5452,12.28116
23.8153615,1.690213,9.85669000000001,8.85158600000001,1.025278,0.05104624,-0.1711604,-35.93101,-38.5452,12.28116
23.825359821,1.505613,11.57791,9.15644099999999,1.023755,0.05449232,-0.1630228,-35.93101,-38.5452,12.28116
23.835357666,1.013347,12.94301,9.82711900000002,1.015834,0.06115217,-0.161575,-35.93101,-38.5452,12.28116
23.845355511,0.3364816,14.01136,10.071,1.009961,0.06247202,-0.163958,-35.93101,-38.5452,12.28116
23.855353355,0.02881546,14.66423,10.37586,1.002572,0.0666995,-0.1639462,-36.30405,-38.55128,11.89138
23.865352154,-0.7711166,15.0797,10.61974,1.000127,0.06712838,-0.1648992,-36.30405,-38.55128,11.89138
23.875349998,-1.509515,15.49516,10.68071,0.9889053,0.06787416,-0.1653584,-36.30405,-38.55128,11.89138
23.88534832,-1.755648,15.85128,10.37586,0.9883146,0.07310696,-0.1763659,-36.30405,-38.55128,11.89138
23.895346165,-1.817181,16.50415,9.76614900000002,0.9834239,0.07394274,-0.1806648,-36.30405,-38.55128,11.89138
23.905344963,-2.309447,16.62286,9.09546899999999,0.9775516,0.07529332,-0.1796978,-36.67879,-38.5541,11.8886
23.915342808,-2.617113,16.74156,8.54673300000003,0.9711479,0.07910696,-0.1739447,-36.67879,-38.5541,11.8886
23.925340652,-3.293979,16.68221,7.44925899999998,0.9711398,0.07962345,-0.1705948,-36.67879,-38.5541,11.8886
23.935338497,-3.663178,16.62286,6.22984400000002,0.965784,0.07959221,-0.1624496,-36.67879,-38.5541,11.8886
23.945336819,-4.155444,16.20739,5.0714,0.9707369,0.07530782,-0.1634143,-36.67879,-38.5541,11.8886
23.95533514,-4.64771,16.26675,3.48616,0.9837015,0.05948841,-0.16774,-37.07346,-37.42292,11.04123
23.965333462,-3.970845,16.68221,1.657037,1.017279,0.03578892,-0.1749711,-37.07346,-37.42292,11.04123
23.975331306,-1.694115,16.91962,-0.3549984,1.048214,0.02330601,-0.1721504,-37.07346,-37.42292,11.04123
23.985329151,1.321013,17.39444,-2.06218,1.052947,0.03066233,-0.1750319,-37.07346,-37.42292,11.04123
23.99532795,2.982411,17.21638,-3.342566,1.055095,0.04636893,-0.1625968,-37.07346,-37.42292,11.04123
24.005325794,3.043944,17.09768,-4.074214,1.040357,0.05299938,-0.1496512,-37.4482,-37.42574,11.03845
24.015324116,3.105477,16.97897,-4.196156,1.028954,0.06348673,-0.1472411,-37.4482,-37.42574,11.03845
24.02532196,3.043944,16.91962,-4.50101,1.03969,0.06200415,-0.1731026,-37.4482,-37.42574,11.03845
24.035319805,4.705341,17.21638,-4.561981,1.049222,0.02051459,-0.2137875,-37.4482,-37.42574,11.03845
24.045318604,9.38186599999998,18.40343,-5.476542,1.028224,-0.004088632,-0.2549021,-36.70291,-37.04684,10.20348
24.055316448,13.81226,19.53113,-6.20819099999998,0.9894567,0.0101219,-0.2644097,-36.70291,-37.04684,10.20348
24.065314293,15.35059,19.47177,-7.42760699999997,0.9352922,0.01455066,-0.2475663,-36.70291,-37.04684,10.20348
24.075312614,15.53519,18.34408,-8.098285,0.888876,0.02156659,-0.2302584,-36.70291,-37.04684,10.20348
24.085310936,16.51972,16.3261,-8.46410900000001,0.8562656,0.02018728,-0.2043581,-36.70291,-37.04684,10.20348
24.095309258,16.82739,13.65524,-8.22022599999998,0.8367632,0.04719455,-0.1847094,-36.69703,-37.42338,10.65701
24.105307102,13.99686,9.97539500000001,-7.73246000000002,0.8374753,0.08779179,-0.1574423,-36.69703,-37.42338,10.65701
24.115304947,7.65893599999998,5.345911,-7.366636,0.859773,0.1204843,-0.137868,-36.69703,-37.42338,10.65701
24.125303268,-0.832649800000001,0.4196641,-6.45207400000002,0.9116213,0.1361352,-0.132698,-36.69703,-37.42338,10.65701
24.13530159,-9.324236,-3.853706,-5.476542,0.9746122,0.1290836,-0.1366346,-36.69703,-37.42338,10.65701
24.145299912,-16.46209,-7.83031500000001,-4.379068,1.024467,0.1207085,-0.1505981,-37.0639,-37.80655,10.65626
24.155297756,-22.30775,-11.3321,-3.586449,1.057999,0.09945973,-0.1554368,-37.0639,-37.80655,10.65626
24.165295601,-26.55354,-14.12167,-2.732858,1.086654,0.07867514,-0.1521314,-37.0639,-37.80655,10.65626
24.175293446,-28.338,-15.90224,-2.245092,1.089443,0.05970396,-0.1602672,-37.0639,-37.80655,10.65626
24.185292244,-27.59961,-16.199,-1.696355,1.082004,0.04059651,-0.1612065,-37.0639,-37.80655,10.65626
24.195290089,-25.99974,-15.19001,-1.513443,1.06521,0.02661447,-0.1659593,-37.05237,-38.19398,9.819783
24.20528841,-23.35381,-13.40944,-1.452472,1.036781,0.009539557,-0.1649482,-37.05237,-38.19398,9.819783
24.215286255,-19.60028,-11.03534,-1.635384,1.013123,-0.002078184,-0.1620325,-37.05237,-38.19398,9.819783
24.225285053,-14.98529,-8.18642900000001,-2.488975,0.9861277,-0.0176845,-0.1629386,-37.05237,-38.19398,9.819783
24.235282898,-9.57036899999999,-5.100106,-3.037712,0.9692402,-0.02685721,-0.1729569,-37.05237,-38.19398,9.819783
24.245280743,-3.540112,-1.95443,-4.135185,0.9630342,-0.03382686,-0.1777301,-35.92645,-38.18882,9.441123
24.255278587,2.920877,1.013188,-5.110718,0.964081,-0.03770688,-0.1791666,-35.92645,-38.18882,9.441123
24.265277386,8.33580199999998,3.387283,-6.39110400000002,0.9683003,-0.02888973,-0.180612,-35.92645,-38.18882,9.441123
24.27527523,12.2124,4.871092,-7.244694,0.9717988,-0.007342678,-0.1700949,-35.92645,-38.18882,9.441123
24.285273552,14.05839,5.702025,-7.73246000000002,0.9807171,0.01083968,-0.1672437,-35.92645,-38.18882,9.441123
24.295271397,14.48913,6.17684400000002,-8.22022599999998,0.9960091,0.02658227,-0.1792388,-36.66638,-38.57807,9.050588
24.305269241,13.62766,6.53295800000002,-8.58605100000002,1.008261,0.02296311,-0.1763878,-36.66638,-38.57807,9.050588
24.31526804,12.76619,6.473606,-8.890904,1.020849,0.02700286,-0.1869394,-36.66638,-38.57807,9.050588
24.325265884,12.15086,6.23619700000001,-9.01284600000001,1.031931,0.03345132,-0.196532,-36.66638,-38.57807,9.050588
24.335264206,11.2894,5.702025,-9.07381699999998,1.03731,0.03263394,-0.1912768,-36.66638,-38.57807,9.050588
24.345262051,10.67406,4.871092,-8.829934,1.026891,0.04271184,-0.1826468,-36.29502,-38.56872,9.827372
24.355260849,9.32033300000002,3.446635,-8.28119799999998,1.021996,0.04419138,-0.1697171,-36.29502,-38.56872,9.827372
24.365258694,7.59740300000001,2.259588,-7.12275300000002,1.008068,0.05954529,-0.1610824,-36.29502,-38.56872,9.827372
24.375256538,6.05907200000001,0.775778400000001,-5.84236700000003,0.9953514,0.06230181,-0.1510109,-36.29502,-38.56872,9.827372
24.385254383,5.074541,-0.826735599999998,-4.257127,0.982872,0.07807378,-0.1529075,-36.29502,-38.56872,9.827372
24.395252705,4.336142,-2.013783,-2.91577,0.9742835,0.09450506,-0.1442824,-35.92028,-38.5659,9.830153
24.405251026,3.659276,-2.963421,-1.391501,0.9681013,0.1123847,-0.1418833,-35.92028,-38.5659,9.830153
24.415249348,1.936346,-4.387877,-0.1111153,0.9765229,0.1310256,-0.1409457,-35.92028,-38.5659,9.830153
24.425247192,0.1518819,-4.981401,1.291212,0.977168,0.1485104,-0.1433442,-35.92028,-38.5659,9.830153
24.435245037,-3.293979,-5.574925,2.510627,0.9655907,0.168214,-0.1423719,-35.92028,-38.5659,9.830153
24.445243836,-7.84743800000001,-6.88067700000001,3.364218,0.9531978,0.1797502,-0.1294317,-35.92197,-38.56264,10.21715
24.45524168,-12.5855,-9.67023799999998,3.912955,0.9275473,0.1705622,-0.122206,-35.92197,-38.56264,10.21715
24.465239525,-15.72369,-11.68822,3.608101,0.923963,0.1540396,-0.1145383,-35.92197,-38.56264,10.21715
24.475237846,-16.89282,-13.52814,2.327715,0.9173895,0.1407805,-0.1154806,-35.92197,-38.56264,10.21715
24.485235691,-16.27749,-14.35908,0.681504599999997,0.9171832,0.1256465,-0.1226549,-35.92197,-38.56264,10.21715
24.49523449,-15.29296,-15.01195,-1.208589,0.9151596,0.1294282,-0.129831,-35.91412,-38.94299,10.21918
24.505232334,-14.80069,-14.9526,-3.464507,0.9348633,0.1438089,-0.1408763,-35.91412,-38.94299,10.21918
24.515230179,-15.90829,-14.41843,-5.476542,0.9499387,0.1456392,-0.1327673,-35.91412,-38.94299,10.21918
24.5252285,-18.00042,-14.59649,-7.06178199999999,0.9593403,0.1380718,-0.1303889,-35.91412,-38.94299,10.21918
24.535226822,-20.03102,-15.0713,-8.34216799999998,0.9645231,0.1217004,-0.1251293,-35.91412,-38.94299,10.21918
24.545225144,-20.83095,-15.54612,-9.80546599999998,0.9663876,0.1004085,-0.1193842,-36.28716,-38.94907,9.8294
24.555222988,-20.83095,-16.79252,-11.32973,0.9745563,0.08067256,-0.1165219,-36.28716,-38.94907,9.8294
24.565220833,-19.60028,-17.92022,-13.34177,0.9940829,0.05288251,-0.1155916,-36.28716,-38.94907,9.8294
24.575218678,-16.40056,-18.45439,-15.71963,1.029254,0.02178063,-0.1386166,-36.28716,-38.94907,9.8294
24.585217476,-11.1087,-18.09828,-18.21943,1.050045,0.004066826,-0.1544413,-35.8967,-39.70697,9.836237
24.595215321,-5.139976,-16.73317,-20.96312,1.067963,0.009608271,-0.1717027,-35.8967,-39.70697,9.836237
24.605213642,0.02881546,-14.47778,-23.52389,1.08293,0.01654926,-0.1889593,-35.8967,-39.70697,9.836237
24.615211487,4.151542,-10.91664,-25.71884,1.088789,0.0155396,-0.2057194,-35.8967,-39.70697,9.836237
24.625210285,8.21273500000003,-7.236791,-27.48699,1.091578,-0.003435979,-0.2143337,-35.8967,-39.70697,9.836237
24.63520813,13.31999,-3.913059,-28.46252,1.089849,-0.01510641,-0.2114563,-35.50454,-40.46814,9.456072
24.645205974,18.98105,-1.598316,-28.7064,1.073946,-0.02471491,-0.2181261,-35.50454,-40.46814,9.456072
24.655204296,23.96524,-0.2332119,-27.79184,1.06237,-0.00498493,-0.2142824,-35.50454,-40.46814,9.456072
24.665202141,26.36504,0.06354995,-25.77981,1.054832,0.0333301,-0.2061434,-35.50454,-40.46814,9.456072
24.675200939,26.36504,-0.05515479,-22.97515,1.050976,0.05709137,-0.2032713,-35.50454,-40.46814,9.456072
24.685198784,25.01131,-0.589326100000003,-19.92661,1.044367,0.07145571,-0.2123564,-34.74638,-41.20961,11.0782
24.695196628,23.96524,-1.18285,-16.08545,1.023339,0.1010326,-0.2271632,-34.74638,-41.20961,11.0782
24.705194473,20.82705,-1.895078,-12.42721,1.006683,0.1319091,-0.2156563,-34.74638,-41.20961,11.0782
24.715193272,14.67372,-2.547954,-8.40313799999999,0.9741338,0.1526738,-0.2127335,-34.74638,-41.20961,11.0782
24.725191116,7.04360400000002,-3.794354,-4.257127,0.9376954,0.1472041,-0.2007041,-34.74638,-41.20961,11.0782
24.735189438,1.136414,-5.515573,-0.720822899999998,0.9103117,0.1262009,-0.2063939,-33.24124,-41.57545,11.47835
24.745187283,-2.247914,-7.59290600000003,2.998394,0.8924835,0.08932849,-0.2144891,-33.24124,-41.57545,11.47835
24.755186081,-3.293979,-9.848295,5.92499000000001,0.8857877,0.08226581,-0.2283543,-33.24124,-41.57545,11.47835
24.765183926,-3.724712,-11.3321,7.937025,0.8904037,0.09597653,-0.2269302,-33.24124,-41.57545,11.47835
24.77518177,-5.139976,-12.40045,8.85158600000001,0.8968485,0.1160055,-0.2293395,-33.24124,-41.57545,11.47835
24.785179615,-7.539772,-12.63786,8.97352800000002,0.9024552,0.1287069,-0.2341383,-33.98484,-41.95761,11.92632
24.795177937,-9.63190200000001,-12.81591,8.79061600000001,0.9200006,0.1285808,-0.2327331,-33.98484,-41.95761,11.92632
24.805176258,-10.24723,-12.99397,7.69314200000002,0.9226151,0.1188039,-0.2446995,-33.98484,-41.95761,11.92632
24.81517458,-9.44730199999998,-13.11268,6.35178600000003,0.9363561,0.1137827,-0.2389793,-33.98484,-41.95761,11.92632
24.825172424,-7.84743800000001,-12.75656,4.766546,0.9544619,0.1097889,-0.2366169,-33.98484,-41.95761,11.92632
24.835170269,-6.24757399999999,-12.5785,3.059364,0.97097,0.1130658,-0.232818,-33.61009,-41.9548,11.9291
24.845169067,-5.078443,-12.28174,1.535095,0.9860246,0.1157885,-0.2333235,-33.61009,-41.9548,11.9291
24.855166912,-4.340044,-11.74757,0.0717969800000001,1.007547,0.1113061,-0.2386242,-33.61009,-41.9548,11.9291
24.865165234,-3.232446,-10.85729,-1.574414,1.024006,0.09124365,-0.2362548,-33.61009,-41.9548,11.9291
24.875163078,-1.078783,-9.78894299999998,-2.8548,1.033931,0.081756,-0.2324411,-33.61009,-41.9548,11.9291
24.885160923,1.628679,-8.66124800000001,-3.830332,1.041186,0.08492027,-0.2209687,-33.25277,-41.18801,12.31483
24.895159721,3.413143,-7.35549600000001,-4.379068,1.033388,0.08538812,-0.2061194,-33.25277,-41.18801,12.31483
24.905157566,3.843876,-6.46521000000002,-4.379068,1.028439,0.08980419,-0.1907975,-33.25277,-41.18801,12.31483
24.915155411,3.53621,-5.337515,-3.70839,1.017681,0.09213538,-0.1783363,-33.25277,-41.18801,12.31483
24.925153732,2.305545,-4.150468,-2.367033,1.003209,0.08470071,-0.1629948,-33.25277,-41.18801,12.31483
24.935152054,1.013347,-2.607306,-0.7817937,0.9951395,0.07341287,-0.1577134,-34.00843,-40.81654,11.92023
24.945150375,-0.2788507,-0.589326100000003,0.4985923,1.006984,0.03970993,-0.149111,-34.00843,-40.81654,11.92023
24.95514822,0.02881546,2.022178,1.657037,1.012232,-0.006434172,-0.1582013,-34.00843,-40.81654,11.92023
24.965146065,1.936346,4.752387,2.144803,1.04182,-0.05104217,-0.1582413,-34.00843,-40.81654,11.92023
24.975144863,5.44374,8.66964300000001,1.96189,1.091974,-0.1267774,-0.1525664,-34.00843,-40.81654,11.92023
24.985142708,13.75073,12.34949,2.205774,1.104845,-0.1634634,-0.1535365,-33.61965,-41.57117,12.31407
24.995140553,24.94977,16.3261,3.425189,1.140125,-0.1475838,-0.1406805,-33.61965,-41.57117,12.31407
25.005138874,33.01062,21.54911,6.96149300000002,1.211566,-0.08457524,-0.1006209,-33.61965,-41.57117,12.31407
25.015136719,34.85662,28.96815,12.5708,1.305754,-0.01261062,-0.033803,-33.61965,-41.57117,12.31407
25.025135517,30.42623,38.22712,20.43603,1.378443,0.03584435,0.006258192,-33.61965,-41.57117,12.31407
25.035133362,20.64245,46.41775,28.97194,1.394702,0.05289812,0.02919711,-34.36297,-41.95388,12.69754
25.045131207,11.8432,54.19291,37.20299,1.433572,0.007024472,0.03009831,-34.36297,-41.95388,12.69754
25.055129528,8.21273500000003,62.08677,44.70239,1.446734,-0.02035808,-0.01681804,-34.36297,-41.95388,12.69754
25.06512785,7.65893599999998,70.0993399999999,50.55559,1.513191,-0.05586699,-0.004960344,-34.36297,-41.95388,12.69754
25.075126171,10.3664,79.2989599999999,54.88451,1.608053,-0.1255403,-0.01755075,-34.36297,-41.95388,12.69754
25.085124016,18.36572,86.4806000000001,56.34781,1.693318,-0.1775724,-0.04640056,-34.7638,-40.44563,11.46114
25.095121861,32.14916,91.2287799999999,57.26237,1.717317,-0.1845628,-0.06558364,-34.7638,-40.44563,11.46114
25.105119705,44.39427,93.5435299999999,57.9940199999999,1.662488,-0.1197642,-0.08799782,-34.7638,-40.44563,11.46114
25.115118504,47.9632,93.36547,58.1159599999998,1.538304,-0.02028843,-0.1007285,-34.7638,-40.44563,11.46114
25.125116348,42.97901,92.89065,57.7501400000001,1.440631,0.04281028,-0.110146,-34.7638,-40.44563,11.46114
25.13511467,34.24129,92.1784199999999,57.87208,1.351861,0.09870803,-0.1291487,-36.28099,-39.32616,10.21843
25.145112515,21.25778,90.5165600000001,57.9330499999999,1.231814,0.1336792,-0.1370842,-36.28099,-39.32616,10.21843
25.155111313,6.48980500000002,88.0831099999999,57.8111100000001,1.131977,0.1307962,-0.1302094,-36.28099,-39.32616,10.21843
25.165109158,-4.83231,85.05614,56.7746,1.039793,0.1095812,-0.1252574,-36.28099,-39.32616,10.21843
25.175107002,-11.72403,81.6730499999997,55.31131,0.9444846,0.09895997,-0.1241314,-37.84117,-36.29783,9.804082
25.185105324,-17.13896,78.8241399999998,53.48218,0.8858101,0.08373914,-0.1206752,-37.84117,-36.29783,9.804082
25.195103645,-20.09255,77.7558000000002,51.83597,0.8203178,0.06843624,-0.1114641,-37.84117,-36.29783,9.804082
25.205101967,-20.89248,76.6874500000003,49.82394,0.7128586,0.05610839,-0.1112736,-37.84117,-36.29783,9.804082
25.215099812,-19.10802,74.66947,47.62899,0.6089675,0.03569531,-0.0996014,-37.84117,-36.29783,9.804082
25.225097656,-15.29296,72.5327900000001,44.88531,0.5459335,0.01960946,-0.07508,-39.7536,-34.0461,7.843001
25.235095501,-8.46277000000003,71.3457400000001,41.40997,0.4903594,-0.004647031,-0.05679098,-39.7536,-34.0461,7.843001
25.245094299,1.136414,70.6928600000001,37.99561,0.4404892,0.00477423,-0.03469197,-39.7536,-34.0461,7.843001
25.255092144,10.48946,69.9212900000002,34.94707,0.4087232,0.03578985,-0.02842309,-39.7536,-34.0461,7.843001
25.265090466,19.35025,68.3187700000002,32.63018,0.3649105,0.0590985,-0.04175285,-39.7536,-34.0461,7.843001
25.27508831,25.81124,66.0040299999998,30.19135,0.3608082,0.06956343,-0.0575414,-40.90642,-32.17347,5.373507
25.285087109,29.68783,63.2738200000001,27.69155,0.3623061,0.09329449,-0.06951452,-40.90642,-32.17347,5.373507
25.295084953,31.84149,59.0598000000002,24.76495,0.3564054,0.1217169,-0.08386883,-40.90642,-32.17347,5.373507
25.305082798,31.1031,54.25226,21.89933,0.321172,0.1554919,-0.08716614,-40.90642,-32.17347,5.373507
25.315080643,27.10344,48.79184,18.91176,0.2836688,0.1805234,-0.0851929,-40.90642,-32.17347,5.373507
25.325079441,20.70398,42.44114,15.98516,0.264061,0.1862997,-0.1019104,-40.95779,-29.51806,4.520807
25.335077286,14.55066,35.73433,13.11954,0.2614644,0.1422637,-0.1291734,-40.95779,-29.51806,4.520807
25.345075607,9.87413200000002,27.42499,10.43683,0.3167171,0.1578151,-0.1421952,-40.95779,-29.51806,4.520807
25.355073452,6.79747099999997,19.88724,7.937025,0.3942707,0.1269111,-0.1820443,-40.95779,-29.51806,4.520807
25.365071297,3.659276,11.57791,4.888487,0.4871629,0.08371078,-0.2180883,-40.95779,-29.51806,4.520807
25.375070095,1.44408,2.55635,2.75451,0.5589324,0.04920759,-0.2670193,-41.32548,-29.53449,2.905519
25.38506794,1.321013,-8.364487,1.535095,0.6156337,0.01309801,-0.299652,-41.32548,-29.53449,2.905519
25.395066261,1.690213,-19.76014,1.169271,0.6788558,0.0196442,-0.3050282,-41.32548,-29.53449,2.905519
25.405064106,-0.5249836,-30.44357,0.681504599999997,0.7367412,0.05163025,-0.2802514,-41.32548,-29.53449,2.905519
25.415062904,-5.87837500000002,-40.65217,0.2547093,0.7832654,0.06592426,-0.2525788,-41.32548,-29.53449,2.905519
25.425060749,-11.8471,-51.3356,-0.05014454,0.8297184,0.05774951,-0.2373432,-41.71397,-28.78041,2.44718
25.435058594,-17.32355,-62.1377300000002,-0.4769399,0.9070458,0.03981768,-0.2398663,-41.71397,-28.78041,2.44718
25.445056439,-21.56935,-71.9902300000001,-2.245092,1.023485,0.01479139,-0.2525058,-41.71397,-28.78041,2.44718
25.455055237,-25.38441,-80.8337300000002,-4.379068,1.161179,-0.0263589,-0.2675711,-41.71397,-28.78041,2.44718
25.465053082,-27.90727,-89.20242,-7.366636,1.277881,-0.09117018,-0.2739793,-41.71397,-28.78041,2.44718
25.475051403,-25.87667,-97.3930400000001,-11.14682,1.369693,-0.1540786,-0.2841733,-42.47499,-28.39859,3.278095
25.485049248,-20.46175,-106.0585,-15.10992,1.44775,-0.1588185,-0.2804796,-42.47499,-28.39859,3.278095
25.495047093,-16.58516,-114.7239,-18.89011,1.481213,-0.1496639,-0.2551757,-42.47499,-28.39859,3.278095
25.505045891,-14.86223,-123.3894,-22.42641,1.484455,-0.140174,-0.2341265,-42.47499,-28.39859,3.278095
25.515043736,-13.6931,-131.4613,-25.77981,1.458525,-0.1342111,-0.2168541,-42.47499,-28.39859,3.278095
25.52504158,-12.0317,-138.1088,-28.03572,1.441284,-0.1243777,-0.2201766,-42.83517,-29.52504,5.345408
25.535039902,-10.9241,-143.5098,-29.98679,1.451407,-0.118228,-0.2072742,-42.83517,-29.52504,5.345408
25.545038223,-9.13963599999997,-147.0116,-30.77941,1.435409,-0.09668545,-0.2082091,-42.83517,-29.52504,5.345408
25.555036545,-7.41670600000002,-150.0979,-30.47455,1.377472,-0.07359883,-0.2152926,-42.83517,-29.52504,5.345408
25.56503439,-6.43217400000002,-151.285,-29.74291,1.332058,-0.04234936,-0.2070857,-42.83517,-29.52504,5.345408
25.575032234,-8.52430299999999,-151.5817,-27.97475,1.28514,-0.008638504,-0.1921768,-42.09701,-29.86272,9.739018
25.585031033,-12.83163,-150.3947,-25.96272,1.236122,0.007020339,-0.1806095,-42.09701,-29.86272,9.739018
25.595028877,-17.13896,-148.3174,-24.43845,1.182924,0.01198483,-0.1604179,-42.09701,-29.86272,9.739018
25.605027199,-20.76942,-145.2904,-23.88971,1.134253,0.009184742,-0.1488465,-42.09701,-29.86272,9.739018
25.615025044,-22.61541,-141.1951,-23.46292,1.089578,0.001096327,-0.1396736,-42.09701,-29.86272,9.739018
25.625022888,-22.98461,-136.9811,-23.09709,1.062343,0.02446149,-0.129582,-41.32598,-31.72455,13.81824
25.635021686,-23.78455,-132.1735,-23.28,1.059352,0.05405799,-0.1281487,-41.32598,-31.72455,13.81824
25.645019531,-26.12281,-127.0692,-23.58486,1.080853,0.07688436,-0.1229277,-41.32598,-31.72455,13.81824
25.655017376,-30.61473,-121.3714,-24.25554,1.111314,0.08965225,-0.1210698,-41.32598,-31.72455,13.81824
25.665015697,-35.10666,-115.911,-25.1701,1.127102,0.07928224,-0.1201375,-41.32598,-31.72455,13.81824
25.675014019,-37.87566,-109.5009,-26.87728,1.156681,0.06079207,-0.1335844,-39.82398,-32.4495,16.73593
25.68501234,-37.99872,-102.3786,-28.40155,1.206099,0.02372901,-0.1484969,-39.82398,-32.4495,16.73593
25.695010185,-35.72199,-94.2473700000001,-30.1697,1.252912,-0.004792092,-0.1801572,-39.82398,-32.4495,16.73593
25.70500803,-32.2146,-86.4722100000002,-32.30368,1.271061,-0.01129812,-0.1868872,-39.82398,-32.4495,16.73593
25.715006828,-29.261,-78.6376999999997,-34.74251,1.248695,-0.01352585,-0.1696189,-38.67705,-33.94559,18.7519
25.725004673,-25.81514,-71.39671,-37.24231,1.206434,-0.0207263,-0.1748077,-38.67705,-33.94559,18.7519
25.735002994,-22.67695,-64.2150700000003,-39.37629,1.166018,-0.0218616,-0.1584654,-38.67705,-33.94559,18.7519
25.745000839,-19.53875,-56.26184,-40.5957,1.133113,-0.03419185,-0.1603191,-38.67705,-33.94559,18.7519
25.754999161,-17.20049,-47.77446,-41.0225,1.092171,-0.03348152,-0.1535479,-38.67705,-33.94559,18.7519
25.764997482,-16.21596,-38.33743,-40.83958,1.053609,-0.02981728,-0.1477387,-37.1461,-35.82196,20.45016
25.774995327,-17.32355,-28.72235,-40.04696,1.009835,-0.03401352,-0.1400041,-37.1461,-35.82196,20.45016
25.784993172,-19.16955,-19.76014,-38.94949,0.9611355,-0.03539582,-0.1327402,-37.1461,-35.82196,20.45016
25.79499197,-21.20015,-10.73858,-37.12037,0.930071,-0.04181016,-0.1293343,-37.1461,-35.82196,20.45016
25.804989815,-23.04615,-1.123497,-34.80348,0.9091355,-0.04267902,-0.1259476,-37.1461,-35.82196,20.45016
25.814988136,-24.76908,7.83871000000002,-32.18174,0.8978083,-0.06238873,-0.1311871,-36.36686,-37.33449,20.85084
25.824985981,-25.01521,17.33509,-29.37708,0.887805,-0.07480069,-0.1383451,-36.36686,-37.33449,20.85084
25.834983826,-23.47688,26.59406,-26.93825,0.9136368,-0.101004,-0.1369477,-36.36686,-37.33449,20.85084
25.844982624,-19.90795,36.03109,-24.43845,0.9506688,-0.1270912,-0.1470556,-36.36686,-37.33449,20.85084
25.854980469,-14.43149,45.112,-21.99962,0.9911128,-0.1273956,-0.1614833,-36.36686,-37.33449,20.85084
25.864978313,-9.508835,53.89615,-19.37788,1.025604,-0.1219337,-0.1701592,-35.56483,-39.62135,19.64306
25.874976635,-5.632242,61.6713099999998,-16.51225,1.044898,-0.1112863,-0.1634955,-35.56483,-39.62135,19.64306
25.884974956,-1.878715,68.7935900000002,-13.70759,1.057222,-0.1188311,-0.1649508,-35.56483,-39.62135,19.64306
25.894973278,2.490145,75.4410599999998,-10.72003,1.071597,-0.1315886,-0.1563582,-35.56483,-39.62135,19.64306
25.904971123,7.47433699999998,83.0975099999998,-7.42760699999997,1.088153,-0.1306571,-0.1434658,-35.56483,-39.62135,19.64306
25.914968967,11.90473,91.2287799999999,-3.70839,1.100441,-0.1362281,-0.1415714,-35.15945,-40.77322,18.03942
