Time (s),Gyroscope X (deg/s),Gyroscope Y (deg/s),Gyroscope Z (deg/s),Accelerometer X (g),Accelerometer Y (g),Accelerometer Z (g),Magnetometer X (uT),Magnetometer Y (uT),Magnetometer Z (uT)
108.929913521,-1.708788,13.39811,13.52167,0.925867,-0.05863053,-0.417904,-37.42126,-31.51392,-9.633631
108.939910889,1.121741,13.93228,14.25332,0.9394922,-0.03160822,-0.4150633,-37.42126,-31.51392,-9.633631
108.949908733,0.7525415,14.82257,14.68012,0.9433055,-0.000791365,-0.4011992,-37.42126,-31.51392,-9.633631
108.959907055,-1.154989,15.17868,14.924,0.9372252,0.01179317,-0.3935346,-37.80807,-30.7631,-10.47897
108.9699049,-1.893388,15.29739,15.59468,0.9204125,-0.001208571,-0.3973306,-37.80807,-30.7631,-10.47897
108.979902744,-2.13952,15.59415,15.77759,0.9206601,-0.01428462,-0.3930205,-37.80807,-30.7631,-10.47897
108.989901066,-2.016454,16.06897,15.89953,0.9219085,-0.02882504,-0.3915831,-37.80807,-30.7631,-10.47897
108.999898911,-1.462655,16.18767,16.20439,0.9140657,-0.0523008,-0.3910848,-37.80807,-30.7631,-10.47897
109.009896755,-0.1089238,16.7812,16.32633,0.9164066,-0.07314566,-0.390605,-38.19685,-30.00847,-10.87281
109.0198946,2.106273,16.95926,16.69215,0.9262649,-0.07857163,-0.3676491,-38.19685,-30.00847,-10.87281
109.029892921,2.598538,17.61213,16.99701,0.9450366,-0.04033241,-0.3715203,-38.19685,-30.00847,-10.87281
109.039890766,-0.6011896,17.84954,18.15545,0.9643882,-0.03252937,-0.3571988,-38.19685,-30.00847,-10.87281
109.049888611,-1.093456,17.67148,19.13098,0.969362,-0.03770189,-0.3490703,-38.19685,-30.00847,-10.87281
109.059885979,-0.170457,17.61213,19.31389,0.9642168,-0.02323845,-0.3505008,-38.20104,-29.6352,-11.71334
109.069883823,0.5679418,17.31537,18.70419,0.9764438,-0.02531255,-0.3380786,-38.20104,-29.6352,-11.71334
109.079882145,1.983206,17.31537,18.52127,0.9793051,-0.02177547,-0.3294701,-38.20104,-29.6352,-11.71334
109.08987999,2.044739,16.84055,18.39933,0.9910061,-0.02199076,-0.3251833,-38.20104,-29.6352,-11.71334
109.099877834,2.660072,16.36573,18.09448,1.000609,-0.0402405,-0.3223239,-38.20104,-29.6352,-11.71334
109.109876156,3.95227,15.89091,18.15545,0.996372,-0.0480554,-0.3175287,-38.9567,-29.26373,-12.10793
109.119874001,5.73673300000001,15.05998,17.91157,0.9910327,-0.04911523,-0.3156048,-38.9567,-29.26373,-12.10793
109.129871845,7.705796,14.46645,17.17992,0.9818499,-0.05320612,-0.3179807,-38.9567,-29.26373,-12.10793
109.139870167,9.49026100000003,13.57617,16.81409,0.9740659,-0.05382831,-0.3160526,-38.9567,-29.26373,-12.10793
109.149868012,9.73639400000001,13.042,17.05798,0.9719528,-0.04513627,-0.3174869,-38.9567,-29.26373,-12.10793
109.159865856,8.936461,12.50783,17.30186,0.9658304,-0.0564295,-0.3169948,-38.97492,-28.13302,-13.33952
109.169863701,8.25959600000003,11.97366,17.60671,0.9570077,-0.05368815,-0.3169801,-38.97492,-28.13302,-13.33952
109.179861069,8.50572900000001,11.73625,17.4238,0.9544746,-0.07472142,-0.3265418,-38.97492,-28.13302,-13.33952
109.18985939,9.982527,11.67689,16.75312,0.9592025,-0.09318151,-0.3361168,-38.97492,-28.13302,-13.33952
109.199857235,11.15166,11.85495,16.69215,0.9642307,-0.1012774,-0.3289448,-38.97492,-28.13302,-13.33952
109.20985508,11.52086,12.44847,17.17992,0.9693869,-0.09052429,-0.3332638,-38.99065,-27.37231,-13.34358
109.219852924,10.72093,12.92329,16.81409,0.9922612,-0.06273242,-0.3194321,-38.99065,-27.37231,-13.34358
109.229851246,9.36719400000002,12.62653,16.50924,0.9900602,-0.04907743,-0.3093817,-38.99065,-27.37231,-13.34358
109.239849091,9.49026100000003,12.62653,16.3873,0.9902672,-0.06034211,-0.3194292,-38.99065,-27.37231,-13.34358
109.249846935,10.96706,12.03301,15.71662,0.9813694,-0.07942577,-0.314623,-38.99065,-27.37231,-13.34358
109.259845257,12.68999,12.03301,15.59468,0.9784982,-0.1081442,-0.3136535,-39.72888,-27.76483,-14.12112
109.269843102,14.35139,12.15171,15.41177,0.9824891,-0.1128371,-0.3040877,-39.72888,-27.76483,-14.12112
109.279840946,14.22832,12.27042,15.71662,0.974327,-0.1193112,-0.3035932,-39.72888,-27.76483,-14.12112
109.289838791,12.38232,12.74524,16.44827,0.9752848,-0.1182634,-0.2973737,-39.72888,-27.76483,-14.12112
109.299836159,9.49026100000003,13.45747,17.4238,0.976297,-0.1201433,-0.2925892,-39.72888,-27.76483,-14.12112
109.30983448,6.290532,13.57617,18.03351,0.9725152,-0.1266405,-0.3040668,-40.12104,-27.00366,-13.74095
109.319832325,8.69032899999998,12.92329,17.60671,0.9710744,-0.1532159,-0.2844358,-40.12104,-27.00366,-13.74095
109.32983017,11.64392,12.38912,17.48477,0.9640928,-0.1188959,-0.2892182,-40.12104,-27.00366,-13.74095
109.339828014,11.27472,11.67689,16.81409,0.9598508,-0.1004656,-0.2839513,-40.12104,-27.00366,-13.74095
109.349826336,10.72093,10.72726,16.69215,0.9615207,-0.1116488,-0.2882585,-40.12104,-27.00366,-13.74095
109.359824181,9.42872699999998,9.83697000000002,16.75312,0.9477242,-0.1293802,-0.2844012,-40.89831,-25.49494,-14.59313
109.369822025,7.58273000000002,8.82798,16.32633,0.9550226,-0.1543646,-0.2690931,-40.89831,-25.49494,-14.59313
109.379820347,6.53666499999999,8.17510400000003,15.9605,0.9701634,-0.1815272,-0.2432694,-40.89831,-25.49494,-14.59313
109.389818192,7.27506400000001,7.87834300000002,16.02147,0.9874315,-0.1928399,-0.2423394,-40.89831,-25.49494,-14.59313
109.399816036,5.244467,6.86935200000003,16.20439,0.9921212,-0.1829933,-0.2385215,-40.89831,-25.49494,-14.59313
109.409813404,3.213871,6.03841899999997,16.08245,0.9749221,-0.175694,-0.2533293,-40.52187,-25.4954,-14.97735
109.419811249,3.521537,4.613962,15.3508,0.9625049,-0.1633751,-0.260968,-40.52187,-25.4954,-14.97735
109.42980957,4.752202,3.189505,13.8875,0.9686331,-0.1783182,-0.2609748,-40.52187,-25.4954,-14.97735
109.439807415,6.59819800000001,2.180515,12.79002,0.9669212,-0.1910084,-0.2633615,-40.52187,-25.4954,-14.97735
109.44980526,8.87492799999998,0.815410600000002,11.3877,0.9615705,-0.1916483,-0.2686163,-40.52187,-25.4954,-14.97735
109.459803581,9.42872699999998,-0.2529321,10.47314,0.9575009,-0.1824783,-0.2666973,-41.28709,-24.74031,-14.98697
109.469801426,7.76732999999999,-0.9058082,10.22925,0.9665735,-0.1725802,-0.2667156,-41.28709,-24.74031,-14.98697
109.479799271,5.982866,-1.677389,9.497603,0.9586554,-0.1922445,-0.274354,-41.28709,-24.74031,-14.98697
109.489797115,6.47513199999997,-1.974151,8.46110100000002,0.9618698,-0.2077355,-0.2748342,-41.28709,-24.74031,-14.98697
109.499795437,7.39812999999999,-2.270913,7.54654000000001,0.9627599,-0.2034059,-0.2815369,-40.9202,-24.35714,-14.98622
109.509793282,7.705796,-2.508322,6.57100800000003,0.9679543,-0.1945431,-0.2801125,-40.9202,-24.35714,-14.98622
109.519791126,6.72126500000002,-2.330265,5.90032900000003,0.9726338,-0.1842459,-0.2801234,-40.9202,-24.35714,-14.98622
109.529789448,4.875268,-2.033503,5.412563,0.9687166,-0.1834172,-0.2872953,-40.9202,-24.35714,-14.98622
109.539786339,3.829203,-1.736741,4.741885,0.9765903,-0.1877009,-0.2944866,-40.9202,-24.35714,-14.98622
109.54978466,3.336937,-1.499332,3.949264,0.9726686,-0.1862416,-0.2858658,-41.66969,-24.36277,-14.99178
109.559782505,2.906205,-1.499332,3.217615,0.9697461,-0.186295,-0.2853821,-41.66969,-24.36277,-14.99178
109.56978035,2.413939,-1.380627,2.242083,0.966923,-0.1917224,-0.2882473,-41.66969,-24.36277,-14.99178
109.579778671,2.290872,-1.439979,1.876259,0.9648116,-0.1829777,-0.2839386,-41.66969,-24.36277,-14.99178
109.589776516,1.49094,-1.677389,1.083639,0.953449,-0.1750684,-0.2977996,-41.66969,-24.36277,-14.99178
109.599774361,0.629475,-1.914798,0.4129604,0.9510151,-0.1750638,-0.2920524,-40.9219,-24.35387,-14.59921
109.609772205,0.4448753,-2.330265,-0.4406303,0.9529305,-0.1993889,-0.2992281,-40.9219,-24.35387,-14.59921
109.619770527,0.7525415,-2.44897,-1.23325,0.947269,-0.1835348,-0.3068796,-40.9219,-24.35387,-14.59921
109.629768371,0.3218088,-1.796094,-1.660046,0.9630097,-0.1907708,-0.2820192,-40.9219,-24.35387,-14.59921
109.639766216,-0.2935235,-0.3122845,-1.050338,0.9832996,-0.2074042,-0.2849217,-40.9219,-24.35387,-14.59921
109.649764538,-0.970389000000003,0.696705799999999,-0.5625718,0.97324,-0.1648928,-0.290658,-41.3045,-23.97633,-14.60402
109.659761429,-2.447186,1.05282,-0.623542499999998,0.9678623,-0.1640666,-0.2949561,-41.3045,-23.97633,-14.60402
109.66975975,-3.062519,1.824401,-0.4406303,0.965771,-0.1826482,-0.3030834,-41.3045,-23.97633,-14.60402
109.679757595,-2.016454,2.655334,-0.5625718,0.9628016,-0.1803123,-0.3069075,-41.3045,-23.97633,-14.60402
109.68975544,-2.385653,3.367562,-0.745484100000002,0.9678622,-0.164071,-0.2954347,-41.3045,-23.97633,-14.60402
109.699753761,-3.370185,3.723677,-0.6845133,0.9643736,-0.1596612,-0.2839439,-41.31068,-23.59924,-14.99305
109.709751606,-6.69298,3.426915,-0.806454899999999,0.9633225,-0.180787,-0.2537863,-41.31068,-23.59924,-14.99305
109.719749451,-7.862111,2.239867,-0.806454899999999,0.9619183,-0.2093011,-0.2336763,-41.31068,-23.59924,-14.99305
109.729747295,-7.67751099999998,0.8747629,-1.599075,0.961652,-0.2209119,-0.2274514,-41.31068,-23.59924,-14.99305
109.739745617,-7.24677899999999,-1.439979,-2.269753,0.9537408,-0.2147159,-0.2236106,-41.31068,-23.59924,-14.99305
109.749743462,-6.87757899999999,-3.873426,-3.733052,0.9436138,-0.1945591,-0.229341,-41.67755,-23.98241,-14.9938
109.759741306,-6.69298,-6.90039699999999,-5.013437,0.9527683,-0.1890372,-0.229837,-41.67755,-23.98241,-14.9938
109.769739628,-6.69298,-9.45254899999997,-6.17188200000002,0.9579102,-0.203606,-0.2398923,-41.67755,-23.98241,-14.9938
109.779736996,-6.20071400000002,-11.64859,-7.69615000000002,0.9559726,-0.2040776,-0.2341459,-41.67755,-23.98241,-14.9938
109.78973484,-5.95458099999997,-13.31045,-8.610712,0.9657128,-0.2039466,-0.240863,-41.67755,-23.98241,-14.9938
109.799732685,-7.06217900000002,-14.85361,-9.281391,0.963038,-0.1914263,-0.2475616,-40.9396,-23.58935,-14.15177
109.80973053,-8.29284299999999,-16.57483,-10.62275,0.9665393,-0.1962078,-0.2466093,-40.9396,-23.58935,-14.15177
109.819728851,-8.41591,-17.46512,-10.98857,0.973353,-0.1962574,-0.2667214,-40.9396,-23.58935,-14.15177
109.829726696,-8.66204299999999,-18.65217,-12.02507,0.971038,-0.1769137,-0.2719867,-40.9396,-23.58935,-14.15177
109.839724541,-9.33890800000002,-19.77986,-12.81769,0.9622674,-0.1771703,-0.2810642,-40.9396,-23.58935,-14.15177
109.849722862,-9.831174,-20.7295,-13.61031,0.9647822,-0.1815819,-0.290639,-41.67139,-24.3595,-14.60477
109.859720707,-10.56957,-21.67914,-14.03711,0.9622295,-0.1752712,-0.2858504,-41.67139,-24.3595,-14.60477
109.869718552,-11.7387,-23.341,-14.8907,0.9455403,-0.168789,-0.2848659,-41.67139,-24.3595,-14.60477
109.879716396,-13.0309,-25.59639,-16.354,0.9551573,-0.1873621,-0.2642991,-41.67139,-24.3595,-14.60477
109.889714718,-13.09243,-28.38595,-17.32953,0.9533892,-0.1964106,-0.2403648,-41.67139,-24.3595,-14.60477
109.899712086,-12.4771,-31.88774,-18.97574,0.976917,-0.2037033,-0.2384897,-41.29861,-24.35287,-14.15049
109.90970993,-12.53864,-35.805,-20.3171,0.9875543,-0.1990231,-0.2279807,-41.29861,-24.35287,-14.15049
109.919707775,-13.89237,-40.25643,-22.08525,1.003487,-0.1908192,-0.2155677,-41.29861,-24.35287,-14.15049
109.92970562,-15.86143,-44.94527,-23.48758,1.017451,-0.181713,-0.2065014,-41.29861,-24.35287,-14.15049
109.939703941,-17.2767,-49.87151,-24.82894,1.041426,-0.1871628,-0.2165919,-41.29861,-24.35287,-14.15049
109.949701786,-19.55342,-54.56035,-25.68253,1.056839,-0.1520021,-0.2309851,-40.92109,-24.72061,-12.98468
109.959699631,-23.24542,-59.6053000000002,-27.26777,1.074748,-0.1195673,-0.2300675,-40.92109,-24.72061,-12.98468
109.969697952,-27.42968,-65.1250699999998,-26.10932,1.131941,-0.1547426,-0.2148437,-40.92109,-24.72061,-12.98468
109.979695797,-28.04501,-71.5351299999999,-29.52368,1.226157,-0.03445619,-0.230832,-40.92109,-24.72061,-12.98468
109.989693642,-30.69094,-79.3102899999998,-34.40134,1.244853,0.009114669,-0.1830181,-40.92109,-24.72061,-12.98468
109.999691486,-37.58266,-87.0260899999999,-37.99862,1.324199,0.01444798,-0.143436,-41.28127,-25.84706,-10.91736
110.009689808,-44.59745,-96.1070100000003,-42.08366,1.393752,-0.05585595,-0.1172175,-41.28127,-25.84706,-10.91736
110.019687653,-48.10485,-105.3066,-45.74191,1.504694,-0.1499366,-0.07048623,-41.28127,-25.84706,-10.91736
110.029685497,-46.87418,-112.8444,-48.60753,1.602169,-0.1758489,-0.03284197,-41.28127,-25.84706,-10.91736
110.039682865,-52.35064,-117.0584,-47.57103,1.680858,-0.1875891,0.001002772,-40.51275,-27.33888,-8.065678
110.04968071,-49.39705,-121.5098,-52.44869,1.626071,-0.1253422,-0.03481095,-40.51275,-27.33888,-8.065678
110.059679031,-48.35098,-123.4091,-52.38772,1.599984,-0.1880922,0.01454402,-40.51275,-27.33888,-8.065678
110.069676876,-40.35166,-113.3785,-44.40055,1.549208,-0.2099129,-0.02986942,-40.51275,-27.33888,-8.065678
110.079674721,-34.01374,-96.99729,-36.59629,1.364052,-0.1383723,-0.2549744,-40.51275,-27.33888,-8.065678
110.089673042,-34.6906,-104.535,-40.31551,1.140116,-0.08172817,-0.6432024,-39.74004,-29.20398,-4.373458
110.099670887,-32.04467,-118.0674,-43.91278,1.078562,-0.0443644,-0.516282,-39.74004,-29.20398,-4.373458
110.109668732,-38.7518,-118.0674,-46.10773,1.032289,-0.1532,-0.6798463,-39.74004,-29.20398,-4.373458
110.119666576,-25.95288,-109.6393,-43.79084,0.9621162,-0.1229008,-0.5098374,-39.74004,-29.20398,-4.373458
110.129664898,-26.44515,-97.0566499999997,-37.69376,0.8842573,-0.178675,-0.4359865,-39.74004,-29.20398,-4.373458
110.139662743,-32.47541,-75.15562,-24.15826,0.9098237,-0.2631225,-0.2144286,-37.82906,-31.81808,-0.2818394
110.149660111,-39.92093,-53.2546,-7.20838499999997,0.8263152,-0.3275437,-0.06447214,-37.82906,-31.81808,-0.2818394
110.159657955,-33.52147,-29.27624,3.156645,0.8597088,-0.2584676,0.1364538,-37.82906,-31.81808,-0.2818394
110.169656277,-33.52147,-4.110836,10.65605,0.7930799,-0.1570107,0.3217528,-37.82906,-31.81808,-0.2818394
110.179654121,-36.78273,16.24703,17.54574,0.7066976,-0.1274138,0.185023,-37.82906,-31.81808,-0.2818394
110.189651966,-42.93605,41.76854,26.44747,0.7377506,-0.144687,0.2481453,-35.92844,-33.68183,2.580217
110.199649811,-42.75146,64.3224399999999,35.34921,0.6970573,-0.1585466,0.2022765,-35.92844,-33.68183,2.580217
110.209648132,-38.5672,87.8853399999998,45.22647,0.7337133,-0.1383584,0.2050789,-35.92844,-33.68183,2.580217
110.219645977,-31.30627,109.727,53.64043,0.77411,-0.08422951,0.1915944,-35.92844,-33.68183,2.580217
110.229643822,-27.73734,129.7881,62.0544,0.8155509,-0.03405966,0.168059,-35.92844,-33.68183,2.580217
110.239642143,-23.92229,148.7809,70.5903100000001,0.8446879,-0.003697759,0.1306715,-34.02093,-35.13288,1.763391
110.249639988,-21.95322,166.7646,79.0652399999999,0.8599323,0.01364113,0.08086853,-34.02093,-35.13288,1.763391
110.259637833,-20.59949,183.0865,86.7475599999999,0.8812058,-0.004992122,0.01670705,-34.02093,-35.13288,1.763391
110.269635677,-17.21516,197.8059,94.3079300000002,0.9241996,-0.01247044,-0.04366656,-34.02093,-35.13288,1.763391
110.279633045,-12.78477,212.4066,100.7099,0.9809797,-0.0009956753,-0.08061884,-34.02093,-35.13288,1.763391
110.289631367,-10.69264,225.5235,104.9168,1.03422,0.01714216,-0.1252239,-33.99698,-35.54429,-1.911099
110.299629211,-8.96970800000003,236.7411,108.5751,1.100678,0.0321834,-0.1650655,-33.99698,-35.54429,-1.911099
110.309627056,-7.36984500000003,245.8813,111.6846,1.164708,0.04665125,-0.2092098,-33.99698,-35.54429,-1.911099
110.319624901,-5.277715,254.4874,113.4528,1.243031,0.0519756,-0.274434,-33.99698,-35.54429,-1.911099
110.329623222,-3.185585,261.5504,113.9405,1.310085,0.06118855,-0.3152322,-33.99698,-35.54429,-1.911099
110.339621067,-2.631786,265.4676,114.0625,1.347475,0.06753048,-0.340185,-35.87312,-34.45815,-6.76861
110.349618912,-2.754853,268.0198,113.3308,1.350681,0.07819682,-0.3497649,-35.87312,-34.45815,-6.76861
110.359617233,-5.400782,269.9191,112.3553,1.364715,0.13536,-0.3464541,-35.87312,-34.45815,-6.76861
110.369615078,-16.1691,270.5719,107.4166,1.381131,0.2219372,-0.3201833,-35.87312,-34.45815,-6.76861
110.379612923,-36.65966,268.1978,103.3316,1.39108,0.2629353,-0.3221255,-35.87312,-34.45815,-6.76861
110.389610767,-56.22723,263.0935,102.2341,1.372545,0.1848526,-0.3713664,-37.37204,-33.06966,-13.68904
110.399609089,-62.8728199999999,257.0989,102.539,1.395157,0.04342099,-0.4225771,-37.37204,-33.06966,-13.68904
110.409606457,-55.7965,250.8669,100.405,1.430066,-0.05274176,-0.4920067,-37.37204,-33.06966,-13.68904
110.419604302,-40.10553,241.3706,95.7102600000001,1.415813,-0.04850702,-0.5824338,-37.37204,-33.06966,-13.68904
110.429602146,-18.69196,227.3634,90.6496900000001,1.320201,0.006562494,-0.6770394,-37.37204,-33.06966,-13.68904
110.439599991,-2.693319,208.2519,83.8819399999999,1.22603,0.1146413,-0.7702254,-38.52612,-29.73389,-23.06817
110.449598312,9.49026100000003,181.8401,73.5169099999998,1.082573,0.1995193,-0.9025627,-38.52612,-29.73389,-23.06817
110.459596157,19.70478,147.5938,59.3107100000002,0.9342163,0.2857188,-1.039199,-38.52612,-29.73389,-23.06817
110.469594002,31.27302,107.8871,40.1659,0.7540693,0.3516552,-1.197311,-38.52612,-29.73389,-23.06817
110.479592323,35.88802,63.9663299999998,18.94807,0.5562958,0.3964795,-1.341029,-38.52612,-29.73389,-23.06817
110.489590168,37.24174,17.79019,0.3519896,0.4789059,0.416309,-1.396414,-37.82088,-26.35628,-29.1439
110.499588013,25.1197,-26.07121,-12.93964,0.5825823,0.3148972,-1.55067,-37.82088,-26.35628,-29.1439
110.509585858,21.55077,-77.2922999999998,-34.09649,0.5270597,0.1842819,-1.525653,-37.82088,-26.35628,-29.1439
110.519584179,-16.59983,-72.3067100000001,-38.60833,1.422784,0.05180474,0.6445972,-37.82088,-26.35628,-29.1439
110.529581547,-98.6851699999999,-35.50824,-27.38971,1.90704,-0.507704,1.912124,-37.82088,-26.35628,-29.1439
110.539579392,-88.0399200000002,-36.39853,10.71702,1.192589,-0.8194919,0.6638873,-37.10705,-24.45596,-29.98698
110.549577236,-9.154308,-57.9434399999998,-1.660046,0.6511181,-0.5580921,-0.504876,-37.10705,-24.45596,-29.98698
110.559575558,-4.293184,-55.33193,-16.65885,0.9917303,-0.2110346,-0.1159981,-37.10705,-24.45596,-29.98698
110.569573403,-28.47574,-59.4272399999997,-10.68372,1.247233,-0.5264729,0.06836803,-37.10705,-24.45596,-29.98698
110.579571247,-12.6617,-68.9236199999998,6.20518299999998,1.237976,-0.9952403,0.0005470712,-37.10705,-24.45596,-29.98698
110.589569092,44.68727,-71.1790100000001,-7.20838499999997,1.291436,-0.6025355,-0.1609274,-37.45739,-25.96658,-28.36914
110.599567413,87.2682600000002,-70.8228999999999,-20.62195,1.302075,0.1302527,-0.0792981,-37.45739,-25.96658,-28.36914
110.609565258,69.7312900000002,-72.4254199999999,-19.46351,1.308104,0.4602228,0.01536448,-37.45739,-25.96658,-28.36914
110.619563103,23.21217,-78.5387,-7.69615000000002,1.217725,0.2355802,-0.1227286,-37.45739,-25.96658,-28.36914
110.629561424,0.5064085,-79.72575,-5.013437,1.147643,-0.07853055,-0.0454748,-39.72443,-25.58239,-25.93684
110.639559269,-4.41625,-76.5207200000003,-5.98896899999998,1.042626,-0.2452377,0.01888039,-39.72443,-25.58239,-25.93684
110.649557114,4.259935,-72.3067100000001,-6.78158900000002,0.9680808,-0.2985581,-0.01782629,-39.72443,-25.58239,-25.93684
110.659554481,11.39779,-68.5674999999999,-5.80605699999998,0.9516747,-0.3591872,-0.02304641,-39.72443,-25.58239,-25.93684
110.669552326,14.59752,-65.8372999999998,-5.440232,0.9529421,-0.3482609,-7.978198e-05,-39.72443,-25.58239,-25.93684
110.679550648,16.81271,-62.9290399999999,-4.891496,0.9373806,-0.2972375,0.03343453,-41.20017,-27.46437,-22.2613
110.689548492,11.58239,-60.4362299999999,-5.562174,0.9294907,-0.2398592,0.05449086,-41.20017,-27.46437,-22.2613
110.699546337,2.413939,-58.6556600000002,-5.440232,0.9574759,-0.225293,0.04582395,-41.20017,-27.46437,-22.2613
110.709544182,-5.83151400000002,-58.4182500000001,-5.196349,0.9933134,-0.2405518,0.0003006818,-41.20017,-27.46437,-22.2613
110.719542503,-8.90817500000001,-57.17185,-5.623145,1.024174,-0.2235516,-0.01411477,-41.20017,-27.46437,-22.2613
110.729540348,-9.95424100000001,-55.68805,-6.96450100000002,1.047264,-0.2082769,-0.04095922,-42.71406,-27.08164,-20.66195
110.739538193,-12.60017,-54.26359,-7.940033,1.066495,-0.1942204,-0.03333915,-42.71406,-27.08164,-20.66195
110.749536514,-15.73836,-52.77978,-9.15945000000002,1.048406,-0.2169092,-0.03090889,-42.71406,-27.08164,-20.66195
110.759534359,-16.1691,-51.94884,-10.74469,1.035182,-0.2388799,-0.01365144,-42.71406,-27.08164,-20.66195
110.769532204,-15.12303,-51.65208,-12.02507,1.01405,-0.2545975,0.01366828,-42.71406,-27.08164,-20.66195
110.779530048,-13.7693,-52.36431,-13.18352,0.9806855,-0.2683771,0.01372999,-43.8271,-28.20717,-17.82619
110.789527416,-13.5847,-53.31395,-14.46391,0.9640046,-0.2880478,0.02429281,-43.8271,-28.20717,-17.82619
110.799525738,-14.93843,-54.20424,-15.74429,0.9540267,-0.3012119,0.04106376,-43.8271,-28.20717,-17.82619
110.809523582,-15.92296,-54.44164,-16.65885,0.9603379,-0.3002074,0.03100239,-43.8271,-28.20717,-17.82619
110.819521427,-18.69196,-54.79776,-17.93924,0.9519718,-0.2953247,0.0515945,-43.8271,-28.20717,-17.82619
110.829519272,-22.44549,-55.68805,-18.36604,0.958944,-0.2786527,-0.0001081686,-44.57578,-28.57953,-16.21722
110.839517593,-26.32208,-56.75639,-18.8538,0.9594834,-0.2567624,-0.05180096,-44.57578,-28.57953,-16.21722
110.849515438,-27.06048,-58.7150199999999,-20.13419,0.9773313,-0.2223554,-0.1006557,-44.57578,-28.57953,-16.21722
110.859513283,-26.07595,-59.01178,-21.53651,1.006565,-0.1959133,-0.08874906,-44.57578,-28.57953,-16.21722
110.869511604,-24.10688,-60.4362299999999,-21.90234,0.9970751,-0.1841584,-0.1112286,-44.57578,-28.57953,-16.21722
110.879509449,-20.72256,-61.5639299999998,-22.63399,0.9645466,-0.1378611,-0.07959781,-45.33232,-28.57154,-14.61027
110.889507294,-23.67615,-65.7779499999998,-25.49961,0.9751132,-0.1571831,-0.1427833,-45.33232,-28.57154,-14.61027
110.899505138,-23.61462,-68.5081600000001,-28.2433,0.9683161,-0.1838029,-0.1164429,-45.33232,-28.57154,-14.61027
110.90950346,-22.93775,-71.8912400000001,-29.64563,0.9868024,-0.2603393,-0.1298556,-45.33232,-28.57154,-14.61027
110.919501305,-1.770321,-74.1466299999998,-30.3163,1.011541,-0.2530596,-0.07821434,-45.33232,-28.57154,-14.61027
110.929498672,0.2602756,-71.0603099999999,-31.90154,1.014035,-0.1222102,0.08972781,-45.71609,-28.55692,-12.54904
110.939496517,-5.95458099999997,-71.7131800000002,-32.02348,1.007899,-0.1408643,-0.2356884,-45.71609,-28.55692,-12.54904
110.949494839,-1.585721,-69.75455,-32.99902,1.041548,-0.1405485,-0.1677893,-45.71609,-28.55692,-12.54904
110.959492683,6.53666499999999,-68.5081600000001,-31.53572,1.032035,-0.125645,-0.1117832,-45.71609,-28.55692,-12.54904
110.969490528,-7.67751099999998,-63.8786700000002,-28.91398,1.013913,-0.1509117,-0.2845111,-45.71609,-28.55692,-12.54904
110.979488373,-6.32378100000003,-61.6232799999999,-28.79204,1.0043,-0.1291139,-0.1653345,-45.68919,-30.43472,-9.70089
110.989486694,-9.95424100000001,-58.3589000000001,-27.45068,1.019486,-0.1346286,-0.2165672,-45.68919,-30.43472,-9.70089
110.999484539,-13.2155,-56.34092,-25.86544,1.004013,-0.1421367,-0.2600887,-45.68919,-30.43472,-9.70089
111.009482384,-13.64623,-54.56035,-24.95088,0.9995429,-0.1379875,-0.2749178,-45.68919,-30.43472,-9.70089
111.019480705,-14.63077,-53.67006,-24.40214,0.9891419,-0.1289075,-0.2691591,-45.68919,-30.43472,-9.70089
111.02947855,-16.59983,-52.18625,-24.34117,0.9868528,-0.1110694,-0.2796884,-45.27601,-32.69715,-7.68643
111.039476395,-18.69196,-51.71144,-24.15826,0.9876937,-0.1300703,-0.2868636,-45.27601,-32.69715,-7.68643
111.049474239,-20.35336,-52.0082,-24.64602,0.9817235,-0.1232973,-0.2772834,-45.27601,-32.69715,-7.68643
111.059471607,-22.93775,-52.54237,-25.49961,0.990155,-0.1828182,-0.2681898,-45.27601,-32.69715,-7.68643
111.069469929,-22.44549,-53.61071,-25.68253,0.9850654,-0.1968838,-0.2542987,-45.27601,-32.69715,-7.68643
111.079467773,-21.95322,-55.62869,-27.02388,0.9900944,-0.1793125,-0.2567048,-46.01881,-33.44606,-5.623927
111.089465618,-23.24542,-58.2401999999999,-28.30427,1.005244,-0.1556924,-0.2572159,-46.01881,-33.44606,-5.623927
111.099463463,-22.93775,-61.5639299999998,-30.86504,1.037783,-0.1232002,-0.2285664,-46.01881,-33.44606,-5.623927
111.109461784,-22.26089,-65.1844300000002,-33.79164,1.064336,-0.0579795,-0.2214509,-46.01881,-33.44606,-5.623927
111.119459629,-22.81469,-70.1700199999999,-37.63279,1.073188,-0.03648899,-0.2286505,-46.01881,-33.44606,-5.623927
111.129457474,-22.69162,-75.0369199999998,-39.76677,1.080915,-0.05867648,-0.2272225,-45.26812,-33.74704,-4.39117
111.139455795,-22.63009,-80.2599299999999,-42.32754,1.086126,-0.05159144,-0.2607337,-45.26812,-33.74704,-4.39117
111.14945364,-23.67615,-85.0081100000002,-44.76637,1.115819,-0.05011187,-0.2694002,-45.26812,-33.74704,-4.39117
111.159451485,-25.52215,-89.3408399999999,-46.90035,1.13033,-0.04453246,-0.2751699,-45.26812,-33.74704,-4.39117
111.169449329,-28.47574,-92.6645699999999,-49.27821,1.172902,-0.08024225,-0.2867207,-45.26812,-33.74704,-4.39117
111.179447651,-29.82948,-96.4631199999999,-51.77801,1.228786,-0.09739339,-0.2638421,-45.26284,-34.4876,-2.000602
111.189445019,-34.1368,-99.0152700000002,-55.25334,1.311145,-0.1746019,-0.2232868,-45.26284,-34.4876,-2.000602
111.199442864,-38.13646,-102.339,-55.5582,1.357139,-0.1321644,-0.1989705,-45.26284,-34.4876,-2.000602
111.209440708,-42.68992,-106.375,-54.39975,1.428258,-0.1820147,-0.1713243,-45.26284,-34.4876,-2.000602
111.219438553,-48.59711,-111.3012,-61.9601299999998,1.500205,-0.04147702,-0.1035281,-43.74681,-35.96999,1.308148
111.229436874,-61.0883599999998,-116.3462,-65.2525500000002,1.629256,-0.08660036,-0.003240459,-43.74681,-35.96999,1.308148
111.239434719,-70.4414100000001,-121.6879,-63.3624499999999,1.820883,-0.273999,0.02662403,-43.74681,-35.96999,1.308148
111.249432564,-76.9024000000001,-126.0799,-67.2645800000002,1.96982,-0.2888336,0.1015047,-43.74681,-35.96999,1.308148
111.259430885,-87.0553799999999,-129.0476,-76.34923,1.86705,-0.265674,0.09306348,-43.74681,-35.96999,1.308148
111.26942873,-96.5315000000002,-141.749,-73.4836000000003,1.66666,-0.4465503,-0.1223784,-42.59569,-37.83936,4.164644
111.279426575,-94.5624400000002,-151.6608,-70.9837999999999,1.619037,-0.608609,-0.09880344,-42.59569,-37.83936,4.164644
111.289424419,-72.6566100000002,-154.8658,-69.64244,1.464395,-0.445688,-0.175148,-42.59569,-37.83936,4.164644
111.299422741,-74.8718,-146.3191,-80.6171799999999,1.428888,-0.1378035,-0.1737296,-42.59569,-37.83936,4.164644
111.309420586,-88.5321799999998,-137.0601,-85.7387199999999,1.378367,-0.3853225,-0.4018586,-42.59569,-37.83936,4.164644
111.319417954,-82.37885,-124.062,-69.3375900000003,1.328995,-0.7399582,-0.3901954,-40.32202,-39.69702,7.416483
111.329415798,-55.91957,-118.9577,-55.00946,1.066015,-0.8264333,-0.4035934,-40.32202,-39.69702,7.416483
111.33941412,-23.36849,-112.607,-55.98499,0.7455053,-0.6599823,-0.7443023,-40.32202,-39.69702,7.416483
111.349411964,29.42703,-103.1699,-59.3993600000001,0.6962683,-0.1967356,-0.9405518,-40.32202,-39.69702,7.416483
111.359409809,26.47343,-68.8642700000003,-51.22927,0.9489012,0.1390141,-0.5352463,-40.32202,-39.69702,7.416483
111.369407654,-4.41625,-41.20607,-42.99822,0.9379055,-0.0691084,-0.1025407,-38.06409,-40.79397,10.66427
111.379405975,-1.462655,-22.21331,-28.2433,0.8038056,-0.3724573,0.01454371,-38.06409,-40.79397,10.66427
111.38940382,26.4119,-4.882417,-19.15866,0.688744,-0.4200186,0.05734981,-38.06409,-40.79397,10.66427
111.399401665,49.17919,19.74882,-12.63478,0.6391096,-0.3440309,0.1311175,-38.06409,-40.79397,10.66427
111.409399986,70.0389600000001,37.37647,-11.11051,0.5484014,-0.2403985,-0.03050978,-38.06409,-40.79397,10.66427
111.419397831,87.5144000000003,57.08146,-8.85459499999998,0.5726025,-0.1298275,-0.1071526,-37.32254,-41.1382,14.28387
111.429395676,93.60619,77.7954299999999,-4.708583,0.599566,-0.1136798,-0.1531471,-37.32254,-41.1382,14.28387
111.43939352,91.8832600000003,98.3906999999997,3.034703,0.5965871,-0.1372876,-0.1775432,-37.32254,-41.1382,14.28387
111.449390888,93.0523799999999,118.5112,13.03391,0.6140026,-0.1306789,-0.1833181,-37.32254,-41.1382,14.28387
111.45938921,92.6216500000002,137.7413,22.78923,0.6206655,-0.0695063,-0.1508023,-37.32254,-41.1382,14.28387
111.469387055,88.6835300000002,156.4373,30.10572,0.6347961,-0.01702521,-0.1283474,-38.47571,-39.99521,15.49495
111.479384899,82.3455999999998,174.7772,36.93445,0.6502045,0.01874856,-0.1288621,-38.47571,-39.99521,15.49495
111.489382744,77.1768099999997,192.5829,42.42181,0.6751905,0.03703343,-0.1494891,-38.47571,-39.99521,15.49495
111.499381065,70.3466300000001,209.5577,47.78724,0.7076242,0.04753686,-0.1868773,-38.47571,-39.99521,15.49495
111.50937891,62.9626399999999,225.6422,54.49403,0.7550576,0.03803236,-0.2128006,-38.47571,-39.99521,15.49495
111.519376755,53.97878,240.2429,62.4811999999999,0.7956143,0.03122431,-0.2478056,-43.01892,-37.38336,13.44788
111.529375076,45.61026,251.5792,70.9561299999998,0.8514655,0.03947119,-0.3168201,-43.01892,-37.38336,13.44788
111.539372921,39.94921,264.518,79.6749500000002,0.9511802,0.04778387,-0.3672465,-43.01892,-37.38336,13.44788
111.549370766,31.08842,275.6169,86.9304699999997,1.009917,0.0595517,-0.3764449,-43.01892,-37.38336,13.44788
111.559368611,22.22764,283.4514,95.8322,1.078094,0.0354762,-0.3933077,-43.01892,-37.38336,13.44788
111.569366932,16.19738,290.1582,105.4656,1.167701,-0.01392204,-0.4092442,-48.29713,-34.07472,4.489656
111.579364777,14.78212,297.1024,115.2209,1.285279,-0.04844823,-0.4534693,-48.29713,-34.07472,4.489656
111.589362145,15.88972,305.4118,123.391,1.385015,-0.04098418,-0.4904954,-48.29713,-34.07472,4.489656
111.599359989,15.82818,311.7625,130.7684,1.461931,0.03984824,-0.5322865,-48.29713,-34.07472,4.489656
111.609357834,21.42771,319.6563,139.6092,1.572627,0.08556727,-0.6076277,-48.29713,-34.07472,4.489656
111.619356155,13.79759,325.1168,145.9502,1.656142,0.09969291,-0.6781276,-53.49015,-30.8704,-9.369789
111.629354,2.537005,327.0754,151.1936,1.751219,0.06949826,-0.7314075,-53.49015,-30.8704,-9.369789
111.639351845,-6.38531399999999,322.8614,155.4006,1.781697,0.05333181,-0.8113787,-53.49015,-30.8704,-9.369789
111.649350166,-12.60017,313.9585,152.9008,1.738704,0.1867408,-0.9022675,-53.49015,-30.8704,-9.369789
111.659348011,-30.38327,298.1708,143.8162,1.730519,0.2316127,-0.9726154,-53.49015,-30.8704,-9.369789
111.669345856,-46.25885,272.1744,134.7315,1.631095,0.2287175,-1.127021,-55.04831,-24.55944,-26.44347
111.679344177,-43.24372,234.3076,122.5374,1.354072,0.1858372,-1.284458,-55.04831,-24.55944,-26.44347
111.689342022,-29.76794,187.4786,104.612,1.043846,0.1723722,-1.448065,-55.04831,-24.55944,-26.44347
111.699339867,-5.093116,133.5867,81.1382500000001,0.7446222,0.2723875,-1.660535,-55.04831,-24.55944,-26.44347
111.709337711,27.08876,72.3350099999998,49.06763,0.3292607,0.612964,-1.93843,-55.04831,-24.55944,-26.44347
111.719336033,20.87391,2.774039,11.87546,0.04696767,0.8314735,-1.824572,-50.72198,-16.64874,-39.48222
111.729333401,2.290872,-70.3480799999999,-14.58585,0.203903,0.7316241,-1.605153,-50.72198,-16.64874,-39.48222
111.739331245,12.56692,-128.1573,-32.08445,0.6541181,0.3995654,-1.480466,-50.72198,-16.64874,-39.48222
111.74932909,32.68829,-140.1465,-37.44988,1.787196,0.01582416,0.06824425,-50.72198,-16.64874,-39.48222
111.759326935,23.76597,-115.1591,-45.80288,1.782297,-0.3428152,1.243728,-47.48547,-9.787373,-40.7192
111.769325256,28.0733,-75.5117300000001,-16.47594,1.440987,-0.7496907,2.176694,-47.48547,-9.787373,-40.7192
111.779323101,129.9108,-94.5044900000002,-7.51323800000002,0.6636063,-0.7243617,-0.2751383,-47.48547,-9.787373,-40.7192
111.789320946,177.5375,-93.0800300000001,-27.57262,1.014414,-0.1355996,-0.6826912,-47.48547,-9.787373,-40.7192
111.799319267,136.6179,-86.6106300000002,-33.48678,1.270424,0.280748,-0.2391261,-47.48547,-9.787373,-40.7192
111.809317112,78.6536100000002,-89.81566,-7.57420899999999,1.43253,-0.2810545,-0.223471,-51.18607,-12.82729,-37.05426
111.819314957,52.19432,-110.589,24.80126,1.317814,-0.9041436,-0.6772793,-51.18607,-12.82729,-37.05426
111.829312801,72.3156900000001,-106.7311,-0.1357765,1.391861,-0.5000746,-0.1204499,-51.18607,-12.82729,-37.05426
111.839311123,105.1744,-98.9559200000002,-20.13419,1.204972,0.3451871,-0.06578404,-51.18607,-12.82729,-37.05426
111.849308968,96.1905800000002,-96.9379399999999,-22.8169,1.060465,0.9264484,-0.2231333,-51.18607,-12.82729,-37.05426
111.859306812,36.38028,-87.9163799999999,-10.9276,1.307345,0.9938945,0.02862852,-54.4425,-16.60775,-31.38252
111.86930418,-46.32038,-89.0440799999999,0.839755699999997,1.274712,0.4199201,-0.06831774,-54.4425,-16.60775,-31.38252
111.879302025,-83.3633900000003,-91.5368699999999,12.60711,1.082021,-0.2969001,-0.135755,-54.4425,-16.60775,-31.38252
111.889300346,-52.35064,-86.6699800000003,8.33915900000001,0.9840301,-0.7334765,-0.05219958,-54.4425,-16.60775,-31.38252
111.899298191,10.47479,-83.2869000000003,-0.01383498,0.96912,-0.9530238,-0.1152891,-54.4425,-16.60775,-31.38252
111.909296036,75.8230799999999,-77.7077699999998,-7.757121,1.016654,-0.5747201,0.02044623,-57.40684,-19.25133,-26.48855
111.919294357,77.73061,-74.9182099999999,-13.61031,0.9840427,-0.1612062,0.03523247,-57.40684,-19.25133,-26.48855
111.929292202,36.38028,-72.9002300000002,-11.23246,0.9144358,0.04257359,0.04487286,-57.40684,-19.25133,-26.48855
111.939290047,-15.2461,-71.1790100000001,-5.501203,0.9717303,0.0005391539,0.0007548038,-57.40684,-19.25133,-26.48855
111.949287891,-51.42764,-69.5764999999997,-4.220817,1.093209,-0.1160939,-0.2090432,-57.40684,-19.25133,-26.48855
111.959286213,-53.15057,-65.4218299999999,-10.9276,1.190797,-0.2005363,-0.1953129,-59.31405,-18.47036,-22.44298
111.969284058,-33.33687,-61.7419899999998,-22.51205,1.211784,-0.2524445,-0.1249855,-59.31405,-18.47036,-22.44298
111.979281902,-14.3231,-59.9614099999998,-28.85301,1.103925,-0.294641,-0.09559342,-59.31405,-18.47036,-22.44298
111.989280224,-9.70810800000002,-60.0801200000002,-33.18193,0.9932188,-0.2373416,-0.07340069,-59.31405,-18.47036,-22.44298
111.999278069,-11.00031,-61.2078200000003,-33.97455,0.9471087,-0.1692664,-0.07525214,-59.31405,-18.47036,-22.44298
112.009275436,-20.72256,-62.2168099999998,-33.79164,0.9614113,-0.1773492,-0.03363888,-61.17658,-19.60152,-19.61279
112.019273281,-26.69128,-65.5998899999998,-31.90154,0.9599949,-0.2070162,-0.08627214,-61.17658,-19.60152,-19.61279
112.029271126,-14.81537,-67.4398100000002,-30.07242,1.025111,-0.1167347,0.02701363,-61.17658,-19.60152,-19.61279
112.039269447,-15.30763,-70.2887299999998,-33.73066,0.9897704,-0.2145173,-0.2796668,-61.17658,-19.60152,-19.61279
112.049267292,-9.461974,-68.0926900000001,-34.82814,0.9443862,-0.1854303,-0.2953883,-61.17658,-19.60152,-19.61279
112.059265137,-9.64657399999997,-68.2707399999998,-34.34037,1.007035,-0.1179569,-0.120356,-61.18283,-19.95463,-16.38575
112.069263458,-5.339249,-68.2707399999998,-34.34037,0.9890924,-0.204304,-0.2772754,-61.18283,-19.95463,-16.38575
112.079261303,-15.0615,-65.4218299999999,-33.30387,0.9729744,-0.1477522,-0.1695822,-61.18283,-19.95463,-16.38575
112.089259148,-6.75451300000001,-64.7689600000002,-32.38931,1.013692,-0.1105942,-0.1797129,-61.18283,-19.95463,-16.38575
112.099256992,-12.16944,-61.5045799999998,-31.84057,1.01849,-0.1330194,-0.1979014,-61.18283,-19.95463,-16.38575
112.109255314,-11.98484,-59.4866000000001,-30.37728,1.007049,-0.09650785,-0.2720701,-63.04117,-21.45906,-12.71502
112.119253159,-11.98484,-57.1125,-30.7431,0.9996377,-0.09144928,-0.2873729,-63.04117,-21.45906,-12.71502
112.129251003,-11.49257,-54.67905,-30.43825,0.9892057,-0.0810217,-0.2935789,-63.04117,-21.45906,-12.71502
112.139248371,-12.35404,-51.88949,-29.88951,0.9852889,-0.08018421,-0.2997938,-63.04117,-21.45906,-12.71502
112.149246216,-12.60017,-49.45605,-29.64563,0.9836257,-0.06956145,-0.3036222,-63.04117,-21.45906,-12.71502
112.159244537,-14.6923,-47.20066,-29.40174,0.9817446,-0.07289055,-0.2916537,-62.62997,-23.71768,-10.24906
112.169242382,-13.4001,-46.25102,-30.92601,0.9795626,-0.08660144,-0.2983464,-62.62997,-23.71768,-10.24906
112.179240227,-9.52350799999999,-45.7762,-31.96251,1.007095,-0.07096507,-0.1892831,-62.62997,-23.71768,-10.24906
112.189238548,-14.07697,-44.58915,-31.59669,0.9901943,-0.08132581,-0.2758733,-62.62997,-23.71768,-10.24906
112.199236393,-14.01543,-45.59814,-32.8161,0.9894381,-0.092263,-0.2481117,-62.62997,-23.71768,-10.24906
112.209234238,-15.36916,-47.20066,-33.66969,0.9866002,-0.12225,-0.2265631,-62.63255,-24.07788,-7.860519
112.219232082,-13.70777,-50.70245,-34.58426,0.9880722,-0.149075,-0.2404375,-62.63255,-24.07788,-7.860519
112.229230404,-10.69264,-53.19524,-37.51085,1.013334,-0.1445304,-0.223254,-62.63255,-24.07788,-7.860519
112.239228249,-10.75417,-56.16286,-38.91318,1.027826,-0.1115895,-0.212759,-62.63255,-24.07788,-7.860519
112.249226093,-12.78477,-59.7240100000001,-40.80327,1.066694,-0.07906432,-0.1941707,-62.63255,-24.07788,-7.860519
112.259224415,-13.52317,-63.8786700000002,-42.14463,1.094999,-0.0550878,-0.1841761,-62.61013,-25.58187,-5.788399
112.26922226,-15.36916,-67.7365700000003,-43.48598,1.151826,-0.04520495,-0.182842,-62.61013,-25.58187,-5.788399
112.279220104,-15.0615,-72.72218,-47.32714,1.157218,0.004914077,-0.1871715,-62.61013,-25.58187,-5.788399
112.289217472,-13.7693,-79.0728799999998,-49.76598,1.110862,-0.01723407,-0.1708134,-62.61013,-25.58187,-5.788399
112.299215317,-10.32344,-86.0764499999998,-56.04596,1.152262,-0.04139558,-0.1392933,-62.61013,-25.58187,-5.788399
112.309213638,-12.23097,-92.6645699999999,-54.64363,1.14574,-0.03127581,-0.1344988,-62.19615,-28.21104,-2.159405
112.319211483,-15.36916,-99.1339800000001,-63.1795400000001,1.249991,-0.05532099,-0.1198385,-62.19615,-28.21104,-2.159405
112.329209328,-26.26055,-104.4163,-66.77682,1.405427,-0.08021971,-0.09665282,-62.19615,-28.21104,-2.159405
112.339207172,-42.32072,-108.3929,-71.2276799999997,1.578587,-0.06304746,-0.08116609,-62.19615,-28.21104,-2.159405
112.349205494,-64.5957500000002,-112.3696,-75.1907799999999,1.698629,0.009061392,0.05165022,-60.66975,-30.44378,2.378908
112.359203339,-91.54731,-118.839,-80.0684400000001,1.77148,-0.0259333,0.2118552,-60.66975,-30.44378,2.378908
112.369201183,-104.5924,-125.6645,-86.4703799999997,1.824592,-0.1805247,0.2496099,-60.66975,-30.44378,2.378908
112.379199505,-103.6078,-129.9379,-95.7989000000002,1.901041,-0.3313884,0.3256091,-60.66975,-30.44378,2.378908
112.38919735,-92.4087800000002,-139.4342,-97.689,1.793792,-0.5926267,0.1545331,-60.66975,-30.44378,2.378908
112.399195194,-65.0264799999999,-155.5781,-94.0917200000001,1.692719,-0.768577,-0.05581886,-59.13155,-33.06451,6.016243
112.409193039,-24.10688,-159.9702,-99.21326,1.746241,-0.6093482,-0.08275341,-59.13155,-33.06451,6.016243
112.419191361,-4.60085,-152.5511,-112.6878,1.649884,-0.1507075,-0.1497042,-59.13155,-33.06451,6.016243
112.429189205,-30.99861,-134.5673,-129.1499,1.664153,-0.3152353,-0.2109444,-59.13155,-33.06451,6.016243
112.439186573,-35.12133,-124.062,-122.8089,1.387565,-0.8554537,-0.6582704,-59.13155,-33.06451,6.016243
112.449184418,-3.247118,-125.1303,-111.6513,1.208807,-1.06611,-0.6172255,-55.34735,-35.9679,11.73596
112.459182739,44.9334,-110.2329,-109.1515,0.9990152,-0.9481077,-0.5977471,-55.34735,-35.9679,11.73596
112.469180584,110.9586,-92.8426299999998,-108.6028,0.7321557,-0.5709854,-0.7079301,-55.34735,-35.9679,11.73596
112.479178429,134.895,-72.72218,-111.4684,0.6524755,-0.06405421,-0.6849501,-55.34735,-35.9679,11.73596
112.489176273,114.589,-40.90931,-110.7367,0.8719198,0.06461351,-0.3747699,-55.34735,-35.9679,11.73596
112.499174595,94.8983800000002,-15.03167,-105.92,0.7441947,-0.1852188,-0.1055232,-50.85463,-40.06405,18.24121
112.50917244,90.7756600000002,2.595982,-96.10375,0.5807243,-0.3546361,-0.104716,-50.85463,-40.06405,18.24121
112.519170284,94.0369200000002,26.51499,-89.2140599999999,0.570641,-0.4364575,0.0561242,-50.85463,-40.06405,18.24121
112.529168606,100.1902,47.28831,-86.7142600000001,0.4586551,-0.444083,-0.05710114,-50.85463,-40.06405,18.24121
112.539166451,113.9121,69.0112799999999,-85.3729000000002,0.4262834,-0.4347162,-0.131705,-50.85463,-40.06405,18.24121
112.549164295,124.6189,90.1407199999998,-85.2509600000003,0.4180935,-0.364357,-0.2312527,-47.47614,-41.14548,22.33583
112.55916214,128.6801,109.727,-84.3973700000002,0.4250748,-0.3481707,-0.2829552,-47.47614,-41.14548,22.33583
112.569160462,130.5261,129.7288,-79.5806799999999,0.4591925,-0.3755945,-0.326558,-47.47614,-41.14548,22.33583
112.579157829,130.8953,148.0093,-72.5690400000002,0.5033349,-0.3907058,-0.3208882,-47.47614,-41.14548,22.33583
112.589155674,127.1418,167.3582,-64.7038099999999,0.546499,-0.405197,-0.2984666,-47.47614,-41.14548,22.33583
112.599153519,123.2037,184.8078,-57.6921700000002,0.589236,-0.3975714,-0.300936,-47.11373,-40.3885,21.56056
112.609151364,125.7881,201.2484,-50.43665,0.6194994,-0.3747693,-0.3172662,-47.11373,-40.3885,21.56056
112.619149685,127.0187,215.5523,-43.05919,0.6429065,-0.3765796,-0.3531997,-47.11373,-40.3885,21.56056
112.62914753,123.0191,227.6008,-33.79164,0.6891645,-0.3762052,-0.4121453,-47.11373,-40.3885,21.56056
112.639145374,119.5117,239.8867,-23.06078,0.7526376,-0.3834008,-0.4328329,-47.11373,-40.3885,21.56056
112.649143696,114.3429,251.3418,-10.01304,0.8315684,-0.4099699,-0.4798641,-49.69807,-41.21357,16.25612
112.65914154,111.0201,261.7878,3.827323,0.9105536,-0.4394579,-0.5273733,-49.69807,-41.21357,16.25612
112.669139385,109.1741,269.4442,18.33836,1.017929,-0.4756391,-0.5711015,-49.69807,-41.21357,16.25612
112.67913723,107.6973,274.964,32.60552,1.107312,-0.4871164,-0.5846546,-49.69807,-41.21357,16.25612
112.689135551,120.5577,281.5521,47.23851,1.218338,-0.5357723,-0.6188144,-49.69807,-41.21357,16.25612
112.699133396,125.7881,287.2499,61.20081,1.251109,-0.5945149,-0.6303422,-54.12246,-39.44041,4.925524
112.709131241,132.126,292.2356,76.2605899999999,1.4004,-0.6050104,-0.6660145,-54.12246,-39.44041,4.925524
112.719128609,135.5719,296.0341,90.1009499999997,1.508484,-0.5750852,-0.7092825,-54.12246,-39.44041,4.925524
112.729126453,135.818,297.0431,104.0633,1.561013,-0.5198159,-0.7835675,-54.12246,-39.44041,4.925524
112.739124775,134.8335,296.0934,118.6962,1.585523,-0.45067,-0.820957,-54.12246,-39.44041,4.925524
112.74912262,126.2188,294.4316,130.9514,1.60422,-0.3301195,-0.8042704,-57.08949,-38.06189,-9.359402
112.759120464,108.8049,289.3273,140.2799,1.647025,-0.2488268,-0.8282948,-57.08949,-38.06189,-9.359402
112.769118786,93.7907899999999,281.6708,149.2426,1.666566,-0.1207819,-0.791033,-57.08949,-38.06189,-9.359402
112.779116631,69.7928200000001,269.8004,153.7544,1.657851,-0.07263191,-0.8207018,-57.08949,-38.06189,-9.359402
112.789114475,50.47139,251.6979,161.6806,1.658306,-0.1249135,-0.9058757,-57.08949,-38.06189,-9.359402
112.79911232,44.44113,228.0163,165.2169,1.504369,-0.1554843,-0.9931788,-55.60512,-34.37076,-24.01013
112.809110641,60.5013000000003,206.7681,144.0601,1.304989,0.1084487,-0.9799778,-55.60512,-34.37076,-24.01013
112.819108486,79.5766099999997,180.0002,118.1475,1.182947,0.09214073,-1.064469,-55.60512,-34.37076,-24.01013
112.829106331,115.8812,141.9553,98.9417100000001,1.031508,-0.1026196,-1.362786,-55.60512,-34.37076,-24.01013
112.839104652,163.0772,92.6928799999999,84.1258200000002,0.6356955,0.02518837,-1.727761,-55.60512,-34.37076,-24.01013
112.849102497,196.3051,39.63186,52.54296,0.2689448,0.6113595,-1.771302,-51.63882,-28.01282,-32.91518
112.859100342,168.246,-22.39137,17.78963,0.1561072,1.047349,-1.517093,-51.63882,-28.01282,-32.91518
112.86909771,125.0497,-78.5387,2.059171,0.4100318,1.049848,-1.315099,-51.63882,-28.01282,-32.91518
112.879095554,101.7286,-119.5512,-8.36682900000002,0.7644834,0.5465944,-1.317502,-51.63882,-28.01282,-32.91518
112.889093876,116.7427,-143.5296,-22.69496,0.9655407,0.2724994,-1.276624,-51.63882,-28.01282,-32.91518
112.899091721,149.2322,-147.6249,-34.88911,1.658608,0.3407358,-0.3106475,-49.75644,-28.74585,-31.28472
112.909089565,107.9434,-126.7328,-26.23126,1.62386,0.1465533,0.9519467,-49.75644,-28.74585,-31.28472
112.919087887,110.0971,-112.4883,-5.25732,1.257486,-0.382635,0.6823261,-49.75644,-28.74585,-31.28472
112.929085731,141.1714,-103.5854,-9.03750800000002,1.084757,-0.2772043,0.2576246,-49.75644,-28.74585,-31.28472
112.939083576,149.786,-104.0602,-20.25613,1.161367,0.1669239,-0.4403872,-51.18455,-34.00635,-22.30191
112.949081421,105.5436,-116.1681,11.57061,1.469384,-0.2901682,-0.9792046,-51.18455,-34.00635,-22.30191
112.961578846,55.33252,-129.1069,28.2766,1.77531,-0.3208249,-0.3183378,-51.18455,-34.00635,-22.30191
112.969077587,46.16406,-125.1303,17.66768,1.605695,-0.2831704,0.0734234,-51.18455,-34.00635,-22.30191
112.979075432,59.8859700000001,-120.9163,10.04634,0.9224576,-0.07584833,-0.06231167,-51.18455,-34.00635,-22.30191
112.989073753,45.42566,-110.9451,12.4242,0.8716927,0.239137,-0.1015475,-52.62154,-38.82365,-13.38596
112.999071598,18.96638,-104.7725,11.14381,1.09909,0.4531388,-0.2005857,-52.62154,-38.82365,-13.38596
113.009069443,15.76665,-97.47211,9.92439900000002,1.199568,0.2154109,-0.1633707,-52.62154,-38.82365,-13.38596
113.021566868,28.56556,-95.3354300000001,2.668878,1.175697,-0.09438958,-0.08667716,-52.62154,-38.82365,-13.38596
113.029064655,44.62573,-95.8102399999999,-0.5625718,1.109373,-0.2248053,-0.228665,-52.62154,-38.82365,-13.38596
113.041562557,79.5766099999997,-90.4685300000003,-4.769554,1.031221,-0.05994341,-0.258243,-55.20291,-39.1682,-6.888403
113.049060822,70.22356,-84.23653,-8.06197500000001,1.101425,0.174908,-0.1292103,-55.20291,-39.1682,-6.888403
113.059058666,42.10287,-81.0908600000001,-7.51323800000002,1.187738,0.3257262,-0.1901788,-55.20291,-39.1682,-6.888403
113.071556091,-14.44617,-77.4110100000002,-3.976934,1.15247,0.1797066,-0.1929511,-55.20291,-39.1682,-6.888403
113.081553936,-31.61394,-72.3067100000001,-3.550139,1.072668,-0.1075219,-0.02475786,-55.20291,-39.1682,-6.888403
113.089052677,-31.86007,-70.1106699999998,-9.09847800000002,1.03285,-0.3257545,-0.1557621,-55.96937,-39.50623,-1.215909
113.099050522,-2.877919,-68.0926900000001,-15.01264,1.067903,-0.4297552,-0.2323686,-55.96937,-39.50623,-1.215909
113.111547947,12.44386,-61.3265199999998,-23.67049,1.057441,-0.3387092,-0.1907377,-55.96937,-39.50623,-1.215909
113.121545792,20.32011,-56.57833,-27.63359,1.043151,-0.2004807,-0.1888341,-55.96937,-39.50623,-1.215909
113.129044533,18.96638,-53.31395,-31.65766,1.078704,-0.146372,-0.1410524,-55.96937,-39.50623,-1.215909
113.141541958,6.90586400000002,-48.98123,-31.96251,1.010914,-0.1704989,-0.188307,-55.97561,-39.85935,2.011135
113.151539803,1.614007,-46.60713,-23.79243,0.986312,-0.1314614,-0.1705668,-55.97561,-39.85935,2.011135
113.161538124,3.644603,-41.08736,-19.52448,1.028321,0.1210108,-0.2319628,-55.97561,-39.85935,2.011135
113.171535969,4.690668,-39.90031,-23.48758,1.116639,0.1928366,-0.2206495,-55.97561,-39.85935,2.011135
113.181533814,-0.170457,-37.82298,-23.2437,1.094571,0.1239671,-0.1583784,-55.97561,-39.85935,2.011135
113.191531658,-0.3550567,-37.88234,-23.91437,1.027685,0.0004549884,-0.1821588,-54.82476,-41.72818,4.932131
113.199029923,2.475472,-38.06039,-24.88991,1.018162,-0.03705417,-0.1716038,-54.82476,-41.72818,4.932131
113.211527348,6.90586400000002,-38.06039,-25.49961,0.9901494,-0.07656188,-0.1801592,-54.82476,-41.72818,4.932131
113.221525192,8.074996,-37.94168,-25.07282,0.9639673,-0.08407097,-0.2006904,-54.82476,-41.72818,4.932131
113.231523037,9.55179399999999,-37.11075,-24.95088,0.9492804,-0.0812622,-0.2336873,-54.82476,-41.72818,4.932131
113.241520882,8.50572900000001,-35.62695,-25.01185,0.9479732,-0.06393888,-0.2494824,-53.69356,-42.46356,6.944038
113.251519203,7.705796,-34.4399,-24.88991,0.9383367,-0.09571986,-0.249936,-53.69356,-42.46356,6.944038
113.261517048,13.98219,-32.83738,-24.95088,0.9317678,-0.1103806,-0.2977784,-53.69356,-42.46356,6.944038
113.271514893,18.41258,-31.41292,-25.56059,0.9549375,-0.04597059,-0.2657708,-53.69356,-42.46356,6.944038
113.281513214,9.12106099999997,-29.39495,-26.41418,0.9834532,-0.007473056,-0.2624804,-53.69356,-42.46356,6.944038
113.291511059,7.27506400000001,-28.92013,-27.38971,0.9817852,-0.02187371,-0.2395021,-53.28825,-44.34564,8.956469
113.301508904,5.85979899999999,-28.97948,-27.93844,0.9857566,-0.05127978,-0.2222728,-53.28825,-44.34564,8.956469
113.311506748,8.62879600000002,-30.28523,-29.64563,0.9774732,-0.07716763,-0.2189016,-53.28825,-44.34564,8.956469
113.32150507,11.39779,-31.65033,-31.71863,0.9804875,-0.05553803,-0.1983337,-53.28825,-44.34564,8.956469
113.331502915,14.65905,-34.14314,-33.79164,0.9844665,-0.03341658,-0.1792032,-52.21164,-45.46185,10.96994
113.341500759,13.92065,-37.40752,-35.98658,0.9833844,-0.02755842,-0.1739385,-52.21164,-45.46185,10.96994
113.351498127,19.58171,-40.7906,-39.33997,0.9971317,-0.03161108,-0.1155752,-52.21164,-45.46185,10.96994
113.361495972,16.07432,-44.11433,-41.47395,1.019014,-0.05645744,-0.169686,-52.21164,-45.46185,10.96994
113.371494293,20.68931,-47.49742,-45.86385,1.028407,-0.03789382,-0.1792787,-52.21164,-45.46185,10.96994
113.381492138,25.6735,-51.41467,-50.25374,1.036952,-0.05182168,-0.1797686,-50.7057,-46.19442,12.98463
113.391489983,23.70444,-55.80675,-52.87548,1.039574,-0.06135272,-0.1649348,-50.7057,-46.19442,12.98463
113.401488304,28.87323,-60.0207700000002,-56.22887,1.06222,-0.04786824,-0.1740707,-50.7057,-46.19442,12.98463
113.411486149,29.36549,-64.4721899999998,-59.0335300000001,1.116437,-0.001669352,-0.1282338,-50.7057,-46.19442,12.98463
113.421483994,23.02757,-69.6358499999998,-60.6797399999998,1.144563,0.08421561,-0.09671897,-50.7057,-46.19442,12.98463
113.431481838,14.53599,-76.6394300000001,-64.9476900000002,1.17946,0.1212771,-0.0518032,-48.79919,-48.4347,16.30022
113.44148016,4.998334,-85.1861700000001,-72.0202999999999,1.195566,0.06897417,-0.0140103,-48.79919,-48.4347,16.30022
113.451478005,2.598538,-95.2167200000003,-80.49524,1.263116,-0.0233191,0.05624638,-48.79919,-48.4347,16.30022
113.461475849,-1.647255,-102.9919,-88.8482400000002,1.423718,-0.1133309,0.1746764,-48.79919,-48.4347,16.30022
113.471474171,-13.33857,-106.7311,-95.1891899999999,1.665388,-0.1616843,0.2628042,-48.79919,-48.4347,16.30022
113.481472015,-24.90682,-112.5476,-103.3593,1.931543,-0.1642297,0.3652347,-45.44428,-48.37507,20.38876
113.49146986,-47.05878,-118.3048,-110.0051,2.033951,-0.1896303,0.5541003,-45.44428,-48.37507,20.38876
113.501467705,-50.01238,-129.463,-117.3825,1.946255,-0.4008977,0.4380136,-45.44428,-48.37507,20.38876
113.511465073,-27.98348,-142.2831,-126.894,1.924246,-0.6403138,0.02510243,-45.44428,-48.37507,20.38876
113.521463394,-7.49291199999998,-139.9091,-144.0878,1.965631,-0.3308208,-0.1229294,-45.44428,-48.37507,20.38876
113.531461239,1.552473,-135.2796,-166.464,1.812269,-0.4735654,-0.3619134,-40.51178,-52.10774,24.50871
113.541459084,24.0121,-129.1663,-174.0244,1.478588,-0.6654361,-0.5350054,-40.51178,-52.10774,24.50871
113.551457405,68.9313600000001,-120.6195,-179.2679,1.35305,-0.8321832,-0.5897798,-40.51178,-52.10774,24.50871
113.56145525,115.4505,-105.9001,-170.0613,1.150429,-0.9187685,-0.7454201,-40.51178,-52.10774,24.50871
113.571453095,151.7551,-77.1736000000002,-157.8062,1.064752,-0.8380035,-0.4437886,-40.51178,-52.10774,24.50871
113.581450939,195.1976,-68.0333299999998,-156.8916,0.635397,-0.5571812,-0.7427011,-32.54291,-58.08316,30.66258
113.591449261,231.1329,-50.04957,-156.3429,0.488813,-0.3840903,-0.8932416,-32.54291,-58.08316,30.66258
113.601447106,249.9621,-31.70969,-156.099,0.5990043,-0.04835024,-0.8179051,-32.54291,-58.08316,30.66258
113.61144495,262.9456,-1.677389,-151.0384,0.78899,-0.1585052,-0.1505943,-32.54291,-58.08316,30.66258
113.621443272,229.4716,15.17868,-148.1118,0.5779517,-0.4928738,-0.1238186,-32.54291,-58.08316,30.66258
113.631441116,238.3939,34.23079,-145.9778,0.4911605,-0.6193263,-0.1073632,-24.01183,-59.43031,43.76324
113.641438961,244.0549,53.34225,-145.3681,0.4098495,-0.648535,-0.09668522,-24.01183,-59.43031,43.76324
113.651436806,248.0546,71.5040800000002,-150.1848,0.3568804,-0.4777135,-0.2196309,-24.01183,-59.43031,43.76324
113.661435127,237.4093,90.8529499999999,-151.4652,0.4160331,-0.3337711,-0.2829432,-24.01183,-59.43031,43.76324
113.671432495,214.8882,109.7864,-150.8555,0.4720159,-0.3065611,-0.3510055,-24.01183,-59.43031,43.76324
113.68143034,189.8442,127.1173,-147.9899,0.5228953,-0.3964279,-0.404193,-19.3193,-53.20509,55.9575
113.691428184,172.0611,143.6766,-142.0757,0.5634063,-0.4785052,-0.4334357,-19.3193,-53.20509,55.9575
113.701426029,160.8005,157.7431,-135.9786,0.5824493,-0.4797832,-0.4018825,-19.3193,-53.20509,55.9575
113.711424351,150.586,169.5542,-128.7841,0.5730519,-0.4728508,-0.4205324,-19.3193,-53.20509,55.9575
113.721422195,138.71,178.9319,-120.8579,0.601004,-0.4826481,-0.4363716,-19.3193,-53.20509,55.9575
113.73142004,134.2181,189.3185,-110.4319,0.6618826,-0.5073977,-0.4580073,-21.37428,-45.93083,63.1936
113.741418362,127.4495,199.9426,-98.5425900000001,0.7113256,-0.5467681,-0.512641,-21.37428,-45.93083,63.1936
113.751416206,128.4955,209.6764,-87.0191099999998,0.7806087,-0.6046982,-0.5673046,-21.37428,-45.93083,63.1936
113.761414051,144.1865,219.9444,-76.04437,0.8621318,-0.6650653,-0.5961457,-21.37428,-45.93083,63.1936
113.771411896,156.9239,227.8976,-64.88673,0.9460448,-0.7493674,-0.6436493,-21.37428,-45.93083,63.1936
113.781410217,174.9531,233.7735,-55.25334,0.9801511,-0.8027964,-0.7145243,-29.29685,-40.65409,64.33279
113.791408062,206.7043,240.8957,-46.29064,1.069814,-0.8566161,-0.788846,-29.29685,-40.65409,64.33279
113.801405907,230.7638,246.7716,-37.63279,1.139175,-0.8654418,-0.7880075,-29.29685,-40.65409,64.33279
113.811404228,243.255,251.4605,-28.18233,1.210061,-0.8520024,-0.8000989,-29.29685,-40.65409,64.33279
113.821401119,250.1467,252.2914,-19.09768,1.258323,-0.8778229,-0.7523187,-29.29685,-40.65409,64.33279
113.831399441,251.3159,249.6799,-8.48877,1.304368,-0.9728089,-0.9294477,-43.25999,-35.45714,61.3635
113.841397285,265.8377,249.8579,5.412563,1.3531,-0.9183512,-0.8189957,-43.25999,-35.45714,61.3635
113.85139513,265.6531,247.1871,17.36283,1.359429,-0.8662567,-0.8218916,-43.25999,-35.45714,61.3635
113.861393452,260.7305,242.5576,30.53251,1.380609,-0.8008755,-0.8386955,-43.25999,-35.45714,61.3635
113.871391296,248.0546,238.0468,44.43385,1.408324,-0.7716048,-0.8330084,-43.25999,-35.45714,61.3635
113.881389141,224.0566,232.0522,59.1277999999998,1.408729,-0.793644,-0.8526251,-59.83884,-26.21719,51.45171
113.891386986,213.4729,225.4048,78.3336,1.430555,-0.7612581,-0.8124711,-59.83884,-26.21719,51.45171
113.901385307,187.8136,217.5109,94.1250199999998,1.435118,-0.6932985,-0.8302038,-59.83884,-26.21719,51.45171
113.911383152,159.1391,210.3293,111.2578,1.386586,-0.4958397,-0.8134199,-59.83884,-26.21719,51.45171
113.921380997,122.8345,202.7322,125.2811,1.342394,-0.4007419,-0.8401676,-72.81564,-11.61623,35.02399
113.931379318,87.1451999999999,194.957,138.3898,1.316331,-0.3368416,-0.8635889,-72.81564,-11.61623,35.02399
113.941377163,68.1929599999999,179.9409,148.7548,1.206208,-0.1552392,-0.8533936,-72.81564,-11.61623,35.02399
113.951375008,49.54839,171.9283,128.8783,1.102894,0.1061666,-0.7929802,-72.81564,-11.61623,35.02399
113.961372852,11.33626,159.1082,117.5378,0.9865384,0.1019776,-0.7339114,-72.81564,-11.61623,35.02399
113.97137022,1.244807,139.0471,113.9405,0.8980659,-0.2513809,-0.9227037,-78.63169,1.072992,18.65959
113.981368542,18.96638,113.2881,111.5017,0.8326787,-0.4847461,-1.112046,-78.63169,1.072992,18.65959
113.991366386,70.1620300000002,87.7072799999999,103.7584,0.8544943,-0.4037033,-1.224091,-78.63169,1.072992,18.65959
114.001364231,111.7585,63.8476199999999,88.8205599999997,0.8552499,0.0229157,-1.229945,-78.63169,1.072992,18.65959
114.011362553,132.8029,41.05632,70.40739,0.8222511,0.4838917,-1.178799,-78.63169,1.072992,18.65959
114.021360397,120.6193,14.58516,60.3472199999999,0.7116881,0.7151434,-1.158566,-77.6693,10.88841,8.87566
114.031358242,97.3597100000001,-13.60721,50.77481,0.6690313,0.7295008,-1.143659,-77.6693,10.88841,8.87566
114.041356087,87.0836600000003,-43.22405,37.72707,0.6706627,0.6168516,-1.137411,-77.6693,10.88841,8.87566
114.051354408,85.4222599999999,-70.46678,32.36164,1.309041,0.2097576,-0.7512515,-77.6693,10.88841,8.87566
114.061352253,133.4797,-117.9487,5.412563,0.7092226,0.583621,-1.293965,-77.6693,10.88841,8.87566
114.071350098,176.553,-117.5332,-11.9641,1.314355,0.6675949,-0.1708659,-75.18543,18.05458,6.85742
114.081348419,98.65191,-92.96133,4.37606,1.711648,0.3101894,1.437985,-75.18543,18.05458,6.85742
114.091346264,86.65293,-91.6555799999998,12.91197,1.619322,-0.2219641,0.4126943,-75.18543,18.05458,6.85742
114.101344109,112.3123,-102.8138,21.08205,1.238222,-0.2988189,-0.6820822,-75.18543,18.05458,6.85742
114.111341953,126.6495,-97.0566499999997,-2.879461,1.522578,0.3674257,-0.4453757,-75.18543,18.05458,6.85742
114.121340275,103.8207,-98.7185100000002,-4.525671,1.485574,0.4736264,-0.2835798,-74.12418,20.37566,10.46561
114.13133812,54.96331,-100.9146,6.38809499999999,1.226508,0.2875267,-0.09404272,-74.12418,20.37566,10.46561
114.141335487,41.0568,-98.3624,-0.0748057500000001,1.182959,0.1397575,-0.1638009,-74.12418,20.37566,10.46561
114.151333332,33.48822,-90.0530599999997,-6.53770599999998,1.179205,0.2102764,-0.1494552,-74.12418,20.37566,10.46561
114.161331177,11.70546,-83.5836599999998,-2.574607,1.189577,0.07592565,-0.03793046,-74.12418,20.37566,10.46561
114.171329498,7.02893100000003,-81.8030900000001,-2.635578,1.02761,-0.1729107,-0.0103052,-73.03515,21.1824,14.92042
114.181327343,28.19636,-80.0818699999999,-5.25732,0.904774,-0.3279988,-0.07130886,-73.03515,21.1824,14.92042
114.191325188,43.51814,-79.90381,-5.074408,0.8969831,-0.2519047,-0.1292226,-73.03515,21.1824,14.92042
114.201323509,58.9629699999999,-78.0045299999999,-6.23285200000002,0.9740834,-0.07815385,-0.2131525,-73.03515,21.1824,14.92042
114.211321354,64.8701599999997,-72.3067100000001,-11.41537,1.062081,-0.01188746,-0.06544299,-73.03515,21.1824,14.92042
114.221319199,34.59582,-71.7725399999999,-11.04954,1.043233,0.004147161,-0.1309792,-71.94808,21.99295,19.82673
114.231317043,9.982527,-70.0513199999998,-6.72061799999998,1.045257,-0.02524034,-0.1075249,-71.94808,21.99295,19.82673
114.241315365,7.64426299999998,-69.3984399999998,-6.96450100000002,1.034091,-0.1307436,-0.0892924,-71.94808,21.99295,19.82673
114.25131321,10.16713,-65.7186000000003,-8.24488700000002,1.052825,-0.2187875,-0.03330899,-71.94808,21.99295,19.82673
114.261311054,24.0121,-65.1844300000002,-9.83012799999999,1.001267,-0.2787737,-0.1576334,-71.94808,21.99295,19.82673
114.271309376,27.8887,-65.3031299999997,-14.03711,1.020964,-0.235883,-0.0801495,-70.46322,22.03144,23.06287
114.281307221,32.62675,-65.3624799999998,-18.24409,1.060509,-0.1623113,-0.09124462,-70.46322,22.03144,23.06287
114.291305065,29.79623,-64.7689600000002,-22.8169,1.084597,-0.1478221,-0.09990472,-70.46322,22.03144,23.06287
114.301302433,20.44317,-63.7599700000001,-24.46311,1.053331,-0.1179308,-0.1113437,-70.46322,22.03144,23.06287
114.311300278,9.982527,-62.3948699999998,-26.65806,1.041992,-0.1372469,-0.1266334,-70.46322,22.03144,23.06287
114.321298599,4.198402,-60.0801200000002,-28.85301,1.045523,-0.1962612,-0.1577318,-68.98988,22.45737,27.13548
114.331296444,5.6752,-58.06214,-30.86504,1.036713,-0.2210744,-0.195039,-68.98988,22.45737,27.13548
114.341294289,8.56726199999997,-56.04416,-31.90154,1.010769,-0.189121,-0.2050521,-68.98988,22.45737,27.13548
114.35129261,9.85945999999999,-53.84812,-30.25533,1.002424,-0.1074284,-0.1811298,-68.98988,22.45737,27.13548
114.361290455,12.13619,-52.72042,-27.45068,0.9743036,-0.03848651,-0.2332633,-68.98988,22.45737,27.13548
114.3712883,15.82818,-53.13589,-27.45068,0.9428309,-0.04938328,-0.2408629,-68.21181,20.58192,29.60219
114.381286144,23.88904,-53.01719,-26.23126,0.9159659,-0.07247352,-0.2633032,-68.21181,20.58192,29.60219
114.391284466,36.50335,-50.34633,-28.42621,0.9529222,-0.0450141,-0.36914,-68.21181,20.58192,29.60219
114.401282311,24.13517,-45.18267,-27.63359,0.9939786,0.002957213,-0.2605871,-68.21181,20.58192,29.60219
114.411280155,12.93612,-40.7906,-24.58505,0.9929413,0.05765073,-0.2821353,-68.21181,20.58192,29.60219
114.421278477,2.475472,-38.95068,-22.87787,0.9924822,-0.04714187,-0.2624859,-66.32103,19.10235,32.91372
114.431276322,-2.631786,-35.44889,-22.75593,0.9827441,-0.1256805,-0.2744131,-66.32103,19.10235,32.91372
114.441274166,2.721605,-34.08378,-22.75593,0.9866842,-0.128107,-0.2825552,-66.32103,19.10235,32.91372
114.451272011,6.04439900000002,-32.18451,-23.8534,0.9946471,-0.08525696,-0.2902373,-66.32103,19.10235,32.91372
114.461270332,5.85979899999999,-30.10717,-24.2802,1.013758,-0.03850877,-0.2677896,-65.941,18.3646,35.30707
114.4712677,5.552134,-29.15754,-24.2802,1.001607,-0.01459213,-0.283089,-65.941,18.3646,35.30707
114.481265545,4.136869,-27.73308,-24.46311,1.012276,-0.01200427,-0.2888511,-65.941,18.3646,35.30707
114.49126339,3.890736,-26.13057,-24.76797,1.01937,-0.02642042,-0.2864669,-65.941,18.3646,35.30707
114.501261234,3.336937,-24.34999,-24.64602,1.026284,-0.03104236,-0.2754705,-65.941,18.3646,35.30707
114.511259556,2.167806,-23.2223,-24.82894,1.022882,-0.03162182,-0.2783359,-64.79986,17.30572,36.54667
114.521257401,1.49094,-22.27266,-24.95088,1.030036,-0.04879453,-0.2587224,-64.79986,17.30572,36.54667
114.531255245,1.737073,-21.56043,-25.68253,1.027282,-0.03183223,-0.2577648,-64.79986,17.30572,36.54667
114.541253567,0.3218088,-21.50108,-26.96291,1.044048,-0.04208204,-0.245827,-64.79986,17.30572,36.54667
114.551251412,-0.785789300000001,-21.61979,-28.36524,1.046312,-0.03272984,-0.2376975,-64.79986,17.30572,36.54667
114.561249256,-2.016454,-22.15396,-29.21883,1.030191,-0.02988268,-0.2103913,-65.14682,15.78857,37.3905
114.571247101,-2.50872,-24.76546,-31.71863,1.039216,-0.04324493,-0.203225,-65.14682,15.78857,37.3905
114.581245422,-4.047051,-27.79243,-33.18193,1.018219,-0.04066079,-0.1940961,-65.14682,15.78857,37.3905
114.591243267,-6.75451300000001,-31.47228,-36.59629,1.016919,-0.04875009,-0.1725558,-65.14682,15.78857,37.3905
114.601241112,-7.923645,-37.22946,-39.7058,1.017733,-0.0919214,-0.1658461,-65.14682,15.78857,37.3905
114.611239433,-6.69298,-42.92728,-43.6689,1.029439,-0.1183862,-0.1625096,-65.13029,14.66112,39.00909
114.621237278,-3.862451,-48.32835,-48.6685,1.045667,-0.1263924,-0.1697145,-65.13029,14.66112,39.00909
114.631234646,-1.339588,-53.84812,-53.6681,1.057389,-0.1274695,-0.153463,-65.13029,14.66112,39.00909
114.64123249,1.614007,-60.4955900000002,-59.2774099999999,1.055455,-0.1278489,-0.1376666,-65.13029,14.66112,39.00909
114.651230335,2.721605,-66.43082,-64.2160499999997,1.11306,-0.1071415,-0.123415,-65.13029,14.66112,39.00909
114.661228657,1.367874,-72.4254199999999,-69.5814700000001,1.171213,-0.06427179,-0.1311847,-63.96174,12.02777,41.48264
114.671226501,-3.308652,-77.7077699999998,-75.3127199999998,1.254523,-0.08857718,-0.09973763,-63.96174,12.02777,41.48264
114.681224346,-7.000646,-83.3462400000001,-81.0439799999998,1.328199,-0.09332038,-0.08694328,-63.96174,12.02777,41.48264
114.691222191,-12.2925,-88.27249,-85.4338700000001,1.360738,-0.08722687,-0.07551575,-63.96174,12.02777,41.48264
114.701220512,-16.41523,-93.67356,-90.4334700000002,1.406452,-0.107341,-0.03586846,-63.96174,12.02777,41.48264
114.711218357,-19.12269,-97.6501699999999,-94.9453100000001,1.496132,-0.133438,-0.0015606,-61.67772,9.419749,45.96404
114.721216202,-22.50702,-100.2023,-97.2622000000001,1.625244,-0.1835872,0.02742037,-61.67772,9.419749,45.96404
114.731214523,-27.86041,-100.8552,-98.1767600000001,1.708859,-0.1453439,0.09617972,-61.67772,9.419749,45.96404
114.741212368,-37.0904,-102.1609,-98.6645299999999,1.65845,-0.1329299,0.1278504,-61.67772,9.419749,45.96404
114.751210213,-45.45892,-109.2239,-99.57909,1.523298,-0.04635795,0.1093993,-61.67772,9.419749,45.96404
114.761208057,-66.6263499999998,-104.5944,-109.8831,1.524012,-0.007245757,0.08067339,-58.57711,3.40123,51.30776
114.771206379,-82.3173200000001,-104.1789,-115.7973,1.462789,-0.3889191,-0.2871466,-58.57711,3.40123,51.30776
114.781204224,-64.6572899999997,-109.6393,-115.1266,1.326056,-0.6387327,-0.5266105,-58.57711,3.40123,51.30776
114.791202068,-50.38158,-125.7832,-115.0657,1.170885,-0.7917768,-0.878054,-58.57711,3.40123,51.30776
114.801199436,20.93544,-111.2419,-106.042,1.279904,-0.6512145,-0.7284859,-58.57711,3.40123,51.30776
114.811197758,43.4566,-103.7041,-97.07928,0.9689376,-0.4894311,-0.6447133,-52.89806,-3.362593,56.22304
114.821195602,62.9626399999999,-100.4397,-88.9091999999999,0.8410634,-0.3515661,-0.7555555,-52.89806,-3.362593,56.22304
114.831193447,86.7759899999998,-90.2311200000002,-75.1298099999999,0.8103325,-0.2945232,-0.6157724,-52.89806,-3.362593,56.22304
114.841191292,131.2645,-71.0009500000001,-68.6059400000001,0.9765596,-0.4209983,-0.3523342,-52.89806,-3.362593,56.22304
114.851189613,148.863,-54.44164,-58.9725600000002,0.8267133,-0.5821298,-0.06010009,-52.89806,-3.362593,56.22304
114.861187458,170.2766,-41.74024,-54.0949,0.6426136,-0.5631305,-0.1349205,-46.44748,-7.851264,59.58416
114.871185303,193.5977,-25.65575,-47.93685,0.6147319,-0.5075543,-0.2143298,-46.44748,-7.851264,59.58416
114.881183624,203.3199,-5.238531,-44.76637,0.5912505,-0.3744511,-0.2746237,-46.44748,-7.851264,59.58416
114.891181469,198.0896,15.59415,-37.99862,0.5814241,-0.2934062,-0.3181779,-46.44748,-7.851264,59.58416
114.901179314,184.6138,38.14805,-28.79204,0.6024758,-0.1940415,-0.2852184,-46.44748,-7.851264,59.58416
114.911177158,166.2154,58.3872100000001,-21.04875,0.5803992,-0.1342077,-0.2837597,-43.52934,-4.388128,61.65216
114.92117548,147.1401,77.7360799999998,-14.52488,0.6063702,-0.06350848,-0.2608515,-43.52934,-4.388128,61.65216
114.931173325,131.6337,94.4140899999998,-9.58624500000001,0.627613,-0.0007742189,-0.2484617,-43.52934,-4.388128,61.65216
114.941171169,117.9733,112.2792,-5.501203,0.6612428,0.02536971,-0.2255554,-43.52934,-4.388128,61.65216
114.951169491,105.9744,127.8888,-0.6845133,0.6494892,0.02779435,-0.2537715,-43.52934,-4.388128,61.65216
114.961167336,98.1596499999999,144.6262,4.619943,0.693691,0.008366812,-0.2950011,-44.44527,4.326643,58.31044
114.971164703,89.2988599999998,161.1262,11.26576,0.7124438,-0.005268215,-0.3385807,-44.44527,4.326643,58.31044
114.981162548,80.3765399999998,175.9049,19.31389,0.7428888,-0.0186196,-0.3764378,-44.44527,4.326643,58.31044
114.991160393,73.9770800000002,189.0811,28.64242,0.7800816,-0.0271396,-0.3788933,-44.44527,4.326643,58.31044
115.001158714,72.0080200000002,199.6458,38.15386,0.8180084,-0.04952342,-0.4110183,-44.44527,4.326643,58.31044
115.011156559,69.4851599999998,209.5577,47.29948,0.8628716,-0.07813569,-0.4484181,-50.50362,8.784348,50.95308
115.021154404,71.7618899999998,217.8077,57.4206200000002,0.8835685,-0.1167425,-0.4637587,-50.50362,8.784348,50.95308
115.031152248,77.2383400000002,227.3634,68.15147,0.9443657,-0.1370982,-0.4830025,-50.50362,8.784348,50.95308
115.04115057,78.03828,235.1979,78.02874,1.009167,-0.111206,-0.5017866,-50.50362,8.784348,50.95308
115.051148415,77.5460100000001,240.777,87.7840700000001,1.071961,-0.08183337,-0.5076466,-60.62383,14.31125,38.65749
115.061146259,71.3926800000003,246,97.9661800000001,1.138284,-0.05941793,-0.5379182,-60.62383,14.31125,38.65749
115.071144581,72.8079500000003,251.3418,107.5996,1.215258,-0.05908835,-0.5619813,-60.62383,14.31125,38.65749
115.081142426,70.7158200000002,255.7932,116.6232,1.262178,-0.04148238,-0.5979608,-60.62383,14.31125,38.65749
115.09114027,65.73163,260.5414,125.403,1.338003,0.02085051,-0.5880589,-60.62383,14.31125,38.65749
115.101138115,54.10185,265.2302,132.2927,1.391839,0.08595315,-0.5996554,-67.43884,21.27253,20.63816
115.111136436,36.99561,267.723,138.024,1.425004,0.1361174,-0.6059476,-67.43884,21.27253,20.63816
115.121134281,10.65939,266.714,141.4993,1.418799,0.2325217,-0.6251046,-67.43884,21.27253,20.63816
115.131132126,-18.50736,267.0702,140.3409,1.449061,0.3586232,-0.6639546,-67.43884,21.27253,20.63816
115.141129494,-55.48883,261.313,139.975,1.48794,0.3884065,-0.7324663,-67.43884,21.27253,20.63816
115.151127338,-94.5009,248.7303,138.5727,1.440537,0.3414045,-0.8276082,-68.30952,30.99543,1.552275
115.16112566,-113.5762,232.1116,135.89,1.3256,0.2846327,-0.888651,-68.30952,30.99543,1.552275
115.171123505,-118.1912,210.6854,126.7444,1.194631,0.2514255,-0.9420146,-68.30952,30.99543,1.552275
115.181121349,-111.7917,184.3329,111.8065,1.061407,0.3389504,-0.9666908,-68.30952,30.99543,1.552275
115.191119671,-99.2389599999999,152.8762,94.0030799999999,0.9512411,0.4437941,-1.007205,-68.30952,30.99543,1.552275
115.201117516,-87.7322500000003,119.3421,73.88273,0.8352402,0.5737257,-1.054894,-63.22157,40.83525,-8.975075
115.21111536,-83.3633900000003,83.4932599999999,51.32355,0.6774391,0.6715513,-1.122123,-63.22157,40.83525,-8.975075
115.221113682,-79.7944599999997,42.95559,29.00825,0.5295348,0.6835959,-1.185519,-63.22157,40.83525,-8.975075
115.231111527,-73.7642100000002,0.04382977,7.66848099999998,0.4854607,0.6177449,-1.170589,-63.22157,40.83525,-8.975075
115.241109371,-58.8731599999997,-41.97765,-11.65925,0.7525707,0.4381894,-0.9250205,-63.22157,40.83525,-8.975075
115.251107216,-55.9811,-74.2653400000003,-14.82973,0.9625419,0.3134423,-0.8325107,-56.2968,47.65707,-10.63588
115.261105537,-46.38192,-50.22763,-39.21803,1.684972,-0.08991608,1.264411,-56.2968,47.65707,-10.63588
115.271103382,-79.36373,-46.78519,-11.47634,1.641581,-0.8153824,1.257017,-56.2968,47.65707,-10.63588
115.281101227,-19.67649,-61.3265199999998,0.5349019,1.081321,-1.341854,0.1645824,-56.2968,47.65707,-10.63588
115.291099548,62.8395699999998,-60.0207700000002,-9.03750800000002,0.936015,-1.040838,-0.4526049,-56.2968,47.65707,-10.63588
115.301097393,102.9592,-59.7833600000002,-23.42661,1.114076,-0.5338331,-0.5004249,-55.6246,50.73332,-7.357027
115.311094761,91.0833199999999,-70.0513199999998,-0.623542499999998,1.114617,-0.8227129,-0.5266732,-55.6246,50.73332,-7.357027
115.321092606,95.3291200000002,-75.0369199999998,-1.9649,1.339315,-0.5302166,-0.1146076,-55.6246,50.73332,-7.357027
115.33109045,122.4037,-75.5117300000001,-27.32874,1.40531,0.1872047,-0.02637079,-55.6246,50.73332,-7.357027
115.341088772,103.4515,-74.2653400000003,-31.47475,1.142787,0.70118,0.0462195,-55.6246,50.73332,-7.357027
115.351086617,44.07193,-74.5620999999998,-24.21923,1.248304,0.9444345,-0.04447796,-55.59933,49.58899,-7.737946
115.361084461,-34.81367,-73.6124599999997,-9.403333,1.312551,0.5089443,0.01965137,-55.59933,49.58899,-7.737946
115.371082306,-75.0563999999999,-74.74015,-0.867425700000001,1.110081,-0.1276694,-0.02386075,-55.59933,49.58899,-7.737946
115.381080628,-67.4262799999999,-73.0189400000001,-1.111309,0.8806549,-0.5486025,-0.07073143,-55.59933,49.58899,-7.737946
115.391078472,-20.78409,-68.0926900000001,-3.61111,0.8736151,-0.7445847,-0.07162585,-55.59933,49.58899,-7.737946
115.401076317,30.71922,-65.1250699999998,-7.63518000000002,0.8786975,-0.7563882,-0.09795335,-56.35925,49.60352,-5.356996
115.411074638,69.7312900000002,-61.5639299999998,-10.80566,0.9431367,-0.5268522,-0.006238192,-56.35925,49.60352,-5.356996
115.421072483,76.1922800000003,-59.1898300000003,-12.3909,0.9410822,-0.2606617,0.03964015,-56.35925,49.60352,-5.356996
115.431070328,44.13347,-58.8337200000001,-11.65925,0.9348788,-0.03444075,0.02810689,-56.35925,49.60352,-5.356996
115.441068173,-3.062519,-59.01178,-6.78158900000002,0.9806687,0.01780705,0.009827721,-56.35925,49.60352,-5.356996
115.451066494,-34.506,-59.7833600000002,-3.489168,1.053811,-0.1422569,-0.06252356,-57.79076,48.85273,-2.912586
115.461064339,-45.88965,-59.1304800000002,-2.635578,1.094558,-0.2890781,-0.1046715,-57.79076,48.85273,-2.912586
115.471062183,-38.0134,-57.82473,-6.59867700000001,1.078938,-0.3657673,-0.114196,-57.79076,48.85273,-2.912586
115.481059551,-17.33823,-56.9938,-12.14702,1.034795,-0.4012061,-0.06816664,-57.79076,48.85273,-2.912586
115.491057396,-0.785789300000001,-58.06214,-15.56138,0.9906542,-0.3596215,-0.04847878,-57.79076,48.85273,-2.912586
115.501055718,0.691008299999998,-59.1304800000002,-18.24409,1.005515,-0.2682813,-0.02938517,-57.80685,48.88378,0.7639313
115.511053562,-9.154308,-61.3265199999998,-19.03671,1.008359,-0.2381099,-0.03083362,-57.80685,48.88378,0.7639313
115.521051407,-20.10723,-63.70062,-19.58545,0.9888614,-0.2637817,-0.03270733,-57.80685,48.88378,0.7639313
115.531049729,-24.16842,-65.4811900000003,-20.37807,0.9695326,-0.2995987,-0.08147916,-57.80685,48.88378,0.7639313
115.541047573,-22.19935,-65.8372999999998,-22.32913,0.950429,-0.2955905,-0.1331331,-57.80685,48.88378,0.7639313
115.551045418,-20.90716,-65.8372999999998,-23.42661,0.9773643,-0.2508245,-0.1317559,-57.80353,48.14705,3.606001
115.561043263,-21.83015,-66.3121199999999,-23.8534,0.9716073,-0.23102,-0.1853514,-57.80353,48.14705,3.606001
115.571041584,-19.92262,-66.37147,-22.87787,0.9960414,-0.2085996,-0.1777426,-57.80353,48.14705,3.606001
115.581039429,-25.39908,-65.3624799999998,-22.63399,0.9523881,-0.2206002,-0.2264782,-57.80353,48.14705,3.606001
115.591037274,-27.36814,-62.6322700000001,-21.59748,0.9081915,-0.1738273,-0.1177764,-58.18987,47.80147,8.05577
115.601035595,-26.99895,-65.1844300000002,-21.84137,0.9588865,-0.2299372,-0.2518516,-58.18987,47.80147,8.05577
115.61103344,-24.47608,-63.9973800000001,-22.26816,0.9684321,-0.2437961,-0.193957,-58.18987,47.80147,8.05577
115.621031284,-19.24576,-63.6412699999999,-21.23166,0.954835,-0.3025297,-0.3695556,-58.18987,47.80147,8.05577
115.631029129,-16.96903,-60.1988300000001,-21.47554,0.9719323,-0.275029,-0.2159695,-58.18987,47.80147,8.05577
115.64102745,-6.56991299999999,-60.9110600000002,-20.50001,0.9578156,-0.2260411,-0.3016227,-58.9254,46.3082,12.05734
115.651025295,-8.29284299999999,-56.93444,-20.80486,0.9839435,-0.2140578,-0.2169633,-58.9254,46.3082,12.05734
115.66102314,-15.55376,-54.85711,-18.36604,0.9940746,-0.1835679,-0.2524035,-58.9254,46.3082,12.05734
115.671020508,-16.66136,-54.32294,-16.84177,0.9842427,-0.2052751,-0.266738,-58.9254,46.3082,12.05734
115.681018829,-16.59983,-53.3733,-15.74429,0.9866847,-0.2057918,-0.2753565,-58.9254,46.3082,12.05734
115.691016674,-16.23063,-52.36431,-14.95167,0.980885,-0.1826952,-0.2877953,-59.66738,45.19257,15.73438
115.701014519,-17.03056,-51.77079,-14.58585,0.9848127,-0.1847368,-0.3069447,-59.66738,45.19257,15.73438
115.711012363,-19.24576,-50.93985,-13.61031,0.9821665,-0.199284,-0.2978434,-59.66738,45.19257,15.73438
115.721010685,-19.79956,-50.28698,-12.63478,1.003346,-0.2380129,-0.327542,-59.66738,45.19257,15.73438
115.73100853,-18.38429,-48.92188,-12.69575,1.005219,-0.2069755,-0.2854386,-59.66738,45.19257,15.73438
115.741006374,-22.01476,-47.79418,-11.90313,0.9797638,-0.1757485,-0.3227312,-58.17427,44.91082,18.58521
115.751004696,-24.10688,-48.03159,-12.02507,0.9940698,-0.1588473,-0.3122318,-58.17427,44.91082,18.58521
115.761002541,-25.64522,-48.32835,-12.69575,0.998783,-0.1505809,-0.3218137,-58.17427,44.91082,18.58521
115.771000385,-24.53762,-50.10892,-13.61031,0.9882425,-0.1599431,-0.3131785,-58.17427,44.91082,18.58521
115.78099823,-23.06082,-51.59273,-15.3175,0.9890749,-0.1784363,-0.317961,-58.17427,44.91082,18.58521
115.790996551,-22.50702,-53.90747,-17.26856,0.9558353,-0.1727012,-0.3097688,-58.52998,43.41056,21.42855
115.800994396,-22.99929,-56.87509,-19.21963,0.9473749,-0.215119,-0.3068716,-58.52998,43.41056,21.42855
115.810992241,-22.32242,-60.0207700000002,-20.80486,0.9723242,-0.2461859,-0.3040357,-58.52998,43.41056,21.42855
115.820990562,-22.50702,-63.3445000000001,-22.14622,0.9819681,-0.2405842,-0.2968753,-58.52998,43.41056,21.42855
115.830988407,-23.43002,-67.2617599999999,-23.30467,0.9855437,-0.2235627,-0.3031074,-58.52998,43.41056,21.42855
115.840985775,-23.92229,-72.2473500000003,-25.01185,0.9838905,-0.2134037,-0.3045428,-57.7904,43.07015,25.49966
115.85098362,-24.47608,-77.2922999999998,-26.17029,1.005388,-0.2163367,-0.2997938,-57.7904,43.07015,25.49966
115.860981464,-26.50668,-81.8624400000002,-25.98738,1.029664,-0.1849927,-0.2725653,-57.7904,43.07015,25.49966
115.870979786,-31.12167,-87.0260899999999,-26.47515,1.046155,-0.181489,-0.2970024,-57.7904,43.07015,25.49966
115.880977631,-34.8752,-92.4271599999999,-26.04835,1.090455,-0.2047705,-0.2817592,-57.7904,43.07015,25.49966
115.890975475,-38.07493,-97.6501699999999,-25.37767,1.126423,-0.2003215,-0.2980946,-57.08353,41.21112,29.96542
115.90097332,-42.87452,-102.3984,-26.23126,1.187865,-0.2024478,-0.2915011,-57.08353,41.21112,29.96542
115.910971642,-50.25851,-107.1465,-25.98738,1.292218,-0.2053498,-0.2500461,-57.08353,41.21112,29.96542
115.920969486,-60.2884300000003,-111.4793,-24.95088,1.383938,-0.1841999,-0.2080968,-57.08353,41.21112,29.96542
115.930967331,-72.5335400000001,-116.3462,-25.56059,1.506875,-0.1898645,-0.1370018,-57.08353,41.21112,29.96542
115.940965652,-84.6555900000002,-120.8569,-26.84097,1.677178,-0.227375,-0.0903886,-55.19561,39.37189,35.72999
115.950963497,-96.3468999999997,-125.5458,-20.50001,1.86731,-0.3863465,-0.0308571,-55.19561,39.37189,35.72999
115.960961342,-105.7615,-131.8371,-24.15826,2.074574,-0.3162284,0.01470683,-55.19561,39.37189,35.72999
115.970959187,-124.3445,-138.3659,-18.36604,1.90916,-0.3060315,-0.05344382,-55.19561,39.37189,35.72999
115.980957508,-141.8815,-149.2274,-8.79362499999998,1.749867,-0.3117374,-0.1732873,-55.19561,39.37189,35.72999
115.990955353,-152.2191,-148.5745,-4.586642,1.680748,-0.1600095,-0.1708129,-52.17451,36.79346,43.05496
116.000953197,-162.5567,-142.6986,2.303054,1.359539,-0.05628662,-0.3554886,-52.17451,36.79346,43.05496
116.010951519,-178.9245,-134.1519,6.510037,1.217557,-0.02147783,-0.3868361,-52.17451,36.79346,43.05496
116.02094841,-186.9238,-120.7382,12.66808,1.040692,-0.07844613,-0.5477933,-52.17451,36.79346,43.05496
116.030946732,-183.6626,-104.8318,22.4234,0.9177935,-0.1811083,-0.7207971,-52.17451,36.79346,43.05496
116.040944576,-182.555,-95.9289499999997,34.12979,0.7496632,-0.2786462,-0.5022482,-46.87717,32.71757,51.24324
116.050942421,-170.3098,-88.7473100000001,38.15386,0.5869386,-0.1748478,-0.4373835,-46.87717,32.71757,51.24324
116.060940743,-141.02,-77.8264800000002,39.25134,0.3050575,-0.01459376,-0.7422649,-46.87717,32.71757,51.24324
116.070938587,-134.7436,-46.48843,44.7387,0.626214,0.01830931,-0.3901227,-46.87717,32.71757,51.24324
116.080936432,-138.8664,-14.61621,66.5052599999998,0.6761411,-0.1929366,-0.05850209,-46.87717,32.71757,51.24324
116.090934753,-108.8381,7.34417099999997,86.32076,0.5961756,-0.3167481,0.07232045,-40.00555,25.58611,56.62085
116.100932598,-62.8728199999999,22.53838,98.6978299999997,0.5318608,-0.2657082,0.05375496,-40.00555,25.58611,56.62085
116.110930443,-20.04569,42.54013,99.2465700000001,0.5253119,-0.07304601,0.03983806,-40.00555,25.58611,56.62085
116.120928288,10.35173,56.01311,97.8442400000002,0.5068102,0.07993887,-0.03578409,-40.00555,25.58611,56.62085
116.130926609,25.91963,73.5220599999999,102.478,0.6141573,0.09724142,-0.07617607,-40.00555,25.58611,56.62085
116.140924454,35.08808,95.3637299999999,109.6116,0.6568833,0.07887942,-0.1040032,-35.78735,21.04951,56.28877
116.150922298,32.93442,117.9176,117.7207,0.7043326,0.1219281,-0.06916098,-35.78735,21.04951,56.28877
116.16092062,30.59616,137.1478,126.1347,0.7119503,0.1840563,-0.0404757,-35.78735,21.04951,56.28877
116.170918465,24.50437,154.3006,132.1098,0.7287667,0.2228218,-0.03572924,-35.78735,21.04951,56.28877
116.180916309,19.95091,173.2934,135.3412,0.7933519,0.2604469,-0.04638019,-35.46613,24.8074,50.53075
116.190914154,12.93612,192.5829,138.1459,0.802448,0.3208264,-0.05263308,-35.46613,24.8074,50.53075
116.200912476,-4.293184,207.7771,141.3773,0.8328212,0.3634577,-0.07949726,-35.46613,24.8074,50.53075
116.210909843,-24.90682,222.9713,146.1331,0.884678,0.4034707,-0.1202769,-35.46613,24.8074,50.53075
116.220907688,-46.87418,237.0972,151.2546,0.971183,0.415117,-0.1496239,-35.46613,24.8074,50.53075
116.230905533,-69.8876099999998,250.8076,157.5346,1.052116,0.4112732,-0.2134146,-37.44582,31.57109,42.3533
116.240903378,-88.2245099999999,260.6007,163.2659,1.074286,0.3979557,-0.2297214,-37.44582,31.57109,42.3533
116.250901699,-104.5924,268.6727,169.119,1.10994,0.3931525,-0.2474896,-37.44582,31.57109,42.3533
116.260899544,-119.2373,276.2104,174.2406,1.17443,0.3834595,-0.2777498,-37.44582,31.57109,42.3533
116.270897389,-132.4054,281.8489,178.5695,1.267537,0.3797553,-0.3525691,-37.44582,31.57109,42.3533
116.28089571,-141.5123,287.6654,182.6546,1.35811,0.3550003,-0.4388643,-39.39603,36.81717,34.63547
116.290893555,-153.2651,291.4046,186.1909,1.417738,0.345479,-0.4399229,-39.39603,36.81717,34.63547
116.300891399,-154.0035,292.7697,187.1664,1.467311,0.325019,-0.4993475,-39.39603,36.81717,34.63547
116.310889244,-160.6491,293.0665,184.3617,1.458247,0.3666703,-0.4950353,-39.39603,36.81717,34.63547
116.320887566,-174.9864,294.0755,178.1427,1.513379,0.4669574,-0.4879785,-39.39603,36.81717,34.63547
116.33088541,-200.7073,291.2859,169.8507,1.545122,0.5408609,-0.4990602,-40.5687,40.554,27.70531
116.340883255,-228.1511,287.4874,159.4247,1.563385,0.5263749,-0.5814034,-40.5687,40.554,27.70531
116.350881577,-236.4581,279.178,150.0962,1.56216,0.5362598,-0.7197123,-40.5687,40.554,27.70531
116.360879421,-235.3505,265.9424,134.7925,1.46206,0.5980183,-0.7640612,-40.5687,40.554,27.70531
116.370877266,-225.5052,245.4065,117.4158,1.365339,0.6098971,-0.7969174,-40.5687,40.554,27.70531
116.380875111,-207.2913,216.9174,99.5514100000001,1.219646,0.5309135,-0.8291863,-39.47923,42.8206,24.86347
116.390872479,-176.9554,179.8222,81.3211599999999,1.066473,0.4338452,-0.9097736,-39.47923,42.8206,24.86347
116.4008708,-131.4208,135.3672,54.25014,0.8351809,0.3690335,-1.066805,-39.47923,42.8206,24.86347
116.410868645,-74.01034,84.3241999999999,20.3504,0.5481109,0.3954628,-1.169205,-39.47923,42.8206,24.86347
116.42086649,-21.52249,27.76138,-14.58585,0.3051091,0.541929,-1.206627,-39.47923,42.8206,24.86347
116.430864334,8.25959600000003,-24.52805,-36.96212,0.7405714,0.3247586,-0.9216204,-38.72358,42.44914,25.25806
116.440862656,13.79759,-72.9595799999997,-50.68054,0.9813586,0.1199877,-0.6664278,-38.72358,42.44914,25.25806
116.4508605,-31.55241,-38.23845,-52.26578,1.774099,-0.6022435,1.427582,-38.72358,42.44914,25.25806
116.460858345,-88.1014500000001,-34.85536,-8.610712,1.50849,-1.683923,0.6252731,-38.72358,42.44914,25.25806
116.470856667,7.39812999999999,-43.87692,3.034703,0.6513085,-1.784384,-0.3743878,-38.72358,42.44914,25.25806
116.480854511,90.4679900000003,-45.36073,-14.95167,0.6039922,-1.144773,-0.8434746,-39.82957,41.30999,26.48131
116.490852356,96.3751800000001,-45.42009,-15.68332,0.6654111,-0.7862766,-0.9901181,-39.82957,41.30999,26.48131
116.500850201,68.6852299999997,-56.75639,-11.3544,0.9878583,-0.6283473,-0.1484271,-39.82957,41.30999,26.48131
116.510848522,87.1451999999999,-59.4272399999997,-17.57342,1.255395,-0.2309658,0.2156791,-39.82957,41.30999,26.48131
116.520846367,92.31399,-59.7240100000001,-30.01145,1.340364,0.4635456,0.3613179,-39.82957,41.30999,26.48131
116.530844212,81.42261,-64.1754299999997,-32.51125,1.447249,0.9401323,0.06429168,-39.07812,41.31179,26.03537
116.540842533,30.16543,-71.4164200000001,-27.20679,1.459775,1.075821,-0.003722897,-39.07812,41.31179,26.03537
116.550840378,-50.25851,-76.2239600000002,-17.87827,1.293232,0.3172586,-0.0161588,-39.07812,41.31179,26.03537
116.560838223,-64.7188200000002,-80.6753900000001,-5.562174,0.9756205,-0.625069,-0.1354851,-39.07812,41.31179,26.03537
116.570836544,-13.70777,-78.4199999999998,-10.31789,0.8882613,-0.9568994,-0.2046409,-39.07812,41.31179,26.03537
116.580834389,54.96331,-70.1106699999998,-18.24409,0.9345767,-0.9601272,-0.2856001,-37.21763,41.71657,27.27275
116.590831757,96.9289799999998,-61.0297599999997,-23.79243,0.9826346,-0.5845237,-0.1804939,-37.21763,41.71657,27.27275
116.600829601,91.6371200000002,-55.7474,-24.58505,0.9864603,-0.2153192,-0.0949305,-37.21763,41.71657,27.27275
116.610827446,46.964,-53.2546,-24.21923,0.986577,0.04014111,-0.005024188,-37.21763,41.71657,27.27275
116.620825767,-12.53864,-51.77079,-19.15866,1.019279,0.1151626,-0.002229058,-37.21763,41.71657,27.27275
116.630823612,-63.8573499999999,-49.21864,-11.90313,1.044706,-0.07393312,-0.1170829,-36.83083,40.96575,28.11809
116.640821457,-88.1014500000001,-45.24203,-7.51323800000002,1.046757,-0.3145837,-0.1864181,-36.83083,40.96575,28.11809
116.650819302,-76.4716600000002,-40.73125,-8.85459499999998,1.038463,-0.6003331,-0.2231804,-36.83083,40.96575,28.11809
116.660817623,-33.82914,-36.81399,-17.51244,0.9738247,-0.7896203,-0.1646327,-36.83083,40.96575,28.11809
116.670815468,14.72058,-34.91471,-24.76797,0.9467242,-0.5638323,-0.07227842,-36.83083,40.96575,28.11809
116.680813312,32.50368,-35.98306,-25.80447,0.9776598,-0.2375296,-0.007330025,-35.35213,41.38132,30.9652
116.690811634,20.93544,-39.06938,-24.09729,0.9690306,-0.1400425,0.04386755,-35.35213,41.38132,30.9652
116.700809479,-6.56991299999999,-42.80858,-22.45108,0.9258565,-0.2284395,0.03582979,-35.35213,41.38132,30.9652
116.710807323,-26.26055,-46.19167,-20.50001,0.8867682,-0.328586,-0.04351991,-35.35213,41.38132,30.9652
116.720805168,-38.93639,-47.43806,-20.86584,0.8821939,-0.3456239,-0.08992942,-35.35213,41.38132,30.9652
116.73080349,-46.44345,-47.49742,-22.02428,0.9077207,-0.3302747,-0.1139067,-34.95916,40.25342,32.19957
116.740801334,-48.65865,-49.57475,-22.57302,0.937967,-0.3064616,-0.1259299,-34.95916,40.25342,32.19957
116.750799179,-41.33619,-53.43266,-23.91437,0.9449061,-0.2869702,-0.13504,-34.95916,40.25342,32.19957
116.760797501,-40.16706,-57.3499099999999,-26.96291,0.928122,-0.3013897,-0.1345285,-34.95916,40.25342,32.19957
116.770795345,-31.92161,-60.1394699999998,-28.67009,0.9576805,-0.2327726,0.1836554,-34.20467,39.51904,34.6602
116.780792713,-33.9522,-64.5909000000003,-27.99941,0.9573192,-0.3250573,-0.1288303,-34.20467,39.51904,34.6602
116.790790558,-26.56821,-65.956,-29.2798,0.9565461,-0.3101093,-0.1398401,-34.20467,39.51904,34.6602
116.800788403,-20.84562,-67.4398100000002,-28.36524,0.9289703,-0.3527427,-0.3843334,-34.20467,39.51904,34.6602
116.810786724,-23.18389,-63.93803,-27.51165,0.9837786,-0.2838095,-0.2451811,-34.20467,39.51904,34.6602
116.820784569,-15.36916,-65.956,-27.32874,0.9862742,-0.2064892,-0.1384829,-33.42381,37.27304,38.28995
116.830782413,-18.75349,-63.70062,-24.88991,0.9973506,-0.2266369,-0.1868332,-33.42381,37.27304,38.28995
116.840780258,-21.27636,-62.0387499999999,-21.65846,0.9748764,-0.2253268,-0.260495,-33.42381,37.27304,38.28995
116.85077858,-20.10723,-61.7419899999998,-20.19516,0.9638892,-0.2637061,-0.288702,-33.42381,37.27304,38.28995
116.860776424,-18.63043,-60.0207700000002,-18.8538,0.9753075,-0.2744993,-0.2714904,-33.42381,37.27304,38.28995
116.870774269,-17.58436,-57.7060200000001,-16.47594,0.9698169,-0.2687247,-0.3188613,-32.27547,35.77422,39.98341
116.880772591,-15.92296,-55.33193,-16.23206,0.9858785,-0.2408525,-0.2815676,-32.27547,35.77422,39.98341
116.890770435,-20.29182,-52.24561,-12.93964,0.9763706,-0.2024809,-0.3160183,-32.27547,35.77422,39.98341
116.90076828,-23.43002,-49.99022,-11.17148,0.9866925,-0.2078636,-0.3423567,-32.27547,35.77422,39.98341
116.910766125,-25.82981,-47.91288,-8.67168299999997,0.985069,-0.1990829,-0.3351775,-32.27547,35.77422,39.98341
116.920764446,-27.98348,-46.13231,-7.39129699999998,0.9724895,-0.2043795,-0.3557329,-30.83367,35.04445,42.38464
116.930762291,-29.70641,-45.12332,-5.80605699999998,0.9503015,-0.2164804,-0.3556911,-30.83367,35.04445,42.38464
116.940760136,-29.89101,-44.29239,-4.830525,0.9389295,-0.233735,-0.3580597,-30.83367,35.04445,42.38464
116.950758457,-30.13714,-43.58016,-4.4647,0.9365664,-0.2376868,-0.3599689,-30.83367,35.04445,42.38464
116.960756302,-32.96767,-43.10534,-4.952466,0.9555249,-0.2610838,-0.3556887,-30.83367,35.04445,42.38464
116.970754147,-35.67513,-43.1647,-3.733052,0.9553767,-0.304668,-0.3389271,-29.30861,33.54462,43.62937
116.980751514,-36.65966,-43.58016,-3.672081,0.9456736,-0.3067201,-0.3298167,-29.30861,33.54462,43.62937
116.990749359,-36.352,-45.00462,-4.281788,0.9535943,-0.2877479,-0.3446713,-29.30861,33.54462,43.62937
117.000747681,-36.96733,-46.72584,-5.135378,0.9798883,-0.2603525,-0.3284526,-29.30861,33.54462,43.62937
117.010745525,-36.7212,-49.69345,-7.879063,0.9979613,-0.2109986,-0.3375897,-29.30861,33.54462,43.62937
117.02074337,-36.65966,-53.78877,-10.9276,1.000108,-0.195314,-0.3275474,-27.05515,32.82149,46.10113
117.030741692,-36.65966,-58.29955,-12.26896,1.006837,-0.215923,-0.3108037,-27.05515,32.82149,46.10113
117.040739536,-36.10587,-62.6322700000001,-12.87867,1.007429,-0.2219049,-0.3285105,-27.05515,32.82149,46.10113
117.050737381,-37.8288,-67.0243499999999,-13.4274,1.013522,-0.2348655,-0.3242106,-27.05515,32.82149,46.10113
117.060735226,-41.02853,-72.1880000000002,-12.69575,0.9947487,-0.2482788,-0.368682,-27.05515,32.82149,46.10113
117.070733547,-44.84359,-77.1142500000002,-12.02507,1.033468,-0.2593553,-0.3352463,-25.51973,30.57131,48.57543
117.080731392,-50.19698,-81.74374,-9.52527399999998,1.039809,-0.233326,-0.3189925,-25.51973,30.57131,48.57543
117.090729237,-57.7655600000002,-86.7886900000001,-7.69615000000002,1.068413,-0.2254147,-0.3128229,-25.51973,30.57131,48.57543
117.100727558,-64.2265499999998,-93.4955099999998,-6.72061799999998,1.109721,-0.2191348,-0.2999749,-25.51973,30.57131,48.57543
117.110725403,-71.1182799999998,-100.0243,-5.80605699999998,1.17083,-0.2031343,-0.2766353,-25.51973,30.57131,48.57543
117.120723248,-79.4252599999999,-106.9091,-5.98896899999998,1.269334,-0.2070326,-0.2782418,-23.63484,29.46828,51.43343
117.130721092,-89.02444,-114.5656,-6.96450100000002,1.383199,-0.1720582,-0.2602634,-23.63484,29.46828,51.43343
117.140719414,-109.515,-122.7562,-10.43984,1.534342,-0.1755112,-0.2208042,-23.63484,29.46828,51.43343
117.150717258,-141.82,-129.5817,-10.62275,1.803467,-0.2837095,-0.09394427,-23.63484,29.46828,51.43343
117.160715103,-180.6474,-132.6681,-1.172279,2.164348,-0.4776215,0.02655628,-23.63484,29.46828,51.43343
117.170712471,-216.2752,-129.1069,25.53291,2.168593,-0.7049548,-0.02603595,-19.4386,25.33928,54.32433
117.180710316,-222.367,-131.7184,36.50765,1.865857,-0.445871,-0.318942,-19.4386,25.33928,54.32433
117.190708637,-230.797,-137.0601,49.73831,1.644668,-0.3194799,-0.3669252,-19.4386,25.33928,54.32433
117.200706959,-244.4574,-131.4217,61.3227499999998,1.306474,-0.1131062,-0.4491824,-19.4386,25.33928,54.32433
117.210704327,-249.7493,-121.5692,66.0784700000002,1.085343,0.06021973,-0.5723142,-19.4386,25.33928,54.32433
117.220702648,-255.718,-107.562,70.5293400000001,0.9933983,0.07850663,-0.552537,-14.05235,17.86598,58.08
117.230700493,-262.8558,-90.9433499999997,76.4435000000003,0.8548927,0.08520045,-0.5307614,-14.05235,17.86598,58.08
117.240698338,-269.5014,-77.6484200000003,84.4916399999999,0.7996729,-0.03112067,-0.325326,-14.05235,17.86598,58.08
117.250696182,-255.7795,-62.0387499999999,93.8201700000001,0.573876,-0.07204835,-0.2741927,-14.05235,17.86598,58.08
117.260694504,-234.8582,-63.2258,92.4178400000002,0.1808106,-0.1401722,-0.5496284,-14.05235,17.86598,58.08
117.270692349,-197.1999,-59.1304800000002,86.8694999999998,0.2826412,-0.06584557,-0.7187624,-8.545677,4.986881,59.80039
117.280690193,-146.8042,-29.4543,91.74716,0.6328175,0.1545566,-0.5964356,-8.545677,4.986881,59.80039
117.290688515,-148.0963,-0.0155226,111.8065,0.7023951,0.09427349,-0.1131795,-8.545677,4.986881,59.80039
117.300686359,-138.4356,17.37472,133.756,0.6987222,-0.06885326,0.07016356,-8.545677,4.986881,59.80039
117.310684204,-94.2547700000002,29.3639,145.5843,0.5884175,-0.1626957,0.09000163,-5.263136,-8.26038,57.44227
117.320682049,-44.47438,39.27575,142.3529,0.5815094,-0.07787382,0.1871428,-5.263136,-8.26038,57.44227
117.33068037,1.060208,52.21456,136.6826,0.5664946,0.06911084,0.03255103,-5.263136,-8.26038,57.44227
117.340678215,35.02655,67.5868199999998,135.951,0.6597298,0.1906963,0.05437168,-5.263136,-8.26038,57.44227
117.35067606,49.91759,88.6569100000002,137.4752,0.7304063,0.2650609,-0.04340019,-5.263136,-8.26038,57.44227
117.360674381,46.34866,113.5256,141.6822,0.7704494,0.3894952,-0.07317375,-8.11669,-14.76963,55.00349
117.370672226,27.21183,135.3672,148.6329,0.7802042,0.4942015,-0.01626717,-8.11669,-14.76963,55.00349
117.380669594,7.58273000000002,156.2593,153.9983,0.8097693,0.5040237,0.03727928,-8.11669,-14.76963,55.00349
117.390667439,-18.56889,175.8456,154.8519,0.8184422,0.5097072,0.05544859,-8.11669,-14.76963,55.00349
117.400665283,-40.53626,192.1081,154.7299,0.8625911,0.4932513,0.02043981,-8.11669,-14.76963,55.00349
117.410663605,-62.1344200000003,211.3976,155.2787,0.9395739,0.4923064,-0.0366447,-15.29461,-11.79003,53.77343
117.42066145,-84.4709900000003,228.5504,154.4861,1.031872,0.5055109,-0.1205598,-15.29461,-11.79003,53.77343
117.430659294,-103.7924,240.7177,156.681,1.08688,0.5078055,-0.1479351,-15.29461,-11.79003,53.77343
117.440657616,-119.9757,250.9263,160.0954,1.082589,0.475731,-0.1919484,-15.29461,-11.79003,53.77343
117.45065546,-133.8206,257.8705,163.6317,1.118662,0.4470406,-0.2719261,-15.29461,-11.79003,53.77343
117.460653305,-149.5732,266.8327,168.7532,1.100715,0.4693025,-0.243186,-25.78588,-10.7762,47.94896
117.47065115,-165.6333,272.0558,172.7163,1.176179,0.4454972,-0.2993048,-25.78588,-10.7762,47.94896
117.480649471,-174.4326,276.4478,178.5695,1.279331,0.3731842,-0.4057099,-25.78588,-10.7762,47.94896
117.490647316,-176.5247,280.6025,182.6546,1.343618,0.269976,-0.4589173,-25.78588,-10.7762,47.94896
117.500645161,-172.9558,283.1546,183.2033,1.357133,0.2243452,-0.4828579,-25.78588,-10.7762,47.94896
117.510643482,-172.9558,286.419,180.9474,1.395378,0.2385194,-0.4503851,-38.77573,-11.7275,36.8911
117.520641327,-188.8929,287.428,176.4965,1.415486,0.255722,-0.525561,-38.77573,-11.7275,36.8911
117.530639172,-185.9393,289.2086,170.7653,1.506235,0.2762,-0.5017957,-38.77573,-11.7275,36.8911
117.540637016,-195.7846,287.6654,161.1319,1.517134,0.2402714,-0.5219057,-38.77573,-11.7275,36.8911
117.550635338,-202.4302,286.1223,152.6569,1.538001,0.2444002,-0.5406075,-38.77573,-11.7275,36.8911
117.560633183,-202.3071,279.0593,142.8407,1.584314,0.2659631,-0.6737379,-51.08605,-11.56363,22.15574
117.570631027,-199.0459,266.1205,132.0488,1.451246,0.422179,-0.7328897,-51.08605,-11.56363,22.15574
117.580629349,-206.1837,243.8634,119.184,1.290848,0.52803,-0.8202167,-51.08605,-11.56363,22.15574
117.59062624,-213.3831,212.3472,107.6605,1.157842,0.4981789,-0.9271782,-51.08605,-11.56363,22.15574
117.600624561,-205.8761,172.3438,91.3203699999998,1.001525,0.412597,-1.020206,-51.08605,-11.56363,22.15574
117.610622406,-165.3257,123.7935,65.8345899999998,0.7463304,0.2973006,-1.172876,-58.92326,-6.877737,5.882211
117.620620251,-97.0237700000001,70.3763899999999,30.10572,0.4903368,0.2769181,-1.306904,-58.92326,-6.877737,5.882211
117.630618572,-26.69128,13.99164,-7.69615000000002,0.280522,0.3670303,-1.414241,-58.92326,-6.877737,5.882211
117.640616417,25.05817,-36.81399,-35.07202,0.6262494,0.2822147,-1.181277,-58.92326,-6.877737,5.882211
117.650614262,35.76495,-63.5225600000001,-46.96132,1.097592,0.145032,-0.1464247,-58.92326,-6.877737,5.882211
117.660612106,17.48958,-60.7923499999997,-41.90075,1.528669,-0.5207622,0.8795409,-60.89009,-1.234406,0.1618605
117.670610428,-33.09074,-26.07121,-18.24409,1.549674,-1.261385,1.465472,-60.89009,-1.234406,0.1618605
117.680608272,-5.093116,-12.18276,4.680914,1.034997,-1.568146,0.3877379,-60.89009,-1.234406,0.1618605
117.690606117,109.851,-37.22946,-9.342361,0.3742014,-0.8943933,-0.758909,-60.89009,-1.234406,0.1618605
117.700604439,103.6361,-33.01544,-30.56019,0.6735482,-0.005293475,-0.1513896,-60.89009,-1.234406,0.1618605
117.710602283,34.22662,-35.21148,-20.50001,1.088506,-0.1466053,-0.02860402,-60.86569,-2.742209,1.78248
117.720600128,-3.739384,-51.35532,-3.733052,1.148127,-0.6171544,0.1968225,-60.86569,-2.742209,1.78248
117.730597973,30.28849,-54.73841,-18.24409,1.182586,-0.4036672,0.1397569,-60.86569,-2.742209,1.78248
117.740596294,65.3624300000002,-58.06214,-29.76757,1.188866,0.1417998,0.04628321,-60.86569,-2.742209,1.78248
117.750594139,44.87186,-62.9883899999999,-27.87747,1.16732,0.3289256,0.0438797,-60.86569,-2.742209,1.78248
117.760591984,15.02825,-68.6268600000002,-25.62156,1.148946,0.1378796,-0.03021836,-61.62252,-2.733669,3.453927
117.770590305,-1.093456,-70.2293800000003,-21.71943,1.101096,-0.2202373,-0.03052131,-61.62252,-2.733669,3.453927
117.78058815,9.24412700000001,-71.4164200000001,-16.11012,0.9972791,-0.5063248,-0.1101889,-61.62252,-2.733669,3.453927
117.790585518,30.59616,-67.55852,-17.32953,0.9480422,-0.5590364,-0.1880974,-61.62252,-2.733669,3.453927
117.800583363,46.84093,-61.8606899999999,-18.79283,0.9588847,-0.4615594,-0.1800056,-61.62252,-2.733669,3.453927
117.810581207,43.0874,-57.5873199999999,-18.97574,0.9802552,-0.300736,-0.1226551,-61.61473,-3.844227,7.072028
117.820579529,24.25824,-54.501,-17.69536,0.9891751,-0.2040275,-0.08823808,-61.61473,-3.844227,7.072028
117.830577373,-2.754853,-51.65208,-15.98817,1.025894,-0.1344378,-0.0505125,-61.61473,-3.844227,7.072028
117.840575218,-25.64522,-49.09993,-13.61031,1.050462,-0.1978739,-0.07925355,-61.61473,-3.844227,7.072028
117.850573063,-37.6442,-46.54778,-10.43984,1.024504,-0.2961366,-0.1404407,-61.61473,-3.844227,7.072028
117.860571384,-36.47507,-42.51182,-10.56178,1.009015,-0.4059505,-0.1590499,-61.63472,-3.440444,9.843513
117.870569229,-23.43002,-39.18809,-12.14702,0.9976075,-0.4725262,-0.1346055,-61.63472,-3.440444,9.843513
117.880567074,-7.923645,-37.46687,-14.03711,0.9828513,-0.4385342,-0.1053954,-61.63472,-3.440444,9.843513
117.890565395,2.413939,-36.75464,-15.74429,0.9874369,-0.3442183,-0.05757008,-61.63472,-3.440444,9.843513
117.90056324,1.121741,-38.2978,-15.86623,0.9761652,-0.2883471,-0.03459317,-61.99321,-4.570159,11.52382
117.910561085,-7.554445,-40.49384,-15.62235,0.9424684,-0.2583547,-0.02975639,-61.99321,-4.570159,11.52382
117.920558929,-24.22995,-42.86793,-16.11012,0.9301988,-0.2801759,-0.0512653,-61.99321,-4.570159,11.52382
117.930557251,-35.12133,-44.29239,-16.23206,0.9170595,-0.33364,-0.07707174,-61.99321,-4.570159,11.52382
117.940555096,-38.50566,-45.18267,-17.45147,0.9142942,-0.3682974,-0.08806524,-61.99321,-4.570159,11.52382
117.95055294,-37.89033,-46.66648,-19.2806,0.9284132,-0.3426013,-0.1249468,-60.48726,-5.302731,13.53851
117.960551262,-34.6906,-49.57475,-20.56098,0.9358218,-0.2964615,-0.1436361,-60.48726,-5.302731,13.53851
117.970549107,-39.85939,-53.01719,-22.75593,0.8966994,-0.3184345,-0.2828279,-60.48726,-5.302731,13.53851
117.980546951,-51.61224,-53.61071,-24.95088,0.9135851,-0.3070013,-0.1852307,-60.48726,-5.302731,13.53851
117.990545273,-50.32004,-57.17185,-23.8534,0.9671204,-0.3540596,-0.1331472,-60.48726,-5.302731,13.53851
118.000542164,-40.47473,-58.7150199999999,-22.87787,0.9663445,-0.3904855,-0.1293078,-60.09966,-6.420283,15.99839
118.010540485,-30.13714,-59.6053000000002,-23.54855,0.9270773,-0.3805481,-0.3388582,-60.09966,-6.420283,15.99839
118.02053833,-28.66034,-57.40926,-23.67049,0.9820479,-0.2932326,-0.1561605,-60.09966,-6.420283,15.99839
118.030536175,-21.27636,-59.7240100000001,-22.02428,0.9561172,-0.2639508,-0.2456166,-60.09966,-6.420283,15.99839
118.040534496,-24.04535,-57.9434399999998,-20.56098,0.9843491,-0.2609448,-0.1906303,-60.09966,-6.420283,15.99839
118.050532341,-31.30627,-55.39128,-16.84177,0.9701719,-0.2605084,-0.2714851,-59.69146,-8.612241,18.85101
118.060530186,-31.55241,-55.33193,-15.74429,0.9542454,-0.2685323,-0.2642766,-59.69146,-8.612241,18.85101
118.07052803,-28.72188,-53.84812,-13.8542,0.9620097,-0.2933988,-0.2901268,-59.69146,-8.612241,18.85101
118.080526352,-25.52215,-52.18625,-12.63478,0.9614729,-0.2646906,-0.2848689,-59.69146,-8.612241,18.85101
118.090524197,-24.96835,-50.28698,-11.78119,0.9600793,-0.2431271,-0.3150223,-59.69146,-8.612241,18.85101
118.100522041,-24.96835,-48.3877,-11.11051,0.9797409,-0.2526242,-0.3332401,-58.93866,-9.343355,21.69864
118.110520363,-25.64522,-46.13231,-9.58624500000001,0.9826363,-0.2511048,-0.3327669,-58.93866,-9.343355,21.69864
118.120518208,-26.13748,-43.69886,-7.81809200000003,0.9696005,-0.2321133,-0.3533279,-58.93866,-9.343355,21.69864
118.130516052,-27.42968,-41.79959,-6.84255999999999,0.9731725,-0.2144347,-0.3408957,-58.93866,-9.343355,21.69864
118.140513897,-29.70641,-40.55319,-6.293823,0.9626194,-0.2234209,-0.344225,-58.93866,-9.343355,21.69864
118.150512219,-30.07561,-39.90031,-5.25732,0.9459341,-0.2432365,-0.3494551,-58.17461,-10.46136,23.7743
118.160510063,-30.26021,-39.12873,-4.159846,0.9453142,-0.2614732,-0.3231277,-58.17461,-10.46136,23.7743
118.170507908,-32.66001,-38.23845,-2.391695,0.9576761,-0.2973115,-0.3365401,-58.17461,-10.46136,23.7743
118.180506229,-33.02921,-37.64492,-1.660046,0.9541693,-0.2662849,-0.3370205,-58.17461,-10.46136,23.7743
118.190504074,-33.64454,-38.47586,-2.269753,0.9807258,-0.2530424,-0.3279773,-58.17461,-10.46136,23.7743
118.200501919,-35.7982,-39.78161,-2.81849,0.9626272,-0.2231751,-0.3174248,-56.66866,-11.19394,25.78899
118.210499764,-37.15193,-42.80858,-3.915963,0.9787413,-0.2247084,-0.3074024,-56.66866,-11.19394,25.78899
118.220497131,-36.78273,-45.89491,-4.769554,0.9912565,-0.242441,-0.3074197,-56.66866,-11.19394,25.78899
118.230495453,-35.92127,-48.86252,-5.80605699999998,0.9916759,-0.2391539,-0.3208214,-56.66866,-11.19394,25.78899
118.240493298,-37.4596,-51.83014,-6.78158900000002,0.9974977,-0.2374582,-0.3074318,-56.66866,-11.19394,25.78899
118.250491142,-38.99793,-55.50999,-7.33032600000001,0.9932668,-0.2458686,-0.3146009,-55.91668,-11.55832,27.02208
118.260488987,-40.35166,-59.01178,-7.69615000000002,0.9859838,-0.2475844,-0.3270307,-55.91668,-11.55832,27.02208
118.270487309,-42.07459,-62.81033,-7.757121,0.9864417,-0.2461745,-0.3332534,-55.91668,-11.55832,27.02208
118.280485153,-44.47438,-66.6682399999998,-7.39129699999998,0.984878,-0.2409259,-0.3404307,-55.91668,-11.55832,27.02208
118.290482998,-47.42798,-70.4074299999999,-7.025472,0.9941886,-0.2436313,-0.3375748,-55.91668,-11.55832,27.02208
118.300481319,-50.25851,-74.2059900000002,-5.92799899999998,1.019789,-0.2313927,-0.3299653,-55.96627,-12.67915,29.47872
118.310479164,-54.13511,-78.0638900000002,-4.952466,1.024401,-0.2170382,-0.3113126,-55.96627,-12.67915,29.47872
118.320477009,-56.10417,-82.2779100000001,-4.891496,1.071107,-0.2132349,-0.3152236,-55.96627,-12.67915,29.47872
118.330474854,-59.30389,-87.2634999999999,-4.037905,1.105669,-0.210967,-0.3014057,-55.96627,-12.67915,29.47872
118.340473175,-63.2420199999997,-93.3174400000001,-3.854993,1.14651,-0.2071226,-0.3411997,-55.96627,-12.67915,29.47872
118.35047102,-74.3795399999998,-97.47211,-2.391695,1.284305,-0.1728077,-0.2347263,-53.33976,-13.3962,32.34025
118.360468865,-90.5627700000003,-102.9325,-1.23325,1.382168,-0.142037,-0.2167189,-53.33976,-13.3962,32.34025
118.370467186,-110.438,-108.4523,-1.903929,1.551915,-0.1755262,-0.1543128,-53.33976,-13.3962,32.34025
118.380465031,-135.8512,-114.6249,-0.257718,1.783159,-0.2660914,-0.08960623,-53.33976,-13.3962,32.34025
118.390462875,-167.3562,-120.1447,9.86342799999998,2.070534,-0.3612561,-0.01159622,-53.33976,-13.3962,32.34025
118.40046072,-201.5687,-124.3587,16.26536,2.141993,-0.2751599,-0.05050762,-50.32448,-14.86788,35.59562
118.410459042,-238.7348,-130.2346,28.45951,1.940348,-0.2311427,-0.1678971,-50.32448,-14.86788,35.59562
118.420456886,-266.917,-139.2562,41.38531,1.636911,-0.3215813,-0.3673897,-50.32448,-14.86788,35.59562
118.430454731,-270.2398,-140.74,53.03073,1.437259,-0.3569429,-0.4546119,-50.32448,-14.86788,35.59562
118.440452099,-255.2872,-134.5673,59.0668299999999,1.231014,-0.2228104,-0.5385163,-47.27435,-17.86753,38.0851
118.45045042,-247.8417,-119.6105,62.0544,1.121237,-0.08302539,-0.4258956,-47.27435,-17.86753,38.0851
118.460448265,-248.2724,-98.5404500000002,71.5048700000001,0.8830597,-0.1197412,-0.6307801,-47.27435,-17.86753,38.0851
118.47044611,-245.5034,-102.339,74.3704900000001,0.6534794,-0.1415823,-0.6097955,-47.27435,-17.86753,38.0851
118.480443955,-241.2577,-90.3498300000001,79.91883,0.5762268,-0.1282549,-0.6326358,-47.27435,-17.86753,38.0851
118.490442276,-214.4292,-71.2977100000002,79.4310699999999,0.4071615,0.004664305,-0.4519522,-43.45786,-21.25933,38.51817
118.500440121,-203.6609,-57.2312,82.0528100000001,0.3108709,0.09712572,-0.49488,-43.45786,-21.25933,38.51817
118.510437966,-196.3999,-27.79243,99.4294700000002,0.6216801,-0.02233427,-0.2551458,-43.45786,-21.25933,38.51817
118.520436287,-182.8626,1.230877,120.0376,0.6750622,-0.07977457,0.09605072,-43.45786,-21.25933,38.51817
118.530434132,-147.9733,19.274,132.2927,0.489352,-0.05159082,0.0724384,-43.45786,-21.25933,38.51817
118.540431976,-106.4999,29.83872,136.9265,0.4808165,0.04034229,0.1006656,-42.26368,-24.30736,36.93022
118.550429821,-67.3032200000001,41.70919,136.0119,0.5046018,0.1997931,0.0560755,-42.26368,-24.30736,36.93022
118.560428143,-33.33687,55.41959,134.7925,0.5649644,0.2533743,-0.007215566,-42.26368,-24.30736,36.93022
118.570425987,-7.80057799999999,74.0562400000003,137.4143,0.6588224,0.2627581,-0.03418186,-42.26368,-24.30736,36.93022
118.580423832,7.39812999999999,94.7702100000003,142.109,0.6831663,0.2885247,-0.08543857,-42.26368,-24.30736,36.93022
118.590422154,11.27472,116.7306,148.6938,0.7270808,0.3376189,-0.07260621,-44.49973,-24.34821,34.07552
118.600419998,10.41326,136.1982,153.8764,0.757142,0.3718349,-0.06261734,-44.49973,-24.34821,34.07552
118.610417843,8.99799400000002,156.6747,157.7785,0.7932684,0.3688936,-0.03731502,-44.49973,-24.34821,34.07552
118.620415687,3.58307,176.3797,158.6321,0.8348439,0.3868326,-0.02542772,-44.49973,-24.34821,34.07552
118.630414009,-3.308652,194.7789,157.2298,0.8790656,0.4449641,-0.03461272,-44.49973,-24.34821,34.07552
118.640411854,-16.5383,212.2879,153.9983,0.9572915,0.5085565,-0.05151562,-49.46985,-18.71703,29.55843
118.650409698,-37.6442,230.4497,150.7668,1.018957,0.5190156,-0.1037906,-49.46985,-18.71703,29.55843
118.660407066,-55.73497,245.822,148.328,1.07477,0.5042831,-0.1349916,-49.46985,-18.71703,29.55843
118.670404911,-70.74908,258.7608,149.1206,1.082074,0.5299937,-0.1555897,-49.46985,-18.71703,29.55843
118.680403233,-81.76353,268.3166,149.3645,1.101429,0.5891882,-0.1542029,-49.46985,-18.71703,29.55843
118.690401077,-97.4544999999998,277.3381,150.8278,1.134978,0.6182189,-0.1872906,-56.61069,-12.76657,19.73407
118.700398922,-120.0372,286.0035,153.6935,1.200817,0.6142743,-0.2295191,-56.61069,-12.76657,19.73407
118.710397243,-140.0355,293.3039,157.1688,1.283233,0.5047385,-0.3229569,-56.61069,-12.76657,19.73407
118.720395088,-147.8502,297.1618,160.7661,1.341764,0.3957378,-0.4125246,-56.61069,-12.76657,19.73407
118.730392933,-145.4504,301.7319,162.5952,1.4112,0.3045965,-0.4327223,-56.61069,-12.76657,19.73407
118.740390778,-144.589,306.8362,160.7051,1.487827,0.2713191,-0.4644334,-61.92738,-6.52315,5.470936
118.750389099,-145.635,310.4567,155.5226,1.572134,0.2967125,-0.4736798,-61.92738,-6.52315,5.470936
118.760386944,-152.1575,309.9819,148.6938,1.641375,0.3190277,-0.5211853,-61.92738,-6.52315,5.470936
118.770384788,-157.0802,305.2931,143.1455,1.694477,0.2395139,-0.6160156,-61.92738,-6.52315,5.470936
118.78038311,-155.4803,298.5269,134.7315,1.676659,0.1998513,-0.7164752,-61.92738,-6.52315,5.470936
118.790380955,-142.3738,285.7661,125.5859,1.661165,0.1916761,-0.8327401,-63.52822,1.696134,-10.83888
118.800378799,-124.4061,267.1888,113.026,1.551506,0.268432,-0.9167981,-63.52822,1.696134,-10.83888
118.810376644,-113.6377,237.9281,97.3564699999998,1.32362,0.387721,-0.9829535,-63.52822,1.696134,-10.83888
118.820374966,-109.8842,200.4174,79.1262099999999,1.061451,0.4903317,-1.045216,-63.52822,1.696134,-10.83888
118.83037281,-106.1922,154.8348,57.7864500000002,0.8215302,0.5230334,-1.148179,-63.52822,1.696134,-10.83888
118.840370655,-90.3166399999999,104.6821,31.87387,0.6214231,0.5625145,-1.286627,-60.30299,11.50064,-23.89565
118.850368977,-67.1801500000001,50.19658,0.717814200000001,0.430144,0.599421,-1.406905,-60.30299,11.50064,-23.89565
118.860366821,-54.01204,-6.06946399999999,-28.36524,0.3157742,0.4884772,-1.388491,-60.30299,11.50064,-23.89565
118.870364666,-32.35234,-57.88408,-51.96092,0.4870965,0.3203265,-1.282502,-60.30299,11.50064,-23.89565
118.880362511,-7.862111,-88.5099000000001,-69.8253600000001,1.185431,0.2311952,-0.5844971,-60.30299,11.50064,-23.89565
118.890359879,-44.90512,-81.2689100000003,-63.1795400000001,1.40286,-0.3012955,0.1240322,-56.74832,18.65734,-27.97001
118.9003582,-110.438,-49.75281,-40.19357,1.616111,-0.8274338,1.534638,-56.74832,18.65734,-27.97001
118.910356045,-142.4353,-10.93636,-13.18352,1.695344,-1.264073,2.342449,-56.74832,18.65734,-27.97001
118.920353889,-81.5174000000003,-14.43815,9.31469200000002,0.6369673,-1.295097,0.07441556,-56.74832,18.65734,-27.97001
118.930352211,5.552134,-30.8194,-5.135378,0.4712197,-0.9301531,-1.052436,-56.74832,18.65734,-27.97001
118.940350056,0.937141200000001,-33.78702,-17.51244,0.9864996,-0.7826941,-0.9208068,-59.29081,16.83788,-23.46419
118.9503479,-29.46028,-37.1701,6.20518299999998,1.304126,-1.222361,-0.003338372,-59.29081,16.83788,-23.46419
118.960345745,36.44181,-46.84454,-7.81809200000003,1.292413,-0.7547491,-0.01635991,-59.29081,16.83788,-23.46419
118.970344067,112.4969,-46.90389,-29.64563,1.196355,0.1586408,0.06493028,-59.29081,16.83788,-23.46419
118.980341911,94.4676499999999,-47.37871,-37.32794,1.182391,0.8006807,0.1600259,-59.29081,16.83788,-23.46419
118.990339756,26.53497,-52.95784,-21.29263,1.224581,0.8366853,0.1269214,-60.07132,17.92682,-21.47599
119.000338078,-53.9505,-59.4866000000001,-5.562174,1.095909,0.08425102,0.06512454,-60.07132,17.92682,-21.47599
119.010335922,-73.5180700000001,-62.1574599999997,-0.257718,1.000684,-0.5305011,-0.05132372,-60.07132,17.92682,-21.47599
119.020333767,-35.85973,-57.88408,-5.440232,0.9481862,-0.7999772,-0.1789426,-60.07132,17.92682,-21.47599
119.030331612,10.72093,-52.54237,-10.98857,0.9104528,-0.7620965,-0.1530435,-61.18568,16.86467,-18.64057
119.040329933,39.33387,-47.49742,-14.52488,0.9272929,-0.4894865,-0.08374951,-61.18568,16.86467,-18.64057
119.050327778,35.58035,-43.52081,-15.98817,0.9722921,-0.2115176,-0.02072749,-61.18568,16.86467,-18.64057
119.060325623,2.906205,-42.45247,-15.62235,0.9901395,-0.07224278,-0.02701596,-61.18568,16.86467,-18.64057
119.070323944,-34.44447,-41.38412,-12.75672,1.037068,-0.08076343,-0.0505458,-61.18568,16.86467,-18.64057
119.080321789,-60.1038299999998,-38.89132,-9.09847800000002,1.045065,-0.2225452,-0.1084309,-62.70323,17.25448,-16.20271
119.090319634,-68.1646800000001,-36.04241,-8.549742,1.028693,-0.3892931,-0.133724,-62.70323,17.25448,-16.20271
119.100317478,-53.82744,-32.59997,-11.78119,1.042694,-0.5375392,-0.1145672,-62.70323,17.25448,-16.20271
119.1103158,-26.75281,-30.04782,-16.53691,1.002546,-0.5526475,-0.08577874,-62.70323,17.25448,-16.20271
119.120313168,-9.95424100000001,-28.86077,-20.68292,0.9753707,-0.4015126,-0.02642685,-62.70323,17.25448,-16.20271
119.130311012,-11.24644,-29.81041,-20.92681,0.970939,-0.2679302,0.03049703,-63.43985,16.12849,-13.75118
119.140308857,-23.92229,-32.36256,-19.34157,0.9641125,-0.2154562,0.04437412,-63.43985,16.12849,-13.75118
119.150306702,-38.0134,-35.68629,-17.3905,0.9413207,-0.2491488,-0.03023534,-63.43985,16.12849,-13.75118
119.160305023,-47.85872,-38.06039,-18.73186,0.9130534,-0.3278791,-0.07610908,-63.43985,16.12849,-13.75118
119.170302868,-43.79752,-40.19707,-20.86584,0.9268326,-0.3876233,-0.102918,-63.43985,16.12849,-13.75118
119.180300713,-32.66001,-41.79959,-24.09729,0.9168019,-0.3729371,-0.1225259,-64.5748,16.14076,-11.30851
119.190299034,-23.61462,-43.99563,-27.20679,0.9316532,-0.3075494,-0.1249615,-64.5748,16.14076,-11.30851
119.200296879,-23.18389,-47.49742,-28.91398,0.9297221,-0.2565287,-0.1211427,-64.5748,16.14076,-11.30851
119.210294724,-22.38396,-51.17727,-29.82854,0.9428654,-0.2557655,-0.1192515,-64.5748,16.14076,-11.30851
119.220292568,-19.73803,-54.02618,-30.37728,0.9647811,-0.196463,0.1534834,-64.5748,16.14076,-11.30851
119.23029089,-29.52181,-53.84812,-30.37728,0.9561153,-0.2601525,-0.09630179,-65.30525,14.63768,-8.467943
119.240288734,-30.19868,-53.84812,-29.88951,0.9690065,-0.2728701,-0.1331713,-65.30525,14.63768,-8.467943
119.250286579,-28.35268,-51.53338,-28.85301,0.9841692,-0.2760204,-0.1384613,-65.30525,14.63768,-8.467943
119.260284901,-27.42968,-51.11791,-27.32874,1.000036,-0.2660066,-0.1935278,-65.30525,14.63768,-8.467943
119.270282745,-22.13782,-51.53338,-27.26777,0.9966935,-0.2421816,-0.1317918,-65.30525,14.63768,-8.467943
119.28028059,-19.92262,-51.94884,-25.98738,0.9909025,-0.2195839,-0.1456662,-65.68034,13.90521,-4.790151
119.290278435,-21.76862,-50.93985,-25.01185,0.9719183,-0.2218642,-0.1944473,-65.68034,13.90521,-4.790151
119.300276756,-20.78409,-51.83014,-24.707,0.9740932,-0.2347935,-0.2312981,-65.68034,13.90521,-4.790151
119.310274601,-20.90716,-51.71144,-24.34117,0.9914912,-0.2248782,-0.1413587,-65.68034,13.90521,-4.790151
119.320272446,-24.96835,-50.99921,-22.26816,0.9735277,-0.2303128,-0.2183767,-65.68034,13.90521,-4.790151
119.330270767,-25.76828,-51.53338,-22.08525,0.9755249,-0.2333776,-0.2389582,-66.41079,12.40213,-1.949587
119.340268612,-23.73769,-52.36431,-22.69496,0.9895455,-0.2271465,-0.2255841,-66.41079,12.40213,-1.949587
119.35026598,-24.10688,-52.30496,-22.26816,0.9830581,-0.2454255,-0.2442326,-66.41079,12.40213,-1.949587
119.360263825,-23.61462,-52.48302,-22.02428,0.9784463,-0.2333594,-0.2432705,-66.41079,12.40213,-1.949587
119.370261669,-23.43002,-53.07654,-22.08525,0.9719695,-0.2264351,-0.2691041,-66.41079,12.40213,-1.949587
119.380259991,-23.61462,-53.84812,-22.32913,0.9669792,-0.2202339,-0.2710113,-67.5115,10.52243,1.664229
119.390257835,-25.27602,-54.38229,-22.45108,0.9605627,-0.2160486,-0.2777012,-67.5115,10.52243,1.664229
119.40025568,-26.69128,-54.97581,-22.99981,0.9653038,-0.209222,-0.2853685,-67.5115,10.52243,1.664229
119.410254002,-25.89135,-56.81574,-23.67049,0.9708691,-0.2203764,-0.2949468,-67.5115,10.52243,1.664229
119.420251846,-26.75281,-57.3499099999999,-24.03632,1.005959,-0.2462915,-0.2820798,-67.5115,10.52243,1.664229
119.430249691,-26.32208,-58.5963100000001,-23.67049,0.9788485,-0.2041959,-0.2964006,-67.8866,9.78996,5.342022
119.440247536,-24.59915,-61.8606899999999,-25.49961,1.005895,-0.1636466,-0.2251504,-67.8866,9.78996,5.342022
119.450245857,-29.02954,-62.9883899999999,-25.7435,1.017285,-0.1489364,-0.2883461,-67.8866,9.78996,5.342022
119.460243702,-30.19868,-65.24377,-27.51165,1.060722,-0.1003068,-0.2721627,-67.8866,9.78996,5.342022
119.470241547,-31.73701,-68.3894500000002,-29.34077,1.066805,-0.06153944,-0.2970693,-67.8866,9.78996,5.342022
119.480239868,-31.98314,-72.5441099999998,-30.13339,1.06653,-0.07263818,-0.287973,-67.12316,8.30794,9.354715
119.490237713,-29.39874,-77.0548899999998,-31.7796,1.059181,-0.09743136,-0.3262399,-67.12316,8.30794,9.354715
119.500235558,-25.09142,-81.9811399999998,-34.34037,1.061663,-0.09980327,-0.3252864,-67.12316,8.30794,9.354715
119.510233402,-30.38327,-84.652,-34.03552,1.072317,-0.09613854,-0.3195631,-67.12316,8.30794,9.354715
119.520231724,-34.19834,-89.0440799999999,-33.54775,1.071699,-0.1150981,-0.3190785,-67.12316,8.30794,9.354715
119.530229569,-38.0134,-92.7832700000001,-33.85261,1.098664,-0.1237719,-0.3162518,-67.47217,6.064398,14.26613
119.540227413,-42.56686,-96.6411700000001,-34.58426,1.151038,-0.136383,-0.3206471,-67.47217,6.064398,14.26613
119.550225735,-47.55105,-100.0243,-35.25493,1.225389,-0.1506562,-0.2887084,-67.47217,6.064398,14.26613
119.56022358,-51.30457,-103.5854,-37.87668,1.311433,-0.1910489,-0.2687478,-67.47217,6.064398,14.26613
119.570221424,-57.7655600000002,-106.6124,-35.55979,1.424891,-0.1853521,-0.2100822,-66.71436,4.593276,19.56882
119.580219269,-64.41116,-109.9361,-36.84017,1.504973,-0.1666382,-0.1437045,-66.71436,4.593276,19.56882
119.59021759,-77.14853,-113.2598,-43.12016,1.680679,-0.15289,-0.03011329,-66.71436,4.593276,19.56882
119.600214958,-91.54731,-118.1267,-39.52289,1.843071,-0.2611489,0.0552966,-66.71436,4.593276,19.56882
119.610212803,-90.0705100000001,-125.8425,-33.2429,1.85128,-0.3627162,-0.01599939,-66.71436,4.593276,19.56882
119.620210647,-83.1787899999998,-133.8551,-42.32754,1.785837,-0.2785282,-0.07381468,-65.17115,1.232536,25.66123
119.630209446,-85.0863199999999,-144.7166,-36.84017,1.674527,-0.2451337,-0.2195949,-65.17115,1.232536,25.66123
119.640206814,-92.83951,-148.7526,-38.30347,1.687956,-0.2337092,-0.2215356,-65.17115,1.232536,25.66123
119.650204658,-91.3011800000002,-144.1824,-40.80327,1.549974,-0.07353966,-0.2098505,-65.17115,1.232536,25.66123
119.660202503,-107.546,-128.8695,-46.29064,1.436744,-0.08980764,-0.2029488,-65.17115,1.232536,25.66123
119.670200825,-124.2215,-105.1879,-47.02229,1.326781,-0.3320485,-0.2041305,-63.9968,-2.507558,32.20438
119.680198669,-112.0994,-104.2383,-39.46192,0.9139273,-0.5454084,-0.695332,-63.9968,-2.507558,32.20438
119.690196514,-91.7319099999999,-117.3552,-42.2056,0.7674985,-0.6346927,-0.6304461,-63.9968,-2.507558,32.20438
119.700194359,-41.15159,-111.4793,-45.1322,0.8344148,-0.4635859,-0.7157933,-63.9968,-2.507558,32.20438
119.71019268,-14.63077,-80.2599299999999,-44.64443,0.7301638,-0.1256425,-0.6266834,-63.9968,-2.507558,32.20438
119.720190525,-37.0904,-51.29597,-38.73027,0.852355,-0.05879331,-0.2770745,-61.31024,-6.627109,37.53518
119.73018837,-53.33517,-21.38238,-23.73146,0.9120827,-0.2213567,0.04303062,-61.31024,-6.627109,37.53518
119.740186691,-46.32038,1.646344,-17.45147,0.7560397,-0.3432751,0.1203848,-61.31024,-6.627109,37.53518
119.750184536,-22.63009,19.74882,-10.01304,0.6265795,-0.3531755,0.06174817,-61.31024,-6.627109,37.53518
119.760182381,3.76767,38.44481,-6.11091099999999,0.5707261,-0.1835268,-0.02386327,-61.31024,-6.627109,37.53518
119.770180225,24.3813,53.40161,-4.098876,0.5532455,-0.03367867,-0.1258081,-59.36288,-10.34613,38.40753
119.780178547,34.22662,76.3116200000003,2.79082,0.5987341,0.03536592,-0.1134622,-59.36288,-10.34613,38.40753
119.790176392,34.16508,99.2809900000003,9.31469200000002,0.5931141,-0.001859955,-0.08042105,-59.36288,-10.34613,38.40753
119.800174236,35.88802,119.4014,17.8506,0.5684464,-0.03717719,-0.06314022,-59.36288,-10.34613,38.40753
119.810172558,43.6412,138.3349,27.48398,0.5657231,-0.02232034,-0.07988945,-59.36288,-10.34613,38.40753
119.820170402,46.964,156.6747,35.28823,0.5864533,0.04114759,-0.09238491,-61.95847,-10.78431,33.87507
119.830168247,44.7488,176.4391,42.36084,0.6070734,0.08478624,-0.0943464,-61.95847,-10.78431,33.87507
119.840166092,37.67248,195.7879,49.98219,0.6213195,0.07879432,-0.08958393,-61.95847,-10.78431,33.87507
119.85016346,31.94989,212.466,56.93286,0.6378524,0.05411862,-0.1135352,-61.95847,-10.78431,33.87507
119.860161781,31.51916,227.5415,64.4932299999999,0.6613389,0.02220345,-0.1470682,-61.95847,-10.78431,33.87507
119.870159626,33.67282,242.6763,71.9316599999998,0.7283385,0.03434852,-0.1859528,-67.5673,-9.024418,22.01966
119.880157471,34.04202,258.4047,77.9068000000001,0.7856575,0.09411227,-0.257376,-67.5673,-9.024418,22.01966
119.890155315,29.42703,272.8867,81.8699000000003,0.8891238,0.1623576,-0.2982529,-67.5673,-9.024418,22.01966
119.900153637,19.58171,284.7571,87.4182400000001,0.9679677,0.218489,-0.3352552,-67.5673,-9.024418,22.01966
119.910151482,5.85979899999999,293.2445,94.0030799999999,1.037406,0.2051379,-0.3511658,-67.5673,-9.024418,22.01966
119.920149326,-4.539317,298.7643,102.3561,1.128558,0.1514274,-0.3637538,-72.47153,-3.946492,4.540379
119.930147648,-8.23130999999997,305.7679,110.1603,1.247771,0.1069866,-0.4328652,-72.47153,-3.946492,4.540379
119.940145493,-7.80057799999999,311.1689,115.5258,1.347727,0.1020213,-0.500996,-72.47153,-3.946492,4.540379
119.950143337,-4.970049,313.4837,120.8912,1.427267,0.09413963,-0.5781834,-72.47153,-3.946492,4.540379
119.960141659,-1.401122,315.0269,127.7809,1.517104,0.05674437,-0.6635169,-72.47153,-3.946492,4.540379
119.970139503,5.182934,315.4423,133.9999,1.648372,-0.00691784,-0.7350371,-73.60205,0.8044586,-17.42443
119.980137348,19.95091,310.338,137.2313,1.755256,-0.09609926,-0.8342657,-73.60205,0.8044586,-17.42443
119.990135193,40.87221,301.6726,134.5486,1.798445,-0.114418,-0.911387,-73.60205,0.8044586,-17.42443
120.000133514,49.42532,289.0899,121.318,1.664798,0.1001969,-0.9069021,-73.60205,0.8044586,-17.42443
120.010131359,38.84161,266.4766,109.9774,1.606208,0.07761218,-1.017824,-73.60205,0.8044586,-17.42443
120.020129204,45.61026,233.358,102.2341,1.479881,-0.02185895,-1.100371,-66.54695,8.286859,-38.50376
120.030127525,55.33252,195.3131,89.1254199999997,1.173674,0.03626785,-1.25539,-66.54695,8.286859,-38.50376
120.04012537,56.44011,153.2916,70.8951599999998,0.9097193,0.2349159,-1.280346,-66.54695,8.286859,-38.50376
120.050123215,48.31773,105.0382,50.95772,0.6844945,0.3669041,-1.398195,-66.54695,8.286859,-38.50376
120.060121059,41.91827,50.73075,32.60552,0.4539617,0.4164913,-1.587801,-66.54695,8.286859,-38.50376
120.070119381,25.79657,-7.67197800000003,11.3877,0.2490515,0.4036302,-1.594619,-54.28562,12.84377,-50.24036
