Time (s),Gyroscope X (deg/s),Gyroscope Y (deg/s),Gyroscope Z (deg/s),Accelerometer X (g),Accelerometer Y (g),Accelerometer Z (g),Magnetometer X (uT),Magnetometer Y (uT),Magnetometer Z (uT)
52.279445648,0.8287475,0.657073599999999,-0.5379106,0.9868734,-0.1601725,-0.1231814,-52.3791,1.595197,12.33768
52.289443016,0.767214200000001,0.8351307,-0.5379106,0.980928,-0.1549358,-0.1222152,-52.3791,1.595197,12.33768
52.299440861,0.8287475,0.775778400000001,-0.5379106,0.9830037,-0.1617112,-0.1236528,-52.3791,1.595197,12.33768
52.309438229,0.705681,0.775778400000001,-0.4769399,0.9887025,-0.1538411,-0.1255791,-52.3791,1.595197,12.33768
52.319436073,0.5826145,0.597721199999998,-0.659852100000001,0.9897777,-0.1591432,-0.1231867,-51.96335,-0.3070393,11.9636
52.329433441,0.705681,0.597721199999998,-0.5379106,0.9868836,-0.1606231,-0.1193527,-51.96335,-0.3070393,11.9636
52.339431763,1.136414,0.4196641,-0.4159691,0.9825363,-0.1626484,-0.118866,-51.96335,-0.3070393,11.9636
52.349428654,1.197947,0.1229023,-0.5379106,0.9834821,-0.1612026,-0.1222181,-51.96335,-0.3070393,11.9636
52.359426975,1.44408,0.2416071,-0.5379106,0.9849349,-0.1606704,-0.1203065,-51.96335,-0.3070393,11.9636
52.369424343,1.44408,-0.05515479,-0.659852100000001,0.9897682,-0.1586706,-0.1246226,-52.33978,-0.3065829,12.34782
52.379422188,1.07488,-0.1738595,-0.7817937,0.9848619,-0.1567843,-0.1203073,-52.33978,-0.3065829,12.34782
52.389419556,0.4595481,-0.05515479,-0.5379106,0.9828301,-0.1524905,-0.1246121,-52.33978,-0.3065829,12.34782
52.3994174,0.4595481,-0.1738595,-0.3549984,0.9804693,-0.1563676,-0.1183855,-52.33978,-0.3065829,12.34782
52.409414768,0.3980148,-0.05515479,-0.4769399,0.9824348,-0.1573402,-0.1226958,-52.33192,-0.6869388,12.34984
52.419412613,1.07488,-0.3519166,-0.5379106,0.9810184,-0.1598198,-0.1250856,-52.33192,-0.6869388,12.34984
52.429409981,1.44408,-0.2925643,-0.598881400000002,0.9833716,-0.1554086,-0.126048,-52.33192,-0.6869388,12.34984
52.439407826,1.197947,-0.2332119,-0.3549984,0.985762,-0.1529141,-0.1241385,-52.33192,-0.6869388,12.34984
52.449405193,0.767214200000001,-0.1738595,-0.5379106,0.9847526,-0.1509464,-0.1193515,-52.33192,-0.6869388,12.34984
52.459403515,0.705681,-0.1145072,-0.2940276,0.98781,-0.1582409,-0.1265336,-51.96504,-0.3037705,12.3506
52.469400406,0.705681,-0.05515479,-0.1111153,0.9868092,-0.156781,-0.1241393,-51.96504,-0.3037705,12.3506
52.479398728,0.5210813,-0.05515479,-0.2940276,0.9877394,-0.1542802,-0.1183987,-51.96504,-0.3037705,12.3506
52.489396095,0.4595481,0.06354995,-0.2330568,0.9857617,-0.1529229,-0.1250956,-51.96504,-0.3037705,12.3506
52.49939394,0.4595481,-0.1145072,-0.4159691,0.9917632,-0.1610302,-0.1212754,-51.96504,-0.3037705,12.3506
52.509391308,0.3364816,0.06354995,-0.3549984,0.9849064,-0.1592439,-0.1236568,-52.34148,-0.3033142,12.73482
52.519389153,0.5210813,0.1229023,-0.2330568,0.9845195,-0.1646056,-0.1246119,-52.34148,-0.3033142,12.73482
52.529386521,0.1518819,0.1229023,-0.2330568,0.9828578,-0.153939,-0.1236546,-52.34148,-0.3033142,12.73482
52.539384365,-0.0942510000000003,0.1822547,-0.2330568,0.9873055,-0.1572527,-0.1236615,-52.34148,-0.3033142,12.73482
52.549381733,-0.1557842,0.1229023,-0.2330568,0.9873791,-0.1611212,-0.1217463,-52.34148,-0.3033142,12.73482
52.559379578,-0.0942510000000003,0.3009594,-0.2940276,0.9883626,-0.1615834,-0.1212693,-52.71283,-0.312664,11.95803
52.569376946,-0.0942510000000003,0.3603118,-0.3549984,0.9852837,-0.1534183,-0.1250947,-52.71283,-0.312664,11.95803
52.579375267,-0.3403839,0.3603118,-0.2330568,0.9882523,-0.1557806,-0.1241421,-52.71283,-0.312664,11.95803
52.589372635,-0.2173175,0.8351307,-0.1720861,0.98634,-0.1577709,-0.1250954,-52.71283,-0.312664,11.95803
52.59937048,-0.2173175,0.775778400000001,-0.2940276,0.9819652,-0.1583433,-0.1250876,-52.71283,-0.312664,11.95803
52.609367848,-0.2788507,0.716426,-0.2330568,0.9790598,-0.1594032,-0.1284323,-53.09544,0.06487942,11.95323
52.619365692,-0.4019172,1.250597,-0.1720861,0.9863303,-0.1573027,-0.1270098,-53.09544,0.06487942,11.95323
52.62936306,-0.4634504,0.894483100000001,-0.1720861,0.9820024,-0.1602644,-0.1226943,-53.09544,0.06487942,11.95323
52.639360905,-0.5249836,1.131893,-0.2330568,0.9883341,-0.1601612,-0.1250983,-53.09544,0.06487942,11.95323
52.649358272,-0.3403839,1.250597,-0.1720861,0.9863226,-0.156773,-0.1222242,-53.09544,0.06487942,11.95323
52.659356117,-0.0942510000000003,1.250597,-0.2940276,0.9898227,-0.161594,-0.1255791,-52.33809,-0.3098516,11.96082
52.669353485,-0.2788507,1.30995,-0.2940276,0.9844462,-0.1607283,-0.1255699,-52.33809,-0.3098516,11.96082
52.679351807,-0.1557842,1.30995,-0.4159691,0.987278,-0.1557998,-0.1241404,-52.33809,-0.3098516,11.96082
52.689348698,-0.4634504,1.30995,-0.3549984,0.9839249,-0.1587247,-0.1179123,-52.33809,-0.3098516,11.96082
52.699347019,-0.2788507,1.369302,-0.2940276,0.9912037,-0.1571362,-0.1193611,-52.33809,-0.3098516,11.96082
52.709344387,-0.4634504,1.666064,-0.4159691,0.9862679,-0.1538585,-0.1222248,-52.35381,0.45086,11.95676
52.719342232,-0.7711166,1.488007,-0.4159691,0.9849242,-0.1602329,-0.1255709,-52.35381,0.45086,11.95676
52.7293396,-0.2173175,1.30995,-0.3549984,0.982987,-0.1606914,-0.1183887,-52.35381,0.45086,11.95676
52.739337444,-0.2788507,1.369302,-0.2940276,0.9814249,-0.15539,-0.1198231,-52.35381,0.45086,11.95676
52.749334812,-0.586516899999998,1.013188,-0.2940276,0.9824539,-0.1582853,-0.1198242,-52.35381,0.45086,11.95676
52.759332657,-0.5249836,0.953835399999999,-0.2330568,0.9868947,-0.1610475,-0.1126525,-51.5903,-0.3009577,12.35338
52.769330025,-0.2788507,0.775778400000001,-0.4159691,0.980956,-0.1563756,-0.1203006,-51.5903,-0.3009577,12.35338
52.779327869,-0.4634504,0.716426,-0.2330568,0.9829786,-0.1601837,-0.115996,-51.5903,-0.3009577,12.35338
52.789325237,-0.03271778,0.4196641,-0.1111153,0.9858387,-0.1566817,-0.1112161,-51.5903,-0.3009577,12.35338
52.799323559,0.3364816,0.3603118,-0.1720861,0.9858738,-0.1586687,-0.1160014,-51.5903,-0.3009577,12.35338
52.80932045,0.705681,0.1229023,-0.05014454,0.9897509,-0.1576684,-0.1212728,-51.96335,-0.3070393,11.9636
52.819318771,0.8287475,-0.1145072,-0.1111153,0.9819583,-0.1577873,-0.1174305,-51.96335,-0.3070393,11.9636
52.829316139,0.644147799999998,-0.2332119,0.1327677,0.9813883,-0.1534514,-0.1203021,-51.96335,-0.3070393,11.9636
52.839313984,0.5210813,-0.411269,0.1937385,0.9868565,-0.1591571,-0.1183959,-51.96335,-0.3070393,11.9636
52.849311352,0.3980148,-0.3519166,0.0717969800000001,0.9848712,-0.1572613,-0.1193501,-51.96335,-0.3070393,11.9636
52.859309196,0.4595481,-0.648678499999998,0.1327677,0.9857802,-0.1538856,-0.1241383,-52.37123,1.214841,12.3397
52.869306564,0.4595481,-0.4706214,0.1937385,0.9848446,-0.1557821,-0.1169575,-52.37123,1.214841,12.3397
52.879304409,0.4595481,-0.411269,0.1937385,0.988713,-0.1542829,-0.1207933,-52.37123,1.214841,12.3397
52.889301777,0.705681,-0.886087999999999,0.01082622,0.9858905,-0.1596885,-0.1212655,-52.37123,1.214841,12.3397
52.899299622,1.07488,-0.648678499999998,0.2547093,0.9825569,-0.1635453,-0.11073,-52.37123,1.214841,12.3397
52.909296989,1.44408,-1.064145,0.2547093,0.9814991,-0.1592366,-0.1155151,-52.33809,-0.3098516,11.96082
52.919295311,1.321013,-0.9454404,0.1327677,0.982922,-0.1573262,-0.1222181,-52.33809,-0.3098516,11.96082
52.929292679,1.382547,-1.18285,0.1937385,0.9863142,-0.1562653,-0.1198314,-52.33809,-0.3098516,11.96082
52.939290524,0.951813900000003,-1.123497,0.31568,0.9882786,-0.1572686,-0.1274918,-52.33809,-0.3098516,11.96082
52.949287891,0.705681,-0.886087999999999,0.1937385,0.9838334,-0.1538758,-0.1188705,-52.33809,-0.3098516,11.96082
52.959285736,0.4595481,-0.826735599999998,0.4985923,0.9834445,-0.1592947,-0.1260471,-51.96504,-0.3037705,12.3506
52.969283104,0.3364816,-0.767383199999997,0.4376215,0.9833826,-0.1558329,-0.1193478,-51.96504,-0.3037705,12.3506
52.979280949,0.705681,-0.767383199999997,0.2547093,0.985762,-0.1529141,-0.1241385,-51.96504,-0.3037705,12.3506
52.989278316,1.013347,-0.589326100000003,0.4985923,0.9853114,-0.1548668,-0.1241372,-51.96504,-0.3037705,12.3506
52.999276161,0.890280700000001,-0.4706214,0.4985923,0.9857805,-0.1538769,-0.1231811,-52.33809,-0.3098516,11.96082
53.009273529,0.8287475,-0.5299737,0.4985923,0.988206,-0.1533737,-0.1265355,-52.33809,-0.3098516,11.96082
53.019271851,0.8287475,-0.2925643,0.4376215,0.984926,-0.1601759,-0.1193494,-52.33809,-0.3098516,11.96082
53.029268742,0.890280700000001,-0.2332119,0.4985923,0.9921848,-0.157673,-0.1270199,-52.33809,-0.3098516,11.96082
53.039267063,0.4595481,-0.2332119,0.620533899999998,0.9819013,-0.1549429,-0.1250884,-52.33809,-0.3098516,11.96082
53.049264431,0.2134152,-0.2925643,0.803446099999999,0.9854126,-0.1601838,-0.1212646,-51.95548,-0.6873951,11.96562
53.059262276,0.2749484,-0.2332119,0.925387699999998,0.9871773,-0.1504696,-0.1255773,-51.95548,-0.6873951,11.96562
53.069259644,-0.4634504,0.1229023,1.1083,0.9878474,-0.1601576,-0.1236617,-51.95548,-0.6873951,11.96562
53.079257488,0.1518819,0.2416071,0.803446099999999,0.9864961,-0.1659981,-0.1217435,-51.95548,-0.6873951,11.96562
53.089254856,0.3980148,0.1229023,0.7424754,0.9829212,-0.1573525,-0.1250896,-51.95548,-0.6873951,11.96562
53.099252701,-0.3403839,0.3009594,0.864416900000002,0.9877295,-0.1538208,-0.1212702,-52.35551,0.4541292,12.34376
53.109250069,-0.4019172,0.3009594,0.986358399999998,0.9825808,-0.1651123,-0.1226941,-52.35551,0.4541292,12.34376
53.119247913,-0.03271778,0.5383689,0.620533899999998,0.9840524,-0.1655297,-0.1183894,-52.35551,0.4541292,12.34376
53.129245281,0.0903486900000002,0.597721199999998,0.864416900000002,0.9799997,-0.1573751,-0.1212558,-52.35551,0.4541292,12.34376
53.139243603,0.2134152,0.4196641,0.803446099999999,0.9839506,-0.1602346,-0.1236549,-52.35551,0.4541292,12.34376
53.149240494,-0.0942510000000003,0.657073599999999,0.681504599999997,0.9883344,-0.1601524,-0.1241411,-51.96504,-0.3037705,12.3506
53.159238815,0.1518819,0.657073599999999,0.803446099999999,0.9840234,-0.1641251,-0.1241326,-51.96504,-0.3037705,12.3506
53.169236183,-0.03271778,0.597721199999998,0.7424754,0.9805233,-0.1593041,-0.1207777,-51.96504,-0.3037705,12.3506
53.179234028,-0.2788507,0.657073599999999,0.864416900000002,0.9814982,-0.1592673,-0.1188651,-51.96504,-0.3037705,12.3506
53.189231396,0.0903486900000002,0.716426,0.864416900000002,0.9883173,-0.1591458,-0.1203127,-51.96504,-0.3037705,12.3506
53.19922924,0.02881546,0.8351307,0.7424754,0.9830039,-0.1617068,-0.1231743,-51.97291,0.07658529,12.34857
53.209226608,-0.2173175,0.657073599999999,0.803446099999999,0.9840772,-0.1670704,-0.1274819,-51.97291,0.07658529,12.34857
53.219224453,-0.5249836,0.894483100000001,0.803446099999999,0.9863956,-0.1606591,-0.1222233,-51.97291,0.07658529,12.34857
53.229221821,-0.4634504,0.953835399999999,0.7424754,0.9855213,-0.1660349,-0.1236561,-51.97291,0.07658529,12.34857
53.239219666,-0.1557842,0.953835399999999,0.7424754,0.9836368,-0.1694737,-0.1236519,-51.97291,0.07658529,12.34857
53.249217033,0.0903486900000002,0.8351307,0.803446099999999,0.9874065,-0.1625785,-0.121746,-52.7207,0.0676918,11.95601
53.259215355,-0.1557842,0.775778400000001,0.925387699999998,0.9901749,-0.1542365,-0.1188815,-52.7207,0.0676918,11.95601
53.269212723,-0.2173175,0.775778400000001,0.925387699999998,0.9800089,-0.1578565,-0.1207772,-52.7207,0.0676918,11.95601
53.279210568,0.02881546,0.953835399999999,0.925387699999998,0.9878846,-0.1620788,-0.1212684,-52.7207,0.0676918,11.95601
53.289207935,0.0903486900000002,0.775778400000001,1.1083,0.9849423,-0.1612089,-0.1260492,-52.7207,0.0676918,11.95601
53.29920578,0.2134152,0.657073599999999,1.1083,0.9796773,-0.1661109,-0.1193387,-52.00436,1.598009,12.34046
53.309203148,0.2749484,0.716426,0.803446099999999,0.9782163,-0.166131,-0.118379,-52.00436,1.598009,12.34046
53.319200993,0.4595481,0.657073599999999,0.986358399999998,0.9796235,-0.16317,-0.1164679,-52.00436,1.598009,12.34046
53.329198361,0.5826145,0.597721199999998,1.047329,0.9850268,-0.1655061,-0.1179125,-52.00436,1.598009,12.34046
53.339196205,0.767214200000001,0.4790165,0.986358399999998,0.9825822,-0.1650685,-0.1179083,-52.00436,1.598009,12.34046
53.349193573,0.890280700000001,0.3009594,1.1083,0.9824814,-0.1597383,-0.1193453,-52.33978,-0.3065829,12.34782
53.359191895,0.644147799999998,0.06354995,1.1083,0.9825805,-0.1651211,-0.1236512,-52.33978,-0.3065829,12.34782
53.369188786,1.07488,0.2416071,1.047329,0.984566,-0.1670081,-0.1217399,-52.33978,-0.3065829,12.34782
53.379187107,1.997879,0.004197581,0.925387699999998,0.9860017,-0.1654649,-0.1155213,-52.33978,-0.3065829,12.34782
53.389184475,2.120945,-0.1738595,1.1083,0.9830244,-0.1626081,-0.1155169,-52.33978,-0.3065829,12.34782
53.401681423,2.674744,-0.2332119,1.047329,0.9781904,-0.1646298,-0.1135936,-52.38526,1.972282,11.94865
53.411679745,2.920877,-0.4706214,1.047329,0.9782809,-0.1695094,-0.1159854,-52.38526,1.972282,11.94865
53.419177532,3.228544,-0.4706214,1.291212,0.9846125,-0.1694062,-0.1183893,-52.38526,1.972282,11.94865
53.431674957,3.720809,-0.708030899999999,1.047329,0.9912949,-0.1619938,-0.11936,-52.38526,1.972282,11.94865
53.439172745,3.720809,-0.648678499999998,1.169271,0.9903126,-0.1614966,-0.1160084,-52.38526,1.972282,11.94865
53.449171066,3.843876,-0.767383199999997,0.925387699999998,0.9864516,-0.1635342,-0.1179155,-51.9771,0.4498587,11.50804
53.461667538,4.213075,-0.826735599999998,0.864416900000002,0.9821686,-0.1689466,-0.1159923,-51.9771,0.4498587,11.50804
53.469166279,4.336142,-0.9454404,0.986358399999998,0.9827381,-0.1733001,-0.115035,-51.9771,0.4498587,11.50804
53.479163647,4.336142,-0.9454404,1.047329,0.9801664,-0.1660398,-0.1126395,-51.9771,0.4498587,11.50804
53.489161492,3.966942,-1.123497,0.986358399999998,0.981618,-0.1655427,-0.1145565,-51.9771,0.4498587,11.50804
53.499158859,3.597743,-1.123497,1.047329,0.9879212,-0.1640174,-0.1207894,-52.36337,0.8344851,12.34173
53.509156704,3.290077,-1.420259,1.047329,0.9932262,-0.1609487,-0.1155351,-52.36337,0.8344851,12.34173
53.521653175,2.920877,-1.360907,1.230241,0.9814725,-0.1577574,-0.1131225,-52.36337,0.8344851,12.34173
53.531651497,2.920877,-1.835726,1.657037,0.9902203,-0.1566697,-0.1193595,-52.36337,0.8344851,12.34173
53.541648865,3.105477,-1.895078,1.778978,0.9862149,-0.1508868,-0.116004,-52.73025,0.4513168,12.34098
53.55164671,2.982411,-1.95443,1.839949,0.9870338,-0.1426184,-0.1169647,-52.73025,0.4513168,12.34098
53.561644077,2.859344,-2.013783,2.632569,0.9789155,-0.1515784,-0.1226912,-52.73025,0.4513168,12.34098
53.571641922,3.966942,-2.013783,2.69354,0.9777998,-0.1701013,-0.1265131,-52.73025,0.4513168,12.34098
53.58163929,6.36673800000001,-2.19184,2.571598,0.9796696,-0.1919975,-0.1336893,-52.73025,0.4513168,12.34098
53.591637135,8.028135,-1.776374,2.449656,0.9891407,-0.1771488,-0.1246167,-51.62006,1.217196,11.95826
53.601634503,7.53587,-1.657669,2.571598,0.9887484,-0.1562611,-0.1246214,-51.62006,1.217196,11.95826
53.611632347,5.136074,-1.420259,2.876452,0.9761308,-0.1588875,-0.1188558,-51.62006,1.217196,11.95826
53.621629715,4.336142,-1.479612,3.303247,0.98555,-0.1674527,-0.1193486,-51.62006,1.217196,11.95826
53.631628036,4.213075,-1.242202,3.242276,0.9813112,-0.1753378,-0.1222107,-51.62006,1.217196,11.95826
53.641624927,4.397675,-0.886087999999999,3.303247,0.9687274,-0.179995,-0.1260161,-51.64534,2.361532,12.33918
53.651623249,5.81293900000002,-1.004793,3.791013,0.9742615,-0.1633944,-0.1293801,-51.64534,2.361532,12.33918
53.661620617,6.24367199999998,-0.9454404,3.791013,0.9901693,-0.1544121,-0.1380245,-51.64534,2.361532,12.33918
53.671618462,8.15120200000001,-1.064145,3.973926,0.978437,-0.1785076,-0.1437408,-51.64534,2.361532,12.33918
53.681615829,12.33546,-1.18285,3.364218,0.9861472,-0.1996666,-0.1360915,-51.64534,2.361532,12.33918
53.691613674,15.22752,-0.708030899999999,2.632569,0.9873019,-0.1830121,-0.1241334,-51.99818,1.220922,12.72949
53.701611042,13.87379,-0.4706214,2.815481,0.9791362,-0.163184,-0.1169457,-51.99818,1.220922,12.72949
53.711608887,13.19693,-0.826735599999998,2.998394,0.9600937,-0.1867626,-0.1035063,-51.99818,1.220922,12.72949
53.721606255,14.11993,-0.648678499999998,3.120335,0.9508908,-0.1899434,-0.1125823,-51.99818,1.220922,12.72949
53.731604099,15.35059,-0.589326100000003,3.791013,0.9597881,-0.1708729,-0.1188243,-51.99818,1.220922,12.72949
53.741601467,18.85798,-0.648678499999998,2.876452,0.9847868,-0.2042502,-0.1030662,-52.3791,1.595197,12.33768
53.751599789,24.94977,-0.9454404,2.815481,0.9832535,-0.2267786,-0.1188508,-52.3791,1.595197,12.33768
53.761597156,26.3035,0.06354995,3.303247,0.9974992,-0.1807265,-0.1088374,-52.3791,1.595197,12.33768
53.771595001,25.25744,2.496997,4.400721,0.9747462,-0.1355009,-0.05616597,-52.3791,1.595197,12.33768
53.781592369,24.58057,2.675054,5.80304899999998,0.9348912,-0.1684404,-0.1178243,-52.3791,1.595197,12.33768
53.791590214,22.98071,3.624692,5.80304899999998,0.9633734,-0.1799648,-0.1111709,-52.37292,1.218109,12.72671
53.801587582,23.90371,3.921454,6.29081499999999,0.9759405,-0.1750633,-0.1336872,-52.37292,1.218109,12.72671
53.811585426,20.45785,4.989797,6.473727,0.9914262,-0.1702269,-0.1696086,-52.37292,1.218109,12.72671
53.821582794,10.67406,5.345911,6.65663900000001,1.004755,-0.1519082,-0.1083788,-52.37292,1.218109,12.72671
53.831580639,5.44374,4.514977,5.92499000000001,0.9917114,-0.2357259,-0.1059417,-52.37292,1.218109,12.72671
53.841578007,6.85900399999999,3.387283,5.620136,0.9783646,-0.2764051,-0.06187892,-52.02795,2.739076,12.33437
53.851576328,7.47433699999998,2.081531,4.827517,0.9594753,-0.2306007,-0.06042205,-52.02795,2.739076,12.33437
53.861573219,4.397675,-0.2332119,3.059364,0.9675738,-0.2471294,-0.0786178,-52.02795,2.739076,12.33437
53.871571541,5.136074,-1.776374,2.571598,0.97044,-0.2177979,-0.06570879,-52.02795,2.739076,12.33437
53.881568909,1.505613,-2.607306,1.839949,0.9942949,-0.1649151,-0.07342122,-52.02795,2.739076,12.33437
53.891566753,-3.601645,-4.922049,1.169271,0.9870273,-0.1933354,-0.08345132,-52.77376,2.726368,11.49031
53.901564121,-5.447642,-5.574925,1.413154,1.000873,-0.1779143,-0.07438648,-52.77376,2.726368,11.49031
53.911561966,-9.508835,-6.70261999999998,0.925387699999998,0.9984208,-0.1777224,-0.1011825,-52.77376,2.726368,11.49031
53.921559334,-10.30877,-8.12707699999999,0.681504599999997,0.9662288,-0.2279026,-0.0987206,-52.77376,2.726368,11.49031
53.931557178,-8.70890300000002,-9.61088600000001,0.2547093,0.9724887,-0.2231071,-0.06618958,-52.77376,2.726368,11.49031
53.941554546,-6.61677399999998,-11.62887,-0.2940276,0.9783307,-0.2495089,-0.09634326,-52.43414,4.257687,12.32348
53.951552391,-3.417045,-12.99397,-0.4769399,0.9744424,-0.1980321,-0.09156396,-52.43414,4.257687,12.32348
53.961549759,-3.847778,-13.64685,0.31568,0.9705712,-0.1483329,-0.1217203,-52.43414,4.257687,12.32348
53.97154808,-4.278511,-13.8249,1.1083,0.9879441,-0.1656151,-0.1361034,-52.43414,4.257687,12.32348
53.981544971,-3.786245,-13.35009,2.144803,0.9997061,-0.1436777,-0.1538369,-52.03162,2.746158,13.17288
53.991543293,-6.24757399999999,-12.16304,3.120335,0.9792107,-0.1685639,-0.1738949,-52.03162,2.746158,13.17288
54.001541138,-4.46311,-10.44182,3.303247,1.000519,-0.2397167,-0.1892282,-52.03162,2.746158,13.17288
54.011538506,-0.586516899999998,-8.30513400000001,3.608101,0.9992853,-0.2006123,-0.2146007,-52.03162,2.746158,13.17288
54.02153635,0.2749484,-6.52456300000001,3.791013,0.9771701,-0.1909629,-0.2274861,-52.03162,2.746158,13.17288
54.031533718,1.751746,-3.616297,4.034896,0.9978414,-0.1759938,-0.2294403,-52.0333,2.749427,13.55988
54.041531563,1.07488,-1.18285,4.583633,0.9850644,-0.1697272,-0.2074052,-52.0333,2.749427,13.55988
54.051528931,0.2749484,0.5383689,5.13237,0.9828295,-0.2061117,-0.1959061,-52.0333,2.749427,13.55988
54.061527252,2.120945,1.844121,5.315282,0.9902171,-0.183958,-0.1806102,-52.0333,2.749427,13.55988
54.071524143,1.321013,2.496997,5.86401899999998,0.9768691,-0.1733863,-0.1647967,-52.0333,2.749427,13.55988
54.081522465,2.059412,3.031168,6.29081499999999,0.9873368,-0.1857744,-0.1605045,-51.70573,5.034374,13.55049
54.091519833,0.890280700000001,4.336921,7.26634699999998,0.9723554,-0.1667337,-0.1714906,-51.70573,5.034374,13.55049
54.101517677,0.2134152,5.523968,7.26634699999998,0.9767562,-0.219724,-0.183449,-51.70573,5.034374,13.55049
54.111515045,0.644147799999998,6.71101499999999,7.14440499999997,0.9952218,-0.2168944,-0.1796533,-51.70573,5.034374,13.55049
54.12151289,-1.755648,8.84769999999998,7.32731800000001,0.9753433,-0.1964487,-0.1858454,-51.70573,5.034374,13.55049
54.131510258,-3.355512,9.97539500000001,7.26634699999998,0.9872674,-0.2346068,-0.186335,-52.41422,3.123701,13.16807
54.141508102,-2.92478,11.69661,7.022464,0.9829382,-0.236837,-0.1552194,-52.41422,3.123701,13.16807
54.15150547,-2.617113,12.17143,6.29081499999999,0.9739673,-0.2263937,-0.1628637,-52.41422,3.123701,13.16807
54.161503315,-1.263382,12.5869,5.376253,0.9754743,-0.2536634,-0.1193089,-52.41422,3.123701,13.16807
54.171500683,-1.263382,13.06172,4.766546,0.9737943,-0.2676661,-0.1059022,-52.41422,3.123701,13.16807
54.181499004,-1.386449,13.12107,4.034896,0.9710817,-0.2532511,-0.1178656,-52.80101,3.874518,12.32273
54.191496372,-2.986313,13.23978,3.364218,0.9607726,-0.2490067,-0.1097129,-52.80101,3.874518,12.32273
54.201494217,-4.64771,13.18042,2.327715,0.9744206,-0.2748727,-0.09824421,-52.80101,3.874518,12.32273
54.211491585,-3.970845,12.88366,1.535095,0.9721771,-0.2851042,-0.09632336,-52.80101,3.874518,12.32273
54.22148943,-3.047846,13.00237,0.620533899999998,0.9659776,-0.2405815,-0.1030241,-52.80101,3.874518,12.32273
54.231486797,-6.18604100000003,13.59589,0.4985923,0.969286,-0.2095606,-0.1188309,-52.45603,5.395485,11.9304
54.241484642,-7.232106,14.18941,-0.1111153,0.9946257,-0.2615723,-0.1222117,-52.45603,5.395485,11.9304
54.25148201,-4.770776,14.66423,-0.7817937,0.9889727,-0.246226,-0.1322559,-52.45603,5.395485,11.9304
54.261479855,-5.509175,14.84229,-1.696355,0.9541017,-0.2055441,-0.1250269,-52.45603,5.395485,11.9304
54.271477223,-6.12450699999998,14.36747,-2.488975,0.9858212,-0.2590359,-0.0915681,-52.45603,5.395485,11.9304
54.281475067,-4.155444,14.48618,-2.976741,0.9874348,-0.2665817,-0.07003304,-52.79565,3.864166,11.09722
54.291472435,-5.93990799999998,14.60488,-3.281595,0.9582891,-0.2202844,-0.09870873,-52.79565,3.864166,11.09722
54.301470757,-10.12417,14.30812,-3.586449,0.9617314,-0.2215119,-0.08100709,-52.79565,3.864166,11.09722
54.311468124,-10.12417,14.07071,-3.891303,0.9897415,-0.2341228,-0.08583844,-52.79565,3.864166,11.09722
54.321465969,-9.69343500000003,15.31711,-4.135185,0.980722,-0.2213472,-0.1040119,-52.79565,3.864166,11.09722
54.331463337,-9.878035,14.24877,-4.440039,0.9502892,-0.2099228,-0.1173619,-52.39902,2.72918,11.49309
54.341461182,-6.55523999999999,13.53654,-5.110718,0.976492,-0.2289514,-0.07624515,-52.39902,2.72918,11.49309
54.35145855,-4.216978,13.77395,-4.805864,0.9796017,-0.2120522,-0.04179745,-52.39902,2.72918,11.49309
54.361456394,-3.478579,12.82431,-4.561981,0.9604745,-0.2064681,-0.08053019,-52.39902,2.72918,11.49309
54.371453762,-2.247914,11.93402,-4.257127,0.9760978,-0.1817089,-0.06381365,-52.39902,2.72918,11.49309
54.381451607,-3.109379,11.75597,-3.586449,0.9688675,-0.1599931,-0.06476378,-52.77037,2.719831,10.7163
54.391448975,-1.878715,10.15345,-3.769361,0.9865959,-0.2218741,-0.06812879,-52.77037,2.719831,10.7163
54.401447296,3.16701,9.08511,-3.586449,0.9816836,-0.1937646,-0.06573458,-52.77037,2.719831,10.7163
54.411444187,4.889941,7.36389100000001,-4.074214,0.9764181,-0.1466226,-0.05377315,-52.77037,2.719831,10.7163
54.421442509,5.99753899999999,5.523968,-4.318098,0.9879102,-0.212566,-0.009747203,-52.77037,2.719831,10.7163
54.431439877,6.92053700000001,3.090521,-4.379068,0.9729353,-0.2189642,0.01373078,-52.75884,2.332392,9.879828
54.441437721,5.136074,0.8351307,-4.561981,0.9732234,-0.2082151,0.01947042,-52.75884,2.332392,9.879828
54.451435089,3.35161,-1.064145,-4.135185,0.9799169,-0.2019981,-0.00590738,-52.75884,2.332392,9.879828
54.461432934,1.505613,-2.132488,-3.830332,0.9821556,-0.1662706,-0.03607078,-52.75884,2.332392,9.879828
54.471430302,2.674744,-3.497592,-3.70839,0.9918258,-0.1885732,-0.05139632,-52.75884,2.332392,9.879828
54.481428146,5.382206,-3.20083,-3.586449,0.9940433,-0.1776071,-0.07916042,-52.77457,3.093103,9.875772
54.491426468,3.597743,-3.082125,-3.220624,0.9939348,-0.1461064,-0.08826128,-52.77457,3.093103,9.875772
54.501423359,2.490145,-2.844716,-2.184121,0.9783034,-0.1959901,-0.08917835,-52.77457,3.093103,9.875772
54.511421681,5.505273,-2.547954,-1.391501,0.9658484,-0.2074128,-0.0891537,-52.77457,3.093103,9.875772
54.521419048,9.074201,-2.42925,-1.086647,0.9726563,-0.1812305,-0.1102296,-52.77457,3.093103,9.875772
54.531416893,11.59706,-1.420259,-0.7817937,0.9902907,-0.1598681,-0.09734434,-53.13358,2.329579,9.877048
54.541414261,12.52006,-0.9454404,-0.1720861,0.9738373,-0.1917048,-0.08917167,-53.13358,2.329579,9.877048
54.551412106,14.30453,-0.2332119,0.1937385,0.9872653,-0.2323595,-0.1001919,-53.13358,2.329579,9.877048
54.561409474,15.59672,0.2416071,0.31568,0.9790742,-0.2110127,-0.08630437,-53.13358,2.329579,9.877048
54.571407318,15.53519,0.657073599999999,0.925387699999998,0.9743971,-0.1691782,-0.07147112,-52.76501,2.709478,9.490799
54.581404686,14.73526,0.2416071,1.047329,0.9981012,-0.1863748,-0.09017248,-52.76501,2.709478,9.490799
54.591402531,16.88892,0.1229023,0.986358399999998,0.9910604,-0.2005667,-0.08584937,-52.76501,2.709478,9.490799
54.601399899,19.47332,-0.589326100000003,0.5595631,0.9822416,-0.1977069,-0.07291318,-52.76501,2.709478,9.490799
54.61139822,18.79645,-0.767383199999997,0.0717969800000001,0.9943318,-0.1660739,-0.04087781,-52.76501,2.709478,9.490799
54.621395111,13.68919,-1.538964,0.3766508,0.9940599,-0.1778603,-0.05379586,-53.14761,3.087022,9.48599
54.631393433,8.64346799999999,-2.251192,0.681504599999997,0.9711556,-0.2035028,-0.04513496,-53.14761,3.087022,9.48599
54.6413908,5.566806,-2.488602,0.803446099999999,0.9802401,-0.2196479,-0.02361071,-53.14761,3.087022,9.48599
54.651388645,6.18213799999999,-2.726011,0.31568,0.9952372,-0.2405103,-0.05234605,-53.14761,3.087022,9.48599
54.661386013,7.843536,-3.735002,-0.8427644,0.9815016,-0.2360889,-0.07050914,-53.14761,3.087022,9.48599
54.671383858,8.028135,-4.091116,-1.208589,0.9731507,-0.2058624,-0.0417878,-52.75884,2.332392,9.879828
54.681381226,5.93600600000003,-4.269173,-0.5379106,0.9699288,-0.189833,-0.03556482,-52.75884,2.332392,9.879828
54.69137907,3.782343,-4.387877,-0.1720861,0.9733818,-0.2194564,-0.09394948,-52.75884,2.332392,9.879828
54.701376438,4.766874,-4.20982,-0.8427644,0.9759179,-0.2247428,-0.09299539,-52.75884,2.332392,9.879828
54.711374283,3.905409,-3.913059,-1.513443,0.9965979,-0.2102771,-0.09686377,-52.75884,2.332392,9.879828
54.721371651,0.8287475,-3.497592,-1.696355,0.9873791,-0.2116363,-0.06621849,-52.77287,3.089834,9.48877
54.731369972,-1.263382,-3.43824,-1.330531,0.9865964,-0.1962157,-0.07866407,-52.77287,3.089834,9.48877
54.74136734,-3.109379,-2.844716,-0.964705900000002,0.9668483,-0.1568463,-0.08821131,-52.77287,3.089834,9.48877
54.751365185,-2.494047,-3.022773,-0.8427644,0.9792596,-0.1949949,-0.08870169,-52.77287,3.089834,9.48877
54.761362553,0.767214200000001,-2.963421,-0.964705900000002,1.002581,-0.2174217,-0.09400091,-52.77287,3.089834,9.48877
54.771360397,2.551678,-2.666659,-1.208589,0.9782887,-0.1956799,-0.1083214,-52.78243,3.473459,9.873745
54.781357765,1.874812,-2.726011,-1.513443,1.004512,-0.1650992,-0.1155537,-52.78243,3.473459,9.873745
54.79135561,-1.078783,-1.18285,-0.5379106,0.9970102,-0.128736,-0.1083713,-52.78243,3.473459,9.873745
54.801352978,-4.278511,-0.1145072,0.01082622,0.9894985,-0.1960321,-0.1179124,-52.78243,3.473459,9.873745
54.811350822,-0.6480501,0.597721199999998,0.1327677,0.9873487,-0.2374629,-0.126991,-52.78243,3.473459,9.873745
54.82134819,1.136414,2.378292,0.01082622,0.9596138,-0.2129603,-0.09775576,-52.77457,3.093103,9.875772
54.831346512,-1.017249,3.031168,0.0717969800000001,0.9841223,-0.2208029,-0.1049751,-52.77457,3.093103,9.875772
54.841343403,-3.109379,4.277568,0.3766508,0.9949085,-0.2238027,-0.08441437,-52.77457,3.093103,9.875772
54.851341724,-5.447642,4.633682,0.620533899999998,0.9701793,-0.2300042,-0.07144811,-52.77457,3.093103,9.875772
54.861339092,-5.447642,4.633682,0.2547093,0.975197,-0.2376626,-0.06954058,-52.77457,3.093103,9.875772
54.871336937,-3.724712,3.980806,-0.2940276,0.9972005,-0.2151368,-0.04517737,-52.76081,2.336205,10.33133
54.881334782,-2.370981,2.734407,-0.8427644,1.005415,-0.1595903,-0.04664171,-52.76081,2.336205,10.33133
54.891332149,-4.64771,2.022178,-0.659852100000001,0.9814613,-0.129379,-0.03895052,-52.76081,2.336205,10.33133
54.901329994,-6.49370699999998,0.4196641,0.3766508,0.992884,-0.1672235,-0.05714658,-52.76081,2.336205,10.33133
54.911327362,-6.92443900000002,-0.648678499999998,0.1937385,1.00145,-0.1564118,-0.06242863,-52.76081,2.336205,10.33133
54.921325684,-9.38576900000002,-1.18285,0.620533899999998,0.9881229,-0.1474905,-0.06767204,-52.76671,2.712748,9.877801
54.931322575,-11.72403,-1.835726,1.230241,0.9808621,-0.1764712,-0.0858378,-52.76671,2.712748,9.877801
54.941320896,-12.27783,-2.42925,1.657037,0.9748776,-0.2206609,-0.0695444,-52.76671,2.712748,9.877801
54.951318264,-10.67797,-2.251192,1.90092,0.9702698,-0.2348837,-0.0738399,-52.76671,2.712748,9.877801
54.961316109,-9.13963599999997,-2.310545,1.778978,0.9623163,-0.2269246,-0.08962109,-52.76671,2.712748,9.877801
54.971313477,-6.80137299999998,-2.132488,1.596066,0.9811248,-0.2419058,-0.06811409,-52.39983,3.095916,9.878553
54.981311321,-4.155444,-2.310545,1.291212,0.9681976,-0.2800559,-0.06712458,-52.39983,3.095916,9.878553
54.991308689,-1.509515,-1.598316,1.413154,0.9548766,-0.2196684,-0.07716701,-52.39983,3.095916,9.878553
55.001306534,-5.87837500000002,-0.767383199999997,2.144803,0.9704462,-0.1406734,-0.0810431,-52.39983,3.095916,9.878553
55.011303902,-8.83197000000002,-0.708030899999999,1.90092,1.016796,-0.2220572,-0.100246,-52.39983,3.095916,9.878553
55.021301746,-6.18604100000003,-0.4706214,1.90092,0.9852079,-0.2265513,-0.09827545,-52.76671,2.712748,9.877801
55.031299114,-4.955376,-0.9454404,0.925387699999998,0.9815509,-0.1871175,-0.08248623,-52.76671,2.712748,9.877801
55.041297436,-5.201509,-1.301555,0.925387699999998,0.9949239,-0.1984502,-0.07532798,-52.76671,2.712748,9.877801
55.051294327,-5.386109,-1.657669,0.803446099999999,0.9855319,-0.1913466,-0.07531343,-52.76671,2.712748,9.877801
55.061292648,-4.770776,-2.904068,0.01082622,0.9985873,-0.2120412,-0.08155236,-52.76671,2.712748,9.877801
55.071290016,-3.417045,-3.616297,-0.720822899999998,0.98886,-0.2125394,-0.06191366,-53.14511,2.717018,10.71352
55.081287861,-3.663178,-4.922049,-1.086647,0.9764696,-0.2273405,-0.05949537,-53.14511,2.717018,10.71352
55.091285229,-2.863246,-5.634277,-1.696355,0.9793559,-0.2253354,-0.05902234,-53.14511,2.717018,10.71352
55.101283073,-3.786245,-6.04974400000001,-1.940238,0.9621101,-0.2148669,-0.04607341,-53.14511,2.717018,10.71352
55.111280441,-4.64771,-5.337515,-1.391501,0.9511362,-0.2536047,-0.06040159,-53.14511,2.717018,10.71352
55.121278286,-4.278511,-4.565935,-1.208589,0.9672655,-0.2313275,-0.1035073,-53.15297,3.097374,10.7115
55.131275654,-6.370641,-4.150468,-1.757326,0.9875664,-0.2227444,-0.1121593,-53.15297,3.097374,10.7115
55.141273499,-7.66283799999999,-2.963421,-1.26956,0.9981235,-0.1879901,-0.1074008,-53.15297,3.097374,10.7115
55.151270866,-10.06263,-1.657669,-0.598881400000002,0.9727364,-0.1856637,-0.1169287,-53.15297,3.097374,10.7115
55.161269188,-8.40123700000001,-0.826735599999998,-0.5379106,0.9780154,-0.2075102,-0.1260252,-52.38776,2.342287,10.72111
55.171266556,-5.632242,-0.648678499999998,-1.452472,1.001941,-0.2098566,-0.1155377,-52.38776,2.342287,10.72111
55.181264401,-8.21663800000001,-0.05515479,-1.208589,0.9789302,-0.1775338,-0.09157707,-52.38776,2.342287,10.72111
55.191261768,-13.75463,0.657073599999999,-0.5379106,0.9728786,-0.1927834,-0.09874124,-52.38776,2.342287,10.72111
55.201259613,-16.58516,1.131893,0.31568,0.9830245,-0.1626037,-0.1150383,-52.38776,2.342287,10.72111
55.211257458,-17.56969,1.666064,0.681504599999997,0.989526,-0.197485,-0.1174335,-52.39394,2.719374,10.33208
55.221254826,-13.63156,1.131893,-0.1720861,1.002068,-0.2423288,-0.1064366,-52.39394,2.719374,10.33208
55.23125267,-10.12417,1.07254,-0.4159691,0.9927303,-0.2117499,-0.09015659,-52.39394,2.719374,10.33208
55.241250038,-10.67797,1.844121,0.0717969800000001,0.9851742,-0.1468181,-0.09398874,-52.39394,2.719374,10.33208
55.25124836,-14.49303,1.844121,0.681504599999997,0.994634,-0.183611,-0.0992601,-52.39394,2.719374,10.33208
55.261245728,-12.33936,1.962826,0.620533899999998,0.9861061,-0.2483834,-0.0963571,-52.39563,2.722643,10.71908
55.271243572,-8.58583600000001,3.090521,0.681504599999997,0.9761977,-0.2142528,-0.1154917,-52.39563,2.722643,10.71908
55.28124094,-8.03203799999998,3.56534,0.3766508,0.9872491,-0.2056769,-0.1049845,-52.39563,2.722643,10.71908
55.291238785,-7.78590499999999,4.693035,0.864416900000002,0.9950618,-0.1808317,-0.1150546,-52.39563,2.722643,10.71908
55.301236153,-7.66283799999999,4.989797,1.413154,0.9752092,-0.1618915,-0.1265107,-52.39563,2.722643,10.71908
55.311233997,-5.816842,5.167854,1.90092,0.9974177,-0.1763327,-0.1064455,-52.77037,2.719831,10.7163
55.321231365,-3.047846,5.464615,2.083832,0.9829981,-0.1867609,-0.09971758,-52.77037,2.719831,10.7163
55.33122921,-1.017249,5.464615,2.937423,0.9646885,-0.1721725,-0.1121324,-52.77037,2.719831,10.7163
55.341226578,-1.509515,6.29554899999997,3.54713,0.9933631,-0.1425899,-0.1275044,-52.77037,2.719831,10.7163
55.351224899,-4.032378,7.00777700000002,4.217809,1.002984,-0.1618155,-0.1251234,-52.77037,2.719831,10.7163
55.36122179,-5.324575,7.24518699999998,5.0714,0.9966906,-0.1638003,-0.1160189,-52.75464,1.959119,10.72036
55.371220112,-4.893843,7.54194799999998,5.681107,0.9753268,-0.1931069,-0.08630244,-52.75464,1.959119,10.72036
55.38121748,-1.078783,7.18583399999999,5.13237,0.9811016,-0.2154426,-0.09683543,-52.75464,1.959119,10.72036
55.391215324,2.120945,6.05813900000001,4.217809,0.9885784,-0.2238576,-0.07674611,-52.75464,1.959119,10.72036
55.401212692,2.244012,5.286559,4.217809,0.9886729,-0.202198,-0.04660156,-52.75464,1.959119,10.72036
55.411210537,0.2749484,4.989797,4.644604,0.9593066,-0.1955812,-0.05660217,-52.42708,4.244066,10.71097
55.421207905,-0.0942510000000003,3.743397,4.888487,0.9607795,-0.1967301,-0.07909751,-52.42708,4.244066,10.71097
55.43120575,-0.2788507,3.149873,5.010429,0.9880972,-0.1980377,-0.06861611,-52.42708,4.244066,10.71097
55.441203117,2.736278,2.140883,4.644604,0.9680406,-0.2454431,-0.05469025,-52.42708,4.244066,10.71097
55.451200962,6.428272,1.428654,4.400721,0.972468,-0.2214392,-0.04321832,-52.42708,4.244066,10.71097
55.46119833,5.87447300000001,0.1229023,3.730042,0.9752575,-0.2396261,-0.01881112,-52.76081,2.336205,10.33133
55.471196652,7.16667,-0.648678499999998,3.120335,0.9834192,-0.2852224,-0.02742798,-52.76081,2.336205,10.33133
55.481193543,5.93600600000003,-1.360907,2.327715,0.9596964,-0.2421932,-0.05324081,-52.76081,2.336205,10.33133
55.491191864,2.982411,-1.776374,2.449656,0.9618798,-0.2292094,-0.07286958,-52.76081,2.336205,10.33133
55.501189232,2.674744,-1.717021,1.657037,0.9911134,-0.2555955,-0.09875685,-52.76081,2.336205,10.33133
55.511187077,4.520741,-1.123497,1.1083,0.9831817,-0.2228573,-0.115023,-52.76671,2.712748,9.877801
55.521184921,6.05907200000001,-0.9454404,0.0717969800000001,0.9763361,-0.2471361,-0.09825469,-52.76671,2.712748,9.877801
55.531182289,7.47433699999998,-0.589326100000003,-0.720822899999998,0.9924325,-0.2220307,-0.09781064,-52.76671,2.712748,9.877801
55.541180134,2.982411,-0.1145072,-0.8427644,0.9698335,-0.1858737,-0.08055181,-52.76671,2.712748,9.877801
55.551177502,0.705681,-0.886087999999999,-1.086647,0.9757969,-0.269793,-0.07719058,-52.76671,2.712748,9.877801
55.561175823,4.459208,-1.479612,-2.06218,0.9742333,-0.2894098,-0.04033244,-52.77457,3.093103,9.875772
55.571172714,5.93600600000003,-2.607306,-3.342566,0.9562125,-0.2376385,-0.02595708,-52.77457,3.093103,9.875772
55.581171036,4.397675,-3.913059,-3.952273,0.9709902,-0.2460847,-0.02502351,-52.77457,3.093103,9.875772
55.591168404,3.474676,-4.684639,-4.196156,0.9724162,-0.2184324,-0.03316891,-52.77457,3.093103,9.875772
55.601166248,0.890280700000001,-5.45622,-4.440039,0.9694232,-0.2152917,-0.055179,-52.77457,3.093103,9.875772
55.611163616,0.951813900000003,-5.634277,-5.29363,0.9894581,-0.244727,-0.07578512,-52.76868,2.716561,10.3293
55.621161461,0.951813900000003,-5.931039,-5.720425,0.9861043,-0.2220241,-0.08344233,-52.76868,2.716561,10.3293
55.631158829,-0.2788507,-5.574925,-5.90333699999997,0.9821979,-0.1959877,-0.09732093,-52.76868,2.716561,10.3293
55.641156673,-1.755648,-5.159458,-5.78139599999999,0.9889972,-0.1949429,-0.1040331,-52.76868,2.716561,10.3293
55.651154041,-1.755648,-4.565935,-5.415571,0.9797027,-0.1932748,-0.1140674,-52.76868,2.716561,10.3293
55.661151886,-0.894183000000003,-3.972411,-4.866835,0.9739426,-0.1720204,-0.1154986,-52.39983,3.095916,9.878553
55.671149254,0.3980148,-3.616297,-4.683922,0.9872401,-0.2051868,-0.104506,-52.39983,3.095916,9.878553
55.681147575,2.490145,-3.022773,-4.561981,1.000707,-0.196415,-0.1308534,-52.39983,3.095916,9.878553
55.691144943,0.5210813,-1.895078,-4.135185,0.9782115,-0.1662802,-0.1346506,-52.39983,3.095916,9.878553
55.701142788,-0.5249836,-1.123497,-3.403537,0.9878798,-0.162228,-0.1375399,-52.39983,3.095916,9.878553
55.711140156,-1.386449,0.06354995,-2.976741,0.9991173,-0.1632576,-0.1150662,-52.43494,4.624422,10.70895
55.721138,-1.140316,0.894483100000001,-2.732858,0.9939672,-0.1745887,-0.1207972,-52.43494,4.624422,10.70895
55.731135368,-1.017249,1.844121,-1.513443,0.9749089,-0.145835,-0.1236428,-52.43494,4.624422,10.70895
55.741133213,-1.878715,2.912464,-0.659852100000001,0.9773903,-0.1482069,-0.1226894,-52.43494,4.624422,10.70895
55.751130581,0.3364816,3.387283,-0.4769399,1.00525,-0.2044722,-0.1184163,-52.3799,1.961931,10.72314
55.761128426,3.16701,3.980806,0.01082622,0.9856436,-0.1722357,-0.1112118,-52.3799,1.961931,10.72314
55.771125793,3.905409,3.743397,0.3766508,0.9794989,-0.1819136,-0.09349123,-52.3799,1.961931,10.72314
55.781124115,5.074541,3.802749,0.986358399999998,0.9886455,-0.2015118,-0.07770912,-52.3799,1.961931,10.72314
55.79112196,6.92053700000001,3.32793,0.864416900000002,0.9813667,-0.2031002,-0.07626031,-52.3799,1.961931,10.72314
55.801119327,7.28973700000001,3.32793,1.352183,0.9720166,-0.1721277,-0.07003049,-52.38607,2.339018,10.33411
55.811117172,4.766874,2.793759,2.083832,0.9896715,-0.1524421,-0.08107358,-52.38607,2.339018,10.33411
55.82111454,3.843876,2.437645,2.69354,1.001165,-0.1678397,-0.08922545,-52.38607,2.339018,10.33411
55.831112385,4.520741,2.378292,3.303247,0.9808929,-0.1521778,-0.08632268,-52.38607,2.339018,10.33411
55.841109753,4.028476,1.962826,3.791013,0.9920032,-0.1728012,-0.08059382,-52.38607,2.339018,10.33411
55.851107597,4.397675,1.962826,4.461692,0.9871963,-0.176289,-0.07962739,-52.76868,2.716561,10.3293
55.861104965,4.090009,2.259588,4.827517,0.9619808,-0.1832448,-0.09489609,-52.76868,2.716561,10.3293
55.871103287,4.274609,2.437645,4.583633,0.9890081,-0.2474287,-0.1044982,-52.76868,2.716561,10.3293
55.881100178,7.04360400000002,2.793759,3.791013,0.9890997,-0.2522776,-0.10354,-52.76868,2.716561,10.3293
55.891098499,5.689873,3.090521,3.54713,0.9846416,-0.1964561,-0.1006751,-52.76868,2.716561,10.3293
55.901095867,3.720809,3.56534,3.912955,0.9939365,-0.1981109,-0.08920506,-52.39027,2.712291,9.493579
55.911093712,6.67440499999999,3.446635,3.791013,0.9692915,-0.2093894,-0.1001664,-52.39027,2.712291,9.493579
55.92109108,9.62799900000003,3.209226,2.815481,0.9874989,-0.1922708,-0.07435948,-52.39027,2.712291,9.493579
55.931088924,8.45886800000002,2.55635,2.327715,0.9966624,-0.2128844,-0.0633629,-52.39027,2.712291,9.493579
55.941086292,6.36673800000001,2.081531,2.205774,0.9768918,-0.2496065,-0.050876,-52.39027,2.712291,9.493579
55.951084137,4.520741,2.200235,1.718008,0.9531606,-0.283001,-0.03790447,-52.39983,3.095916,9.878553
55.961081505,3.966942,1.962826,0.864416900000002,0.9497339,-0.3341145,-0.04027822,-52.39983,3.095916,9.878553
55.97107935,7.22820399999999,1.428654,-0.720822899999998,0.9567514,-0.3447543,-0.04985924,-52.39983,3.095916,9.878553
55.981076717,8.08966899999999,1.428654,-2.367033,0.9780059,-0.2567772,-0.04034742,-52.39983,3.095916,9.878553
55.991075039,4.151542,0.657073599999999,-2.549946,1.005252,-0.1515913,-0.07487947,-52.39983,3.095916,9.878553
56.00107193,-0.2788507,0.657073599999999,-1.757326,0.9768816,-0.1450372,-0.04085281,-53.16503,3.851003,9.868936
56.011070251,1.751746,0.4196641,-1.26956,0.9855265,-0.2428039,-0.06955726,-53.16503,3.851003,9.868936
56.021067619,10.24333,-0.589326100000003,-2.184121,0.9791816,-0.2425485,-0.0810321,-53.16503,3.851003,9.868936
56.031065464,9.99719900000002,-0.648678499999998,-2.367033,0.9802783,-0.1189661,-0.06670855,-53.16503,3.851003,9.868936
56.041062832,2.674744,-0.411269,-1.025677,0.9972764,-0.1684156,-0.09065425,-53.16503,3.851003,9.868936
56.051060677,2.428612,-0.2925643,-0.8427644,1.006847,-0.2630554,-0.09830378,-52.02339,3.095459,9.494332
56.061058521,5.93600600000003,0.004197581,-1.513443,0.9594828,-0.2054895,-0.07765726,-52.02339,3.095459,9.494332
56.071055889,3.53621,0.1822547,-1.26956,0.957492,-0.2030026,-0.06712576,-52.02339,3.095459,9.494332
56.081054211,2.674744,0.8351307,-0.7817937,0.9871723,-0.2267835,-0.07482859,-52.02339,3.095459,9.494332
56.091051102,0.890280700000001,1.250597,-1.208589,0.9895387,-0.2235018,-0.09301946,-52.02339,3.095459,9.494332
56.101049423,0.890280700000001,0.5383689,-1.940238,1.01373,-0.2142682,-0.09210686,-52.78074,3.47019,9.486743
56.111046791,0.2134152,1.250597,-0.7817937,0.9790417,-0.1048281,-0.05905282,-52.78074,3.47019,9.486743
56.121044636,-0.894183000000003,0.894483100000001,0.01082622,0.9842258,-0.1739881,-0.08728003,-52.78074,3.47019,9.486743
56.131042004,4.582274,0.1822547,0.0717969800000001,0.9902723,-0.2101871,-0.07340255,-52.78074,3.47019,9.486743
56.141039848,5.62834,-0.05515479,-0.05014454,0.9910799,-0.1750825,-0.06240575,-52.78074,3.47019,9.486743
56.151037216,0.767214200000001,0.3603118,0.864416900000002,0.9752628,-0.163299,-0.06812412,-53.5162,2.707123,9.872239
56.161035061,-5.570708,1.250597,2.144803,0.968144,-0.1994038,-0.06858099,-53.5162,2.707123,9.872239
56.171032429,-7.724371,1.844121,2.266744,0.9849129,-0.2367488,-0.09683658,-53.5162,2.707123,9.872239
56.181030273,-5.93990799999998,1.725416,1.657037,0.9716704,-0.2577743,-0.08245081,-53.5162,2.707123,9.872239
56.191027641,-3.663178,1.428654,1.291212,0.9913669,-0.2164301,-0.06765994,-53.5162,2.707123,9.872239
56.201025963,-4.83231,1.30995,1.474125,0.983764,-0.1747498,-0.06335023,-52.76501,2.709478,9.490799
56.211023331,-4.64771,1.191245,2.266744,0.9649166,-0.2091907,-0.06905141,-52.76501,2.709478,9.490799
56.221021175,-1.694115,1.191245,1.90092,0.9801595,-0.2424152,-0.06859085,-52.76501,2.709478,9.490799
56.231018543,2.244012,1.07254,1.169271,0.9995386,-0.2368405,-0.08537624,-52.76501,2.709478,9.490799
56.241016388,-1.324916,1.30995,0.803446099999999,0.9900404,-0.1717497,-0.06766913,-52.76501,2.709478,9.490799
56.251013756,-8.955036,1.547359,2.144803,0.9741262,-0.1545175,-0.06190291,-52.39813,3.092647,9.491551
56.261011601,-13.3239,2.259588,2.937423,0.9667637,-0.2294848,-0.06043505,-52.39813,3.092647,9.491551
56.271008968,-9.508835,2.140883,2.571598,0.9768467,-0.2735765,-0.06809848,-52.39813,3.092647,9.491551
56.281006813,-6.862906,2.081531,2.083832,0.9758098,-0.2180987,-0.05710372,-52.39813,3.092647,9.491551
56.291005135,-9.81650199999998,1.30995,2.388686,0.9896414,-0.1759424,-0.04708859,-52.39813,3.092647,9.491551
56.301002503,-12.7701,0.657073599999999,2.69354,0.9783517,-0.1975644,-0.04897764,-52.39983,3.095916,9.878553
56.311000347,-11.35483,-0.1145072,3.059364,0.9807945,-0.2237044,-0.04323225,-52.39983,3.095916,9.878553
56.320997715,-8.21663800000001,-1.420259,2.388686,0.9968832,-0.2244856,-0.05713881,-52.39983,3.095916,9.878553
56.33099556,-5.078443,-2.488602,1.96189,0.9753309,-0.1922086,-0.04131653,-52.39983,3.095916,9.878553
56.340992928,-7.29363900000002,-2.904068,3.120335,0.9713028,-0.1591783,-0.03413938,-52.39813,3.092647,9.491551
56.350990772,-8.52430299999999,-3.556944,3.669072,0.9813988,-0.2308246,-0.07912467,-52.39813,3.092647,9.491551
56.36098814,-6.06297400000002,-4.150468,3.303247,0.9754207,-0.2499427,-0.08437367,-52.39813,3.092647,9.491551
56.370985985,-5.201509,-4.091116,3.181306,0.966377,-0.2091926,-0.07240399,-52.39813,3.092647,9.491551
56.380983353,-6.55523999999999,-4.328525,2.876452,0.9870977,-0.2229501,-0.08057236,-52.39813,3.092647,9.491551
56.390981674,-7.724371,-3.082125,3.364218,0.9922805,-0.1880354,-0.09973343,-53.52602,3.091292,10.32171
56.400978565,-10.06263,-2.547954,3.425189,0.9871731,-0.2018874,-0.115514,-53.52602,3.091292,10.32171
56.410976887,-10.86257,-1.895078,3.54713,0.9947732,-0.2172391,-0.1102589,-53.52602,3.091292,10.32171
56.420974255,-10.12417,-1.123497,3.851984,0.9887538,-0.2081471,-0.1126437,-53.52602,3.091292,10.32171
56.430972099,-9.324236,-1.538964,3.669072,0.9607843,-0.2494135,-0.1010985,-53.52602,3.091292,10.32171
56.440969467,-5.816842,-0.886087999999999,3.303247,0.9720867,-0.2281631,-0.08676635,-52.78243,3.473459,9.873745
56.450967312,-5.509175,-1.004793,3.059364,0.9762965,-0.2188733,-0.08964753,-52.78243,3.473459,9.873745
56.46096468,-4.401577,-1.360907,2.876452,0.9591368,-0.2647155,-0.07046278,-52.78243,3.473459,9.873745
56.470962525,-0.1557842,-1.242202,2.571598,0.9766545,-0.263393,-0.07001507,-52.78243,3.473459,9.873745
56.480959892,0.02881546,-1.717021,2.144803,0.9604347,-0.2559166,-0.06759585,-52.78243,3.473459,9.873745
56.490957737,1.505613,-1.538964,1.413154,0.9687551,-0.3096566,-0.0637679,-52.77654,3.096917,10.32727
56.500955105,4.274609,-1.835726,0.681504599999997,0.9820455,-0.2397035,-0.09491653,-52.77654,3.096917,10.32727
56.510953426,0.767214200000001,-1.360907,0.7424754,0.9553805,-0.1950334,-0.09440297,-52.77654,3.096917,10.32727
56.520951271,0.3980148,-1.717021,0.5595631,0.9930303,-0.2798723,-0.1006682,-52.77654,3.096917,10.32727
56.530948639,3.782343,-1.538964,-0.5379106,0.9950014,-0.255024,-0.09780663,-52.77654,3.096917,10.32727
56.540946484,4.028476,-0.9454404,-1.147618,0.9685653,-0.1968263,-0.1063899,-52.7844,3.477273,10.32525
56.550943852,1.874812,-0.767383199999997,-1.26956,0.9883868,-0.2400729,-0.09588464,-52.7844,3.477273,10.32525
56.560941696,4.582274,-0.1145072,-1.391501,0.9857152,-0.253097,-0.07960504,-52.7844,3.477273,10.32525
56.570939064,7.28973700000001,-1.301555,-2.91577,0.9761169,-0.2611275,-0.08676489,-52.7844,3.477273,10.32525
56.580936909,8.95113399999999,-1.95443,-3.464507,0.9845515,-0.2420784,-0.04131977,-52.7844,3.477273,10.32525
56.590934277,8.82806800000001,-2.251192,-3.891303,0.9637876,-0.2522294,-0.04367384,-52.40179,3.09973,10.33006
56.600932598,9.13573400000002,-2.251192,-4.013244,0.9672949,-0.2583642,-0.08435733,-52.40179,3.09973,10.33006
56.610929489,8.397335,-1.657669,-4.440039,0.966404,-0.2114297,-0.1044681,-52.40179,3.09973,10.33006
56.620927811,3.228544,-1.360907,-4.561981,0.9972109,-0.2171251,-0.1030846,-52.40179,3.09973,10.33006
56.630925178,3.105477,-0.589326100000003,-4.866835,0.9917809,-0.2653669,-0.1059341,-52.40179,3.09973,10.33006
56.640923023,5.25914,0.06354995,-5.659454,0.9719863,-0.2235952,-0.1183534,-53.15128,3.094105,10.32449
56.650920391,5.62834,0.06354995,-6.26916200000001,0.9695804,-0.2250303,-0.1106916,-53.15128,3.094105,10.32449
56.660918236,6.67440499999999,0.597721199999998,-6.75692799999998,0.9998851,-0.2296629,-0.09830024,-53.15128,3.094105,10.32449
56.670915604,6.12060500000003,1.844121,-5.964308,0.9773664,-0.1722852,-0.09875434,-53.15128,3.094105,10.32449
56.680913448,2.551678,1.784769,-6.08625000000001,0.9736749,-0.2093204,-0.1020884,-53.15128,3.094105,10.32449
56.690910816,3.659276,1.844121,-6.14722099999998,0.9897398,-0.2598207,-0.07961033,-53.14931,3.090291,9.872992
56.700908661,5.136074,2.200235,-6.39110400000002,0.9599777,-0.2060096,-0.08244376,-53.14931,3.090291,9.872992
56.710906982,1.997879,1.488007,-6.87886999999998,0.9643433,-0.2049558,-0.08293021,-53.14931,3.090291,9.872992
56.72090435,1.136414,1.30995,-6.81789900000001,1.00235,-0.2302264,-0.05906116,-53.14931,3.090291,9.872992
56.730902195,0.644147799999998,1.784769,-6.57401600000003,0.9755065,-0.176498,-0.07721409,-53.14931,3.090291,9.872992
56.740899563,-0.4634504,1.547359,-6.695957,0.9807577,-0.1969003,-0.08774666,-53.14145,2.709935,9.87502
56.750897407,0.1518819,1.369302,-7.06178199999999,1.00737,-0.2129404,-0.09257469,-53.14145,2.709935,9.87502
56.760894775,-0.2173175,1.547359,-6.93983999999998,0.9825882,-0.190525,-0.08535861,-53.14145,2.709935,9.87502
56.77089262,-1.755648,1.191245,-7.12275300000002,0.9850527,-0.1918815,-0.07961965,-53.14145,2.709935,9.87502
56.780889988,-2.863246,1.191245,-7.00081100000001,0.9774657,-0.1768926,-0.07147449,-53.14145,2.709935,9.87502
56.790887833,-4.278511,0.716426,-6.75692799999998,0.9920387,-0.2004202,-0.07197241,-52.76671,2.712748,9.877801
56.8008852,-3.601645,0.5383689,-6.39110400000002,0.9824502,-0.2089189,-0.07721785,-52.76671,2.712748,9.877801
56.810883522,-3.417045,0.5383689,-6.26916200000001,0.9716946,-0.1552094,-0.07912723,-52.76671,2.712748,9.877801
56.820880413,-4.093911,-0.2332119,-6.39110400000002,0.9885133,-0.1940805,-0.06191781,-52.76671,2.712748,9.877801
56.830878735,-1.632582,-0.9454404,-6.33013299999999,0.9930139,-0.2260155,-0.05665309,-52.76671,2.712748,9.877801
56.840876102,-1.078783,-1.598316,-6.08625000000001,0.9513029,-0.184567,-0.05706963,-52.77457,3.093103,9.875772
56.850873947,-2.124848,-2.19184,-5.964308,0.9721302,-0.2034748,-0.04417951,-52.77457,3.093103,9.875772
56.860871315,-1.878715,-2.488602,-5.78139599999999,0.9922698,-0.2124721,-0.06191962,-52.77457,3.093103,9.875772
56.87086916,-3.970845,-2.073135,-4.683922,0.9698198,-0.1334712,-0.08917966,-52.77457,3.093103,9.875772
56.880866528,-6.80137299999998,-1.657669,-4.257127,0.9920225,-0.1745131,-0.1083508,-52.77457,3.093103,9.875772
56.890864372,-4.216978,-0.9454404,-3.891303,0.9947487,-0.1900488,-0.1126588,-52.38607,2.339018,10.33411
56.90086174,-1.324916,-0.4706214,-3.891303,0.9816896,-0.1694727,-0.1193414,-52.38607,2.339018,10.33411
56.910859585,-0.1557842,-0.411269,-4.013244,0.9909027,-0.1667469,-0.1069152,-52.38607,2.339018,10.33411
56.920856953,-1.509515,0.1229023,-3.281595,0.9892813,-0.1579004,-0.09255733,-52.38607,2.339018,10.33411
56.930855274,-1.817181,-0.1738595,-2.732858,0.9841682,-0.1968066,-0.08488117,-52.75294,1.95585,10.33336
56.940853119,0.3364816,-0.2332119,-2.245092,0.9678054,-0.1814613,-0.07193505,-52.75294,1.95585,10.33336
56.950850487,2.490145,-0.4706214,-2.001209,0.9806231,-0.1638984,-0.09206211,-52.75294,1.95585,10.33336
56.960848331,4.213075,-0.589326100000003,-1.452472,0.9888926,-0.1633149,-0.09925532,-52.75294,1.95585,10.33336
56.970845699,5.566806,-0.826735599999998,-0.8427644,0.9845123,-0.1632874,-0.08680472,-52.75294,1.95585,10.33336
56.980843544,6.305205,-0.589326100000003,-0.2330568,0.987902,-0.1623055,-0.09303236,-52.37035,1.578307,10.33817
56.990840912,5.751406,-0.4706214,0.864416900000002,0.9796779,-0.1396814,-0.09876677,-52.37035,1.578307,10.33817
57.000838757,4.643808,-0.1145072,1.474125,0.9967234,-0.1394455,-0.1098038,-52.37035,1.578307,10.33817
57.010836124,3.905409,0.597721199999998,2.144803,1.010195,-0.156161,-0.1069515,-52.37035,1.578307,10.33817
57.020834446,4.520741,0.953835399999999,2.327715,0.9967903,-0.1948065,-0.105961,-52.37035,1.578307,10.33817
57.030831814,5.566806,1.30995,2.632569,0.9772586,-0.1920486,-0.08104175,-52.73722,1.195139,10.33741
57.040829659,4.889941,2.734407,3.54713,0.9930516,-0.1253424,-0.1007081,-52.73722,1.195139,10.33741
57.050827026,1.813279,2.615702,3.851984,0.9850258,-0.1655368,-0.1212625,-52.73722,1.195139,10.33741
57.060824871,3.720809,2.734407,3.730042,1.000044,-0.212144,-0.09591216,-52.73722,1.195139,10.33741
57.070822239,6.12060500000003,2.734407,3.425189,0.9867292,-0.1772131,-0.07340486,-52.73722,1.195139,10.33741
57.080820084,3.782343,2.200235,3.730042,0.9866876,-0.1490161,-0.07197632,-53.12402,1.945954,9.492074
57.090817451,2.305545,2.31894,3.912955,0.9754142,-0.1973163,-0.06859419,-53.12402,1.945954,9.492074
57.100815296,3.597743,1.962826,3.425189,0.9617367,-0.2734066,-0.06998648,-53.12402,1.945954,9.492074
57.110813618,6.55133799999999,1.844121,2.510627,0.9705944,-0.2781349,-0.07478647,-53.12402,1.945954,9.492074
57.120810986,7.720469,1.725416,1.1083,0.9833195,-0.229342,-0.08056413,-53.12402,1.945954,9.492074
57.13080883,6.18213799999999,1.725416,0.7424754,0.9811757,-0.219298,-0.09348454,-52.38071,2.328667,9.108605
57.140806198,6.305205,2.081531,0.1937385,0.9877384,-0.2048304,-0.06669945,-52.38071,2.328667,9.108605
57.150804043,4.705341,1.725416,-0.1720861,0.9939353,-0.197375,-0.06192641,-52.38071,2.328667,9.108605
57.160801411,4.213075,1.725416,-0.3549984,0.9912269,-0.2092402,-0.07819021,-52.38071,2.328667,9.108605
57.170799255,4.705341,1.250597,-0.5379106,0.9751433,-0.209072,-0.07816222,-52.38071,2.328667,9.108605
57.180796623,5.62834,1.30995,-0.659852100000001,0.9793502,-0.199099,-0.05950766,-52.75884,2.332392,9.879828
57.190794468,5.382206,1.250597,-0.659852100000001,0.9920306,-0.1999037,-0.06862249,-52.75884,2.332392,9.879828
57.200791836,5.87447300000001,0.597721199999998,-1.025677,0.9814019,-0.230728,-0.06859603,-52.75884,2.332392,9.879828
57.210790157,8.21273500000003,-0.1145072,-1.757326,0.9824716,-0.2610756,-0.04178983,-52.75884,2.332392,9.879828
57.220787048,9.56646600000001,-1.004793,-2.428004,0.9804116,-0.2032936,-0.04227969,-52.75884,2.332392,9.879828
57.23078537,5.62834,-1.598316,-1.757326,0.9481629,-0.1465019,-0.03266658,-52.39027,2.712291,9.493579
57.240782738,3.16701,-1.776374,-0.964705900000002,0.9755639,-0.20497,-0.05567094,-52.39027,2.712291,9.493579
57.250780582,4.705341,-1.835726,-1.208589,0.9989052,-0.2026704,-0.06719804,-52.39027,2.712291,9.493579
57.26077795,3.35161,-1.479612,-1.025677,0.9849642,-0.1612952,-0.08249883,-52.39027,2.712291,9.493579
57.270775795,-0.1557842,-1.242202,-0.598881400000002,0.9868432,-0.1836728,-0.08919641,-52.39027,2.712291,9.493579
57.280773163,-1.201849,-1.18285,-0.2330568,0.9973448,-0.1980874,-0.09399676,-52.75884,2.332392,9.879828
57.290771008,1.628679,-1.479612,-0.4769399,0.9780753,-0.2102623,-0.1083173,-52.75884,2.332392,9.879828
57.300768375,5.44374,-1.95443,-1.452472,1.007032,-0.1685597,-0.07439964,-52.75884,2.332392,9.879828
57.31076622,1.997879,-2.132488,-0.659852100000001,1.013774,-0.05982031,-0.0481177,-52.75884,2.332392,9.879828
57.320764542,-7.539772,-1.004793,1.839949,0.9728433,-0.08668214,-0.0805826,-52.75884,2.332392,9.879828
57.33076191,-10.5549,-0.3519166,2.998394,0.9783576,-0.2253385,-0.1102282,-52.3782,1.958662,10.33614
57.340759754,-6.370641,-0.2925643,2.449656,1.011302,-0.215617,-0.1279955,-52.3782,1.958662,10.33614
57.350757122,-5.87837500000002,1.013188,2.815481,0.9757462,-0.1121175,-0.1049885,-52.3782,1.958662,10.33614
57.360754967,-9.44730199999998,1.369302,3.912955,0.9863731,-0.1590482,-0.1054735,-52.3782,1.958662,10.33614
57.370752335,-8.15510499999999,2.140883,4.400721,0.987889,-0.2132288,-0.08201198,-52.3782,1.958662,10.33614
57.380750179,-5.632242,2.31894,3.851984,0.9725622,-0.253392,-0.08341064,-52.76501,2.709478,9.490799
57.390747547,-2.247914,2.081531,3.120335,0.9737505,-0.2644136,-0.0690526,-52.76501,2.709478,9.490799
57.400745392,-1.324916,1.606712,2.510627,0.9706725,-0.2298058,-0.05087025,-52.76501,2.709478,9.490799
57.41074276,-4.955376,0.775778400000001,2.449656,0.9709709,-0.2195031,-0.04082333,-52.76501,2.709478,9.490799
57.420741081,-6.370641,0.06354995,2.144803,1.001607,-0.2166479,-0.06049909,-52.76501,2.709478,9.490799
57.430737972,-7.60130500000002,-1.004793,1.657037,0.9908994,-0.1653058,-0.05570788,-52.75884,2.332392,9.879828
57.440736294,-9.26270200000001,-2.251192,1.778978,0.9718569,-0.1888888,-0.04274706,-52.75884,2.332392,9.879828
57.450733662,-8.15510499999999,-2.666659,2.266744,0.9799272,-0.1775746,-0.04515693,-52.75884,2.332392,9.879828
57.460731506,-8.52430299999999,-3.378887,2.388686,0.9877504,-0.1795831,-0.06909885,-52.75884,2.332392,9.879828
57.470728874,-7.539772,-3.260183,2.144803,0.9947401,-0.2151907,-0.09877358,-53.16503,3.851003,9.868936
57.480726719,-6.73984000000002,-3.497592,2.083832,0.9815241,-0.212059,-0.0997085,-53.16503,3.851003,9.868936
57.490724564,-6.30910700000001,-2.963421,2.083832,0.9921492,-0.2069897,-0.09972832,-53.16503,3.851003,9.868936
57.500721932,-5.386109,-2.607306,1.596066,0.9735888,-0.2307166,-0.1035185,-53.16503,3.851003,9.868936
57.510720253,-3.047846,-2.251192,1.535095,0.9756836,-0.2120209,-0.08294816,-53.16503,3.851003,9.868936
57.520717144,-4.340044,-1.776374,1.291212,0.9865727,-0.2210606,-0.0853577,-52.76868,2.716561,10.3293
57.530715466,-5.263042,-1.064145,1.413154,0.9724452,-0.2213792,-0.08964018,-52.76868,2.716561,10.3293
57.540712834,-6.678307,-0.826735599999998,1.169271,0.9654126,-0.2360876,-0.08866697,-52.76868,2.716561,10.3293
57.550710678,-5.263042,-0.5299737,0.925387699999998,0.968498,-0.2448218,-0.09393443,-52.76868,2.716561,10.3293
57.560708046,-2.370981,-0.767383199999997,-0.05014454,0.980172,-0.2435666,-0.0882122,-52.76868,2.716561,10.3293
57.570705891,-1.324916,-1.123497,-0.4769399,0.9808152,-0.1997271,-0.07817451,-52.75294,1.95585,10.33336
57.580703259,-3.478579,-1.242202,-0.1720861,0.9892277,-0.1549508,-0.08872938,-52.75294,1.95585,10.33336
57.590701103,-5.139976,-1.717021,-0.1720861,0.9962168,-0.1898092,-0.08968975,-52.75294,1.95585,10.33336
57.600698471,-2.92478,-2.073135,-0.05014454,0.9841305,-0.1949031,-0.08918878,-52.75294,1.95585,10.33336
57.610696316,-0.709583300000001,-2.844716,-0.3549984,0.9786173,-0.2123918,-0.07673169,-52.75294,1.95585,10.33336
57.620693684,1.321013,-3.20083,-0.2330568,0.9850194,-0.1898375,-0.06861287,-52.39394,2.719374,10.33208
57.630692005,-0.709583300000001,-3.378887,0.681504599999997,0.9678001,-0.1808571,-0.05901365,-52.39394,2.719374,10.33208
57.640689373,-1.324916,-3.43824,1.230241,0.9563646,-0.2467641,-0.06759111,-52.39394,2.719374,10.33208
57.650687218,1.874812,-3.141478,1.169271,0.9893124,-0.2377171,-0.105937,-52.39394,2.719374,10.33208
57.660685062,1.567146,-2.844716,0.681504599999997,0.9935673,-0.1788121,-0.1035667,-52.39394,2.719374,10.33208
57.67068243,-0.586516899999998,-2.726011,1.291212,0.9744836,-0.2005969,-0.1063992,-53.14342,2.713749,10.32652
57.680680275,1.813279,-2.607306,1.839949,0.975742,-0.2155924,-0.1016118,-53.14342,2.713749,10.32652
57.690677643,4.705341,-1.95443,1.718008,0.9819348,-0.2082686,-0.111196,-53.14342,2.713749,10.32652
57.700675487,6.79747099999997,-1.835726,1.90092,0.9990358,-0.1852801,-0.1318105,-53.14342,2.713749,10.32652
57.710672855,6.98206999999997,-0.886087999999999,2.022861,0.9884697,-0.1674871,-0.1294038,-53.14342,2.713749,10.32652
57.720671177,6.55133799999999,0.597721199999998,2.75451,0.9834209,-0.1841352,-0.1322622,-52.39563,2.722643,10.71908
57.730668545,5.99753899999999,2.259588,3.303247,0.9829136,-0.20888,-0.1269906,-52.39563,2.722643,10.71908
57.740666389,7.720469,3.505987,3.242276,0.9830835,-0.24386,-0.1265033,-52.39563,2.722643,10.71908
57.750663757,10.1818,4.57433,3.364218,0.981877,-0.2310959,-0.1097543,-52.39563,2.722643,10.71908
57.760661602,10.61253,4.989797,2.449656,0.979965,-0.2330774,-0.1097505,-52.39563,2.722643,10.71908
57.77065897,10.1818,5.464615,2.327715,0.9863421,-0.2089955,-0.09397477,-53.19059,4.995884,10.31435
57.780656815,6.55133799999999,5.88008199999999,2.449656,0.9850743,-0.1935187,-0.09924088,-53.19059,4.995884,10.31435
57.790654182,4.951474,6.05813900000001,1.96189,1.005699,-0.227442,-0.08060363,-53.19059,4.995884,10.31435
57.800652027,6.12060500000003,5.998787,1.291212,0.9982755,-0.2212188,-0.07484938,-53.19059,4.995884,10.31435
57.810649395,4.520741,6.117492,0.620533899999998,0.9828089,-0.2021262,-0.07913452,-53.19059,4.995884,10.31435
57.820647716,1.44408,5.523968,-0.1111153,0.9887937,-0.234859,-0.05807918,-53.14145,2.709935,9.87502
57.830645561,0.705681,5.76137699999998,-0.598881400000002,0.9768054,-0.2453708,-0.06571279,-53.14145,2.709935,9.87502
57.840642929,1.197947,5.108501,-1.940238,0.9584221,-0.2525679,-0.06902893,-53.14145,2.709935,9.87502
57.850640774,0.644147799999998,4.871092,-2.549946,0.9748741,-0.2199996,-0.05040153,-53.14145,2.709935,9.87502
57.860638142,-1.447982,3.921454,-3.220624,0.9779522,-0.2281867,-0.04896906,-53.14145,2.709935,9.87502
57.870635986,-1.817181,3.268578,-3.952273,0.9783959,-0.2256824,-0.04179183,-52.04081,3.85944,9.877277
57.880633354,-3.909311,2.259588,-4.440039,0.9501875,-0.2287221,-0.04748479,-52.04081,3.85944,9.877277
57.890631199,-2.863246,0.894483100000001,-5.3546,0.985213,-0.2769083,-0.02551894,-52.04081,3.85944,9.877277
57.900628567,-0.4019172,-0.1145072,-6.26916200000001,0.9677776,-0.2569486,-0.03697952,-52.04081,3.85944,9.877277
57.910626411,-0.6480501,-1.123497,-6.93983999999998,0.9528477,-0.2145114,-0.04031445,-52.04081,3.85944,9.877277
57.920623779,-2.986313,-2.607306,-7.54954800000001,0.983149,-0.2192493,-0.0394089,-52.39027,2.712291,9.493579
57.930622101,-4.032378,-3.082125,-7.366636,0.9762095,-0.213113,-0.04418414,-52.39027,2.712291,9.493579
57.940619469,-5.324575,-3.20083,-7.18372300000002,0.9808815,-0.1774076,-0.08200898,-52.39027,2.712291,9.493579
57.950617313,-6.001441,-3.141478,-7.54954800000001,0.9920762,-0.2031036,-0.0997292,-52.39027,2.712291,9.493579
57.960614681,-3.601645,-2.904068,-7.976343,0.9942052,-0.2128374,-0.1059519,-52.39027,2.712291,9.493579
57.970612526,-2.494047,-2.42925,-7.976343,0.9786112,-0.1869397,-0.10976,-52.40179,3.09973,10.33006
57.980610371,-3.355512,-2.132488,-8.28119799999998,0.9933743,-0.1943003,-0.0963837,-52.40179,3.09973,10.33006
57.990607738,-3.417045,-1.479612,-8.15925599999997,0.9955392,-0.2059947,-0.1045202,-52.40179,3.09973,10.33006
58.000605583,-3.724712,-0.708030899999999,-7.54954800000001,0.9772273,-0.165069,-0.1064132,-52.40179,3.09973,10.33006
58.010602951,-6.49370699999998,0.004197581,-6.87886999999998,0.9729782,-0.1460916,-0.09444625,-52.40179,3.09973,10.33006
58.020601273,-7.78590499999999,0.06354995,-6.81789900000001,1.000569,-0.1884102,-0.1054907,-52.75884,2.332392,9.879828
58.03059864,-5.93990799999998,0.1822547,-6.39110400000002,0.9824383,-0.1828757,-0.09876046,-52.75884,2.332392,9.879828
58.040596485,-4.278511,-0.05515479,-6.02527899999998,0.9849735,-0.1617722,-0.08154157,-52.75884,2.332392,9.879828
58.050593853,-3.601645,-0.2332119,-5.29363,0.9885368,-0.1179539,-0.08012334,-52.75884,2.332392,9.879828
58.060591698,-4.770776,-0.5299737,-4.561981,0.9898707,-0.1367608,-0.06719926,-52.76081,2.336205,10.33133
58.070589066,-5.324575,-0.767383199999997,-3.586449,0.9863546,-0.1573144,-0.07532363,-52.76081,2.336205,10.33133
58.08058691,-6.61677399999998,-1.18285,-2.793829,0.980335,-0.1482311,-0.07866551,-52.76081,2.336205,10.33133
58.090584278,-6.80137299999998,-1.598316,-2.488975,0.9844816,-0.1875807,-0.08631983,-52.76081,2.336205,10.33133
58.100582123,-4.032378,-1.360907,-1.696355,0.9855577,-0.1672113,-0.09302701,-52.76081,2.336205,10.33133
58.110579491,-2.063314,-1.420259,-1.574414,0.9814105,-0.1543,-0.1069018,-52.75294,1.95585,10.33336
58.120577812,-1.017249,-0.767383199999997,-0.5379106,0.9923422,-0.1394444,-0.1002246,-52.75294,1.95585,10.33336
58.130575657,-4.093911,1.013188,0.986358399999998,0.9995846,-0.08462676,-0.1260945,-52.75294,1.95585,10.33336
58.140573025,-7.60130500000002,2.259588,1.839949,1.00895,-0.1422995,-0.129446,-52.75294,1.95585,10.33336
58.150570869,-3.909311,3.446635,2.998394,0.9937118,-0.1609873,-0.1208002,-52.75294,1.95585,10.33336
58.160568237,-2.247914,3.862102,3.120335,1.003297,-0.1261821,-0.1083829,-52.75098,1.952036,9.881857
58.170566082,-1.263382,3.921454,3.54713,1.006341,-0.1580099,-0.08827985,-52.75098,1.952036,9.881857
58.18056345,-1.817181,3.980806,4.217809,0.9786906,-0.1642076,-0.06860843,-52.75098,1.952036,9.881857
58.190561295,-0.894183000000003,3.32793,4.644604,0.9870015,-0.1918298,-0.07818732,-52.75098,1.952036,9.881857
58.200558662,1.628679,3.446635,4.949458,0.9795789,-0.1599394,-0.08201121,-52.75098,1.952036,9.881857
58.210556984,1.07488,3.209226,5.86401899999998,0.971504,-0.09369163,-0.1002001,-52.74312,1.571681,9.883884
58.220553875,-0.2173175,3.505987,6.71760999999998,1.012263,-0.1111338,-0.1294598,-52.74312,1.571681,9.883884
58.230552197,0.2134152,3.921454,7.51023000000002,1.008402,-0.1388122,-0.1189173,-52.74312,1.571681,9.883884
58.240549564,0.951813900000003,4.396273,7.63217200000002,0.9870572,-0.1434275,-0.09925724,-52.74312,1.571681,9.883884
58.250547409,1.628679,4.811739,7.63217200000002,0.9690404,-0.1956521,-0.08533368,-52.74312,1.571681,9.883884
58.260544777,3.228544,4.57433,6.96149300000002,0.9797826,-0.2746483,-0.08533207,-53.15548,3.467378,9.483962
58.270542622,6.24367199999998,4.396273,5.376253,0.9779164,-0.3046995,-0.0728781,-53.15548,3.467378,9.483962
58.28053999,6.12060500000003,4.040159,4.217809,0.9760605,-0.2831398,-0.04943018,-53.15548,3.467378,9.483962
58.290537834,4.582274,3.743397,3.425189,0.9770302,-0.2568447,-0.04561004,-53.15548,3.467378,9.483962
58.300536156,5.93600600000003,2.793759,2.815481,0.965242,-0.2516489,-0.03649788,-53.15548,3.467378,9.483962
58.310533047,10.9202,1.547359,1.90092,0.9768248,-0.271177,-0.01832715,-53.50833,2.326767,9.874268
58.320531368,17.25812,0.4196641,1.230241,0.9787986,-0.2213711,-0.04945086,-53.50833,2.326767,9.874268
58.330528736,18.55032,-0.589326100000003,0.925387699999998,0.9527254,-0.1818987,-0.03410114,-53.50833,2.326767,9.874268
58.340526581,17.56579,-0.708030899999999,1.352183,0.9861255,-0.2221324,-0.0422848,-53.50833,2.326767,9.874268
58.350523949,16.82739,-0.4706214,1.596066,0.9723709,-0.1911207,-0.07529055,-53.50833,2.326767,9.874268
58.360521793,10.79713,-0.3519166,1.535095,0.9775038,-0.1531421,-0.07818073,-53.1302,2.323042,9.103045
58.370519161,6.12060500000003,-0.3519166,1.90092,1.022407,-0.1828254,-0.07346562,-53.1302,2.323042,9.103045
58.380517006,3.413143,0.06354995,1.839949,0.9949542,-0.1998153,-0.06527758,-53.1302,2.323042,9.103045
58.390514374,3.35161,-0.3519166,1.535095,0.9670914,-0.221349,-0.07479499,-53.1302,2.323042,9.103045
58.400512219,4.889941,-0.826735599999998,0.5595631,0.9961729,-0.2129686,-0.07149781,-53.1302,2.323042,9.103045
58.410509586,1.997879,-0.589326100000003,1.047329,0.9775587,-0.129636,-0.05856527,-52.3841,2.335204,9.882609
58.420507908,-4.278511,-0.2925643,1.96189,0.9830179,-0.1869131,-0.0633458,-52.3841,2.335204,9.882609
58.430504799,-1.509515,-0.589326100000003,2.022861,0.9890585,-0.2497083,-0.08822611,-52.3841,2.335204,9.882609
58.440503121,3.905409,-0.2925643,1.047329,0.9824091,-0.2327615,-0.08056166,-52.3841,2.335204,9.882609
58.450500965,7.22820399999999,-1.004793,0.2547093,1.011673,-0.208438,-0.08779759,-52.3841,2.335204,9.882609
58.460498333,5.505273,-0.767383199999997,0.925387699999998,0.9569932,-0.1241321,-0.04991646,-52.77457,3.093103,9.875772
58.470496178,-0.6480501,-0.648678499999998,2.632569,0.9739073,-0.1428549,-0.06142696,-52.77457,3.093103,9.875772
58.480493546,0.2749484,-0.3519166,2.937423,1.007024,-0.2208846,-0.1102793,-52.77457,3.093103,9.875772
58.49049139,3.966942,-0.1145072,1.839949,0.9773311,-0.2223642,-0.1016128,-52.77457,3.093103,9.875772
58.500488758,2.244012,1.07254,2.022861,0.9887171,-0.2046707,-0.05138676,-52.77457,3.093103,9.875772
58.51048708,-2.432514,2.081531,2.632569,0.9978071,-0.1965415,-0.08538359,-52.76671,2.712748,9.877801
58.520483971,-6.18604100000003,2.675054,2.937423,0.9508759,-0.2401527,-0.07667618,-52.76671,2.712748,9.877801
58.530482292,-5.201509,2.55635,2.449656,0.9994339,-0.256503,-0.05665643,-52.76671,2.712748,9.877801
58.54047966,-4.709243,1.606712,2.266744,1.006281,-0.1280484,-0.05335141,-52.76671,2.712748,9.877801
58.550477505,-6.98597300000001,0.716426,2.998394,0.9586023,-0.1574592,-0.03124622,-52.76671,2.712748,9.877801
58.560474873,-2.370981,-0.708030899999999,3.242276,0.9691104,-0.2501454,-0.03985504,-52.77118,3.086566,9.101768
58.570472717,3.290077,-2.19184,3.120335,0.9585963,-0.2345792,-0.01543334,-52.77118,3.086566,9.101768
58.580470562,2.490145,-2.488602,2.998394,0.9729249,-0.22006,-0.05279099,-52.77118,3.086566,9.101768
58.59046793,0.5210813,-2.666659,2.632569,0.9789144,-0.2798353,-0.06618617,-52.77118,3.086566,9.101768
58.600466252,0.2134152,-2.251192,2.083832,0.9899964,-0.2477416,-0.08774967,-52.77118,3.086566,9.101768
58.610463143,-4.46311,-1.657669,1.047329,0.9955488,-0.180051,-0.08394817,-52.77287,3.089834,9.48877
58.620461464,-8.27817099999997,-1.242202,0.4985923,0.9893643,-0.2399483,-0.08440054,-52.77287,3.089834,9.48877
58.630458832,-7.60130500000002,-1.004793,0.2547093,0.9750068,-0.2530586,-0.05230755,-52.77287,3.089834,9.48877
58.640456676,-9.324236,0.2416071,0.1327677,0.9918669,-0.1911425,-0.06671017,-52.77287,3.089834,9.48877
58.650454044,-14.43149,-0.2925643,-0.05014454,0.9891194,-0.1747317,-0.0729311,-53.18862,4.99207,9.862852
58.660451889,-13.26236,-0.708030899999999,0.2547093,0.9836559,-0.220934,-0.06525245,-53.18862,4.99207,9.862852
58.670449257,-8.52430299999999,-1.18285,0.1327677,0.9983272,-0.1457565,-0.05955448,-53.18862,4.99207,9.862852
58.680447102,-7.78590499999999,-2.42925,0.1327677,0.9888831,-0.136426,-0.0815549,-53.18862,4.99207,9.862852
58.690444469,-6.98597300000001,-3.141478,0.7424754,0.9630432,-0.1874086,-0.0743181,-53.18862,4.99207,9.862852
58.700442314,-6.001441,-2.726011,1.535095,0.9805482,-0.1857146,-0.08631345,-52.41752,3.860441,10.326
58.710439682,-10.12417,-1.95443,1.96189,1.002915,-0.1321481,-0.1222594,-52.41752,3.860441,10.326
58.720438003,-14.24689,-0.648678499999998,3.48616,0.9530361,-0.2263554,-0.1135339,-52.41752,3.860441,10.326
58.730435848,-12.27783,0.5383689,4.217809,0.9447642,-0.3047116,-0.1087135,-52.41752,3.860441,10.326
58.740433216,-8.58583600000001,1.903473,3.730042,0.9789745,-0.2577089,-0.09107792,-52.41752,3.860441,10.326
58.750431061,-9.20116899999999,2.496997,3.303247,0.9925066,-0.1994698,-0.0753235,-52.40179,3.09973,10.33006
58.760428429,-9.75496900000002,1.962826,3.973926,0.9720716,-0.226324,-0.04513068,-52.40179,3.09973,10.33006
58.770426273,-6.370641,1.013188,4.400721,0.9802101,-0.217503,-0.001596715,-52.40179,3.09973,10.33006
58.780423641,-3.909311,-0.2332119,4.583633,0.9907229,-0.2074634,-0.04229659,-52.40179,3.09973,10.33006
58.790421486,-3.540112,-1.657669,4.034896,0.9669167,-0.1857471,-0.06044657,-52.40179,3.09973,10.33006
58.800418854,-3.601645,-2.547954,4.33975,0.9832351,-0.2506856,-0.07625131,-53.13189,2.32631,9.490046
58.810417175,-1.940248,-2.607306,3.973926,1.022181,-0.1970363,-0.08590453,-53.13189,2.32631,9.490046
58.820414543,-7.04750599999997,-2.844716,4.33975,0.9855162,-0.13901,-0.09111989,-53.13189,2.32631,9.490046
58.830412388,-8.955036,-3.20083,5.13237,0.9543313,-0.2425141,-0.0766816,-53.13189,2.32631,9.490046
58.840409756,-2.063314,-3.43824,4.33975,0.9538606,-0.2956094,-0.08958866,-53.13189,2.32631,9.490046
58.8504076,1.07488,-3.735002,2.815481,0.9838822,-0.2339061,-0.1025784,-52.77654,3.096917,10.32727
58.860405445,-4.524643,-2.963421,3.120335,0.9910766,-0.1759588,-0.1049988,-52.77654,3.096917,10.32727
58.870402813,-9.878035,-2.251192,3.912955,0.9701842,-0.2313927,-0.1169125,-52.77654,3.096917,10.32727
58.880400658,-8.27817099999997,-0.9454404,3.48616,0.9829685,-0.237431,-0.1140618,-52.77654,3.096917,10.32727
58.890398025,-4.401577,-0.826735599999998,1.96189,0.982697,-0.2748495,-0.1135731,-52.77654,3.096917,10.32727
58.900396347,-0.4019172,-0.5299737,1.230241,0.9688644,-0.264204,-0.08866575,-52.39983,3.095916,9.878553
58.910393715,-0.03271778,-0.1738595,0.3766508,0.9957529,-0.2170487,-0.09159622,-52.39983,3.095916,9.878553
58.92039156,-5.75530800000001,0.775778400000001,0.925387699999998,0.9693794,-0.1622908,-0.1044859,-52.39983,3.095916,9.878553
58.930388927,-6.92443900000002,0.894483100000001,0.803446099999999,0.9751878,-0.290005,-0.1073346,-52.39983,3.095916,9.878553
58.940386772,0.3364816,0.775778400000001,-1.147618,0.9757831,-0.3215137,-0.1001489,-52.39983,3.095916,9.878553
58.95038414,3.413143,0.3009594,-2.91577,0.984409,-0.2357386,-0.09157163,-52.77457,3.093103,9.875772
58.960381985,-2.432514,1.369302,-2.367033,0.9757061,-0.1608036,-0.06190405,-52.77457,3.093103,9.875772
58.970379353,-7.04750599999997,1.131893,-1.391501,0.9773932,-0.2771077,-0.08341296,-52.77457,3.093103,9.875772
58.980377197,-1.324916,0.894483100000001,-2.549946,0.968277,-0.2845111,-0.07621652,-52.77457,3.093103,9.875772
58.990374565,2.428612,-0.2925643,-4.196156,0.9577755,-0.2436845,-0.0527585,-52.77457,3.093103,9.875772
59.000372887,4.520741,-1.776374,-4.805864,0.9797671,-0.2728179,-0.04465354,-53.15128,3.094105,10.32449
59.010370731,5.689873,-2.963421,-5.3546,0.9682828,-0.2579192,-0.03793729,-53.15128,3.094105,10.32449
59.020368099,5.566806,-2.963421,-5.537513,0.9736564,-0.1819413,-0.08390953,-53.15128,3.094105,10.32449
59.030365944,3.966942,-3.141478,-5.90333699999997,0.9941758,-0.2114459,-0.1131308,-53.15128,3.094105,10.32449
59.040363312,5.81293900000002,-3.082125,-6.513045,0.9935673,-0.2565145,-0.09828231,-53.15128,3.094105,10.32449
59.050361156,7.41280299999999,-2.488602,-7.61051899999998,0.97993,-0.2310861,-0.1044866,-52.02705,3.102542,10.33284
59.060358524,4.090009,-1.360907,-7.79343099999999,0.9884976,-0.1945721,-0.1155182,-52.02705,3.102542,10.33284
59.070356369,-0.894183000000003,0.1229023,-7.67149000000001,0.9929699,-0.2250761,-0.1131252,-52.02705,3.102542,10.33284
59.080353737,-1.755648,1.07254,-7.85440200000002,0.9786466,-0.240975,-0.1202748,-52.02705,3.102542,10.33284
59.090351582,0.02881546,1.844121,-8.46410900000001,0.9853153,-0.206801,-0.1174238,-52.02705,3.102542,10.33284
59.100348949,-0.4634504,2.912464,-8.28119799999998,0.9809406,-0.1553119,-0.1102508,-52.78609,3.480542,10.71225
59.110347271,-1.817181,3.209226,-8.03731400000003,0.9978961,-0.2014694,-0.0930397,-52.78609,3.480542,10.71225
59.120344639,-0.6480501,3.980806,-7.67149000000001,0.9903309,-0.2137498,-0.09110904,-52.78609,3.480542,10.71225
59.130342484,-2.247914,4.455625,-7.42760699999997,0.9692317,-0.1802166,-0.09825954,-52.78609,3.480542,10.71225
59.140340328,-2.678647,3.684045,-7.79343099999999,0.9703369,-0.2389542,-0.09393916,-52.78609,3.480542,10.71225
59.150337696,2.490145,3.031168,-8.15925599999997,0.9682241,-0.2551275,-0.05133804,-52.76868,2.716561,10.3293
59.160335541,6.612871,2.081531,-8.829934,0.9634863,-0.2105628,-0.0566056,-52.76868,2.716561,10.3293
59.170332909,7.10513699999998,1.131893,-9.19575899999999,0.9676283,-0.1979956,-0.07288764,-52.76868,2.716561,10.3293
59.180330753,5.87447300000001,0.775778400000001,-8.890904,0.9853139,-0.2053028,-0.05999503,-52.76868,2.716561,10.3293
59.190328121,4.766874,0.716426,-8.829934,0.9898691,-0.1888707,-0.07962882,-52.76868,2.716561,10.3293
59.200326443,3.105477,0.953835399999999,-8.829934,0.9880007,-0.1677016,-0.09877406,-52.75294,1.95585,10.33336
59.210323811,2.797811,0.953835399999999,-8.829934,0.9962686,-0.192816,-0.09973916,-52.75294,1.95585,10.33336
59.220321655,3.659276,1.30995,-8.76896300000003,0.9965189,-0.1801634,-0.09830712,-52.75294,1.95585,10.33336
59.230319023,2.490145,2.259588,-8.15925599999997,0.9713787,-0.1388735,-0.09875251,-52.75294,1.95585,10.33336
59.240316868,0.8287475,1.666064,-7.73246000000002,0.9821302,-0.1662896,-0.09110697,-53.14511,2.717018,10.71352
59.250314236,1.567146,1.369302,-7.06178199999999,0.988692,-0.1774979,-0.0557009,-53.14511,2.717018,10.71352
59.26031208,2.859344,0.894483100000001,-5.964308,0.9728593,-0.1390144,-0.06429757,-53.14511,2.717018,10.71352
59.270309925,4.705341,0.1822547,-5.720425,0.9795429,-0.1579788,-0.08009735,-53.14511,2.717018,10.71352
59.280307293,6.79747099999997,-0.648678499999998,-5.171688,0.991488,-0.1713755,-0.08298618,-53.14511,2.717018,10.71352
59.290305615,7.78200200000001,-1.18285,-4.622952,0.9683992,-0.1609567,-0.06284843,-52.74142,1.568412,9.496882
59.300302982,7.41280299999999,-1.301555,-4.074214,0.9747009,-0.1594753,-0.07386704,-52.74142,1.568412,9.496882
59.310300827,6.612871,-1.598316,-3.220624,0.9900846,-0.1742224,-0.07245433,-52.74142,1.568412,9.496882
59.320298195,5.136074,-1.242202,-2.245092,0.9839452,-0.1588593,-0.07962622,-52.74142,1.568412,9.496882
59.33029604,2.859344,-0.5299737,-1.208589,0.9934908,-0.1229786,-0.1088452,-52.74142,1.568412,9.496882
59.340293408,0.1518819,0.06354995,0.01082622,1.006366,-0.1082293,-0.1179644,-52.74509,1.575495,10.33539
59.350291252,1.997879,0.4790165,1.1083,1.006519,-0.1165619,-0.1260983,-52.74509,1.575495,10.33539
59.36028862,6.92053700000001,0.2416071,2.083832,0.9950746,-0.1034965,-0.1074173,-52.74509,1.575495,10.33539
59.370286465,11.2894,0.1822547,2.632569,1.00556,-0.09047065,-0.08733872,-52.74509,1.575495,10.33539
59.380283833,12.39699,0.3009594,3.54713,1.019898,-0.1269303,-0.06677557,-52.74509,1.575495,10.33539
59.390282154,13.25846,0.716426,4.644604,0.9857795,-0.1531365,-0.0954239,-52.74509,1.575495,10.33539
59.400279999,10.67406,1.191245,5.010429,0.987511,-0.1413739,-0.08825131,-52.74509,1.575495,10.33539
59.410277367,7.59740300000001,1.962826,5.80304899999998,0.9896317,-0.2026615,-0.09924647,-52.74509,1.575495,10.33539
59.420275211,8.028135,3.090521,5.254312,0.9891496,-0.2289251,-0.1006746,-52.74509,1.575495,10.33539
59.430272579,7.96660199999998,3.921454,5.010429,0.9798416,-0.2004954,-0.1068872,-52.74509,1.575495,10.33539
59.440270424,4.213075,4.930444,5.010429,0.9830763,-0.1648394,-0.09398045,-53.12572,1.949224,9.879076
59.450267792,1.07488,5.523968,5.376253,1.003285,-0.2027242,-0.0825201,-53.12572,1.949224,9.879076
59.460265637,-0.4019172,5.405263,5.315282,0.9790463,-0.2088019,-0.05711175,-53.12572,1.949224,9.879076
59.470263004,-0.894183000000003,5.108501,4.827517,0.9655129,-0.214248,-0.03890087,-53.12572,1.949224,9.879076
59.480261326,-1.324916,4.218216,4.156838,0.9757144,-0.2126018,-0.0403548,-53.12572,1.949224,9.879076
59.490258217,-2.309447,3.268578,3.364218,0.9944053,-0.222004,-0.04612787,-53.13189,2.32631,9.490046
59.500256539,-1.817181,2.259588,3.120335,0.9756189,-0.2078758,-0.05471313,-53.13189,2.32631,9.490046
59.510254383,-0.4634504,1.428654,2.266744,0.9588296,-0.248103,-0.05993784,-53.13189,2.32631,9.490046
59.520251751,4.705341,0.657073599999999,0.681504599999997,0.9834313,-0.287158,-0.07959229,-53.13189,2.32631,9.490046
59.530249596,8.52040099999998,0.4196641,-0.4159691,0.9677258,-0.229072,-0.07048693,-53.13189,2.32631,9.490046
59.540246964,6.73593800000001,0.3603118,-1.391501,0.9718504,-0.2147359,-0.05279049,-53.15548,3.467378,9.483962
59.550244808,3.53621,0.06354995,-1.696355,0.981717,-0.2470903,-0.05184221,-53.15548,3.467378,9.483962
59.560242176,2.120945,0.004197581,-2.428004,0.9850041,-0.214419,-0.04659202,-53.15548,3.467378,9.483962
59.570240498,0.1518819,-0.5299737,-3.098683,0.9724135,-0.2185158,-0.04226183,-53.15548,3.467378,9.483962
59.580237389,1.567146,-1.598316,-3.525478,0.9924964,-0.2238889,-0.03559539,-53.15548,3.467378,9.483962
59.59023571,2.428612,-2.369897,-3.342566,0.990557,-0.1467152,-0.04135479,-52.75546,2.325854,9.105824
59.600233078,0.3364816,-2.785364,-2.732858,0.9817002,-0.1427272,-0.06431203,-52.75546,2.325854,9.105824
59.610230923,1.07488,-3.497592,-2.549946,0.9983366,-0.1726454,-0.07725488,-52.75546,2.325854,9.105824
59.62022829,1.25948,-3.794354,-2.001209,0.9830562,-0.1375086,-0.0810659,-52.75546,2.325854,9.105824
59.630226135,-0.894183000000003,-3.141478,-0.903735200000002,0.9781953,-0.1644762,-0.09684348,-52.75546,2.325854,9.105824
59.64022398,-0.4019172,-2.310545,-0.7817937,1.003898,-0.2103434,-0.1198481,-52.74928,1.948767,9.494855
59.650221348,-1.263382,-1.420259,-0.4159691,0.9884706,-0.1410445,-0.1073961,-52.74928,1.948767,9.494855
59.660219669,-5.693775,-0.589326100000003,0.5595631,0.9711524,-0.178734,-0.099699,-52.74928,1.948767,9.494855
59.67021656,-5.632242,0.4790165,0.986358399999998,0.9965004,-0.2048415,-0.08681491,-52.74928,1.948767,9.494855
59.680214882,-6.12450699999998,1.30995,0.925387699999998,0.9973469,-0.1980216,-0.08681814,-52.74928,1.948767,9.494855
59.69021225,-6.49370699999998,1.547359,0.925387699999998,1.003529,-0.2159056,-0.08969577,-52.76501,2.709478,9.490799
59.700210094,-6.370641,1.30995,1.230241,1.0008,-0.1220018,-0.07105072,-52.76501,2.709478,9.490799
59.710207462,-12.27783,0.894483100000001,2.69354,0.9900982,-0.07044896,-0.04328793,-52.76501,2.709478,9.490799
59.720205307,-13.5085,-0.1738595,3.851984,0.995679,-0.1347198,-0.06912422,-52.76501,2.709478,9.490799
59.730202675,-11.41637,-0.886087999999999,4.827517,0.9701073,-0.1476139,-0.04227606,-52.76501,2.709478,9.490799
59.74020052,-10.30877,-1.598316,5.193341,0.9832877,-0.1751925,-0.05760637,-52.75884,2.332392,9.879828
59.750198841,-11.6625,-1.538964,5.92499000000001,0.9733245,-0.1902045,-0.08342824,-52.75884,2.332392,9.879828
59.760195732,-13.6931,-1.242202,6.59566799999998,0.9659292,-0.2118285,-0.09393845,-52.75884,2.332392,9.879828
59.770194054,-14.18536,0.004197581,6.65663900000001,0.9691981,-0.2566548,-0.1140328,-52.75884,2.332392,9.879828
59.780191421,-9.57036899999999,0.4196641,6.22984400000002,0.9706253,-0.2810246,-0.1250363,-52.75884,2.332392,9.879828
59.790189266,-4.83231,0.894483100000001,4.705575,0.9886641,-0.2545317,-0.08343842,-53.12402,1.945954,9.492074
59.800186634,-3.970845,1.250597,4.217809,0.9888601,-0.1868898,-0.07340609,-53.12402,1.945954,9.492074
59.810184479,-7.60130500000002,0.716426,4.522663,0.9761544,-0.1845664,-0.05759152,-53.12402,1.945954,9.492074
59.820181847,-7.78590499999999,0.004197581,4.583633,0.9841747,-0.2222499,-0.05089574,-53.12402,1.945954,9.492074
59.830179691,-5.386109,-1.717021,3.730042,0.9784794,-0.2043651,-0.04897611,-52.76081,2.336205,10.33133
59.840177059,-3.355512,-3.319535,2.998394,0.992588,-0.2030925,-0.04660815,-52.76081,2.336205,10.33133
59.850174904,-4.278511,-4.387877,2.998394,0.9900191,-0.1957445,-0.03464117,-52.76081,2.336205,10.33133
59.860172272,-6.92443900000002,-5.337515,2.75451,0.9896439,-0.2022797,-0.05761048,-52.76081,2.336205,10.33133
59.870170593,-10.43183,-5.515573,2.388686,0.9852548,-0.2025243,-0.0748315,-52.76081,2.336205,10.33133
59.880168438,-12.4009,-5.218811,2.266744,0.9734063,-0.2466467,-0.09154964,-53.5162,2.707123,9.872239
59.890165806,-10.5549,-5.040754,1.657037,0.9740801,-0.2569917,-0.1082983,-53.5162,2.707123,9.872239
59.90016365,-7.84743800000001,-4.862697,0.4376215,0.9724917,-0.2501979,-0.1059044,-53.5162,2.707123,9.872239
59.910161018,-7.04750599999997,-3.853706,0.1327677,0.9810281,-0.2372193,-0.0867796,-53.5162,2.707123,9.872239
59.920158863,-9.324236,-2.547954,0.3766508,0.9783647,-0.2251147,-0.08582092,-53.5162,2.707123,9.872239
59.930156231,-10.06263,-1.657669,0.4376215,0.9643977,-0.2342954,-0.1030229,-52.02089,2.725455,10.72187
59.940154076,-7.724371,-1.301555,-0.5379106,0.9739677,-0.2512547,-0.1183497,-52.02089,2.725455,10.72187
59.950151443,-3.909311,-0.767383199999997,-1.208589,0.9988126,-0.1986277,-0.1030921,-52.02089,2.725455,10.72187
59.960149765,-5.01691,-0.826735599999998,-1.574414,0.9826845,-0.1695793,-0.08009984,-52.02089,2.725455,10.72187
59.970146656,-5.078443,-1.538964,-1.330531,0.9637256,-0.2238978,-0.08053137,-52.02089,2.725455,10.72187
59.980144978,-3.109379,-2.19184,-1.757326,0.9738778,-0.2191658,-0.06332156,-52.3782,1.958662,10.33614
59.990142345,-4.709243,-2.844716,-1.940238,0.9620225,-0.2363115,-0.0527678,-52.3782,1.958662,10.33614
60.00014019,-3.417045,-3.141478,-2.06218,0.9835905,-0.2439982,-0.08965378,-52.3782,1.958662,10.33614
60.010138035,-2.001781,-2.904068,-2.06218,0.9853013,-0.1536407,-0.09638009,-52.3782,1.958662,10.33614
60.020135403,-3.970845,-3.20083,-1.574414,0.9757656,-0.165111,-0.1078463,-52.3782,1.958662,10.33614
60.030133247,-1.694115,-2.963421,-1.330531,0.9980453,-0.2099116,-0.113138,-53.13555,2.333393,10.32855
60.040130615,1.25948,-1.895078,-1.208589,0.9962553,-0.1668167,-0.1260675,-53.13555,2.333393,10.32855
60.050128937,1.013347,-1.123497,-1.025677,0.9742964,-0.1910309,-0.122673,-53.13555,2.333393,10.32855
60.060125828,1.874812,-0.05515479,-0.5379106,1.004871,-0.2103461,-0.1222427,-53.13555,2.333393,10.32855
60.070124149,1.07488,1.428654,0.2547093,0.9896634,-0.1534677,-0.1399382,-53.13555,2.333393,10.32855
60.080121517,-0.3403839,2.912464,0.864416900000002,0.9722032,-0.209674,-0.1375004,-52.75464,1.959119,10.72036
60.090119362,4.213075,3.684045,0.681504599999997,0.9965348,-0.2083925,-0.1562076,-52.75464,1.959119,10.72036
60.10011673,5.44374,5.227206,0.803446099999999,0.9736291,-0.1556099,-0.1269881,-52.75464,1.959119,10.72036
60.110114574,5.44374,6.29554899999997,1.1083,0.9845583,-0.2185356,-0.1236409,-52.75464,1.959119,10.72036
60.120112419,8.397335,6.41425300000001,0.803446099999999,1.003038,-0.2160294,-0.1021379,-52.75464,1.959119,10.72036
60.130109787,6.12060500000003,7.06713000000001,1.352183,0.9712098,-0.1295036,-0.08344018,-52.75294,1.95585,10.33336
60.140108109,0.951813900000003,6.41425300000001,1.778978,0.9896273,-0.2020266,-0.08297504,-52.75294,1.95585,10.33336
60.150105,2.859344,5.702025,1.718008,0.9924058,-0.2197848,-0.06478942,-52.75294,1.95585,10.33336
60.160103321,3.413143,5.58332,1.596066,0.9611422,-0.1898189,-0.06809267,-52.75294,1.95585,10.33336
60.170100689,3.53621,4.455625,0.803446099999999,0.9952551,-0.2422661,-0.08488879,-52.75294,1.95585,10.33336
60.180098534,6.67440499999999,3.980806,0.7424754,0.9912342,-0.209012,-0.05330433,-52.75098,1.952036,9.881857
60.190095902,6.24367199999998,3.921454,0.5595631,0.977646,-0.1866737,-0.07865093,-52.75098,1.952036,9.881857
60.200093746,7.41280299999999,3.505987,0.2547093,0.9978316,-0.2237318,-0.08298375,-52.75098,1.952036,9.881857
60.210091114,10.3664,3.031168,0.01082622,0.9687854,-0.2076784,-0.07145143,-52.75098,1.952036,9.881857
60.220088959,11.72013,2.378292,-1.086647,0.9762193,-0.2399931,-0.06092739,-52.75098,1.952036,9.881857
60.23008728,13.50459,1.488007,-1.757326,0.9823583,-0.255365,-0.05471265,-52.77457,3.093103,9.875772
60.240084171,12.82773,0.4790165,-2.671887,0.964365,-0.2306918,-0.02788738,-52.77457,3.093103,9.875772
60.250082493,11.72013,-0.767383199999997,-3.281595,0.9727521,-0.2621035,-0.02693676,-52.77457,3.093103,9.875772
60.260079861,12.39699,-1.657669,-3.952273,0.9752932,-0.2423622,-0.05231081,-52.77457,3.093103,9.875772
60.270077705,10.67406,-2.251192,-4.196156,0.9671627,-0.1732306,-0.07385035,-52.77457,3.093103,9.875772
60.280075073,8.27426799999999,-3.022773,-4.927805,0.9976331,-0.2129749,-0.07532896,-53.14145,2.709935,9.87502
60.290072918,9.32033300000002,-3.260183,-4.988776,0.9860659,-0.2193715,-0.05903557,-53.14145,2.709935,9.87502
60.300070286,6.55133799999999,-2.844716,-5.3546,0.9837102,-0.1461593,-0.07197186,-53.14145,2.709935,9.87502
60.310068131,3.290077,-3.497592,-5.598484,0.9973928,-0.2260869,-0.07388944,-53.14145,2.709935,9.87502
60.320065498,5.074541,-3.20083,-6.26916200000001,0.9773388,-0.247768,-0.06332023,-53.14145,2.709935,9.87502
60.330063343,5.320673,-3.260183,-6.695957,0.9729631,-0.1963096,-0.05949724,-53.12572,1.949224,9.879076
60.340061665,1.44408,-3.319535,-7.30566500000003,0.9795989,-0.1864947,-0.06333994,-53.12572,1.949224,9.879076
60.350059033,0.02881546,-3.616297,-7.42760699999997,0.9784316,-0.2284184,-0.07529151,-53.12572,1.949224,9.879076
60.360056877,0.644147799999998,-3.556944,-7.73246000000002,0.9795176,-0.2341581,-0.06763472,-53.12572,1.949224,9.879076
60.370054245,-0.1557842,-2.369897,-8.03731400000003,0.9908093,-0.1619552,-0.1140949,-53.12572,1.949224,9.879076
60.38005209,-6.06297400000002,-0.767383199999997,-7.79343099999999,0.9865903,-0.1458894,-0.1547706,-53.16503,3.851003,9.868936
60.390049458,-7.724371,0.775778400000001,-7.18372300000002,0.9944477,-0.2012016,-0.1624273,-53.16503,3.851003,9.868936
60.400047302,-5.201509,2.615702,-7.85440200000002,0.996211,-0.2164055,-0.1284475,-53.16503,3.851003,9.868936
60.41004467,-4.586177,3.32793,-8.03731400000003,0.9828379,-0.178661,-0.1169481,-53.16503,3.851003,9.868936
60.420042515,-5.75530800000001,3.387283,-7.48857699999998,0.9847723,-0.151103,-0.08345827,-52.74312,1.571681,9.883884
60.430039883,-5.75530800000001,3.684045,-6.75692799999998,0.9665458,-0.1921462,-0.06858006,-52.74312,1.571681,9.883884
60.440038204,-2.678647,3.56534,-7.00081100000001,0.9755537,-0.2052904,-0.09060688,-52.74312,1.571681,9.883884
60.450036049,-3.847778,3.446635,-7.18372300000002,0.9898099,-0.1596802,-0.07580762,-52.74312,1.571681,9.883884
60.460033417,-7.47823899999999,4.040159,-6.26916200000001,0.9910521,-0.1479975,-0.07629137,-52.74312,1.571681,9.883884
60.470031262,-10.24723,3.505987,-5.171688,0.9757458,-0.1634167,-0.08200363,-53.11983,1.572682,10.33261
60.480028629,-9.07810300000001,3.862102,-4.318098,0.9763272,-0.1689392,-0.102582,-53.11983,1.572682,10.33261
60.490026474,-5.139976,3.743397,-4.257127,0.9750321,-0.1776503,-0.09587743,-53.11983,1.572682,10.33261
60.500023842,0.951813900000003,3.268578,-4.379068,0.99204,-0.1747355,-0.07963624,-53.11983,1.572682,10.33261
60.510021687,3.290077,2.912464,-3.586449,0.9841254,-0.1165832,-0.080116,-53.11983,1.572682,10.33261
60.520019055,2.182479,2.55635,-2.367033,0.991674,-0.1032786,-0.07630397,-52.35882,1.190868,9.501691
60.530017376,0.890280700000001,2.912464,-1.208589,0.9965228,-0.1023381,-0.09019137,-52.35882,1.190868,9.501691
60.540014267,-1.017249,2.853111,-0.05014454,0.9984245,-0.1263222,-0.1131602,-52.35882,1.190868,9.501691
60.550012589,-0.0942510000000003,3.090521,0.620533899999998,0.9991392,-0.164115,-0.102623,-52.35882,1.190868,9.501691
60.560010433,3.782343,2.793759,1.352183,0.9890237,-0.144365,-0.099739,-52.35882,1.190868,9.501691
60.570007801,5.87447300000001,2.793759,1.413154,0.9935113,-0.1231088,-0.07008058,-51.97622,0.8133249,9.5065
60.580005646,5.81293900000002,2.378292,2.022861,1.00841,-0.1378041,-0.06196698,-51.97622,0.8133249,9.5065
60.590003014,5.81293900000002,2.378292,2.998394,0.9874368,-0.1367563,-0.06145211,-51.97622,0.8133249,9.5065
60.600000858,3.905409,2.615702,4.27878,0.99111,-0.1243992,-0.04662584,-51.97622,0.8133249,9.5065
60.609998226,2.982411,3.209226,4.766546,1.01239,-0.1684626,-0.07536615,-51.97622,0.8133249,9.5065
60.619996548,4.336142,3.446635,4.766546,0.9820521,-0.1617948,-0.07770786,-52.73186,1.184788,9.111909
60.629993439,2.120945,4.040159,4.583633,0.989016,-0.1687095,-0.05187512,-52.73186,1.184788,9.111909
60.63999176,-0.1557842,4.277568,4.888487,0.993163,-0.1824006,-0.07006471,-52.73186,1.184788,9.111909
60.649989128,-3.540112,3.624692,5.010429,0.9744512,-0.1721103,-0.07338477,-52.73186,1.184788,9.111909
60.659986973,-1.878715,3.149873,5.193341,0.9769438,-0.2005474,-0.0532816,-52.73186,1.184788,9.111909
60.669984817,1.874812,2.378292,4.644604,0.9748366,-0.2180873,-0.05375199,-52.73356,1.188056,9.498911
60.679982185,6.55133799999999,1.903473,3.973926,0.9797657,-0.1951594,-0.05472364,-52.73356,1.188056,9.498911
60.68998003,5.44374,1.131893,3.303247,0.9773136,-0.1941833,-0.0489767,-52.73356,1.188056,9.498911
60.699977398,1.997879,0.8351307,3.181306,1.002493,-0.2116789,-0.05045182,-52.73356,1.188056,9.498911
60.709975719,-0.832649800000001,0.716426,3.059364,0.985374,-0.2088217,-0.07291579,-52.73356,1.188056,9.498911
60.71997261,-1.140316,0.4790165,2.632569,0.9749398,-0.2241139,-0.07528653,-52.73186,1.184788,9.111909
60.729970932,2.736278,0.4196641,1.96189,0.9715884,-0.2269817,-0.06283698,-52.73186,1.184788,9.111909
60.7399683,5.566806,0.1229023,0.7424754,0.9956705,-0.2119146,-0.06144711,-52.73186,1.184788,9.111909
60.749966145,5.81293900000002,0.004197581,-0.1111153,0.9907705,-0.2106018,-0.06670325,-52.73186,1.184788,9.111909
60.759963512,5.382206,-0.708030899999999,-0.4769399,0.9762085,-0.2131437,-0.04753416,-52.73186,1.184788,9.111909
60.769961357,4.643808,-1.123497,-0.720822899999998,0.9839818,-0.2120885,-0.0552052,-52.37624,1.954848,9.884637
60.779959202,8.15120200000001,-2.19184,-1.26956,0.9706701,-0.2298805,-0.05900602,-52.37624,1.954848,9.884637
60.78995657,11.96626,-2.42925,-1.818297,0.984404,-0.183064,-0.07052784,-52.37624,1.954848,9.884637
60.799954891,11.22786,-2.310545,-1.635384,0.9975384,-0.1041083,-0.07344253,-52.37624,1.954848,9.884637
60.809951782,10.24333,-1.95443,-0.903735200000002,0.9814761,-0.1832885,-0.08870857,-52.37624,1.954848,9.884637
60.819950104,14.48913,-1.301555,-0.903735200000002,0.9815741,-0.2407636,-0.1035298,-52.74759,1.945498,9.107853
60.829947472,18.79645,-0.9454404,-1.818297,0.9830329,-0.2408138,-0.1121467,-52.74759,1.945498,9.107853
60.839945316,19.90405,0.1229023,-2.488975,0.9777669,-0.2185636,-0.05902131,-52.74759,1.945498,9.107853
60.849942684,15.84286,0.3603118,-2.306063,0.9939484,-0.1977378,-0.04852621,-52.74759,1.945498,9.107853
60.859940529,10.79713,0.4196641,-2.549946,1.013782,-0.1644335,-0.06292664,-52.74759,1.945498,9.107853
60.869937897,5.81293900000002,1.013188,-2.428004,0.9762577,-0.1898176,-0.04754025,-52.73356,1.188056,9.498911
60.879935741,5.013007,0.5383689,-2.245092,0.9730327,-0.2259418,-0.05853258,-52.73356,1.188056,9.498911
60.889934063,8.705001,0.657073599999999,-2.488975,0.9804393,-0.231154,-0.05997987,-52.73356,1.188056,9.498911
60.899930954,9.812599,1.07254,-2.367033,0.9733558,-0.1651226,-0.05089159,-52.73356,1.188056,9.498911
60.909929275,9.13573400000002,0.3009594,-2.306063,0.9846372,-0.1694048,-0.06526743,-52.73356,1.188056,9.498911
60.919926643,9.01266799999998,0.716426,-1.574414,1.003199,-0.1200106,-0.07105541,-53.11617,1.565599,9.494102
60.929924488,7.59740300000001,0.004197581,-1.26956,1.010854,-0.1390172,-0.09355694,-53.11617,1.565599,9.494102
60.939921856,10.1818,-0.5299737,-1.208589,0.9825197,-0.186494,-0.06956653,-53.11617,1.565599,9.494102
60.949919701,12.70466,-0.886087999999999,-1.086647,0.9823353,-0.1760692,-0.04516151,-53.11617,1.565599,9.494102
60.959917068,11.6586,-1.18285,-1.086647,0.9848858,-0.1824501,-0.05760729,-53.11617,1.565599,9.494102
60.969914913,8.397335,-0.9454404,-0.8427644,0.9771969,-0.1878114,-0.04275665,-53.90158,3.455215,8.704397
60.979912281,2.490145,-0.1145072,0.01082622,0.9897021,-0.1530274,-0.0389588,-53.90158,3.455215,8.704397
60.989910126,-5.139976,1.191245,1.230241,0.9829728,-0.1588215,-0.07340305,-53.90158,3.455215,8.704397
60.999908447,-6.678307,1.725416,1.535095,0.9927452,-0.2128267,-0.1016422,-53.90158,3.455215,8.704397
61.009905815,-3.540112,2.140883,1.1083,0.9853705,-0.1832861,-0.09685115,-52.73973,1.565144,9.10988
61.01990366,-5.201509,3.149873,2.144803,0.9812064,-0.09089039,-0.0805961,-52.73973,1.565144,9.10988
61.029901028,-7.41670600000002,3.32793,2.876452,1.005841,-0.1568548,-0.06722193,-52.73973,1.565144,9.10988
61.039898872,-3.663178,2.793759,2.937423,0.9934737,-0.2245442,-0.05617569,-52.73973,1.565144,9.10988
61.04989624,-1.571049,2.022178,2.815481,0.9696141,-0.1726865,-0.01977567,-52.73973,1.565144,9.10988
61.059894085,-2.92478,1.250597,3.120335,0.9768248,-0.1934746,-0.0236115,-53.11447,1.562331,9.1071
61.069891453,-2.370981,0.06354995,2.998394,0.9753483,-0.2188517,-0.03221676,-53.11447,1.562331,9.1071
61.079889298,-0.832649800000001,-1.18285,2.571598,0.97024,-0.2063181,-0.03221108,-53.11447,1.562331,9.1071
61.089887619,-2.74018,-1.479612,2.75451,0.9798757,-0.1489138,-0.04612136,-53.11447,1.562331,9.1071
61.099884987,-6.49370699999998,-2.19184,2.815481,1.007285,-0.1814733,-0.05238225,-53.11447,1.562331,9.1071
61.109882832,-5.75530800000001,-2.547954,2.266744,0.9981017,-0.2376477,-0.06431618,-53.12064,1.939417,8.71807
61.119880199,-5.93990799999998,-2.904068,1.839949,0.9850584,-0.1652852,-0.04086185,-53.12064,1.939417,8.71807
61.129878044,-11.04717,-2.013783,2.388686,0.9845091,-0.136201,-0.04756844,-53.12064,1.939417,8.71807
61.139875412,-13.01623,-2.132488,3.059364,0.9701211,-0.2271949,-0.08293456,-53.12064,1.939417,8.71807
61.149873257,-8.03203799999998,-2.310545,2.69354,0.977358,-0.2230636,-0.07194099,-53.12064,1.939417,8.71807
61.159870625,-6.61677399999998,-1.895078,2.937423,0.9769061,-0.1473577,-0.08200978,-52.74928,1.948767,9.494855
61.169868469,-8.46277000000003,-1.717021,2.998394,1.004298,-0.1532785,-0.09784903,-52.74928,1.948767,9.494855
61.179865837,-8.64737,-1.657669,3.425189,1.002779,-0.1497227,-0.0777471,-52.74928,1.948767,9.494855
61.189864159,-10.67797,-1.776374,4.27878,0.9577188,-0.1887699,-0.05229397,-52.74928,1.948767,9.494855
61.199862003,-7.10903899999999,-1.479612,4.217809,0.9672661,-0.2825961,-0.07717241,-52.74928,1.948767,9.494855
61.209859371,-2.063314,-1.95443,3.059364,0.9755817,-0.2580163,-0.06427167,-53.11447,1.562331,9.1071
61.219857216,-2.617113,-2.073135,2.69354,0.9640768,-0.2158,-0.0460766,-53.11447,1.562331,9.1071
61.229854584,-4.893843,-2.073135,2.998394,0.9697133,-0.2052523,-0.07384656,-53.11447,1.562331,9.1071
61.239852428,-5.570708,-2.369897,2.69354,0.9963818,-0.2241719,-0.07484532,-53.11447,1.562331,9.1071
61.249849796,-4.770776,-2.42925,2.571598,1.005895,-0.1598045,-0.07104987,-53.11447,1.562331,9.1071
61.259847641,-8.21663800000001,-1.538964,3.059364,0.9806961,-0.1157229,-0.084896,-52.37454,1.951579,9.497635
61.269845009,-10.3703,-0.767383199999997,3.851984,1.006693,-0.2034893,-0.1203334,-52.37454,1.951579,9.497635
61.27984333,-7.41670600000002,0.3009594,3.48616,1.019292,-0.1999003,-0.1270563,-52.37454,1.951579,9.497635
61.289841175,-8.33970399999999,1.844121,3.608101,0.9830924,-0.1402359,-0.1136084,-52.37454,1.951579,9.497635
61.299838543,-8.27817099999997,2.378292,4.156838,0.9939355,-0.1989127,-0.1236623,-52.37454,1.951579,9.497635
61.309836388,-3.478579,2.912464,3.791013,0.985182,-0.1994049,-0.105461,-52.35882,1.190868,9.501691
61.319833756,-1.694115,2.853111,3.364218,0.9762005,-0.2133939,-0.07481291,-52.35882,1.190868,9.501691
61.3298316,0.2134152,3.209226,3.242276,0.9892977,-0.2102195,-0.07483657,-52.35882,1.190868,9.501691
61.339828968,-2.309447,3.031168,3.303247,0.9736051,-0.178917,-0.07194582,-52.35882,1.190868,9.501691
61.349826813,-5.816842,3.209226,3.669072,0.9689866,-0.218352,-0.0700133,-52.35882,1.190868,9.501691
61.359824181,-4.093911,3.209226,3.181306,0.9946612,-0.2363632,-0.07579634,-52.75715,2.329123,9.492826
61.369822502,-3.540112,3.624692,2.083832,0.9893532,-0.2131077,-0.07196447,-52.75715,2.329123,9.492826
61.379819393,-5.201509,3.743397,2.083832,0.9894879,-0.2196933,-0.04851278,-52.75715,2.329123,9.492826
61.389817715,-5.078443,4.099511,2.022861,0.9882122,-0.2301119,-0.06908664,-52.75715,2.329123,9.492826
61.399815559,-5.632242,4.633682,1.90092,0.9679314,-0.188319,-0.07815499,-52.75715,2.329123,9.492826
61.409812927,-7.60130500000002,4.218216,1.291212,0.9864682,-0.2150734,-0.06813031,-52.74928,1.948767,9.494855
61.419810772,-6.55523999999999,4.336921,1.047329,0.9843129,-0.2294925,-0.04610835,-52.74928,1.948767,9.494855
61.42980814,-5.93990799999998,3.32793,0.681504599999997,0.9666519,-0.2229549,-0.03698631,-52.74928,1.948767,9.494855
61.439805985,-4.83231,2.437645,0.0717969800000001,0.9734448,-0.2469817,-0.0221561,-52.74928,1.948767,9.494855
61.449803352,-3.478579,1.250597,0.0717969800000001,0.9758456,-0.2192927,-0.02838891,-52.74928,1.948767,9.494855
61.459801674,-3.786245,0.953835399999999,-0.4769399,0.9782695,-0.2188378,-0.03700762,-52.38071,2.328667,9.108605
61.469798565,-3.663178,0.1229023,-0.964705900000002,0.9862955,-0.2314673,-0.05376852,-52.38071,2.328667,9.108605
61.479796887,-3.109379,0.1229023,-1.452472,0.9953899,-0.1975568,-0.08490054,-52.38071,2.328667,9.108605
61.489794731,-4.216978,-0.5299737,-2.06218,0.986024,-0.1919544,-0.08967143,-52.38071,2.328667,9.108605
61.499792099,-3.293979,-0.05515479,-1.879267,0.9936832,-0.2100846,-0.06957991,-52.38071,2.328667,9.108605
61.509789944,-0.586516899999998,0.2416071,-2.184121,0.9940433,-0.1783782,-0.1102677,-53.12233,1.942686,9.105072
61.519787312,-0.7711166,0.4790165,-2.671887,0.9931473,-0.1821211,-0.09255783,-53.12233,1.942686,9.105072
61.529785156,0.4595481,1.07254,-2.549946,0.9899553,-0.2195271,-0.08440683,-53.12233,1.942686,9.105072
61.539782524,2.305545,1.250597,-2.488975,0.9637707,-0.2263442,-0.08244514,-53.12233,1.942686,9.105072
61.549780846,3.782343,1.428654,-3.159653,0.9792338,-0.1934849,-0.08295912,-53.12233,1.942686,9.105072
61.559777737,1.813279,1.428654,-3.403537,0.9810902,-0.1878441,-0.05472783,-53.16164,3.844465,9.094933
61.569776058,1.628679,1.666064,-3.159653,0.975599,-0.2326022,-0.04848524,-53.16164,3.844465,9.094933
61.579773903,4.151542,1.666064,-3.525478,0.9752682,-0.2416013,-0.0752826,-53.16164,3.844465,9.094933
61.589771271,6.36673800000001,1.547359,-4.379068,0.9648297,-0.2306134,-0.07335293,-53.16164,3.844465,9.094933
61.599769116,7.78200200000001,1.07254,-5.171688,0.983752,-0.2256423,-0.04897982,-53.53023,3.464565,9.481181
61.609766483,8.33580199999998,0.775778400000001,-5.415571,0.9860783,-0.1941111,-0.05999925,-53.53023,3.464565,9.481181
61.619764328,5.25914,0.894483100000001,-4.683922,0.9897581,-0.1310282,-0.07772921,-53.53023,3.464565,9.481181
61.629761696,1.690213,0.716426,-4.257127,0.9914102,-0.166872,-0.06862992,-53.53023,3.464565,9.481181
61.639760017,3.290077,0.1822547,-4.257127,0.9894502,-0.2177898,-0.05282038,-53.53023,3.464565,9.481181
61.649756908,4.828408,-0.411269,-4.561981,0.9740363,-0.1752613,-0.04514725,-53.50664,2.323498,9.487266
61.65975523,3.16701,-1.064145,-4.196156,0.9729853,-0.1707419,-0.02696069,-53.50664,2.323498,9.487266
61.669752598,3.16701,-2.013783,-4.135185,0.9869485,-0.2137324,-0.02888827,-53.50664,2.323498,9.487266
61.679750442,5.136074,-2.726011,-3.830332,0.9786927,-0.189787,-0.04945881,-53.50664,2.323498,9.487266
61.689748287,5.25914,-3.43824,-3.525478,0.9804603,-0.1543354,-0.05569251,-53.50664,2.323498,9.487266
61.699745655,6.36673800000001,-3.378887,-3.098683,0.9952914,-0.16574,-0.05954404,-52.75546,2.325854,9.105824
61.7097435,7.78200200000001,-3.735002,-2.549946,0.988035,-0.1689394,-0.07484499,-52.75546,2.325854,9.105824
61.719740868,9.50493299999999,-3.260183,-1.513443,0.9859059,-0.1079195,-0.09304288,-52.75546,2.325854,9.105824
61.729739189,7.04360400000002,-2.547954,-0.5379106,1.0041,-0.09122229,-0.1131791,-52.75546,2.325854,9.105824
61.73973608,5.505273,-1.538964,0.5595631,1.009274,-0.1591519,-0.1131706,-52.75546,2.325854,9.105824
61.749734402,7.16667,-0.708030899999999,1.413154,0.9914795,-0.1716432,-0.1121792,-52.74142,1.568412,9.496882
61.75973177,8.028135,0.1822547,1.657037,0.9723737,-0.1661631,-0.1092759,-52.74142,1.568412,9.496882
61.769729614,8.15120200000001,0.657073599999999,2.510627,0.993139,-0.181609,-0.08968649,-52.74142,1.568412,9.496882
61.779727459,8.76653499999999,1.131893,2.998394,0.9742776,-0.1885349,-0.06237299,-52.74142,1.568412,9.496882
61.789724827,8.58193500000002,1.07254,3.669072,0.9778141,-0.1688825,-0.04659121,-52.74142,1.568412,9.496882
61.799722671,7.65893599999998,1.013188,4.034896,0.9938069,-0.16418,-0.04518457,-52.75546,2.325854,9.105824
61.809720039,6.428272,1.07254,5.13237,0.9752586,-0.1626597,-0.05137412,-52.75546,2.325854,9.105824
61.819718361,6.305205,1.30995,5.498195,0.9796401,-0.189064,-0.07865379,-52.75546,2.325854,9.105824
61.829715252,7.41280299999999,1.369302,5.315282,0.9954454,-0.2004494,-0.08250702,-52.75546,2.325854,9.105824
61.839713573,10.05873,1.191245,4.827517,0.9823568,-0.2297724,-0.07242655,-52.75546,2.325854,9.105824
61.849710941,12.76619,0.953835399999999,3.791013,0.9765268,-0.2301805,-0.05135894,-52.73973,1.565144,9.10988
61.859708786,11.6586,0.5383689,2.998394,0.9827709,-0.2251056,-0.04132103,-52.73973,1.565144,9.10988
61.869706631,7.04360400000002,0.657073599999999,2.937423,0.9816781,-0.2188056,-0.04084218,-52.73973,1.565144,9.10988
61.879703999,1.813279,1.131893,2.388686,0.9875784,-0.2215959,-0.03989459,-52.73973,1.565144,9.10988
61.889701843,-1.447982,0.3009594,1.474125,0.9879854,-0.2435692,-0.05233262,-52.73973,1.565144,9.10988
61.899699211,-1.940248,0.4196641,0.925387699999998,0.9783866,-0.225201,-0.04227052,-52.75376,2.322585,8.718822
61.909697533,-3.663178,0.004197581,0.2547093,0.9885738,-0.1711699,-0.05426659,-52.75376,2.322585,8.718822
61.919694424,-5.87837500000002,0.06354995,0.620533899999998,1.003165,-0.1700369,-0.06817102,-52.75376,2.322585,8.718822
61.929692745,-3.601645,-0.05515479,0.5595631,0.9715375,-0.2247197,-0.08102336,-52.75376,2.322585,8.718822
61.939690113,3.905409,-0.411269,-0.4159691,0.9635372,-0.2912983,-0.06424211,-52.75376,2.322585,8.718822
61.949687958,11.35093,-0.411269,-1.818297,0.9804644,-0.2583268,-0.05566574,-52.77118,3.086566,9.101768
61.959685802,11.1048,-0.3519166,-2.428004,0.9742609,-0.2131559,-0.04465931,-52.77118,3.086566,9.101768
61.96968317,5.566806,-0.5299737,-2.245092,0.9900979,-0.1738054,-0.02698974,-52.77118,3.086566,9.101768
61.979681015,-5.078443,0.1822547,-1.330531,0.9944134,-0.1184017,-0.03562589,-52.77118,3.086566,9.101768
61.989678383,-12.7701,0.3603118,-0.2940276,1.001404,-0.1804081,-0.08252256,-52.77118,3.086566,9.101768
61.999676704,-12.33936,1.07254,0.1327677,1.004757,-0.1774964,-0.09018637,-52.76332,2.70621,9.103797
62.009673595,-9.20116899999999,1.07254,0.31568,0.9759049,-0.1459065,-0.08057269,-52.76332,2.70621,9.103797
62.019671917,-5.509175,1.784769,1.291212,0.9730468,-0.1493426,-0.07817394,-52.76332,2.70621,9.103797
62.029669285,-1.940248,1.666064,1.96189,1.001271,-0.1730075,-0.07008126,-52.76332,2.70621,9.103797
62.03966713,0.705681,1.07254,1.96189,1.010119,-0.2029128,-0.06482465,-52.76332,2.70621,9.103797
62.049664974,2.736278,-0.05515479,1.718008,0.980473,-0.1803567,-0.03175703,-52.74759,1.945498,9.107853
62.059662342,-1.201849,-0.2332119,1.96189,0.9653937,-0.1815387,-0.02215892,-52.74759,1.945498,9.107853
62.069660187,-6.61677399999998,-0.4706214,2.75451,0.967465,-0.2405073,-0.045119,-52.74759,1.945498,9.107853
62.079657555,-8.40123700000001,-0.1738595,2.327715,0.9837164,-0.2500849,-0.06476647,-52.74759,1.945498,9.107853
62.089655876,-12.09323,0.657073599999999,2.144803,1.012771,-0.1889436,-0.08397591,-52.74759,1.945498,9.107853
62.099652767,-18.24655,1.606712,2.876452,0.9824952,-0.1593037,-0.07196636,-53.13806,2.703398,9.101016
62.109651089,-20.83095,2.022178,3.669072,0.9832535,-0.1995912,-0.06860727,-53.13806,2.703398,9.101016
62.119648457,-18.80035,1.666064,3.54713,0.9892523,-0.2070109,-0.04277272,-53.13806,2.703398,9.101016
62.129646301,-16.40056,0.4196641,3.120335,0.9913018,-0.2122938,-0.04038205,-53.13806,2.703398,9.101016
62.139644146,-13.20083,-1.004793,3.181306,0.9773447,-0.1955265,-0.03653343,-53.1285,2.319773,8.716043
62.149641514,-11.1087,-1.95443,3.54713,0.9776753,-0.1873028,-0.04132188,-53.1285,2.319773,8.716043
62.159639359,-8.64737,-3.20083,3.364218,0.9869655,-0.2155188,-0.06478104,-53.1285,2.319773,8.716043
62.169636726,-6.43217400000002,-3.20083,3.303247,0.9896685,-0.2038204,-0.06670307,-53.1285,2.319773,8.716043
62.179635048,-7.66283799999999,-3.616297,3.120335,0.9847307,-0.2006084,-0.07674538,-53.1285,2.319773,8.716043
62.189631939,-7.84743800000001,-3.497592,2.510627,0.9807894,-0.2502787,-0.07959718,-53.1302,2.323042,9.103045
62.199630261,-6.862906,-2.547954,2.327715,0.9708242,-0.2389402,-0.09346143,-53.1302,2.323042,9.103045
62.209627628,-6.678307,-2.42925,1.718008,0.9614245,-0.2577233,-0.1077975,-53.1302,2.323042,9.103045
62.219625473,-4.83231,-1.717021,1.169271,0.9807388,-0.2480035,-0.09634784,-53.1302,2.323042,9.103045
62.229622841,-6.12450699999998,-0.1738595,0.925387699999998,0.9900796,-0.2007923,-0.1083407,-53.1302,2.323042,9.103045
62.239620686,-6.61677399999998,0.4196641,0.4376215,0.9828738,-0.2326831,-0.1260272,-53.50664,2.323498,9.487266
62.24961853,-2.678647,1.131893,-0.5379106,0.9907139,-0.2341606,-0.09206161,-53.50664,2.323498,9.487266
62.259615898,-0.5249836,1.369302,-0.964705900000002,0.9770363,-0.2061365,-0.08008058,-53.50664,2.323498,9.487266
62.26961422,0.3364816,0.716426,-0.903735200000002,0.9809043,-0.2038795,-0.0542448,-53.50664,2.323498,9.487266
62.279611111,2.305545,-0.2925643,-0.964705900000002,0.9828479,-0.2032192,-0.0394125,-53.50664,2.323498,9.487266
62.289609432,1.751746,-1.242202,-0.903735200000002,0.9701176,-0.1737054,-0.02599778,-53.13806,2.703398,9.101016
62.2996068,-0.03271778,-2.310545,-0.659852100000001,0.972019,-0.2233435,-0.03795271,-53.13806,2.703398,9.101016
62.309604645,1.07488,-2.844716,-0.4769399,0.9654751,-0.264406,-0.05037371,-53.13806,2.703398,9.101016
62.319602013,2.674744,-2.844716,-0.964705900000002,0.9719937,-0.2482324,-0.04943208,-53.13806,2.703398,9.101016
62.329599857,1.936346,-2.844716,-1.330531,0.9950404,-0.2048309,-0.08250518,-53.13806,2.703398,9.101016
62.339597702,-1.817181,-2.132488,-0.903735200000002,0.9840467,-0.1641676,-0.07579643,-53.1302,2.323042,9.103045
62.34959507,-1.817181,-1.95443,-0.8427644,0.9871057,-0.2491118,-0.07195127,-53.1302,2.323042,9.103045
62.359593392,2.182479,-2.013783,-1.452472,1.000059,-0.1868089,-0.08874006,-53.1302,2.323042,9.103045
62.369590283,-0.03271778,-2.132488,-1.147618,0.9807076,-0.1417793,-0.06478912,-53.1302,2.323042,9.103045
62.379588604,-0.1557842,-2.251192,-0.720822899999998,0.9896614,-0.2296895,-0.07913937,-53.1302,2.323042,9.103045
62.389585972,2.490145,-3.260183,-0.8427644,1.003286,-0.1762596,-0.05811954,-52.39027,2.712291,9.493579
62.399583817,-0.709583300000001,-3.735002,-0.2940276,0.9600442,-0.130082,-0.01641993,-52.39027,2.712291,9.493579
62.409581184,-2.001781,-4.803344,0.7424754,0.9691612,-0.2267709,-0.03459682,-52.39027,2.712291,9.493579
62.419579029,0.5826145,-5.574925,0.864416900000002,0.9873777,-0.2116802,-0.07100423,-52.39027,2.712291,9.493579
62.429576874,-0.1557842,-5.99039199999999,0.681504599999997,0.9738354,-0.166121,-0.1078427,-52.39027,2.712291,9.493579
62.439574242,-1.263382,-4.803344,1.169271,0.9772194,-0.2166053,-0.1092713,-52.75715,2.329123,9.492826
62.449572563,0.1518819,-3.260183,1.657037,0.9958931,-0.2514171,-0.1303523,-52.75715,2.329123,9.492826
62.459569454,0.1518819,-0.9454404,1.90092,0.9809521,-0.2085512,-0.1399088,-52.75715,2.329123,9.492826
62.469567776,-1.140316,0.953835399999999,2.144803,0.9623598,-0.2301947,-0.128385,-52.75715,2.329123,9.492826
62.479565144,0.4595481,3.268578,2.449656,1.007391,-0.2146215,-0.1169817,-52.75715,2.329123,9.492826
62.489562988,-1.078783,4.811739,2.815481,0.9712206,-0.1827693,-0.1159697,-52.41555,3.856627,9.874497
62.499560356,-2.432514,5.286559,3.120335,0.978616,-0.2132024,-0.1121461,-52.41555,3.856627,9.874497
62.509558201,-1.201849,6.05813900000001,3.242276,0.9951297,-0.20975,-0.08920414,-52.41555,3.856627,9.874497
62.519556046,-2.124848,6.05813900000001,2.998394,0.983246,-0.1998282,-0.09445031,-52.41555,3.856627,9.874497
62.529553414,-2.186381,6.05813900000001,3.181306,0.9855487,-0.192362,-0.08009897,-52.41555,3.856627,9.874497
62.539551258,-3.047846,6.35490099999999,3.669072,0.9789618,-0.1788594,-0.07721951,-53.13189,2.32631,9.490046
62.549548626,-1.878715,5.998787,3.48616,0.9698014,-0.2366228,-0.1035103,-53.13189,2.32631,9.490046
62.559546948,2.674744,5.405263,2.266744,0.9891216,-0.2267187,-0.07196055,-53.13189,2.32631,9.490046
62.569544315,1.567146,4.752387,1.778978,0.9676903,-0.2263272,-0.0360301,-53.13189,2.32631,9.490046
62.57954216,0.1518819,4.158864,1.90092,0.9708797,-0.2667026,-0.04751108,-53.13189,2.32631,9.490046
62.589540005,0.951813900000003,3.980806,1.413154,0.9657211,-0.2775303,-0.05132791,-52.76332,2.70621,9.103797
62.599537373,0.0903486900000002,3.921454,0.5595631,0.9847198,-0.2514659,-0.05854638,-52.76332,2.70621,9.103797
62.609535217,-2.309447,4.752387,0.2547093,0.9883052,-0.2356835,-0.09397132,-52.76332,2.70621,9.103797
62.619532585,-4.340044,5.523968,-0.1720861,0.9938434,-0.2197267,-0.1145639,-52.76332,2.70621,9.103797
62.62953043,-4.46311,6.88907200000001,-0.3549984,0.9808707,-0.2041618,-0.1379955,-52.76332,2.70621,9.103797
62.639527798,-1.817181,7.423244,-1.086647,1.00501,-0.2183465,-0.1471268,-52.76332,2.70621,9.103797
62.649526119,2.305545,8.13547199999999,-2.306063,1.011063,-0.2022995,-0.105984,-52.76332,2.70621,9.103797
62.659523487,2.982411,8.13547199999999,-2.793829,0.9776601,-0.212651,-0.0499297,-52.76332,2.70621,9.103797
62.669521332,3.597743,8.13547199999999,-3.037712,0.9821009,-0.2154132,-0.04275809,-52.76332,2.70621,9.103797
62.679519176,5.25914,7.54194799999998,-3.830332,0.9713444,-0.2386658,-0.01162591,-52.76332,2.70621,9.103797
62.689516544,9.75106599999998,5.93943499999998,-5.049747,0.9621435,-0.2930669,0.01089721,-53.15379,3.464109,9.09696
62.699514389,12.95079,4.099511,-6.02527899999998,0.9542013,-0.2591157,0.02095242,-53.15379,3.464109,9.09696
62.709511757,11.1048,3.387283,-6.45207400000002,0.9811092,-0.2128924,0.02232933,-53.15379,3.464109,9.09696
62.719509602,9.38186599999998,1.488007,-6.63498599999997,0.9693092,-0.2601225,-0.01544544,-53.15379,3.464109,9.09696
62.729506969,12.52006,-0.05515479,-7.42760699999997,0.9779475,-0.2275648,-0.03413335,-53.1285,2.319773,8.716043
62.739505291,10.9202,-0.2332119,-7.85440200000002,0.9953595,-0.1433635,-0.05715704,-53.1285,2.319773,8.716043
62.749502659,6.12060500000003,-0.708030899999999,-7.12275300000002,0.991124,-0.1775595,-0.06766953,-53.1285,2.319773,8.716043
62.759500503,7.10513699999998,-0.826735599999998,-7.366636,0.9898747,-0.2407522,-0.06717249,-53.1285,2.319773,8.716043
62.769498348,10.61253,-0.886087999999999,-8.15925599999997,0.9770602,-0.2069325,-0.06093737,-53.1285,2.319773,8.716043
62.779495716,9.812599,-1.123497,-8.34216799999998,0.9763362,-0.1943036,-0.05998221,-52.76163,2.702941,8.716795
62.789493561,9.68953300000002,-1.717021,-8.70799300000002,0.9907759,-0.2360758,-0.03606783,-52.76163,2.702941,8.716795
62.799490929,11.22786,-2.369897,-8.64702100000002,0.955469,-0.2240775,-0.0293093,-52.76163,2.702941,8.716795
62.809488773,11.78166,-3.141478,-9.13478800000001,0.9689273,-0.2140358,-0.02311386,-52.76163,2.702941,8.716795
62.819486141,11.41246,-3.319535,-9.19575899999999,0.987619,-0.1977664,-0.03798649,-52.76163,2.702941,8.716795
62.829484463,8.705001,-3.853706,-9.01284600000001,0.9707209,-0.1544444,-0.04658256,-52.37115,1.945042,8.723632
62.839481831,3.16701,-3.319535,-7.85440200000002,0.9872893,-0.1026161,-0.04758194,-52.37115,1.945042,8.723632
62.849479675,-3.417045,-2.785364,-7.00081100000001,1.012897,-0.1180814,-0.0935659,-52.37115,1.945042,8.723632
62.85947752,-3.417045,-2.42925,-6.33013299999999,0.99689,-0.2001718,-0.1083527,-52.37115,1.945042,8.723632
62.869474888,1.321013,-2.013783,-6.75692799999998,0.9794031,-0.2028417,-0.09683571,-52.37115,1.945042,8.723632
62.879472733,3.966942,-1.776374,-6.63498599999997,0.9871616,-0.1742889,-0.07340637,-52.7459,1.942229,8.720851
62.8894701,4.397675,-1.242202,-5.964308,0.9861583,-0.1464916,-0.06049022,-52.7459,1.942229,8.720851
62.899467945,5.689873,-1.717021,-5.598484,0.9742148,-0.1850994,-0.05854516,-52.7459,1.942229,8.720851
62.909465313,8.88960099999997,-2.607306,-5.110718,0.9858828,-0.2089028,-0.02984481,-52.7459,1.942229,8.720851
62.919463634,11.96626,-3.260183,-4.988776,0.981271,-0.1711957,-0.0413323,-52.7459,1.942229,8.720851
62.929461002,10.30486,-2.844716,-3.952273,0.9658833,-0.07887352,-0.06190802,-52.73804,1.561874,8.722879
62.939458847,3.659276,-2.19184,-1.818297,0.9994184,-0.1008143,-0.08923966,-52.73804,1.561874,8.722879
62.949456692,2.551678,-1.18285,-0.903735200000002,1.00079,-0.1743398,-0.1083662,-52.73804,1.561874,8.722879
62.95945406,6.12060500000003,-0.1145072,-0.659852100000001,0.9938132,-0.1919409,-0.1049994,-52.73804,1.561874,8.722879
62.969451904,8.76653499999999,1.07254,-0.598881400000002,1.00403,-0.1649508,-0.09832413,-52.73804,1.561874,8.722879
62.979449272,8.76653499999999,1.30995,-0.598881400000002,0.9875067,-0.1671552,-0.09111612,-52.73017,1.181519,8.724907
62.989447117,8.52040099999998,1.606712,0.1327677,0.9979945,-0.1540416,-0.06146607,-52.73017,1.181519,8.724907
62.999444485,6.55133799999999,1.131893,0.7424754,0.9905776,-0.1219668,-0.04518981,-52.73017,1.181519,8.724907
63.009442806,9.074201,-0.05515479,0.864416900000002,0.9835464,-0.2143338,-0.03414652,-52.73017,1.181519,8.724907
63.019440651,16.21206,-1.479612,0.3766508,0.9726696,-0.2056833,-0.02120823,-52.73017,1.181519,8.724907
63.029438019,17.62732,-2.251192,0.4376215,0.9806299,-0.1357293,0.0122602,-53.48583,1.55298,8.330316
63.039435864,13.93533,-2.607306,1.169271,0.9936963,-0.1840312,-0.03704347,-53.48583,1.55298,8.330316
63.049433231,13.19693,-2.547954,1.1083,0.9776724,-0.2138069,-0.07002962,-53.48583,1.55298,8.330316
63.059431076,9.75106599999998,-1.538964,0.681504599999997,0.9819716,-0.1837866,-0.09110218,-53.48583,1.55298,8.330316
63.069428444,5.320673,-0.767383199999997,0.925387699999998,1.008353,-0.1877968,-0.1083759,-53.48583,1.55298,8.330316
63.079426289,5.136074,0.5383689,1.291212,0.9819444,-0.1823249,-0.09062394,-53.10322,1.175437,8.335124
63.089423656,7.35127000000003,1.191245,0.925387699999998,0.98158,-0.1628769,-0.088714,-53.10322,1.175437,8.335124
63.099421978,8.82806800000001,1.488007,0.803446099999999,1.012016,-0.1485552,-0.07632778,-53.10322,1.175437,8.335124
63.109419823,8.76653499999999,1.488007,0.925387699999998,1.001277,-0.1471604,-0.06003783,-53.10322,1.175437,8.335124
63.119417191,9.38186599999998,1.131893,0.925387699999998,0.9844462,-0.1848315,-0.05138442,-53.10322,1.175437,8.335124
63.129415035,9.32033300000002,0.775778400000001,0.803446099999999,0.9851379,-0.1953857,-0.03798278,-52.74759,1.945498,9.107853
63.139412403,7.90506900000002,0.2416071,0.925387699999998,0.9869394,-0.1876057,-0.04133796,-52.74759,1.945498,9.107853
63.149410248,4.828408,-0.05515479,0.864416900000002,0.9737421,-0.185428,-0.04035836,-52.74759,1.945498,9.107853
63.159407616,2.797811,-0.1738595,1.230241,0.9718832,-0.216022,-0.03412575,-52.74759,1.945498,9.107853
63.16940546,1.874812,0.775778400000001,1.413154,0.9836496,-0.2203604,-0.05568107,-52.74759,1.945498,9.107853
63.179402828,0.3980148,1.606712,0.986358399999998,0.989645,-0.2030157,-0.08488912,-53.12064,1.939417,8.71807
63.18940115,-1.694115,1.962826,0.925387699999998,0.9868506,-0.2098565,-0.08296819,-53.12064,1.939417,8.71807
63.199398994,-0.586516899999998,2.734407,0.620533899999998,1.003839,-0.2060272,-0.07294869,-53.12064,1.939417,8.71807
63.209396362,1.44408,2.55635,-0.05014454,1.011897,-0.1679031,-0.06627249,-53.12064,1.939417,8.71807
63.219394207,1.813279,2.200235,0.1937385,0.9690593,-0.1173571,-0.02601044,-53.12064,1.939417,8.71807
63.229391575,-0.6480501,1.488007,0.803446099999999,0.9784085,-0.1740012,-0.0231407,-52.75546,2.325854,9.105824
63.23938942,0.705681,0.8351307,0.4985923,0.9807686,-0.2478441,-0.02599725,-52.75546,2.325854,9.105824
63.249386787,1.136414,0.597721199999998,0.2547093,0.9674433,-0.2132292,-0.03794734,-52.75546,2.325854,9.105824
63.259384632,-2.678647,0.3009594,0.1937385,0.9749547,-0.1980034,-0.03652862,-52.75546,2.325854,9.105824
63.269382954,-5.01691,0.4790165,0.4376215,0.9964855,-0.202998,-0.04470067,-52.75546,2.325854,9.105824
63.279380322,-5.509175,0.4790165,0.803446099999999,0.9861838,-0.1736512,-0.05474036,-53.11278,1.559062,8.720098
63.289378166,-4.032378,0.3009594,0.681504599999997,0.9859623,-0.1877172,-0.05138632,-53.11278,1.559062,8.720098
63.299375534,1.013347,-0.411269,0.1327677,0.9986522,-0.2146353,-0.04661575,-53.11278,1.559062,8.720098
63.309373379,4.397675,-0.886087999999999,0.01082622,0.9776873,-0.1876964,-0.03127171,-53.11278,1.559062,8.720098
63.319370747,2.920877,-1.538964,0.4985923,0.9755644,-0.1785406,-0.03509897,-52.7442,1.93896,8.333849
63.329368591,1.936346,-1.895078,0.31568,0.987865,-0.1852499,-0.05139028,-52.7442,1.93896,8.333849
63.339365959,-0.6480501,-1.717021,0.2547093,0.9922527,-0.1594039,-0.050926,-52.7442,1.93896,8.333849
63.349363804,-3.724712,-1.538964,0.31568,0.9987229,-0.1929508,-0.06672166,-52.7442,1.93896,8.333849
63.359362125,-4.032378,-1.657669,0.1937385,0.9950371,-0.2041608,-0.06240516,-52.7442,1.93896,8.333849
63.369359493,-5.324575,-0.826735599999998,0.31568,0.997526,-0.1029524,-0.05334261,-53.49538,1.936604,8.71529
63.379357338,-10.5549,-0.589326100000003,0.620533899999998,1.012048,-0.1242355,-0.07394122,-53.49538,1.936604,8.71529
63.389354706,-11.17023,-0.826735599999998,0.7424754,0.9883274,-0.2101159,-0.06143478,-53.49538,1.936604,8.71529
63.399352551,-9.44730199999998,-0.9454404,0.4985923,0.976806,-0.1932917,-0.05663326,-53.49538,1.936604,8.71529
63.409349918,-10.7395,-1.18285,0.803446099999999,0.9825903,-0.1896881,-0.04707275,-53.49538,1.936604,8.71529
63.419347763,-10.98563,-1.479612,1.230241,0.9847002,-0.1984767,-0.05616711,-52.73804,1.561874,8.722879
63.429345131,-10.0011,-1.479612,1.96189,0.9689294,-0.1626838,-0.04035583,-52.73804,1.561874,8.722879
63.439342976,-11.1087,-1.242202,2.815481,0.9806697,-0.1391091,-0.03846806,-52.73804,1.561874,8.722879
63.449341297,-11.6625,-0.767383199999997,3.730042,0.9856402,-0.1707989,-0.06048306,-52.73804,1.561874,8.722879
63.459338665,-11.41637,-1.242202,3.851984,0.9812051,-0.2199184,-0.05519835,-52.73804,1.561874,8.722879
63.46933651,-8.89350299999999,-1.479612,3.973926,0.9660361,-0.2161946,-0.040337,-52.75376,2.322585,8.718822
63.479333878,-8.89350299999999,-1.895078,4.156838,0.9655938,-0.1930141,-0.05517806,-52.75376,2.322585,8.718822
