Time (s),Gyroscope X (deg/s),Gyroscope Y (deg/s),Gyroscope Z (deg/s),Accelerometer X (g),Accelerometer Y (g),Accelerometer Z (g),Magnetometer X (uT),Magnetometer Y (uT),Magnetometer Z (uT)
38.44,0.1668001,0.1154754,-0.2783751,0.9725933,0.05635617,-0.1859856,-40.98823,-22.52762,-2.075574
38.45,0.291252,-0.002337579,-0.2783751,0.9778774,0.06176477,-0.1811348,-42.01213,-22.89577,-2.837806
38.46,0.913511500000001,0.05656894,-0.3394342,0.9759356,0.06174083,-0.182105,-42.01213,-22.89577,-2.837806
38.47,1.349093,0.05656894,-0.3394342,0.9797858,0.06658842,-0.1844974,-42.01213,-22.89577,-2.837806
38.48,1.846901,0.410008,-0.4615526,0.9797463,0.07093927,-0.1849707,-42.01213,-22.89577,-2.837806
38.49,1.722449,0.2332885,-0.4615526,0.9734426,0.06990021,-0.1874019,-42.01213,-22.89577,-2.837806
38.5,1.286867,0.586727600000001,-0.5226117,0.977317,0.06763367,-0.1738854,-41.64943,-22.89197,-2.455223
38.51,1.224641,0.586727600000001,-0.3394342,0.9802863,0.06326178,-0.1782301,-41.64943,-22.89197,-2.455223
38.52,1.162415,0.7634471,-0.5226117,0.9778611,0.06322528,-0.1801666,-41.64943,-22.89197,-2.455223
38.53,1.162415,0.881260199999998,-0.3394342,0.9798362,0.0607946,-0.1830621,-41.64943,-22.89197,-2.455223
38.54,1.784675,0.645634099999999,-0.4004934,0.9729997,0.06694034,-0.1932,-41.64943,-22.89197,-2.455223
38.55,1.722449,0.174382,-0.3394342,0.9690955,0.0664918,-0.1859728,-41.65619,-22.52945,-2.461058
38.56,1.411319,-0.1201506,-0.2173159,0.9730007,0.06834389,-0.198505,-41.65619,-22.52945,-2.461058
38.57,1.224641,-0.2379636,-0.4615526,0.9763747,0.07034116,-0.1946317,-41.65619,-22.52945,-2.461058
38.58,1.349093,-0.3557767,-0.5226117,0.9783426,0.06605807,-0.1883627,-41.65619,-22.52945,-2.461058
38.59,1.162415,-0.1201506,-0.5226117,0.974934,0.0665198,-0.1878879,-41.65619,-22.52945,-2.461058
38.6,1.100189,-0.0612440899999998,-0.3394342,0.9740009,0.06356929,-0.1922396,-41.28988,-22.53182,-2.457577
38.61,1.100189,-0.1790571,-0.2173159,0.9764592,0.06021401,-0.1907928,-41.28988,-22.53182,-2.457577
38.62,1.224641,-0.2379636,-0.4004934,0.9783522,0.06461947,-0.1869181,-41.28988,-22.53182,-2.457577
38.63,1.100189,-0.0612440899999998,-0.4004934,0.9782966,0.06808574,-0.1782249,-41.28988,-22.53182,-2.457577
38.64,1.100189,0.174382,-0.644730100000001,0.9812617,0.06278984,-0.1777461,-41.28988,-22.53182,-2.457577
38.65,0.975737500000002,0.4689145,-0.644730100000001,0.9734619,0.06702301,-0.1845127,-41.64583,-22.89815,-2.834326
38.66,1.224641,0.3511015,-0.8279076,0.9774072,0.0617084,-0.1869268,-41.64583,-22.89815,-2.834326
38.67,1.224641,0.2332885,-0.3394342,0.9730669,0.05687016,-0.183088,-41.64583,-22.89815,-2.834326
38.68,1.286867,0.174382,-0.5226117,0.9759479,0.06029347,-0.1816255,-41.64583,-22.89815,-2.834326
38.69,1.722449,0.174382,-0.4615526,0.9778573,0.06652065,-0.1902931,-41.64583,-22.89815,-2.834326
38.7,2.282483,-0.0612440899999998,-0.4615526,0.9768941,0.06554524,-0.1902977,-41.66542,-22.22116,-2.086817
38.71,1.846901,-0.2968701,-0.4004934,0.9710076,0.07036515,-0.1874072,-41.66542,-22.22116,-2.086817
38.72,1.349093,-0.2968701,-0.2783751,0.9748773,0.07092761,-0.182088,-41.66542,-22.22116,-2.086817
38.73,1.286867,-0.2968701,-0.1562568,0.9743886,0.07327767,-0.1893224,-41.66542,-22.22116,-2.086817
38.74,1.411319,-0.002337579,-0.2783751,0.9767882,0.07715042,-0.1912381,-41.2877,-22.24312,-3.283828
38.75,0.913511500000001,-0.2968701,-0.4004934,0.9719385,0.07754381,-0.1970403,-41.2877,-22.24312,-3.283828
38.76,0.04234824,-0.709215699999997,-0.4615526,0.9695197,0.07420317,-0.1898155,-41.2877,-22.24312,-3.283828
38.77,-1.015493,-1.121561,-0.2783751,0.9744178,0.07083618,-0.1917403,-41.2877,-22.24312,-3.283828
38.78,-1.326623,-1.239374,-0.0951975900000001,0.9759145,0.06509317,-0.1859582,-41.2877,-22.24312,-3.283828
38.79,-0.642137300000001,-1.180468,-0.3394342,0.973016,0.06313475,-0.1859699,-41.27638,-23.25686,-2.445909
38.8,-0.1443296,-1.533907,-0.03413842,0.9739022,0.06999163,-0.1777495,-41.27638,-23.25686,-2.445909
38.81,0.04234824,-1.239374,0.2100982,0.9801941,0.07435237,-0.1825494,-41.27638,-23.25686,-2.445909
38.82,0.1668001,-1.121561,0.1490391,0.9802465,0.06902055,-0.1835259,-41.27638,-23.25686,-2.445909
38.83,0.291252,-0.885935200000002,0.02692074,0.9845781,0.07107361,-0.1743418,-41.27638,-23.25686,-2.445909
38.84,0.353478,-0.4735897,0.2711574,0.984625,0.06716724,-0.1782105,-41.64943,-22.89197,-2.455223
38.85,0.353478,-0.4735897,0.02692074,0.9826804,0.0662149,-0.1748397,-41.64943,-22.89197,-2.455223
38.86,0.415704,-0.4146832,0.1490391,0.98173,0.06332135,-0.1729182,-41.64943,-22.89197,-2.455223
38.87,0.1045742,-0.4146832,0.02692074,0.980745,0.0652319,-0.1748469,-41.64943,-22.89197,-2.455223
38.88,0.1668001,-0.2379636,0.2100982,0.9783003,0.06713544,-0.1762967,-41.64943,-22.89197,-2.455223
38.89,0.602381800000001,-0.0612440899999998,0.2711574,0.9777634,0.07339624,-0.1791799,-41.64943,-22.89197,-2.455223
38.9,0.726833699999999,0.174382,0.1490391,0.9835798,0.07537305,-0.1796432,-41.64943,-22.89197,-2.455223
38.91,1.286867,0.4689145,0.2711574,0.9859964,0.07496944,-0.1728822,-41.64943,-22.89197,-2.455223
38.92,1.473545,1.175793,0.2100982,0.9826064,0.07302476,-0.1709649,-41.64943,-22.89197,-2.455223
38.93,1.224641,1.234699,0.2100982,0.9836178,0.07102658,-0.1786874,-41.64943,-22.89197,-2.455223
38.94,0.851285599999998,1.116886,0.2711574,0.9802572,0.06664041,-0.179188,-41.27277,-23.26305,-2.825011
38.95,1.037963,0.940166700000002,0.02692074,0.9797927,0.06515858,-0.1820877,-41.27277,-23.26305,-2.825011
38.96,0.5401558,0.7634471,0.0879799099999998,0.9724253,0.07238667,-0.1791959,-41.27277,-23.26305,-2.825011
38.97,0.2290261,0.586727600000001,0.02692074,0.973395,0.07334018,-0.1816041,-41.27277,-23.26305,-2.825011
38.98,0.4779299,0.586727600000001,-0.03413842,0.9767944,0.07290912,-0.1787009,-41.27277,-23.26305,-2.825011
38.99,1.162415,0.5278211,-0.0951975900000001,0.9786788,0.07781163,-0.1733775,-41.29349,-22.52564,-2.078474
39,1.286867,0.7634471,0.3322166,0.979645,0.07971545,-0.1777138,-41.29349,-22.52564,-2.078474
39.01,1.224641,0.881260199999998,0.4543349,0.9831026,0.07346427,-0.1762707,-41.29349,-22.52564,-2.078474
39.02,0.975737500000002,1.116886,0.2100982,0.9864914,0.07166034,-0.1646847,-41.29349,-22.52564,-2.078474
39.03,0.602381800000001,1.411419,0.3932757,0.9807219,0.06577715,-0.1680901,-41.29349,-22.52564,-2.078474
39.04,0.1045742,1.941577,0.3322166,0.9783288,0.06422757,-0.1767854,-41.27953,-22.90052,-2.830845
39.05,0.1668001,1.411419,0.2711574,0.9782979,0.06808136,-0.1787074,-41.27953,-22.90052,-2.830845
39.06,0.04234824,1.175793,0.3322166,0.9758341,0.07051702,-0.1748482,-41.27953,-22.90052,-2.830845
39.07,-0.0821036699999998,1.05798,0.3322166,0.974448,0.06417093,-0.1796909,-41.27953,-22.90052,-2.830845
39.08,0.291252,0.881260199999998,0.2711574,0.9729393,0.06995337,-0.18113,-41.27953,-22.90052,-2.830845
39.09,0.602381800000001,0.645634099999999,0.2711574,0.9763188,0.07287027,-0.1825626,-41.2919,-22.2359,-2.841541
39.1,0.602381800000001,0.645634099999999,0.3322166,0.9719722,0.0689911,-0.1796869,-41.2919,-22.2359,-2.841541
39.11,0.664607699999999,0.8223537,0.5153941,0.9792342,0.07055234,-0.1738742,-41.2919,-22.2359,-2.841541
39.12,0.789059599999997,1.293606,0.4543349,0.9807135,0.06955645,-0.1782155,-41.2919,-22.2359,-2.841541
39.13,0.851285599999998,1.588138,0.3932757,0.9788303,0.06464955,-0.1840215,-41.2919,-22.2359,-2.841541
39.14,0.1045742,1.529232,0.4543349,0.9812376,0.06755886,-0.1854566,-41.28628,-22.538,-2.836679
39.15,-0.704363199999999,0.881260199999998,0.5153941,0.9744504,0.06322501,-0.1772801,-41.28628,-22.538,-2.836679
39.16,-0.891041099999997,0.8223537,0.576453200000001,0.9813033,0.05655591,-0.1714862,-41.28628,-22.538,-2.836679
39.17,-0.5176854,0.881260199999998,0.6375124,0.9807495,0.06474798,-0.1748479,-41.28628,-22.538,-2.836679
39.18,0.353478,0.645634099999999,0.4543349,0.9763319,0.06954421,-0.1758141,-41.28628,-22.538,-2.836679
39.19,1.224641,0.2332885,0.4543349,0.9719554,0.07092237,-0.1801653,-41.64943,-22.89197,-2.455223
39.2,1.224641,0.3511015,0.4543349,0.976316,0.07194187,-0.1782217,-41.64943,-22.89197,-2.455223
39.21,1.286867,0.4689145,0.4543349,0.9763524,0.06900772,-0.1816058,-41.64943,-22.89197,-2.455223
39.22,1.100189,0.704540600000002,0.4543349,0.9821857,0.06905325,-0.1815906,-41.64943,-22.89197,-2.455223
39.23,0.851285599999998,0.999073199999999,0.6375124,0.9808007,0.05942055,-0.1753418,-41.64943,-22.89197,-2.455223
39.24,0.5401558,1.116886,0.576453200000001,0.9837239,0.06176649,-0.1859452,-41.26857,-23.27026,-3.267298
39.25,0.353478,0.999073199999999,0.4543349,0.9778858,0.06126771,-0.1825835,-41.26857,-23.27026,-3.267298
39.26,0.291252,0.645634099999999,0.1490391,0.9729885,0.06510108,-0.1825879,-41.26857,-23.27026,-3.267298
39.27,0.602381800000001,0.1154754,0.3322166,0.968587,0.06749965,-0.1811465,-41.26857,-23.27026,-3.267298
39.28,0.975737500000002,-0.1790571,0.02692074,0.96759,0.06944963,-0.1787321,-41.26857,-23.27026,-3.267298
39.29,1.411319,-0.3557767,0.2711574,0.977244,0.07819216,-0.1835139,-40.97427,-22.9025,-2.827945
39.3,1.473545,-0.2968701,0.2711574,0.9748352,0.0776323,-0.1897945,-40.97427,-22.9025,-2.827945
39.31,0.726833699999999,-0.1201506,0.2711574,0.9772896,0.07194509,-0.1787017,-40.97427,-22.9025,-2.827945
39.32,0.04234824,-0.0612440899999998,0.3322166,0.9802663,0.06567258,-0.1791901,-40.97427,-22.9025,-2.827945
39.33,-0.1443296,-0.1790571,0.4543349,0.9787856,0.06667285,-0.1743663,-41.65258,-22.53563,-2.84016
39.34,0.1045742,-0.0612440899999998,0.5153941,0.9797834,0.06518926,-0.1787098,-41.65258,-22.53563,-2.84016
39.35,0.1045742,-0.1201506,0.6375124,0.980298,0.06228518,-0.1791973,-41.65258,-22.53563,-2.84016
39.36,-0.01987772,-0.1201506,0.759630700000001,0.9685977,0.06511951,-0.1768086,-41.65258,-22.53563,-2.84016
39.37,0.1045742,-0.2379636,0.698571599999999,0.9724674,0.06802707,-0.1796877,-41.65258,-22.53563,-2.84016
39.38,0.353478,-0.6503092,0.4543349,0.9797206,0.06914821,-0.1690505,-41.64629,-23.24831,-2.070286
39.39,0.602381800000001,-0.5324962,0.5153941,0.9792066,0.07158151,-0.1671164,-41.64629,-23.24831,-2.070286
39.4,0.789059599999997,-0.002337579,0.759630700000001,0.9782197,0.0739672,-0.1700091,-41.64629,-23.24831,-2.070286
39.41,0.851285599999998,0.2332885,0.6375124,0.9845662,0.07111304,-0.1699989,-41.64629,-23.24831,-2.070286
39.42,0.602381800000001,0.410008,0.759630700000001,0.9822033,0.06524328,-0.1748431,-41.64629,-23.24831,-2.070286
39.43,0.664607699999999,0.292195,0.759630700000001,0.9836919,0.06421673,-0.1825622,-41.28313,-22.89434,-2.451742
39.44,0.913511500000001,-0.002337579,0.698571599999999,0.9812145,0.06810413,-0.1786999,-41.28313,-22.89434,-2.451742
39.45,0.913511500000001,-0.1790571,0.4543349,0.977366,0.06418931,-0.1801658,-41.28313,-22.89434,-2.451742
39.46,1.037963,-0.4146832,0.1490391,0.972437,0.07141009,-0.180163,-41.28313,-22.89434,-2.451742
39.47,1.037963,-0.4735897,0.02692074,0.9777522,0.07390206,-0.1767661,-41.28313,-22.89434,-2.451742
39.48,0.975737500000002,-0.4146832,0.0879799099999998,0.9772475,0.0763047,-0.1782099,-41.65258,-22.53563,-2.84016
39.49,1.286867,-0.4735897,0.0879799099999998,0.9724436,0.07138818,-0.1825758,-41.65258,-22.53563,-2.84016
39.5,1.349093,-0.591402700000002,0.3322166,0.9802594,0.06475733,-0.1734015,-41.65258,-22.53563,-2.84016
39.51,1.162415,-0.2968701,0.5153941,0.9803055,0.0580395,-0.1671427,-41.65258,-22.53563,-2.84016
39.52,0.913511500000001,-0.1790571,0.5153941,0.9856468,0.05856953,-0.1666452,-41.65258,-22.53563,-2.84016
39.53,1.473545,0.1154754,0.698571599999999,0.9870977,0.05813644,-0.1622995,-41.65258,-22.53563,-2.84016
39.54,1.722449,0.2332885,0.576453200000001,0.9836486,0.06389055,-0.1651913,-41.65258,-22.53563,-2.84016
39.55,1.971353,0.410008,0.698571599999999,0.9836152,0.06869027,-0.169524,-41.65258,-22.53563,-2.84016
39.56,1.909127,0.586727600000001,0.576453200000001,0.9831476,0.06768797,-0.1729052,-41.65258,-22.53563,-2.84016
39.57,1.535771,1.175793,0.6375124,0.985069,0.06918556,-0.1695192,-41.65258,-22.53563,-2.84016
39.58,1.784675,1.293606,0.4543349,0.9807964,0.06084162,-0.1787166,-40.62755,-22.22789,-2.076956
39.59,1.660223,1.116886,0.5153941,0.9773521,0.0647039,-0.1767869,-40.62755,-22.22789,-2.076956
39.6,1.597997,1.05798,0.576453200000001,0.9667116,0.05928423,-0.1782737,-40.62755,-22.22789,-2.076956
39.61,1.349093,0.7634471,0.576453200000001,0.9715683,0.06074324,-0.1816359,-40.62755,-22.22789,-2.076956
39.62,1.535771,0.3511015,0.576453200000001,0.9744402,0.06747946,-0.1883697,-40.62755,-22.22789,-2.076956
39.63,1.473545,-0.0612440899999998,0.3932757,0.9729289,0.07327066,-0.1888437,-40.98463,-22.5338,-2.454677
39.64,1.722449,-0.4146832,0.5153941,0.970513,0.0708584,-0.1859598,-40.98463,-22.5338,-2.454677
39.65,1.473545,-0.4146832,0.576453200000001,0.9744738,0.06361691,-0.1874128,-40.98463,-22.5338,-2.454677
39.66,1.349093,-0.4735897,0.698571599999999,0.9759337,0.06221598,-0.1830691,-40.98463,-22.5338,-2.454677
39.67,0.664607699999999,-0.1201506,0.820689899999999,0.97444,0.06419722,-0.1767955,-40.98463,-22.5338,-2.454677
39.68,0.353478,-0.2968701,0.9428082,0.9798048,0.06277407,-0.1782324,-41.28313,-22.89434,-2.451742
39.69,0.04234824,-0.3557767,0.820689899999999,0.9782998,0.06760621,-0.1777433,-41.28313,-22.89434,-2.451742
39.7,0.1045742,-0.4735897,0.5153941,0.980783,0.06323051,-0.1820893,-41.28313,-22.89434,-2.451742
39.71,0.415704,-0.2968701,0.759630700000001,0.9856742,0.05894829,-0.1782255,-41.28313,-22.89434,-2.451742
39.72,0.726833699999999,-0.2379636,0.576453200000001,0.9783544,0.06273639,-0.1811315,-41.28313,-22.89434,-2.451742
39.73,0.975737500000002,-0.2379636,0.5153941,0.9764557,0.05975639,-0.1878985,-41.28313,-22.89434,-2.451742
39.74,1.037963,-0.1790571,0.576453200000001,0.9773841,0.06225366,-0.18017,-41.28313,-22.89434,-2.451742
39.75,0.851285599999998,-0.2379636,0.881749099999998,0.979829,0.05894219,-0.1738976,-41.28313,-22.89434,-2.451742
39.76,0.975737500000002,-0.1790571,0.5153941,0.9753944,0.06707762,-0.1801647,-41.28313,-22.89434,-2.451742
39.77,0.975737500000002,-0.1201506,0.5153941,0.9851527,0.06328219,-0.1801477,-41.28313,-22.89434,-2.451742
39.78,1.473545,-0.002337579,0.6375124,0.9797994,0.06513668,-0.1845005,-41.2919,-22.2359,-2.841541
39.79,1.224641,-0.0612440899999998,0.576453200000001,0.9740239,0.0597418,-0.1874223,-41.2919,-22.2359,-2.841541
39.8,1.162415,-0.3557767,0.3932757,0.9726231,0.05344391,-0.1869569,-41.2919,-22.2359,-2.841541
39.81,0.789059599999997,-0.002337579,0.6375124,0.9799038,0.05259873,-0.1797017,-41.2919,-22.2359,-2.841541
39.82,0.726833699999999,-0.0612440899999998,0.3932757,0.9803438,0.05697527,-0.1777609,-41.2919,-22.2359,-2.841541
39.83,0.975737500000002,-0.2968701,0.576453200000001,0.9793663,0.0593303,-0.1840315,-40.98665,-22.23788,-2.838641
39.84,1.100189,-0.1790571,0.698571599999999,0.9779269,0.05550456,-0.1777703,-40.98665,-22.23788,-2.838641
39.85,0.913511500000001,-0.2379636,0.6375124,0.9827506,0.06270044,-0.188841,-40.98665,-22.23788,-2.838641
39.86,0.851285599999998,-0.2379636,0.698571599999999,0.9788303,0.06464955,-0.1840215,-40.98665,-22.23788,-2.838641
39.87,0.726833699999999,-0.1201506,0.3932757,0.9764976,0.05211454,-0.1768162,-40.98665,-22.23788,-2.838641
39.88,1.162415,-0.2379636,0.2711574,0.9794313,0.05348827,-0.1879043,-41.65619,-22.52945,-2.461058
39.89,1.100189,-0.2379636,0.2711574,0.9784337,0.05356393,-0.1787383,-41.65619,-22.52945,-2.461058
39.9,1.037963,-0.0612440899999998,0.3932757,0.9735886,0.05347341,-0.1845416,-41.65619,-22.52945,-2.461058
39.91,1.349093,-0.002337579,0.3322166,0.9798723,0.05692328,-0.1830703,-41.65619,-22.52945,-2.461058
39.92,1.660223,0.05656894,0.0879799099999998,0.9745182,0.05831138,-0.1854939,-41.65619,-22.52945,-2.461058
39.93,1.411319,-0.827028800000001,0.0879799099999998,0.976481,0.05732806,-0.1888688,-41.28988,-22.53182,-2.457577
39.94,0.664607699999999,-1.062655,0.3322166,0.9823386,0.05119663,-0.1763206,-41.28988,-22.53182,-2.457577
39.95,0.726833699999999,-0.4735897,0.4543349,0.9788456,0.05944043,-0.1714864,-41.28988,-22.53182,-2.457577
39.96,0.415704,-0.6503092,0.3322166,0.9754612,0.05841536,-0.1748751,-41.28988,-22.53182,-2.457577
39.97,0.664607699999999,-0.6503092,0.2711574,0.9793122,0.06372934,-0.1791967,-41.29551,-22.22972,-2.462439
39.98,0.913511500000001,-0.885935200000002,0.3932757,0.9749772,0.06121866,-0.1854864,-41.29551,-22.22972,-2.462439
39.99,0.975737500000002,-0.944841800000002,0.3932757,0.9793572,0.05795304,-0.1758312,-41.29551,-22.22972,-2.462439
40,0.4779299,-0.885935200000002,0.2711574,0.9783983,0.05555655,-0.172461,-41.29551,-22.22972,-2.462439
40.01,0.2290261,-0.885935200000002,0.5153941,0.9793818,0.05505832,-0.1748722,-41.29551,-22.22972,-2.462439
40.02,-0.2065556,-1.003748,0.02692074,0.9719581,0.06622345,-0.1647339,-41.29551,-22.22972,-2.462439
40.03,-0.5176854,-1.357187,0.02692074,0.9685631,0.06757852,-0.1724605,-40.98463,-22.5338,-2.454677
40.04,-0.704363199999999,-1.65172,0.0879799099999998,0.9764246,0.06032794,-0.1782464,-40.98463,-22.5338,-2.454677
40.05,-0.766589199999999,-1.828439,0.0879799099999998,0.9846688,0.05905024,-0.1661641,-40.98463,-22.5338,-2.454677
40.06,-0.704363199999999,-2.005159,0.881749099999998,0.9954309,0.051875,-0.1661518,-40.98463,-22.5338,-2.454677
40.07,0.1045742,-1.769533,0.820689899999999,0.9964096,0.05092352,-0.1651862,-40.98568,-22.88293,-1.627452
40.08,1.411319,-1.592813,0.576453200000001,0.9939345,0.05855516,-0.1753097,-40.98568,-22.88293,-1.627452
40.09,1.722449,-1.298281,0.0879799099999998,0.9807695,0.06233718,-0.1738879,-40.98568,-22.88293,-1.627452
40.1,2.282483,-1.239374,-0.3394342,0.9763423,0.07091708,-0.184497,-40.98568,-22.88293,-1.627452
40.11,2.282483,-1.357187,-0.8279076,0.9739549,0.06794205,-0.1903001,-40.98568,-22.88293,-1.627452
40.12,1.162415,-1.121561,-1.255322,0.9754013,0.06564779,-0.177755,-41.64943,-22.89197,-2.455223
40.13,0.1668001,-1.003748,-1.37744,0.9691668,0.05969071,-0.1888825,-41.64943,-22.89197,-2.455223
40.14,0.1045742,-0.591402700000002,-1.316381,0.9746195,0.04859804,-0.1893749,-41.64943,-22.89197,-2.455223
40.15,0.789059599999997,-0.4735897,-0.766848400000001,0.9776373,0.03890747,-0.1932483,-41.64943,-22.89197,-2.455223
40.16,2.469161,-0.4735897,-0.4004934,0.9781394,0.03651361,-0.1908394,-41.64943,-22.89197,-2.455223
40.17,4.895973,-0.4146832,-0.4004934,0.9800428,0.03994685,-0.1874493,-41.28419,-23.24347,-1.624518
40.18,6.01604000000002,-0.591402700000002,-0.3394342,0.9765911,0.04336466,-0.1811777,-41.28419,-23.24347,-1.624518
40.19,6.887203,-0.2379636,-0.5226117,0.9862877,0.0472768,-0.1850047,-41.28419,-23.24347,-1.624518
40.2,6.762751,0.1154754,-0.4615526,0.9828015,0.05878092,-0.1941574,-41.28419,-23.24347,-1.624518
40.21,6.01604000000002,0.4689145,-0.583670900000002,0.9827175,0.0684373,-0.1965496,-41.28419,-23.24347,-1.624518
40.22,4.833747,0.586727600000001,-0.644730100000001,0.9763496,0.07839681,-0.2134338,-41.65304,-22.88579,-2.07612
40.23,3.962583,0.3511015,-0.705789299999999,0.9661831,0.07771054,-0.2269729,-41.65304,-22.88579,-2.07612
40.24,2.406934,0.1154754,-0.2783751,0.9598343,0.07682045,-0.2129972,-41.65304,-22.88579,-2.07612
40.25,1.784675,0.1154754,-0.3394342,0.9619537,0.0570302,-0.2091739,-41.65304,-22.88579,-2.07612
40.26,2.033579,-0.1201506,0.0879799099999998,0.9586241,0.04644516,-0.1995543,-41.65304,-22.88579,-2.07612
40.27,2.406934,-0.1201506,-0.1562568,0.971276,0.04415492,-0.1961487,-41.28313,-22.89434,-2.451742
40.28,2.718064,-0.2379636,0.6375124,0.9761019,0.04946771,-0.2014329,-41.28313,-22.89434,-2.451742
40.29,2.033579,-0.5324962,0.881749099999998,0.9721382,0.0581259,-0.2038373,-41.28313,-22.89434,-2.451742
40.3,1.286867,-1.062655,1.309163,0.984752,0.05924496,-0.1980117,-41.28313,-22.89434,-2.451742
40.31,1.473545,-1.003748,1.125986,0.9885482,0.06380143,-0.1791727,-41.28313,-22.89434,-2.451742
40.32,1.722449,-0.4146832,0.6375124,0.9890156,0.06621166,-0.180614,-41.29094,-22.88095,-1.630352
40.33,1.411319,-0.1201506,0.0879799099999998,0.9817464,0.06514309,-0.1854605,-41.29094,-22.88095,-1.630352
40.34,0.415704,-0.0612440899999998,-0.1562568,0.9710988,0.0602161,-0.1859811,-41.29094,-22.88095,-1.630352
40.35,-1.202171,-0.1790571,0.3932757,0.9691021,0.06646989,-0.1883856,-41.29094,-22.88095,-1.630352
40.36,-1.451075,-0.591402700000002,0.5153941,0.9671171,0.07409218,-0.1999555,-41.29094,-22.88095,-1.630352
40.37,-1.202171,-0.6503092,0.6375124,0.9670692,0.07894009,-0.1989801,-41.65049,-23.2411,-1.627998
40.38,-0.953267000000001,-1.416094,0.881749099999998,0.9782946,0.07090597,-0.1873872,-41.65049,-23.2411,-1.627998
40.39,-1.202171,-1.475,1.187045,0.983143,0.07051697,-0.1811024,-41.65049,-23.2411,-1.627998
40.4,-0.953267000000001,-1.357187,1.492341,0.978694,0.07729267,-0.177239,-41.65049,-23.2411,-1.627998
40.41,-0.4554594,-0.768122299999998,1.370222,0.9791916,0.07772779,-0.1830273,-41.65049,-23.2411,-1.627998
40.42,-0.891041099999997,-0.4146832,1.003867,0.9786865,0.07919326,-0.1810953,-40.99244,-22.52041,-1.633286
40.43,-2.197786,-0.0612440899999998,1.431281,0.9767762,0.07718986,-0.1868951,-40.99244,-22.52041,-1.633286
40.44,-2.820045,0.2332885,1.187045,0.9791759,0.07871753,-0.1806125,-40.99244,-22.52041,-1.633286
40.45,-3.442305,0.5278211,1.064927,0.9777766,0.07100734,-0.1758072,-40.99244,-22.52041,-1.633286
40.46,-4.562372,0.704540600000002,0.6375124,0.9758591,0.0694966,-0.1806409,-40.99244,-22.52041,-1.633286
40.47,-5.806891,0.410008,1.064927,0.9855956,0.06624205,-0.1743496,-41.29094,-22.88095,-1.630352
40.48,-5.869117,0.3511015,1.431281,0.984615,0.06673152,-0.1729035,-41.29094,-22.88095,-1.630352
40.49,-5.122406,0.8223537,1.5534,0.983162,0.06435753,-0.1666392,-41.29094,-22.88095,-1.630352
40.5,-4.002338,1.116886,1.614459,0.9852284,0.05271496,-0.1714844,-41.29094,-22.88095,-1.630352
40.51,-3.380079,1.411419,1.614459,0.9901248,0.0484152,-0.1695508,-41.29094,-22.88095,-1.630352
40.52,-2.944497,1.175793,1.492341,0.9833084,0.04980505,-0.1705305,-41.29769,-22.51843,-1.636187
40.53,-2.633368,1.352512,1.370222,0.9824611,0.0390681,-0.1797242,-41.29769,-22.51843,-1.636187
40.54,-2.75782,1.882671,1.187045,0.9770204,0.05012134,-0.1835748,-41.29769,-22.51843,-1.636187
40.55,-2.75782,1.764858,1.431281,0.9727067,0.04519546,-0.1893871,-41.29769,-22.51843,-1.636187
40.56,-2.633368,1.411419,1.492341,0.9707171,0.05001943,-0.1893819,-41.29769,-22.51843,-1.636187
40.57,-2.44669,0.8223537,1.431281,0.9760291,0.05064586,-0.1782682,-41.28674,-22.88816,-2.072639
40.58,-1.886656,0.881260199999998,1.675518,0.9823422,0.05259141,-0.1825907,-41.28674,-22.88816,-2.072639
40.59,-1.264397,0.645634099999999,1.431281,0.9832301,0.06272614,-0.186427,-41.28674,-22.88816,-2.072639
40.6,-0.3932334,0.704540600000002,1.064927,0.9797612,0.06948314,-0.1854563,-41.28674,-22.88816,-2.072639
40.61,-0.642137300000001,0.940166700000002,0.698571599999999,0.9788769,0.06215111,-0.1927126,-41.28674,-22.88816,-2.072639
40.62,-1.264397,0.881260199999998,0.576453200000001,0.9759555,0.06167511,-0.1893433,-41.65724,-22.87857,-1.633833
40.63,-2.197786,0.999073199999999,0.2711574,0.9715852,0.05881196,-0.1811574,-41.65724,-22.87857,-1.633833
40.64,-3.068949,1.05798,-0.03413842,0.9687186,0.05205822,-0.1763538,-41.65724,-22.87857,-1.633833
40.65,-3.877887,0.704540600000002,0.02692074,0.9691917,0.05304298,-0.1749029,-41.65724,-22.87857,-1.633833
40.66,-3.877887,0.1154754,0.5153941,0.9760779,0.04391926,-0.1729745,-41.35093,-22.53143,-2.458157
40.67,-3.317853,0.292195,1.003867,0.9891428,0.04890905,-0.1676221,-41.35093,-22.53143,-2.458157
40.68,-2.820045,1.175793,0.9428082,0.9915552,0.05086367,-0.1676116,-41.35093,-22.53143,-2.458157
40.69,-2.820045,1.764858,1.248104,0.9906434,0.04784306,-0.1796842,-41.35093,-22.53143,-2.458157
40.7,-2.322238,2.118297,1.064927,0.9814281,0.04582655,-0.1806774,-41.35093,-22.53143,-2.458157
40.71,-2.197786,2.23611,1.003867,0.9736723,0.04287988,-0.1787736,-41.29551,-22.22972,-2.462439
40.72,-1.637753,2.295016,0.881749099999998,0.9809769,0.04430091,-0.1884026,-41.29551,-22.22972,-2.462439
40.73,-0.579911399999998,1.941577,0.6375124,0.9813895,0.05064378,-0.1830799,-41.29551,-22.22972,-2.462439
40.74,0.1045742,2.177203,0.4543349,0.9827368,0.06321502,-0.1854621,-41.29551,-22.22972,-2.462439
40.75,0.664607699999999,2.589549,0.3322166,0.9769048,0.06551019,-0.1941581,-41.29551,-22.22972,-2.462439
40.76,0.5401558,2.825175,0.2711574,0.9725221,0.06643949,-0.19465,-41.29551,-22.22972,-2.462439
40.77,0.1668001,2.648455,0.4543349,0.9701185,0.06492496,-0.1994849,-41.29551,-22.22972,-2.462439
40.78,-0.642137300000001,2.05939,0.5153941,0.9677575,0.05623497,-0.1951668,-41.29551,-22.22972,-2.462439
40.79,-0.704363199999999,2.177203,0.576453200000001,0.9774301,0.06022598,-0.1903077,-41.29551,-22.22972,-2.462439
40.8,-0.891041099999997,2.000484,0.5153941,0.9740888,0.05389978,-0.191295,-41.29551,-22.22972,-2.462439
40.81,-0.891041099999997,2.177203,0.5153941,0.9746176,0.04907319,-0.190339,-41.29551,-22.22972,-2.462439
40.82,-0.642137300000001,2.23611,0.759630700000001,0.9703233,0.04220729,-0.1966379,-41.29551,-22.22972,-2.462439
40.83,-1.326623,1.647045,1.003867,0.9688882,0.03930556,-0.1952002,-41.29551,-22.22972,-2.462439
40.84,-1.575527,0.7634471,1.431281,0.9707543,0.04520658,-0.1864969,-41.29551,-22.22972,-2.462439
40.85,-1.264397,0.586727600000001,1.370222,0.9784984,0.04912984,-0.1874335,-41.29551,-22.22972,-2.462439
40.86,-0.642137300000001,0.704540600000002,1.064927,0.9798687,0.0555285,-0.1768002,-40.62395,-22.23408,-2.456059
40.87,-0.579911399999998,0.940166700000002,0.881749099999998,0.9857197,0.0550463,-0.1816116,-40.62395,-22.23408,-2.456059
40.88,-0.766589199999999,0.8223537,0.6375124,0.982342,0.05165425,-0.1792149,-40.62395,-22.23408,-2.456059
40.89,-0.2687815,0.8223537,0.2711574,0.9765337,0.05293339,-0.193221,-40.62395,-22.23408,-2.456059
40.9,-0.2687815,0.2332885,0.2100982,0.979472,0.04913304,-0.1879136,-40.62395,-22.23408,-2.456059
40.91,-0.3310075,-0.0612440899999998,0.2100982,0.9766089,0.04283692,-0.1860043,-40.97787,-22.89632,-2.448842
40.92,0.291252,0.174382,0.1490391,0.9853082,0.04541681,-0.1758428,-40.97787,-22.89632,-2.448842
40.93,0.975737500000002,0.292195,0.02692074,0.9828418,0.04786122,-0.1710184,-40.97787,-22.89632,-2.448842
40.94,1.224641,0.8223537,-0.1562568,0.9794982,0.04013585,-0.1662181,-40.97787,-22.89632,-2.448842
40.95,1.162415,0.999073199999999,-0.1562568,0.9843734,0.04059637,-0.1729603,-40.97787,-22.89632,-2.448842
40.96,1.473545,0.999073199999999,-0.1562568,0.9741971,0.03806644,-0.1763698,-41.2919,-22.2359,-2.841541
40.97,1.784675,0.586727600000001,-0.2783751,0.9707544,0.0428615,-0.1782986,-41.2919,-22.2359,-2.841541
40.98,1.597997,-0.1790571,-0.2783751,0.9677734,0.04820999,-0.1729867,-41.2919,-22.2359,-2.841541
40.99,1.100189,-0.1201506,-0.0951975900000001,0.9798852,0.05266007,-0.1729459,-41.2919,-22.2359,-2.841541
41,0.726833699999999,0.1154754,-0.03413842,0.977822,0.06382311,-0.1676192,-41.2919,-22.2359,-2.841541
41.01,0.789059599999997,0.1154754,0.02692074,0.9827973,0.05551183,-0.1811356,-41.29551,-22.22972,-2.462439
41.02,1.162415,0.1154754,0.3322166,0.978869,0.05983232,-0.181619,-41.29551,-22.22972,-2.462439
41.03,1.349093,-0.1201506,0.2711574,0.9788961,0.05458376,-0.1734269,-41.29551,-22.22972,-2.462439
41.04,1.100189,0.174382,0.1490391,0.9837282,0.05565525,-0.1661739,-41.29551,-22.22972,-2.462439
41.05,0.851285599999998,-0.0612440899999998,0.2100982,0.9832041,0.05999792,-0.167131,-41.29551,-22.22972,-2.462439
41.06,0.602381800000001,-0.002337579,0.0879799099999998,0.9817575,0.05900995,-0.1681019,-41.28628,-22.538,-2.836679
41.07,0.1045742,0.292195,-0.3394342,0.9788182,0.06140675,-0.1681044,-41.28628,-22.538,-2.836679
41.08,-0.4554594,0.1154754,-0.2173159,0.9735163,0.05887096,-0.1763268,-41.28628,-22.538,-2.836679
41.09,-0.8288152,-0.1201506,-0.2783751,0.9803745,0.04983925,-0.1642648,-41.28628,-22.538,-2.836679
41.1,-0.0821036699999998,0.3511015,0.02692074,0.9862118,0.04987164,-0.1656974,-41.28628,-22.538,-2.836679
41.11,1.286867,0.3511015,-0.2783751,0.9803246,0.05750738,-0.1724518,-41.2877,-22.24312,-3.283828
41.12,1.909127,0.3511015,-0.4615526,0.9837492,0.05464799,-0.1705189,-41.2877,-22.24312,-3.283828
41.13,1.909127,-0.1201506,-0.4615526,0.9856694,0.05849504,-0.1748486,-41.2877,-22.24312,-3.283828
41.14,1.784675,-0.1201506,-0.4615526,0.9798788,0.05361914,-0.1739089,-41.2877,-22.24312,-3.283828
41.15,1.784675,-0.1790571,-0.4004934,0.976932,0.05557146,-0.1695694,-41.2877,-22.24312,-3.283828
41.16,1.846901,0.2332885,-0.2173159,0.9754107,0.06327203,-0.1729346,-41.66181,-22.22735,-2.465919
41.17,1.784675,0.1154754,-0.2173159,0.9758222,0.07290153,-0.1787035,-41.66181,-22.22735,-2.465919
41.18,1.909127,-0.0612440899999998,-0.2783751,0.979164,0.07641189,-0.1680712,-41.66181,-22.22735,-2.465919
41.19,1.473545,0.4689145,-0.2783751,0.9840165,0.07694688,-0.1666099,-41.66181,-22.22735,-2.465919
41.2,0.789059599999997,0.940166700000002,-0.2173159,0.9825899,0.0735481,-0.1666209,-41.66181,-22.22735,-2.465919
41.21,0.4779299,0.999073199999999,-0.2783751,0.9783477,0.0627583,-0.1787188,-41.28988,-22.53182,-2.457577
41.22,0.291252,0.645634099999999,-0.2783751,0.9725622,0.05692771,-0.1763335,-41.28988,-22.53182,-2.457577
41.23,0.1045742,0.2332885,0.02692074,0.971612,0.05497132,-0.1777878,-41.28988,-22.53182,-2.457577
41.24,0.2290261,-0.2968701,0.0879799099999998,0.9690937,0.06227678,-0.1705403,-41.28988,-22.53182,-2.457577
41.25,0.291252,-0.3557767,0.2100982,0.9802352,0.06624413,-0.169538,-41.28988,-22.53182,-2.457577
41.26,0.353478,-0.2968701,0.3932757,0.9811541,0.07111715,-0.1666298,-42.01889,-22.53325,-2.84364
41.27,-0.4554594,-0.3557767,0.2100982,0.9768495,0.06522345,-0.1724442,-42.01889,-22.53325,-2.84364
41.28,-0.642137300000001,-0.2379636,0.3322166,0.9836552,0.06386864,-0.167604,-42.01889,-22.53325,-2.84364
41.29,-1.015493,0.05656894,0.3322166,0.981332,0.0545852,-0.1753508,-42.01889,-22.53325,-2.84364
41.3,-1.637753,-0.002337579,0.4543349,0.9799281,0.04876685,-0.1753669,-41.34312,-22.54482,-3.279546
41.31,-1.699978,0.05656894,0.5153941,0.9751077,0.04437368,-0.1753888,-41.34312,-22.54482,-3.279546
41.32,-2.197786,-0.1201506,0.3932757,0.9770037,0.04970753,-0.175855,-41.34312,-22.54482,-3.279546
41.33,-2.384464,-0.3557767,0.2711574,0.9760693,0.0467614,-0.1797241,-41.34312,-22.54482,-3.279546
41.34,-1.699978,-0.944841800000002,0.2711574,0.9750614,0.05015436,-0.1782718,-41.34312,-22.54482,-3.279546
41.35,-1.451075,-1.298281,0.2711574,0.9798614,0.05602118,-0.175834,-41.34312,-22.54482,-3.279546
41.36,-1.264397,-1.062655,0.1490391,0.9799169,0.05161776,-0.1811514,-41.65258,-22.53563,-2.84016
41.37,-1.015493,-0.885935200000002,0.0879799099999998,0.9842743,0.05077171,-0.171491,-41.65258,-22.53563,-2.84016
41.38,-1.015493,-0.4146832,0.02692074,0.9837633,0.05507056,-0.1772737,-41.65258,-22.53563,-2.84016
41.39,-1.202171,-0.6503092,0.02692074,0.9823447,0.04930041,-0.1719817,-41.65258,-22.53563,-2.84016
41.4,-1.575527,-0.5324962,0.1490391,0.976525,0.05014821,-0.1801982,-41.28628,-22.538,-2.836679
41.41,-1.513301,-0.768122299999998,-0.03413842,0.9750361,0.05258269,-0.1773015,-41.28628,-22.538,-2.836679
41.42,-1.326623,-1.180468,-0.03413842,0.9764363,0.05700626,-0.1710153,-41.28628,-22.538,-2.836679
41.43,-0.891041099999997,-1.003748,0.3322166,0.9812564,0.06046227,-0.1676176,-41.28628,-22.538,-2.836679
41.44,-0.642137300000001,-0.709215699999997,0.0879799099999998,0.9832134,0.05762217,-0.1623106,-41.28628,-22.538,-2.836679
41.45,-0.704363199999999,-0.2968701,0.0879799099999998,0.9895613,0.05476363,-0.1627829,-41.35093,-22.53143,-2.458157
41.46,-0.3932334,0.5278211,0.3932757,0.9886113,0.05608948,-0.1758113,-41.35093,-22.53143,-2.458157
41.47,-0.2065556,0.881260199999998,0.3932757,0.9794305,0.05302189,-0.1859751,-41.35093,-22.53143,-2.458157
41.48,-0.704363199999999,0.5278211,0.3932757,0.9755728,0.04772982,-0.1792408,-41.35093,-22.53143,-2.458157
41.49,-0.953267000000001,0.410008,0.3932757,0.979935,0.0496821,-0.1811555,-41.35093,-22.53143,-2.458157
41.5,-0.3932334,0.2332885,0.0879799099999998,0.9823007,0.05882533,-0.1888505,-41.28313,-22.89434,-2.451742
41.51,0.664607699999999,0.645634099999999,-0.2783751,0.9798905,0.05498762,-0.1830744,-41.28313,-22.89434,-2.451742
41.52,1.349093,0.5278211,-0.03413842,0.9774833,0.05536055,-0.1932133,-41.28313,-22.89434,-2.451742
41.53,1.535771,0.3511015,-0.2783751,0.9736123,0.05245738,-0.1898517,-41.28313,-22.89434,-2.451742
41.54,1.597997,0.4689145,-0.0951975900000001,0.9779639,0.05444472,-0.187906,-41.28313,-22.89434,-2.451742
41.55,1.784675,0.3511015,-0.2173159,0.9692651,0.04904898,-0.1884226,-41.65258,-22.53563,-2.84016
41.56,1.784675,-0.0612440899999998,-0.3394342,0.9686842,0.05779946,-0.1835798,-41.65258,-22.53563,-2.84016
41.57,0.975737500000002,-0.5324962,-0.1562568,0.9724873,0.06796134,-0.186926,-41.65258,-22.53563,-2.84016
41.58,-0.3310075,-0.885935200000002,-0.1562568,0.9768289,0.07045011,-0.1830491,-41.65258,-22.53563,-2.84016
41.59,-0.953267000000001,-0.944841800000002,0.0879799099999998,0.9782692,0.07005207,-0.1748429,-41.65258,-22.53563,-2.84016
41.6,-1.077719,-1.003748,0.2100982,0.9811531,0.07440378,-0.1777214,-41.27953,-22.90052,-2.830845
41.61,-0.891041099999997,-0.591402700000002,0.2100982,0.9816636,0.07151285,-0.1767612,-41.27953,-22.90052,-2.830845
41.62,-1.388849,-0.2968701,0.3322166,0.986105,0.06335551,-0.1729069,-41.27953,-22.90052,-2.830845
41.63,-1.388849,-0.2379636,0.0879799099999998,0.9803106,0.0594299,-0.1738953,-41.27953,-22.90052,-2.830845
41.64,-1.202171,-0.1201506,0.2100982,0.9846951,0.05802545,-0.1724394,-41.27953,-22.90052,-2.830845
41.65,-1.388849,-0.3557767,-0.0951975900000001,0.9735426,0.05550108,-0.1744038,-41.65821,-22.23353,-2.845022
41.66,-2.322238,-0.2379636,-0.2173159,0.9759706,0.05318374,-0.1652341,-41.65821,-22.23353,-2.845022
41.67,-2.13556,-0.2968701,-0.1562568,0.9677629,0.05152728,-0.1807004,-41.65821,-22.23353,-2.845022
41.68,-0.953267000000001,-0.6503092,0.02692074,0.9550373,0.06250169,-0.1869827,-41.65821,-22.23353,-2.845022
41.69,-0.3310075,-1.062655,0.0879799099999998,0.9434238,0.05426296,-0.1783445,-41.65821,-22.23353,-2.845022
41.7,-0.2065556,-1.946253,0.881749099999998,0.9444909,0.04317119,-0.1749878,-41.27953,-22.90052,-2.830845
41.71,0.353478,-2.417505,2.408228,0.9596022,0.03658413,-0.1672422,-41.27953,-22.90052,-2.830845
41.72,0.851285599999998,-2.417505,3.140938,0.9756043,0.04106018,-0.1676738,-41.27953,-22.90052,-2.830845
41.73,1.784675,-2.240785,4.056826,0.9716447,0.05533255,-0.1912983,-41.27953,-22.90052,-2.830845
41.74,1.162415,-3.18329,4.056826,0.9530755,0.07192381,-0.2135077,-41.27953,-22.90052,-2.830845
41.75,-1.326623,-5.657363,3.446234,0.9334056,0.0987792,-0.2236343,-40.99025,-22.2317,-2.459538
41.76,-3.691209,-8.48487599999998,2.28611,0.932366,0.1079046,-0.230373,-40.99025,-22.2317,-2.459538
41.77,-5.433536,-10.66442,2.163991,0.9577001,0.09900396,-0.2197107,-40.99025,-22.2317,-2.459538
41.78,-6.678055,-10.72332,2.408228,0.9994063,0.09543513,-0.1689432,-40.99025,-22.2317,-2.459538
41.79,-7.67366999999998,-8.07253099999998,3.201997,1.041164,0.08982109,-0.1302437,-40.99025,-22.2317,-2.459538
41.8,-7.79812199999999,-4.1847,3.324116,1.040319,0.07204013,-0.1158076,-41.30332,-22.21633,-1.641048
41.81,-6.242473,-2.535318,3.324116,1.007113,0.03925092,-0.1275449,-41.30332,-22.21633,-1.641048
41.82,-4.189016,-3.418916,3.385175,0.986035,0.0052319,-0.1252597,-41.30332,-22.21633,-1.641048
41.83,-2.073334,-4.655952,3.934707,0.9841339,-0.002429504,-0.114665,-41.30332,-22.21633,-1.641048
41.84,-0.2065556,-5.657363,3.873648,0.9946751,0.01222835,-0.1083331,-41.30332,-22.21633,-1.641048
41.85,0.975737500000002,-4.891578,4.48424,1.020053,0.0441862,-0.07490312,-41.67217,-21.85864,-2.09265
41.86,2.220257,-2.299692,4.911654,1.038191,0.07544547,-0.05886503,-41.67217,-21.85864,-2.09265
41.87,3.215872,-0.0612440899999998,4.911654,1.04172,0.1174624,-0.07131186,-41.67217,-21.85864,-2.09265
41.88,4.398165,1.234699,4.545299,1.037737,0.1365038,-0.1026469,-41.67217,-21.85864,-2.09265
41.89,5.331554,1.882671,3.75153,1.022522,0.1575031,-0.1219429,-42.02812,-22.22497,-2.469399
41.9,4.149261,2.471736,3.01882,1.001227,0.1490527,-0.1282891,-42.02812,-22.22497,-2.469399
41.91,2.406934,2.353923,2.469287,0.9999036,0.1354654,-0.1312171,-42.02812,-22.22497,-2.469399
41.92,1.037963,3.237521,1.5534,1.014867,0.09633841,-0.1360881,-42.02812,-22.22497,-2.469399
41.93,1.224641,4.415651,1.187045,0.9936263,0.08255176,-0.1438933,-42.02812,-22.22497,-2.469399
41.94,2.966968,3.944399,0.576453200000001,0.9689595,0.07303682,-0.1579713,-42.02812,-22.22497,-2.469399
41.95,5.020424,2.23611,0.1490391,0.9545566,0.05544512,-0.1643194,-42.40899,-21.84668,-1.657324
41.96,6.576073,1.293606,0.4543349,0.9605978,0.03698361,-0.1773723,-42.40899,-21.84668,-1.657324
41.97,8.19394799999998,0.586727600000001,0.9428082,0.9547684,0.04396018,-0.20343,-42.40899,-21.84668,-1.657324
41.98,8.94065999999999,-1.003748,0.9428082,0.9435581,0.05147532,-0.2188843,-42.40899,-21.84668,-1.657324
41.99,7.75836700000001,-3.065476,1.003867,0.937661,0.05633028,-0.2121334,-41.68673,-21.48273,-1.277095
42,5.518232,-4.420326,1.492341,0.9380798,0.06874934,-0.2304424,-41.68673,-21.48273,-1.277095
42.01,5.331554,-5.89298899999999,1.492341,0.9394744,0.07928852,-0.243445,-41.68673,-21.48273,-1.277095
42.02,4.958199,-6.069708,1.125986,0.9560056,0.07518499,-0.2298998,-41.68673,-21.48273,-1.277095
42.03,2.220257,-4.891578,1.675518,0.9825578,0.04015616,-0.2197731,-41.68673,-21.48273,-1.277095
42.04,0.602381800000001,-3.654541,2.041873,1.001845,0.001229794,-0.2062957,-41.67892,-21.49612,-2.098485
42.05,1.224641,-3.065476,1.797637,0.9994325,-0.004944227,-0.1913562,-41.67892,-21.49612,-2.098485
42.06,4.211487,-2.476411,1.614459,1.001322,-0.001933551,-0.1812113,-41.67892,-21.49612,-2.098485
42.07,7.509463,-2.064066,0.9428082,0.9958207,0.01916795,-0.1975868,-41.67892,-21.49612,-2.098485
42.08,9.68737100000002,-2.240785,0.2711574,0.9902654,0.03904118,-0.1893551,-41.67892,-21.49612,-2.098485
42.09,9.81182300000002,-1.592813,-0.644730100000001,0.9902846,0.03616399,-0.1864659,-41.67323,-22.20777,-1.265427
42.1,10.30963,-0.2968701,-1.194263,0.9942484,0.03313311,-0.203834,-41.67323,-22.20777,-1.265427
42.11,11.55415,1.352512,-2.354387,0.9841951,0.02269406,-0.225597,-41.67323,-22.20777,-1.265427
42.12,12.17641,2.412829,-3.453452,0.9702032,0.01051247,-0.222764,-41.67323,-22.20777,-1.265427
42.13,12.48754,3.060801,-3.392393,0.9743297,-0.0141587,-0.2252191,-41.67323,-22.20777,-1.265427
42.14,12.11418,3.59096,-2.720742,0.9959707,-0.0401494,-0.2281145,-42.05304,-21.48036,-1.280575
42.15,10.80744,5.358155,-1.316381,1.006127,-0.0366166,-0.2208425,-42.05304,-21.48036,-1.280575
42.16,8.87843300000002,7.24316400000003,0.02692074,0.9885641,-0.02763331,-0.2290718,-42.05304,-21.48036,-1.280575
42.17,7.322785,7.41988299999998,0.881749099999998,0.944744,-0.01601716,-0.2446014,-42.05304,-21.48036,-1.280575
42.18,4.584843,4.827997,0.6375124,0.9135147,-0.001799536,-0.2509245,-42.05304,-21.48036,-1.280575
42.19,3.40255,1.352512,0.576453200000001,0.9047744,-0.0009613486,-0.2577009,-42.04268,-21.84906,-1.653844
42.2,4.335939,-1.416094,0.698571599999999,0.9179373,-0.005205366,-0.256711,-42.04268,-21.84906,-1.653844
42.21,6.14049099999999,-2.947663,0.9428082,0.937959,-0.0142617,-0.2586091,-42.04268,-21.84906,-1.653844
42.22,7.82059199999998,-3.772354,1.431281,0.9544237,-0.01017374,-0.2489068,-42.04268,-21.84906,-1.653844
42.23,8.56730399999999,-4.243607,1.187045,0.9680709,-0.01393882,-0.2488797,-42.04268,-21.84906,-1.653844
42.24,8.69175500000001,-4.538139,1.248104,0.9712611,0.005078699,-0.2358018,-42.04314,-22.19921,-0.8898039
42.25,7.571689,-4.420326,0.759630700000001,0.9749011,0.02703416,-0.2193385,-42.04314,-22.19921,-0.8898039
42.26,6.762751,-4.243607,0.02692074,0.9956952,0.03505824,-0.2062389,-42.04314,-22.19921,-0.8898039
42.27,5.580458,-4.00798,-0.8279076,0.9980045,0.04954644,-0.2115098,-42.04314,-22.19921,-0.8898039
42.28,5.144876,-3.360009,-1.438499,0.986813,0.04996499,-0.209125,-42.04314,-22.19921,-0.8898039
42.29,4.584843,-3.00657,-1.926973,0.9797334,0.02904282,-0.2154614,-41.69033,-21.47655,-0.8979921
42.3,3.900357,-2.947663,-1.926973,0.9823427,0.008306062,-0.2097086,-41.69033,-21.47655,-0.8979921
42.31,3.278098,-2.299692,-1.438499,0.9825576,-0.01397589,-0.2121687,-41.69033,-21.47655,-0.8979921
42.32,3.527002,-1.357187,-0.888966700000001,0.971921,-0.01940871,-0.2151031,-41.69033,-21.47655,-0.8979921
42.33,3.962583,-0.768122299999998,-0.3394342,0.9632028,-0.02286441,-0.2151331,-41.69033,-21.47655,-0.8979921
42.34,5.76713600000002,-1.475,-0.03413842,0.9514982,-0.01626393,-0.2243175,-42.42295,-21.4718,-0.904953
42.35,7.322785,-2.712037,-0.03413842,0.9533171,-0.002703536,-0.2247662,-42.42295,-21.4718,-0.904953
42.36,8.31839999999998,-3.418916,-0.0951975900000001,0.9458957,0.008923594,-0.2170395,-42.42295,-21.4718,-0.904953
42.37,8.44285199999998,-4.066887,-0.5226117,0.954998,0.02163003,-0.2111982,-42.42295,-21.4718,-0.904953
42.38,8.75398199999999,-4.479232,-0.8279076,0.963664,0.0313547,-0.2135676,-42.42295,-21.4718,-0.904953
42.39,9.31401500000002,-4.1847,-0.888966700000001,0.9811115,0.03776027,-0.2159216,-41.37578,-22.19636,-0.4411364
42.4,9.56291900000002,-3.536729,-1.011085,0.9775685,0.05038996,-0.2077003,-41.37578,-22.19636,-0.4411364
42.41,9.00288599999999,-2.947663,-1.255322,0.9795813,0.04502074,-0.2144623,-41.37578,-22.19636,-0.4411364
42.42,7.571689,-1.769533,-1.37744,0.9752393,0.04159481,-0.2149634,-41.37578,-22.19636,-0.4411364
42.43,6.20271800000002,-1.828439,-1.621677,0.9655903,0.03565061,-0.2217568,-41.37578,-22.19636,-0.4411364
42.44,4.833747,-2.358598,-1.37744,0.9623137,0.02020015,-0.2150428,-41.68779,-21.83186,-0.4498711
42.45,4.584843,-2.535318,-0.888966700000001,0.9618858,0.011094,-0.2049299,-41.68779,-21.83186,-0.4498711
42.46,5.020424,-3.242196,-1.072144,0.954973,0.02030536,-0.1972072,-41.68779,-21.83186,-0.4498711
42.47,6.32716899999999,-4.125793,-1.011085,0.9630911,0.03538872,-0.1952236,-41.68779,-21.83186,-0.4498711
42.48,7.63391399999998,-3.831261,-1.255322,0.9727209,0.04327296,-0.1879436,-41.68779,-21.83186,-0.4498711
42.49,8.81620799999999,-3.949074,-1.194263,0.9761049,0.04805103,-0.1975755,-41.68464,-22.18819,-0.06493473
42.5,9.06511100000002,-3.418916,-1.194263,0.9693082,0.048438,-0.2024177,-41.68464,-22.18819,-0.06493473
42.51,8.19394799999998,-2.888757,-1.255322,0.9780918,0.0455809,-0.204814,-41.68464,-22.18819,-0.06493473
42.52,6.887203,-2.122972,-1.133204,0.9834696,0.04317678,-0.2077006,-41.68464,-22.18819,-0.06493473
42.53,5.642684,-1.416094,-1.743795,0.9892766,0.04190202,-0.1932119,-41.68464,-22.18819,-0.06493473
42.54,5.020424,-0.944841800000002,-2.171209,0.9897853,0.04183133,-0.201414,-42.43856,-21.44501,0.7378263
42.55,5.331554,-0.1201506,-2.659683,0.9892707,0.0447354,-0.2009266,-42.43856,-21.44501,0.7378263
42.56,5.89158800000002,0.05656894,-2.720742,0.9810202,0.04697216,-0.2139718,-42.43856,-21.44501,0.7378263
42.57,6.26494400000002,0.1154754,-2.720742,0.9708269,0.04543636,-0.214484,-42.43856,-21.44501,0.7378263
42.58,6.38939600000002,-0.1201506,-3.026038,0.9572148,0.05096182,-0.2338092,-42.43856,-21.44501,0.7378263
42.59,5.70491,-1.298281,-3.026038,0.9484864,0.05176057,-0.2449286,-42.42506,-22.17005,0.7494946
42.6,5.580458,-2.181879,-2.903919,0.9392771,0.04925576,-0.2464054,-42.42506,-22.17005,0.7494946
42.61,4.958199,-3.242196,-2.903919,0.9388109,0.04684116,-0.2454467,-42.42506,-22.17005,0.7494946
42.62,4.647069,-4.1847,-2.903919,0.9372719,0.05366154,-0.2391628,-42.42506,-22.17005,0.7494946
42.63,4.584843,-5.127204,-2.903919,0.934807,0.05938381,-0.2463951,-42.06551,-21.80991,0.7471409
42.64,4.709295,-6.36424099999997,-2.720742,0.9357855,0.0631225,-0.2618261,-42.06551,-21.80991,0.7471409
42.65,3.900357,-7.01221299999999,-2.415446,0.9319528,0.05915511,-0.2690828,-42.06551,-21.80991,0.7471409
42.66,2.220257,-8.36706299999998,-2.293328,0.9183618,0.05898314,-0.2763564,-42.06551,-21.80991,0.7471409
42.67,0.1668001,-10.19316,-1.865914,0.925178,0.05665613,-0.2720009,-42.06551,-21.80991,0.7471409
42.68,-2.322238,-11.19458,-1.011085,0.9324686,0.05061933,-0.2502804,-42.06911,-21.80372,1.126244
42.69,-4.002338,-11.78364,-0.03413842,0.9387883,0.04691565,-0.2372432,-42.06911,-21.80372,1.126244
42.7,-5.433536,-12.37271,0.759630700000001,0.9587169,0.04285621,-0.221759,-42.06911,-21.80372,1.126244
42.71,-5.06018,-11.13567,1.492341,0.9806009,0.04065119,-0.2168818,-42.06911,-21.80372,1.126244
42.72,-5.495761,-9.89863199999998,1.980814,0.9816236,0.0381472,-0.2270181,-42.06911,-21.80372,1.126244
42.73,-7.67366999999998,-10.31098,2.102932,0.9768888,0.02503043,-0.2285061,-41.69149,-22.81985,1.967644
42.74,-9.29154500000003,-10.72332,2.713524,0.9565637,0.01003186,-0.2107365,-41.69149,-22.81985,1.967644
42.75,-10.34939,-11.37129,3.263057,0.931785,0.00557514,-0.2006765,-41.69149,-22.81985,1.967644
42.76,-10.72274,-12.13708,4.117885,0.9283251,0.01042715,-0.196332,-41.69149,-22.81985,1.967644
42.77,-8.79373700000002,-12.54943,6.010719,0.9496185,0.01747406,-0.1846808,-41.69149,-22.81985,1.967644
42.78,-6.98918399999998,-10.72332,8.08673100000003,1.004884,0.03481731,-0.1873963,-41.33396,-22.16378,1.581326
42.79,-7.05140999999998,-8.24924900000001,9.00261899999998,1.033486,0.04749148,-0.2017717,-41.33396,-22.16378,1.581326
42.8,-8.17147700000002,-5.95189500000001,9.36897399999999,1.026735,0.04819587,-0.2249499,-41.33396,-22.16378,1.581326
42.81,-11.96726,-5.89298899999999,8.69732300000001,0.9945976,0.04859586,-0.2066951,-41.33396,-22.16378,1.581326
42.82,-15.32746,-7.36565199999998,8.45308599999998,0.9979823,0.04352284,-0.1820873,-41.33396,-22.16378,1.581326
42.83,-14.82965,-6.8944,9.00261899999998,1.011912,0.05919261,-0.1738144,-42.07798,-22.13946,2.774858
42.84,-11.0961,-5.716269,9.61321,1.025699,0.0837744,-0.1433254,-42.07798,-22.13946,2.774858
42.85,-6.491377,-3.772354,9.67427000000001,1.042095,0.1026271,-0.1596492,-42.07798,-22.13946,2.774858
42.86,-1.637753,-3.360009,8.69732300000001,1.003092,0.1256804,-0.1987867,-42.07798,-22.13946,2.774858
42.87,-0.8288152,-5.421737,7.41507999999999,0.9768217,0.1288279,-0.2027081,-42.07798,-22.13946,2.774858
42.88,-1.699978,-8.60268899999997,6.010719,0.9930071,0.1097192,-0.1891961,-41.71376,-21.43637,1.566176
42.89,-0.0821036699999998,-9.015035,4.789536,1.012658,0.0876153,-0.1887103,-41.71376,-21.43637,1.566176
42.9,3.09142,-6.95330600000001,3.995766,1.003327,0.1009876,-0.2002868,-41.71376,-21.43637,1.566176
42.91,5.518232,-5.421737,3.201997,0.978901,0.1208945,-0.2253996,-41.71376,-21.43637,1.566176
42.92,6.762751,-5.53955,2.835642,0.9438218,0.1335467,-0.2409044,-41.71376,-21.43637,1.566176
42.93,5.580458,-7.895811,1.431281,0.9267876,0.1316053,-0.2269586,-42.08728,-21.42163,2.320903
42.94,3.153646,-10.84114,0.5153941,0.9322673,0.1119819,-0.2076847,-42.08728,-21.42163,2.320903
42.95,3.527002,-11.31239,1.125986,0.9548216,0.08431726,-0.1825935,-42.08728,-21.42163,2.320903
42.96,6.576073,-10.42879,1.309163,0.9800614,0.09073533,-0.1902353,-42.08728,-21.42163,2.320903
42.97,9.00288599999999,-9.60409900000001,1.125986,0.9844221,0.1020723,-0.2244607,-42.08728,-21.42163,2.320903
42.98,8.94065999999999,-10.07535,-0.03413842,0.9699403,0.0955274,-0.2399537,-42.4749,-20.68082,3.127143
42.99,6.01604000000002,-12.01927,-1.37744,0.9498078,0.07192108,-0.2641838,-42.4749,-20.68082,3.127143
43,2.220257,-13.84537,-1.804854,0.9301838,0.03323641,-0.2440505,-42.4749,-20.68082,3.127143
43.01,-1.264397,-15.20022,-0.705789299999999,0.9284123,0.005918569,-0.2132307,-42.4749,-20.68082,3.127143
43.02,-3.442305,-14.43443,1.919755,0.9301702,0.01968051,-0.1914819,-42.4749,-20.68082,3.127143
43.03,-3.006723,-13.60974,3.75153,0.9390228,0.05853584,-0.1836547,-41.73659,-21.39721,3.967163
43.04,-2.384464,-12.84396,4.972713,0.9432882,0.07206262,-0.1898878,-41.73659,-21.39721,3.967163
43.05,-3.504531,-12.96177,6.37707400000001,0.9486712,0.07198605,-0.2029029,-41.73659,-21.39721,3.967163
43.06,-5.744665,-14.19881,7.41507999999999,0.9492285,0.06190652,-0.1942372,-41.73659,-21.39721,3.967163
43.07,-7.98479900000002,-15.37694,7.84249399999999,0.9570079,0.05586476,-0.1734806,-41.73659,-21.39721,3.967163
43.08,-10.78497,-14.90569,8.69732300000001,0.9765854,0.03447263,-0.147901,-42.47596,-21.02995,3.954367
43.09,-10.34939,-14.96459,9.43003299999998,0.986282,0.03603969,-0.1435297,-42.47596,-21.02995,3.954367
43.1,-9.47822299999997,-13.84537,9.43003299999998,0.9901227,0.03529062,-0.1227718,-42.47596,-21.02995,3.954367
43.11,-7.54921799999998,-15.14131,9.36897399999999,0.9714335,0.05133907,-0.09817547,-42.47596,-21.02995,3.954367
43.12,-5.806891,-15.37694,9.43003299999998,0.9854151,0.05511255,-0.06773072,-42.47596,-21.02995,3.954367
43.13,-3.442305,-14.37553,10.65122,1.014457,0.07638706,-0.09463283,-42.48376,-21.01655,4.775755
43.14,-0.3310075,-14.02209,10.5291,1.011898,0.09414145,-0.1090777,-42.48376,-21.01655,4.775755
43.15,0.291252,-14.25771,9.79638799999998,0.9971515,0.09831958,-0.06278209,-42.48376,-21.01655,4.775755
43.16,-1.451075,-14.1399,10.04062,0.9806554,0.08917586,-0.04305978,-42.48376,-21.01655,4.775755
43.17,-1.886656,-13.37412,10.46804,0.9837184,0.07370899,-0.04356768,-42.48376,-21.01655,4.775755
43.18,-1.015493,-12.19599,11.07863,0.9866958,0.06227556,-0.02621283,-42.13142,-20.64404,5.531609
43.19,-1.326623,-11.19458,11.26181,1.000867,0.04619542,0.002742083,-42.13142,-20.64404,5.531609
43.2,-0.642137300000001,-9.95753900000002,13.39888,1.032917,0.04467669,0.02115833,-42.13142,-20.64404,5.531609
43.21,-0.1443296,-6.59986700000002,14.31477,1.043953,0.04758664,0.06558754,-42.13142,-20.64404,5.531609
43.22,1.535771,-2.594224,14.43688,1.024905,0.05195601,0.08340211,-42.50193,-20.63445,5.970413
43.23,5.020424,0.586727600000001,13.15464,1.011617,0.06740016,0.09015673,-42.50193,-20.63445,5.970413
43.24,8.81620799999999,3.767679,12.78829,1.021642,0.07933916,0.117231,-42.50193,-20.63445,5.970413
43.25,11.92751,9.30489199999999,11.44499,1.049172,0.09092644,0.1438671,-42.50193,-20.63445,5.970413
43.26,13.1098,13.66397,11.32287,1.076273,0.09763575,0.1666312,-42.50193,-20.63445,5.970413
43.27,13.29648,22.0287,10.34592,1.075032,0.1224348,0.1806752,-42.50193,-20.63445,5.970413
43.28,10.12295,30.57014,9.185796,1.081384,0.1261276,0.155607,-42.87498,-20.26956,5.9611
43.29,6.576073,40.17191,6.49919199999998,1.068103,0.1471728,0.1396939,-42.87498,-20.26956,5.9611
43.3,3.278098,49.59695,2.469287,1.058497,0.1434335,0.1092605,-42.87498,-20.26956,5.9611
43.31,1.286867,60.3768399999998,1.919755,1.042155,0.1244012,0.1057996,-42.87498,-20.26956,5.9611
43.32,0.04234824,73.3951799999999,2.530346,1.073911,0.06858199,0.06040191,-43.24385,-19.91187,5.509499
43.33,-3.691209,85.2943,4.667417,1.125475,0.01989037,0.03678532,-43.24385,-19.91187,5.509499
43.34,-10.16271,97.1345100000002,10.95651,1.232804,-0.01525103,0.01864972,-43.24385,-19.91187,5.509499
43.35,-19.86996,107.6199,16.63501,1.398071,-0.02049916,0.04512231,-43.24385,-19.91187,5.509499
43.36,-30.38614,119.7546,20.97021,1.601682,-0.02759983,0.1011253,-43.24385,-19.91187,5.509499
43.37,-46.68934,136.6608,24.75588,1.747146,-0.06859601,0.2046777,-43.96809,-18.57619,1.878695
43.38,-68.3439700000001,146.5571,31.77769,1.759322,-0.04117664,0.2824585,-43.96809,-18.57619,1.878695
43.39,-83.8382300000003,152.8601,32.08298,1.648876,-0.04639947,0.3347602,-43.96809,-18.57619,1.878695
43.4,-95.9722999999998,167.2332,35.07488,1.598554,-0.076639,0.3519372,-43.96809,-18.57619,1.878695
43.41,-103.9372,184.7874,40.08173,1.660923,-0.08226702,0.3183075,-43.96809,-18.57619,1.878695
43.42,-108.6664,203.1662,45.63812,1.794155,-0.1031305,0.1984516,-44.58152,-18.32059,-4.957371
43.43,-103.9372,207.6431,50.58391,1.876731,-0.09919689,0.0283333,-44.58152,-18.32059,-4.957371
43.44,-86.3894999999999,202.7539,44.60011,1.888284,-0.1874993,-0.1658114,-44.58152,-18.32059,-4.957371
43.45,-58.2011500000001,192.4452,36.8456,1.830323,-0.2796265,-0.3485624,-44.58152,-18.32059,-4.957371
43.46,-27.02594,173.4773,32.87675,1.718411,-0.3227504,-0.5245914,-44.58152,-18.32059,-4.957371
43.47,-6.118021,135.3648,26.77083,1.627072,-0.3217472,-0.5489523,-45.25343,-17.01618,-14.21251
43.48,2.966968,103.3197,18.71103,1.423007,-0.1856568,-0.5226458,-45.25343,-17.01618,-14.21251
43.49,-6.615829,74.5143999999999,11.20075,1.185506,0.04308642,-0.496709,-45.25343,-17.01618,-14.21251
43.5,-36.29761,47.59413,0.759630700000001,1.178867,0.2315432,-0.309092,-45.25343,-17.01618,-14.21251
43.51,-53.34752,44.17755,-5.83475900000001,1.233638,0.3196561,-0.1924671,-45.25343,-17.01618,-14.21251
43.52,-66.5394200000003,42.05692,-10.16996,1.220997,0.4730529,-0.1830015,-43.85183,-13.9209,-20.25316
43.53,-62.6191900000001,41.0555,-18.04659,1.12284,0.4250713,-0.2132758,-43.85183,-13.9209,-20.25316
43.54,-61.1879900000003,45.12005,-16.33694,1.087128,0.2701739,-0.1335978,-43.85183,-13.9209,-20.25316
43.55,-65.85493,58.31511,-8.39924299999999,0.9271888,0.1098467,-0.1189134,-43.85183,-13.9209,-20.25316
43.56,-72.1397599999997,67.9757799999999,-7.36123799999998,0.8129817,0.003881138,-0.1257089,-43.85183,-13.9209,-20.25316
43.57,-82.5937199999999,70.9211,-9.00983499999998,0.727879,-0.08711394,-0.1608675,-43.09895,-13.60949,-23.09531
43.58,-90.6830899999997,69.3306300000002,-9.55936799999998,0.6475796,-0.1218719,-0.1891371,-43.09895,-13.60949,-23.09531
43.59,-94.4788700000003,65.67843,-10.47526,0.5736248,-0.1543187,-0.2347572,-43.09895,-13.60949,-23.09531
43.6,-90.74532,56.84245,-11.57432,0.4708693,-0.1338665,-0.2393212,-43.09895,-13.60949,-23.09531
43.61,-82.5937199999999,46.65162,-14.93257,0.3852724,-0.1343941,-0.2241015,-43.09895,-13.60949,-23.09531
43.62,-70.95747,34.92923,-16.33694,0.2923597,-0.138182,-0.1886407,-41.61501,-12.65676,-27.0785
43.63,-58.4500499999999,21.61635,-16.03164,0.2084073,-0.1660447,-0.1474179,-41.61501,-12.65676,-27.0785
43.64,-46.50267,10.3063,-14.56622,0.1395893,-0.2090121,-0.07723565,-41.61501,-12.65676,-27.0785
43.65,-36.67096,3.708773,-11.26902,0.1261788,-0.2383873,-0.0498281,-41.61501,-12.65676,-27.0785
43.66,-26.09255,-2.770944,-8.21606599999997,0.1083649,-0.2267016,0.02639379,-41.61501,-12.65676,-27.0785
43.67,-18.68766,-5.598456,-7.17806100000002,0.1325335,-0.2148059,0.03661522,-40.23213,-10.52371,-29.12204
43.68,-13.95849,-6.8944,-8.03288799999999,0.1853055,-0.1968049,0.05512688,-40.23213,-10.52371,-29.12204
43.69,-12.83842,-6.30533500000002,-10.29208,0.2621287,-0.1454169,0.05254019,-40.23213,-10.52371,-29.12204
43.7,-10.66052,-5.245017,-13.46715,0.3493854,-0.1148584,0.03883701,-40.23213,-10.52371,-29.12204
43.71,-7.54921799999998,-3.242196,-15.48211,0.4233646,-0.07358087,0.04442458,-40.23213,-10.52371,-29.12204
43.72,-3.815661,-0.944841800000002,-18.65718,0.4921353,-0.0506243,0.06202305,-39.87714,-9.512333,-29.95648
43.73,0.415704,1.764858,-19.69519,0.5451329,-0.05494033,0.07421418,-39.87714,-9.512333,-29.95648
43.74,1.473545,5.534875,-20.36684,0.5889717,-0.0689629,0.09118631,-39.87714,-9.512333,-29.95648
43.75,1.411319,9.59942399999999,-18.65718,0.6215754,-0.0908655,0.1558848,-39.87714,-9.512333,-29.95648
43.76,1.909127,16.02024,-14.13881,0.6933761,-0.09733673,0.234229,-39.87714,-9.512333,-29.95648
43.77,-1.015493,28.27279,-9.55936799999998,0.7322889,-0.1252531,0.3240235,-39.8746,-9.867642,-29.50836
43.78,-7.61144399999998,42.94051,-5.102049,0.7430354,-0.1441011,0.3708179,-39.8746,-9.867642,-29.50836
43.79,-17.69205,55.72322,3.75153,0.7692207,-0.1535326,0.428771,-39.8746,-9.867642,-29.50836
43.8,-26.59036,63.7345099999999,12.60511,0.7576336,-0.1651412,0.4393322,-39.8746,-9.867642,-29.50836
43.81,-32.1907,70.3909499999999,21.33657,0.8281671,-0.1500123,0.5524631,-39.8746,-9.867642,-29.50836
43.82,-36.11093,68.4470299999998,32.5104,0.8321686,-0.2124589,0.5470312,-39.8367,-11.27791,-30.74967
43.83,-37.66658,68.3881199999997,36.41819,0.9164374,-0.2527049,0.6258174,-39.8367,-11.27791,-30.74967
43.84,-34.80419,67.3278099999998,38.55526,0.9823703,-0.2117397,0.5507979,-39.8367,-11.27791,-30.74967
43.85,-28.08378,59.6699600000003,39.95962,1.087382,-0.2165913,0.5660173,-39.8367,-11.27791,-30.74967
43.86,-25.47029,57.7260499999999,39.47114,1.099181,-0.2225657,0.5375645,-39.8367,-11.27791,-30.74967
43.87,-24.10132,56.07666,36.8456,1.043043,-0.1390119,0.5139545,-39.82017,-10.60439,-33.92053
43.88,-31.69289,52.30665,28.35837,1.026591,0.01081373,0.5065134,-39.82017,-10.60439,-33.92053
43.89,-45.3826,47.12288,20.5428,0.9082488,0.001971959,0.4338068,-39.82017,-10.60439,-33.92053
43.9,-52.97416,31.15921,11.5671,0.8964639,-0.09165595,0.259375,-39.82017,-10.60439,-33.92053
43.91,-56.02324,11.89678,4.911654,0.9299291,-0.2113335,0.1617291,-39.82017,-10.60439,-33.92053
43.92,-44.01363,4.76909,-1.438499,0.9400766,-0.3027056,0.3227302,-38.39116,-7.4518,-36.42232
43.93,-44.88479,17.61071,-3.148156,0.7331288,-0.2893534,0.5842492,-38.39116,-7.4518,-36.42232
43.94,-49.48951,15.43117,-3.331333,0.511273,-0.3815635,0.4261679,-38.39116,-7.4518,-36.42232
43.95,-25.22139,-31.92967,8.94155999999999,1.058859,-0.7780925,0.4696745,-38.39116,-7.4518,-36.42232
43.96,21.01249,-33.16671,46.73718,2.233907,-0.8433287,1.230166,-38.4238,-5.699616,-36.45052
43.97,-19.4966,23.97261,82.7010300000002,3.482627,-1.048569,2.018053,-38.4238,-5.699616,-36.45052
43.98,-137.9126,61.37825,89.9060100000002,2.656768,0.05366836,1.215814,-38.4238,-5.699616,-36.45052
43.99,-120.5516,27.86045,15.47489,0.8738894,0.05868021,-0.005761887,-38.4238,-5.699616,-36.45052
44,-31.25731,-24.33073,-16.0927,-0.08725604,-0.1602107,-0.31706,-38.4238,-5.699616,-36.45052
44.01,38.18686,-55.96352,-39.05095,-0.3062831,-0.464689,-0.244932,-38.79895,-4.629255,-37.67199
44.02,105.5153,-73.0464200000002,-42.65343,-0.2741584,-0.9555247,-0.1793126,-38.79895,-4.629255,-37.67199
44.03,116.7782,-73.9889199999998,-34.53257,-0.05387086,-0.9752505,0.2299319,-38.79895,-4.629255,-37.67199
44.04,86.4119699999997,-85.5935099999999,-39.60048,0.3539817,-0.3982129,0.2201606,-38.79895,-4.629255,-37.67199
44.05,94.3768899999999,-93.3691600000001,-51.3849,0.8117468,-0.04657947,-0.03268863,-38.79895,-4.629255,-37.67199
44.06,143.7843,-104.5614,-54.92633,1.343287,-0.1357005,-0.3359977,-39.60006,-1.757972,-36.08187
44.07,193.005,-132.9543,-57.3686900000002,1.719578,-0.08507828,-0.519252,-39.60006,-1.757972,-36.08187
44.08,192.7561,-132.0118,-49.49206,1.98588,0.08569967,-0.1678676,-39.60006,-1.757972,-36.08187
44.09,125.1787,-97.0213600000003,-37.95188,1.883774,0.4129935,0.1486421,-39.60006,-1.757972,-36.08187
44.1,63.5128199999997,-67.62701,-51.81231,1.418944,0.45195,0.04088378,-39.60006,-1.757972,-36.08187
44.11,40.61367,-66.3899799999997,-69.8858300000001,0.9819819,0.3026718,-0.1950828,-43.51185,-7.32725,-30.8471
44.12,49.76088,-88.77445,-72.6945400000001,0.7936085,0.1265693,-0.400548,-43.51185,-7.32725,-30.8471
44.13,81.2472200000001,-103.0887,-69.33629,0.8415011,0.09468105,-0.3826387,-43.51185,-7.32725,-30.8471
44.14,90.20776,-102.7353,-54.0715,0.9587297,0.1218032,-0.3209943,-43.51185,-7.32725,-30.8471
44.15,73.5934200000003,-100.0256,-31.72384,1.165356,0.256633,-0.2526147,-43.51185,-7.32725,-30.8471
44.16,46.27623,-110.7466,-17.49706,1.242662,0.393322,-0.188425,-45.22842,-12.61383,-25.91223
44.17,26.48838,-115.4002,-19.26778,1.262202,0.4482275,-0.2340988,-45.22842,-12.61383,-25.91223
44.18,17.27894,-120.3483,-21.40485,1.268044,0.3852008,-0.1985106,-45.22842,-12.61383,-25.91223
44.19,25.24386,-117.4619,-27.57182,1.272801,0.3089392,-0.07416465,-45.22842,-12.61383,-25.91223
44.2,30.53306,-116.7551,-40.94378,1.335308,0.2634598,-0.02005574,-45.22842,-12.61383,-25.91223
44.21,34.07994,-109.0383,-45.34004,1.320764,0.2350779,0.06429178,-47.05377,-15.71252,-20.25473
44.22,39.61805,-105.1505,-64.0852100000003,1.237743,0.05386766,0.1114604,-47.05377,-15.71252,-20.25473
44.23,51.93879,-105.5039,-77.9456300000001,1.165153,-0.03895758,0.1303756,-47.05377,-15.71252,-20.25473
44.24,59.9659400000001,-106.9177,-83.1967200000002,1.07056,-0.1310622,0.1941126,-47.05377,-15.71252,-20.25473
44.25,63.8239499999997,-103.9134,-70.7406500000002,0.9134384,-0.1799624,0.2196599,-47.05377,-15.71252,-20.25473
44.26,63.5128199999997,-109.7452,-62.2534299999998,0.7325006,-0.08936995,0.1190179,-48.82796,-18.09275,-14.98743
44.27,64.2595299999999,-119.7004,-51.50702,0.6174268,-0.03423024,0.05466065,-48.82796,-18.09275,-14.98743
44.28,71.7888699999999,-118.699,-38.31823,0.508782,0.01543859,-0.03140647,-48.82796,-18.09275,-14.98743
44.29,86.0386100000001,-113.2796,-25.74005,0.3542306,0.07248706,-0.06497828,-48.82796,-18.09275,-14.98743
44.3,88.9010099999998,-107.8013,-19.69519,0.2490526,0.1636412,0.04400245,-48.82796,-18.09275,-14.98743
44.31,73.9667799999999,-99.3776200000002,-20.36684,0.1753904,0.1163595,0.1228488,-48.82224,-21.55348,-8.548497
44.32,62.2060700000001,-89.4813300000001,-20.55002,0.2474377,-0.01419852,0.1792122,-48.82224,-21.55348,-8.548497
44.33,55.85903,-80.2330100000003,-19.45095,0.4140728,-0.1311544,0.2667319,-48.82224,-21.55348,-8.548497
44.34,46.96072,-70.2189000000002,-12.30703,0.6325669,-0.1361161,0.3855092,-48.82224,-21.55348,-8.548497
44.35,37.5646,-60.9705799999998,-5.77370000000002,0.8054801,0.0177778,0.4504649,-48.82224,-21.55348,-8.548497
44.36,46.08955,-49.71944,-13.52821,1.046974,0.09522998,0.4058947,-49.19949,-23.93045,-2.509648
44.37,56.73019,-35.40515,-13.28398,1.214775,0.1714657,0.2906796,-49.19949,-23.93045,-2.509648
44.38,59.7170399999997,-26.03902,-7.42229700000003,1.445778,0.1987221,0.1634585,-49.19949,-23.93045,-2.509648
44.39,48.08078,-9.78081899999999,3.324116,1.810609,0.1847905,0.1286609,-49.19949,-23.93045,-2.509648
44.4,21.63475,-8.013624,10.71228,2.076328,0.02392458,0.03924628,-49.19949,-23.93045,-2.509648
44.41,-1.015493,-7.24783800000001,21.09233,1.998024,-0.3034927,0.2887833,-49.22023,-24.59677,1.103498
44.42,-5.869117,14.19413,41.91351,1.501958,-0.2442701,0.5202197,-49.22023,-24.59677,1.103498
44.43,9.93627500000003,36.4608,46.554,1.009975,-0.2821284,0.290624,-49.22023,-24.59677,1.103498
44.44,23.31485,35.81282,45.14965,0.8365103,-0.1548292,0.1756036,-49.22023,-24.59677,1.103498
44.45,29.22632,29.98108,39.71538,0.8052349,0.1344258,0.1336805,-49.22023,-24.59677,1.103498
44.46,32.33762,32.21952,30.61756,0.7264197,0.3974601,-0.03677958,-49.94923,-24.5982,0.7174349
44.47,26.61283,27.86045,15.23065,0.5719718,0.5594199,-0.2945108,-49.94923,-24.5982,0.7174349
44.48,43.72497,17.72852,-5.95687800000001,0.5210828,0.4767869,-0.6099241,-49.94923,-24.5982,0.7174349
44.49,73.8423299999997,1.647045,-27.14441,0.6155989,0.321461,-0.6886697,-49.94923,-24.5982,0.7174349
44.5,100.1017,-13.02068,-44.48521,0.7253647,0.1220418,-0.6801294,-49.94923,-24.5982,0.7174349
44.51,121.5074,-31.2817,-51.75125,0.8427996,-0.138795,-0.7797924,-51.76022,-22.41159,0.6656075
44.52,132.397,-60.0869799999999,-49.61418,0.8950687,-0.303976,-0.8417789,-51.76022,-22.41159,0.6656075
44.53,101.9062,-87.9497600000001,-36.12011,0.9001723,-0.3397121,-0.6251782,-51.76022,-22.41159,0.6656075
44.54,58.7214200000001,-98.3762099999999,-13.16186,0.830238,-0.05768402,-0.3646584,-51.76022,-22.41159,0.6656075
44.55,42.54267,-94.7829199999998,-9.37618999999999,0.8655778,0.2657262,-0.1669921,-51.7742,-23.44043,4.284588
44.56,51.19208,-88.77445,-6.62852899999999,0.899891,0.4583311,-0.03716643,-51.7742,-23.44043,4.284588
44.57,60.8993300000001,-86.9483499999999,-6.26217300000001,1.054469,0.3409648,0.01557774,-51.7742,-23.44043,4.284588
44.58,64.6328900000001,-83.9441199999999,-6.38429200000001,1.102396,0.207263,0.01300117,-51.7742,-23.44043,4.284588
44.59,72.0377700000003,-80.5864499999998,-8.70453900000002,1.113703,0.02858863,0.04545953,-51.7742,-23.44043,4.284588
44.6,77.9492399999997,-72.4573499999998,-10.29208,1.220612,-0.09139377,0.1173771,-51.81416,-24.07377,9.919617
44.61,85.1674499999997,-60.4993299999999,-8.82665800000002,1.375561,-0.1715957,0.2652642,-51.81416,-24.07377,9.919617
44.62,86.5986500000001,-37.58469,-6.68958799999998,1.528817,-0.1940899,0.4808279,-51.81416,-24.07377,9.919617
44.63,79.8782400000003,-7.71909100000002,-5.163108,1.627868,-0.1840251,0.4917211,-51.81416,-24.07377,9.919617
44.64,76.5180399999999,11.42553,3.507293,1.897268,-0.06506926,0.4106383,-51.81416,-24.07377,9.919617
44.65,78.1359200000001,35.93064,9.24685499999998,2.144038,-0.06680031,0.4879963,-51.12421,-24.00537,14.41263
44.66,80.7494000000001,73.3362699999999,11.01757,1.975336,0.001301219,0.6175132,-51.12421,-24.00537,14.41263
44.67,69.4865099999997,107.8555,13.33782,1.782863,0.0728121,0.7165756,-51.12421,-24.00537,14.41263
44.68,48.76527,131.477,23.2294,1.737917,0.02590276,0.5990995,-51.12421,-24.00537,14.41263
44.69,27.48399,153.2135,40.1428,1.718009,-0.04299622,0.6495677,-51.12421,-24.00537,14.41263
44.7,-5.682439,183.2558,56.44559,1.745865,0.05139808,0.6286103,-52.20599,-23.32575,11.16814
44.71,-31.50621,206.9951,61.5134999999999,1.749033,0.1963737,0.390551,-52.20599,-23.32575,11.16814
44.72,-46.37821,224.3137,60.8418499999999,1.696525,0.2070497,0.172809,-52.20599,-23.32575,11.16814
44.73,-57.08108,239.3348,57.30042,1.679227,0.3072808,-0.07215493,-52.20599,-23.32575,11.16814
44.74,-82.0336799999999,246.9927,45.2107,1.828196,0.4063987,-0.3157274,-52.20599,-23.32575,11.16814
44.75,-117.2536,244.931,36.29607,2.174201,0.2960842,-0.6089444,-54.64513,-21.37203,0.2427111
44.76,-129.1387,226.5521,40.75339,2.478709,0.1871667,-0.660026,-54.64513,-21.37203,0.2427111
44.77,-129.6365,210.7063,56.99512,2.484905,0.07259093,-0.7586962,-54.64513,-21.37203,0.2427111
44.78,-138.6593,182.1955,46.49295,2.426372,0.244307,-0.5582203,-54.64513,-21.37203,0.2427111
44.79,-168.5278,156.5123,36.96772,2.144838,0.5031866,-0.5332972,-54.64513,-21.37203,0.2427111
44.8,-171.0168,141.7856,27.25931,1.859957,0.6268584,-0.4198846,-56.02206,-18.76491,-14.66511
44.81,-127.8942,150.4449,14.68112,1.616668,0.6357875,-0.1879043,-56.02206,-18.76491,-14.66511
44.82,-115.8846,165.5839,11.44499,1.562023,0.2744481,-0.1231954,-56.02206,-18.76491,-14.66511
44.83,-124.0362,158.9863,20.48174,1.486193,0.02194337,-0.1524042,-56.02206,-18.76491,-14.66511
44.84,-112.8355,155.5698,21.15339,1.381006,-0.05509927,-0.1793813,-56.02206,-18.76491,-14.66511
44.85,-99.7058599999998,151.5641,11.13969,1.194546,-0.0426898,-0.3048156,-53.50652,-14.29879,-25.14153
44.86,-72.4508899999997,135.8361,3.324116,1.049473,-0.08619203,-0.4408796,-53.50652,-14.29879,-25.14153
44.87,-52.47636,116.5147,-1.37744,0.8493974,-0.02282627,-0.3794931,-53.50652,-14.29879,-25.14153
44.88,-46.00486,106.9719,-0.1562568,0.6373633,0.07470994,-0.3286801,-53.50652,-14.29879,-25.14153
44.89,-41.64904,104.9691,-4.186162,0.5211402,0.2302502,-0.314169,-53.50652,-14.29879,-25.14153
44.9,-57.8900099999998,100.1976,-8.765598,0.4034073,0.3948595,-0.3121885,-49.52516,-11.24692,-32.8006
44.91,-74.2554400000001,95.8974700000002,-10.71949,0.3238829,0.3333586,-0.3549901,-49.52516,-11.24692,-32.8006
44.92,-88.3807300000001,94.0124600000001,-11.51326,0.1993794,0.2383908,-0.3675791,-49.52516,-11.24692,-32.8006
44.93,-100.5148,83.5860100000003,-13.1008,0.08408094,0.1799088,-0.3139567,-49.52516,-11.24692,-32.8006
44.94,-105.4929,80.8763,-14.38304,-0.02107763,0.1069935,-0.3660174,-49.52516,-11.24692,-32.8006
44.95,-98.27466,70.3909499999999,-13.77245,-0.104745,0.004829689,-0.353424,-44.80957,-9.255417,-38.47651
44.96,-87.0117599999999,57.7260499999999,-12.61233,-0.2041338,-0.06923765,-0.3774845,-44.80957,-9.255417,-38.47651
44.97,-72.2019800000003,42.94051,-13.34504,-0.2565783,-0.1394376,-0.3357889,-44.80957,-9.255417,-38.47651
44.98,-61.9346999999999,30.98249,-12.61233,-0.2695557,-0.1676966,-0.2924537,-44.80957,-9.255417,-38.47651
44.99,-48.86725,23.32464,-12.18491,-0.2400838,-0.1612419,-0.2465217,-44.80957,-9.255417,-38.47651
45,-39.53336,17.66962,-12.30703,-0.2071479,-0.1540251,-0.2261542,-41.23042,-6.490541,-41.64718
45.01,-30.69727,11.77896,-13.28398,-0.1918804,-0.1257534,-0.2168856,-41.23042,-6.490541,-41.64718
45.02,-23.16793,5.004716,-15.90952,-0.1431219,-0.09846131,-0.1843704,-41.23042,-6.490541,-41.64718
45.03,-14.58075,-3.536729,-20.1226,-0.1125974,-0.08945047,-0.1775166,-41.23042,-6.490541,-41.64718
45.04,-4.624598,-14.72897,-26.90017,-0.05959869,-0.08673564,-0.1904029,-41.23042,-6.490541,-41.64718
45.05,6.824977,-28.80762,-32.94503,0.003008864,-0.1377045,-0.1546424,-39.11178,-4.718578,-43.29883
45.06,15.10103,-39.17517,-39.96683,0.06934826,-0.1660831,-0.1390908,-39.11178,-4.718578,-43.29883
45.07,15.78551,-51.66335,-43.20297,0.1897506,-0.2084572,-0.1123312,-39.11178,-4.718578,-43.29883
45.08,2.344709,-54.72649,-44.54627,0.3162668,-0.1950336,-0.02173937,-39.11178,-4.718578,-43.29883
45.09,-22.54567,-52.78257,-43.56932,0.496444,-0.1234633,-0.02208592,-39.11178,-4.718578,-43.29883
45.1,-47.93386,-45.06582,-39.23412,0.6559816,-0.09419376,0.02664334,-39.4895,-4.696628,-42.10182
45.11,-63.5525800000001,-35.75859,-30.68584,0.8010772,-0.08426312,0.08977024,-39.4895,-4.696628,-42.10182
45.12,-66.85056,-27.51168,-23.17556,0.9184478,0.02486279,0.1752361,-39.4895,-4.696628,-42.10182
45.13,-50.23622,-17.26195,-21.89332,1.016065,0.07087469,0.414931,-39.4895,-4.696628,-42.10182
45.14,-23.35461,-6.12861499999998,-20.79426,1.0958,0.1281299,0.5759485,-39.4895,-4.696628,-42.10182
45.15,17.96342,4.297838,-20.61108,1.191978,0.07752594,0.7826187,-41.59673,-6.488166,-41.65067
45.16,58.1613899999997,18.72993,-19.38989,1.290144,-0.03625339,1.011838,-41.59673,-6.488166,-41.65067
45.17,65.44183,21.32182,-11.33008,1.430979,-0.214455,1.145001,-41.59673,-6.488166,-41.65067
45.18,42.6049,28.62623,0.6375124,1.487745,-0.3289556,1.22404,-41.59673,-6.488166,-41.65067
45.19,21.5103,28.68513,4.48424,1.359965,-0.3547557,1.103983,-41.59673,-6.488166,-41.65067
45.2,-10.90942,21.55745,4.789536,1.139211,-0.2854579,0.8777295,-42.69143,-6.488253,-42.10339
45.21,-35.92425,9.59942399999999,-4.857812,0.9945773,-0.2013074,0.6763145,-42.69143,-6.488253,-42.10339
45.22,-49.24061,-10.01645,-8.093948,1.124907,-0.2137987,0.5217256,-42.69143,-6.488253,-42.10339
45.23,-54.46759,-15.43584,-0.4615526,1.446912,-0.3312809,0.6844399,-42.69143,-6.488253,-42.10339
45.24,-70.33521,6.00612699999997,12.66617,1.638515,-0.162355,1.162055,-42.25977,-9.000823,-44.08192
45.25,-102.9416,28.15498,-3.636629,1.181672,0.3404584,0.8082499,-42.25977,-9.000823,-44.08192
45.26,-68.7795599999999,-4.420326,-39.23412,1.384232,0.06261647,0.2030588,-42.25977,-9.000823,-44.08192
45.27,48.57859,-33.46124,-33.92197,2.569142,-0.803472,0.8030959,-42.25977,-9.000823,-44.08192
45.28,129.7835,14.37085,6.25495599999998,3.226264,-1.209472,1.732824,-42.25977,-9.000823,-44.08192
45.29,17.52784,-1.062655,52.5378,2.033826,-0.995864,0.5933231,-42.66545,-6.883744,-44.11944
45.3,14.60322,-10.07535,27.74778,0.3758359,-0.8768584,-0.28025,-42.66545,-6.883744,-44.11944
45.31,101.6573,-44.8891,-21.46591,0.07404698,-0.6933681,-0.5986336,-42.66545,-6.883744,-44.11944
45.32,223.4958,-51.30991,-61.9481299999997,0.09956037,-0.4841823,-0.8726884,-42.66545,-6.883744,-44.11944
45.33,268.2362,-71.0435900000001,-80.0826999999998,0.1139121,-0.2864712,-0.7496589,-42.66545,-6.883744,-44.11944
45.34,224.0558,-120.8785,-74.52632,0.2516997,0.009797769,-0.5908732,-42.29916,-6.886119,-44.11596
45.35,116.5916,-145.9138,-63.2303700000002,0.3898625,0.4857884,-0.8380062,-42.29916,-6.886119,-44.11596
45.36,113.4803,-151.3332,-53.58303,0.7920284,0.6066524,-0.3975897,-42.29916,-6.886119,-44.11596
45.37,134.5126,-104.0312,-62.0091899999998,1.379773,0.312489,-0.09463073,-42.29916,-6.886119,-44.11596
45.38,127.1077,-91.0718100000002,-43.99673,1.904839,0.07288492,-0.1772726,-42.29916,-6.886119,-44.11596
45.39,111.5513,-80.5864499999998,10.04062,2.476856,0.03744303,0.01232049,-44.33853,-15.28641,-37.55441
45.4,113.6047,-64.3871500000002,58.1552499999999,2.419959,0.238399,-0.138432,-44.33853,-15.28641,-37.55441
45.41,129.5968,-115.4002,39.10479,1.856077,0.2759379,-0.1045795,-44.33853,-15.28641,-37.55441
45.42,132.397,-106.1519,15.47489,1.55138,0.1213774,0.02941604,-44.33853,-15.28641,-37.55441
45.43,83.7984800000001,-86.8894399999999,-0.2173159,1.288154,0.3420869,-0.1141053,-44.33853,-15.28641,-37.55441
45.44,35.82227,-124.4718,-30.7469,1.135589,0.5738739,-0.4112506,-46.85456,-20.85037,-31.42172
45.45,13.17202,-149.6249,-72.93878,1.296437,0.4708612,-0.7541494,-46.85456,-20.85037,-31.42172
45.46,22.31924,-178.8425,-77.09081,1.631998,0.5182111,-0.7835828,-46.85456,-20.85037,-31.42172
45.47,61.7704899999999,-192.1554,-65.3674500000001,1.966879,0.5082402,-0.357615,-46.85456,-20.85037,-31.42172
45.48,87.4698099999999,-162.6432,-60.48271,2.113009,0.542959,0.141792,-46.85456,-20.85037,-31.42172
45.49,88.3409700000003,-172.1861,-72.3892500000003,2.003369,0.5147735,0.7012053,-49.76287,-22.5197,-23.77457
45.5,74.0290100000001,-156.8115,-91.3786500000002,1.896943,0.2090703,1.393214,-49.76287,-22.5197,-23.77457
45.51,91.7011799999998,-76.6397099999998,-91.2565299999999,1.572862,-0.2018953,1.12754,-49.76287,-22.5197,-23.77457
45.52,162.8877,-52.54695,-91.6228900000002,1.167737,-0.5037314,0.4261506,-49.76287,-22.5197,-23.77457
45.53,193.814,-65.3885700000001,-77.5182200000001,0.9168854,-0.546889,0.5778964,-49.76287,-22.5197,-23.77457
45.54,175.2084,-66.21326,-54.92633,0.7752916,-0.7138906,0.4816275,-51.15467,-27.32802,-15.30473
45.55,164.8167,-45.47816,-19.26778,0.6308002,-0.6893024,0.4354655,-51.15467,-27.32802,-15.30473
45.56,151.9359,-22.91697,8.208849,0.5092013,-0.5193703,0.2280212,-51.15467,-27.32802,-15.30473
45.57,142.4776,-17.96882,19.74903,0.4272359,-0.3474405,0.09982149,-51.15467,-27.32802,-15.30473
45.58,132.957,-16.79069,20.78704,0.3299929,-0.1995279,-0.04873637,-51.15467,-27.32802,-15.30473
45.59,122.0052,-17.20304,19.26056,0.1791908,-0.06346902,-0.124593,-49.34584,-32.55241,-8.820772
45.6,107.3199,-21.85665,13.09358,0.0052942,0.1372097,-0.1525978,-49.34584,-32.55241,-8.820772
45.61,92.4478800000003,-22.09228,6.07177799999999,-0.07847036,0.2495533,-0.1265147,-49.34584,-32.55241,-8.820772
45.62,91.9500800000001,-18.14554,5.278009,-0.07612719,0.3269736,-0.1828005,-49.34584,-32.55241,-8.820772
45.63,91.3278200000001,-17.32085,3.079879,0.01150352,0.3963624,-0.2905162,-49.34584,-32.55241,-8.820772
45.64,82.9273100000001,-22.03337,-1.011085,0.07571381,0.4494428,-0.3090559,-49.74384,-32.84661,-4.774654
45.65,70.6688000000001,-28.92544,-4.30828,0.03490641,0.4801929,-0.2453986,-49.74384,-32.84661,-4.774654
45.66,56.66796,-32.75436,-7.36123799999998,0.08714057,0.4357857,-0.1710468,-49.74384,-32.84661,-4.774654
45.67,46.46291,-32.87217,-3.087097,0.1328573,0.37912,-0.1618823,-49.74384,-32.84661,-4.774654
45.68,36.63121,-37.23125,0.2100982,0.1449848,0.3340756,-0.1764244,-49.74384,-32.84661,-4.774654
45.69,26.17725,-46.06723,2.530346,0.2034907,0.2526254,-0.136397,-49.77027,-32.80128,-1.994567
45.7,13.1098,-55.37446,5.21695,0.3537609,0.1727224,-0.05800832,-49.77027,-32.80128,-1.994567
45.71,3.40255,-62.5021499999998,4.178944,0.6062805,0.05742151,0.08474696,-49.77027,-32.80128,-1.994567
45.72,5.269328,-54.8443,-0.1562568,0.9443853,-0.1501025,0.1773396,-49.77027,-32.80128,-1.994567
45.73,36.00895,-34.87499,1.187045,1.197083,-0.3866504,0.1316407,-49.77027,-32.80128,-1.994567
45.74,61.8949400000001,-33.69686,0.759630700000001,1.239297,-0.4589589,0.2329294,-49.79054,-33.11743,0.8545399
45.75,49.0764,-29.69122,10.16274,1.081557,-0.4493401,0.4675445,-49.79054,-33.11743,0.8545399
45.76,43.47606,-11.13567,23.71788,0.7905083,-0.2085726,0.4779275,-49.79054,-33.11743,0.8545399
45.77,41.11148,2.648455,27.68672,0.8181981,0.02391121,0.5817642,-49.79054,-33.11743,0.8545399
45.78,47.3963,33.92781,27.32037,0.8599699,0.1757598,0.4277827,-49.79054,-33.11743,0.8545399
45.79,81.3094400000001,50.00929,19.26056,0.7300383,0.2404027,0.2504912,-50.15162,-34.17686,2.448157
45.8,98.42158,51.59977,11.13969,0.6221582,0.1960983,0.2071709,-50.15162,-34.17686,2.448157
45.81,119.205,48.65444,3.201997,0.7170497,0.1384205,0.009929155,-50.15162,-34.17686,2.448157
45.82,84.6696399999999,54.83963,15.96336,1.315967,0.1478665,0.163497,-50.15162,-34.17686,2.448157
45.83,42.66713,86.41352,33.30417,2.043908,0.1250788,0.1744938,-50.15162,-34.17686,2.448157
45.84,32.58652,107.3842,33.67052,2.376845,-0.027738,0.008062037,-51.58701,-32.71046,2.853765
45.85,22.00811,103.143,5.644364,2.12904,-0.4107076,0.573112,-51.58701,-32.71046,2.853765
45.86,22.63037,145.0255,16.75713,1.613994,-0.4715524,0.8684204,-51.58701,-32.71046,2.853765
45.87,70.6065800000001,196.981,31.28922,2.265418,-0.1502547,0.8389429,-51.58701,-32.71046,2.853765
45.88,88.9010099999998,256.1232,16.08548,2.452796,0.1670816,0.5582998,-52.99246,-33.50534,-2.013641
45.89,62.9527899999999,263.3098,-9.498309,2.140896,0.4104025,0.1758399,-52.99246,-33.50534,-2.013641
45.9,9.99850100000003,249.9969,-21.89332,1.521811,0.2640391,0.0436404,-52.99246,-33.50534,-2.013641
45.91,-49.05393,237.9211,-24.57992,1.335389,-0.02924384,-0.1176771,-52.99246,-33.50534,-2.013641
45.92,-81.9714599999999,230.3221,-8.46030300000001,1.604591,-0.3874521,-0.09217782,-52.99246,-33.50534,-2.013641
45.93,-64.4859599999999,233.2085,26.58766,1.920513,-0.7527106,-0.243186,-52.53227,-32.61591,-14.03259
45.94,-7.36253999999998,231.5592,66.2761199999998,2.330959,-0.9605123,-0.2961372,-52.53227,-32.61591,-14.03259
45.95,22.25701,227.3768,97.6605300000001,2.439665,-0.784741,-0.1121104,-52.53227,-32.61591,-14.03259
45.96,0.851285599999998,219.4244,95.46239,2.333798,-0.5230224,0.02136272,-52.53227,-32.61591,-14.03259
45.97,-54.15646,196.9221,66.3982299999997,2.181597,-0.3836859,0.0941346,-52.53227,-32.61591,-14.03259
45.98,-77.1178399999998,185.7888,78.7932400000002,1.934226,-0.233523,0.2680196,-49.92636,-31.81415,-26.85165
45.99,-45.56927,196.1563,78.0605399999997,1.890255,-0.1583657,0.2685503,-49.92636,-31.81415,-26.85165
46,23.81266,203.6375,66.3371700000002,1.993325,-0.1207629,-0.04813763,-49.92636,-31.81415,-26.85165
46.01,50.25869,198.7482,55.52971,2.145095,-0.4512908,-0.0180562,-49.92636,-31.81415,-26.85165
46.02,70.7932599999999,189.441,64.4443399999999,1.818545,-0.6250523,-0.007690769,-49.92636,-31.81415,-26.85165
46.03,76.7669400000002,173.3006,58.5215999999998,1.408609,-0.3638552,-0.1500558,-45.20307,-28.08114,-36.91642
46.04,75.7091099999998,145.3789,55.04123,1.155886,-0.3547444,-0.2090764,-45.20307,-28.08114,-36.91642
46.05,81.3094400000001,123.2301,44.23376,1.161791,-0.1993706,-0.05141628,-45.20307,-28.08114,-36.91642
46.06,75.0868499999998,101.7292,38.06678,0.955815,-0.2370602,0.02469674,-45.20307,-28.08114,-36.91642
46.07,76.2691400000001,77.98989,41.97457,0.6795567,0.06825742,0.09605787,-45.20307,-28.08114,-36.91642
46.08,72.4111299999999,52.89571,43.07364,0.5819468,0.2752643,0.06005999,-39.46732,-25.36412,-42.15185
46.09,60.5259699999999,44.35427,35.13594,0.5081067,0.3277248,0.03826763,-39.46732,-25.36412,-42.15185
46.1,41.85819,18.3765,30.98392,0.2506194,0.3533641,-0.1148267,-39.46732,-25.36412,-42.15185
46.11,24.80828,-19.91274,28.35837,0.09594265,0.4169225,-0.1242574,-39.46732,-25.36412,-42.15185
46.12,5.020424,-56.72931,22.92411,0.07409488,0.410566,-0.1127463,-39.46732,-25.36412,-42.15185
46.13,-18.18986,-87.9497600000001,15.65807,0.1081439,0.3491234,-0.08673293,-36.58698,-25.75245,-42.56104
46.14,-39.47113,-114.8111,4.362122,0.1028411,0.2826089,-0.05262864,-36.58698,-25.75245,-42.56104
46.15,-50.48513,-135.664,-6.62852899999999,0.104063,0.1547679,-0.0625513,-36.58698,-25.75245,-42.56104
46.16,-50.60958,-161.7007,-20.55002,0.114446,0.03568762,-0.07484423,-36.58698,-25.75245,-42.56104
46.17,-43.82695,-175.8383,-33.18926,0.1512387,-0.04130694,-0.1115886,-36.58698,-25.75245,-42.56104
46.18,-28.89272,-184.9099,-49.67524,0.1982556,-0.08243223,-0.09756181,-37.74099,-24.59801,-38.92432
46.19,-7.36253999999998,-184.9688,-65.30639,0.2635796,-0.1008271,-0.1008107,-37.74099,-24.59801,-38.92432
46.2,22.19479,-181.081,-75.0147900000002,0.2556093,-0.1328124,-0.09896985,-37.74099,-24.59801,-38.92432
46.21,55.11232,-170.8901,-80.0216400000003,0.2742352,-0.108589,-0.05881819,-37.74099,-24.59801,-38.92432
46.22,86.3497499999998,-159.2856,-81.6091800000002,0.2488725,-0.03092297,-0.1175876,-37.74099,-24.59801,-38.92432
46.23,115.8448,-157.4005,-78.8615200000001,0.2549104,0.03684989,-0.06724124,-42.44574,-24.45665,-32.14455
46.24,145.4022,-156.1046,-75.3811499999998,0.2374622,0.05081248,0.04614275,-42.44574,-24.45665,-32.14455
46.25,174.6484,-152.9237,-70.8017099999997,0.284568,0.09769312,0.2649596,-42.44574,-24.45665,-32.14455
46.26,198.6054,-139.8464,-70.4353599999998,0.5956808,0.08388792,0.5026639,-42.44574,-24.45665,-32.14455
46.27,218.331,-113.2207,-64.1462600000001,1.013237,0.08944695,0.862769,-42.44574,-24.45665,-32.14455
46.28,212.2328,-68.4517100000001,-50.59113,1.423347,0.1402135,1.304503,-44.21584,-29.24199,-22.41452
46.29,175.1462,-14.78787,-21.09955,1.749508,-0.1049443,1.632468,-44.21584,-29.24199,-22.41452
46.3,131.588,53.42587,11.75028,1.75543,-0.3634612,1.776692,-44.21584,-29.24199,-22.41452
46.31,93.3190499999997,89.7122899999998,28.11414,1.334253,-0.5862688,1.530474,-44.21584,-29.24199,-22.41452
46.32,68.5531200000003,89.18213,28.1752,0.8680295,-0.7187768,1.08842,-44.21584,-29.24199,-22.41452
46.33,63.8239499999997,72.1581399999999,26.5266,0.447873,-0.7640594,0.5665689,-45.24371,-36.6095,-15.10143
46.34,62.3305200000002,34.57579,25.85495,0.1113079,-0.7333903,-0.02969846,-45.24371,-36.6095,-15.10143
46.35,46.08955,-2.712037,37.21195,-0.01497333,-0.6245846,-0.09010884,-45.24371,-36.6095,-15.10143
46.36,-46.75157,-3.595635,58.7658399999997,-0.1066407,-0.4919925,0.0937909,-45.24371,-36.6095,-15.10143
46.37,-134.6146,22.79448,87.2804700000003,0.08654689,-0.02901757,-0.141647,-45.24371,-36.6095,-15.10143
46.38,-173.5681,46.76944,60.0480800000002,0.6897976,0.518446,-0.2180523,-44.83537,-38.08772,-16.65421
46.39,-185.951,37.69783,34.46429,1.017864,0.9911702,-0.9332575,-44.83537,-38.08772,-16.65421
46.4,-60.8146399999998,19.96697,-12.18491,1.534921,0.800701,-0.5554628,-44.83537,-38.08772,-16.65421
46.41,116.8405,-14.96459,-41.43225,1.590984,0.3441671,-0.8356954,-44.83537,-38.08772,-16.65421
46.42,274.8322,-103.7367,-70.3132400000001,1.77621,-0.3070056,-0.0138719,-44.83537,-38.08772,-16.65421
46.43,188.2759,-61.8541800000002,-18.84036,4.293066,-1.577762,4.222323,-45.9395,-35.61507,-21.12836
46.44,-42.0224,285.7532,168.2449,5.6951,-2.607921,-0.3629023,-45.9395,-35.61507,-21.12836
46.45,33.27101,128.4728,95.5234599999999,1.777611,-0.5931332,-1.357417,-45.9395,-35.61507,-21.12836
46.46,159.2163,81.6420900000002,20.29856,0.359024,-0.2900967,-0.7726794,-45.9395,-35.61507,-21.12836
46.47,198.3565,56.96026,-35.02104,-0.3066703,-0.04983595,-1.188872,-46.26575,-38.13797,-20.33279
46.48,199.041,-56.90603,-81.4259999999998,-0.4301292,0.03980544,-0.9646122,-46.26575,-38.13797,-20.33279
46.49,174.4617,-110.1575,-86.2496799999998,-0.6184245,0.1277442,-1.031501,-46.26575,-38.13797,-20.33279
46.5,114.5381,-96.7268300000002,-38.31823,-0.5649087,0.3290711,-1.023209,-46.26575,-38.13797,-20.33279
46.51,49.76088,-100.4379,18.03937,0.1302354,0.3370651,-1.217796,-46.26575,-38.13797,-20.33279
46.52,110.1823,-53.9018,-9.25407200000002,1.497384,0.8698319,-0.2123188,-45.23229,-36.62907,-16.30192
46.53,227.6027,-16.55507,-105.4223,3.228275,1.202001,-0.1830132,-45.23229,-36.62907,-16.30192
46.54,197.6098,-57.4361899999999,-57.6739899999997,4.373922,1.117682,0.3669706,-45.23229,-36.62907,-16.30192
46.55,133.5793,-31.92967,43.62317,3.020239,0.6907409,0.5025007,-45.23229,-36.62907,-16.30192
46.56,120.2629,-15.78928,36.66242,1.439597,0.278683,-0.3507825,-45.23229,-36.62907,-16.30192
46.57,150.3803,-30.3981,-25.43475,0.8729097,-0.09237537,-0.3844074,-46.3411,-40.05589,-8.230648
46.58,211.6728,-41.2958,-80.6933,0.8658134,-0.4469513,-0.3084627,-46.3411,-40.05589,-8.230648
46.59,252.8042,-63.56247,-76.2970399999997,0.9123747,-0.4708284,-0.3662999,-46.3411,-40.05589,-8.230648
46.6,263.6315,-101.3215,-56.14751,0.8300921,-0.3016044,-0.3661483,-46.3411,-40.05589,-8.230648
46.61,257.72,-127.2993,-49.61418,0.9608589,-0.1288204,-0.4228629,-46.3411,-40.05589,-8.230648
46.62,237.2477,-125.8267,-36.97493,1.117039,0.1709383,-0.4280888,-46.01276,-42.39125,0.6584339
46.63,220.8823,-120.8785,-37.58553,1.289557,0.3639217,-0.5343548,-46.01276,-42.39125,0.6584339
46.64,224.8647,-127.2404,-48.69829,1.361301,0.6039872,-0.7517658,-46.01276,-42.39125,0.6584339
46.65,231.8963,-150.0372,-50.28583,1.505524,0.8717834,-0.5365664,-46.01276,-42.39125,0.6584339
46.66,225.6114,-147.0919,-29.58677,1.444958,1.039283,-0.1064115,-46.01276,-42.39125,0.6584339
46.67,214.7219,-120.7018,-21.22167,1.362567,1.104678,0.6622169,-44.2918,-43.61726,15.16826
46.68,184.6045,-69.3352999999997,-39.4173,1.137195,0.8135666,0.8791218,-44.2918,-43.61726,15.16826
46.69,217.7087,-36.17094,-70.0079400000001,1.143464,0.1197757,0.4148822,-44.2918,-43.61726,15.16826
46.7,252.2441,-34.63937,-58.0403400000002,1.091433,-0.1626922,0.3166659,-44.2918,-43.61726,15.16826
46.71,223.1846,-38.5272,-30.01419,0.9250301,-0.1756734,0.4151313,-44.2918,-43.61726,15.16826
46.72,203.0856,-27.7473,-0.9500259,0.8211805,-0.1922753,0.2218083,-41.24855,-42.35967,26.86993
46.73,217.5843,-21.67993,5.094831,0.7575818,0.01391306,0.01362641,-41.24855,-42.35967,26.86993
46.74,235.692,-21.3854,-0.03413842,0.7052819,0.2303158,-0.09220398,-41.24855,-42.35967,26.86993
46.75,237.3721,-23.74166,2.469287,0.5306578,0.3373907,-0.2482874,-41.24855,-42.35967,26.86993
46.76,239.4256,-31.81186,-3.453452,0.3121612,0.4370255,-0.3335653,-41.24855,-42.35967,26.86993
46.77,240.8568,-37.87923,-18.35189,0.1634036,0.4858078,-0.3232281,-38.83025,-38.32432,34.47633
46.78,235.0698,-37.70251,-29.46466,0.1687587,0.4454904,-0.1848094,-38.83025,-38.32432,34.47633
46.79,215.2197,-33.52015,-33.86092,0.2362492,0.3766659,-0.09454666,-38.83025,-38.32432,34.47633
46.8,191.3249,-30.22138,-29.58677,0.2767485,0.3628772,-0.1021926,-38.83025,-38.32432,34.47633
46.81,172.9683,-28.98434,-20.97743,0.3070294,0.3659259,-0.1653219,-38.83025,-38.32432,34.47633
46.82,164.07,-26.39246,-12.61233,0.2778631,0.4362459,-0.23039,-38.3698,-30.77234,42.00835
46.83,156.914,-31.57623,-13.58927,0.3196021,0.3878157,-0.2168751,-38.3698,-30.77234,42.00835
46.84,146.5845,-34.10921,-15.54317,0.3965644,0.2725944,-0.2342961,-38.3698,-30.77234,42.00835
46.85,133.0814,-41.94378,-16.70329,0.4593582,0.09820673,-0.2002481,-38.3698,-30.77234,42.00835
46.86,126.5477,-49.01256,-13.83351,0.4604544,-0.02734364,-0.1710797,-38.3698,-30.77234,42.00835
46.87,128.1034,-50.01397,-8.15500699999999,0.4383986,-0.00815782,-0.1710953,-37.04934,-24.97701,45.91048
46.88,139.6152,-52.19351,-4.125103,0.5047868,0.1336744,-0.2236996,-37.04934,-24.97701,45.91048
46.89,146.8334,-55.13884,-4.491457,0.6524176,0.2534207,-0.2201661,-37.04934,-24.97701,45.91048
46.9,138.6196,-56.72931,-3.758748,0.8186411,0.3593127,-0.2127541,-37.04934,-24.97701,45.91048
46.91,119.8273,-56.49368,1.187045,0.9538797,0.4500087,-0.2001466,-37.04934,-24.97701,45.91048
46.92,105.4531,-57.5540000000002,3.568352,0.9440693,0.5212405,-0.2347623,-35.05215,-20.30621,51.54342
46.93,96.5547999999999,-60.3226100000002,-1.255322,0.9190695,0.5273622,-0.1788379,-35.05215,-20.30621,51.54342
46.94,85.9763900000002,-61.2061999999998,-8.88771700000001,0.9539656,0.4154893,-0.1114316,-35.05215,-20.30621,51.54342
46.95,77.3892099999999,-53.78399,-16.27588,1.0579,0.292861,-0.008644262,-35.05215,-20.30621,51.54342
46.96,65.44183,-44.71238,-14.50516,1.206657,0.2084405,0.1064045,-35.05215,-20.30621,51.54342
46.97,58.1613899999997,-34.58046,-4.369339,1.414997,0.1912945,0.06492323,-33.3497,-14.9496,54.63445
46.98,64.6328900000001,-21.85665,2.28611,1.537552,0.1747139,0.1057378,-33.3497,-14.9496,54.63445
46.99,71.2288400000001,-5.775176,4.972713,1.637554,0.2228397,-0.00923004,-33.3497,-14.9496,54.63445
47,75.1490699999997,-2.712037,9.185796,1.962015,0.361022,-0.2049761,-33.3497,-14.9496,54.63445
47.01,64.4462099999997,9.776143,-6.38429200000001,2.119955,0.4378371,-0.08859191,-33.3497,-14.9496,54.63445
47.02,47.8941,26.38778,-30.07525,1.954084,0.2739639,0.3391314,-30.94005,-11.35467,57.44413
47.03,31.15532,55.66432,-47.29393,1.881103,0.004552295,0.5767431,-30.94005,-11.35467,57.44413
47.04,22.87927,88.8875999999999,-32.15126,1.927544,-0.2481213,0.6371208,-30.94005,-11.35467,57.44413
47.05,26.42615,118.6943,-9.55936799999998,2.025447,-0.4591793,0.759487,-30.94005,-11.35467,57.44413
47.06,22.9415,151.2107,20.35962,1.922866,-0.5243899,0.8073372,-30.94005,-11.35467,57.44413
47.07,24.24824,185.9655,40.26491,1.889793,-0.2876903,0.8946195,-32.08044,-8.527378,56.18749
47.08,22.81705,219.1888,58.5215999999998,1.966172,-0.07920225,0.8725848,-32.08044,-8.527378,56.18749
47.09,25.74167,255.4163,72.01568,2.006214,0.2514034,0.7402154,-32.08044,-8.527378,56.18749
47.1,21.88366,289.6999,75.4349900000002,2.018728,0.4178635,0.5683356,-32.08044,-8.527378,56.18749
47.11,13.91874,318.1518,59.3153700000001,1.837463,0.3760163,0.3260211,-38.84124,-8.614927,48.035
47.12,1.722449,326.6932,41.73033,1.67139,0.3437258,0.004145924,-38.84124,-8.614927,48.035
47.13,-19.62105,326.163,28.41943,1.658277,0.2684178,-0.2831663,-38.84124,-8.614927,48.035
47.14,-55.40098,320.2135,32.32722,1.963761,-0.002363478,-0.6791332,-38.84124,-8.614927,48.035
47.15,-36.98209,293.7055,52.23251,2.605142,-0.469694,-1.104092,-38.84124,-8.614927,48.035
47.16,5.518232,259.6576,71.8935599999998,2.959865,-0.8742217,-1.083297,-38.84124,-8.614927,48.035
47.17,9.12733700000002,223.1944,53.08734,2.75184,-0.9604278,-0.4340256,-51.33407,-4.874993,31.36133
47.18,-68.6551099999998,203.1073,4.850595,2.168575,-1.062802,0.2485043,-51.33407,-4.874993,31.36133
47.19,-97.27905,198.0414,27.68672,1.741637,-0.7789963,-0.1602229,-51.33407,-4.874993,31.36133
47.2,-123.4762,166.9976,72.68733,1.3782,0.1075808,-0.06226198,-51.33407,-4.874993,31.36133
47.21,-156.5804,159.3987,65.1770600000003,1.530309,0.79247,-0.07342613,-59.47415,-2.948977,16.40079
47.22,-90.8075399999999,151.5641,35.80759,1.695816,0.7206429,-0.4500243,-59.47415,-2.948977,16.40079
47.23,1.411319,184.375,35.38018,1.880956,-0.1750421,-0.01380061,-59.47415,-2.948977,16.40079
47.24,43.72497,203.1073,71.5882600000002,1.487152,-0.3189463,-0.2279296,-59.47415,-2.948977,16.40079
47.25,37.19124,173.4773,58.21631,1.060649,-0.1557021,-0.3777863,-59.47415,-2.948977,16.40079
47.26,19.64352,137.132,33.36523,0.9463059,-0.1332544,-0.4190495,-60.87911,-0.5862584,5.036127
47.27,8.19394799999998,107.9733,25.12224,0.8358588,-0.01332241,-0.4403087,-60.87911,-0.5862584,5.036127
47.28,-13.39846,77.3419199999998,11.13969,0.6964812,0.05214028,-0.3599418,-60.87911,-0.5862584,5.036127
47.29,-21.05225,75.22128,0.576453200000001,0.5910072,0.0465917,-0.3476795,-60.87911,-0.5862584,5.036127
47.3,-39.22223,71.5101699999998,1.980814,0.4277435,0.1608635,-0.413964,-60.87911,-0.5862584,5.036127
47.31,-46.50267,73.4540899999999,-1.072144,0.3026451,0.1503986,-0.4997203,-59.38373,1.750618,-3.014165
47.32,-45.44482,65.5017099999997,-13.65033,0.1909186,0.02974859,-0.4737277,-59.38373,1.750618,-3.014165
47.33,-43.7025,61.4960599999998,-17.92447,0.04234164,-0.1625149,-0.4151707,-59.38373,1.750618,-3.014165
47.34,-44.57366,56.78354,-11.63538,-0.1622668,-0.2202588,-0.4167876,-59.38373,1.750618,-3.014165
47.35,-42.58243,43.94192,-3.819807,-0.3214677,-0.2588806,-0.3767471,-59.38373,1.750618,-3.014165
47.36,-37.35545,29.62764,2.347169,-0.3988166,-0.205159,-0.3633197,-58.26768,2.415988,-6.237767
47.37,-29.20385,11.13099,10.28486,-0.4655487,-0.1426567,-0.3512938,-58.26768,2.415988,-6.237767
47.38,-17.13202,-11.19458,15.10853,-0.4738603,-0.1020311,-0.2938045,-58.26768,2.415988,-6.237767
47.39,-2.695594,-32.57764,17.5509,-0.4179598,-0.1025275,-0.2898011,-58.26768,2.415988,-6.237767
47.4,14.35432,-51.36882,16.94031,-0.3377714,-0.1027773,-0.2794613,-58.26768,2.415988,-6.237767
47.41,31.342,-65.6831000000001,15.41383,-0.3026193,-0.1166077,-0.2871211,-57.59033,2.69416,-7.43674
47.42,47.70743,-79.9973799999999,12.60511,-0.2832132,-0.1097644,-0.2962248,-57.59033,2.69416,-7.43674
47.43,59.8414899999999,-90.7183700000001,8.63626400000003,-0.2738644,-0.1260095,-0.2812766,-57.59033,2.69416,-7.43674
47.44,70.9799300000001,-102.4997,1.614459,-0.2200513,-0.1185463,-0.2516863,-57.59033,2.69416,-7.43674
47.45,79.6293399999999,-110.6877,-5.285227,-0.1639332,-0.1111186,-0.1748003,-57.59033,2.69416,-7.43674
47.46,84.91855,-117.7565,-12.55127,-0.07336776,-0.1013281,-0.08044866,-57.64484,3.840449,-3.852765
47.47,84.3585099999999,-120.8196,-15.97058,0.02128905,-0.02189683,0.05845773,-57.64484,3.840449,-3.852765
47.48,75.8335599999999,-120.4662,-20.48896,0.2294385,0.07145976,0.2478718,-57.64484,3.840449,-3.852765
47.49,54.55228,-105.9752,-22.32073,0.5151241,0.2067488,0.564969,-57.64484,3.840449,-3.852765
47.5,33.14655,-84.7688099999997,-23.17556,0.7934929,0.4046395,0.854194,-57.64484,3.840449,-3.852765
47.51,2.158031,-47.5988,-28.42665,1.272819,0.6034487,1.072522,-57.98285,3.196721,1.021156
47.52,-17.13202,-21.20868,-24.82416,1.785839,0.5705516,0.9541023,-57.98285,3.196721,1.021156
47.53,-24.72358,-17.49757,-6.56746899999997,2.052347,0.266658,0.8880271,-57.98285,3.196721,1.021156
47.54,-18.68766,4.533464,30.19015,2.003321,-0.2293983,1.140655,-57.98285,3.196721,1.021156
47.55,-22.23454,40.40753,39.95962,1.658092,-0.6285333,1.288979,-57.98285,3.196721,1.021156
47.56,-53.7831,70.9211,30.31227,1.286838,-0.8664129,1.151914,-58.71555,2.207298,3.052608
47.57,-96.4701100000002,83.1147500000002,16.5129,0.9717463,-0.8445673,0.737604,-58.71555,2.207298,3.052608
47.58,-92.9854499999999,54.13275,10.65122,0.6555784,-0.7366327,0.4248116,-58.71555,2.207298,3.052608
47.59,-70.1485300000001,22.85339,7.53719800000002,0.5078687,-0.6048824,0.2982861,-58.71555,2.207298,3.052608
47.6,-48.92948,1.411419,7.47613899999998,0.553905,-0.7439356,0.2942455,-58.71555,2.207298,3.052608
47.61,-20.11886,-15.9071,29.15214,1.037555,-1.272098,0.7112796,-59.78638,2.517186,-0.6283293
47.62,11.18079,-7.60127800000003,76.4119400000002,2.702041,-1.289071,1.889577,-59.78638,2.517186,-0.6283293
47.63,81.8072499999999,22.73558,95.6455800000001,4.15555,-0.681436,1.423182,-59.78638,2.517186,-0.6283293
47.64,28.79074,109.2692,117.5658,4.575006,-1.127745,3.019093,-59.78638,2.517186,-0.6283293
47.65,-164.6075,144.731,45.63812,1.908986,0.1117884,0.3183994,-59.78638,2.517186,-0.6283293
47.66,-116.6935,56.01776,-0.4004934,-0.2371388,0.1579972,-1.01115,-60.13908,2.788691,-2.658553
47.67,-23.04348,-9.78081899999999,-22.38179,-1.354594,-0.05164234,-1.076249,-60.13908,2.788691,-2.658553
47.68,113.6047,-68.3928000000001,-47.78241,-1.380456,-1.052376,-0.9949862,-60.13908,2.788691,-2.658553
47.69,200.4099,-86.7127200000002,-34.95998,-0.5703101,-1.878459,0.1735779,-60.13908,2.788691,-2.658553
47.7,143.0376,-106.2108,-27.02229,-0.1961525,-0.7404186,0.2585402,-60.13908,2.788691,-2.658553
47.71,133.5793,-151.451,-47.23287,0.5246108,-0.217948,-0.5906589,-58.74548,7.405784,-4.299099
47.72,214.8463,-129.7734,-51.50702,1.523923,-0.6473084,-0.2869291,-58.74548,7.405784,-4.299099
47.73,286.2817,-139.6108,-54.01044,2.033766,-0.1770973,-0.7956226,-58.74548,7.405784,-4.299099
47.74,287.8996,-158.5198,-59.0783499999999,2.070746,0.448211,-0.4486779,-58.74548,7.405784,-4.299099
47.75,191.885,-142.7328,-49.431,2.101657,0.5980399,0.1949615,-58.74548,7.405784,-4.299099
47.76,123.0631,-114.9879,-43.87462,1.646228,0.6431614,-0.3600821,-59.49314,6.032572,0.1401434
47.77,108.0666,-123.6471,-53.27773,1.19911,0.4708477,-0.3534024,-59.49314,6.032572,0.1401434
47.78,130.0324,-97.4926100000001,-43.63038,1.036822,0.04164342,-0.1559335,-59.49314,6.032572,0.1401434
47.79,148.2646,-115.8125,-22.62603,0.8942624,0.08250224,-0.4365742,-59.49314,6.032572,0.1401434
47.8,159.2163,-95.1363599999999,-7.48335600000001,1.101139,0.2129549,-0.2644554,-59.13103,3.288332,6.191788
47.81,137.6239,-67.74483,13.82629,1.312891,0.2839763,-0.6179475,-59.13103,3.288332,6.191788
47.82,76.8914000000001,-109.0972,34.34217,1.706364,0.4617983,-0.3989209,-59.13103,3.288332,6.191788
47.83,14.60322,-147.3275,30.98392,1.94995,0.9327201,-0.6018809,-59.13103,3.288332,6.191788
47.84,-29.45275,-193.2746,-11.4522,2.144749,1.362571,-0.5965941,-59.13103,3.288332,6.191788
47.85,-29.70166,-192.7445,-66.7718,2.183127,1.466456,-0.2218139,-58.44152,3.006577,11.44884
47.86,6.700525,-174.0711,-101.026,2.079764,1.274528,-0.1650697,-58.44152,3.006577,11.44884
47.87,57.4146800000001,-155.3388,-123.74,1.891307,0.9577344,0.3356139,-58.44152,3.006577,11.44884
47.88,81.4338900000003,-112.6905,-139.4322,1.702718,0.4150667,0.5844038,-58.44152,3.006577,11.44884
47.89,91.8256299999999,-105.0327,-152.2546,1.723746,-0.02012156,0.6057197,-58.44152,3.006577,11.44884
47.9,63.4505900000001,-141.8492,-141.8746,1.667805,-0.6057743,0.4846442,-56.74952,2.837241,20.31626
47.91,76.7669400000002,-143.2041,-118.7332,1.618768,-1.042032,0.7142382,-56.74952,2.837241,20.31626
47.92,66.8730200000001,-97.1391800000003,-72.0839500000002,1.24443,-1.074646,1.013348,-56.74952,2.837241,20.31626
47.93,54.73896,-72.5751600000001,-25.12946,0.9274778,-1.096241,0.7195771,-56.74952,2.837241,20.31626
47.94,80.0026899999999,-58.3197899999998,3.812589,0.7139399,-0.7751986,0.5508245,-56.74952,2.837241,20.31626
47.95,99.6661,-51.60444,10.2238,0.5162718,-0.4972806,0.4157985,-53.4486,-3.495542,26.13662
47.96,110.8045,-56.14024,10.71228,0.4116346,-0.2968299,0.3035257,-53.4486,-3.495542,26.13662
47.97,106.1998,-52.25241,10.40698,0.3345174,-0.1053918,0.2940874,-53.4486,-3.495542,26.13662
47.98,88.9010099999998,-42.23831,12.91041,0.1805087,0.08620243,0.3143691,-53.4486,-3.495542,26.13662
47.99,78.5092799999998,-32.87217,15.23065,0.05803356,0.2140708,0.2183009,-53.4486,-3.495542,26.13662
48,79.6915700000001,-17.20304,19.62691,0.03705253,0.3702691,0.06416696,-50.99108,-2.439295,28.92396
48.01,69.2376099999999,-5.127204,9.85744699999997,0.03335069,0.4183969,-0.1746008,-50.99108,-2.439295,28.92396
48.02,54.92564,-7.777998,1.431281,0.02246846,0.3660075,-0.2852452,-50.99108,-2.439295,28.92396
48.03,24.18602,-18.55789,-0.1562568,-0.003581239,0.2662572,-0.3757634,-50.99108,-2.439295,28.92396
48.04,-2.260012,-31.45842,1.187045,-0.006109708,0.2049244,-0.3064148,-50.99108,-2.439295,28.92396
48.05,-8.48260700000002,-37.87923,0.2711574,0.006959106,0.09319377,-0.2578838,-49.58296,0.3981638,29.33446
48.06,5.144876,-42.59175,1.125986,0.001381851,-0.005444498,-0.1905534,-49.58296,0.3981638,29.33446
48.07,28.72851,-48.89474,4.667417,-0.01998737,-0.1139413,-0.1826385,-49.58296,0.3981638,29.33446
48.08,55.05009,-58.8499500000002,5.82754100000001,-0.02696295,-0.1944982,-0.2011665,-49.58296,0.3981638,29.33446
48.09,88.7143299999999,-73.3409500000003,8.63626400000003,0.0509585,-0.2253212,-0.1450561,-49.58296,0.3981638,29.33446
48.1,90.5188799999997,-79.7028499999999,19.38268,0.2707562,-0.1334197,-0.1254723,-49.24518,1.146588,30.90587
48.11,80.0026899999999,-82.5303600000001,27.50354,0.5976114,0.01776194,-0.1711115,-49.24518,1.146588,30.90587
48.12,68.9264799999999,-74.5190800000002,27.50354,0.8336114,0.1069134,-0.2016769,-49.24518,1.146588,30.90587
48.13,57.04132,-77.4644000000003,23.47364,1.027935,0.2245912,-0.1994751,-49.24518,1.146588,30.90587
48.14,44.59613,-83.8852200000001,20.29856,1.191191,0.3481792,-0.05305862,-49.24518,1.146588,30.90587
48.15,36.1334,-76.8164300000001,13.45994,1.148074,0.4574308,0.2365943,-47.91104,3.304735,34.10755
48.16,32.15094,-53.25383,-0.5226117,1.11553,0.3199506,0.5257441,-47.91104,3.304735,34.10755
48.17,35.51114,-25.9212,-13.52821,1.18597,0.0117978,0.5315365,-47.91104,3.304735,34.10755
48.18,56.9791,-13.72756,-19.63413,1.236586,-0.2497643,0.5156631,-47.91104,3.304735,34.10755
48.19,70.3576700000001,-8.83831500000002,-7.72759299999999,1.243625,-0.4503954,0.5852196,-47.91104,3.304735,34.10755
48.2,96.9903800000001,11.36662,18.77208,1.258726,-0.3340749,0.1661737,-46.119,4.413393,36.12933
48.21,106.6354,20.55604,34.40323,1.457547,0.2238009,0.03759757,-46.119,4.413393,36.12933
48.22,84.1096100000001,30.1578,38.24996,1.97723,0.3277592,0.2215648,-46.119,4.413393,36.12933
48.23,63.9483999999999,66.6209300000002,25.85495,2.24787,0.4745772,0.4889454,-46.119,4.413393,36.12933
48.24,-0.1443296,120.3437,17.00137,2.385085,0.716058,0.6900761,-46.119,4.413393,36.12933
48.25,-68.0950700000003,181.4886,7.53719800000002,2.633455,0.8678313,0.7233738,-45.78005,6.505116,34.83511
48.26,-91.4297999999999,239.0403,-16.03164,2.662066,0.5357807,0.6382876,-45.78005,6.505116,34.83511
48.27,-85.2694300000001,259.4809,-32.70079,2.155165,0.08246264,0.7141787,-45.78005,6.505116,34.83511
48.28,-61.9969300000001,294.3535,-63.6577899999999,1.544157,-0.2541547,0.408356,-45.78005,6.505116,34.83511
48.29,-62.4325099999997,305.9581,-30.50266,1.357566,-0.3736295,-0.1169126,-45.78005,6.505116,34.83511
48.3,-116.0713,277.7419,6.56025100000003,1.667419,-0.1731738,-0.1576643,-48.59865,8.542236,25.1689
48.31,-152.6601,271.5567,32.26616,2.253376,-0.4837426,-0.2200347,-48.59865,8.542236,25.1689
48.32,-147.931,268.5525,74.8854599999998,2.803966,-0.7861404,0.00753318,-48.59865,8.542236,25.1689
48.33,-135.1124,265.8428,102.1789,2.955436,-0.8509119,0.3117903,-48.59865,8.542236,25.1689
48.34,-74.5665700000001,282.5722,101.0798,2.937097,-0.4587618,0.3449169,-48.59865,8.542236,25.1689
48.35,-54.15646,281.9832,87.5246999999999,2.71906,0.1844393,0.004575275,-54.56127,4.431327,11.46263
48.36,-105.6795,252.5299,62.7346800000002,2.654543,0.7682369,-0.4537226,-54.56127,4.431327,11.46263
48.37,-118.8714,202.9895,30.37333,2.715721,1.139038,-0.8137141,-54.56127,4.431327,11.46263
48.38,-41.46236,191.0315,-10.23102,2.65061,1.344314,-0.2700908,-54.56127,4.431327,11.46263
48.39,-14.89188,221.3683,-16.82541,2.515848,0.6196657,0.3027195,-54.56127,4.431327,11.46263
48.4,-12.52729,216.3613,-1.37744,2.240126,0.2759646,0.2612179,-54.79641,7.413025,-2.239513
48.41,-23.72797,218.1874,24.93906,2.06702,-0.1109081,0.1740461,-54.79641,7.413025,-2.239513
48.42,-39.16,208.5267,37.02878,1.521959,-0.1366814,-0.06482908,-54.79641,7.413025,-2.239513
48.43,-88.5674099999999,182.0188,27.38143,0.9254642,-0.1701989,-0.313022,-54.79641,7.413025,-2.239513
48.44,-122.6672,157.1602,35.5023,0.6788828,-0.001804132,-0.3166737,-52.60035,8.993719,-11.91453
48.45,-128.2053,139.2527,30.98392,0.6347545,0.208401,-0.3660382,-52.60035,8.993719,-11.91453
48.46,-126.6497,123.1712,31.89981,0.5052693,0.2743158,-0.3507889,-52.60035,8.993719,-11.91453
48.47,-120.9871,108.798,30.25121,0.3992113,0.2986322,-0.4065032,-52.60035,8.993719,-11.91453
48.48,-118.0003,85.8244599999998,26.40448,0.258584,0.2951931,-0.345107,-52.60035,8.993719,-11.91453
48.49,-93.2965900000002,31.92499,1.919755,0.2459131,0.36481,-0.3951751,-52.60035,8.993719,-11.91453
48.5,-97.1545900000001,29.62764,-0.5226117,0.1191504,-0.02438668,-0.3519443,-48.34138,12.091,-16.66425
48.51,-109.9731,30.68796,5.76648200000002,-0.06733388,-0.1635106,-0.4839776,-48.34138,12.091,-16.66425
48.52,-100.4526,15.25445,0.6375124,-0.1701134,-0.1441163,-0.6579186,-48.34138,12.091,-16.66425
48.53,-72.2019800000003,-8.42596899999999,-9.80360399999999,-0.1784302,-0.244768,-0.6499531,-48.34138,12.091,-16.66425
48.54,-42.58243,-28.51309,-23.29768,-0.2231626,-0.2045497,-0.60607,-46.56432,14.62914,-15.92948
48.55,-23.97687,-42.59175,-29.22042,-0.2594819,-0.1938358,-0.5144564,-46.56432,14.62914,-15.92948
48.56,-13.77181,-50.3674,-36.4254,-0.3099667,-0.1548674,-0.4966485,-46.56432,14.62914,-15.92948
48.57,-6.80250599999998,-59.6157300000001,-42.65343,-0.341893,-0.1287023,-0.4657915,-46.56432,14.62914,-15.92948
48.58,-3.753435,-65.6831000000001,-46.01169,-0.3740658,-0.1267804,-0.4398127,-46.56432,14.62914,-15.92948
48.59,-0.3310075,-72.4573499999998,-49.06465,-0.3589386,-0.131075,-0.446056,-45.50737,15.68831,-13.53459
48.6,2.220257,-77.8767499999998,-50.65219,-0.3933926,-0.1404511,-0.4365141,-45.50737,15.68831,-13.53459
48.61,6.887203,-83.2372399999997,-50.7743,-0.4120412,-0.1725725,-0.4404916,-45.50737,15.68831,-13.53459
48.62,14.85213,-93.1924399999997,-51.26278,-0.4074179,-0.1939927,-0.45838,-45.50737,15.68831,-13.53459
48.63,26.42615,-99.6721599999999,-50.59113,-0.4223567,-0.2165826,-0.4285491,-45.50737,15.68831,-13.53459
48.64,45.77842,-112.5727,-47.35499,-0.3801292,-0.2127599,-0.4168508,-46.9742,14.00435,-9.918833
48.65,69.7976399999997,-124.0595,-43.08085,-0.2753364,-0.1604114,-0.3378125,-46.9742,14.00435,-9.918833
48.66,87.3453599999998,-130.7748,-41.31013,-0.175818,-0.1069376,-0.2901511,-46.9742,14.00435,-9.918833
48.67,105.0175,-140.3177,-36.91387,0.01337546,-0.05614443,-0.1351384,-46.9742,14.00435,-9.918833
48.68,111.8624,-145.4425,-29.64783,0.2081717,0.01562091,0.03296273,-46.9742,14.00435,-9.918833
48.69,105.6398,-143.7932,-26.35064,0.5138544,0.1344309,0.3833719,-47.68562,10.87278,-5.830493
48.7,89.8343999999998,-125.2376,-26.04534,1.019037,0.24805,0.6840993,-47.68562,10.87278,-5.830493
48.71,72.6600300000003,-106.682,-21.03849,1.822564,0.3674933,0.8379487,-47.68562,10.87278,-5.830493
48.72,45.09394,-88.7155500000003,-0.4004934,2.762234,0.5410801,0.9753764,-47.68562,10.87278,-5.830493
48.73,-8.17147700000002,-67.2146700000002,36.90666,3.474345,0.5365586,1.571221,-47.68562,10.87278,-5.830493
48.74,-25.78142,5.711595,47.83625,3.261466,-0.3972724,2.091264,-48.71519,8.467188,-1.819907
48.75,-43.7025,77.7542600000002,36.05183,1.988182,-0.6555242,2.294922,-48.71519,8.467188,-1.819907
48.76,-64.3615100000003,114.8065,5.094831,0.794552,-0.5743232,1.337054,-48.71519,8.467188,-1.819907
48.77,-54.21869,94.6015200000002,-31.23537,0.6997235,-0.5204656,0.7955051,-48.71519,8.467188,-1.819907
48.78,-56.45882,49.06679,-49.30888,1.033793,-0.4036067,0.5350764,-48.71519,8.467188,-1.819907
48.79,-64.2992899999997,28.97967,-49.49206,1.268498,-0.2430501,0.3753382,-48.40166,8.801971,-3.402436
48.8,-81.0380699999999,26.38778,-35.32634,1.332812,-0.2591844,0.1959612,-48.40166,8.801971,-3.402436
48.81,-80.6647100000003,14.60648,-8.82665800000002,1.478469,-0.6948847,-0.2113885,-48.40166,8.801971,-3.402436
48.82,-27.02594,-20.14837,30.73968,2.107131,-1.092584,0.05960524,-48.40166,8.801971,-3.402436
48.83,61.7704899999999,-9.07394100000001,62.6125700000002,2.72395,-0.7449301,0.8817939,-48.40166,8.801971,-3.402436
48.84,99.5416499999998,42.11582,56.38453,3.720757,-0.6029972,2.490592,-48.00729,7.698642,-4.202843
48.85,14.66545,143.5528,84.3496299999997,4.682047,-0.9474247,3.810654,-48.00729,7.698642,-4.202843
48.86,-163.923,216.2435,88.5627100000002,2.130141,0.1451404,0.7629863,-48.00729,7.698642,-4.202843
48.87,-155.7092,40.52534,22.98517,-0.5630113,-0.2825547,-2.505461,-48.00729,7.698642,-4.202843
48.88,-28.89272,-36.40656,-16.88647,-1.19348,-0.2265498,-1.44922,-48.00729,7.698642,-4.202843
48.89,75.9580100000001,-98.49403,-48.02664,-1.25692,-0.02075486,-1.169063,-46.55293,9.053047,-5.790881
48.9,241.8524,-106.5642,-76.7244499999998,-0.9281862,-0.3924501,-0.8153057,-46.55293,9.053047,-5.790881
48.91,299.847,-91.0129000000002,-60.7880100000001,-0.7187811,-0.92483,-0.3613492,-46.55293,9.053047,-5.790881
48.92,193.6273,-189.0334,-42.34814,-0.3124339,-0.4898107,-0.7666371,-46.55293,9.053047,-5.790881
48.93,122.0052,-257.8951,-13.16186,0.8462942,-0.1564236,-0.7523159,-46.55293,9.053047,-5.790881
48.94,125.6765,-145.2658,-2.11015,2.123617,0.1816189,-0.3810754,-45.85921,10.1678,-3.842725
48.95,141.9175,-61.6774599999999,-11.20796,3.205225,1.085453,-0.7922998,-45.85921,10.1678,-3.842725
48.96,95.5591799999997,-127.2993,-34.59362,3.616884,1.725967,-0.264848,-45.85921,10.1678,-3.842725
48.97,23.81266,-110.1575,-19.93943,2.593102,1.25745,0.8162742,-45.85921,10.1678,-3.842725
48.98,5.020424,-63.9158999999998,-6.81170600000001,1.259781,0.1282709,-0.02729685,-45.85921,10.1678,-3.842725
48.99,47.70743,-79.7028499999999,-30.68584,0.6764339,-0.2030872,-0.151116,-45.5189,9.157196,1.043411
49,105.7642,-82.00021,-59.38365,0.5108797,-0.3255249,-0.1691779,-45.5189,9.157196,1.043411
49.01,142.042,-97.7871499999998,-57.7350499999999,0.7270794,-0.1973632,-0.2035709,-45.5189,9.157196,1.043411
49.02,121.6941,-113.5741,-41.49331,0.908989,0.0591628,-0.4081161,-45.5189,9.157196,1.043411
49.03,52.18769,-144.7357,-33.61668,1.0258,0.5067272,-0.5699542,-45.53716,8.54512,4.276482
49.04,-24.72358,-181.1399,-42.28708,1.10882,0.8686279,-0.7035931,-45.53716,8.54512,4.276482
49.05,-39.78226,-207.2355,-47.53817,1.195238,1.160691,-0.590791,-45.53716,8.54512,4.276482
49.06,22.07034,-199.99,-60.72695,1.275844,1.090791,-0.3108551,-45.53716,8.54512,4.276482
49.07,102.8396,-139.1395,-88.8752199999997,1.247634,0.7950331,0.184014,-45.53716,8.54512,4.276482
49.08,137.2506,-103.6189,-103.8958,1.066664,0.3235668,0.06093138,-45.53716,8.54512,4.276482
49.09,169.2347,-113.0439,-100.3543,0.925431,-0.07830803,0.1060279,-45.24952,6.11677,11.14407
49.1,204.7035,-125.8856,-91.8671199999998,0.8534678,-0.4216237,0.03899502,-45.24952,6.11677,11.14407
49.11,209.0593,-147.9755,-92.7830099999998,0.8630884,-0.6532214,0.1601242,-45.24952,6.11677,11.14407
49.12,159.5275,-150.0961,-86.1275600000001,0.9375013,-0.8077341,0.5069366,-45.24952,6.11677,11.14407
49.13,64.6951100000001,-118.2866,-38.01294,0.9679196,-1.040031,0.8525032,-44.16108,4.080456,16.43281
49.14,31.342,-76.9931499999999,16.81819,0.8670471,-0.7080933,0.5084168,-44.16108,4.080456,16.43281
49.15,31.90203,-55.96352,31.04498,0.9746072,-0.3634609,0.5301846,-44.16108,4.080456,16.43281
49.16,44.53391,-42.65065,36.41819,1.043098,-0.09437256,0.1545517,-44.16108,4.080456,16.43281
49.17,73.90456,-56.6115,36.78454,1.008442,0.1570649,0.05463269,-44.16108,4.080456,16.43281
49.18,112.6091,-62.7377699999998,54.36958,0.8744119,0.6272941,-0.007915972,-42.03828,3.037769,20.07209
49.19,126.9833,-67.62701,46.18765,0.7123212,0.9607267,-0.188573,-42.03828,3.037769,20.07209
49.2,114.6003,-61.0883900000001,15.78018,0.4656101,1.169413,-0.2847879,-42.03828,3.037769,20.07209
49.21,89.8343999999998,-60.9116699999997,-30.19737,0.33391,0.9093314,-0.3011282,-42.03828,3.037769,20.07209
49.22,72.2866799999997,-64.7405900000003,-55.1095,0.5177544,0.4134017,-0.2336808,-42.03828,3.037769,20.07209
49.23,79.7537900000001,-60.3226100000002,-58.7119900000003,0.7236,-0.05631156,-0.122691,-39.92187,6.614065,21.6152
49.24,85.3541300000001,-58.02525,-49.7363,0.7673656,-0.2922531,-0.02947085,-39.92187,6.614065,21.6152
49.25,80.18938,-48.95365,-25.55687,0.7395629,-0.4583074,0.04055259,-39.92187,6.614065,21.6152
49.26,56.10793,-45.47816,2.408228,0.6688297,-0.4587086,-0.04938478,-39.92187,6.614065,21.6152
49.27,45.59174,-53.25383,18.46679,0.6932223,-0.1972525,-0.268802,-39.92187,6.614065,21.6152
49.28,53.93002,-60.73495,15.71913,0.7777387,0.007963237,-0.2319518,-38.92348,7.727869,23.62943
49.29,66.1885400000001,-57.6718099999999,8.69732300000001,0.8539227,0.1017916,-0.1437297,-38.92348,7.727869,23.62943
49.3,77.5758800000001,-50.60303,6.68236999999997,0.8794121,0.1066483,-0.05727725,-38.92348,7.727869,23.62943
49.31,82.4295099999999,-41.53143,6.987666,0.9171101,0.2107704,0.02507712,-38.92348,7.727869,23.62943
49.32,86.3497499999998,-32.63655,5.583305,1.016123,0.3447005,-0.01973919,-38.92348,7.727869,23.62943
49.33,86.2252899999999,-25.33214,-2.476505,1.152089,0.363118,-0.02658716,-37.49053,8.826538,24.88953
49.34,85.1674499999997,-21.62103,-6.445351,1.266482,0.2252088,0.03662528,-37.49053,8.826538,24.88953
49.35,80.5627299999999,-11.19458,-11.39114,1.225398,0.1151047,0.1506467,-37.49053,8.826538,24.88953
49.36,78.8826299999997,-2.064066,-9.43724899999998,1.12896,-0.02162466,0.1515517,-37.49053,8.826538,24.88953
49.37,81.8694800000002,10.60083,-4.796753,1.174173,-0.1070442,0.08585801,-37.49053,8.826538,24.88953
49.38,78.0736899999999,21.55745,2.469287,1.28163,-0.05900126,0.2744325,-35.74068,10.54664,23.61448
49.39,68.9264799999999,43.23504,5.644364,1.344653,-0.06779385,0.3710859,-35.74068,10.54664,23.61448
49.4,62.5794300000003,59.61106,17.24561,1.482729,0.03866188,0.3581595,-35.74068,10.54664,23.61448
49.41,57.04132,83.4092899999999,25.30541,1.808849,0.121053,0.4648559,-35.74068,10.54664,23.61448
49.42,48.8275,117.5751,32.63251,1.923242,0.06139266,0.6179906,-35.74068,10.54664,23.61448
49.43,36.1334,146.4393,34.40323,1.889899,-0.05133957,0.7556712,-35.76505,12.63558,22.00085
49.44,18.08787,197.2167,43.31787,1.967519,-0.1268612,0.899026,-35.76505,12.63558,22.00085
49.45,6.32716899999999,265.1948,54.85805,2.25941,-0.1148212,0.9620535,-35.76505,12.63558,22.00085
49.46,-8.85596300000002,341.5966,55.46864,2.492278,-0.1306305,0.8337796,-35.76505,12.63558,22.00085
49.47,10.43408,375.1143,50.64497,2.385593,-0.2297283,0.3521902,-35.76505,12.63558,22.00085
49.48,45.77842,384.3038,34.46429,1.651085,0.003665204,-0.1216177,-36.76084,13.97391,14.70151
49.49,53.80557,357.5602,17.61196,1.586689,0.05913486,-0.7779309,-36.76084,13.97391,14.70151
49.5,-3.442305,330.3454,-13.46715,2.011284,-0.03128727,-1.079588,-36.76084,13.97391,14.70151
49.51,-77.7400999999998,280.9818,1.5534,2.649728,-0.5494247,-1.501286,-36.76084,13.97391,14.70151
49.52,-161.6829,194.1535,36.78454,2.624133,-0.597151,-1.033865,-36.76084,13.97391,14.70151
49.53,-254.1507,159.7521,42.58516,2.165945,-0.4436503,-0.2066626,-37.78394,16.2491,1.824889
49.54,-213.7038,187.9683,70.8555500000001,1.958182,-0.2649403,0.1454464,-37.78394,16.2491,1.824889
49.55,-151.7267,214.7119,94.7907500000003,1.790519,0.4050472,-0.2193177,-37.78394,16.2491,1.824889
49.56,-128.1431,212.2967,57.6057200000001,1.862997,0.9570973,-0.3482321,-37.78394,16.2491,1.824889
49.57,-122.5428,190.0301,-0.4004934,2.067417,1.166876,-0.4442463,-37.78394,16.2491,1.824889
49.58,-110.7821,158.9863,-40.63848,2.23661,0.4692644,-0.1914889,-37.77505,17.98856,-2.690333
49.59,-53.72087,202.3415,-5.468404,2.363741,-0.2554266,-0.1130985,-37.77505,17.98856,-2.690333
49.6,19.45684,228.2604,34.40323,1.793277,-0.3013491,-0.4172266,-37.77505,17.98856,-2.690333
49.61,33.76881,169.6484,6.68236999999997,1.040763,-0.09718003,-0.4177633,-37.77505,17.98856,-2.690333
49.62,-9.97603000000001,120.4615,-34.16621,0.7417126,-0.3105697,-0.3717035,-37.77505,17.98856,-2.690333
49.63,-47.12492,77.6953599999999,-45.76745,0.599987,-0.3937278,-0.3481204,-37.03932,20.37654,-7.904312
49.64,-81.1003000000002,79.1680100000002,-18.29083,0.557252,-0.3070391,-0.3046148,-37.03932,20.37654,-7.904312
49.65,-91.6164799999997,82.9380299999999,-10.84161,0.4332851,-0.03328708,-0.5350044,-37.03932,20.37654,-7.904312
49.66,-94.3544200000001,72.3348600000003,-2.659683,0.305964,0.008469176,-0.5173887,-37.03932,20.37654,-7.904312
49.67,-89.1896699999999,70.7443800000002,-4.613576,0.1128801,-0.1368148,-0.5230244,-37.03932,20.37654,-7.904312
49.68,-80.3535800000003,62.3796600000002,0.0879799099999998,-0.03860798,-0.2171014,-0.4946348,-35.61486,20.6836,-10.74008
49.69,-74.0687600000003,51.48196,4.606358,-0.1757944,-0.1613481,-0.4726715,-35.61486,20.6836,-10.74008
49.7,-70.0862999999999,33.57438,9.55215100000001,-0.3054215,-0.1345596,-0.4493033,-35.61486,20.6836,-10.74008
49.71,-64.8593200000001,16.13805,9.24685499999998,-0.3534308,-0.1498533,-0.4402916,-35.61486,20.6836,-10.74008
49.72,-59.2589899999997,5.593781,11.26181,-0.447764,-0.2121311,-0.3962743,-35.61486,20.6836,-10.74008
49.73,-50.48513,-4.125793,12.05558,-0.4727387,-0.1840497,-0.4266789,-34.90814,22.06851,-10.75548
49.74,-33.31076,-18.61679,12.78829,-0.4356287,-0.2072891,-0.4063661,-34.90814,22.06851,-10.75548
49.75,-17.87873,-32.34201,10.40698,-0.43227,-0.2635951,-0.3746303,-34.90814,22.06851,-10.75548
49.76,-4.74905,-47.18645,4.362122,-0.3984773,-0.2932396,-0.3639908,-34.90814,22.06851,-10.75548
49.77,8.87843300000002,-63.6802799999997,-0.5226117,-0.3291765,-0.2727689,-0.3541171,-35.31032,23.18524,-9.133685
49.78,18.33678,-78.0534700000001,-8.64347999999997,-0.2921748,-0.2904924,-0.3125605,-35.31032,23.18524,-9.133685
49.79,30.47084,-95.4897999999999,-17.61918,-0.2052942,-0.2865636,-0.2742067,-35.31032,23.18524,-9.133685
49.8,45.40507,-110.511,-26.83911,-0.101568,-0.2594362,-0.2536138,-35.31032,23.18524,-9.133685
49.81,63.5750499999999,-125.2376,-35.93693,0.0304929,-0.2508431,-0.2199588,-35.31032,23.18524,-9.133685
49.82,77.7625700000002,-131.8351,-42.16496,0.1749851,-0.22177,-0.1799547,-34.96685,23.22201,-6.729219
49.83,96.7414799999998,-136.4887,-48.75935,0.3603013,-0.1499409,-0.1030796,-34.9736,23.58453,-6.735054
49.84,111.1779,-140.6711,-52.66714,0.6273905,-0.04386138,-0.001792574,-34.9736,23.58453,-6.735054
49.85,121.4452,-132.8365,-55.17056,0.8940724,0.04413234,0.133233,-34.9736,23.58453,-6.735054
49.86,130.7791,-118.1688,-49.18676,1.196269,0.09552731,0.2045749,-34.9736,23.58453,-6.735054
49.87,136.4417,-104.6203,-42.83661,1.392063,0.217596,0.3689264,-36.00413,21.82399,-3.935656
49.88,137.1884,-89.7169599999999,-38.56247,1.483041,0.3811223,0.4988357,-36.00413,21.82399,-3.935656
49.89,129.5968,-74.63689,-38.37929,1.402733,0.4454784,0.672967,-36.00413,21.82399,-3.935656
49.9,108.5644,-59.6157300000001,-31.54067,1.395241,0.1990644,0.8823267,-36.00413,21.82399,-3.935656
49.91,80.6871800000001,-36.22984,-11.26902,1.365138,0.05245907,1.01753,-36.00413,21.82399,-3.935656
49.92,56.29461,-19.50039,-5.590523,1.403913,-0.00380847,1.07638,-37.06833,19.37347,-2.705737
49.93,40.61367,-8.308156,-13.52821,1.57972,-0.01502933,1.182005,-37.06833,19.37347,-2.705737
49.94,43.78719,1.352512,-24.70204,1.837704,-0.07560486,1.271329,-37.06833,19.37347,-2.705737
49.95,53.43222,-1.416094,-33.37244,2.00832,-0.2061657,1.189938,-37.06833,19.37347,-2.705737
49.96,66.9974700000003,-8.54378199999999,-45.34004,2.025179,-0.2853809,0.9794196,-37.06833,19.37347,-2.705737
49.97,83.3006699999997,-13.31521,-55.04845,1.98539,-0.4569676,0.8240499,-37.40154,17.97382,-3.445059
49.98,82.1183799999999,-7.24783800000001,-52.7282,1.858812,-0.3980345,0.8672796,-37.40154,17.97382,-3.445059
49.99,57.7258100000001,3.237521,-46.07275,1.610703,-0.06092465,0.8451672,-37.40154,17.97382,-3.445059
50,14.7899,8.30348000000001,-42.59238,1.381928,0.1485348,0.7654068,-37.40154,17.97382,-3.445059
50.01,-21.55006,12.89819,-35.02104,1.208131,0.09651013,0.6746102,-37.40154,17.97382,-3.445059
50.02,-52.72526,13.25163,-14.7494,0.9837214,-0.2523765,0.5511966,-37.73978,16.87523,-4.252425
50.03,-52.16523,8.59801299999999,5.400127,0.8240499,-0.3057911,0.4551252,-37.73978,16.87523,-4.252425
50.04,-47.62273,-0.709215699999997,20.90915,0.8469806,-0.1186339,0.315165,-37.73978,16.87523,-4.252425
50.05,-54.59204,-17.43867,28.72473,0.7693831,-0.06194742,0.2291931,-37.73978,16.87523,-4.252425
50.06,-64.67265,-48.71803,33.24311,0.930838,-0.1258315,0.2502217,-37.73978,16.87523,-4.252425
50.07,-65.4193600000002,-72.1039099999997,38.86055,1.457037,-0.2162918,0.4955541,-38.07907,15.42753,-4.232569
50.08,-34.3686,-52.0757,32.93781,1.867853,-0.1277904,0.7226367,-38.07907,15.42753,-4.232569
50.09,34.2044,-22.68134,-0.644730100000001,1.961466,-0.2791323,0.6038457,-38.07907,15.42753,-4.232569
50.1,83.3006699999997,-5.18611,-22.62603,1.869401,-0.6220382,0.5990108,-38.07907,15.42753,-4.232569
50.11,74.6512700000002,23.56027,-7.54441600000003,1.379515,-1.025244,0.3174847,-38.07907,15.42753,-4.232569
50.12,68.3664399999999,34.92923,-0.888966700000001,0.6285236,-0.9702022,-0.2773863,-37.7548,16.90099,-2.672831
50.13,94.8124799999998,40.40753,-32.45655,0.0890588,-0.7321866,-0.6228058,-37.7548,16.90099,-2.672831
50.14,152.4959,-12.07817,-73.7325500000003,-0.2366251,-0.5589499,-0.8775765,-37.7548,16.90099,-2.672831
50.15,194.0629,-46.7152,-110.1849,-0.316508,-0.2968161,-0.8270339,-37.7548,16.90099,-2.672831
50.16,176.8885,-97.0802700000003,-102.6135,-0.2495932,-0.2479733,-0.5690753,-37.7548,16.90099,-2.672831
50.17,155.8561,-134.1914,-45.15686,-0.04589308,-0.1417429,-0.3970167,-37.74653,17.23775,-4.25826
50.18,124.1209,-120.1127,9.00261899999998,0.4966305,0.1019034,-0.5171786,-37.74653,17.23775,-4.25826
50.19,102.404,-62.6199600000001,36.90666,1.259552,0.1099364,-0.6059129,-37.74653,17.23775,-4.25826
50.2,99.35497,-19.85383,49.36273,2.105147,0.390497,-0.3854994,-37.74653,17.23775,-4.25826
50.21,98.7949400000002,-36.46547,48.87426,3.013187,0.8062751,-0.356206,-37.74653,17.23775,-4.25826
50.22,92.13676,-79.5261300000001,22.25246,2.720723,0.8475678,0.3365511,-38.79046,13.69967,-3.010839
50.23,91.7011799999998,-23.68276,8.08673100000003,1.571761,0.2056029,-0.2516763,-38.79046,13.69967,-3.010839
50.24,120.7607,-51.66335,-11.4522,0.9254813,0.02852491,-0.651344,-38.79046,13.69967,-3.010839
50.25,159.7142,-79.6439399999999,-38.44035,0.6842602,0.1127702,-0.5470719,-38.79046,13.69967,-3.010839
50.26,163.8211,-83.17834,-62.0091899999998,0.6984184,0.1763906,-0.4281916,-38.79046,13.69967,-3.010839
50.27,160.772,-100.6147,-69.33629,0.792369,0.164493,-0.4332829,-38.4604,15.45566,-2.656454
50.28,135.1971,-114.2221,-67.1992199999998,1.000507,0.2506542,-0.3963697,-38.4604,15.45566,-2.656454
50.29,138.4951,-121.4087,-64.63474,1.153168,0.2140459,-0.4549257,-38.4604,15.45566,-2.656454
50.3,164.63,-129.5967,-62.1923700000002,1.32807,0.4287065,-0.255203,-38.4604,15.45566,-2.656454
50.31,205.0146,-125.2376,-58.7119900000003,1.548496,0.5463379,-0.01455485,-38.4604,15.45566,-2.656454
50.32,224.8647,-100.8503,-48.63723,1.71323,0.6902398,0.2356571,-38.81283,14.08898,-1.373894
