Time (s),Gyroscope X (deg/s),Gyroscope Y (deg/s),Gyroscope Z (deg/s),Accelerometer X (g),Accelerometer Y (g),Accelerometer Z (g),Magnetometer X (uT),Magnetometer Y (uT),Magnetometer Z (uT)
12.457331181,-12.15476,9.20381500000001,13.42439,1.014594,-0.002543854,-0.1629921,-25.88147,-22.15217,52.3935
12.467329025,-15.04683,18.9376,15.31449,1.029871,-0.01135647,-0.1500949,-25.88147,-22.15217,52.3935
12.47732687,-16.64669,29.14621,16.9607,1.051904,-0.01663403,-0.1372104,-25.88147,-22.15217,52.3935
12.487325192,-17.75429,39.94834,18.85079,1.068121,-0.02342291,-0.1176153,-25.88147,-22.15217,52.3935
12.497323036,-17.81582,50.57241,20.86283,1.080638,-0.04112037,-0.113804,-25.87023,-22.53906,51.62153
12.507320404,-15.72369,61.5525999999999,22.93583,1.096222,-0.04012913,-0.09229551,-25.87023,-22.53906,51.62153
12.517318249,-13.93923,72.41409,24.8869,1.09717,-0.0386131,-0.08799036,-25.87023,-22.53906,51.62153
12.527316094,-12.4009,83.3349199999998,26.53311,1.104914,-0.03539532,-0.0717331,-25.87023,-22.53906,51.62153
12.537314415,-11.04717,94.2557500000003,27.9964,1.119571,-0.03681702,-0.04639376,-25.87023,-22.53906,51.62153
12.54731226,-9.75496900000002,104.5831,28.97194,1.124329,-0.05664662,-0.04639694,-26.9874,-22.56112,50.00067
12.557310104,-8.46277000000003,114.9104,29.64261,1.15427,-0.0938708,-0.03686804,-26.9874,-22.56112,50.00067
12.567307949,-4.032378,125.4158,30.13038,1.184274,-0.1345348,-0.03164553,-26.9874,-22.56112,50.00067
12.577306271,2.797811,136.2179,30.67912,1.217179,-0.1478542,-0.01829934,-26.9874,-22.56112,50.00067
12.587304115,8.95113399999999,146.9013,31.53271,1.243259,-0.1350456,-0.002555088,-26.9874,-22.56112,50.00067
12.597301483,13.75073,157.1099,32.32533,1.269882,-0.1251157,0.01606041,-30.72491,-22.24321,45.90733
12.607299328,16.15052,166.9031,32.26436,1.323673,-0.1088264,0.03366976,-30.72491,-22.24321,45.90733
12.617297172,17.44272,177.2897,31.95951,1.379322,-0.08764984,0.05031746,-30.72491,-22.24321,45.90733
12.627295494,18.05805,188.3293,30.86203,1.433377,-0.05904895,0.08515191,-30.72491,-22.24321,45.90733
12.637293339,17.25812,199.4875,28.4232,1.476061,-0.0220398,0.1075611,-30.72491,-22.24321,45.90733
12.647291183,14.98139,209.5774,25.00884,1.501402,-0.02194612,0.1161312,-34.49557,-20.40061,42.19286
12.657289505,12.33546,216.581,22.93583,1.525268,-0.07360632,0.1012671,-34.49557,-20.40061,42.19286
12.66728735,10.79713,223.0504,22.32612,1.575499,-0.1274595,0.108372,-34.49557,-20.40061,42.19286
12.677285194,11.1048,230.9443,21.65545,1.634822,-0.1459303,0.1389022,-34.49557,-20.40061,42.19286
12.687283039,12.2124,238.1853,21.10671,1.681883,-0.1603621,0.1594027,-34.49557,-20.40061,42.19286
12.697280407,16.15052,243.5863,20.61894,1.709342,-0.1695647,0.1564857,-40.12244,-18.60585,34.46547
12.707278728,20.95011,247.6223,20.74088,1.728113,-0.1826467,0.1732065,-40.12244,-18.60585,34.46547
12.717276573,25.19591,250.946,21.35059,1.741888,-0.21608,0.1540481,-40.12244,-18.60585,34.46547
12.727274418,30.7339,254.2697,22.20418,1.734622,-0.1652118,0.2057339,-40.12244,-18.60585,34.46547
12.737272739,32.33376,257.7715,22.02127,1.745566,-0.1243291,0.242076,-40.12244,-18.60585,34.46547
12.747270584,31.53383,262.6978,22.02127,1.693755,-0.08908164,0.2761362,-46.49764,-16.4538,24.66649
12.757268429,27.7803,266.8524,21.10671,1.640529,-0.08266865,0.2953703,-46.49764,-16.4538,24.66649
12.767266273,24.94977,270.5323,20.13118,1.603702,-0.1199778,0.2806083,-46.49764,-16.4538,24.66649
12.777264595,25.31897,273.856,20.31409,1.567933,-0.1615519,0.275417,-46.49764,-16.4538,24.66649
12.78726244,28.64177,276.5269,20.86283,1.53545,-0.1705336,0.2668616,-46.49764,-16.4538,24.66649
12.797259808,30.5493,279.1384,19.76535,1.521614,-0.1599846,0.2812403,-50.51556,-16.1998,13.28228
12.807257652,27.71877,280.1474,18.24108,1.51114,-0.1462562,0.3171482,-50.51556,-16.1998,13.28228
12.817255497,25.74971,277.7139,18.18011,1.460153,-0.1297346,0.3210614,-50.51556,-16.1998,13.28228
12.827253818,24.70364,272.6096,19.88729,1.41299,-0.1341416,0.3661309,-50.51556,-16.1998,13.28228
12.837251663,19.47332,268.9891,18.72885,1.328149,-0.07867315,0.3978506,-50.51556,-16.1998,13.28228
12.847249508,15.04292,264.0035,17.9972,1.27058,-0.1262153,0.4247634,-52.7486,-14.42059,0.7423973
12.857247829,13.13539,259.7302,17.87526,1.218924,-0.1512698,0.4535745,-52.7486,-14.42059,0.7423973
12.867245674,14.61219,256.0503,16.59487,1.177134,-0.1558592,0.5201706,-52.7486,-14.42059,0.7423973
12.877243519,20.02711,252.7859,12.9976,1.137171,-0.1829388,0.461861,-52.7486,-14.42059,0.7423973
12.887241363,35.34889,252.5485,9.27838200000003,1.098526,-0.1764799,0.4016261,-52.7486,-14.42059,0.7423973
12.897238731,39.65622,256.3471,3.791013,1.016521,-0.0623432,0.5189908,-51.20586,-14.12868,-11.05206
12.907237053,33.25676,253.3795,2.510627,0.9034508,0.0927661,0.4550188,-51.20586,-14.12868,-11.05206
12.917234898,17.50425,243.9424,6.53469799999998,0.7984577,0.1311872,0.4728992,-51.20586,-14.12868,-11.05206
12.927232742,1.997879,232.9029,10.92459,0.7186216,0.1506351,0.3811468,-51.20586,-14.12868,-11.05206
12.937230587,-18.36962,223.4065,14.27798,0.645089,0.07058255,0.3946957,-51.20586,-14.12868,-11.05206
12.947228909,-32.82993,211.7141,18.18011,0.5580425,0.0067086,0.2938844,-47.10802,-13.80666,-21.53752
12.957226753,-40.76772,195.8077,22.26515,0.4460743,-0.1021651,0.3209079,-47.10802,-13.80666,-21.53752
12.967224598,-41.01385,177.9426,25.98437,0.3606278,-0.1460522,0.2765605,-47.10802,-13.80666,-21.53752
12.977222919,-38.12179,160.3743,28.17932,0.3186164,-0.2190866,0.2455451,-47.10802,-13.80666,-21.53752
12.987220764,-36.15273,146.5452,28.36223,0.2828379,-0.2345647,0.2245541,-47.10802,-13.80666,-21.53752
12.997218132,-33.07607,134.6154,28.78902,0.2223165,-0.2038462,0.207423,-40.72911,-12.67935,-28.78487
13.007215977,-34.36826,122.923,29.82553,0.1657109,-0.09552248,0.2189796,-40.72911,-12.67935,-28.78487
13.017213821,-42.30605,111.4086,30.25232,0.1464573,-0.05591091,0.234796,-40.72911,-12.67935,-28.78487
13.027212143,-50.61304,99.6568200000003,29.39873,0.1268273,-0.07416015,0.2477565,-40.72911,-12.67935,-28.78487
13.037209988,-51.16684,86.5993000000003,27.56961,0.1050265,-0.1593684,0.223409,-35.48486,-11.54031,-33.65405
13.047207832,-38.61406,71.6425000000001,24.21622,0.05527603,-0.2618877,0.1732717,-35.48486,-11.54031,-33.65405
13.057206154,-13.93923,57.6353499999998,19.52147,0.02570756,-0.2974606,0.1202104,-35.48486,-11.54031,-33.65405
13.067203999,8.88960099999997,44.63718,15.0706,0.002379857,-0.2231743,0.1106604,-35.48486,-11.54031,-33.65405
13.077201843,19.90405,31.99512,11.1075,-0.009340831,-0.09150075,0.1340972,-35.48486,-11.54031,-33.65405
13.087199688,22.11925,19.11566,6.90052199999999,-0.02354683,-0.009635367,0.1364938,-32.52338,-9.25638,-36.09499
13.097197056,21.07318,6.53295800000002,2.998394,-0.03612737,0.01145364,0.1317245,-32.52338,-9.25638,-36.09499
13.107195377,19.41178,-5.45622,-0.1720861,-0.06298525,0.0142281,0.1212419,-32.52338,-9.25638,-36.09499
13.117193222,21.62698,-16.49576,-2.793829,-0.06032218,0.002114631,0.1193261,-32.52338,-9.25638,-36.09499
13.127191067,22.98071,-25.27991,-4.683922,-0.05583099,0.07477534,0.1374855,-32.52338,-9.25638,-36.09499
13.137188911,21.31931,-33.29248,-7.18372300000002,-0.04504526,-0.006715545,0.130309,-30.64967,-9.242317,-36.08108
13.147187233,19.47332,-39.58383,-9.378671,-0.009012244,-0.03128137,0.1292954,-30.64967,-9.242317,-36.08108
13.157185078,18.85798,-45.69712,-11.32973,0.02872497,-0.04262732,0.135454,-30.64967,-9.242317,-36.08108
13.167182922,14.36606,-52.64135,-11.57362,0.03426483,-0.02507566,0.1828188,-30.64967,-9.242317,-36.08108
13.177181244,5.689873,-60.7726200000002,-11.57362,0.03879336,-0.03203405,0.2091344,-30.64967,-9.242317,-36.08108
13.187179089,-0.709583300000001,-69.0226099999998,-11.39071,0.08247211,-0.07360936,0.2444836,-31.77926,-9.240403,-34.86391
13.197176456,-2.063314,-76.0855400000002,-11.45168,0.1012258,-0.1113168,0.2784395,-31.77926,-9.240403,-34.86391
13.207174301,-0.832649800000001,-81.7833700000003,-12.30527,0.109422,-0.1309635,0.3439952,-31.77926,-9.240403,-34.86391
13.217172146,1.997879,-88.6682400000002,-14.19536,0.1196516,-0.1292061,0.4076276,-31.77926,-9.240403,-34.86391
13.227170467,6.55133799999999,-96.4434099999998,-16.14643,0.1434739,-0.09836046,0.4875003,-31.77926,-9.240403,-34.86391
13.237168312,6.36673800000001,-106.0585,-18.52429,0.1801546,-0.05098785,0.5931894,-34.01315,-10.38091,-32.8105
13.247166157,4.828408,-117.7509,-20.71923,0.2302645,-0.01858519,0.6801945,-34.01315,-10.38091,-32.8105
13.257164002,4.705341,-129.6214,-22.97515,0.2810506,-0.02209814,0.7705578,-34.01315,-10.38091,-32.8105
13.267162323,4.951474,-140.7796,-25.77981,0.3436157,-0.03032551,0.8513302,-34.01315,-10.38091,-32.8105
13.277160168,2.920877,-151.8785,-27.36505,0.4226225,-0.05682446,0.9708433,-34.01315,-10.38091,-32.8105
13.287158012,6.612871,-161.0781,-28.7064,0.5185949,-0.1073793,0.974039,-36.65215,-10.37009,-29.21795
13.29715538,20.82705,-164.4612,-31.08426,0.6258987,-0.1645091,0.9776953,-36.65215,-10.37009,-29.21795
13.307153702,33.01062,-162.8587,-32.60853,0.6960893,-0.1662748,0.9517304,-36.65215,-10.37009,-29.21795
13.317151547,38.67168,-162.1465,-32.12077,0.6996374,-0.07010236,0.9392564,-36.65215,-10.37009,-29.21795
13.327149391,36.76415,-166.0044,-29.74291,0.6912752,-0.01458168,0.9177207,-36.65215,-10.37009,-29.21795
13.337147236,28.3341,-173.4234,-25.65787,0.7174677,0.01657987,0.8678951,-41.52702,-11.49596,-23.12049
13.347145557,20.88858,-179.9522,-22.36544,0.7528895,-0.002622918,0.8171093,-41.52702,-11.49596,-23.12049
13.357143402,9.812599,-182.445,-20.53632,0.8058408,-0.07142514,0.8309134,-41.52702,-11.49596,-23.12049
13.367141247,5.689873,-181.0205,-19.7437,0.8591965,-0.1102182,0.8308303,-41.52702,-11.49596,-23.12049
13.377139568,13.25846,-174.9072,-20.71923,0.8865071,-0.1638068,0.8102178,-41.52702,-11.49596,-23.12049
13.387137413,20.64245,-164.5206,-22.36544,0.8778856,-0.171739,0.8116705,-46.40328,-12.61911,-16.70052
13.397135258,24.08831,-155.1429,-22.91418,0.8266242,-0.1414507,0.7806447,-46.40328,-12.61911,-16.70052
13.407132626,22.61151,-152.0566,-21.63379,0.8245976,-0.1121202,0.7509689,-46.40328,-12.61911,-16.70052
13.41713047,18.79645,-153.7778,-19.19496,0.8884277,-0.08770596,0.679065,-46.40328,-12.61911,-16.70052
13.427128792,13.75073,-157.2796,-17.06099,0.9627216,-0.100677,0.6411313,-46.40328,-12.61911,-16.70052
13.437126637,7.47433699999998,-163.0961,-15.17089,1.028378,-0.1197586,0.6443718,-49.34904,-13.71683,-8.976179
13.447124481,3.720809,-169.8029,-13.03692,1.095565,-0.116426,0.6509538,-49.34904,-13.71683,-8.976179
13.457122326,6.305205,-174.5511,-13.15886,1.115037,-0.1164229,0.6092839,-49.34904,-13.71683,-8.976179
13.467120648,11.41246,-175.204,-14.50021,1.130751,-0.1757658,0.5690714,-49.34904,-13.71683,-8.976179
13.477118492,14.42759,-171.4648,-15.35381,1.126411,-0.1254969,0.6020877,-49.34904,-13.71683,-8.976179
13.487116337,15.65826,-167.1321,-16.93905,1.090233,-0.06749611,0.5930429,-50.48942,-14.42442,-1.691931
13.497114658,13.25846,-162.5026,-18.7072,1.030784,-0.04216317,0.5692112,-50.48942,-14.42442,-1.691931
13.507112503,11.41246,-157.2796,-19.25594,0.9862015,-0.0045766,0.5247717,-50.48942,-14.42442,-1.691931
13.517109871,8.64346799999999,-152.5907,-19.7437,0.9895024,-0.0002046581,0.4644642,-50.48942,-14.42442,-1.691931
13.527107716,5.074541,-147.249,-18.82914,1.03482,-0.001122447,0.4256208,-50.48942,-14.42442,-1.691931
13.53710556,3.290077,-142.0854,-17.91458,1.065542,0.02235354,0.3757893,-51.61577,-15.88944,5.983377
13.547103882,4.766874,-139.1771,-13.70759,1.137637,-0.05537447,0.3287832,-51.61577,-15.88944,5.983377
13.557101727,-6.61677399999998,-135.9127,-13.21983,1.158401,0.05811977,0.3134033,-51.61577,-15.88944,5.983377
13.567099571,-19.66182,-134.9631,-12.79303,1.24227,0.003499681,0.3233213,-51.61577,-15.88944,5.983377
13.577097416,-27.16887,-136.2688,-11.08585,1.277493,-0.02984666,0.320397,-51.25521,-16.58959,12.82725
13.587095738,-26.61507,-139.2365,-10.11032,1.257031,-0.0567725,0.2898107,-51.25521,-16.58959,12.82725
13.597093582,-22.30775,-142.0854,-8.70799300000002,1.239214,-0.09484468,0.2568298,-51.25521,-16.58959,12.82725
13.607091427,-18.24655,-143.3318,-6.87886999999998,1.233858,-0.06998418,0.223811,-51.25521,-16.58959,12.82725
13.617088795,-16.15442,-143.5098,-5.232659,1.230021,-0.02154479,0.2151909,-51.25521,-16.58959,12.82725
13.627087116,-21.50782,-143.7472,-4.135185,1.230687,0.02071898,0.2123074,-50.51064,-17.67001,19.35342
13.637084961,-30.9224,-144.3408,-3.586449,1.222644,0.03357083,0.2003537,-50.51064,-17.67001,19.35342
13.647082806,-37.50646,-145.231,-3.769361,1.217169,0.01266273,0.1577753,-50.51064,-17.67001,19.35342
13.65708065,-41.62918,-145.6465,-4.379068,1.199971,-0.03283548,0.1085237,-50.51064,-17.67001,19.35342
13.667078972,-42.12145,-144.4001,-5.171688,1.182005,-0.06324082,0.06405528,-50.51064,-17.67001,19.35342
13.677076816,-40.52159,-142.7976,-5.537513,1.149767,-0.08611356,0.02391698,-48.74162,-16.84449,25.42584
13.687074661,-38.55252,-141.6105,-5.659454,1.128978,-0.06909619,0.0167702,-48.74162,-16.84449,25.42584
13.697072983,-38.24486,-140.839,-5.964308,1.108694,-0.05305389,0.008187056,-48.74162,-16.84449,25.42584
13.707070827,-38.73712,-140.1861,-7.12275300000002,1.105353,-0.05713024,-0.0052062,-48.74162,-16.84449,25.42584
13.717068672,-37.01419,-139.7113,-8.34216799999998,1.097197,-0.06420862,-0.01763314,-48.74162,-16.84449,25.42584
13.72706604,-33.876,-138.7023,-9.56158399999997,1.090491,-0.0708031,-0.03341275,-45.74492,-17.91512,31.13019
13.737063885,-30.5532,-137.5152,-11.20779,1.097023,-0.08141302,-0.03868575,-45.74492,-17.91512,31.13019
13.747062206,-26.67661,-135.794,-12.61012,1.109803,-0.08757425,-0.04923512,-45.74492,-17.91512,31.13019
13.757060051,-21.93855,-134.1322,-13.95148,1.123871,-0.08448155,-0.06026768,-45.74492,-17.91512,31.13019
13.767057896,-17.26202,-132.0548,-15.35381,1.140918,-0.08418862,-0.06508324,-45.74492,-17.91512,31.13019
13.77705574,-12.70856,-129.384,-16.8171,1.160236,-0.07515651,-0.07564791,-42.72125,-20.13334,36.06663
13.787054062,-8.64737,-126.7725,-17.67069,1.171264,-0.06576715,-0.08236962,-42.72125,-20.13334,36.06663
13.797051907,-5.509175,-124.2203,-18.03652,1.161872,-0.05867236,-0.08331223,-42.72125,-20.13334,36.06663
13.807049751,-3.355512,-121.7869,-18.21943,1.158881,-0.05547023,-0.09862226,-42.72125,-20.13334,36.06663
13.817048073,-1.571049,-119.116,-18.15846,1.150128,-0.05671154,-0.1091354,-42.72125,-20.13334,36.06663
13.827045917,-0.1557842,-116.0297,-17.60972,1.146625,-0.05196519,-0.1139162,-39.71132,-21.59468,40.54751
13.837043285,1.751746,-112.7653,-17.12196,1.143737,-0.0540362,-0.1215679,-39.71132,-21.59468,40.54751
13.84704113,3.905409,-108.9074,-16.45128,1.14266,-0.04876914,-0.1277889,-39.71132,-21.59468,40.54751
13.857038975,5.25914,-105.1088,-15.84157,1.139169,-0.04445587,-0.1268267,-39.71132,-21.59468,40.54751
13.867037296,8.028135,-101.0135,-15.04895,1.146868,-0.03954084,-0.1373701,-39.71132,-21.59468,40.54751
13.877035141,10.7356,-96.7995100000002,-14.43924,1.141675,-0.02272321,-0.1469369,-35.95808,-22.67329,44.64491
13.887032986,12.08933,-92.1700399999998,-13.58565,1.133538,-0.005066427,-0.1646346,-35.95808,-22.67329,44.64491
13.89703083,11.35093,-87.3624899999999,-12.91498,1.127262,0.01756109,-0.174201,-35.95808,-22.67329,44.64491
13.907029152,7.720469,-82.3768899999999,-12.18333,1.11409,0.04387851,-0.1904564,-35.95808,-22.67329,44.64491
13.917026997,2.551678,-77.5693499999998,-11.14682,1.104556,0.05886837,-0.1780006,-35.95808,-22.67329,44.64491
13.927024841,-2.801713,-72.4056899999998,-9.98837900000002,1.100416,0.07124121,-0.1976182,-33.69676,-23.77678,47.1187
13.937023163,-6.06297400000002,-67.8949099999998,-8.34216799999998,1.080512,0.06676304,-0.2191183,-33.69676,-23.77678,47.1187
13.947020054,-10.5549,-63.6809000000002,-6.08625000000001,1.051409,0.05927083,-0.2315086,-33.69676,-23.77678,47.1187
13.957018375,-17.13896,-58.7546500000002,-4.561981,1.028859,0.04028058,-0.2400788,-33.69676,-23.77678,47.1187
13.96701622,-21.63088,-54.06581,-3.220624,1.020086,0.01429093,-0.2467568,-33.69676,-23.77678,47.1187
13.977014065,-23.10768,-49.79244,-1.696355,0.9977226,-0.01428287,-0.2409676,-30.69184,-24.49811,49.14451
13.987012386,-21.93855,-45.81583,-0.5379106,0.9872792,-0.0555013,-0.2619961,-30.69184,-24.49811,49.14451
13.997010231,-17.32355,-40.83023,0.3766508,0.9774288,-0.07624143,-0.2768095,-30.69184,-24.49811,49.14451
14.007008076,-11.90863,-35.78528,1.778978,0.9736151,-0.0550143,-0.2854227,-30.69184,-24.49811,49.14451
14.017006397,-8.955036,-30.32486,2.815481,0.9771345,-0.008714529,-0.278262,-30.69184,-24.49811,49.14451
14.027004242,-10.3703,-24.62704,3.730042,0.9698145,0.0179115,-0.2734704,-28.80946,-25.23114,50.77497
14.037002087,-13.44696,-19.81949,3.973926,0.9605051,0.02065638,-0.2720192,-28.80946,-25.23114,50.77497
14.046999931,-14.98529,-15.42742,3.730042,0.9550313,0.0005412889,-0.2810974,-28.80946,-25.23114,50.77497
14.056997299,-14.18536,-10.61988,3.425189,0.9460655,-0.01526932,-0.2901706,-28.80946,-25.23114,50.77497
14.066995621,-10.86257,-5.634277,2.815481,0.9549382,-0.02107446,-0.3064562,-28.80946,-25.23114,50.77497
14.076993465,-8.70890300000002,-0.3519166,2.083832,0.9659401,-0.0101927,-0.3093496,-27.66951,-25.98341,50.78737
14.08699131,-9.01656900000002,4.811739,1.413154,0.9696351,0.0005359282,-0.3131874,-27.66951,-25.98341,50.78737
14.096989155,-9.26270200000001,9.26316700000002,0.803446099999999,0.9717997,-0.01117163,-0.3227597,-27.66951,-25.98341,50.78737
14.106987476,-8.46277000000003,13.29913,0.31568,0.9763331,-0.01951852,-0.3419085,-27.66951,-25.98341,50.78737
14.116985321,-5.87837500000002,17.33509,-0.1111153,0.9776028,-0.03570497,-0.3610496,-27.66951,-25.98341,50.78737
14.126983166,-3.170913,21.4304,-0.3549984,0.9825347,-0.03910562,-0.371586,-28.03219,-26.73985,51.62715
14.136981487,-1.632582,25.0509,-0.7817937,0.9867805,-0.03177209,-0.3759025,-28.03219,-26.73985,51.62715
14.146979332,-1.078783,27.95916,-0.5379106,0.9831075,-0.01771288,-0.3715925,-28.03219,-26.73985,51.62715
14.156977177,-0.5249836,30.1552,-0.2330568,0.9810306,-0.01097266,-0.3739835,-28.03219,-26.73985,51.62715
14.166974545,-0.4634504,32.23254,-0.05014454,0.9823517,-0.003762707,-0.3854735,-28.77632,-26.75583,50.39609
14.176972389,-0.6480501,34.48792,0.1327677,0.9880822,0.002015125,-0.4036708,-28.77632,-26.75583,50.39609
14.186970711,-1.324916,36.92137,0.620533899999998,0.9911601,0.01946456,-0.4151665,-28.77632,-26.75583,50.39609
14.196968555,-3.232446,38.93935,1.291212,1.006472,0.03429708,-0.4204614,-28.77632,-26.75583,50.39609
14.2069664,-5.570708,40.00769,2.266744,1.01607,0.04231879,-0.4142587,-28.77632,-26.75583,50.39609
14.216964245,-6.92443900000002,40.36381,3.669072,1.024135,0.02782532,-0.4224048,-28.39621,-26.76337,49.17336
14.226962566,-7.10903899999999,40.54187,5.010429,1.015951,0.02219106,-0.4362678,-28.39621,-26.76337,49.17336
14.236960411,-7.17057299999998,40.66057,6.473727,0.9997312,0.02967199,-0.43337,-28.39621,-26.76337,49.17336
14.246958256,-8.46277000000003,40.48251,8.05896700000001,0.9770901,0.04195565,-0.422805,-28.39621,-26.76337,49.17336
14.256956577,-10.24723,39.88899,9.40032399999997,0.9589807,0.0466108,-0.4060245,-28.39621,-26.76337,49.17336
14.266954422,-11.35483,39.17676,10.61974,0.9415882,0.03840877,-0.415085,-31.00816,-27.16994,48.38192
14.276952267,-10.30877,38.82065,11.65624,0.9461266,0.03021549,-0.4174837,-31.00816,-27.16994,48.38192
14.286949635,-9.01656900000002,38.82065,12.38789,0.9483793,0.03997006,-0.4184473,-31.00816,-27.16994,48.38192
14.296947479,-9.75496900000002,39.17676,13.42439,0.947638,0.05360125,-0.4141423,-31.00816,-27.16994,48.38192
14.306945801,-11.97016,38.70194,14.39993,0.9443797,0.04593289,-0.3954702,-31.00816,-27.16994,48.38192
14.316943646,-13.07776,37.98972,14.4609,0.9293059,0.01850569,-0.3863439,-32.1349,-26.80838,47.14604
14.32694149,-11.35483,36.80267,14.27798,0.9166447,-0.008046716,-0.3930151,-32.1349,-26.80838,47.14604
14.336939812,-8.093571,35.97173,13.66828,0.8970236,-0.0267861,-0.380533,-32.1349,-26.80838,47.14604
14.346937656,-3.232446,34.30987,12.75372,0.8840391,-0.03645976,-0.4006081,-32.1349,-26.80838,47.14604
14.356935501,2.551678,33.36023,11.59527,0.8952289,-0.03512643,-0.3853135,-32.1349,-26.80838,47.14604
14.366933346,5.93600600000003,33.12282,10.4978,0.9012262,-0.01694915,-0.3767143,-32.88688,-26.444,45.91295
14.376931667,8.21273500000003,32.82606,9.217411,0.9112363,-0.005093167,-0.3772134,-32.88688,-26.444,45.91295
14.386929512,9.99719900000002,32.17318,7.81508400000003,0.9132804,-0.00977622,-0.3623799,-32.88688,-26.444,45.91295
14.39692688,11.35093,31.87642,6.22984400000002,0.9143844,-0.01649179,-0.3552014,-32.88688,-26.444,45.91295
14.406924725,13.01233,31.57966,5.010429,0.8963836,-0.0176965,-0.3417696,-32.88688,-26.444,45.91295
14.416922569,16.21206,30.51132,3.730042,0.8853267,-0.02567247,-0.3398339,-34.3763,-26.83887,45.51685
14.426920891,20.39631,29.68038,2.998394,0.8759818,-0.02095382,-0.3350331,-34.3763,-26.83887,45.51685
14.436918736,22.79611,28.96815,2.144803,0.8760888,-0.0004456579,-0.3245099,-34.3763,-26.83887,45.51685
14.44691658,23.41144,28.61204,1.839949,0.8686799,0.03110821,-0.3120622,-34.3763,-26.83887,45.51685
14.456914902,21.81158,27.6624,2.449656,0.8612894,0.06169495,-0.2991356,-34.3763,-26.83887,45.51685
14.466912747,17.44272,26.77212,3.120335,0.8520867,0.08493921,-0.2881183,-35.89518,-25.71614,44.66114
14.476910591,9.87413200000002,25.64442,3.851984,0.8429923,0.07666959,-0.2694359,-35.89518,-25.71614,44.66114
14.486908436,3.782343,24.10126,4.461692,0.8370533,0.05569186,-0.2655915,-35.89518,-25.71614,44.66114
14.496906757,1.25948,22.20198,4.949458,0.8328238,0.02168451,-0.2555253,-35.89518,-25.71614,44.66114
14.506904602,1.997879,20.36206,4.888487,0.8357716,-0.005430504,-0.2512162,-35.89518,-25.71614,44.66114
14.51690197,5.25914,18.28473,4.827517,0.8504075,-0.03238916,-0.2550634,-35.90135,-25.33905,44.27211
14.526899815,9.56646600000001,16.50415,4.766546,0.8752636,-0.03301471,-0.2708996,-35.90135,-25.33905,44.27211
14.536897659,12.70466,15.37646,4.888487,0.9014142,0.001465218,-0.276697,-35.90135,-25.33905,44.27211
14.546895981,11.22786,13.53654,5.13237,0.9188825,0.0315098,-0.2705137,-35.90135,-25.33905,44.27211
14.556893826,7.47433699999998,11.57791,5.559165,0.9509869,0.0346045,-0.2672204,-35.90135,-25.33905,44.27211
14.56689167,4.828408,8.72899499999998,5.437224,0.9751621,0.01845484,-0.2787442,-36.67076,-24.21069,43.42196
14.576889992,3.905409,6.59230999999998,5.0714,1.002821,-0.001491592,-0.2878802,-36.67076,-24.21069,43.42196
14.586887837,3.720809,4.989797,4.888487,1.027385,-0.0122268,-0.2927061,-36.67076,-24.21069,43.42196
14.596885681,3.413143,3.32793,4.27878,1.051306,-0.01473126,-0.2994471,-36.67076,-24.21069,43.42196
14.606883526,3.16701,1.844121,4.034896,1.063963,-0.01395577,-0.2951623,-36.67076,-24.21069,43.42196
14.616881847,2.244012,-0.1145072,3.425189,1.072685,-0.01133618,-0.2932638,-37.05784,-23.45933,42.64112
14.626879692,3.105477,-2.19184,2.998394,1.073683,-0.01289711,-0.3066653,-37.05784,-23.45933,42.64112
14.63687706,3.290077,-4.328525,2.75451,1.072019,-0.002287517,-0.3119294,-37.05784,-23.45933,42.64112
14.646874905,1.44408,-6.287153,2.266744,1.072711,0.01278155,-0.3128917,-37.05784,-23.45933,42.64112
14.656873226,-2.063314,-8.12707699999999,2.022861,1.069652,0.02003657,-0.3100168,-37.05784,-23.45933,42.64112
14.666871071,-5.75530800000001,-9.90764799999999,1.535095,1.062044,0.01025953,-0.2999509,-37.43427,-23.45888,43.02534
14.676868915,-7.539772,-11.56951,1.169271,1.046847,-0.01099322,-0.3061404,-37.43427,-23.45888,43.02534
14.68686676,-7.232106,-12.51915,1.047329,1.028581,-0.02454472,-0.3137623,-37.43427,-23.45888,43.02534
14.696865082,-6.18604100000003,-13.11268,0.7424754,1.013986,-0.02579178,-0.3123008,-37.43427,-23.45888,43.02534
14.706862926,-5.93990799999998,-13.40944,0.7424754,1.001792,-0.02499502,-0.3051011,-37.43427,-23.45888,43.02534
14.716860771,-5.570708,-14.00296,0.3766508,0.9884853,-0.01699253,-0.3046014,-37.05336,-23.83315,43.41715
14.726859093,-4.770776,-14.53713,0.01082622,0.9789084,-0.02589798,-0.3012324,-37.05336,-23.83315,43.41715
14.736856937,-3.047846,-14.9526,-0.4159691,0.9603785,-0.02534045,-0.3064646,-37.05336,-23.83315,43.41715
14.746854782,-1.324916,-15.13066,-0.598881400000002,0.9460792,-0.01638568,-0.3059634,-37.05336,-23.83315,43.41715
14.75685215,-0.6480501,-14.9526,-0.659852100000001,0.9449785,-0.009564769,-0.301656,-36.68649,-23.44998,43.41791
14.766849995,-0.7711166,-15.13066,-0.8427644,0.9469092,-0.008537196,-0.2997454,-36.68649,-23.44998,43.41791
14.776848316,-1.263382,-15.13066,-1.147618,0.9400386,-0.005643241,-0.2872911,-36.68649,-23.44998,43.41791
14.786846161,-1.078783,-14.89325,-1.26956,0.9390522,-0.005273293,-0.2978182,-36.68649,-23.44998,43.41791
14.796844006,-0.7711166,-14.47778,-1.452472,0.9428932,-0.002316847,-0.3016542,-36.68649,-23.44998,43.41791
14.80684185,-1.632582,-14.29972,-1.26956,0.9505973,0.002747417,-0.2959261,-35.937,-23.44436,43.42347
14.816840172,-3.970845,-14.35908,-0.964705900000002,0.9529883,0.005255068,-0.2925809,-35.937,-23.44436,43.42347
14.826838016,-5.570708,-14.71519,-0.8427644,0.9620025,-0.007687261,-0.2925932,-35.937,-23.44436,43.42347
14.836835861,-5.632242,-14.59649,-0.964705900000002,0.9697843,-0.03278055,-0.2902075,-35.937,-23.44436,43.42347
14.846834183,-3.909311,-14.47778,-1.147618,0.9806996,-0.04331262,-0.2964453,-35.937,-23.44436,43.42347
14.856832027,-1.509515,-14.53713,-1.391501,0.9943355,-0.04313972,-0.3069978,-36.30557,-23.82426,43.80972
14.866829872,-0.1557842,-14.35908,-1.574414,1.005286,-0.02925122,-0.2998418,-36.30557,-23.82426,43.80972
14.87682724,0.02881546,-14.29972,-1.635384,1.013194,-0.009127511,-0.295075,-36.30557,-23.82426,43.80972
14.886825085,-1.571049,-14.24037,-1.452472,1.015861,0.00452716,-0.2955618,-36.30557,-23.82426,43.80972
14.896823406,-4.093911,-14.18102,-1.696355,1.018821,0.002659415,-0.2936521,-36.30557,-23.82426,43.80972
14.906821251,-6.18604100000003,-13.8249,-1.696355,1.025396,-0.01042321,-0.3037103,-35.18332,-23.81201,44.26956
14.916819096,-6.43217400000002,-13.23138,-1.879267,1.027644,-0.02647628,-0.3104101,-35.18332,-23.81201,44.26956
14.92681694,-5.75530800000001,-12.5785,-2.184121,1.021466,-0.0348725,-0.3118329,-35.18332,-23.81201,44.26956
14.936815262,-4.709243,-11.86628,-2.367033,1.017734,-0.04369758,-0.3123027,-35.18332,-23.81201,44.26956
14.946813107,-2.863246,-11.2134,-2.91577,1.017176,-0.03972894,-0.3022527,-35.18332,-23.81201,44.26956
14.956810951,-0.832649800000001,-10.73858,-3.220624,1.002842,-0.02877846,-0.296009,-35.16928,-24.56945,44.66061
14.966809273,-0.2173175,-9.90764799999999,-3.342566,0.994811,-0.01630704,-0.2964768,-35.16928,-24.56945,44.66061
14.976807117,-0.1557842,-9.373476,-3.037712,0.9861676,0.003034421,-0.2883309,-35.16928,-24.56945,44.66061
14.986804962,-1.940248,-8.48319099999998,-2.8548,0.9785852,0.01739707,-0.2955001,-35.16928,-24.56945,44.66061
14.996802807,-4.83231,-7.71161000000001,-2.245092,0.9752052,0.01594703,-0.287358,-35.16928,-24.56945,44.66061
15.006800175,-7.17057299999998,-6.88067700000001,-1.757326,0.9764981,-0.001057314,-0.2897488,-34.79454,-24.56664,44.6634
15.016798496,-7.47823899999999,-5.69363,-1.452472,0.9713143,-0.01035753,-0.2859087,-34.79454,-24.56664,44.6634
15.026796341,-7.10903899999999,-4.981401,-1.147618,0.9679482,-0.01291515,-0.2926023,-34.79454,-24.56664,44.6634
15.036794186,-6.49370699999998,-3.556944,-0.8427644,0.968904,-0.01192877,-0.2930827,-34.79454,-24.56664,44.6634
15.046792507,-5.93990799999998,-2.42925,-0.659852100000001,0.972331,-0.01286365,-0.2964385,-34.79454,-24.56664,44.6634
15.056790352,-6.862906,-1.123497,-0.4769399,0.9687315,-0.002672968,-0.2902134,-34.04505,-24.56101,44.66896
15.066788197,-7.78590499999999,-0.1145072,-0.598881400000002,0.9627867,0.002581255,-0.2873329,-34.04505,-24.56101,44.66896
15.076786041,-8.46277000000003,1.013188,-0.4769399,0.950186,-0.001060512,-0.2863528,-34.04505,-24.56101,44.66896
15.086784363,-8.77043599999998,1.962826,-0.3549984,0.9482108,0.0003758303,-0.2844355,-34.04505,-24.56101,44.66896
15.096782208,-8.40123700000001,2.971816,-0.2330568,0.954607,-0.002903776,-0.2849244,-34.04505,-24.56101,44.66896
15.106780052,-7.90897099999997,3.624692,-0.2330568,0.9678019,-0.005151744,-0.2935612,-34.42347,-24.55674,45.50468
15.116778374,-7.04750599999997,4.752387,-0.2330568,0.9784362,-0.0005681675,-0.2935809,-34.42347,-24.55674,45.50468
15.126775265,-7.539772,5.702025,-0.2940276,0.985272,-0.001466409,-0.3002926,-34.42347,-24.55674,45.50468
15.136773586,-8.03203799999998,6.53295800000002,-0.4769399,1.000952,-0.005985334,-0.2969688,-34.42347,-24.55674,45.50468
15.146771431,-8.27817099999997,7.06713000000001,-0.598881400000002,1.008999,-0.01950289,-0.3046365,-34.42347,-24.55674,45.50468
15.156769276,-7.78590499999999,7.83871000000002,-0.7817937,1.005679,-0.02444982,-0.3070224,-34.77882,-25.32735,44.66745
15.166767597,-6.49370699999998,8.076119,-1.025677,1.007564,-0.02100222,-0.3060694,-34.77882,-25.32735,44.66745
15.176765442,-5.324575,8.31352900000002,-1.513443,1.00206,-0.01334907,-0.3074975,-34.77882,-25.32735,44.66745
15.186763287,-4.955376,9.14446299999999,-2.123151,0.9946062,-0.00574758,-0.3103579,-34.77882,-25.32735,44.66745
15.196761131,-5.263042,9.20381500000001,-2.549946,0.9804733,-0.005466292,-0.3021975,-34.77882,-25.32735,44.66745
15.206759453,-6.18604100000003,9.50057699999998,-2.732858,0.9856403,0.004853723,-0.3007734,-34.39621,-25.70489,44.67226
15.216757298,-7.60130500000002,9.85669000000001,-3.037712,0.98087,-0.0005727196,-0.299328,-34.39621,-25.70489,44.67226
15.226755142,-8.15510499999999,10.15345,-2.976741,0.9779912,-0.003116328,-0.3055438,-34.39621,-25.70489,44.67226
15.236753464,-7.60130500000002,10.0941,-2.8548,0.974591,-0.00365629,-0.3041021,-34.39621,-25.70489,44.67226
15.246750355,-6.49370699999998,9.916043,-2.610917,0.9687712,-0.005286118,-0.310313,-34.39621,-25.70489,44.67226
15.256748676,-5.75530800000001,9.916043,-2.671887,0.9755168,-0.001296019,-0.3136758,-34.39255,-25.71197,43.83376
15.266746521,-6.30910700000001,9.85669000000001,-2.549946,0.979654,0.01189298,-0.3151221,-34.39255,-25.71197,43.83376
15.279243946,-8.27817099999997,9.38187199999997,-1.940238,0.9776417,0.01525482,-0.3151195,-34.39255,-25.71197,43.83376
15.286742687,-9.01656900000002,8.96640499999999,-1.757326,0.9753068,0.009872102,-0.3141569,-34.39255,-25.71197,43.83376
15.296740532,-9.26270200000001,8.076119,-1.086647,0.9681558,0.00148736,-0.3122279,-35.14231,-25.71706,43.8927
15.306738377,-8.64737,7.48259600000002,-1.025677,0.9745489,-0.001888813,-0.3232455,-35.14231,-25.71706,43.8927
15.316736221,-7.60130500000002,6.77036799999997,-0.720822899999998,0.9769205,0.001559636,-0.3232505,-35.14231,-25.71706,43.8927
15.326734543,-6.55523999999999,6.29554899999997,-0.659852100000001,0.9705774,0.001867617,-0.3289824,-35.14231,-25.71706,43.8927
15.339231968,-5.693775,5.227206,0.1327677,0.9625295,0.01535884,-0.3241861,-35.14231,-25.71706,43.8927
15.346730232,-5.75530800000001,4.811739,0.5595631,0.9555277,0.02494373,-0.3236978,-35.51508,-25.72368,43.43842
15.359227657,-6.862906,4.099511,1.169271,0.9428052,0.0275159,-0.3337264,-35.51508,-25.72368,43.43842
15.369225502,-7.724371,3.505987,1.535095,0.955763,0.01225248,-0.330395,-35.51508,-25.72368,43.43842
15.376723766,-8.093571,3.209226,1.535095,0.9514537,0.008332452,-0.3246436,-35.51508,-25.72368,43.43842
15.389221668,-6.92443900000002,2.971816,1.474125,0.9503453,-0.01073328,-0.3346868,-35.51508,-25.72368,43.43842
15.399219513,-4.893843,2.378292,1.657037,0.9470621,-0.01763642,-0.3385079,-35.12292,-26.48485,43.05825
15.409216881,-2.617113,1.962826,1.413154,0.9416497,-0.01481016,-0.336585,-35.12292,-26.48485,43.05825
15.419214726,-1.140316,1.369302,1.291212,0.9488645,-0.009830135,-0.3389917,-35.12292,-26.48485,43.05825
15.429213047,-1.324916,1.07254,1.1083,0.9482796,-0.004412991,-0.3298991,-35.12292,-26.48485,43.05825
15.439210892,-1.817181,0.4790165,0.803446099999999,0.949218,-0.002428752,-0.3275083,-35.12292,-26.48485,43.05825
15.446709633,-2.247914,-0.05515479,0.681504599999997,0.9517177,-0.005772182,-0.3265547,-35.12461,-26.48158,43.44525
15.459207058,-2.001781,-1.004793,0.1937385,0.9541895,-0.007671498,-0.3270371,-35.12461,-26.48158,43.44525
15.469204903,-1.632582,-1.598316,-0.1720861,0.959179,-0.01389894,-0.3280014,-35.12461,-26.48158,43.44525
15.479202747,-0.7711166,-1.835726,-0.4769399,0.9616325,-0.01482673,-0.328484,-35.12461,-26.48158,43.44525
15.489200592,-0.709583300000001,-2.310545,-0.659852100000001,0.9619949,-0.007924276,-0.3184363,-35.12461,-26.48158,43.44525
15.499198914,-1.201849,-2.963421,-0.720822899999998,0.9658087,-0.003506156,-0.3217941,-35.13864,-25.72414,43.05419
15.509196758,-1.694115,-3.43824,-0.964705900000002,0.9623902,-0.003074594,-0.3203525,-35.13864,-25.72414,43.05419
15.519194603,-2.001781,-4.091116,-1.208589,0.9648975,-0.006952069,-0.324663,-35.13864,-25.72414,43.05419
15.529192925,-2.186381,-4.328525,-1.147618,0.9674613,-0.01368705,-0.3227515,-35.13864,-25.72414,43.05419
15.539189816,-1.447982,-4.743992,-1.208589,0.9640162,-0.01177626,-0.3189174,-35.13864,-25.72414,43.05419
15.549188137,-1.078783,-5.040754,-1.330531,0.9737777,-0.01252458,-0.3155842,-35.4898,-26.86802,43.0575
15.559185982,-0.3403839,-5.159458,-1.147618,0.9805423,-0.009479668,-0.3160753,-35.4898,-26.86802,43.0575
15.569183827,0.1518819,-5.574925,-1.086647,0.9838622,-0.004510799,-0.3112966,-35.4898,-26.86802,43.0575
15.579182148,0.02881546,-5.75298199999998,-0.8427644,0.9793326,0.003183547,-0.3103336,-35.4898,-26.86802,43.0575
15.589179993,-0.6480501,-5.99039199999999,-0.5379106,0.9773195,0.006523435,-0.3127238,-35.4898,-26.86802,43.0575
15.599177838,-1.447982,-5.81233500000002,-0.2940276,0.9728827,0.009412837,-0.3060167,-35.49149,-26.86475,43.4445
15.609175682,-2.432514,-5.515573,0.1327677,0.9704032,0.0118418,-0.3007487,-35.49149,-26.86475,43.4445
15.619174004,-3.293979,-5.634277,0.3766508,0.9633145,8.453149e-06,-0.3040833,-35.49149,-26.86475,43.4445
15.629171848,-3.417045,-5.45622,0.925387699999998,0.9618698,-0.001040221,-0.3093449,-35.49149,-26.86475,43.4445
15.639169693,-3.540112,-5.218811,1.291212,0.9564854,0.0003463123,-0.3055072,-35.49149,-26.86475,43.4445
15.649168014,-3.109379,-4.803344,1.474125,0.9585519,-0.005947645,-0.3074235,-34.74987,-26.47877,43.44803
15.659165859,-3.232446,-4.387877,1.90092,0.9604035,-0.0004560468,-0.2954638,-34.74987,-26.47877,43.44803
15.669163704,-2.801713,-3.972411,1.96189,0.9643267,-0.001867064,-0.2988203,-34.74987,-26.47877,43.44803
15.679161072,-2.309447,-3.497592,2.144803,0.9637581,0.00251272,-0.2969061,-34.74987,-26.47877,43.44803
15.689158916,-2.001781,-2.844716,2.266744,0.9711645,-0.002703853,-0.298832,-34.74987,-26.47877,43.44803
15.699157238,-1.632582,-2.369897,1.96189,0.9818903,-0.002969113,-0.2978935,-34.74398,-26.85531,43.90157
15.709155083,-1.386449,-1.717021,2.022861,0.9921651,-0.00519582,-0.2979108,-34.74398,-26.85531,43.90157
15.719152927,-0.955716300000001,-1.301555,2.022861,0.9999782,-0.005982635,-0.2945742,-34.74398,-26.85531,43.90157
15.729151249,0.02881546,-1.064145,2.083832,0.9969432,-0.0002990267,-0.3041419,-34.74398,-26.85531,43.90157
15.739149094,0.5826145,-0.708030899999999,2.022861,1.001319,0.0003040733,-0.3007996,-35.11675,-26.86193,43.44728
15.749146938,0.767214200000001,-0.3519166,2.327715,1.002642,0.007562306,-0.3070253,-35.11675,-26.86193,43.44728
15.759144783,0.3364816,0.1229023,2.632569,0.9971842,0.01283054,-0.3036671,-35.11675,-26.86193,43.44728
15.769143104,-0.6480501,0.657073599999999,3.242276,0.9897952,0.01705365,-0.3041339,-35.11675,-26.86193,43.44728
15.779140949,-1.694115,0.894483100000001,3.730042,0.9820114,0.01644024,-0.3012487,-35.11675,-26.86193,43.44728
15.789138794,-2.55558,1.07254,4.33975,0.9763136,0.008596465,-0.296451,-34.75185,-26.47495,43.89954
15.799137115,-2.801713,1.191245,4.644604,0.9715511,0.002644756,-0.2993126,-34.75185,-26.47495,43.89954
15.809134006,-1.755648,1.07254,4.888487,0.9745184,0.0002429681,-0.3026672,-34.75185,-26.47495,43.89954
15.819132328,-1.571049,1.547359,5.13237,0.9725635,0.0007736261,-0.293571,-34.75185,-26.47495,43.89954
15.829130173,-1.940248,1.547359,5.437224,0.9720391,0.002680715,-0.296442,-34.75185,-26.47495,43.89954
15.839128017,-1.817181,1.131893,5.254312,0.9710559,0.003151617,-0.2959619,-34.36726,-26.85631,43.45284
15.849126339,-1.694115,0.953835399999999,5.0714,0.9691989,-0.001740102,-0.2954788,-34.36726,-26.85631,43.45284
15.859124184,-1.817181,0.8351307,5.193341,0.9754924,0.0002534383,-0.303626,-34.36726,-26.85631,43.45284
15.869122028,-1.940248,0.5383689,5.010429,0.9730863,-0.001186129,-0.2964428,-34.36726,-26.85631,43.45284
15.879119873,-1.755648,0.2416071,4.766546,0.9807693,0.004757485,-0.3007649,-34.36726,-26.85631,43.45284
15.889118195,-1.878715,0.3603118,4.33975,0.9789019,0.0003164154,-0.3041106,-34.74398,-26.85531,43.90157
15.899116039,-1.571049,0.1229023,3.851984,0.9800206,-0.0074848,-0.3093749,-34.74398,-26.85531,43.90157
15.909113884,-0.832649800000001,0.004197581,3.425189,0.9785162,-0.005005857,-0.3007585,-34.74398,-26.85531,43.90157
15.919112205,-0.2788507,0.004197581,3.059364,0.9791453,-0.01289131,-0.3141577,-34.74398,-26.85531,43.90157
15.92911005,0.0903486900000002,0.004197581,2.632569,0.9843575,-0.005013269,-0.3141688,-34.74398,-26.85531,43.90157
15.939107895,-0.2173175,0.1822547,2.205774,0.9828339,-0.001593532,-0.3089027,-35.4898,-26.86802,43.0575
15.949105263,-0.5249836,0.06354995,1.839949,0.9814892,-0.00799875,-0.3155988,-35.4898,-26.86802,43.0575
15.959103107,-0.0942510000000003,0.004197581,1.352183,0.9766567,-0.009976584,-0.3088898,-35.4898,-26.86802,43.0575
15.969101429,0.890280700000001,0.1229023,0.925387699999998,0.9733357,-0.01497618,-0.3170185,-35.4898,-26.86802,43.0575
15.979099274,1.136414,0.3603118,0.4376215,0.9682371,-0.002910827,-0.3150984,-35.4898,-26.86802,43.0575
15.989097118,0.951813900000003,0.5383689,0.1327677,0.9638351,-0.002021531,-0.3146124,-35.49766,-26.48766,43.05547
15.999094963,0.1518819,0.716426,-0.2940276,0.9642305,0.002832539,-0.3160501,-35.49766,-26.48766,43.05547
16.009093285,-0.5249836,0.775778400000001,-0.7817937,0.9623544,-0.001109602,-0.3179601,-35.49766,-26.48766,43.05547
16.019091129,-0.709583300000001,0.894483100000001,-0.903735200000002,0.9575675,-0.005516244,-0.3112505,-35.49766,-26.48766,43.05547
16.029088974,-0.5249836,0.8351307,-1.147618,0.9542034,-0.008008029,-0.3107654,-35.49766,-26.48766,43.05547
16.039087296,-0.0942510000000003,0.597721199999998,-1.208589,0.9532372,-0.008552539,-0.3150708,-35.12461,-26.48158,43.44525
16.04908514,0.0903486900000002,0.775778400000001,-1.208589,0.9604084,-0.001073481,-0.3098209,-35.12461,-26.48158,43.44525
16.059082985,-0.2788507,0.775778400000001,-0.964705900000002,0.9642962,-0.0005063424,-0.3093492,-35.12461,-26.48158,43.44525
16.06908083,-1.140316,0.4790165,-0.8427644,0.9607142,0.008686479,-0.3059953,-35.12461,-26.48158,43.44525
16.079079151,-1.386449,0.4196641,-0.903735200000002,0.9608492,0.001343001,-0.3122152,-35.12461,-26.48158,43.44525
16.089076519,-1.447982,0.1229023,-0.903735200000002,0.9662719,-0.001933909,-0.3103095,-35.49347,-26.86094,43.896
16.099074364,-0.832649800000001,0.1229023,-0.659852100000001,0.9692836,-0.006799617,-0.3174921,-35.49347,-26.86094,43.896
16.109072208,-0.4634504,-0.05515479,-0.8427644,0.9722873,-0.01114884,-0.3213249,-35.49347,-26.86094,43.896
16.11907053,-0.1557842,-0.2925643,-0.659852100000001,0.9804676,-0.005646248,-0.3218191,-35.49347,-26.86094,43.896
16.129068375,-0.4634504,-0.411269,-0.598881400000002,0.980837,0.0007089947,-0.3184713,-35.49347,-26.86094,43.896
16.139066219,-0.894183000000003,-0.886087999999999,-0.1720861,0.9761037,-0.006647326,-0.3155897,-35.49766,-26.48766,43.05547
16.149064064,-0.7711166,-1.064145,-0.3549984,0.9780176,-0.004604338,-0.3088935,-35.49766,-26.48766,43.05547
16.159062386,-0.2788507,-1.538964,-0.3549984,0.9746518,-0.007153181,-0.3146299,-35.49766,-26.48766,43.05547
16.16906023,0.2749484,-1.538964,-0.1111153,0.976582,-0.006143164,-0.3146335,-35.49766,-26.48766,43.05547
16.179058075,0.5210813,-1.479612,-0.1111153,0.9730629,-0.0003726168,-0.3136718,-35.49766,-26.48766,43.05547
16.189056397,0.1518819,-1.598316,0.1327677,0.9695441,0.005397932,-0.31271,-35.13445,-26.09741,43.89473
16.199054241,-1.078783,-1.479612,0.2547093,0.9656835,0.003373507,-0.3131813,-35.13445,-26.09741,43.89473
16.209052086,-2.309447,-1.717021,0.4985923,0.9654255,-0.008749427,-0.3098277,-35.13445,-26.09741,43.89473
16.219049931,-2.309447,-1.95443,0.681504599999997,0.9560441,-0.002087728,-0.3050272,-35.13445,-26.09741,43.89473
16.229047298,-1.263382,-1.776374,0.864416900000002,0.951822,-0.01099266,-0.3131534,-35.13445,-26.09741,43.89473
16.23904562,0.0903486900000002,-1.717021,0.925387699999998,0.9474194,-0.01012092,-0.3145817,-35.50133,-26.48058,43.89397
16.249043465,0.5210813,-1.420259,0.925387699999998,0.9506764,-0.001720996,-0.3064537,-35.50133,-26.48058,43.89397
16.259041309,0.02881546,-1.18285,0.864416900000002,0.9491605,0.00116909,-0.3059733,-35.50133,-26.48058,43.89397
16.269039154,-0.709583300000001,-1.18285,0.5595631,0.9574679,-0.0001465355,-0.3083803,-35.50133,-26.48058,43.89397
16.279037476,-0.894183000000003,-1.123497,0.5595631,0.9589026,0.001361565,-0.3059903,-35.50133,-26.48058,43.89397
16.28903532,-0.709583300000001,-0.886087999999999,0.7424754,0.9564286,0.003195044,-0.3126865,-35.11506,-26.8652,43.06028
16.299033165,-0.894183000000003,-0.648678499999998,0.7424754,0.9617324,0.006228641,-0.3112608,-35.11506,-26.8652,43.06028
16.309031487,-1.755648,-0.648678499999998,0.681504599999997,0.9686177,0.003020103,-0.3050505,-35.11506,-26.8652,43.06028
16.319029331,-1.878715,-0.589326100000003,0.681504599999997,0.9727157,-0.007576489,-0.3036192,-35.11506,-26.8652,43.06028
16.329027176,-1.940248,-0.411269,0.4985923,0.9820248,-0.01032576,-0.305549,-35.4898,-26.86802,43.0575
16.339025021,-1.078783,-0.3519166,0.0717969800000001,0.9835033,-0.01130352,-0.3093799,-35.4898,-26.86802,43.0575
16.349023342,-0.03271778,0.004197581,-0.2940276,0.996591,-0.007656518,-0.3108394,-35.4898,-26.86802,43.0575
16.359021187,0.2749484,0.4196641,-0.2330568,0.9943684,0.006864658,-0.312275,-35.4898,-26.86802,43.0575
16.369018555,-0.894183000000003,0.597721199999998,-0.2330568,0.9897759,0.01799006,-0.3079627,-35.4898,-26.86802,43.0575
16.379016399,-2.494047,0.597721199999998,-0.4159691,0.9858333,0.02034187,-0.3079564,-35.4898,-26.86802,43.0575
16.389014244,-3.417045,0.775778400000001,-0.3549984,0.9851236,0.006231156,-0.3084302,-35.4898,-26.86802,43.0575
16.399012566,-3.478579,0.8351307,-0.4769399,0.9848117,-0.002950872,-0.3022057,-35.4898,-26.86802,43.0575
16.40901041,-2.432514,1.013188,-0.4769399,0.9800211,-0.007471632,-0.3079391,-35.4898,-26.86802,43.0575
16.419008255,-1.509515,1.131893,-0.5379106,0.9789749,-0.003569675,-0.3041097,-35.4898,-26.86802,43.0575
16.429006577,-0.955716300000001,1.428654,-0.5379106,0.9793334,0.003209882,-0.3074621,-35.49347,-26.86094,43.896
16.439004421,-1.324916,1.30995,-0.3549984,0.9729193,0.007474181,-0.3055377,-35.49347,-26.86094,43.896
16.449002266,-1.755648,1.547359,-0.3549984,0.9763473,0.006565635,-0.306022,-35.49347,-26.86094,43.896
16.459000588,-2.247914,1.903473,-0.2940276,0.9720531,0.001577517,-0.310799,-35.49347,-26.86094,43.896
16.468998432,-2.124848,1.844121,-0.2330568,0.9637902,0.0004336101,-0.3117415,-35.49347,-26.86094,43.896
16.478996277,-2.247914,2.140883,-0.2940276,0.9637821,0.0009500969,-0.3083916,-35.49935,-26.48439,43.44247
16.488994122,-2.186381,2.022178,-0.05014454,0.9584977,-0.00301552,-0.3055099,-35.49935,-26.48439,43.44247
16.498992443,-1.755648,1.784769,-0.05014454,0.9550883,-0.003074108,-0.3045468,-35.49935,-26.48439,43.44247
16.508990288,-1.632582,1.903473,0.1937385,0.9491442,0.002202061,-0.2992734,-35.49935,-26.48439,43.44247
16.518987656,-2.001781,1.606712,0.4985923,0.9485835,0.00606097,-0.3011878,-35.49935,-26.48439,43.44247
16.5289855,-2.863246,1.30995,0.4985923,0.9501002,0.003192831,-0.2992753,-35.11506,-26.8652,43.06028
16.538983345,-3.417045,1.369302,0.4376215,0.9566039,-0.005972973,-0.3059844,-35.11506,-26.8652,43.06028
16.548981667,-3.232446,1.369302,0.3766508,0.9634861,-0.00927807,-0.3103027,-35.11506,-26.8652,43.06028
16.558979511,-2.986313,1.666064,0.1937385,0.9650196,-0.01315724,-0.3126973,-35.11506,-26.8652,43.06028
16.568977356,-3.170913,1.547359,-0.1111153,0.9630897,-0.01415848,-0.3117365,-35.11506,-26.8652,43.06028
16.578975678,-2.678647,1.666064,-0.1111153,0.969079,-0.02187662,-0.318445,-35.11873,-26.85812,43.89878
16.588973522,-2.370981,1.606712,-0.2940276,0.9650809,-0.01664096,-0.3217894,-35.11873,-26.85812,43.89878
16.598971367,-2.247914,1.666064,-0.720822899999998,0.9591643,-0.01281768,-0.3160372,-35.11873,-26.85812,43.89878
16.608969212,-2.494047,1.606712,-0.7817937,0.9620893,-0.01268532,-0.3079065,-35.11873,-26.85812,43.89878
16.618967533,-3.232446,1.30995,-0.964705900000002,0.9592028,-0.0146949,-0.3088582,-35.11873,-26.85812,43.89878
16.628965378,-2.863246,1.131893,-1.086647,0.9611688,-0.01564986,-0.3112542,-35.49766,-26.48766,43.05547
16.638963222,-2.74018,1.191245,-1.086647,0.9572715,-0.01574002,-0.3126831,-35.49766,-26.48766,43.05547
16.648961544,-2.063314,0.894483100000001,-1.26956,0.9606442,-0.01374717,-0.3146038,-35.49766,-26.48766,43.05547
16.658959389,-1.447982,0.597721199999998,-1.147618,0.9610577,-0.009873401,-0.3169984,-35.49766,-26.48766,43.05547
16.668957233,-1.017249,-0.1738595,-0.964705900000002,0.9658275,-0.004460122,-0.3198796,-35.49766,-26.48766,43.05547
16.678954601,-1.263382,-0.3519166,-0.7817937,0.9699728,0.008212395,-0.3246758,-35.10719,-27.24556,43.06231
16.688952446,-2.124848,-0.648678499999998,-0.3549984,0.9704515,0.008725335,-0.3227625,-35.10719,-27.24556,43.06231
16.698950767,-3.109379,-1.064145,-0.4159691,0.964652,0.00618982,-0.3217946,-35.10719,-27.24556,43.06231
16.708948612,-3.293979,-1.95443,-0.1720861,0.9603305,0.002658986,-0.3265719,-35.10719,-27.24556,43.06231
16.718946457,-2.801713,-2.726011,-0.2940276,0.9583352,0.005009796,-0.3308762,-35.10719,-27.24556,43.06231
16.728944302,-1.755648,-3.20083,-0.1720861,0.9500168,0.006754123,-0.3346907,-35.48613,-26.8751,42.21899
16.738942623,-1.509515,-4.091116,-0.4769399,0.9528113,0.01359936,-0.3361331,-35.48613,-26.8751,42.21899
16.748940468,-1.817181,-4.743992,-0.4769399,0.9424452,0.02068368,-0.3361169,-35.48613,-26.8751,42.21899
16.758938312,-2.370981,-6.04974400000001,-0.4769399,0.9413074,0.02943008,-0.3337243,-35.48613,-26.8751,42.21899
16.768936634,-3.170913,-7.53355299999998,-0.2940276,0.9440946,0.03681814,-0.3289452,-35.48613,-26.8751,42.21899
16.778934479,-3.909311,-8.89865800000003,0.4985923,0.9404826,0.04738923,-0.334206,-35.11506,-26.8652,43.06028
16.788932323,-5.93990799999998,-9.551534,1.169271,0.9404527,0.04876751,-0.3428207,-35.11506,-26.8652,43.06028
16.798930168,-9.07810300000001,-10.38247,1.96189,0.9457023,0.05473323,-0.3394814,-35.11506,-26.8652,43.06028
16.80892849,-12.15476,-11.3321,2.327715,0.9474371,0.04018049,-0.3404378,-35.11506,-26.8652,43.06028
16.818926334,-13.57003,-11.62887,2.75451,0.9581005,0.01694754,-0.3533719,-35.11506,-26.8652,43.06028
16.828923702,-13.26236,-11.45081,3.120335,0.960402,-0.002046442,-0.3629426,-35.09566,-27.633,42.22583
16.838921547,-11.97016,-11.27275,3.669072,0.9509721,0.006956279,-0.3677142,-35.09566,-27.633,42.22583
16.848919868,-12.5855,-11.03534,4.217809,0.9510137,0.0308121,-0.3629347,-35.09566,-27.633,42.22583
16.858917713,-15.66216,-10.85729,4.461692,0.9614577,0.04564055,-0.358171,-35.09566,-27.633,42.22583
16.868915558,-19.35415,-10.14506,4.217809,0.9774711,0.04944186,-0.3491069,-34.34815,-27.62356,42.68289
16.878913403,-22.49235,-9.373476,3.851984,0.9934766,0.02735652,-0.3543934,-34.34815,-27.62356,42.68289
16.888911724,-23.96914,-8.364487,3.181306,1.006138,0.001842991,-0.3553661,-34.34815,-27.62356,42.68289
16.898909569,-21.63088,-7.889668,2.69354,1.025113,-0.0225783,-0.3568286,-34.34815,-27.62356,42.68289
16.908907413,-18.55422,-7.65225799999999,2.144803,1.046818,-0.0367628,-0.3606914,-34.34815,-27.62356,42.68289
16.918905735,-15.60063,-7.11808599999999,1.1083,1.056136,-0.04002417,-0.3654926,-34.72289,-27.62637,42.68011
16.92890358,-12.52396,-6.99938200000001,0.3766508,1.059229,-0.02284982,-0.3540166,-34.72289,-27.62637,42.68011
16.938901424,-9.44730199999998,-7.11808599999999,-0.05014454,1.047928,-0.01765756,-0.346341,-34.72289,-27.62637,42.68011
16.948899269,-7.04750599999997,-7.29614399999999,-0.598881400000002,1.02829,-0.009723129,-0.3396087,-34.72289,-27.62637,42.68011
16.958897591,-5.263042,-7.47420100000002,-0.659852100000001,1.008686,-0.003832684,-0.3438832,-34.72289,-27.62637,42.68011
16.968895435,-4.093911,-7.11808599999999,-0.4769399,0.9800633,0.01563947,-0.3313954,-34.32259,-28.76844,42.23747
16.978892803,-5.570708,-7.17743899999998,-0.4769399,0.9563928,0.03080528,-0.3222651,-34.32259,-28.76844,42.23747
16.988890648,-7.232106,-7.17743899999998,-0.720822899999998,0.9381921,0.01389735,-0.3251005,-34.32259,-28.76844,42.23747
16.998888493,-8.093571,-7.77096299999999,-1.26956,0.9311419,0.0001824044,-0.3217346,-34.32259,-28.76844,42.23747
17.008886814,-6.92443900000002,-7.77096299999999,-1.330531,0.9286001,-0.02035193,-0.3298607,-34.32259,-28.76844,42.23747
17.018884659,-5.201509,-7.83031500000001,-1.330531,0.9311991,-0.02906946,-0.3322559,-34.32259,-28.76844,42.23747
17.028882504,-3.540112,-7.889668,-1.696355,0.9284659,-0.03939842,-0.3399056,-34.32259,-28.76844,42.23747
17.038880825,-1.447982,-8.00837199999998,-1.452472,0.9337866,-0.03738024,-0.3432655,-34.32259,-28.76844,42.23747
17.04887867,0.1518819,-8.245782,-1.391501,0.9448962,-0.03238467,-0.3523791,-34.32259,-28.76844,42.23747
17.058876514,1.136414,-8.067724,-1.391501,0.9549516,-0.02297066,-0.3543133,-34.32259,-28.76844,42.23747
17.068874359,1.197947,-8.48319099999998,-0.964705900000002,0.9621505,-0.01694011,-0.3481059,-33.93999,-29.14598,42.24229
17.078872681,0.4595481,-9.13606700000001,-0.4769399,0.9699265,-0.01579705,-0.3462055,-33.93999,-29.14598,42.24229
17.088870525,-0.03271778,-9.49218100000001,0.31568,0.9689445,-0.01528664,-0.3414181,-33.93999,-29.14598,42.24229
17.09886837,-0.2173175,-9.72959,1.474125,0.9665532,-0.01781185,-0.3466777,-33.93999,-29.14598,42.24229
17.108866692,-0.709583300000001,-9.78894299999998,2.632569,0.9661388,-0.02171195,-0.3471545,-33.93999,-29.14598,42.24229
17.118864536,-1.263382,-9.43282899999999,3.48616,0.9690645,-0.02155765,-0.336631,-33.92793,-29.89961,43.08485
17.128862381,-1.632582,-9.01736299999997,4.400721,0.9764354,-0.02480484,-0.3356858,-33.92793,-29.89961,43.08485
17.138860226,-1.509515,-8.83930499999998,5.13237,0.9877859,-0.03232056,-0.3318751,-33.92793,-29.89961,43.08485
17.148857594,-0.709583300000001,-8.42383900000002,5.80304899999998,0.9962958,-0.04427465,-0.3290154,-33.92793,-29.89961,43.08485
17.158855915,0.3364816,-7.53355299999998,6.41275599999997,1.005081,-0.04510806,-0.3328591,-33.92793,-29.89961,43.08485
17.16885376,1.321013,-6.94003,6.96149300000002,1.012414,-0.04644732,-0.335743,-34.31053,-29.52207,43.08003
17.178851605,1.382547,-5.87168699999998,7.51023000000002,1.012166,-0.05903407,-0.3299964,-34.31053,-29.52207,43.08003
17.188849449,2.305545,-4.862697,7.38828800000001,1.011537,-0.07755175,-0.3342977,-34.31053,-29.52207,43.08003
17.198847771,3.474676,-3.675649,7.08343500000003,1.005946,-0.09131683,-0.3395488,-34.31053,-29.52207,43.08003
17.208845615,5.505273,-1.95443,6.41275599999997,0.9970379,-0.1099367,-0.3371356,-34.31053,-29.52207,43.08003
17.21884346,8.27426799999999,-0.1738595,5.80304899999998,0.9804223,-0.1073274,-0.3347144,-33.95152,-28.75854,43.07876
17.228841782,10.85866,1.30995,5.620136,0.9556679,-0.08635605,-0.3260622,-33.95152,-28.75854,43.07876
17.238839626,11.96626,2.022178,5.498195,0.9403248,-0.07342471,-0.3135959,-33.95152,-28.75854,43.07876
17.248837471,12.08933,2.675054,5.010429,0.9429776,-0.05867562,-0.3006827,-33.95152,-28.75854,43.07876
17.258835316,11.90473,3.56534,3.912955,0.9402322,-0.04219469,-0.2992464,-33.95152,-28.75854,43.07876
17.268833637,12.39699,4.811739,2.632569,0.9358233,-0.04074941,-0.2911034,-33.93748,-29.51599,43.46982
17.278831482,13.93533,5.998787,1.413154,0.9305938,-0.0476252,-0.2877424,-33.93748,-29.51599,43.46982
17.288829327,15.71979,7.24518699999998,0.4376215,0.9242419,-0.04681829,-0.2920387,-33.93748,-29.51599,43.46982
17.298826695,18.55032,7.60130100000003,-0.5379106,0.9285389,-0.04251345,-0.3087975,-33.93748,-29.51599,43.46982
17.308825016,22.36538,8.49158700000002,-1.757326,0.9530842,-0.02664067,-0.3265517,-33.93748,-29.51599,43.46982
17.318822861,24.76517,10.2128,-2.184121,0.9598017,0.004430009,-0.3442787,-33.96107,-28.37492,43.46373
17.328820705,24.94977,12.11208,-2.06218,0.9576707,0.0397476,-0.3567271,-33.96107,-28.37492,43.46373
17.33881855,21.93465,13.952,-0.720822899999998,0.9602138,0.08596228,-0.3567434,-33.96107,-28.37492,43.46373
17.348816872,15.35059,15.31711,1.839949,0.9509168,0.1139676,-0.3562559,-33.96107,-28.37492,43.46373
17.358814716,8.27426799999999,15.79193,4.949458,0.9540459,0.1027475,-0.3677442,-33.96107,-28.37492,43.46373
17.368812561,2.674744,16.20739,8.42479100000002,0.9572039,0.09011838,-0.373968,-34.71253,-28.37673,43.90968
17.378810883,-1.755648,17.21638,11.83915,0.9706185,0.07622971,-0.3806879,-34.71253,-28.37673,43.90968
17.388808727,-5.75530800000001,17.86926,14.76575,0.9734861,0.05354799,-0.3696798,-34.71253,-28.37673,43.90968
17.398806572,-8.27817099999997,17.45379,17.26555,0.9819534,0.04412365,-0.3558134,-34.71253,-28.37673,43.90968
17.408804417,-9.38576900000002,16.56351,18.72885,0.9804019,0.02334226,-0.3400123,-34.71253,-28.37673,43.90968
17.418802738,-8.15510499999999,15.55452,18.91176,0.9773695,0.003459636,-0.3289947,-33.98466,-27.23385,43.45765
17.428800583,-4.340044,14.54553,18.66788,0.9781469,-0.01212777,-0.3347349,-33.98466,-27.23385,43.45765
17.438798428,-0.709583300000001,14.01136,17.5704,0.9745558,-0.0024448,-0.3309026,-33.98466,-27.23385,43.45765
17.448796749,1.936346,13.59589,16.22905,0.9670485,0.008101981,-0.3304136,-33.98466,-27.23385,43.45765
17.458794594,2.920877,13.29913,14.52187,0.9609653,0.02059434,-0.3327991,-35.11506,-26.8652,43.06028
17.468791962,2.859344,12.94301,12.69274,0.9422694,0.02983852,-0.3442547,-35.11506,-26.8652,43.06028
17.478789806,2.182479,13.00237,10.98556,0.9313663,0.01356511,-0.3466244,-35.11506,-26.8652,43.06028
17.488787651,1.567146,12.7056,10.071,0.9033579,-0.0001876329,-0.3551864,-35.11506,-26.8652,43.06028
17.498785973,1.874812,12.23079,9.339353,0.8908941,-0.01111582,-0.3542047,-35.11506,-26.8652,43.06028
17.508783817,1.628679,11.63726,9.15644099999999,0.8879546,-0.01015815,-0.3494141,-35.87858,-26.11339,42.66366
17.518781662,1.013347,11.10309,9.339353,0.8844379,-0.004317377,-0.3407951,-35.87858,-26.11339,42.66366
17.528779507,-1.386449,9.916043,9.217411,0.8916398,0.001805348,-0.3245376,-35.87858,-26.11339,42.66366
17.538777828,-4.032378,8.66964300000001,8.91255800000001,0.9218205,0.003320876,-0.3303335,-35.87858,-26.11339,42.66366
17.548775673,-7.10903899999999,7.66065299999999,8.30284999999999,0.9434448,-0.006456664,-0.3303687,-35.87858,-26.11339,42.66366
17.558773518,-8.77043599999998,6.948425,6.83955100000002,0.9649237,-0.03486077,-0.3476276,-36.63593,-25.73866,42.65607
17.568771839,-8.46277000000003,6.17684400000002,5.13237,0.9799113,-0.05447948,-0.3466915,-36.63593,-25.73866,42.65607
17.578769684,-5.816842,5.345911,2.937423,0.9869213,-0.06458086,-0.3505297,-36.63593,-25.73866,42.65607
17.588767529,-4.032378,4.871092,0.925387699999998,0.9930977,-0.05622414,-0.3534141,-36.63593,-25.73866,42.65607
17.598765373,-3.478579,4.158864,-0.720822899999998,0.9873765,-0.03684249,-0.3471876,-36.63593,-25.73866,42.65607
17.608763695,-5.078443,3.031168,-2.123151,0.9764989,-0.02821395,-0.3366422,-36.25751,-25.74292,41.82034
17.618761539,-6.49370699999998,1.488007,-3.586449,0.9716756,-0.03067316,-0.3294545,-36.25751,-25.74292,41.82034
17.628759384,-6.80137299999998,0.1229023,-4.744893,0.9699926,-0.04477239,-0.3265765,-36.25751,-25.74292,41.82034
17.638757706,-6.12450699999998,-1.242202,-6.20819099999998,0.9643674,-0.05651104,-0.3227351,-36.25751,-25.74292,41.82034
17.648755073,-4.278511,-1.895078,-7.30566500000003,0.9563703,-0.07170691,-0.3198458,-36.25751,-25.74292,41.82034
17.658752918,-2.494047,-2.013783,-7.976343,0.9372525,-0.06582879,-0.326514,-36.6227,-26.12936,41.43259
17.668750763,-2.247914,-1.776374,-8.46410900000001,0.9336966,-0.05812836,-0.3269884,-36.6227,-26.12936,41.43259
17.678748608,-3.047846,-1.657669,-8.40313799999999,0.9316844,-0.05476214,-0.3265072,-36.6227,-26.12936,41.43259
17.688746929,-4.340044,-1.479612,-8.46410900000001,0.9370208,-0.05379448,-0.3384811,-36.6227,-26.12936,41.43259
17.698744774,-5.01691,-1.835726,-8.098285,0.952564,-0.05101821,-0.3342018,-36.6227,-26.12936,41.43259
17.708742618,-6.30910700000001,-2.073135,-7.73246000000002,0.9685306,-0.04482321,-0.3289668,-36.63226,-25.74574,41.81757
17.71874094,-7.78590499999999,-2.963421,-7.30566500000003,0.9818276,-0.05236189,-0.3318595,-36.63226,-25.74574,41.81757
17.728738785,-8.64737,-3.319535,-6.81789900000001,0.9927538,-0.06332266,-0.3318757,-36.63226,-25.74574,41.81757
17.738736629,-8.21663800000001,-3.319535,-6.39110400000002,1.0074,-0.06509112,-0.3443438,-36.63226,-25.74574,41.81757
17.748734474,-7.84743800000001,-2.963421,-6.08625000000001,1.006624,-0.07586295,-0.3515183,-36.63226,-25.74574,41.81757
17.758732796,-7.29363900000002,-2.073135,-6.02527899999998,1.014841,-0.07232096,-0.3539265,-36.60529,-26.89334,41.04964
17.76873064,-5.816842,-0.9454404,-6.02527899999998,1.009354,-0.06566128,-0.3577472,-36.60529,-26.89334,41.04964
17.778728485,-3.786245,0.3603118,-5.78139599999999,0.9950645,-0.05715717,-0.3534173,-36.60529,-26.89334,41.04964
17.788726807,-2.55558,1.07254,-5.415571,0.9761822,-0.0375496,-0.3471679,-36.60529,-26.89334,41.04964
17.798724651,-2.186381,1.30995,-4.988776,0.9631298,-0.01676285,-0.330879,-36.60529,-26.89334,41.04964
17.808722019,-2.863246,0.953835399999999,-4.379068,0.9550046,0.001249463,-0.3098121,-36.60698,-26.89008,41.43665
17.818719864,-4.278511,0.5383689,-3.525478,0.9663,-0.003369246,-0.3079163,-36.60698,-26.89008,41.43665
17.828717709,-4.524643,0.5383689,-2.671887,0.9611355,-0.01360587,-0.3002474,-36.60698,-26.89008,41.43665
17.83871603,-2.74018,0.716426,-1.940238,0.95926,-0.01753485,-0.3007217,-36.60698,-26.89008,41.43665
17.848713875,0.5210813,0.894483100000001,-1.452472,0.9626588,-0.01703877,-0.3069493,-36.60698,-26.89008,41.43665
17.858711719,2.367078,1.191245,-0.720822899999998,0.9656936,0.002918469,-0.3098312,-36.22267,-27.27089,41.05445
17.868709564,1.628679,1.191245,0.2547093,0.9698501,0.01516667,-0.3079272,-36.22267,-27.27089,41.05445
17.878707886,-0.3403839,0.5383689,0.7424754,0.9681612,0.02729939,-0.3060131,-36.22267,-27.27089,41.05445
17.88870573,-2.74018,-0.708030899999999,1.535095,0.9667832,0.02293817,-0.3017024,-36.22267,-27.27089,41.05445
17.898703575,-4.155444,-1.895078,1.96189,0.9704303,0.01037574,-0.3017055,-36.22267,-27.27089,41.05445
17.908701897,-4.64771,-2.726011,2.449656,0.9741401,-0.005617737,-0.3050579,-35.85329,-27.25772,42.28274
17.918699741,-4.155444,-3.43824,2.266744,0.987484,-0.01554572,-0.3036429,-35.85329,-27.25772,42.28274
17.928697586,-3.786245,-3.972411,2.266744,0.9973441,-0.02169008,-0.3060514,-35.85329,-27.25772,42.28274
17.938695431,-4.155444,-4.625287,1.778978,1.0006,-0.0133121,-0.3003163,-35.85329,-27.25772,42.28274
17.948693752,-4.955376,-4.803344,1.596066,0.9968057,-0.01867541,-0.2940868,-35.85329,-27.25772,42.28274
17.958691597,-5.87837500000002,-5.75298199999998,1.535095,0.9792986,-0.02043526,-0.2892701,-36.22606,-27.26435,41.82846
17.968689442,-6.61677399999998,-6.88067700000001,1.778978,0.9681315,-0.02260404,-0.2897286,-36.22606,-27.26435,41.82846
17.978687763,-5.87837500000002,-8.30513400000001,1.596066,0.9615823,-0.03741695,-0.3011992,-36.22606,-27.26435,41.82846
17.988685608,-5.693775,-9.13606700000001,1.778978,0.9548821,-0.04384463,-0.298793,-36.22606,-27.26435,41.82846
17.998682976,-6.06297400000002,-10.02635,1.718008,0.9538903,-0.0428748,-0.2968772,-36.20695,-28.0316,41.05851
18.00868082,-7.10903899999999,-10.02635,1.535095,0.9515809,-0.04977187,-0.3021357,-36.20695,-28.0316,41.05851
18.018678665,-8.15510499999999,-10.14506,1.413154,0.9435592,-0.06418933,-0.3203039,-36.20695,-28.0316,41.05851
18.028676987,-9.324236,-9.96700000000001,1.169271,0.9398417,-0.0740825,-0.3313022,-36.20695,-28.0316,41.05851
18.038674831,-11.23177,-9.31412399999998,0.864416900000002,0.9361583,-0.08598895,-0.3499571,-36.20695,-28.0316,41.05851
18.048672676,-12.64703,-8.72059999999997,-0.05014454,0.9316617,-0.1059882,-0.3485084,-35.84543,-27.63808,42.28477
18.058670521,-12.83163,-8.48319099999998,-0.4769399,0.9280365,-0.1207039,-0.3556769,-35.84543,-27.63808,42.28477
18.068668842,-12.52396,-8.18642900000001,-0.964705900000002,0.9257293,-0.1275307,-0.3532783,-35.84543,-27.63808,42.28477
18.078666687,-12.5855,-8.364487,-1.574414,0.926768,-0.1308942,-0.3513649,-35.84543,-27.63808,42.28477
18.088664532,-11.17023,-8.60189500000002,-2.06218,0.9233366,-0.1300998,-0.3633236,-35.84543,-27.63808,42.28477
18.098662853,-9.63190200000001,-8.60189500000002,-3.037712,0.9315171,-0.1245884,-0.3628607,-35.83757,-28.01843,42.2868
18.108660698,-8.52430299999999,-8.364487,-3.830332,0.9442961,-0.1043773,-0.3590596,-35.83757,-28.01843,42.2868
18.118658543,-8.15510499999999,-8.067724,-4.074214,0.9585165,-0.08321401,-0.3605255,-35.83757,-28.01843,42.2868
18.128656387,-9.01656900000002,-7.71161000000001,-3.769361,0.972192,-0.05924672,-0.3729985,-35.83757,-28.01843,42.2868
18.138654709,-9.93956800000001,-7.47420100000002,-3.342566,0.9828863,-0.05818199,-0.385939,-35.83757,-28.01843,42.2868
18.148652554,-10.3703,-7.41484800000003,-2.245092,0.9943565,-0.04633664,-0.3907478,-35.81032,-29.16658,41.45438
18.158650398,-12.0317,-7.11808599999999,-0.7817937,1.002433,-0.03559601,-0.402729,-35.81032,-29.16658,41.45438
18.16864872,-13.63156,-6.287153,0.925387699999998,1.01056,-0.02713496,-0.3984382,-35.81032,-29.16658,41.45438
18.178646565,-15.04683,-5.75298199999998,3.059364,1.006664,-0.02718123,-0.3950813,-35.81032,-29.16658,41.45438
18.188643932,-15.84676,-5.931039,5.742078,1.009354,-0.01437079,-0.3816892,-35.81032,-29.16658,41.45438
18.198641777,-16.09289,-6.46521000000002,8.85158600000001,1.000858,-0.00274884,-0.3677987,-35.45916,-28.02271,41.45107
18.208639622,-15.72369,-7.889668,11.71721,0.9875377,0.03202403,-0.3625201,-35.45916,-28.02271,41.45107
18.218637943,-16.76976,-9.90764799999999,14.58284,0.9889323,0.06177736,-0.3534372,-35.45916,-28.02271,41.45107
18.228635788,-18.98495,-11.51016,16.65584,0.9851481,0.08161304,-0.3548715,-35.45916,-28.02271,41.45107
18.238633633,-21.50782,-11.2134,18.48497,0.9796474,0.08938909,-0.3428995,-35.45916,-28.02271,41.45107
18.248631954,-23.59995,-11.45081,19.64341,0.954356,0.08699828,-0.3371118,-35.4319,-29.17085,40.61865
18.258629799,-25.07674,-11.15405,20.67991,0.9493071,0.0703502,-0.3399702,-35.4319,-29.17085,40.61865
18.268627644,-24.76908,-10.91664,21.59447,0.9435909,0.06347794,-0.3351727,-35.4319,-29.17085,40.61865
18.278625488,-23.72301,-10.85729,22.32612,0.9381124,0.04398907,-0.3289367,-35.4319,-29.17085,40.61865
18.28862381,-21.81548,-10.50117,22.50904,0.9398224,0.03097261,-0.3212791,-35.4319,-29.17085,40.61865
18.298621655,-18.36962,-10.91664,22.20418,0.9502876,0.01850541,-0.3256013,-35.79289,-29.93056,41.07143
18.308619499,-14.55456,-10.61988,21.41156,0.965044,0.01093416,-0.3351966,-35.79289,-29.93056,41.07143
18.318617821,-11.97016,-9.61088600000001,20.07021,0.9830754,0.01078253,-0.3376209,-35.79289,-29.93056,41.07143
18.328615666,-9.75496900000002,-8.30513400000001,18.05817,0.9923036,0.01243584,-0.3362017,-35.79289,-29.93056,41.07143
18.33861351,-7.84743800000001,-7.236791,15.92419,1.001671,0.006872952,-0.3271236,-35.79289,-29.93056,41.07143
18.348611355,-6.24757399999999,-5.87168699999998,13.30245,0.9929228,0.005785258,-0.3208866,-35.42602,-29.54739,41.07218
18.358609676,-3.970845,-4.862697,10.74168,0.9968342,0.004772217,-0.3338147,-35.42602,-29.54739,41.07218
18.368607521,-1.817181,-3.735002,8.42479100000002,0.984283,-0.001946519,-0.3505413,-35.42602,-29.54739,41.07218
18.378604889,-0.2173175,-1.420259,6.53469799999998,0.978264,0.007154295,-0.3519689,-35.42602,-29.54739,41.07218
18.388602734,-0.0942510000000003,0.953835399999999,4.888487,0.9752196,0.01331489,-0.3624938,-35.42602,-29.54739,41.07218
18.398600578,-0.5249836,2.853111,3.242276,0.959007,0.0202486,-0.3662959,-35.42771,-29.54412,41.45918
18.4085989,-1.694115,4.871092,1.596066,0.9531339,0.02157285,-0.3682003,-35.42771,-29.54412,41.45918
18.418596745,-3.355512,6.948425,0.0717969800000001,0.9437194,0.00387102,-0.3705722,-35.42771,-29.54412,41.45918
18.428594589,-2.863246,8.78834800000002,-0.8427644,0.9361402,-0.008081687,-0.3858704,-35.42771,-29.54412,41.45918
18.438592911,-2.309447,10.45021,-1.757326,0.9350693,-0.02905535,-0.3920846,-35.42771,-29.54412,41.45918
18.448590756,-1.571049,11.63726,-2.245092,0.9402251,-0.04396066,-0.3858683,-36.17719,-29.54975,41.45363
18.4585886,-1.694115,12.64625,-2.488975,0.9466314,-0.04769531,-0.383007,-36.17719,-29.54975,41.45363
18.468586445,-2.801713,12.34949,-2.976741,0.9458534,-0.0577707,-0.3672101,-36.17719,-29.54975,41.45363
18.478584766,-2.678647,11.4592,-3.403537,0.9403197,-0.07435817,-0.3624104,-36.17719,-29.54975,41.45363
18.488582611,-2.863246,10.27216,-4.257127,0.9414707,-0.08345866,-0.3504456,-36.17719,-29.54975,41.45363
18.498580456,-2.432514,8.96640499999999,-5.232659,0.9389054,-0.1024172,-0.3456505,-36.55025,-29.55583,41.06384
18.508578777,-2.124848,7.83871000000002,-6.26916200000001,0.9374846,-0.1042618,-0.3317689,-36.55025,-29.55583,41.06384
18.518576622,-4.155444,7.00777700000002,-7.30566500000003,0.9366386,-0.1110642,-0.3298513,-36.55025,-29.55583,41.06384
18.528574467,-6.370641,5.82073000000003,-8.28119799999998,0.9215518,-0.1117122,-0.314989,-36.55025,-29.55583,41.06384
18.538572312,-8.40123700000001,4.336921,-9.13478800000001,0.9099816,-0.118201,-0.3087457,-36.55025,-29.55583,41.06384
18.548570633,-9.20116899999999,3.268578,-9.80546599999998,0.8972031,-0.138399,-0.3111111,-37.29186,-29.94181,41.06031
18.558568478,-8.21663800000001,2.853111,-10.59809,0.8980607,-0.1584153,-0.3230718,-37.29186,-29.94181,41.06031
18.568565846,-7.41670600000002,3.031168,-11.69556,0.9036847,-0.1723614,-0.3192495,-37.29186,-29.94181,41.06031
18.57856369,-6.43217400000002,3.921454,-12.61012,0.9194553,-0.1817424,-0.3164031,-37.29186,-29.94181,41.06031
18.588562012,-3.540112,4.455625,-13.76857,0.9250242,-0.1927871,-0.314017,-37.28203,-30.32598,40.61083
18.598559857,0.705681,4.455625,-14.25633,0.9283429,-0.1878533,-0.3130669,-37.28203,-30.32598,40.61083
18.608557701,4.889941,4.396273,-14.98798,0.9531006,-0.183074,-0.3222043,-37.28203,-30.32598,40.61083
18.618555546,8.64346799999999,5.049149,-15.23186,0.9796162,-0.1680246,-0.3279973,-37.28203,-30.32598,40.61083
18.628553867,10.05873,5.58332,-15.71963,1.005067,-0.1481104,-0.3309183,-37.28203,-30.32598,40.61083
18.638551712,11.16633,6.59230999999998,-15.90254,1.02466,-0.1279225,-0.3443577,-36.88986,-31.08715,40.23067
18.648549557,12.0278,7.54194799999998,-15.59769,1.032271,-0.1180752,-0.3467664,-36.88986,-31.08715,40.23067
18.658547878,13.13539,8.610291,-15.04895,1.029235,-0.1124311,-0.3606413,-36.88986,-31.08715,40.23067
18.668545723,13.87379,9.85669000000001,-13.70759,1.017371,-0.1034414,-0.36158,-36.88986,-31.08715,40.23067
18.678543568,14.48913,10.27216,-11.57362,1.00639,-0.08956168,-0.3610859,-36.88986,-31.08715,40.23067
18.688541412,13.99686,10.80633,-9.13478800000001,0.9896822,-0.08211671,-0.3610587,-36.89773,-30.70679,40.22864
18.698539734,13.75073,11.16244,-6.513045,0.9715726,-0.07747032,-0.3452353,-36.89773,-30.70679,40.22864
18.708537579,13.81226,11.28115,-3.891303,0.961686,-0.06984234,-0.3399557,-36.89773,-30.70679,40.22864
18.718535423,14.11993,11.10309,-0.903735200000002,0.9550765,-0.0547289,-0.3203265,-36.89773,-30.70679,40.22864
18.728533745,13.44306,10.86568,1.839949,0.9470648,-0.04319388,-0.3169654,-36.89773,-30.70679,40.22864
18.738531589,13.25846,10.56892,4.644604,0.9484259,-0.03781725,-0.3164906,-36.52129,-30.70725,39.84442
18.748529434,12.64313,10.27216,6.71760999999998,0.9531027,-0.02760342,-0.3255943,-36.52129,-30.70725,39.84442
18.758527279,11.16633,10.27216,8.36382100000002,0.959342,-0.02268214,-0.3323066,-36.52129,-30.70725,39.84442
18.7685256,9.074201,10.27216,10.01003,0.9528629,-0.01505702,-0.3346901,-36.52129,-30.70725,39.84442
18.778522968,6.79747099999997,9.61928199999999,11.29042,0.9529622,-0.02043112,-0.3380389,-36.52129,-30.70725,39.84442
18.788520813,5.689873,9.02575799999998,12.02207,0.9511212,-0.02636459,-0.3452128,-36.9039,-30.32971,39.83961
18.798518658,5.81293900000002,7.89806300000001,12.50983,0.9474712,-0.03953958,-0.3432888,-36.9039,-30.32971,39.83961
18.808516502,7.41280299999999,6.948425,12.20498,0.9452564,-0.05119329,-0.337539,-36.9039,-30.32971,39.83961
18.818514824,9.25880099999997,5.82073000000003,11.9611,0.9491342,-0.05016673,-0.3399389,-36.9039,-30.32971,39.83961
18.828512669,11.22786,5.108501,11.71721,0.9547883,-0.03984147,-0.3389943,-36.9039,-30.32971,39.83961
18.838510513,11.72013,4.633682,11.59527,0.9559408,-0.02324844,-0.3337362,-36.91515,-29.94281,40.61159
18.848508835,10.42793,3.980806,11.29042,0.9591798,-0.0138726,-0.3251299,-36.91515,-29.94281,40.61159
18.85850668,8.028135,3.209226,10.86362,0.9601001,-0.01091245,-0.3222608,-36.91515,-29.94281,40.61159
18.868504524,6.73593800000001,1.962826,10.19294,0.9588107,-0.02021468,-0.3270419,-36.91515,-29.94281,40.61159
18.878502369,7.35127000000003,0.8351307,8.97352800000002,0.9621322,-0.04161382,-0.3361351,-36.91515,-29.94281,40.61159
18.88850069,9.68953300000002,0.2416071,7.26634699999998,0.9644339,-0.06059903,-0.3447486,-37.3101,-28.8111,39.82872
18.898498535,12.39699,-0.411269,5.681107,0.960365,-0.05140705,-0.3404367,-37.3101,-28.8111,39.82872
18.90849638,14.05839,-1.360907,4.27878,0.9584561,-0.02764679,-0.3418753,-37.3101,-28.8111,39.82872
18.918494701,13.93533,-2.42925,2.75451,0.9498183,-0.008905202,-0.3461722,-37.3101,-28.8111,39.82872
18.928492546,12.70466,-2.42925,0.681504599999997,0.9518258,-0.01241627,-0.3624464,-37.3101,-28.8111,39.82872
18.938490391,11.474,-1.895078,-1.391501,0.9552453,-0.01281711,-0.3605379,-37.32582,-28.05039,39.82466
18.948488235,11.41246,-1.420259,-3.281595,0.9568122,-0.01873588,-0.3734607,-37.32582,-28.05039,39.82466
18.958486557,13.56613,-1.895078,-5.049747,0.9471508,-0.0233441,-0.3782284,-37.32582,-28.05039,39.82466
18.968484402,16.27359,-2.132488,-6.02527899999998,0.9481608,-0.02528984,-0.3806226,-37.32582,-28.05039,39.82466
18.978482246,17.81192,-2.844716,-7.00081100000001,0.9464067,-0.009800688,-0.383495,-37.32582,-28.05039,39.82466
18.988479614,17.93499,-3.853706,-7.244694,0.9567062,0.01284823,-0.3734687,-36.57803,-28.04149,40.21722
18.998477459,17.01199,-4.743992,-7.30566500000003,0.954285,0.03811761,-0.3682066,-36.57803,-28.04149,40.21722
19.00847578,15.78132,-5.931039,-6.81789900000001,0.9558401,0.05901311,-0.3715647,-36.57803,-28.04149,40.21722
19.018473625,13.62766,-6.82132499999999,-6.33013299999999,0.960143,0.06350669,-0.3677448,-36.57803,-28.04149,40.21722
19.02847147,11.474,-7.71161000000001,-5.78139599999999,0.9620632,0.06497175,-0.3710985,-36.57803,-28.04149,40.21722
19.038469791,8.95113399999999,-8.42383900000002,-5.29363,0.9586613,0.06437911,-0.3753996,-36.57972,-28.03822,40.60423
19.048467636,6.73593800000001,-9.61088600000001,-4.561981,0.9564159,0.05408611,-0.3801788,-36.57972,-28.03822,40.60423
19.058465481,5.62834,-10.91664,-3.830332,0.9536477,0.04574848,-0.3825647,-36.57972,-28.03822,40.60423
19.068463802,4.705341,-11.68822,-2.976741,0.9537812,0.03835673,-0.3940489,-36.57972,-28.03822,40.60423
19.078461647,4.336142,-12.69721,-2.001209,0.9433652,0.02209293,-0.3964194,-36.57972,-28.03822,40.60423
19.088459492,4.766874,-13.8249,-1.26956,0.9354452,0.02878789,-0.391143,-35.84793,-27.26807,41.05724
19.098457336,4.274609,-14.71519,-0.4159691,0.9277574,0.04910696,-0.3844348,-35.84793,-27.26807,41.05724
19.108455658,2.059412,-16.199,0.1327677,0.9274775,0.06425773,-0.3743881,-35.84793,-27.26807,41.05724
19.118453503,-0.832649800000001,-17.38605,0.620533899999998,0.9382555,0.06099889,-0.3820632,-35.84793,-27.26807,41.05724
19.128451347,-4.032378,-17.86087,0.620533899999998,0.9498772,0.03882695,-0.3873422,-36.23054,-26.89053,41.05242
19.138449669,-5.139976,-18.33569,0.5595631,0.9582371,0.008881282,-0.3854347,-36.23054,-26.89053,41.05242
19.148447514,-4.709243,-18.33569,0.4376215,0.9676776,-0.0005589188,-0.3753986,-36.23054,-26.89053,41.05242
19.158445358,-2.863246,-19.10727,0.01082622,0.9701149,-0.0004537399,-0.3691814,-36.23054,-26.89053,41.05242
19.168443203,-0.955716300000001,-19.64144,-0.598881400000002,0.9829342,0.01716183,-0.3835656,-36.23054,-26.89053,41.05242
19.178441525,-1.571049,-19.46338,-1.086647,0.9834473,0.01567028,-0.3883519,-35.84962,-27.2648,41.44424
19.188439369,-4.278511,-18.92921,-1.330531,0.9858411,0.0182701,-0.3749566,-35.84962,-27.2648,41.44424
19.198436737,-7.66283799999999,-18.5731,-1.513443,0.9770298,0.02059591,-0.3672846,-35.84962,-27.2648,41.44424
19.208434582,-10.5549,-18.51374,-1.757326,0.9700513,0.002955367,-0.368225,-35.84962,-27.2648,41.44424
19.218432427,-11.90863,-18.5731,-2.671887,0.9686198,-0.02487247,-0.3792226,-35.84962,-27.2648,41.44424
19.228430748,-10.98563,-18.09828,-3.70839,0.9783488,-0.04996238,-0.3806688,-35.11337,-26.86847,42.67328
19.238428593,-9.07810300000001,-17.20799,-4.927805,0.9795461,-0.06224517,-0.3978965,-35.11337,-26.86847,42.67328
19.248426437,-7.724371,-16.199,-5.720425,0.9823718,-0.05673433,-0.3859385,-35.11337,-26.86847,42.67328
19.258424759,-7.35517199999998,-15.96159,-6.45207400000002,0.9810782,-0.03975631,-0.3864191,-35.11337,-26.86847,42.67328
19.268422604,-7.78590499999999,-15.54612,-7.30566500000003,0.9869465,-0.04046312,-0.3701576,-35.11337,-26.86847,42.67328
19.278420448,-7.90897099999997,-15.30871,-8.46410900000001,0.9840212,-0.04059987,-0.3787668,-34.72459,-27.6231,43.06712
19.288418293,-8.03203799999998,-14.59649,-9.50061200000003,0.97574,-0.04078103,-0.3806667,-34.72459,-27.6231,43.06712
19.298416615,-8.64737,-13.76555,-10.11032,0.9651581,-0.0483494,-0.3883035,-34.72459,-27.6231,43.06712
19.308414459,-8.58583600000001,-13.17203,-10.41517,0.9593214,-0.0489682,-0.3902074,-34.72459,-27.6231,43.06712
19.318412304,-9.26270200000001,-12.93462,-10.11032,0.9471624,-0.05016715,-0.3887502,-34.72459,-27.6231,43.06712
19.328410626,-9.878035,-12.93462,-9.80546599999998,0.9350664,-0.05479277,-0.3901637,-34.71672,-28.00346,43.06915
19.33840847,-10.43183,-13.52814,-9.19575899999999,0.9294866,-0.068969,-0.3872789,-34.71672,-28.00346,43.06915
19.348406315,-10.12417,-13.94361,-8.40313799999999,0.9244546,-0.0866325,-0.3949227,-34.71672,-28.00346,43.06915
19.35840416,-8.955036,-14.24037,-7.54954800000001,0.9147936,-0.09122317,-0.3977762,-34.71672,-28.00346,43.06915
19.368402481,-8.15510499999999,-14.77454,-6.33013299999999,0.9089128,-0.08936487,-0.3944164,-34.71672,-28.00346,43.06915
19.378400326,-7.66283799999999,-14.9526,-5.171688,0.9056586,-0.07126071,-0.3738366,-34.32795,-28.75809,43.46298
19.388398171,-7.78590499999999,-15.13066,-4.135185,0.8943473,-0.06560464,-0.368554,-34.32795,-28.75809,43.46298
19.398396492,-9.508835,-15.30871,-3.098683,0.870489,-0.06653564,-0.3656407,-34.32795,-28.75809,43.46298
19.408394337,-10.80103,-15.24936,-2.123151,0.8611689,-0.08899852,-0.3574829,-34.32795,-28.75809,43.46298
19.418392181,-10.49337,-14.59649,-1.26956,0.8509085,-0.1135027,-0.3579372,-34.32795,-28.75809,43.46298
19.428389549,-8.27817099999997,-14.18102,-0.659852100000001,0.8488311,-0.1324253,-0.3502715,-33.94115,-29.5089,44.30832
19.438387394,-4.955376,-13.40944,0.31568,0.850653,-0.1255466,-0.3459693,-33.94115,-29.5089,44.30832
19.448385716,-1.878715,-12.10369,1.596066,0.8603526,-0.1228288,-0.3354582,-33.94115,-29.5089,44.30832
19.45838356,-0.03271778,-10.79793,3.059364,0.871865,-0.1127509,-0.3211236,-33.94115,-29.5089,44.30832
19.468381405,0.4595481,-8.89865800000003,5.13237,0.8800895,-0.10895,-0.2952958,-33.94115,-29.5089,44.30832
19.47837925,0.5210813,-6.64326800000002,7.87605399999997,0.8984561,-0.1263783,-0.2747446,-33.18211,-29.88691,43.92891
19.488377571,3.228544,-4.684639,11.35139,0.9173326,-0.1446237,-0.238401,-33.18211,-29.88691,43.92891
19.498375416,8.397335,-2.488602,14.82672,0.9467553,-0.1541024,-0.2226569,-33.18211,-29.88691,43.92891
19.508373261,13.50459,0.894483100000001,18.11914,0.9897274,-0.1584058,-0.2016733,-33.18211,-29.88691,43.92891
19.518371582,18.55032,5.345911,21.65545,1.042948,-0.163461,-0.1787931,-33.18211,-29.88691,43.92891
19.528369427,22.54998,11.10309,24.64301,1.092239,-0.1672764,-0.1712209,-33.92373,-30.27288,43.92538
19.538367272,26.91884,18.40343,27.20378,1.145719,-0.1865723,-0.1650876,-33.92373,-30.27288,43.92538
19.548365593,31.53383,27.18758,28.4232,1.198262,-0.2077954,-0.1551237,-33.92373,-30.27288,43.92538
19.558363438,38.17942,37.39619,29.15485,1.237798,-0.2370681,-0.1470493,-33.92373,-30.27288,43.92538
19.568361282,46.36334,48.73249,29.33776,1.292108,-0.2741783,-0.1246413,-33.92373,-30.27288,43.92538
19.578359127,56.88552,60.4842600000003,29.52067,1.329919,-0.2629545,-0.0950384,-33.58214,-28.74538,44.30704
19.588357449,65.9924400000002,71.8205600000001,30.06941,1.327768,-0.2516142,-0.07254449,-33.58214,-28.74538,44.30704
19.598355293,72.6995600000001,81.7917600000002,30.98397,1.315342,-0.2380078,-0.04572608,-33.58214,-28.74538,44.30704
19.608353138,75.4685500000002,91.4661899999999,32.20339,1.291726,-0.2257565,-0.03659512,-33.58214,-28.74538,44.30704
19.618351459,77.0684200000001,100.7845,33.60571,1.278614,-0.2278628,-0.02604305,-33.58214,-28.74538,44.30704
19.628349304,77.8683500000002,111.1712,35.55678,1.306692,-0.2181103,-0.02992312,-35.11506,-26.8652,43.06028
19.638347149,75.9608200000001,123.8132,38.05658,1.344447,-0.1783837,-0.01851334,-35.11506,-26.8652,43.06028
19.648344994,66.8539000000002,137.0488,40.67832,1.37533,-0.1358028,0.00104348,-35.11506,-26.8652,43.06028
19.658342361,54.36266,149.5722,43.8488,1.393284,-0.07938056,0.02109785,-35.11506,-26.8652,43.06028
19.668340683,38.11789,161.4426,47.62899,1.407632,-0.03860163,0.03876965,-35.11506,-26.8652,43.06028
19.678338528,17.62732,172.957,51.16529,1.40365,-0.05929508,0.06941079,-38.19244,-22.71741,41.40322
19.688336372,1.874812,183.1656,54.2748,1.406189,-0.1157755,0.1048355,-38.19244,-22.71741,41.40322
19.698334217,-8.64737,193.3149,57.26237,1.414321,-0.158425,0.1526899,-38.19244,-22.71741,41.40322
19.708332539,-16.21596,203.4641,59.6402300000001,1.45437,-0.1884445,0.1842139,-38.19244,-22.71741,41.40322
19.718330383,-21.07708,214.3849,61.5912900000001,1.508598,-0.2219451,0.1764708,-41.99535,-18.98665,36.0661
19.728328228,-21.93855,225.0684,64.4569199999998,1.576099,-0.2318993,0.3232785,-41.99535,-18.98665,36.0661
19.738326549,-20.70788,234.5054,63.6643000000002,1.618199,-0.2943233,0.3141282,-41.99535,-18.98665,36.0661
19.748324394,-10.49337,242.4586,62.9936300000003,1.595888,-0.3523026,0.2926461,-41.99535,-18.98665,36.0661
19.758322239,1.751746,250.946,60.7377,1.578914,-0.3836646,0.2476977,-41.99535,-18.98665,36.0661
19.768320084,12.76619,259.4928,57.8111100000001,1.599867,-0.3573773,0.2605759,-47.98177,-17.58923,26.66096
19.778318405,15.59672,269.3452,53.78704,1.688939,-0.3259576,0.2623268,-47.98177,-17.58923,26.66096
19.78831625,12.2124,278.5449,50.25073,1.736683,-0.3247686,0.2890436,-47.98177,-17.58923,26.66096
19.798314094,4.582274,286.8542,47.75093,1.716577,-0.3691014,0.3201975,-47.98177,-17.58923,26.66096
19.808312416,6.55133799999999,291.7805,48.60452,1.663177,-0.4319587,0.3107352,-47.98177,-17.58923,26.66096
19.818310261,7.22820399999999,298.3092,46.3486,1.538725,-0.3690119,0.342522,-51.67213,-15.05028,15.26736
19.828308105,12.27393,302.1671,48.29967,1.540592,-0.4935813,0.3731797,-51.67213,-15.05028,15.26736
19.83830595,12.27393,309.1707,47.20219,1.524309,-0.4290832,0.4468922,-51.67213,-15.05028,15.26736
19.848304272,17.56579,311.6635,45.55598,1.565719,-0.4024443,0.4539918,-51.67213,-15.05028,15.26736
19.858302116,22.67304,313.5034,45.3121,1.570102,-0.4023884,0.4506341,-51.67213,-15.05028,15.26736
19.868299961,24.08831,314.8685,43.54395,1.525567,-0.3920346,0.4569305,-53.90427,-12.9076,0.7259436
19.878298283,21.25778,312.4944,41.89774,1.475361,-0.3894486,0.5292823,-53.90427,-12.9076,0.7259436
19.888296127,16.95045,307.6275,43.30006,1.454944,-0.3901088,0.607326,-53.90427,-12.9076,0.7259436
19.898293972,16.95045,300.3272,47.01928,1.444885,-0.4516897,0.5906093,-53.90427,-12.9076,0.7259436
19.908291817,25.25744,292.0179,50.25073,1.43158,-0.4949294,0.6203153,-53.90427,-12.9076,0.7259436
19.918290138,38.48708,280.8003,54.82354,1.346643,-0.4347306,0.6381552,-52.03111,-9.971098,-13.53094
19.928287506,51.83979,262.5197,61.2864399999998,1.1261,-0.1323438,0.7040266,-52.03111,-9.971098,-13.53094
19.938285351,9.38186599999998,240.7968,61.5912900000001,0.9703848,0.0631368,0.6831905,-52.03111,-9.971098,-13.53094
19.948283195,-29.69173,217.8867,65.5544,0.9067383,0.0787908,0.6727688,-52.03111,-9.971098,-13.53094
19.95828104,-50.1823,196.1638,62.1400299999999,0.8266611,-0.04235047,0.6710252,-52.03111,-9.971098,-13.53094
19.968279362,-47.65944,176.2807,57.26237,0.6857383,-0.3000463,0.534943,-46.10963,-7.043001,-24.85486
19.978277206,-24.89214,160.1369,51.28724,0.5446578,-0.4439112,0.4653539,-46.10963,-7.043001,-24.85486
19.988275051,-3.478579,147.2574,43.17812,0.4607694,-0.3891082,0.4224142,-46.10963,-7.043001,-24.85486
19.998273373,13.56613,134.1999,36.22746,0.4117879,-0.3241151,0.4086042,-46.10963,-7.043001,-24.85486
20.008271217,28.21103,119.5399,30.80106,0.3803134,-0.2845538,0.3392553,-46.10963,-7.043001,-24.85486
20.018269062,45.25574,105.8888,25.19175,0.3885743,-0.3114298,0.252147,-39.36722,-5.525979,-31.32745
20.028266907,61.00825,94.4931600000003,18.66788,0.4099359,-0.2573192,0.1716951,-39.36722,-5.525979,-31.32745
20.038265228,71.6535000000002,82.4446299999998,14.21701,0.3365855,-0.1147552,0.1378073,-39.36722,-5.525979,-31.32745
20.048263073,66.0539700000001,68.4374800000001,13.66828,0.201197,-0.01554023,0.1207891,-39.36722,-5.525979,-31.32745
20.058260918,49.2554,55.55801,15.37546,0.09549193,-0.01848305,0.0807737,-39.36722,-5.525979,-31.32745
20.068259239,35.04122,48.02026,15.00963,0.04338039,-0.0984764,0.05456346,-34.49299,-5.129219,-33.67985
20.078257084,30.11857,47.18933,11.77818,0.03066296,-0.1742197,0.03594066,-34.49299,-5.129219,-33.67985
20.088254929,34.30282,48.79184,8.05896700000001,0.002894597,-0.1756402,-0.006125259,-34.49299,-5.129219,-33.67985
20.09825325,38.36402,49.68213,5.13237,-0.04674936,-0.1535503,-0.03380182,-34.49299,-5.129219,-33.67985
20.108251095,38.42555,48.19832,3.973926,-0.0938068,-0.08774026,-0.06867278,-34.49299,-5.129219,-33.67985
20.11824894,32.08763,45.46811,2.815481,-0.128268,-0.04406979,-0.1073886,-30.72251,-5.87597,-35.32499
20.128246784,24.70364,41.72891,1.474125,-0.1411325,-0.08565968,-0.1107055,-30.72251,-5.87597,-35.32499
20.138245106,19.65792,37.6336,0.0717969800000001,-0.2025876,-0.08319249,-0.1330921,-30.72251,-5.87597,-35.32499
20.14824295,18.61185,31.57966,-1.452472,-0.2877115,0.01219998,-0.1454112,-30.72251,-5.87597,-35.32499
20.158240795,11.96626,22.97356,-2.001209,-0.2647867,-0.0935894,-0.1789243,-30.72251,-5.87597,-35.32499
20.168239117,3.659276,13.41783,-1.025677,-0.278555,-0.08710648,-0.1841663,-28.82013,-7.012782,-36.46601
20.178236961,-7.78590499999999,2.378292,-0.2940276,-0.2595285,-0.08735594,-0.1463919,-28.82013,-7.012782,-36.46601
20.188234329,-15.10836,-10.0857,-0.1720861,-0.2339253,-0.127078,-0.1349405,-28.82013,-7.012782,-36.46601
20.198232174,-17.75429,-22.25294,-2.184121,-0.2366334,-0.1638042,-0.1066903,-28.82013,-7.012782,-36.46601
20.208230019,-14.06229,-33.82665,-5.598484,-0.232045,-0.1999311,-0.08180303,-28.82013,-7.012782,-36.46601
20.21822834,-7.97050500000002,-45.69712,-9.80546599999998,-0.1806982,-0.2088451,-0.05173996,-27.30543,-7.762243,-36.45083
20.228226185,-1.017249,-56.55861,-13.70759,-0.08789951,-0.1936588,-0.02654111,-27.30543,-7.762243,-36.45083
20.23822403,4.766874,-65.2834099999999,-16.14643,-0.002715406,-0.1620307,0.006323995,-27.30543,-7.762243,-36.45083
20.248221874,7.843536,-72.7618100000003,-17.91458,0.03981699,-0.1430701,0.0215594,-27.30543,-7.762243,-36.45083
20.258220196,9.50493299999999,-80.1808500000003,-19.01205,0.05125033,-0.1021076,0.06555793,-28.0583,-7.761331,-35.68238
20.268218041,5.136074,-87.1250799999999,-19.86564,0.07331633,-0.08225494,0.1162434,-28.0583,-7.761331,-35.68238
20.278215885,0.2134152,-94.0693100000002,-20.96312,0.1123561,-0.08465712,0.1410619,-28.0583,-7.761331,-35.68238
20.288214207,-2.001781,-100.6574,-21.75574,0.1447811,-0.1241698,0.1606372,-28.0583,-7.761331,-35.68238
20.298212051,-6.80137299999998,-106.474,-22.36544,0.201576,-0.1627492,0.2294631,-28.0583,-7.761331,-35.68238
20.308209896,-9.38576900000002,-114.3085,-22.60933,0.3019225,-0.1855663,0.2805017,-31.44787,-7.388853,-33.64543
20.318207741,-6.24757399999999,-121.7275,-22.42641,0.2908934,-0.2470435,0.2771867,-31.44787,-7.388853,-33.64543
20.328206062,-0.894183000000003,-128.553,-23.58486,0.341058,-0.270388,0.32592,-31.44787,-7.388853,-33.64543
20.338203907,4.028476,-134.9037,-25.41398,0.4154832,-0.2620915,0.381303,-31.44787,-7.388853,-33.64543
20.348201752,9.19726699999998,-141.4325,-27.06019,0.5048247,-0.2181845,0.419422,-31.44787,-7.388853,-33.64543
20.358200073,7.16667,-148.08,-27.60893,0.5927337,-0.2005939,0.5054078,-35.94067,-8.526078,-29.22219
20.368197918,3.597743,-155.0835,-26.45049,0.6684304,-0.129949,0.5741726,-35.94067,-8.526078,-29.22219
20.378195763,1.197947,-162.5619,-25.35301,0.7016567,-0.1337879,0.6138375,-35.94067,-8.526078,-29.22219
20.388193607,-1.694115,-169.3281,-25.84078,0.7431026,-0.1852656,0.6870007,-35.94067,-8.526078,-29.22219
20.398191929,-4.032378,-175.382,-29.37708,0.845591,-0.2438289,0.7567092,-35.94067,-8.526078,-29.22219
20.408189774,-0.1557842,-183.0385,-32.97436,0.9472997,-0.338941,0.816857,-41.21019,-8.520779,-23.9721
20.418187618,7.28973700000001,-192.2381,-35.90095,1.035791,-0.4566062,0.8837336,-41.21019,-8.520779,-23.9721
20.42818594,18.48878,-202.5061,-36.51066,1.186995,-0.487646,0.9882863,-41.21019,-8.520779,-23.9721
20.438183785,29.56477,-215.9791,-35.71804,1.350947,-0.4707021,1.104769,-41.21019,-8.520779,-23.9721
20.448181629,41.80988,-231.8261,-34.07183,1.460869,-0.4318249,1.185925,-41.21019,-8.520779,-23.9721
20.458179474,57.62392,-246.6049,-31.57203,1.56115,-0.3751385,1.163242,-46.80948,-11.1005,-16.71141
20.468176842,69.7459599999998,-257.0509,-28.76737,1.640863,-0.2368624,1.073574,-46.80948,-11.1005,-16.71141
20.478175163,77.9298899999998,-265.1822,-23.15806,1.673314,-0.1519763,0.9337515,-46.80948,-11.1005,-16.71141
20.488173008,65.7463099999998,-268.7433,-21.02409,1.553826,0.05856045,0.8338831,-46.80948,-11.1005,-16.71141
20.498170853,48.08627,-270.9987,-16.2074,1.554472,0.02016344,0.6726118,-46.80948,-11.1005,-16.71141
20.508168697,34.05669,-271.0581,-12.42721,1.459081,0.01083427,0.5497864,-50.56725,-12.93452,-5.377024
20.518167019,19.35025,-265.3602,-11.75653,1.373393,0.004315104,0.4475223,-50.56725,-12.93452,-5.377024
20.528164864,6.92053700000001,-257.6444,-13.21983,1.37107,-0.133569,0.3599824,-50.56725,-12.93452,-5.377024
20.538162708,3.843876,-250.1067,-13.40274,1.306321,-0.163975,0.3103312,-50.56725,-12.93452,-5.377024
20.54816103,4.951474,-243.2218,-16.08545,1.282759,-0.2074841,0.2797546,-50.56725,-12.93452,-5.377024
20.558158875,9.50493299999999,-236.4556,-18.40234,1.277137,-0.2198928,0.263496,-52.82595,-12.08016,7.631763
20.568156719,19.04258,-227.9089,-20.53632,1.230636,-0.1837275,0.227196,-52.82595,-12.08016,7.631763
20.578154564,21.38085,-220.3118,-19.37788,1.174003,-0.126779,0.2004798,-52.82595,-12.08016,7.631763
20.588152886,19.84252,-214.0798,-15.47575,1.162082,-0.03724694,0.1861202,-52.82595,-12.08016,7.631763
20.59815073,5.44374,-206.4827,-14.43924,1.21663,0.04050769,0.1218759,-52.82595,-12.08016,7.631763
20.608148575,-17.50816,-200.9629,-12.73206,1.322828,0.04287781,0.1513619,-52.06911,-14.64495,18.55207
20.618146896,-37.81413,-197.7579,-11.45168,1.419154,0.02538275,0.1555057,-52.06911,-14.64495,18.55207
20.628144741,-51.1053,-196.2147,-10.96391,1.462304,-0.01519258,0.1420407,-52.06911,-14.64495,18.55207
20.638142586,-57.3816899999997,-194.5529,-10.59809,1.462995,-0.07938998,0.08175549,-52.06911,-14.64495,18.55207
20.648140907,-57.13556,-191.7633,-9.92740700000002,1.448711,-0.1243183,0.03537007,-52.06911,-14.64495,18.55207
20.658138752,-55.04343,-187.9648,-9.74449500000001,1.437909,-0.1466798,0.004765797,-50.28276,-15.31362,27.85761
20.668136597,-54.18196,-184.4036,-10.53712,1.423803,-0.1486488,-0.02057364,-50.28276,-15.31362,27.85761
20.678134441,-52.82823,-180.9612,-12.67109,1.390397,-0.1606478,-0.03821962,-50.28276,-15.31362,27.85761
20.688132763,-51.72063,-177.8155,-15.41478,1.345943,-0.1811129,-0.05440845,-50.28276,-15.31362,27.85761
20.698130608,-49.38237,-175.2633,-18.58526,1.319635,-0.2081981,-0.08977024,-50.28276,-15.31362,27.85761
20.708128452,-42.24451,-171.7616,-20.7802,1.336429,-0.2470662,-0.1252041,-46.17168,-15.99163,34.01978
20.718126774,-31.41467,-166.4792,-21.93865,1.342245,-0.2455637,-0.1328719,-46.17168,-15.99163,34.01978
20.728124618,-21.01555,-160.6033,-21.99962,1.323849,-0.2003056,-0.139073,-46.17168,-15.99163,34.01978
20.738122463,-14.67763,-155.6771,-20.84118,1.295152,-0.1249473,-0.1261208,-46.17168,-15.99163,34.01978
20.748120308,-13.8777,-151.2256,-19.25594,1.27226,-0.04762259,-0.1232293,-46.17168,-15.99163,34.01978
20.758118629,-19.23109,-146.7149,-17.54875,1.239799,-0.005391416,-0.1112192,-42.77414,-18.57051,40.96054
20.768116474,-27.04581,-142.3228,-16.26837,1.203802,-0.008427045,-0.09966984,-42.77414,-18.57051,40.96054
20.778113842,-32.7684,-137.9901,-15.53672,1.170384,-0.04568204,-0.1158736,-42.77414,-18.57051,40.96054
20.788111687,-36.21426,-132.3516,-14.7441,1.160139,-0.09688199,-0.1129711,-42.77414,-18.57051,40.96054
20.798109531,-39.04479,-125.348,-15.10992,1.135282,-0.1739852,-0.094722,-37.49834,-20.77895,45.07516
20.808107853,-35.35279,-118.4038,-15.71963,1.097805,-0.2545604,-0.1099504,-37.49834,-20.77895,45.07516
20.818105698,-22.55388,-112.1718,-16.14643,1.082666,-0.3050343,-0.1233111,-37.49834,-20.77895,45.07516
20.828103542,-6.55523999999999,-104.5153,-16.26837,1.054771,-0.2988744,-0.1333142,-37.49834,-20.77895,45.07516
20.838101864,7.65893599999998,-96.62146,-16.51225,1.025515,-0.2459725,-0.1304053,-37.49834,-20.77895,45.07516
20.848099709,14.11993,-89.20242,-16.08545,0.9998711,-0.1772693,-0.1078852,-34.47181,-22.63753,47.55856
20.858097553,13.38153,-82.7330099999998,-15.47575,0.9781207,-0.1085768,-0.09494345,-34.47181,-22.63753,47.55856
20.868095398,9.62799900000003,-76.3822999999997,-14.50021,0.9623547,-0.07340582,-0.09396786,-34.47181,-22.63753,47.55856
20.878093719,3.043944,-70.2096599999999,-13.34177,0.9513689,-0.05968409,-0.1107024,-34.47181,-22.63753,47.55856
20.888091564,-6.001441,-63.3247799999997,-11.87847,0.9513658,-0.05978065,-0.121231,-34.47181,-22.63753,47.55856
20.898089409,-14.86223,-55.66832,-9.68352500000001,0.9533285,-0.06083658,-0.1346343,-32.57906,-24.12092,50.41858
20.90808773,-21.93855,-47.95251,-7.00081100000001,0.9732094,-0.03068825,-0.1753557,-32.57906,-24.12092,50.41858
20.918085575,-32.2146,-41.00829,-3.586449,0.9990372,-0.004961649,-0.1811503,-32.57906,-24.12092,50.41858
20.92808342,-51.59757,-33.05507,0.1937385,1.036793,-0.01725278,-0.17212,-32.57906,-24.12092,50.41858
20.938081264,-68.82687,-26.2889,2.75451,1.103913,-0.08831883,-0.170783,-32.57906,-24.12092,50.41858
20.948079586,-74.1802600000001,-21.54071,4.461692,1.181742,-0.2121989,-0.2287945,-30.69748,-24.48721,50.43451
20.958077431,-61.4428799999998,-16.49576,4.766546,1.25427,-0.2885404,-0.337538,-30.69748,-24.48721,50.43451
20.968075275,-47.41331,-9.61088600000001,5.193341,1.28345,-0.2871027,-0.4026756,-30.69748,-24.48721,50.43451
20.978073597,-43.10598,-2.19184,4.888487,1.272281,-0.2116261,-0.41464,-30.69748,-24.48721,50.43451
20.988071442,-44.02898,3.862102,3.912955,1.246266,-0.1236768,-0.4122244,-30.69748,-24.48721,50.43451
20.998069286,-42.24451,6.88907200000001,2.449656,1.205208,-0.066018,-0.4480608,-30.27976,-26.39326,49.60892
21.008067131,-40.95232,10.98439,0.5595631,1.150667,-0.0433161,-0.5044436,-30.27976,-26.39326,49.60892
21.018065453,-47.35178,17.92861,-0.903735200000002,1.095708,-0.02461526,-0.5723104,-30.27976,-26.39326,49.60892
21.028063297,-57.4432299999999,23.74514,-1.208589,1.047007,0.00116785,-0.5171959,-30.27976,-26.39326,49.60892
21.038061142,-67.7808100000001,31.16419,-0.4159691,0.9688508,0.01204859,-0.4869121,-30.27976,-26.39326,49.60892
21.048059464,-74.4264000000001,36.56526,1.291212,0.8609461,-0.02771477,-0.4570421,-29.4873,-28.29649,48.78613
21.058057308,-68.0884699999998,37.69295,3.425189,0.7663509,-0.07693934,-0.4807933,-29.4873,-28.29649,48.78613
21.068055153,-53.93583,37.81166,6.59566799999998,0.7138573,-0.05879321,-0.5084639,-29.4873,-28.29649,48.78613
21.078052998,-51.1053,40.00769,9.58323599999998,0.6858285,0.006833193,-0.4983819,-29.4873,-28.29649,48.78613
21.088051319,-53.75123,42.5005,11.5343,0.6760737,0.08626126,-0.4533991,-29.4873,-28.29649,48.78613
21.098048687,-53.01283,41.25409,13.36342,0.6410094,0.1370871,-0.4523939,-30.56516,-30.22033,47.17542
21.108046532,-50.05924,37.93036,13.91216,0.6544226,0.1488041,-0.4753919,-30.56516,-30.22033,47.17542
21.118044376,-46.24417,35.67497,13.91216,0.7006805,0.1499452,-0.503709,-30.56516,-30.22033,47.17542
21.128042221,-41.50612,35.31886,12.87566,0.7568161,0.1703691,-0.5172122,-30.56516,-30.22033,47.17542
21.138040543,-36.02966,34.78469,11.29042,0.788951,0.1721031,-0.5033899,-30.56516,-30.22033,47.17542
21.148038387,-27.53807,33.12282,9.82711900000002,0.8144377,0.1644071,-0.4967323,-31.25086,-32.90533,45.18454
21.158036232,-19.16955,30.86743,8.79061600000001,0.8337337,0.148682,-0.5044191,-31.25086,-32.90533,45.18454
21.168034554,-12.09323,28.67139,8.48576300000002,0.8665214,0.1409504,-0.5173958,-31.25086,-32.90533,45.18454
21.178032398,-8.52430299999999,27.00952,8.42479100000002,0.8988042,0.1342026,-0.5279791,-31.25086,-32.90533,45.18454
21.188030243,-9.07810300000001,25.58507,7.81508400000003,0.9240103,0.1152234,-0.5323253,-31.25086,-32.90533,45.18454
21.198028564,-10.06263,24.87284,7.26634699999998,0.9410896,0.08778322,-0.5409623,-32.34745,-34.0018,43.95644
21.208026409,-10.49337,24.16061,7.022464,0.9392653,0.05441803,-0.572058,-32.34745,-34.0018,43.95644
21.218024254,-11.4779,23.50773,6.35178600000003,0.9433824,0.01645995,-0.5868914,-32.34745,-34.0018,43.95644
21.228022099,-12.9547,23.50773,4.888487,0.9474185,-0.01709116,-0.5978969,-32.34745,-34.0018,43.95644
21.23802042,-12.27783,23.21097,3.059364,0.9326141,-0.03280658,-0.5839884,-32.34745,-34.0018,43.95644
21.248018265,-10.24723,21.90522,0.5595631,0.9128866,-0.04562027,-0.5609791,-33.09157,-34.01778,42.72537
21.25801611,-7.84743800000001,20.184,-2.184121,0.8959002,-0.04863466,-0.5351056,-33.09157,-34.01778,42.72537
21.268014431,-5.87837500000002,18.52213,-4.440039,0.8889352,-0.04020859,-0.5020738,-33.09157,-34.01778,42.72537
21.278012276,-5.386109,16.20739,-5.720425,0.8665435,-0.01453201,-0.4623196,-33.09157,-34.01778,42.72537
21.28801012,-6.06297400000002,13.35848,-6.45207400000002,0.8683123,-0.004690506,-0.4527537,-33.09157,-34.01778,42.72537
21.298007965,-8.70890300000002,10.68762,-7.00081100000001,0.8772311,-0.01213584,-0.4360171,-34.20625,-34.40984,42.33205
21.308006287,-10.12417,8.49158700000002,-7.30566500000003,0.8930252,-0.02232589,-0.4154633,-34.20625,-34.40984,42.33205
21.318004131,-10.61643,6.948425,-7.366636,0.9075041,-0.040317,-0.3949051,-34.20625,-34.40984,42.33205
21.328001976,-9.63190200000001,5.227206,-6.93983999999998,0.9187168,-0.06622226,-0.382475,-34.20625,-34.40984,42.33205
21.338000298,-7.04750599999997,3.505987,-6.20819099999998,0.9327484,-0.08683175,-0.381537,-34.20625,-34.40984,42.33205
21.347998142,-2.986313,2.437645,-5.598484,0.940784,-0.09993378,-0.3968621,-34.56526,-35.17336,42.33333
21.357995987,0.2749484,1.013188,-4.744893,0.9453517,-0.08387765,-0.4045314,-34.56526,-35.17336,42.33333
21.367993832,1.382547,-0.2925643,-3.952273,0.9447781,-0.05323957,-0.4007097,-34.56526,-35.17336,42.33333
21.377992153,-0.2788507,-1.538964,-3.586449,0.9533091,-0.04042777,-0.3997707,-34.56526,-35.17336,42.33333
21.387989998,-3.293979,-2.310545,-3.037712,0.9543914,-0.04628155,-0.4045568,-34.56329,-35.17718,41.88183
21.397987843,-5.693775,-2.785364,-3.037712,0.9506865,-0.05654636,-0.403112,-34.56329,-35.17718,41.88183
21.407986164,-6.001441,-2.607306,-2.488975,0.9452841,-0.08059583,-0.4174537,-34.56329,-35.17718,41.88183
21.417984009,-3.970845,-2.013783,-2.306063,0.9381133,-0.08805733,-0.4207893,-34.56329,-35.17718,41.88183
21.427981854,-1.324916,-0.9454404,-1.879267,0.9355277,-0.08046494,-0.435144,-34.56329,-35.17718,41.88183
21.437979698,-0.0942510000000003,0.5383689,-1.513443,0.9380689,-0.05994816,-0.4289322,-33.81211,-35.17482,41.50039
21.44797802,-0.6480501,2.022178,-0.903735200000002,0.9447085,-0.05001919,-0.420332,-33.81211,-35.17482,41.50039
21.457975388,-1.386449,3.149873,0.01082622,0.9407413,-0.0461267,-0.4112332,-33.81211,-35.17482,41.50039
21.467973232,-0.894183000000003,4.57433,1.1083,0.9433587,-0.05581136,-0.4131495,-33.81211,-35.17482,41.50039
21.477971077,0.705681,6.41425300000001,2.266744,0.9556603,-0.06249433,-0.4265694,-33.81211,-35.17482,41.50039
21.487968922,2.736278,8.66964300000001,3.181306,0.9708984,-0.06945169,-0.4232441,-34.1773,-35.56126,41.11263
21.497967243,5.074541,10.74698,4.33975,0.9723033,-0.06656091,-0.4289902,-34.1773,-35.56126,41.11263
21.507965088,8.028135,12.40884,5.193341,0.9736379,-0.05970066,-0.4256443,-34.1773,-35.56126,41.11263
21.517962933,10.85866,14.18941,6.22984400000002,0.9729124,-0.04712,-0.4299534,-34.1773,-35.56126,41.11263
21.527961254,13.01233,15.55452,7.205376,0.9670888,-0.02245203,-0.4299496,-34.1773,-35.56126,41.11263
21.537959099,12.15086,16.80092,8.54673300000003,0.9715871,-0.002400076,-0.4256555,-34.1773,-35.56126,41.11263
21.547956944,10.42793,17.63185,10.01003,0.9694766,0.006375359,-0.4179968,-34.1773,-35.56126,41.11263
21.557954788,9.56646600000001,17.51315,11.5343,0.963209,0.002876255,-0.4151135,-34.1773,-35.56126,41.11263
21.56795311,9.812599,17.15703,12.69274,0.9607997,0.001335738,-0.4189375,-34.1773,-35.56126,41.11263
21.577950955,10.7356,16.62286,13.91216,0.9496889,-0.003699329,-0.4141311,-34.1773,-35.56126,41.11263
21.587948799,10.98173,16.08869,14.94866,0.9450215,0.0112551,-0.4160411,-34.93634,-35.18326,41.49205
21.597947121,9.62799900000003,15.61387,15.80225,0.9449145,0.01716324,-0.4074281,-34.93634,-35.18326,41.49205
21.607944966,8.08966899999999,14.30812,16.10711,0.9357166,0.01414044,-0.3992755,-34.93634,-35.18326,41.49205
21.61794281,7.41280299999999,13.00237,16.04613,0.9259192,-0.008795884,-0.3887238,-34.93634,-35.18326,41.49205
21.627940655,8.76653499999999,11.51856,15.4974,0.9117324,-0.03199,-0.3968289,-34.93634,-35.18326,41.49205
21.637938976,11.22786,10.62827,14.76575,0.9094955,-0.0427907,-0.4040009,-35.32681,-34.42536,41.48521
21.647936821,13.87379,10.27216,13.97313,0.8963603,-0.04407035,-0.409242,-35.32681,-34.42536,41.48521
21.657934666,15.41212,9.50057699999998,12.63177,0.8908556,-0.03642159,-0.4111487,-35.32681,-34.42536,41.48521
21.667932987,16.82739,9.26316700000002,11.22945,0.8756374,-0.03037869,-0.4082523,-35.32681,-34.42536,41.48521
21.677930832,18.11959,9.14446299999999,9.70517700000002,0.87546,-0.02127651,-0.422133,-35.32681,-34.42536,41.48521
21.687928677,18.55032,8.78834800000002,7.937025,0.8781993,-0.01153427,-0.4254903,-34.96412,-33.66892,40.64543
21.697926521,19.47332,8.43223400000003,6.83955100000002,0.8871615,0.004166614,-0.4283814,-34.96412,-33.66892,40.64543
21.707924843,18.05805,8.254177,5.437224,0.8963844,0.03207382,-0.4255332,-34.96412,-33.66892,40.64543
21.717922687,16.27359,6.88907200000001,4.522663,0.8927679,0.04327552,-0.4150011,-34.96412,-33.66892,40.64543
21.727920532,15.96592,5.108501,3.364218,0.8933281,0.03940344,-0.4145225,-34.96412,-33.66892,40.64543
21.737918854,16.95045,3.32793,2.022861,0.9053864,0.0459326,-0.4174167,-35.73418,-32.60014,40.24712
21.747916698,19.10412,2.140883,1.169271,0.9167312,0.06464884,-0.4145698,-35.73418,-32.60014,40.24712
21.757914543,19.28872,1.131893,0.681504599999997,0.9241921,0.08292522,-0.398316,-35.73418,-32.60014,40.24712
21.767912388,17.62732,-0.4706214,0.4376215,0.9296388,0.1045064,-0.3882809,-35.73418,-32.60014,40.24712
21.777910709,15.71979,-2.013783,0.3766508,0.9449922,0.1175407,-0.3777824,-35.73418,-32.60014,40.24712
21.787908554,15.10446,-3.735002,0.31568,0.9601727,0.1134057,-0.3845078,-35.77519,-30.69509,40.62399
21.797906399,14.98139,-4.922049,0.2547093,0.9757297,0.1150744,-0.3950641,-35.77519,-30.69509,40.62399
21.80790472,14.18146,-5.515573,0.2547093,0.9840707,0.1117236,-0.4075207,-35.77519,-30.69509,40.62399
21.817902565,12.45853,-5.87168699999998,0.3766508,0.9941819,0.1182581,-0.4056257,-35.77519,-30.69509,40.62399
21.82790041,10.12027,-5.931039,0.5595631,0.990631,0.1261122,-0.3893499,-35.77519,-30.69509,40.62399
21.837898254,7.47433699999998,-7.236791,0.986358399999998,0.9785361,0.1215217,-0.3869348,-35.771,-31.06836,41.46452
21.847896576,5.566806,-8.30513400000001,1.413154,0.9683342,0.1198623,-0.3869166,-35.771,-31.06836,41.46452
21.857894421,3.782343,-9.31412399999998,1.96189,0.9670283,0.1115843,-0.3859551,-35.771,-31.06836,41.46452
21.867891788,0.951813900000003,-10.44182,2.449656,0.96725,0.1000138,-0.3763809,-35.771,-31.06836,41.46452
21.877889633,-1.755648,-11.39146,2.205774,0.9693996,0.08937868,-0.3749462,-35.771,-31.06836,41.46452
21.887887955,-3.232446,-12.63786,2.083832,0.9614877,0.0699119,-0.3610487,-35.41198,-30.30484,41.46324
21.897885799,-2.92478,-13.76555,1.596066,0.9593267,0.05531729,-0.3581697,-35.41198,-30.30484,41.46324
21.907883644,-2.063314,-14.65584,1.1083,0.9507976,0.04256254,-0.3528872,-35.41198,-30.30484,41.46324
21.917881489,-1.078783,-14.71519,0.31568,0.9317991,0.04214771,-0.3571612,-35.41198,-30.30484,41.46324
21.92787981,-0.832649800000001,-14.41843,-0.1720861,0.9268517,0.04583222,-0.3686393,-35.42153,-29.92121,41.84821
21.937877655,-2.186381,-13.05332,-0.4769399,0.9327111,0.0448489,-0.382528,-35.42153,-29.92121,41.84821
21.9478755,-4.216978,-11.27275,-1.391501,0.9363021,0.03516154,-0.3868389,-35.42153,-29.92121,41.84821
21.957873821,-5.570708,-9.551534,-2.001209,0.9413759,0.02463248,-0.380145,-35.42153,-29.92121,41.84821
21.967871666,-5.693775,-8.245782,-2.8548,0.9410693,0.01484618,-0.386842,-35.42153,-29.92121,41.84821
21.977869511,-5.324575,-7.11808599999999,-3.342566,0.9358732,0.005930776,-0.3940093,-35.04877,-29.91459,42.3025
21.987867355,-5.447642,-5.69363,-3.70839,0.9408244,0.001593712,-0.4007169,-35.04877,-29.91459,42.3025
21.997865677,-6.370641,-4.20982,-4.196156,0.9385711,-0.008178411,-0.4016676,-35.04877,-29.91459,42.3025
22.007863522,-6.80137299999998,-2.607306,-4.927805,0.9474215,-0.01236826,-0.4007248,-35.04877,-29.91459,42.3025
22.017861366,-6.30910700000001,-1.123497,-5.84236700000003,0.9552599,-0.0146738,-0.4040879,-35.04877,-29.91459,42.3025
22.027859688,-5.263042,0.2416071,-7.06178199999999,0.9631703,-0.02089178,-0.4103216,-34.28526,-30.6664,42.69912
22.037857533,-3.786245,1.844121,-8.34216799999998,0.9746342,-0.03488919,-0.4246953,-34.28526,-30.6664,42.69912
22.047855377,-2.001781,3.743397,-9.43964200000003,0.9827866,-0.02794687,-0.4271041,-34.28526,-30.6664,42.69912
22.057853222,-1.817181,5.702025,-10.17129,0.9807181,-0.02171436,-0.4318879,-34.28526,-30.6664,42.69912
22.067851543,-2.494047,6.948425,-10.90294,0.9741775,-0.01061868,-0.426615,-34.28526,-30.6664,42.69912
22.077849388,-3.540112,7.779358,-11.20779,0.9687856,-0.008689323,-0.416556,-34.66616,-30.29213,42.3073
22.087847233,-4.278511,7.72000599999998,-11.63459,0.9669124,-0.01254807,-0.4093731,-34.66616,-30.29213,42.3073
22.097845554,-4.524643,7.36389100000001,-11.87847,0.9681853,-0.02863356,-0.417507,-34.66616,-30.29213,42.3073
22.107843399,-3.170913,7.24518699999998,-11.69556,0.967496,-0.04364557,-0.4103233,-34.66616,-30.29213,42.3073
22.117841244,-1.755648,7.06713000000001,-10.84197,0.9526691,-0.03210923,-0.3921145,-34.66616,-30.29213,42.3073
22.127839088,-1.755648,6.65166300000002,-9.07381699999998,0.935634,-0.007146124,-0.3887412,-34.6406,-31.43701,41.86189
22.13783741,-3.232446,5.93943499999998,-6.87886999999998,0.918711,0.01207124,-0.3762737,-34.6406,-31.43701,41.86189
22.147835255,-6.30910700000001,5.58332,-4.927805,0.9062624,0.02649127,-0.3666841,-34.6406,-31.43701,41.86189
22.157833099,-9.81650199999998,5.405263,-2.732858,0.8969547,0.02928443,-0.3599686,-34.6406,-31.43701,41.86189
22.167831421,-12.2163,4.811739,-0.7817937,0.8936931,0.02151511,-0.3523037,-34.6406,-31.43701,41.86189
22.177829266,-14.00076,3.980806,1.230241,0.8952559,0.01623572,-0.3484764,-35.37436,-32.20335,41.86038
22.18782711,-15.60063,3.031168,3.181306,0.9118645,0.01417362,-0.3441977,-35.37436,-32.20335,41.86038
22.197824955,-16.83129,1.844121,4.705575,0.923232,0.005646881,-0.3446939,-35.37436,-32.20335,41.86038
22.207823277,-17.50816,0.4790165,5.98596099999998,0.9308609,-0.01111824,-0.3346528,-35.37436,-32.20335,41.86038
22.217821121,-17.07742,-1.420259,7.08343500000003,0.9342296,-0.03489352,-0.3380025,-35.37436,-32.20335,41.86038
22.227818966,-15.10836,-3.022773,7.87605399999997,0.9414668,-0.05716526,-0.3447095,-35.36481,-32.58697,41.47541
22.237817288,-12.4009,-4.150468,8.48576300000002,0.9514341,-0.06921338,-0.3552524,-35.36481,-32.58697,41.47541
22.247815132,-11.23177,-5.040754,8.54673300000003,0.9587569,-0.07010198,-0.3619651,-35.36481,-32.58697,41.47541
22.257812977,-11.90863,-5.218811,8.42479100000002,0.9540566,-0.07951109,-0.3710474,-35.36481,-32.58697,41.47541
22.267810822,-12.64703,-5.159458,7.754113,0.9541913,-0.08686334,-0.3782243,-35.36481,-32.58697,41.47541
22.277809143,-12.5855,-5.100106,6.90052199999999,0.9477321,-0.1065734,-0.394001,-34.97734,-33.27821,41.86891
22.287806988,-12.09323,-4.44723,6.04693200000002,0.9455678,-0.1212733,-0.4026078,-34.97734,-33.27821,41.86891
22.297804833,-11.23177,-3.735002,4.461692,0.9438939,-0.1358583,-0.3997297,-34.97734,-33.27821,41.86891
22.307803154,-9.63190200000001,-3.497592,2.510627,0.9395562,-0.1383518,-0.3973286,-34.97734,-33.27821,41.86891
22.317800999,-7.97050500000002,-3.20083,0.925387699999998,0.9366532,-0.1393372,-0.3925375,-34.97734,-33.27821,41.86891
22.327798367,-7.232106,-2.844716,-0.7817937,0.9452404,-0.1293961,-0.3868122,-35.72514,-33.28711,41.47635
22.337796211,-6.43217400000002,-3.319535,-2.488975,0.9477009,-0.1308798,-0.3949519,-35.72514,-33.28711,41.47635
22.347794056,-4.340044,-3.675649,-3.830332,0.9512177,-0.1367206,-0.4035708,-35.72514,-33.28711,41.47635
22.357792378,-2.617113,-3.497592,-4.744893,0.9491304,-0.1295341,-0.4102691,-35.72514,-33.28711,41.47635
22.367790222,-1.201849,-3.082125,-4.927805,0.9435496,-0.1180958,-0.4227054,-35.72514,-33.28711,41.47635
22.377788067,-1.201849,-2.607306,-5.110718,0.93374,-0.08858143,-0.4155172,-35.72514,-33.28711,41.47635
22.387785912,-2.186381,-1.895078,-4.50101,0.9251005,-0.06989251,-0.425557,-35.72514,-33.28711,41.47635
22.397784233,-4.586177,-1.123497,-4.561981,0.9281996,-0.07973872,-0.4461387,-35.72514,-33.28711,41.47635
22.407782078,-6.001441,0.3009594,-4.866835,0.9301112,-0.1041823,-0.4662359,-35.72514,-33.28711,41.47635
22.417779923,-5.01691,2.437645,-5.232659,0.9249322,-0.1141043,-0.4772315,-35.72514,-33.28711,41.47635
22.427778244,-2.55558,4.040159,-5.476542,0.9192072,-0.120482,-0.4714771,-34.9822,-32.96452,41.48022
22.437776089,0.8287475,4.752387,-5.537513,0.9108658,-0.0914991,-0.4724271,-34.9822,-32.96452,41.48022
22.447773934,4.520741,5.345911,-5.659454,0.914452,-0.0749194,-0.4738733,-34.9822,-32.96452,41.48022
22.457772255,6.55133799999999,5.642673,-5.659454,0.9179255,-0.05184044,-0.4552209,-34.9822,-32.96452,41.48022
22.4677701,7.28973700000001,5.642673,-5.415571,0.9219856,-0.03412596,-0.4399181,-34.9822,-32.96452,41.48022
22.477767944,10.12027,5.108501,-5.537513,0.9187034,-0.01458208,-0.4212529,-34.97198,-33.28856,40.6434
22.487765789,13.13539,3.862102,-4.927805,0.9177575,0.01038403,-0.3992432,-34.97198,-33.28856,40.6434
22.497764111,16.15052,2.734407,-4.013244,0.913937,0.03217153,-0.3997208,-34.97198,-33.28856,40.6434
22.507761955,17.19659,2.081531,-2.306063,0.9085101,0.06172868,-0.397326,-34.97198,-33.28856,40.6434
22.5177598,17.01199,1.844121,-0.3549984,0.9010224,0.09698869,-0.4045007,-34.60708,-32.90158,41.09566
22.527758122,14.79679,1.725416,2.083832,0.9019026,0.127423,-0.426046,-34.60708,-32.90158,41.09566
22.537755966,10.24333,2.140883,3.791013,0.9079802,0.141167,-0.4241458,-34.60708,-32.90158,41.09566
22.547753811,5.320673,2.912464,5.254312,0.9188917,0.1312875,-0.4121979,-34.60708,-32.90158,41.09566
22.557751656,3.16701,2.022178,6.65663900000001,0.9310193,0.1081756,-0.4150845,-34.60708,-32.90158,41.09566
22.567749977,4.643808,0.657073599999999,8.18090799999998,0.9538081,0.08817237,-0.4199049,-34.60708,-32.90158,41.09566
22.577747822,7.04360400000002,-0.886087999999999,9.76614900000002,0.9764793,0.07451482,-0.4213766,-34.60708,-32.90158,41.09566
22.587745667,9.074201,-2.547954,11.29042,0.9944115,0.07974607,-0.4194949,-34.60708,-32.90158,41.09566
22.597743988,8.95113399999999,-4.565935,12.9976,1.017999,0.09535085,-0.4114043,-34.60708,-32.90158,41.09566
22.607741833,8.58193500000002,-6.405858,13.97313,1.021361,0.09852152,-0.3908322,-34.60708,-32.90158,41.09566
22.617739677,8.64346799999999,-7.11808599999999,14.27798,1.005607,0.1069178,-0.395114,-34.98837,-32.58743,41.09119
22.627737522,8.82806800000001,-7.65225799999999,14.64381,1.000369,0.1261818,-0.4027671,-34.98837,-32.58743,41.09119
22.637735844,5.751406,-7.11808599999999,15.37546,0.9821905,0.134066,-0.4046517,-34.98837,-32.58743,41.09119
22.647733688,0.4595481,-6.58391499999997,16.5339,0.9637723,0.1288603,-0.402704,-34.98837,-32.58743,41.09119
22.657731533,-4.401577,-7.05873399999998,18.30205,0.9319155,0.1126939,-0.4012086,-34.98837,-32.58743,41.09119
22.667729855,-7.232106,-8.542543,20.07021,0.9187704,0.08623286,-0.3968717,-34.99793,-32.2038,41.47617
22.677727699,-7.35517199999998,-10.56052,21.22865,0.9188321,0.05712144,-0.3920785,-34.99793,-32.2038,41.47617
22.687725544,-6.30910700000001,-12.04433,22.02127,0.9336879,0.04494715,-0.3739154,-34.99793,-32.2038,41.47617
22.697723389,-7.60130500000002,-13.58749,21.83836,0.9431494,0.03462321,-0.3543076,-34.99793,-32.2038,41.47617
22.70772171,-7.60130500000002,-15.48677,21.47253,0.9367596,0.01168403,-0.3514191,-34.99793,-32.2038,41.47617
22.717719555,-7.04750599999997,-16.79252,20.497,0.933868,-0.01612879,-0.3576284,-35.37884,-31.82953,41.08435
22.7277174,-5.263042,-16.79252,18.78982,0.9325094,-0.04784273,-0.3686251,-35.37884,-31.82953,41.08435
22.737715721,-3.355512,-16.199,16.5339,0.9272478,-0.05341046,-0.381536,-35.37884,-31.82953,41.08435
22.747713566,-2.55558,-15.24936,13.54634,0.9121831,-0.05567818,-0.3843806,-35.37884,-31.82953,41.08435
22.75771141,-3.170913,-14.00296,9.64420700000001,0.9053311,-0.08016327,-0.3901053,-35.37884,-31.82953,41.08435
22.767709255,-2.863246,-12.69721,5.376253,0.9120455,-0.1004709,-0.3934618,-35.39993,-31.05846,42.3058
22.777707577,-2.370981,-11.56951,1.230241,0.9018135,-0.126406,-0.3910444,-35.39993,-31.05846,42.3058
22.787705421,-0.3403839,-11.03534,-2.732858,0.8920639,-0.1524763,-0.4044208,-35.39993,-31.05846,42.3058
22.797703266,3.905409,-10.20441,-6.33013299999999,0.8941929,-0.1622101,-0.4106435,-35.39993,-31.05846,42.3058
22.807701588,5.99753899999999,-9.19541899999997,-9.68352500000001,0.9003331,-0.151906,-0.4130498,-35.39993,-31.05846,42.3058
22.817699432,6.73593800000001,-7.77096299999999,-12.36624,0.9003446,-0.1266719,-0.4168849,-35.77467,-31.06128,42.30302
22.827697277,6.36673800000001,-5.396868,-14.3173,0.8996841,-0.1174564,-0.4173647,-35.77467,-31.06128,42.30302
22.837695122,5.25914,-3.022773,-15.84157,0.9037192,-0.09897672,-0.4245551,-35.77467,-31.06128,42.30302
22.847693443,3.474676,0.1229023,-16.8171,0.9157379,-0.09060108,-0.4379784,-35.77467,-31.06128,42.30302
22.857691288,1.813279,2.55635,-16.93905,0.9310954,-0.07820614,-0.4442298,-35.77467,-31.06128,42.30302
22.867689133,0.5210813,4.693035,-16.14643,0.9399101,-0.05478136,-0.452387,-35.02688,-31.05239,42.69559
22.877687454,-0.2173175,6.117492,-14.86604,0.945435,-0.03769496,-0.4557511,-35.02688,-31.05239,42.69559
22.887684345,-1.140316,7.18583399999999,-12.61012,0.9609937,-0.009561691,-0.4419067,-35.02688,-31.05239,42.69559
22.897683144,-3.109379,7.89806300000001,-9.62255399999997,0.9774708,0.02147467,-0.4314148,-35.02688,-31.05239,42.69559
22.907680511,-5.693775,7.66065299999999,-5.78139599999999,1.004758,0.04794414,-0.4123261,-35.02688,-31.05239,42.69559
22.917678356,-8.03203799999998,7.48259600000002,-2.184121,1.019025,0.06670495,-0.4109201,-34.63471,-31.81355,42.31541
22.927676678,-9.26270200000001,7.12648200000003,1.596066,1.023562,0.0848797,-0.3994468,-34.63471,-31.81355,42.31541
22.937674522,-10.67797,7.24518699999998,5.0714,1.019776,0.07903941,-0.3922601,-34.63471,-31.81355,42.31541
22.947672367,-11.72403,7.72000599999998,8.60770299999997,1.009911,0.08577488,-0.3783659,-34.63471,-31.81355,42.31541
22.957670212,-12.9547,7.72000599999998,11.83915,0.9927368,0.0923221,-0.3692448,-34.63471,-31.81355,42.31541
22.967668533,-14.00076,7.36389100000001,14.70478,0.9718194,0.09047733,-0.3663363,-34.258,-31.81455,41.8667
22.977666378,-16.09289,7.12648200000003,17.08264,0.9597549,0.0845261,-0.3533922,-34.258,-31.81455,41.8667
22.987664223,-18.18502,6.71101499999999,19.21662,0.9368715,0.08363192,-0.3485664,-34.258,-31.81455,41.8667
22.997662544,-19.72335,5.82073000000003,20.497,0.9132072,0.07257894,-0.3370364,-34.258,-31.81455,41.8667
23.007660389,-20.89248,5.167854,21.5335,0.9045962,0.06420483,-0.3307978,-34.258,-31.81455,41.8667
23.017658234,-22.67695,4.752387,22.02127,0.8970775,0.04951751,-0.3264737,-35.39008,-31.44263,41.85633
23.027656078,-24.46141,4.811739,21.9603,0.8916253,0.02854062,-0.3235874,-35.39008,-31.44263,41.85633
23.0376544,-25.87667,5.227206,21.28962,0.8902315,-0.001190763,-0.3302773,-35.39008,-31.44263,41.85633
23.047652245,-24.89214,4.989797,19.70438,0.8908342,-0.03323345,-0.3283558,-35.39008,-31.44263,41.85633
23.057650089,-21.56935,5.345911,17.63138,0.9008581,-0.0481347,-0.3321981,-35.88759,-43.55952,41.52832
23.067648411,-18.55422,6.117492,14.82672,0.9142715,-0.06205849,-0.3427465,-36.12215,-32.21224,41.46782
23.077646256,-16.21596,7.48259600000002,11.5343,0.919757,-0.06876645,-0.3441901,-36.12215,-32.21224,41.46782
23.0876441,-15.16989,8.254177,7.937025,0.925602,-0.06865975,-0.3451574,-36.12215,-32.21224,41.46782
23.097641945,-14.00076,9.02575799999998,4.461692,0.9326429,-0.08087973,-0.3681382,-36.12215,-32.21224,41.46782
23.107640266,-13.3239,9.916043,0.620533899999998,0.9290064,-0.09517546,-0.3824855,-36.86797,-32.22495,40.62376
23.117638111,-12.70856,11.2218,-2.671887,0.9337572,-0.1152289,-0.406896,-36.86797,-32.22495,40.62376
23.127635956,-11.8471,12.7056,-6.39110400000002,0.9321432,-0.1333415,-0.4178957,-36.86797,-32.22495,40.62376
23.137634277,-10.06263,14.18941,-9.56158399999997,0.941098,-0.1435185,-0.4341803,-36.86797,-32.22495,40.62376
23.147632122,-7.724371,15.96998,-13.15886,0.9364975,-0.1582842,-0.4446972,-36.86797,-32.22495,40.62376
23.157629967,-4.524643,17.75056,-16.32934,0.9356117,-0.1632488,-0.4542659,-36.48198,-32.60903,39.85456
23.167628288,-0.7711166,18.75954,-18.76817,0.9392885,-0.1515486,-0.4581039,-36.48198,-32.60903,39.85456
23.177626133,2.059412,19.47177,-20.59729,0.9360389,-0.1340707,-0.4528384,-36.48198,-32.60903,39.85456
23.187623978,4.336142,19.53113,-21.69477,0.9341866,-0.1131679,-0.4480548,-36.48198,-32.60903,39.85456
23.197621822,6.36673800000001,19.17501,-22.12156,0.9253867,-0.08561682,-0.4451751,-36.48198,-32.60903,39.85456
23.207620144,7.22820399999999,18.16602,-21.93865,0.9200971,-0.06332854,-0.4408644,-36.84848,-32.93208,39.46647
23.217617989,8.15120200000001,17.15703,-21.57282,0.9181921,-0.03944977,-0.4293814,-36.84848,-32.93208,39.46647
23.227615833,8.397335,16.02934,-20.71923,0.9118307,-0.01175396,-0.4159773,-36.84848,-32.93208,39.46647
23.237614155,7.65893599999998,14.42682,-19.25594,0.9090698,0.005781887,-0.4054484,-36.84848,-32.93208,39.46647
23.247612,6.67440499999999,12.5869,-17.06099,0.898551,0.02119876,-0.3972982,-36.84848,-32.93208,39.46647
23.257609844,6.05907200000001,10.0941,-14.62216,0.8991238,0.04259151,-0.3973047,-36.83276,-33.69279,39.47052
23.267607689,3.782343,8.19482400000001,-12.54915,0.9086384,0.05494557,-0.3954102,-36.83276,-33.69279,39.47052
23.277606011,0.3980148,6.59230999999998,-10.96391,0.9251008,0.03423497,-0.410748,-36.83276,-33.69279,39.47052
23.287603855,-0.832649800000001,5.227206,-9.80546599999998,0.9413137,0.0008981165,-0.4246464,-36.83276,-33.69279,39.47052
23.2976017,0.0903486900000002,4.396273,-9.31770000000002,0.9532982,-0.04077013,-0.4370995,-36.83276,-33.69279,39.47052
23.307600021,3.53621,4.099511,-9.19575899999999,0.9693265,-0.0644576,-0.4581787,-36.4639,-33.31343,39.01978
23.317597866,6.85900399999999,3.802749,-9.31770000000002,0.9742036,-0.06494367,-0.4687158,-36.4639,-33.31343,39.01978
23.327595711,9.50493299999999,2.912464,-9.74449500000001,0.9806113,-0.06863444,-0.4610688,-36.4639,-33.31343,39.01978
23.337593556,11.53553,1.547359,-10.41517,0.9789637,-0.05829553,-0.4428827,-36.4639,-33.31343,39.01978
23.347591877,13.44306,-0.708030899999999,-10.90294,0.964197,-0.05027363,-0.4371161,-36.4639,-33.31343,39.01978
23.357589722,15.28906,-2.607306,-11.39071,0.9571334,-0.03722258,-0.4294499,-36.07343,-34.07133,39.02661
23.367587566,16.82739,-3.319535,-11.51265,0.9577428,-0.01776849,-0.4289774,-36.07343,-34.07133,39.02661
23.377585888,15.16599,-3.260183,-11.32973,0.9543351,0.008641892,-0.4031352,-36.07343,-34.07133,39.02661
23.387583733,12.15086,-4.150468,-10.65906,0.9476348,0.02862612,-0.3820713,-36.07343,-34.07133,39.02661
23.397581577,9.935666,-5.218811,-9.68352500000001,0.9480239,0.03405373,-0.3739375,-36.07343,-34.07133,39.02661
23.407579422,9.56646600000001,-6.22780099999998,-8.58605100000002,0.9517345,0.0180822,-0.3748971,-36.44817,-34.07414,39.02383
23.417577744,10.79713,-6.70261999999998,-7.366636,0.9626306,0.008495301,-0.3840065,-36.44817,-34.07414,39.02383
23.427575588,11.59706,-6.52456300000001,-6.33013299999999,0.9718282,0.01150494,-0.3935949,-36.44817,-34.07414,39.02383
23.437573433,12.58159,-6.405858,-4.744893,0.9769498,0.02426254,-0.3912142,-36.44817,-34.07414,39.02383
23.447571755,11.78166,-6.88067700000001,-2.976741,0.9732419,0.04031747,-0.3811617,-36.44817,-34.07414,39.02383
23.457569599,10.7356,-7.41484800000003,-1.208589,0.973756,0.03885664,-0.382598,-36.44817,-34.07414,39.02383
23.467567444,8.88960099999997,-8.00837199999998,0.3766508,0.9656502,0.02951624,-0.3768385,-36.44817,-34.07414,39.02383
23.477565289,7.35127000000003,-8.12707699999999,2.083832,0.9668974,0.0149407,-0.3792299,-36.44817,-34.07414,39.02383
23.48756361,7.90506900000002,-8.48319099999998,3.425189,0.9741311,-0.007440759,-0.3979012,-36.44817,-34.07414,39.02383
23.497561455,8.95113399999999,-7.41484800000003,4.644604,0.9892646,-0.009190809,-0.4094129,-36.44817,-34.07414,39.02383
23.5075593,8.52040099999998,-5.931039,5.559165,1.004292,-0.005006379,-0.4094402,-35.34673,-33.29137,40.64063
23.517557621,6.428272,-4.387877,6.473727,1.01718,0.009358102,-0.4075521,-35.34673,-33.29137,40.64063
23.527555466,3.228544,-2.607306,6.90052199999999,1.01639,-0.0003105365,-0.4003696,-35.34673,-33.29137,40.64063
23.537553311,0.644147799999998,-0.648678499999998,7.14440499999997,1.007494,-0.0193503,-0.3907776,-35.34673,-33.29137,40.64063
23.547551155,0.644147799999998,0.775778400000001,7.26634699999998,0.9864477,-0.04006599,-0.3787712,-35.34673,-33.29137,40.64063
23.557549477,2.613211,1.428654,7.51023000000002,0.9796197,-0.0396974,-0.3768451,-34.95456,-34.05254,40.26046
23.567547321,3.16701,1.844121,7.63217200000002,0.9763329,-0.0459436,-0.3620019,-34.95456,-34.05254,40.26046
23.577545166,4.336142,1.547359,7.51023000000002,0.9656384,-0.04701274,-0.34954,-34.95456,-34.05254,40.26046
23.587543488,6.36673800000001,1.606712,7.57120099999999,0.9400304,-0.03231412,-0.3341847,-34.95456,-34.05254,40.26046
23.597541332,7.41280299999999,1.488007,7.937025,0.9210315,-0.006330201,-0.3212367,-34.95456,-34.05254,40.26046
