Time (s),Gyroscope X (deg/s),Gyroscope Y (deg/s),Gyroscope Z (deg/s),Accelerometer X (g),Accelerometer Y (g),Accelerometer Z (g),Magnetometer X (uT),Magnetometer Y (uT),Magnetometer Z (uT)
14.037355423,13.93533,9.20381500000001,-5.3546,1.043787,-0.03730755,0.4347074,-49.24054,-25.36777,7.727305
14.047353745,8.82806800000001,15.85128,-5.171688,1.048248,-0.04177275,0.4150791,-49.24054,-25.36777,7.727305
14.057352066,3.290077,22.38004,-4.440039,1.05003,-0.05945513,0.3906732,-49.24054,-25.36777,7.727305
14.067350388,-0.2173175,28.49333,-3.342566,1.056638,-0.07385896,0.3954512,-48.48489,-25.73923,8.121896
14.077348232,-3.601645,35.08145,-2.367033,1.057916,-0.08978204,0.4050246,-48.48489,-25.73923,8.121896
14.087346077,-6.862906,40.95733,-1.26956,1.071903,-0.1079364,0.4088335,-48.48489,-25.73923,8.121896
14.097344875,-7.724371,47.12998,-0.2330568,1.095258,-0.1052154,0.4432496,-48.48489,-25.73923,8.121896
14.10734272,-9.26270200000001,53.71809,1.169271,1.115178,-0.101779,0.4570926,-48.48489,-25.73923,8.121896
14.117340565,-10.80103,60.3655600000001,2.75451,1.127781,-0.123721,0.4747837,-49.22733,-25.75848,6.503827
14.127339363,-11.35483,67.4284800000002,4.217809,1.140769,-0.1403451,0.488644,-49.22733,-25.75848,6.503827
14.137337208,-10.49337,74.8475299999999,5.80304899999998,1.149916,-0.1599257,0.5063404,-49.22733,-25.75848,6.503827
14.147335529,-9.07810300000001,82.6226899999998,6.35178600000003,1.16296,-0.1794469,0.5221156,-49.22733,-25.75848,6.503827
14.157333374,-6.49370699999998,90.9913800000001,7.754113,1.166878,-0.1802536,0.5316805,-49.22733,-25.75848,6.503827
14.167332172,-3.417045,98.6478300000001,9.09546899999999,1.156341,-0.1638389,0.542702,-48.4907,-24.63248,4.052293
14.177330017,-2.186381,106.1856,9.58323599999998,1.138055,-0.1500728,0.5465589,-48.4907,-24.63248,4.052293
14.187327862,-2.617113,113.0705,9.76614900000002,1.123084,-0.1571366,0.5504154,-48.4907,-24.63248,4.052293
14.197326183,-4.278511,119.896,10.01003,1.125008,-0.1811896,0.5729113,-48.4907,-24.63248,4.052293
14.207324505,-3.355512,127.315,10.4978,1.141248,-0.1895586,0.5791067,-48.4907,-24.63248,4.052293
14.217322826,-1.263382,134.7934,10.4978,1.144588,-0.1855174,0.5886713,-49.22463,-24.30297,-1.308823
14.227320671,1.25948,141.619,10.37586,1.146418,-0.1791552,0.5896237,-49.22463,-24.30297,-1.308823
14.23731947,2.490145,147.2574,10.43683,1.149042,-0.1629839,0.5987079,-49.22463,-24.30297,-1.308823
14.247317314,1.751746,151.234,10.43683,1.155648,-0.1510373,0.6154435,-49.22463,-24.30297,-1.308823
14.257315159,1.07488,155.3293,10.86362,1.168236,-0.1462397,0.6345633,-49.22463,-24.30297,-1.308823
14.267313004,1.321013,159.306,11.5343,1.170021,-0.1374224,0.6383865,-48.4537,-24.33875,-6.205285
14.277311802,-0.4634504,162.0362,11.22945,1.145145,-0.1622811,0.630779,-48.4537,-24.33875,-6.205285
14.287309647,-1.201849,163.5793,12.50983,1.131285,-0.1766122,0.6346356,-48.4537,-24.33875,-6.205285
14.297307968,-1.447982,164.5883,14.39993,1.107219,-0.1662916,0.6461607,-48.4537,-24.33875,-6.205285
14.30730629,-3.540112,165.5973,16.5339,1.087424,-0.1758235,0.6562477,-48.4537,-24.33875,-6.205285
14.317304611,-5.01691,166.2502,18.91176,1.063287,-0.1879805,0.6543787,-47.31922,-23.25463,-13.94306
14.327302456,-2.74018,167.8527,20.98477,1.024967,-0.1975723,0.6448764,-47.31922,-23.25463,-13.94306
14.337300301,-1.140316,168.5649,21.9603,0.9820704,-0.1970848,0.6315508,-47.31922,-23.25463,-13.94306
14.347299099,0.890280700000001,168.4462,22.75292,0.9525937,-0.1846652,0.6186776,-47.31922,-23.25463,-13.94306
14.357296944,2.859344,168.1495,23.60651,0.9191842,-0.14395,0.6263825,-47.31922,-23.25463,-13.94306
14.367294788,1.013347,166.547,24.52107,0.8760569,-0.1049812,0.6235762,-44.31834,-22.14227,-19.98993
14.377293587,-5.632242,164.707,24.52107,0.8537729,-0.08596189,0.626003,-44.31834,-22.14227,-19.98993
14.387291432,-12.09323,162.5703,24.15525,0.8545821,-0.1028661,0.6355775,-44.31834,-22.14227,-19.98993
14.397289753,-15.66216,159.3653,24.33816,0.8481158,-0.1220245,0.6269793,-44.31834,-22.14227,-19.98993
14.407287598,-19.16955,154.9139,25.37466,0.8144163,-0.1177607,0.6346942,-44.31834,-22.14227,-19.98993
14.417286396,-18.00042,149.6315,26.71602,0.7462922,-0.09741477,0.6156647,-41.37964,-21.03093,-26.10176
14.427284241,-21.01555,143.7556,26.10631,0.6742257,-0.1011289,0.5779837,-41.37964,-21.03093,-26.10176
14.437282086,-24.70754,136.2772,26.10631,0.6313574,-0.1020636,0.5684872,-41.37964,-21.03093,-26.10176
14.447280407,-24.89214,129.6891,26.22825,0.6106778,-0.1429325,0.5546551,-41.37964,-21.03093,-26.10176
14.457278729,-16.76976,124.6442,25.61855,0.5954799,-0.1906323,0.5259793,-41.37964,-21.03093,-26.10176
14.46727705,-7.41670600000002,121.2017,24.21622,0.557557,-0.1960839,0.4901536,-36.88121,-19.9046,-31.81501
14.477274895,-0.2788507,115.86,22.93583,0.5005997,-0.173578,0.4706255,-36.88121,-19.9046,-31.81501
14.487273216,4.520741,109.0345,21.28962,0.4413426,-0.1584416,0.4472747,-36.88121,-19.9046,-31.81501
14.497271538,4.766874,100.3097,20.00924,0.3970008,-0.1325997,0.4463882,-36.88121,-19.9046,-31.81501
14.507269383,5.136074,91.3474899999997,19.0337,0.3726624,-0.0828058,0.4177032,-36.88121,-19.9046,-31.81501
14.517267227,2.859344,82.8007499999997,17.44846,0.3514809,-0.071317,0.3914155,-33.15702,-18.00575,-35.47386
14.527266026,-1.140316,74.1946600000002,15.19255,0.3285533,-0.07050516,0.3703979,-33.15702,-18.00575,-35.47386
14.53726387,-2.801713,66.1820800000001,12.9976,0.2798125,-0.07009365,0.3613898,-33.15702,-18.00575,-35.47386
14.547262192,-3.232446,57.8727599999998,10.13197,0.2115993,-0.07123613,0.3308802,-33.15702,-18.00575,-35.47386
14.557260513,-6.370641,48.73249,6.96149300000002,0.168787,-0.07504588,0.3256914,-33.15702,-18.00575,-35.47386
14.567258835,-7.41670600000002,39.47352,4.888487,0.1684129,-0.08154596,0.3065507,-29.00224,-19.13332,-37.5012
14.57725668,-6.12450699999998,30.21455,2.876452,0.1861029,-0.1159045,0.2840357,-29.00224,-19.13332,-37.5012
14.587254524,-2.863246,20.59947,0.986358399999998,0.1932983,-0.1364,0.2591424,-29.00224,-19.13332,-37.5012
14.597253323,1.567146,9.85669000000001,-1.330531,0.1610588,-0.1321512,0.262069,-29.00224,-19.13332,-37.5012
14.607251167,6.12060500000003,-2.547954,-3.586449,0.1317033,-0.1259674,0.2578114,-29.00224,-19.13332,-37.5012
14.617249012,10.48946,-14.35908,-5.537513,0.143922,-0.1018842,0.2611339,-26.78523,-17.59502,-37.49262
14.62724781,12.08933,-26.11085,-7.61051899999998,0.1608098,-0.09270271,0.2721094,-26.78523,-17.59502,-37.49262
14.637245655,14.24299,-36.55686,-9.43964200000003,0.1771757,-0.08153514,0.2888281,-26.78523,-17.59502,-37.49262
14.647243977,15.47366,-46.2313,-11.14682,0.1805333,-0.07769875,0.3290217,-26.78523,-17.59502,-37.49262
14.657241821,14.18146,-56.2025,-12.2443,0.1924431,-0.06270536,0.3486187,-26.78354,-17.59829,-37.87962
14.66724062,13.50459,-65.0459999999999,-13.21983,0.2225997,-0.05886053,0.3849369,-26.78354,-17.59829,-37.87962
14.677238464,11.90473,-73.3553299999999,-14.25633,0.2518428,-0.05853185,0.4107289,-26.78354,-17.59829,-37.87962
14.687236309,8.08966899999999,-81.3678999999998,-15.53672,0.2912271,-0.0530469,0.4470306,-26.78354,-17.59829,-37.87962
14.697235107,1.751746,-89.1430600000002,-16.45128,0.3411746,-0.06467607,0.5019827,-26.78354,-17.59829,-37.87962
14.707232952,0.0903486900000002,-95.01894,-15.71963,0.4077173,-0.07801325,0.5468563,-28.26795,-18.73317,-35.82066
14.717230797,-1.386449,-98.0459099999998,-14.62216,0.4606459,-0.09315179,0.5836183,-28.26795,-18.73317,-35.82066
14.727229118,-2.863246,-100.1826,-14.62216,0.4881658,-0.1050978,0.5993664,-28.26795,-18.73317,-35.82066
14.73722744,-4.524643,-103.6844,-15.90254,0.5086455,-0.1312182,0.621352,-28.26795,-18.73317,-35.82066
14.747225761,-3.909311,-109.5009,-17.85361,0.5096629,-0.1329313,0.6443223,-28.26795,-18.73317,-35.82066
14.757223606,-6.06297400000002,-117.8103,-20.41438,0.5381978,-0.1466651,0.6749049,-31.27295,-18.74205,-34.23039
14.767222404,-4.893843,-125.9415,-23.03612,0.5952853,-0.1758971,0.7025703,-31.27295,-18.74205,-34.23039
14.777220249,-1.447982,-131.7581,-24.92622,0.6870199,-0.2335309,0.7378399,-31.27295,-18.74205,-34.23039
14.787218094,3.905409,-134.4883,-25.29204,0.7867209,-0.248205,0.7773917,-31.27295,-18.74205,-34.23039
14.797216415,10.05873,-133.598,-24.07262,0.8394536,-0.2268623,0.8184518,-31.27295,-18.74205,-34.23039
14.807214737,12.58159,-132.0548,-22.2435,0.827765,-0.2006155,0.8443086,-35.03028,-19.11621,-30.19265
14.817213058,12.39699,-130.0962,-20.90215,0.811939,-0.1619213,0.8586835,-35.03028,-19.11621,-30.19265
14.827210903,9.32033300000002,-127.0099,-20.71923,0.8201944,-0.160239,0.8653687,-35.03028,-19.11621,-30.19265
14.837209702,8.52040099999998,-122.3804,-21.14603,0.8491161,-0.1437499,0.8523925,-35.03028,-19.11621,-30.19265
14.847207546,5.320673,-118.8786,-22.60933,0.861742,-0.1680476,0.8250979,-35.03028,-19.11621,-30.19265
14.857205391,1.321013,-118.7599,-23.28,0.8886069,-0.1977855,0.8097442,-39.1503,-20.24681,-25.31513
14.867203236,2.736278,-119.8282,-22.6703,0.9181277,-0.2134489,0.7867252,-39.1503,-20.24681,-25.31513
14.877202034,8.028135,-121.0746,-21.32894,0.9188425,-0.2007223,0.7422131,-39.1503,-20.24681,-25.31513
14.887199879,6.92053700000001,-121.6088,-20.84118,0.9086459,-0.1765741,0.7479676,-39.1503,-20.24681,-25.31513
14.8971982,5.136074,-120.5998,-19.56079,0.9212694,-0.1481181,0.7503312,-39.1503,-20.24681,-25.31513
14.907196522,6.12060500000003,-118.0477,-16.87807,0.8975291,-0.1561526,0.7202243,-41.38705,-21.74697,-20.80868
14.917194843,4.889941,-115.3768,-14.50021,0.8807447,-0.1457111,0.6762218,-41.38705,-21.74697,-20.80868
14.927192688,0.5826145,-112.884,-12.79303,0.8846642,-0.1215954,0.6479729,-41.38705,-21.74697,-20.80868
14.937190533,-3.663178,-113.0027,-11.51265,0.9017565,-0.09810798,0.6287939,-41.38705,-21.74697,-20.80868
14.947189331,-6.06297400000002,-114.0711,-10.90294,0.9198467,-0.07540603,0.6277994,-41.38705,-21.74697,-20.80868
14.957187176,-8.27817099999997,-112.8247,-11.51265,0.9405398,-0.06206977,0.6067026,-44.36514,-23.63366,-16.37027
14.96718502,-11.04717,-109.6196,-14.3173,0.9321076,-0.1059185,0.6124715,-44.36514,-23.63366,-16.37027
14.977183819,-9.63190200000001,-105.8211,-16.32934,0.9241302,-0.1748658,0.5828314,-44.36514,-23.63366,-16.37027
14.987181664,-4.032378,-103.3283,-16.26837,0.9056375,-0.2034167,0.529749,-44.36514,-23.63366,-16.37027
14.997179985,-1.324916,-103.8031,-15.59769,0.907487,-0.198762,0.503423,-44.36514,-23.63366,-16.37027
15.00717783,-0.0942510000000003,-104.5153,-14.68313,0.95206,-0.1597201,0.4784493,-45.83544,-22.84886,-12.25696
15.017176628,0.705681,-104.2186,-14.01245,0.9681308,-0.1338758,0.4535286,-45.83544,-22.84886,-12.25696
15.027174473,0.4595481,-102.7941,-14.01245,0.9603007,-0.1064371,0.4420494,-45.83544,-22.84886,-12.25696
15.037172318,0.951813900000003,-100.6574,-14.13439,0.9333125,-0.0713001,0.4105014,-45.83544,-22.84886,-12.25696
15.047171116,0.1518819,-99.8264800000001,-14.7441,0.8970518,-0.06099338,0.3938118,-45.83544,-22.84886,-12.25696
15.057168961,-2.063314,-99.6484299999998,-15.59769,0.8910301,-0.05197158,0.3837699,-47.7129,-23.58604,-7.816286
15.067167282,-3.293979,-98.4613799999997,-16.51225,0.916053,-0.03562097,0.3641004,-47.7129,-23.58604,-7.816286
15.077165127,-6.30910700000001,-96.7995100000002,-17.54875,0.9288922,-0.01892424,0.3554594,-47.7129,-23.58604,-7.816286
15.087163448,-10.61643,-94.9002399999998,-19.19496,0.9411701,-0.02403141,0.3549607,-47.7129,-23.58604,-7.816286
15.09716177,-12.27783,-93.4757800000003,-20.59729,0.9502828,-0.04237856,0.3482495,-47.7129,-23.58604,-7.816286
15.107159615,-12.64703,-92.4667999999999,-22.06059,0.9523197,-0.07292633,0.3511252,-48.06807,-25.45249,-3.293906
15.117158413,-10.0011,-90.9236299999999,-21.69477,0.9684998,-0.07856077,0.3376984,-48.06807,-25.45249,-3.293906
15.127156258,-7.539772,-88.9650000000003,-20.84118,0.9830363,-0.07450447,0.3247504,-48.06807,-25.45249,-3.293906
15.137154102,-7.78590499999999,-87.0657299999999,-19.92661,1.004722,-0.06136261,0.3333236,-48.06807,-25.45249,-3.293906
15.147152424,-9.13963599999997,-85.1664499999997,-19.25594,1.033969,-0.06166891,0.3428442,-48.06807,-25.45249,-3.293906
15.157150745,-9.508835,-82.67365,-18.03652,1.0545,-0.06517275,0.3404165,-48.08585,-25.41817,0.7696133
15.167149067,-10.86257,-79.9434400000003,-16.63419,1.060255,-0.06017771,0.342798,-48.08585,-25.41817,0.7696133
15.177146912,-13.1393,-77.0945299999998,-15.04895,1.067548,-0.05966609,0.3298636,-48.08585,-25.41817,0.7696133
15.18714571,-15.10836,-74.7204399999999,-13.52468,1.071443,-0.05966811,0.3212424,-48.08585,-25.41817,0.7696133
15.197143555,-18.24655,-73.2959799999998,-12.30527,1.044358,-0.07033341,0.3294282,-47.35075,-25.38476,4.064691
15.207141399,-20.40022,-72.9398700000002,-10.72003,1.03005,-0.0865513,0.3404646,-47.35075,-25.38476,4.064691
15.217139244,-19.60028,-72.3463399999997,-8.829934,1.014336,-0.1056731,0.3558113,-47.35075,-25.38476,4.064691
15.227138043,-18.80035,-70.5657700000001,-7.244694,1.012818,-0.1028181,0.3524632,-47.35075,-25.38476,4.064691
15.237135887,-18.67729,-67.3013900000002,-6.02527899999998,1.013366,-0.1063142,0.3409773,-47.35075,-25.38476,4.064691
15.247134209,-19.72335,-64.2150700000003,-5.598484,1.00614,-0.1108743,0.3362053,-47.68707,-27.65282,6.073587
15.25713253,-20.09255,-61.8409700000001,-4.988776,0.9897607,-0.1216922,0.3046506,-47.68707,-27.65282,6.073587
15.267130852,-21.38475,-59.5855799999998,-4.50101,0.9803584,-0.1405586,0.2812217,-47.68707,-27.65282,6.073587
15.277128697,-21.50782,-57.8643600000002,-4.440039,0.9742848,-0.1549508,0.2616144,-47.68707,-27.65282,6.073587
15.287126541,-18.67729,-56.02444,-4.561981,0.9806516,-0.1832509,0.2352888,-47.68707,-27.65282,6.073587
15.29712534,-14.30843,-54.24387,-4.379068,0.9805567,-0.2049237,0.2037086,-47.28989,-29.15399,8.14849
15.307123184,-8.46277000000003,-51.75107,-4.257127,0.977617,-0.2047414,0.1769134,-47.28989,-29.15399,8.14849
15.317121029,-4.893843,-48.78345,-3.952273,0.9694234,-0.1842447,0.1510793,-47.28989,-29.15399,8.14849
15.327119827,-4.278511,-46.11259,-4.318098,0.966943,-0.1826131,0.1223686,-47.28989,-29.15399,8.14849
15.337117672,-5.263042,-44.33202,-4.622952,0.9649441,-0.180372,0.1061,-47.28989,-29.15399,8.14849
15.347115994,-4.155444,-42.37339,-5.171688,0.9627717,-0.1945555,0.100843,-46.93148,-28.75448,10.08425
15.357114315,-0.4634504,-40.71152,-6.20819099999998,0.9445313,-0.209617,0.0874786,-46.93148,-28.75448,10.08425
15.367112637,6.24367199999998,-39.76189,-7.54954800000001,0.9669569,-0.2109037,0.05776812,-46.93148,-28.75448,10.08425
15.377110481,14.61219,-38.51549,-8.70799300000002,1.019821,-0.1977984,0.04810107,-46.93148,-28.75448,10.08425
15.387108326,23.90371,-37.03168,-9.378671,1.050862,-0.1641411,0.04803829,-46.93148,-28.75448,10.08425
15.397107124,29.93397,-34.59823,-8.890904,1.056711,-0.08620913,0.05518667,-46.20506,-27.97398,11.76276
15.407104969,30.48776,-32.81766,-8.22022599999998,1.012149,-0.02312511,0.03562649,-46.20506,-27.97398,11.76276
15.417103291,28.1495,-31.74932,-7.91537200000002,0.9762249,-0.005168253,0.004577047,-46.20506,-27.97398,11.76276
15.427101612,21.62698,-31.21515,-7.79343099999999,0.9448805,0.002797125,-0.01307768,-46.20506,-27.97398,11.76276
15.437099934,13.68919,-31.33385,-7.30566500000003,0.9373144,0.0161268,-0.02694663,-46.20506,-27.97398,11.76276
15.447097778,6.55133799999999,-32.5209,-6.63498599999997,0.9566688,0.04965848,-0.01550317,-45.45645,-28.33182,13.76986
15.457095623,-0.1557842,-33.05507,-6.513045,0.9668594,0.02609255,-0.01072911,-45.45645,-28.33182,13.76986
15.467094421,-1.817181,-33.47054,-6.33013299999999,0.9738852,-0.0107002,-0.01073188,-45.45645,-28.33182,13.76986
15.477092266,0.4595481,-32.69896,-5.171688,0.9717397,-0.0007088861,-0.02939518,-45.45645,-28.33182,13.76986
15.487090111,-0.955716300000001,-31.57126,-3.037712,0.9331463,0.05634251,-0.03077832,-45.45645,-28.33182,13.76986
15.497088909,-8.27817099999997,-31.57126,-0.2330568,0.80666,0.0698918,-0.08224753,-45.08538,-28.32193,14.61115
15.507086754,-10.49337,-35.84463,0.925387699999998,0.7186435,-0.04515583,-0.1442794,-45.08538,-28.32193,14.61115
15.517085075,-4.955376,-39.04966,3.120335,0.7586452,-0.07356586,-0.1491275,-45.08538,-28.32193,14.61115
15.52708292,0.2749484,-38.8716,5.498195,0.7857717,-0.01336877,-0.1611547,-45.08538,-28.32193,14.61115
15.537081719,-0.3403839,-38.69355,6.83955100000002,0.8482049,0.06045768,-0.1938257,-45.08538,-28.32193,14.61115
15.547079563,-9.878035,-39.70254,7.26634699999998,0.9501177,0.08298599,-0.1825234,-44.67838,-30.20727,16.23658
15.557077408,-20.58482,-38.81225,7.81508400000003,1.011618,0.05319386,-0.1194509,-44.67838,-30.20727,16.23658
15.567076206,-29.75327,-37.26909,8.72964499999998,1.019632,0.01533032,-0.1323767,-44.67838,-30.20727,16.23658
15.577074051,-33.26067,-38.8716,8.42479100000002,0.9558163,-0.03813678,-0.1552233,-44.67838,-30.20727,16.23658
15.587071896,-25.81514,-42.19534,7.99799599999998,0.9005359,-0.07865603,-0.1622951,-44.67838,-30.20727,16.23658
15.597070217,-19.60028,-43.91655,8.91255800000001,0.8843703,-0.04923303,-0.2043892,-44.02029,-29.0507,17.4611
15.607068539,-22.12315,-44.27267,8.54673300000003,0.9115301,0.008920062,-0.2274232,-44.02029,-29.0507,17.4611
15.61706686,-31.90693,-43.20433,7.205376,0.9875309,0.0364397,-0.1988482,-44.02029,-29.0507,17.4611
15.627064705,-38.30639,-42.25469,5.437224,0.9498263,-0.0319827,-0.2131221,-44.02029,-29.0507,17.4611
15.637063503,-36.21426,-42.96692,4.034896,0.937002,-0.1010424,-0.1915461,-44.02029,-29.0507,17.4611
15.647061348,-28.8918,-43.56044,2.998394,0.9151196,-0.129033,-0.1761863,-43.27278,-29.04126,17.91816
15.657059193,-20.03102,-43.44173,0.5595631,0.900874,-0.1494398,-0.1981707,-43.27278,-29.04126,17.91816
15.667057514,-10.12417,-42.13598,-1.26956,0.9527287,-0.1079462,-0.1834359,-43.27278,-29.04126,17.91816
15.677055836,-4.893843,-37.68456,-1.330531,0.95491,-0.01733034,-0.2160062,-43.27278,-29.04126,17.91816
15.68705368,-6.61677399999998,-34.47953,-2.06218,0.8723038,-0.004735053,-0.2541516,-43.27278,-29.04126,17.91816
15.697052002,-4.955376,-38.8716,-3.952273,0.7093421,-0.1042461,-0.5271088,-42.88401,-29.79589,18.312
15.707050323,-8.33970399999999,-52.99747,-2.001209,0.7899196,-0.3742876,-0.5793445,-42.88401,-29.79589,18.312
15.717048645,-5.447642,-64.2150700000003,1.474125,1.006269,-0.4228517,-0.4595866,-42.88401,-29.79589,18.312
15.72704649,13.38153,-69.61613,2.632569,1.193575,-0.403235,-0.3139524,-42.88401,-29.79589,18.312
15.737045288,34.85662,-70.98124,0.620533899999998,1.262629,-0.2113183,-0.2011783,-41.75897,-30.15418,19.93488
15.747043133,26.73424,-68.7851999999998,-0.598881400000002,1.223309,-0.009622274,-0.1131037,-41.75897,-30.15418,19.93488
15.757040977,-4.278511,-65.4614600000002,2.876452,1.224756,0.04740468,0.06155938,-41.75897,-30.15418,19.93488
15.767039299,-28.5226,-61.4255099999999,8.24187900000002,1.306971,-0.0747852,0.07245477,-41.75897,-30.15418,19.93488
15.77703762,-29.56867,-59.5262299999998,13.66828,1.202647,-0.3087125,-0.04120423,-41.75897,-30.15418,19.93488
15.787035942,-4.770776,-62.4938500000001,12.44886,1.187389,-0.3808475,-0.1378314,-40.26286,-30.50259,22.39904
15.797033787,1.813279,-63.4434900000002,12.32692,1.488875,-0.1412988,-0.2073336,-40.26286,-30.50259,22.39904
15.807032585,-10.5549,-58.9326999999999,19.15564,1.711092,0.01457023,-0.1694751,-40.26286,-30.50259,22.39904
15.81703043,-33.38373,-55.31221,23.17971,1.63162,0.1466428,-0.1684134,-40.26286,-30.50259,22.39904
15.827028274,-39.59859,-51.86977,20.13118,1.489258,-0.03655007,-0.3906559,-40.26286,-30.50259,22.39904
15.837026119,-28.09187,-49.13956,10.37586,1.422205,-0.1234479,-0.342659,-38.74764,-31.61824,24.09325
15.847024918,-13.5085,-47.95251,4.888487,1.314179,0.1048438,-0.2267141,-38.74764,-31.61824,24.09325
15.857022762,-9.20116899999999,-48.48669,-2.06218,1.287879,0.3391095,-0.1654708,-38.74764,-31.61824,24.09325
15.867021084,-16.21596,-47.00288,-9.92740700000002,1.290895,0.3856703,-0.1817596,-38.74764,-31.61824,24.09325
15.877019405,-26.36894,-45.87518,-16.14643,1.205259,0.2743169,-0.2169963,-38.74764,-31.61824,24.09325
15.887017727,-30.24553,-45.34101,-19.25594,1.163941,0.08591308,-0.2714334,-38.01727,-30.84537,24.86876
15.897015572,-19.72335,-45.34101,-20.10953,1.146246,-0.03682894,-0.3173143,-38.01727,-30.84537,24.86876
15.90701437,-5.509175,-45.99389,-19.7437,1.150246,-0.09486208,-0.3484138,-38.01727,-30.84537,24.86876
15.917012215,4.766874,-45.28166,-18.82914,1.11353,-0.06022779,-0.3608017,-38.01727,-30.84537,24.86876
15.927010059,9.074201,-45.28166,-17.67069,1.070056,-0.002808818,-0.3645693,-38.01727,-30.84537,24.86876
15.937007904,7.843536,-48.42733,-16.63419,0.9737166,0.06712382,-0.3735123,-36.50793,-31.58448,26.10945
15.947006702,3.16701,-50.62337,-12.91498,0.8997726,0.1130229,-0.3489878,-36.50793,-31.58448,26.10945
15.957004547,-3.478579,-52.52265,-10.23226,0.8259251,0.1775633,-0.4115692,-36.50793,-31.58448,26.10945
15.967002869,-11.6625,-55.43091,-7.976343,0.7841561,0.1946336,-0.4737156,-36.50793,-31.58448,26.10945
15.97700119,-20.03102,-53.35358,-6.695957,0.7617127,0.1953629,-0.5047842,-36.50793,-31.58448,26.10945
15.986999512,-25.44594,-49.73309,-7.366636,0.7259906,0.1762518,-0.5511388,-35.3787,-32.31605,28.57286
15.996997356,-28.5226,-46.05324,-9.07381699999998,0.7210919,0.1519589,-0.5401168,-35.3787,-32.31605,28.57286
16.006995201,-29.6302,-41.06764,-10.47614,0.7522576,0.1546027,-0.4779569,-35.3787,-32.31605,28.57286
16.016993999,-27.90727,-34.42017,-11.75653,0.7956575,0.2059113,-0.4344953,-35.3787,-32.31605,28.57286
16.026991844,-29.93787,-25.63603,-13.09789,0.855041,0.2624082,-0.3896272,-35.3787,-32.31605,28.57286
16.036990166,-34.18366,-17.26734,-14.62216,0.880703,0.3247887,-0.3193374,-33.50249,-32.67199,29.81429
16.046988487,-38.18332,-8.12707699999999,-17.06099,0.8781475,0.409485,-0.2982974,-33.50249,-32.67199,29.81429
16.056986332,-45.19811,1.07254,-20.84118,0.8805877,0.4609684,-0.3064507,-33.50249,-32.67199,29.81429
16.066984653,-52.27443,9.26316700000002,-25.84078,0.8784027,0.4735817,-0.3040573,-33.50249,-32.67199,29.81429
16.076982975,-57.4432299999999,17.5725,-31.08426,0.901427,0.4665413,-0.3265887,-33.50249,-32.67199,29.81429
16.086981297,-61.50442,25.94118,-36.38872,0.9237189,0.4462213,-0.3649084,-31.98413,-33.42854,28.99097
16.096979141,-63.2273500000002,34.01311,-41.75415,0.9368552,0.3954745,-0.3630039,-31.98413,-33.42854,28.99097
16.106976986,-58.0585600000001,40.54187,-46.38792,0.9375939,0.3304782,-0.3515026,-31.98413,-33.42854,28.99097
16.116975784,-46.73644,45.05265,-50.22908,0.915256,0.2739649,-0.3720279,-31.98413,-33.42854,28.99097
16.126973629,-32.27613,48.73249,-53.70441,0.8933716,0.2707871,-0.4064464,-31.98413,-33.42854,28.99097
16.136971951,-17.56969,51.344,-57.7894599999999,0.8804076,0.3122693,-0.4121774,-31.19444,-34.96122,27.00513
16.146970272,-6.43217400000002,53.06522,-62.3622600000001,0.9263427,0.3567185,-0.4333263,-31.19444,-34.96122,27.00513
16.156968594,-2.124848,56.15154,-66.9960399999999,0.9857796,0.3822986,-0.474594,-31.19444,-34.96122,27.00513
16.166966438,-1.509515,59.2378600000001,-70.5323400000002,1.032456,0.3610596,-0.5067345,-31.19444,-34.96122,27.00513
16.176964283,-1.509515,61.9087100000001,-72.9102,1.077297,0.3084261,-0.5139778,-31.19444,-34.96122,27.00513
16.186963081,5.505273,63.3331700000002,-74.4954399999997,1.06336,0.246581,-0.4981446,-29.6331,-37.62663,25.35344
16.196960926,19.04258,62.6802900000002,-75.3490299999998,1.018133,0.2161897,-0.4822648,-29.6331,-37.62663,25.35344
16.206958771,32.27223,61.3151899999999,-75.2880599999999,0.9787061,0.2396376,-0.4898594,-29.6331,-37.62663,25.35344
16.216957569,39.77928,59.1191599999999,-73.6418500000002,0.9448562,0.3300022,-0.4721164,-29.6331,-37.62663,25.35344
16.226955414,37.13335,56.74506,-71.6907900000002,0.9350032,0.4140729,-0.4505849,-29.6331,-37.62663,25.35344
16.236953735,26.36504,55.37996,-70.10555,0.9318169,0.4537738,-0.4596825,-27.72822,-39.13344,25.43996
16.246952057,12.33546,54.01485,-68.3983600000001,0.913704,0.4062577,-0.4620316,-27.72822,-39.13344,25.43996
16.256950378,2.859344,52.94651,-66.6302099999999,0.9026873,0.3179837,-0.4729968,-27.72822,-39.13344,25.43996
16.266948223,2.367078,50.92853,-64.9230299999998,0.9084021,0.2471096,-0.4772957,-27.72822,-39.13344,25.43996
16.276946068,5.99753899999999,50.33501,-64.0084699999997,0.9052352,0.2081761,-0.4768016,-27.72822,-39.13344,25.43996
16.286944866,8.88960099999997,49.80083,-62.7280799999997,0.8481397,0.1609933,-0.4647256,-25.82108,-40.64462,25.01047
16.296942711,15.59672,47.01127,-61.0818799999998,0.7855936,0.1185271,-0.4564698,-25.82108,-40.64462,25.01047
16.306940556,24.76517,44.99329,-58.33819,0.7838786,0.1321566,-0.4502488,-25.82108,-40.64462,25.01047
16.316939354,33.13369,44.81524,-55.47257,0.7716808,0.1592424,-0.4377916,-25.82108,-40.64462,25.01047
16.326937199,36.94875,42.7379,-51.75335,0.7536507,0.1586668,-0.4616888,-24.67327,-41.77724,25.02489
16.33693552,33.87209,40.24511,-47.79025,0.7782397,0.1456331,-0.5052788,-24.67327,-41.77724,25.02489
16.346933842,26.42657,38.04906,-43.15648,0.7902525,0.1297256,-0.464138,-24.67327,-41.77724,25.02489
16.356932163,25.01131,36.62461,-38.21784,0.7932735,0.09950437,-0.4277637,-24.67327,-41.77724,25.02489
16.366930008,29.6263,35.73433,-33.15727,0.8269896,0.06934658,-0.3976645,-24.67327,-41.77724,25.02489
16.376927853,34.54896,35.79368,-29.01126,0.826311,0.02825184,-0.3732453,-23.54485,-42.14208,25.87377
16.386926651,43.84047,35.67497,-26.75534,0.8225588,-0.005282076,-0.3655729,-23.54485,-42.14208,25.87377
16.396924496,51.90133,35.85303,-25.41398,0.8270539,0.01467332,-0.3718074,-23.54485,-42.14208,25.87377
16.406922817,52.45513,35.1408,-24.68233,0.7893406,0.05086854,-0.3707938,-23.54485,-42.14208,25.87377
16.416921139,53.56273,32.46994,-24.07262,0.7642758,0.03628981,-0.3697892,-23.54485,-42.14208,25.87377
16.426918984,55.47026,29.0275,-22.48738,0.793135,-0.02147933,-0.3726961,-23.16891,-42.44588,27.10375
16.436917305,58.42385,24.99154,-19.31691,0.8027726,-0.09377755,-0.3817872,-23.16891,-42.44588,27.10375
16.44691515,64.26951,19.47177,-15.7806,0.7925328,-0.1712402,-0.3812709,-23.16891,-42.44588,27.10375
16.456913948,75.0378199999999,13.65524,-12.06138,0.7776538,-0.2095385,-0.3922423,-23.16891,-42.44588,27.10375
16.466911793,87.4060100000001,6.23619700000001,-9.98837900000002,0.7264162,-0.2103177,-0.5787975,-23.16891,-42.44588,27.10375
16.476909638,100.8202,-8.12707699999999,-9.56158399999997,0.6271316,-0.1411626,-0.6662216,-21.7108,-40.9559,29.55811
16.486908436,84.1447399999998,-22.49035,-2.428004,0.8104279,-0.1120307,-0.3750958,-21.7108,-40.9559,29.55811
16.496906281,71.9611599999998,-18.5731,5.0714,1.124786,-0.0785908,0.05028027,-21.7108,-40.9559,29.55811
16.506904602,78.54522,-8.83930499999998,13.18051,1.273368,0.07941713,0.05620205,-21.7108,-40.9559,29.55811
16.516902924,50.42453,-0.1145072,26.22825,1.226606,0.3613532,-0.04524714,-21.7108,-40.9559,29.55811
16.526901245,-8.40123700000001,7.36389100000001,40.43444,1.160568,0.5368263,0.2084681,-20.98579,-40.17267,31.55912
16.53689909,-65.3194800000002,11.51856,56.46975,1.097662,0.2746773,0.001421834,-20.98579,-40.17267,31.55912
16.546896935,-100.578,3.56534,74.8829300000001,1.119068,-0.04195336,-0.2875939,-20.98579,-40.17267,31.55912
16.556895733,-102.1163,-4.506582,85.9186300000003,1.264473,-0.07553308,-0.182552,-20.98579,-40.17267,31.55912
16.566893578,-98.3012900000002,-2.963421,86.7112499999998,1.323644,-0.1136122,-0.2233243,-20.98579,-40.17267,31.55912
16.576891422,-92.5786999999997,2.55635,88.1745500000002,1.166748,0.01389566,-0.28817,-20.27392,-38.26854,31.16754
16.586890221,-96.0860900000001,3.149873,91.1011400000002,1.073588,0.3041893,-0.2789894,-20.27392,-38.26854,31.16754
16.596888065,-114.0538,3.32793,91.2840599999997,1.037319,0.4432431,-0.3517055,-20.27392,-38.26854,31.16754
16.606886387,-127.0373,3.684045,87.5648399999999,1.008436,0.2950998,-0.3348669,-20.27392,-38.26854,31.16754
16.616884708,-108.2081,4.811739,81.7116499999998,1.017566,0.1724027,-0.3276725,-20.27392,-38.26854,31.16754
16.62688303,-70.3036699999999,4.396273,68.1151700000002,1.036992,0.1476385,-0.4205438,-22.86281,-39.44999,28.70315
16.636880875,-21.75395,2.31894,50.06782,1.198641,0.1322377,-0.275813,-22.86281,-39.44999,28.70315
16.646878719,27.9649,-2.251192,33.17892,1.476704,0.06922619,-0.06283665,-22.86281,-39.44999,28.70315
16.656877518,68.20763,-2.42925,30.37426,1.642349,-0.2125461,0.01208358,-22.86281,-39.44999,28.70315
16.666875362,91.0979999999997,0.953835399999999,41.53191,1.275988,-0.2456245,-0.1026061,-22.86281,-39.44999,28.70315
16.676873207,71.3458300000002,2.140883,50.49461,0.91415,0.07624136,-0.2575954,-24.33731,-40.23885,26.69657
16.686872005,18.61185,-1.242202,48.97034,0.8266302,0.3515603,-0.2508136,-24.33731,-40.23885,26.69657
16.69686985,-27.53807,-3.260183,43.54395,0.9698083,0.0456724,-0.2136555,-24.33731,-40.23885,26.69657
16.706868172,-24.52294,-2.726011,39.21502,1.052731,-0.4004695,-0.2385712,-24.33731,-40.23885,26.69657
16.716866493,18.73492,-0.648678499999998,35.73969,1.007665,-0.5197254,-0.3222127,-24.33731,-40.23885,26.69657
16.726864815,61.7466399999999,1.131893,32.3863,0.8800695,-0.1359895,-0.3823897,-25.88264,-38.33469,28.28782
16.736862659,65.50018,1.844121,27.14281,0.89864,0.2773365,-0.3394566,-25.88264,-38.33469,28.28782
16.746860504,39.65622,1.07254,27.14281,0.9728639,0.4268372,-0.2530023,-25.88264,-38.33469,28.28782
16.756859302,10.1818,3.743397,32.20339,0.9998271,0.3916856,-0.2760119,-25.88264,-38.33469,28.28782
16.766857147,-13.93923,4.930444,33.91057,0.985415,0.3014788,-0.3314783,-25.88264,-38.33469,28.28782
16.776855469,-22.98461,6.17684400000002,32.99601,1.010028,0.1594405,-0.2941557,-26.2942,-36.80573,29.50243
16.78685379,-18.43115,7.12648200000003,31.22786,1.020648,0.009700469,-0.2716426,-26.2942,-36.80573,29.50243
16.796852112,-5.87837500000002,8.66964300000001,29.8865,1.016627,-0.08835589,-0.3046321,-26.2942,-36.80573,29.50243
16.806849956,6.55133799999999,10.80633,29.64261,0.9606055,0.01377089,-0.3342324,-26.2942,-36.80573,29.50243
16.816848278,1.997879,10.45021,27.75252,0.9457235,0.1587393,-0.2849505,-26.2942,-36.80573,29.50243
16.8268466,-10.0011,11.69661,25.80146,1.001552,0.1196153,-0.22043,-27.44621,-35.29983,28.64747
16.836844444,-18.67729,12.76496,26.53311,1.000005,-0.05797691,-0.2414389,-27.44621,-35.29983,28.64747
16.846842289,-19.29262,13.18042,27.69155,0.9761221,-0.1101867,-0.2662698,-27.44621,-35.29983,28.64747
16.856841087,-18.43115,13.89265,26.77699,0.9710872,-0.04946887,-0.2581408,-27.44621,-35.29983,28.64747
16.866838932,-20.09255,14.13006,24.82593,0.9776969,-0.06303581,-0.215077,-28.20973,-34.54801,28.25085
16.876837254,-14.36996,13.35848,22.26515,0.9645597,-0.1933654,-0.1973132,-28.20973,-34.54801,28.25085
16.886835575,-4.093911,12.64625,20.86283,0.9704164,-0.1928944,-0.1585589,-28.20973,-34.54801,28.25085
16.896833897,5.25914,11.75597,20.61894,0.9869478,-0.06066708,-0.1356501,-28.20973,-34.54801,28.25085
16.906831741,7.41280299999999,11.2218,20.25312,0.9557368,0.0432498,-0.1825229,-28.20973,-34.54801,28.25085
16.91683054,5.81293900000002,8.610291,17.02167,0.9269806,-0.008364133,-0.1848524,-28.94768,-34.94108,27.40882
16.926828384,13.13539,6.05813900000001,14.70478,0.9716533,-0.1029006,-0.150927,-28.94768,-34.94108,27.40882
16.936826229,24.88824,4.455625,13.30245,0.9991481,-0.1133191,-0.1275221,-28.94768,-34.94108,27.40882
16.946824074,28.02644,2.912464,12.5708,0.9882794,-0.001841834,-0.1356676,-28.94768,-34.94108,27.40882
16.956822872,21.93465,1.191245,12.69274,0.9753489,0.03760515,-0.1514482,-28.94768,-34.94108,27.40882
16.966820717,20.21172,0.775778400000001,13.54634,0.9881181,0.03032611,-0.2309123,-30.07191,-34.94952,27.40047
16.976819038,20.76551,1.07254,13.79022,0.9642044,0.05639087,-0.304578,-30.07191,-34.94952,27.40047
16.98681736,22.85765,1.666064,12.63177,0.961857,0.07780048,-0.2964436,-30.07191,-34.94952,27.40047
16.996815681,23.04224,2.31894,12.32692,1.009899,0.08849042,-0.2941372,-30.07191,-34.94952,27.40047
17.006813526,19.22718,3.980806,13.79022,1.005797,0.09973518,-0.2778614,-30.07191,-34.94952,27.40047
17.016812325,11.90473,4.752387,15.43643,0.9775098,0.1019394,-0.2414409,-30.46604,-34.18453,28.23214
17.026810169,4.828408,4.752387,16.9607,0.9483262,0.07397556,-0.2074039,-30.46604,-34.18453,28.23214
17.036808014,2.490145,3.862102,16.10711,0.9460719,-0.06558684,-0.2131069,-30.46604,-34.18453,28.23214
17.046805859,9.56646600000001,3.921454,14.52187,0.9795747,-0.1903383,-0.2705624,-30.46604,-34.18453,28.23214
17.056804657,15.41212,4.752387,12.5708,1.014724,-0.2205784,-0.3055519,-30.46604,-34.18453,28.23214
17.066802502,15.78132,6.82971999999999,10.13197,1.022462,-0.2447411,-0.3605954,-30.49132,-33.0402,28.61306
17.076800823,12.33546,10.86568,9.40032399999997,1.021907,-0.2678939,-0.3936102,-30.49132,-33.0402,28.61306
17.086799145,7.41280299999999,16.02934,11.16848,0.9879294,-0.1971187,-0.3921335,-30.49132,-33.0402,28.61306
17.096797466,1.25948,21.66781,15.92419,0.9788449,0.1577945,-0.3534444,-30.49132,-33.0402,28.61306
17.106795311,-23.59995,25.52571,17.75332,0.9886184,0.2871832,-0.3075514,-30.49132,-33.0402,28.61306
17.116794109,-38.98325,24.04191,17.5704,1.04321,0.1580567,-0.2516199,-31.27226,-31.5244,28.59939
17.126791954,-35.22973,23.03292,17.38749,1.070254,-0.01049034,-0.2487522,-31.27226,-31.5244,28.59939
17.136789799,-21.87701,21.13364,17.20458,1.084223,-0.02689333,-0.2128792,-31.27226,-31.5244,28.59939
17.146788597,-13.07776,21.3117,15.31449,1.037898,0.02734847,-0.1860121,-31.27226,-31.5244,28.59939
17.156786442,-11.8471,18.22537,13.18051,1.030196,0.07363614,-0.2089823,-31.27226,-31.5244,28.59939
17.166784763,-16.40056,11.75597,13.48536,1.065449,0.1181648,-0.1454046,-32.01639,-31.54037,27.36832
17.176782608,-22.61541,6.65166300000002,13.30245,1.117341,0.1320877,-0.116784,-32.01639,-31.54037,27.36832
17.18678093,-23.78455,0.1229023,12.81469,1.063025,0.1705513,-0.09755621,-32.01639,-31.54037,27.36832
17.196779251,-26.43047,-3.260183,10.92459,1.004257,0.1601047,-0.103194,-32.01639,-31.54037,27.36832
17.206777096,-25.07674,-9.25477200000002,6.90052199999999,0.9048983,0.02719092,-0.1283511,-32.01639,-31.54037,27.36832
17.216775894,-18.06195,-12.4598,2.998394,0.9285218,-0.2451135,-0.1455509,-32.75882,-31.55962,25.75025
17.226773739,6.05907200000001,-16.67382,-1.818297,0.9705847,-0.5146336,-0.2168626,-32.75882,-31.55962,25.75025
17.236771584,48.45547,-21.36266,-10.84197,0.9173405,-0.6393218,-0.2923528,-32.75882,-31.55962,25.75025
17.246770382,95.6514600000003,-28.84105,-20.59729,0.853038,-0.5637969,-0.3434677,-32.75882,-31.55962,25.75025
17.256768227,129.5563,-40.47412,-26.2066,0.7217974,-0.3018186,-0.5845088,-32.75882,-31.55962,25.75025
17.266766548,130.4793,-55.25286,-26.08466,0.651734,0.1849886,-0.6041336,-32.75265,-31.93671,26.13928
17.27676487,92.9439899999997,-66.88593,-25.41398,0.7326187,0.6030623,-0.4957455,-32.75265,-31.93671,26.13928
17.286763191,35.22582,-67.5388000000002,-23.58486,0.8996724,0.7679527,-0.3089559,-32.75265,-31.93671,26.13928
17.296761036,-19.35415,-58.9326999999999,-19.37788,0.9685879,0.6796256,-0.2860816,-32.75265,-31.93671,26.13928
17.306758881,-65.1964100000002,-47.06223,-14.68313,0.8293671,0.4638046,-0.3106693,-32.75265,-31.93671,26.13928
17.316757679,-84.0255800000002,-33.23313,-11.20779,0.8049431,0.1285819,-0.3555266,-31.29754,-30.38006,28.9803
17.326755524,-79.59518,-18.45439,-9.25672899999999,0.7237343,-0.1638988,-0.2801732,-31.29754,-30.38006,28.9803
17.336753368,-69.8114,-10.91664,-6.75692799999998,0.6450026,-0.3345166,-0.4340936,-31.29754,-30.38006,28.9803
17.346752167,-55.1665,-8.12707699999999,-4.622952,0.6231521,-0.4353536,-0.1487982,-31.29754,-30.38006,28.9803
17.356750012,-41.25998,18.22537,-6.513045,1.114827,-0.1393773,0.2790726,-31.29754,-30.38006,28.9803
17.366748333,-34.42979,49.20731,-8.15925599999997,1.356392,-0.1289197,0.4217431,-29.77946,-31.13606,28.22148
17.376746655,-32.2146,73.4230699999998,-0.2940276,1.23602,-0.5790322,0.03107218,-29.77946,-31.13606,28.22148
17.386744976,-14.43149,66.1820800000001,18.78982,0.892238,-0.6325245,-0.5569633,-29.77946,-31.13606,28.22148
17.396742821,-34.12213,43.68754,32.56921,0.9361429,-0.6683751,-0.8518335,-29.77946,-31.13606,28.22148
17.406740666,-35.35279,39.41417,29.58164,1.463389,-0.658792,-0.4665442,-28.9701,-33.43709,25.33669
17.416739464,-3.232446,57.04182,18.60691,1.920782,-0.1502069,-0.2023413,-28.9701,-33.43709,25.33669
17.426737309,19.22718,72.4734299999998,10.68071,1.672583,0.2965763,-0.3341107,-28.9701,-33.43709,25.33669
17.436735153,10.7356,76.5687500000001,14.58284,1.133301,0.4924615,-0.4906726,-28.9701,-33.43709,25.33669
17.446733952,-15.78522,77.3403300000002,17.75332,0.8865865,0.6330567,-0.3653703,-28.9701,-33.43709,25.33669
17.456731796,-40.27545,76.7467999999998,20.61894,0.8919132,0.4852518,-0.1203106,-29.34397,-33.07644,23.33238
17.466730118,-43.65978,69.8619299999999,25.43563,0.8885309,0.1752352,-0.005366629,-29.34397,-33.07644,23.33238
17.476728439,-30.98393,59.8907400000001,26.04534,0.8528895,-0.1296051,0.1077179,-29.34397,-33.07644,23.33238
17.489225865,-3.970845,46.59581,19.27759,0.7732104,-0.424537,0.2304483,-29.34397,-33.07644,23.33238
17.499224663,25.13437,33.95375,13.05857,0.759907,-0.491043,0.3726257,-29.34397,-33.07644,23.33238
17.509222508,50.363,21.25234,8.79061600000001,0.7989761,-0.4412417,0.4730457,-31.5842,-32.74401,19.63715
17.519220352,56.39325,9.559929,8.48576300000002,0.9152779,-0.3564138,0.4110848,-31.5842,-32.74401,19.63715
17.529218674,47.9632,2.022178,9.58323599999998,1.025612,-0.2670427,0.2744753,-31.5842,-32.74401,19.63715
17.536717415,40.14848,-1.479612,8.97352800000002,1.051584,-0.1994145,0.1743902,-31.5842,-32.74401,19.63715
17.549215317,25.38051,-6.287153,6.473727,1.015074,-0.07659201,-0.025144,-31.5842,-32.74401,19.63715
17.556713581,15.96592,-8.12707699999999,4.33975,1.022411,-0.02807319,-0.10222,-32.33537,-32.74636,20.01859
17.566711903,3.105477,-7.59290600000003,2.327715,1.058963,-0.003409231,-0.1410548,-32.33537,-32.74636,20.01859
17.579209805,-9.44730199999998,-6.70261999999998,2.266744,1.024156,0.007464799,-0.1520041,-32.33537,-32.74636,20.01859
17.589207649,-16.21596,-6.58391499999997,2.571598,1.005962,0.01638208,-0.1471889,-32.33537,-32.74636,20.01859
17.599206448,-20.09255,-5.75298199999998,2.815481,0.9836541,0.01057406,-0.1495415,-32.33537,-32.74636,20.01859
17.609204292,-22.24621,-5.396868,3.059364,0.9776226,-0.005585562,-0.1500053,-32.36263,-31.59821,20.85101
17.619202137,-21.13862,-4.981401,3.242276,0.9737754,-0.03438037,-0.1552556,-32.36263,-31.59821,20.85101
17.629200458,-16.64669,-4.506582,3.912955,0.9732468,-0.05825021,-0.1605128,-32.36263,-31.59821,20.85101
17.63919878,-10.98563,-3.972411,4.949458,0.9924362,-0.06805392,-0.1581509,-32.36263,-31.59821,20.85101
17.649197102,-3.724712,-2.785364,5.193341,1.027196,-0.07654304,-0.1519878,-32.36263,-31.59821,20.85101
17.659194946,1.751746,-1.004793,5.742078,1.029905,-0.06544885,-0.1668312,-32.35307,-31.98184,20.46603
17.666693687,2.920877,-0.411269,6.22984400000002,1.00136,-0.05045828,-0.1663067,-32.35307,-31.98184,20.46603
17.679191589,2.551678,0.4196641,6.16887299999999,1.006757,-0.07787486,-0.1471661,-32.35307,-31.98184,20.46603
17.689189434,3.53621,0.953835399999999,6.53469799999998,1.003507,-0.08605094,-0.1308867,-32.35307,-31.98184,20.46603
17.699188232,5.013007,1.131893,6.83955100000002,1.009723,-0.07956266,-0.1256349,-32.35307,-31.98184,20.46603
17.709186077,6.05907200000001,1.547359,6.29081499999999,1.020443,-0.1056531,-0.1323469,-32.72782,-31.98465,20.46325
17.719184399,11.16633,1.725416,5.559165,0.9941034,-0.1306109,-0.147609,-32.72782,-31.98465,20.46325
17.72918272,16.58125,1.666064,4.705575,0.9934473,-0.121255,-0.1327744,-32.72782,-31.98465,20.46325
17.739181042,19.22718,2.437645,4.705575,1.019199,-0.1166087,-0.1055417,-32.72782,-31.98465,20.46325
17.749178886,21.75005,3.32793,5.254312,0.994925,-0.1214837,-0.107891,-32.72782,-31.98465,20.46325
17.759176731,23.71911,3.090521,5.98596099999998,0.9771693,-0.08455736,-0.123184,-32.35307,-31.98184,20.46603
17.769175529,24.82671,3.684045,6.29081499999999,0.98467,-0.0432445,-0.1385221,-32.35307,-31.98184,20.46603
17.779173374,23.47298,3.684045,5.620136,0.9871421,-0.01949418,-0.1504969,-32.35307,-31.98184,20.46603
17.789171219,23.10378,3.268578,4.644604,1.01165,-0.05301273,-0.1490953,-32.35307,-31.98184,20.46603
17.799170017,24.82671,4.455625,4.461692,1.015345,-0.09354387,-0.1256411,-32.35307,-31.98184,20.46603
17.809167862,28.7033,4.336921,4.827517,0.9809763,-0.1052197,-0.1059565,-32.7531,-30.84031,20.84417
17.819166183,31.90303,4.57433,4.827517,0.9866127,-0.093901,-0.1026193,-32.7531,-30.84031,20.84417
17.829164505,30.9185,4.930444,5.193341,0.9831486,-0.03975453,-0.1255988,-32.7531,-30.84031,20.84417
17.839162827,21.99618,4.752387,6.04693200000002,0.9944354,-0.01822468,-0.1337598,-32.7531,-30.84031,20.84417
17.849160671,13.13539,3.684045,6.04693200000002,1.02457,-0.09122486,-0.1046004,-32.38791,-30.45388,21.23193
17.85915947,14.24299,2.55635,4.705575,1.009164,-0.2302804,-0.07965179,-32.38791,-30.45388,21.23193
17.869157314,22.30384,2.793759,2.69354,1.013478,-0.2775016,-0.04518968,-32.38791,-30.45388,21.23193
17.879155159,24.94977,2.853111,3.303247,0.9768735,-0.1965779,-0.04418956,-32.38791,-30.45388,21.23193
17.889153004,22.91918,2.734407,4.27878,0.9983638,-0.04357643,-0.04522357,-32.38791,-30.45388,21.23193
17.899151802,9.812599,3.209226,4.33975,1.044527,0.0143609,-0.07977643,-32.77249,-30.07252,21.67862
17.909149647,-3.355512,2.378292,2.876452,1.022634,-0.06599852,-0.1050821,-32.77249,-30.07252,21.67862
17.919147968,-2.678647,2.31894,1.230241,0.9863864,-0.2122349,-0.1293886,-32.77249,-30.07252,21.67862
17.92914629,6.92053700000001,2.734407,0.925387699999998,0.9828376,-0.2315024,-0.1561777,-32.77249,-30.07252,21.67862
17.939144611,12.39699,4.396273,0.803446099999999,0.9978642,-0.1496375,-0.1638822,-32.77249,-30.07252,21.67862
17.949142456,8.64346799999999,6.29554899999997,0.681504599999997,0.9929994,-0.04695964,-0.1907005,-32.77419,-30.06925,22.06562
17.959141254,-0.4634504,8.19482400000001,0.4376215,1.025324,-0.004210777,-0.2089537,-32.77419,-30.06925,22.06562
17.969139099,-11.60097,10.03475,0.0717969800000001,1.046438,-0.03803666,-0.1807458,-32.77419,-30.06925,22.06562
17.979136944,-16.52362,11.04374,-0.2940276,1.01661,-0.08348519,-0.1443103,-32.77419,-30.06925,22.06562
17.989135742,-17.50816,11.75597,-0.8427644,0.9953226,-0.09091855,-0.114121,-32.77419,-30.06925,22.06562
17.999133587,-18.36962,11.81532,-0.903735200000002,1.01084,-0.08586565,-0.07347041,-33.1551,-29.69498,21.67381
18.009131432,-19.60028,11.28115,-0.964705900000002,0.9885027,-0.08952432,-0.05333034,-33.1551,-29.69498,21.67381
18.01913023,-20.03102,9.916043,-1.391501,0.9800807,-0.1081784,-0.05570373,-33.1551,-29.69498,21.67381
18.029128075,-18.98495,8.610291,-1.208589,0.9893059,-0.1066173,-0.06433459,-33.1551,-29.69498,21.67381
18.039126396,-18.36962,7.54194799999998,-0.598881400000002,0.9910831,-0.07163826,-0.06913245,-33.1551,-29.69498,21.67381
18.049124241,-18.92342,6.473606,-0.5379106,0.9958993,-0.06863184,-0.06962019,-33.14973,-29.70533,20.4483
18.059123039,-18.55422,4.930444,-0.8427644,0.9983606,-0.09573452,-0.06291745,-33.14973,-29.70533,20.4483
18.069120884,-13.3239,4.158864,-0.598881400000002,1.009761,-0.1055561,-0.04570605,-33.14973,-29.70533,20.4483
18.079118729,-7.84743800000001,4.099511,-0.8427644,1.028837,-0.1352901,-0.04381735,-33.14973,-29.70533,20.4483
18.089117527,-2.432514,3.921454,-0.720822899999998,1.014351,-0.1688309,-0.06675511,-33.14973,-29.70533,20.4483
18.099115372,2.120945,2.378292,-1.26956,0.9940493,-0.1774184,-0.05858171,-32.75729,-30.46704,20.00364
18.109113693,6.92053700000001,1.369302,-2.123151,1.010713,-0.1559832,-0.03564463,-32.75729,-30.46704,20.00364
18.119112015,6.428272,1.30995,-3.647419,1.0319,-0.1424222,-0.03329217,-32.75729,-30.46704,20.00364
18.129109859,-2.863246,0.2416071,-6.26916200000001,1.023727,-0.1484501,-0.03710499,-32.75729,-30.46704,20.00364
18.139108181,-16.03136,-2.726011,-8.28119799999998,1.014926,-0.1722289,-0.01459044,-32.75729,-30.46704,20.00364
18.149106503,-28.83027,-4.803344,-9.378671,0.9994241,-0.1767946,-0.002119268,-34.26861,-29.72412,19.21446
18.159104824,-39.90625,-7.35549600000001,-9.92740700000002,1.002031,-0.1603966,-0.02127108,-34.26861,-29.72412,19.21446
18.169102669,-48.70551,-11.27275,-9.01284600000001,1.049743,-0.105838,-0.003660987,-34.26861,-29.72412,19.21446
18.179100513,-56.88943,-11.56951,-9.31770000000002,1.053613,-0.1314736,-0.05199732,-34.26861,-29.72412,19.21446
18.189099312,-58.3662199999997,-15.84289,-9.13478800000001,1.041139,-0.2725081,-0.09022533,-34.26861,-29.72412,19.21446
18.199097157,-44.33665,-21.24395,-9.92740700000002,1.004385,-0.3921329,-0.1260237,-33.13034,-30.47312,19.61386
18.209095478,-21.44628,-28.60365,-14.86604,0.9899714,-0.430344,-0.1815035,-33.13034,-30.47312,19.61386
18.2190938,-0.0942510000000003,-37.03168,-18.82914,0.9967988,-0.3002039,-0.1533129,-33.13034,-30.47312,19.61386
18.229092121,7.35127000000003,-45.16295,-16.75613,0.9760076,-0.1286187,-0.2093143,-33.13034,-30.47312,19.61386
18.239089966,-6.92443900000002,-54.36257,-3.70839,0.9525865,-0.02698387,-0.3629225,-33.13034,-30.47312,19.61386
18.249088764,-33.75293,-58.5172299999999,14.33895,0.9344679,-0.07698873,-0.4777363,-32.72049,-31.99882,18.78625
18.259086609,-52.0283,-60.1197499999999,26.53311,0.8475656,-0.2761383,-0.492848,-32.72049,-31.99882,18.78625
18.269084454,-45.69038,-58.3391800000003,28.60611,0.7589446,-0.4345895,-0.4644167,-32.72049,-31.99882,18.78625
18.279083252,-13.5085,-54.83739,23.97233,0.6913075,-0.3893597,-0.5265254,-32.72049,-31.99882,18.78625
18.289081097,16.76585,-51.57301,17.38749,0.6881565,-0.2467516,-0.4949706,-32.72049,-31.99882,18.78625
18.299078941,40.27155,-48.30863,11.5343,0.7179744,-0.09366266,-0.3983896,-32.34324,-32.366,20.01656
18.30907774,53.93192,-44.80684,5.13237,0.8063415,-0.07388242,-0.2865619,-32.34324,-32.366,20.01656
18.319075584,70.2997699999998,-39.82124,-0.5379106,0.9607425,-0.1201865,-0.2107256,-32.34324,-32.366,20.01656
18.329073906,93.80546,-30.91838,-6.513045,1.07596,-0.05135176,-0.1066146,-32.34324,-32.366,20.01656
18.339071751,113.7422,-15.84289,-13.76857,1.245332,0.09584675,0.1596191,-32.34324,-32.366,20.01656
18.349070549,113.6192,8.66964300000001,-16.8171,1.433916,0.4413794,0.4980332,-31.24207,-31.5827,21.69785
18.359068394,78.8528800000002,35.73433,-13.76857,1.61059,0.8745304,0.7723164,-31.24207,-31.5827,21.69785
18.369066238,22.85765,56.3296,-3.403537,1.401728,0.9275416,0.1672681,-31.24207,-31.5827,21.69785
18.379065037,-40.70618,47.66415,17.87526,0.7614089,0.5990506,-0.5714096,-31.24207,-31.5827,21.69785
18.389062882,-80.14899,21.4304,27.56961,0.6270005,0.1755669,-0.7304322,-30.89797,-30.42519,23.30706
18.399060726,-70.2421299999997,9.79733799999999,13.72925,1.092424,-0.2872041,-0.4257928,-30.89797,-30.42519,23.30706
18.409059525,-8.21663800000001,22.5581,3.608101,1.35695,-0.6447736,-0.3510254,-30.89797,-30.42519,23.30706
18.419057369,62.0543099999999,31.52031,6.10790299999999,1.082493,-0.3547927,-0.4090079,-30.89797,-30.42519,23.30706
18.429055691,76.5146199999998,31.10484,7.87605399999997,0.9746491,0.2009964,-0.2964976,-30.89797,-30.42519,23.30706
18.439054012,41.37915,30.51132,7.14440499999997,0.9822726,0.4218025,-0.1333733,-32.01514,-30.44725,21.68621
18.449052334,-0.6480501,29.56168,9.76614900000002,0.9815516,0.2014164,-0.1065151,-32.01514,-30.44725,21.68621
18.459050179,-19.41569,28.25592,13.66828,0.9949835,-0.1242797,-0.0949688,-32.01514,-30.44725,21.68621
18.469048977,-19.29262,25.58507,14.52187,0.992753,-0.2895123,-0.03845039,-32.01514,-30.44725,21.68621
18.479046822,-9.38576900000002,22.02393,12.26595,0.9239991,-0.363875,0.002367574,-32.01514,-30.44725,21.68621
18.489044666,6.85900399999999,18.10667,9.76614900000002,0.9198104,-0.3740485,0.01482047,-32.02103,-30.07071,21.23268
18.499042988,23.34991,14.60488,9.217411,0.9725918,-0.304523,0.01088195,-32.02103,-30.07071,21.23268
18.509041309,31.16463,11.69661,7.937025,0.9600964,-0.2107823,-0.02022785,-32.02103,-30.07071,21.23268
18.519039154,31.16463,8.610291,5.315282,0.9433367,-0.1754652,-0.05418662,-32.02103,-30.07071,21.23268
18.529037476,27.90337,6.473606,4.217809,0.9886083,-0.1218883,-0.08538678,-32.02103,-30.07071,21.23268
18.539035797,18.85798,4.693035,3.425189,1.014722,-0.05982883,-0.1041128,-32.78286,-29.32216,20.44906
18.549034119,9.32033300000002,4.693035,4.33975,1.011664,-0.05257381,-0.1012378,-32.78286,-29.32216,20.44906
18.559031963,1.874812,3.090521,5.742078,0.9754442,-0.07047282,-0.1203131,-32.78286,-29.32216,20.44906
18.569030762,-1.940248,2.615702,5.98596099999998,1.03546,-0.1002294,-0.1031814,-32.78286,-29.32216,20.44906
18.579028607,-0.4634504,2.259588,4.827517,0.9931053,-0.1803493,-0.1112227,-32.78286,-29.32216,20.44906
18.589026451,8.028135,1.488007,4.217809,0.991977,-0.1713088,-0.07676556,-33.15562,-29.32878,19.99477
18.59902525,15.04292,0.3009594,3.730042,0.994486,-0.1487173,-0.05619698,-33.15562,-29.32878,19.99477
18.609023094,19.90405,-1.420259,1.96189,0.9921337,-0.178743,-0.03991356,-33.15562,-29.32878,19.99477
18.619021416,26.54964,-3.616297,0.2547093,0.9965065,-0.2038817,-0.03512895,-33.15562,-29.32878,19.99477
18.629019737,27.5957,-5.218811,0.2547093,0.9936808,-0.1837429,-0.05857944,-33.15562,-29.32878,19.99477
18.639018059,21.75005,-6.34650599999999,0.1327677,1.003758,-0.1495542,-0.06147727,-33.17502,-28.56099,20.82922
18.649015903,13.19693,-7.29614399999999,-0.8427644,0.9850103,-0.1637065,-0.08058397,-33.17502,-28.56099,20.82922
18.659014225,7.53587,-7.94901899999999,-0.5379106,0.9799143,-0.1515621,-0.07004955,-33.17502,-28.56099,20.82922
18.669012546,4.274609,-7.65225799999999,0.3766508,0.9738067,-0.1382913,-0.09349255,-33.17502,-28.56099,20.82922
18.679010391,3.35161,-7.94901899999999,0.2547093,0.9851099,-0.144202,-0.1265325,-33.17502,-28.56099,20.82922
18.689008236,4.582274,-7.83031500000001,-0.720822899999998,0.9974026,-0.1511615,-0.1701025,-33.18655,-28.17355,21.6657
18.699007034,6.67440499999999,-7.77096299999999,-1.147618,1.013685,-0.1364545,-0.1911921,-33.18655,-28.17355,21.6657
18.709004879,5.99753899999999,-5.634277,-1.757326,1.016673,-0.1140817,-0.1955102,-33.18655,-28.17355,21.6657
18.7190032,1.874812,-4.684639,-2.671887,0.9988901,-0.1269841,-0.1863829,-33.18655,-28.17355,21.6657
18.729001522,-1.694115,-3.735002,-2.91577,1.00833,-0.1620915,-0.1667687,-33.18655,-28.17355,21.6657
18.738999844,-3.970845,-2.310545,-3.220624,1.001397,-0.2077929,-0.1543019,-33.17869,-28.55391,21.66773
18.748997688,-4.770776,-0.411269,-3.586449,1.018298,-0.2253862,-0.1485839,-33.17869,-28.55391,21.66773
18.758996487,-4.155444,2.31894,-3.220624,1.001421,-0.2093556,-0.1657874,-33.17869,-28.55391,21.66773
18.768994331,-4.340044,3.209226,-2.367033,0.9681297,-0.1493364,-0.1729234,-33.17869,-28.55391,21.66773
18.778992176,-6.862906,3.921454,-2.488975,1.002945,-0.08300259,-0.1682154,-33.17869,-28.55391,21.66773
18.788990974,-11.78556,4.811739,-3.403537,1.024572,-0.09270552,-0.1601149,-33.55512,-28.55345,22.05195
18.798988819,-13.01623,5.167854,-4.257127,1.007908,-0.1390369,-0.1423666,-33.55512,-28.55345,22.05195
18.808986664,-10.49337,4.811739,-5.049747,0.9973803,-0.1744203,-0.1097959,-33.55512,-28.55345,22.05195
18.818985462,-8.70890300000002,4.158864,-5.598484,0.9850135,-0.1900218,-0.08871301,-33.55512,-28.55345,22.05195
18.828983307,-9.01656900000002,2.912464,-6.33013299999999,0.9788088,-0.1961809,-0.05807174,-33.55512,-28.55345,22.05195
18.838981628,-10.3703,1.250597,-7.366636,0.9837744,-0.2008369,-0.04659337,-33.55145,-28.56054,21.21344
18.848979473,-11.90863,-0.4706214,-8.34216799999998,0.9839875,-0.2119085,-0.03558364,-33.55145,-28.56054,21.21344
18.858978271,-13.1393,-2.666659,-9.01284600000001,0.9805674,-0.1858844,-0.05185597,-33.55145,-28.56054,21.21344
18.868976116,-16.70822,-3.853706,-8.52507999999999,0.9942986,-0.1127394,-0.05381304,-33.55145,-28.56054,21.21344
18.878973961,-23.10768,-5.040754,-8.34216799999998,0.9918652,-0.08707643,-0.05860117,-33.55145,-28.56054,21.21344
18.888972759,-27.04581,-6.287153,-8.34216799999998,0.9805406,-0.1067071,-0.05522634,-32.79072,-28.9418,20.44703
18.898970604,-26.49201,-7.35549600000001,-9.13478800000001,1.009341,-0.161689,-0.07201254,-32.79072,-28.9418,20.44703
18.908968449,-18.92342,-6.52456300000001,-9.13478800000001,1.010803,-0.1880413,-0.08732274,-32.79072,-28.9418,20.44703
18.918967247,-11.17023,-7.65225799999999,-8.70799300000002,0.9739164,-0.170528,-0.1116703,-32.79072,-28.9418,20.44703
18.928965092,-6.370641,-9.90764799999999,-9.62255399999997,0.994414,-0.1463426,-0.1150623,-32.40981,-29.31608,20.83884
18.938963413,-4.586177,-11.0947,-10.84197,1.031001,-0.122163,-0.100775,-32.40981,-29.31608,20.83884
18.948961735,-5.93990799999998,-11.98498,-11.63459,1.030788,-0.1095449,-0.04909171,-32.40981,-29.31608,20.83884
18.958960056,-6.80137299999998,-15.19001,-11.39071,1.007561,-0.1175201,-0.02081318,-32.40981,-29.31608,20.83884
18.968957901,-6.61677399999998,-20.47237,-11.14682,1.000357,-0.1229288,-0.01218486,-32.40981,-29.31608,20.83884
18.978956699,-3.232446,-24.44898,-10.781,1.025776,-0.1265676,0.01313629,-32.0289,-29.69035,21.23065
18.988954544,0.3980148,-27.59465,-11.63459,0.9804615,-0.128655,-0.06383492,-32.0289,-29.69035,21.23065
18.998952389,2.367078,-33.7673,-11.63459,0.9807819,-0.1207517,-0.1035593,-32.0289,-29.69035,21.23065
19.008951187,2.920877,-36.91298,-11.02488,1.022957,-0.08365711,-0.1237426,-32.0289,-29.69035,21.23065
19.018949032,0.5210813,-38.99031,-9.98837900000002,1.026826,-0.05727498,-0.1696994,-32.0289,-29.69035,21.23065
19.028946877,-5.87837500000002,-42.25469,-10.23226,0.9878106,-0.08206311,-0.1921181,-31.63592,-30.81826,22.46502
19.038945675,-7.90897099999997,-47.06223,-11.63459,1.016809,-0.1462686,-0.1553018,-31.63592,-30.81826,22.46502
19.04894352,0.767214200000001,-48.13057,-9.56158399999997,1.079107,-0.1194822,-0.2831971,-31.63592,-30.81826,22.46502
19.058941841,7.16667,-46.88417,-5.3546,1.138233,-0.0004592403,-0.3613387,-31.63592,-30.81826,22.46502
19.068939686,2.244012,-42.6108,-3.037712,1.141334,-0.03513137,-0.3335778,-31.63592,-30.81826,22.46502
19.078938484,-4.83231,-32.22414,2.083832,1.105362,-0.1679251,-0.2703088,-30.89966,-30.42192,23.69406
19.088936329,-6.370641,-17.86087,6.29081499999999,1.061022,-0.3230762,-0.2424342,-30.89966,-30.42192,23.69406
19.098934174,5.382206,-0.886087999999999,10.68071,0.9588933,-0.308971,-0.2858102,-30.89966,-30.42192,23.69406
19.108932972,16.76585,17.27574,12.9976,0.8905482,-0.1705964,-0.2043687,-30.89966,-30.42192,23.69406
19.118930817,14.85832,34.96274,14.0341,0.9045404,-0.05650682,-0.08717136,-30.89966,-30.42192,23.69406
19.128929138,11.96626,50.2163,13.30245,0.8970692,-0.04714518,-0.05701047,-30.88761,-31.17555,24.53662
19.13892746,11.59706,61.1964899999997,12.08304,0.7884586,-0.07756869,-0.1199853,-30.88761,-31.17555,24.53662
19.148925781,11.53553,64.9356799999999,9.52226500000001,0.7296056,-0.1614248,-0.1289541,-30.88761,-31.17555,24.53662
19.158923626,18.36572,62.73965,7.022464,0.7350091,-0.2430011,-0.1868502,-30.88761,-31.17555,24.53662
19.168922424,29.2571,55.67672,6.41275599999997,0.6926087,-0.1955545,-0.3796547,-30.88761,-31.17555,24.53662
19.178920269,37.74868,35.49691,4.766546,0.5644425,-0.0483181,-0.7398369,-31.29013,-29.66402,23.68722
19.188918114,34.91816,13.47719,1.96189,0.7590256,0.07619523,-0.6172141,-31.29013,-29.66402,23.68722
19.198916912,21.75005,10.50957,-1.879267,1.369599,0.2150913,-0.2469393,-31.29013,-29.66402,23.68722
19.208914757,2.490145,19.35307,1.169271,1.910146,0.3144291,-0.1182131,-31.29013,-29.66402,23.68722
19.218912602,-5.87837500000002,23.9232,6.65663900000001,1.32639,0.2328087,-0.2353827,-31.29013,-29.66402,23.68722
19.2289114,-9.38576900000002,18.52213,5.559165,0.8017467,0.2743942,-0.2923865,-32.80314,-28.91783,23.28504
19.238909245,-15.53909,10.15345,3.120335,0.8535903,0.3193964,-0.1599229,-32.80314,-28.91783,23.28504
19.248907566,-27.47654,7.48259600000002,2.510627,1.081119,0.03794065,-0.07793199,-32.80314,-28.91783,23.28504
19.258905411,-19.78489,9.44122399999999,4.400721,1.072648,-0.2643254,-0.1137326,-32.80314,-28.91783,23.28504
19.268904209,2.920877,9.20381500000001,5.80304899999998,0.971525,-0.355641,-0.1561261,-32.80314,-28.91783,23.28504
19.278902054,18.24265,8.55093899999998,6.53469799999998,0.9416981,-0.272815,-0.1742813,-33.16832,-29.30427,22.89729
19.288899899,18.55032,9.79733799999999,6.41275599999997,0.9611869,-0.2202325,-0.1523143,-33.16832,-29.30427,22.89729
19.298898697,15.22752,10.50957,5.98596099999998,0.9940357,-0.2050315,-0.1552469,-33.16832,-29.30427,22.89729
19.308896542,12.08933,11.93402,5.620136,1.016921,-0.1263691,-0.1581786,-33.16832,-29.30427,22.89729
19.318894386,5.382206,13.00237,6.29081499999999,0.9865721,-0.06721544,-0.1600552,-33.16832,-29.30427,22.89729
19.328893185,-0.955716300000001,13.06172,7.26634699999998,1.015676,-0.05967934,-0.1428791,-33.54109,-29.31089,22.443
19.338891029,-4.586177,13.71459,7.57120099999999,1.023059,-0.06330257,-0.1299695,-33.54109,-29.31089,22.443
19.348889351,-4.524643,14.54553,7.14440499999997,0.9897624,-0.1067934,-0.1375575,-33.54109,-29.31089,22.443
19.358887673,0.767214200000001,15.43581,6.473727,0.9835057,-0.1627784,-0.1351393,-33.54109,-29.31089,22.443
19.368885994,8.27426799999999,14.78294,5.559165,0.9871579,-0.1751784,-0.1174351,-33.54109,-29.31089,22.443
19.378883839,14.61219,13.47719,5.254312,1.001707,-0.1450819,-0.09928235,-33.93772,-28.17591,22.04714
19.388882637,16.88892,12.82431,5.376253,0.9952241,-0.08551811,-0.1079008,-33.93772,-28.17591,22.04714
19.398880482,12.27393,12.17143,5.98596099999998,1.005756,-0.04923631,-0.09548548,-33.93772,-28.17591,22.04714
19.408878327,4.828408,10.98439,6.59566799999998,0.9930705,-0.0734638,-0.06052108,-33.93772,-28.17591,22.04714
19.418877125,0.3980148,9.38187199999997,6.473727,0.9841067,-0.1405035,-0.03895227,-33.93772,-28.17591,22.04714
19.42887497,0.8287475,7.423244,5.559165,0.9875763,-0.1952498,-0.02841555,-33.55343,-28.55672,21.66495
19.438872814,4.336142,6.29554899999997,4.705575,0.9878953,-0.2122602,-0.02936888,-33.55343,-28.55672,21.66495
19.448871613,6.79747099999997,3.921454,3.912955,0.9813129,-0.1986128,-0.01069645,-33.55343,-28.55672,21.66495
19.458869457,7.35127000000003,2.140883,3.303247,0.9850045,-0.1615733,-0.006883811,-33.55343,-28.55672,21.66495
19.468867779,4.274609,0.5383689,2.75451,0.9980063,-0.128032,-0.03371537,-34.68354,-28.18862,21.20307
19.4788661,-1.571049,-0.826735599999998,2.449656,0.9932503,-0.1345529,-0.0456698,-34.68354,-28.18862,21.20307
19.488864422,-6.30910700000001,-1.717021,2.632569,0.9859048,-0.184886,-0.06047989,-34.68354,-28.18862,21.20307
19.498862267,-7.04750599999997,-2.904068,2.388686,0.9946946,-0.2119865,-0.0671883,-34.68354,-28.18862,21.20307
19.508860111,-4.770776,-2.844716,2.144803,1.002006,-0.1868187,-0.09400778,-34.68354,-28.18862,21.20307
19.51885891,-4.83231,-2.547954,1.839949,1.008406,-0.1386805,-0.10456,-34.30292,-28.56235,21.65939
19.528856754,-6.862906,-1.538964,1.352183,0.9997767,-0.120451,-0.1117283,-34.30292,-28.56235,21.65939
19.538855076,-10.24723,-1.064145,1.230241,0.9930358,-0.1250673,-0.1236798,-34.30292,-28.56235,21.65939
19.548853397,-11.53943,-0.4706214,1.047329,0.9951949,-0.1625913,-0.1399455,-34.30292,-28.56235,21.65939
19.558851242,-9.01656900000002,0.004197581,1.047329,1.000884,-0.179907,-0.1327723,-34.30292,-28.56235,21.65939
19.568849564,-5.078443,0.3009594,0.803446099999999,1.006171,-0.1758492,-0.1256039,-34.67568,-28.56897,21.2051
19.578847885,-1.632582,0.8351307,0.4376215,1.015585,-0.158165,-0.1251463,-34.67568,-28.56897,21.2051
19.588846207,0.4595481,1.30995,-0.05014454,1.005127,-0.1462406,-0.1270454,-34.67568,-28.56897,21.2051
19.598844052,0.2749484,2.022178,-0.1720861,0.9999199,-0.128311,-0.1212981,-34.67568,-28.56897,21.2051
19.60884285,-1.324916,2.31894,-0.2330568,1.002045,-0.1374142,-0.1117279,-34.67568,-28.56897,21.2051
19.618840694,-1.940248,3.031168,-0.2330568,0.9952865,-0.1666647,-0.1074014,-34.31864,-27.80164,21.65533
19.628838539,0.5210813,3.446635,-0.2330568,1.005618,-0.1973898,-0.08874702,-34.31864,-27.80164,21.65533
19.638837337,4.028476,4.633682,-0.2330568,1.009212,-0.2069806,-0.08252934,-34.31864,-27.80164,21.65533
19.648835182,7.35127000000003,5.405263,0.1327677,0.9980418,-0.2092503,-0.09399509,-34.31864,-27.80164,21.65533
19.658833504,9.87413200000002,6.117492,0.803446099999999,0.9720528,-0.2004958,-0.09012344,-34.31864,-27.80164,21.65533
19.668831825,10.61253,4.989797,1.230241,0.96223,-0.1706273,-0.09729265,-34.67766,-28.56516,21.6566
19.678830147,11.04326,3.862102,0.986358399999998,0.992345,-0.1393566,-0.09065314,-34.67766,-28.56516,21.6566
19.688827991,12.52006,3.387283,0.31568,1.012176,-0.1053778,-0.08447497,-34.67766,-28.56516,21.6566
19.69882679,12.52006,2.853111,0.1327677,1.003565,-0.06169915,-0.07202822,-34.67766,-28.56516,21.6566
19.708824634,10.24333,1.547359,0.4985923,0.9964481,-0.04567647,-0.05814124,-34.67766,-28.56516,21.6566
19.718822479,7.47433699999998,0.5383689,0.986358399999998,1.000166,-0.06219522,-0.06580068,-34.68354,-28.18862,21.20307
19.728821278,6.36673800000001,0.004197581,1.291212,0.9990311,-0.1054138,-0.06004466,-34.68354,-28.18862,21.20307
19.738819122,8.27426799999999,0.5383689,1.352183,1.011902,-0.1677319,-0.04760808,-34.68354,-28.18862,21.20307
19.748816967,14.18146,1.369302,1.657037,0.9975629,-0.209001,-0.06575834,-34.68354,-28.18862,21.20307
19.758815765,18.98105,0.8351307,2.449656,0.9860563,-0.1940291,-0.1040282,-34.68354,-28.18862,21.20307
19.76881361,22.30384,1.131893,2.632569,1.001006,-0.1596915,-0.1011917,-35.06812,-27.80726,21.64977
19.778811932,21.25778,1.488007,2.876452,0.9899606,-0.1167881,-0.1150622,-35.06812,-27.80726,21.64977
19.788809776,17.62732,0.597721199999998,3.059364,0.9902692,-0.08129516,-0.1136361,-35.06812,-27.80726,21.64977
19.798808575,15.04292,0.4196641,3.181306,1.013854,-0.06578695,-0.1160741,-35.06812,-27.80726,21.64977
19.808806419,11.59706,1.07254,3.425189,1.010882,-0.06276333,-0.09788381,-35.06812,-27.80726,21.64977
19.818804264,10.30486,0.657073599999999,3.851984,0.9895248,-0.1446919,-0.08346821,-35.06812,-27.80726,21.64977
19.828803062,18.85798,0.1229023,4.949458,0.986626,-0.1455456,-0.06431989,-35.06812,-27.80726,21.64977
19.838800907,26.54964,0.4790165,6.77858100000002,0.9819856,-0.08000444,-0.06097864,-35.06812,-27.80726,21.64977
19.848798752,30.61083,1.369302,7.57120099999999,1.023028,-0.03476765,-0.0916907,-35.06812,-27.80726,21.64977
19.85879755,29.0725,2.496997,6.96149300000002,1.038065,-0.05825635,-0.1419614,-35.06812,-27.80726,21.64977
19.868795395,25.56511,2.022178,6.35178600000003,1.01722,-0.1424826,-0.1672679,-34.71697,-26.66338,21.64646
19.878793716,26.54964,1.844121,7.205376,0.9979774,-0.1809934,-0.1389884,-34.71697,-26.66338,21.64646
19.888792038,27.9649,3.505987,8.668674,1.000981,-0.13251,-0.1045487,-34.71697,-26.66338,21.64646
19.898790359,24.88824,5.167854,9.70517700000002,1.00102,-0.08232565,-0.09020437,-34.71697,-26.66338,21.64646
19.908788204,20.82705,5.998787,10.071,0.9940071,-0.07231207,-0.09593764,-34.71697,-26.66338,21.64646
19.918787003,16.58125,5.345911,10.071,1.013761,-0.1130435,-0.1289833,-35.10493,-26.27549,22.86716
19.928784847,13.87379,5.702025,9.217411,1.014162,-0.1600711,-0.1179647,-35.10493,-26.27549,22.86716
19.938782692,11.41246,5.167854,7.81508400000003,0.9972426,-0.2176753,-0.05714119,-35.10493,-26.27549,22.86716
19.94878149,12.70466,4.396273,7.022464,0.9695679,-0.2479776,-0.01640617,-35.10493,-26.27549,22.86716
19.958779335,13.07386,2.971816,6.59566799999998,0.9695686,-0.2471846,0.01709395,-35.10493,-26.27549,22.86716
19.96877718,12.58159,2.140883,6.473727,0.9829223,-0.2319355,0.008452371,-35.86031,-25.90457,22.40807
19.978775978,9.25880099999997,1.250597,6.04693200000002,0.970435,-0.2164138,-0.020723,-35.86031,-25.90457,22.40807
19.988773823,4.213075,-0.589326100000003,5.559165,0.9792613,-0.219812,-0.03940197,-35.86031,-25.90457,22.40807
19.998772144,2.982411,-1.242202,4.949458,0.9832191,-0.2232275,-0.04945809,-35.86031,-25.90457,22.40807
20.008770466,3.720809,-2.251192,4.522663,0.9883473,-0.2110347,-0.05569166,-35.12405,-25.50824,23.63711
20.018768787,4.828408,-2.785364,4.156838,0.9931856,-0.1832361,-0.05522868,-35.12405,-25.50824,23.63711
20.028766632,5.566806,-2.785364,3.973926,1.004528,-0.1645988,-0.06099616,-35.12405,-25.50824,23.63711
20.03876543,5.87447300000001,-3.082125,4.156838,1.004842,-0.1297189,-0.07344867,-35.12405,-25.50824,23.63711
20.048763275,3.966942,-3.556944,4.034896,1.00429,-0.1519998,-0.06434902,-35.12405,-25.50824,23.63711
20.05876112,2.859344,-4.150468,3.791013,0.9881836,-0.2286897,-0.07291557,-35.12852,-25.13442,22.86108
20.068759918,7.96660199999998,-4.565935,3.303247,0.9810875,-0.2656299,-0.05853641,-35.12852,-25.13442,22.86108
20.078757763,12.64313,-4.20982,3.54713,0.985644,-0.2227376,-0.0542482,-35.12852,-25.13442,22.86108
20.088755608,12.76619,-3.616297,3.851984,0.9887561,-0.2073058,-0.07387922,-35.12852,-25.13442,22.86108
20.098754406,12.76619,-4.091116,4.27878,0.9823309,-0.1769807,-0.09158314,-35.12852,-25.13442,22.86108
20.108752251,12.15086,-3.43824,4.095867,1.00412,-0.1698523,-0.1031088,-35.89712,-24.3728,23.62546
20.118750572,10.7356,-2.547954,4.095867,0.9991914,-0.1671086,-0.1112367,-35.89712,-24.3728,23.62546
20.128748894,10.05873,-1.420259,4.27878,0.9923694,-0.1673223,-0.1198391,-35.89712,-24.3728,23.62546
20.138747215,8.705001,-0.708030899999999,4.827517,0.9880471,-0.1452343,-0.1394589,-35.89712,-24.3728,23.62546
20.14874506,2.305545,-0.3519166,5.0714,1.024426,-0.1362326,-0.1371317,-35.89712,-24.3728,23.62546
20.158743858,-4.586177,1.488007,4.583633,1.008175,-0.1786902,-0.121778,-35.15131,-24.36009,24.46953
20.168741703,-8.27817099999997,3.149873,4.949458,0.9834639,-0.2115172,-0.09779771,-35.15131,-24.36009,24.46953
20.178739548,-7.97050500000002,4.455625,5.681107,0.9866185,-0.223485,-0.08487857,-35.15131,-24.36009,24.46953
20.188737869,-5.201509,5.405263,5.376253,0.9995159,-0.2095931,-0.08155461,-35.15131,-24.36009,24.46953
20.198736191,-3.540112,5.702025,4.827517,0.9924384,-0.1962055,-0.09016009,-35.15131,-24.36009,24.46953
20.208734512,-3.047846,5.58332,4.217809,0.9934859,-0.2000636,-0.08920377,-36.27972,-23.99525,23.62066
20.218732357,-1.694115,5.998787,3.851984,0.9993771,-0.2023681,-0.08825628,-36.27972,-23.99525,23.62066
20.228730679,-0.6480501,5.76137699999998,4.156838,0.9911333,-0.1780409,-0.06719083,-36.27972,-23.99525,23.62066
20.238729,-1.509515,5.405263,4.827517,0.9806936,-0.1406762,-0.0504321,-36.27972,-23.99525,23.62066
20.248726845,-3.540112,4.693035,5.0714,0.9987462,-0.1417071,-0.04280609,-36.27972,-23.99525,23.62066
20.258725643,-4.64771,4.336921,4.766546,0.9992091,-0.1665556,-0.05093629,-35.15381,-23.99008,23.24199
20.268723488,-6.30910700000001,3.624692,4.766546,0.994211,-0.2118864,-0.05522309,-35.15381,-23.99008,23.24199
20.278721333,-6.001441,3.684045,4.095867,0.986042,-0.2442208,-0.06620777,-35.15381,-23.99008,23.24199
20.288720131,-4.278511,3.802749,3.54713,0.9924654,-0.2233168,-0.0791459,-35.15381,-23.99008,23.24199
20.298717976,-6.001441,4.158864,3.425189,0.9987368,-0.1940584,-0.08155724,-35.15381,-23.99008,23.24199
20.308716297,-9.75496900000002,4.336921,3.54713,0.9888994,-0.1887495,-0.06431273,-36.2842,-23.62143,22.84462
20.318714619,-10.5549,4.277568,3.730042,0.9895145,-0.1955317,-0.0633549,-36.2842,-23.62143,22.84462
20.32871294,-8.83197000000002,4.099511,3.364218,0.9974658,-0.1779114,-0.06672333,-36.2842,-23.62143,22.84462
20.338710785,-9.13963599999997,3.980806,3.608101,1.005083,-0.1422126,-0.05861001,-36.2842,-23.62143,22.84462
20.348709583,-11.90863,3.921454,3.912955,0.9916618,-0.1541755,-0.06241215,-36.2842,-23.62143,22.84462
20.358707428,-12.52396,3.56534,3.425189,0.9929164,-0.221351,-0.07771146,-35.90329,-23.99571,23.23643
20.368705273,-9.93956800000001,3.56534,2.632569,0.9968887,-0.2771426,-0.07626829,-35.90329,-23.99571,23.23643
20.378704071,-5.201509,3.624692,2.632569,1.002644,-0.27213,-0.07197244,-35.90329,-23.99571,23.23643
20.388701916,-2.55558,3.684045,2.510627,0.9898158,-0.2115531,-0.06239415,-35.90329,-23.99571,23.23643
20.398699761,-5.201509,3.446635,2.449656,0.988806,-0.1575414,-0.0523562,-35.90329,-23.99571,23.23643
20.408698559,-9.508835,3.387283,2.571598,0.9915139,-0.1456937,-0.03800669,-35.89373,-24.37933,22.85146
20.418696404,-11.97016,2.675054,2.510627,0.9915888,-0.1759346,-0.05044201,-35.89373,-24.37933,22.85146
20.428694725,-11.2933,2.496997,2.69354,0.9939998,-0.2263986,-0.04756176,-35.89373,-24.37933,22.85146
20.438693047,-7.66283799999999,2.615702,1.778978,0.9850331,-0.2678852,-0.04801403,-35.89373,-24.37933,22.85146
20.448691368,-2.124848,2.022178,1.1083,0.9780483,-0.2857232,-0.07049033,-35.89373,-24.37933,22.85146
20.458689213,3.105477,1.844121,1.169271,0.9939013,-0.2474145,-0.06047773,-35.89175,-24.38314,22.39996
20.468688011,3.597743,0.657073599999999,1.535095,0.9848003,-0.1781836,-0.06909406,-35.89175,-24.38314,22.39996
20.478685856,-1.017249,-0.3519166,2.876452,1.007863,-0.1078567,-0.02751626,-35.89175,-24.38314,22.39996
20.488683701,-7.35517199999998,0.2416071,2.449656,0.9957418,-0.1373798,-0.04136623,-35.89175,-24.38314,22.39996
20.498682499,-11.4779,-0.4706214,2.144803,0.9869365,-0.2133388,-0.03893845,-35.89175,-24.38314,22.39996
20.508680344,-9.75496900000002,-1.064145,1.352183,0.9812303,-0.272732,-0.03843463,-35.89175,-24.38314,22.39996
20.518678188,-3.847778,-1.717021,0.925387699999998,0.978196,-0.2670264,-0.04560945,-35.89175,-24.38314,22.39996
20.528676987,-0.03271778,-1.717021,0.2547093,0.9821885,-0.2203849,-0.05519994,-35.89175,-24.38314,22.39996
20.538674832,-1.140316,-2.310545,0.01082622,0.9941747,-0.2099389,-0.05474495,-35.89175,-24.38314,22.39996
20.548673153,-2.186381,-2.42925,-0.3549984,0.9796861,-0.2171248,-0.06524651,-35.89175,-24.38314,22.39996
20.558671475,-2.063314,-2.073135,-0.5379106,0.9822856,-0.2258292,-0.06620596,-36.2665,-24.38596,22.39718
20.568669796,-1.509515,-2.251192,-0.720822899999998,0.9878183,-0.2349133,-0.06190608,-36.2665,-24.38596,22.39718
20.578667641,-0.709583300000001,-1.717021,-0.7817937,0.9853108,-0.2310446,-0.05855267,-36.2665,-24.38596,22.39718
20.588666439,-1.632582,-1.479612,-1.086647,0.9877783,-0.23308,-0.07387088,-36.2665,-24.38596,22.39718
20.598664284,-1.878715,-2.42925,-0.720822899999998,0.9898051,-0.2367608,-0.05568758,-36.63955,-24.39204,22.00739
20.608662129,-0.1557842,-2.013783,-0.720822899999998,0.9831613,-0.2460504,-0.04753781,-36.63955,-24.39204,22.00739
20.618659973,2.736278,-2.488602,-1.086647,0.9845197,-0.2407615,-0.05663449,-36.63955,-24.39204,22.00739
20.628658771,5.751406,-2.963421,-1.696355,0.9842114,-0.2241842,-0.04993815,-36.63955,-24.39204,22.00739
20.638656616,7.16667,-3.616297,-2.488975,0.9895608,-0.1979386,-0.06096148,-36.63955,-24.39204,22.00739
20.648655414,6.67440499999999,-3.260183,-2.123151,0.998609,-0.1352005,-0.07487211,-36.26481,-24.38923,22.01017
20.658653259,2.920877,-3.20083,-1.635384,0.9884232,-0.1378973,-0.0820323,-36.26481,-24.38923,22.01017
20.668651581,0.3980148,-3.082125,-0.964705900000002,1.004185,-0.1988452,-0.08539412,-36.26481,-24.38923,22.01017
20.678649425,2.859344,-2.844716,-0.964705900000002,0.9941881,-0.237476,-0.09015251,-36.26481,-24.38923,22.01017
20.688648224,8.52040099999998,-3.43824,-1.696355,0.9987394,-0.2460365,-0.07962956,-36.26481,-24.38923,22.01017
20.698646069,12.45853,-2.19184,-2.001209,0.9991832,-0.2178826,-0.08394477,-36.2665,-24.38596,22.39718
20.708643913,9.56646600000001,-3.082125,-1.696355,0.9764885,-0.2026493,-0.06955185,-36.2665,-24.38596,22.39718
20.718642712,5.074541,-3.022773,-1.757326,0.9846249,-0.2203061,-0.05185418,-36.2665,-24.38596,22.39718
20.728640556,5.136074,-2.904068,-1.330531,0.9868124,-0.2328403,-0.04563327,-36.2665,-24.38596,22.39718
20.738638878,8.15120200000001,-2.073135,-0.3549984,0.9847093,-0.1733216,-0.06861658,-36.2665,-24.38596,22.39718
20.748637199,6.18213799999999,-2.42925,0.7424754,1.007995,-0.09044448,-0.08973586,-35.89373,-24.37933,22.85146
20.758635044,0.1518819,-2.013783,1.047329,1.001952,-0.07976349,-0.07776367,-35.89373,-24.37933,22.85146
20.768633366,-4.216978,-2.013783,0.4985923,0.9950569,-0.2058551,-0.08824786,-35.89373,-24.37933,22.85146
20.778631687,0.3980148,-1.835726,-0.8427644,0.9865559,-0.2985142,-0.1059165,-35.89373,-24.37933,22.85146
20.788630009,7.41280299999999,-1.479612,-1.696355,0.9860228,-0.2953371,-0.07624467,-35.89373,-24.37933,22.85146
20.798627853,10.30486,-0.411269,-1.635384,0.9893927,-0.2149586,-0.06191396,-35.90329,-23.99571,23.23643
20.808626652,4.766874,0.06354995,-0.5379106,0.9880305,-0.142668,-0.07150172,-35.90329,-23.99571,23.23643
20.818624496,-2.986313,0.4790165,-0.4159691,1.002303,-0.1501479,-0.07008895,-35.90329,-23.99571,23.23643
20.828622341,-7.84743800000001,0.597721199999998,0.01082622,0.9894521,-0.1928542,-0.08919859,-35.90329,-23.99571,23.23643
20.838621139,-8.03203799999998,0.5383689,-0.5379106,0.9892237,-0.2327804,-0.0973237,-35.90329,-23.99571,23.23643
20.848618984,-4.709243,0.1229023,-1.391501,0.9837186,-0.2507857,-0.08821652,-35.52686,-23.99617,22.85221
20.858617306,-1.140316,0.597721199999998,-1.879267,0.9818317,-0.2278828,-0.07721189,-35.52686,-23.99617,22.85221
20.868615627,-0.709583300000001,0.5383689,-2.001209,1.004155,-0.1710506,-0.07487255,-35.52686,-23.99617,22.85221
20.878613949,-4.216978,1.725416,-0.964705900000002,1.003889,-0.1306131,-0.0629181,-35.52686,-23.99617,22.85221
20.888611793,-10.1857,1.191245,-0.8427644,0.9970424,-0.1813301,-0.06767887,-35.52686,-23.99617,22.85221
20.898610115,-8.46277000000003,0.5383689,-0.8427644,0.9802154,-0.2452946,-0.0647616,-35.51899,-24.37652,22.85424
20.908608437,-1.632582,0.4790165,-1.452472,0.9770597,-0.2590072,-0.06953833,-35.51899,-24.37652,22.85424
20.918606281,4.090009,0.4196641,-1.940238,0.9955922,-0.2081953,-0.07963382,-35.51899,-24.37652,22.85424
20.92860508,3.905409,0.4196641,-1.635384,0.9935573,-0.1519364,-0.08730197,-35.51899,-24.37652,22.85424
20.938602924,-0.0942510000000003,0.2416071,-2.001209,0.9939285,-0.1719448,-0.09734757,-35.51899,-24.37652,22.85424
20.948600769,-3.232446,0.1229023,-1.757326,0.9994689,-0.2072082,-0.0863409,-36.27634,-24.00179,22.84665
20.958599567,-4.586177,0.4790165,-1.696355,0.992382,-0.2189845,-0.08345406,-36.27634,-24.00179,22.84665
20.968597412,-3.970845,0.5383689,-1.26956,1.003386,-0.1816118,-0.05907549,-36.27634,-24.00179,22.84665
20.978595734,-4.83231,0.894483100000001,-0.3549984,0.9845816,-0.1401002,-0.0490033,-36.27634,-24.00179,22.84665
20.988594055,-4.709243,0.657073599999999,0.01082622,0.9825385,-0.1874524,-0.06813058,-36.27634,-24.00179,22.84665
20.998592377,-1.140316,-0.1738595,-0.4769399,0.9967557,-0.2184516,-0.087769,-35.89542,-24.37606,23.23846
21.008590221,3.474676,-0.4706214,-1.513443,0.9919762,-0.2233923,-0.08632366,-35.89542,-24.37606,23.23846
21.01858902,4.828408,-0.411269,-1.086647,0.9920907,-0.1777773,-0.09351425,-35.89542,-24.37606,23.23846
21.028586864,-0.3403839,0.3603118,0.01082622,1.005422,-0.1088734,-0.08015511,-35.89542,-24.37606,23.23846
21.038584709,-6.18604100000003,1.250597,1.413154,0.9855771,-0.1160861,-0.08203296,-35.89542,-24.37606,23.23846
21.048583508,-9.26270200000001,1.725416,2.266744,0.986598,-0.1969384,-0.104507,-35.88586,-24.75969,22.85349
21.058581352,-7.17057299999998,1.784769,1.778978,1.005148,-0.2504676,-0.09973979,-35.88586,-24.75969,22.85349
21.068579197,-2.124848,1.962826,0.864416900000002,0.985857,-0.2610009,-0.09396053,-35.88586,-24.75969,22.85349
21.078577995,0.5826145,2.081531,-0.1111153,0.9969616,-0.2289759,-0.07005934,-35.88586,-24.75969,22.85349
21.08857584,-0.6480501,2.496997,0.1937385,0.9930997,-0.1789827,-0.06815117,-35.88586,-24.75969,22.85349
21.098574162,-6.80137299999998,2.793759,1.230241,0.989383,-0.136788,-0.06911271,-36.2665,-24.38596,22.39718
21.108572483,-11.41637,2.734407,2.327715,1.006351,-0.1320354,-0.06435776,-36.2665,-24.38596,22.39718
21.118570805,-13.01623,3.031168,2.815481,0.9795625,-0.1845517,-0.06334038,-36.2665,-24.38596,22.39718
21.128568649,-8.89350299999999,2.496997,1.96189,0.9805809,-0.2390623,-0.07481394,-36.2665,-24.38596,22.39718
21.138567448,-1.817181,2.022178,1.169271,0.9835277,-0.266208,-0.07385494,-36.25864,-24.76632,22.3992
21.148565292,2.736278,1.962826,0.01082622,0.9792542,-0.272093,-0.07049595,-36.25864,-24.76632,22.3992
21.158563137,1.690213,2.259588,-0.1720861,0.979354,-0.277454,-0.07240903,-36.25864,-24.76632,22.3992
21.168561935,-3.355512,1.903473,-1.208589,0.9806499,-0.320007,-0.05230015,-36.25864,-24.76632,22.3992
21.17855978,-8.093571,1.369302,-2.428004,0.9833056,-0.3572229,-0.03602361,-36.25864,-24.76632,22.3992
21.188557625,-5.93990799999998,1.07254,-0.4159691,0.957739,-0.1368518,-0.007799798,-36.26481,-24.38923,22.01017
21.198556423,-10.3703,1.369302,3.54713,0.9977819,0.09169246,-0.02467861,-36.26481,-24.38923,22.01017
21.208554268,-20.83095,0.3603118,4.461692,1.043888,0.04912647,-0.04963398,-36.26481,-24.38923,22.01017
21.218552589,-17.32355,-1.657669,2.144803,0.9891626,-0.2036515,-0.1002026,-36.26481,-24.38923,22.01017
21.228550911,2.551678,-2.904068,-1.025677,0.982495,-0.3939618,-0.119285,-36.26481,-24.38923,22.01017
21.238549233,21.07318,-3.082125,-1.635384,0.997277,-0.3502148,-0.09682892,-35.88051,-24.77004,21.62798
21.248547077,19.84252,-2.42925,-1.696355,0.9882425,-0.2571179,-0.04658667,-35.88051,-24.77004,21.62798
21.258545876,4.705341,-2.073135,-1.879267,0.9695394,-0.3250289,-0.046058,-35.88051,-24.77004,21.62798
21.26854372,-0.832649800000001,-2.726011,-0.4159691,0.9452607,-0.329282,-0.0335716,-35.88051,-24.77004,21.62798
21.278541565,1.751746,-0.3519166,2.937423,0.9592705,-0.03822017,-0.06573556,-35.88051,-24.77004,21.62798
21.288540363,-8.58583600000001,0.953835399999999,4.583633,1.06936,0.1963875,-0.1023597,-35.88389,-24.7635,22.40199
21.298538208,-22.36928,1.369302,5.010429,1.040337,0.1067245,-0.1199933,-35.88389,-24.7635,22.40199
21.308536053,-17.50816,0.3603118,2.998394,0.9995098,-0.2113283,-0.1648264,-35.88389,-24.7635,22.40199
21.318534851,4.151542,1.013188,2.69354,1.015466,-0.360105,-0.1547658,-35.88389,-24.7635,22.40199
21.328532696,21.19625,2.081531,2.876452,1.005591,-0.3000337,-0.1006849,-35.88389,-24.7635,22.40199
21.338531017,20.76551,2.793759,2.510627,0.9746327,-0.2075015,-0.0647616,-35.88219,-24.76677,22.01498
21.348529339,9.50493299999999,2.31894,2.937423,0.965708,-0.2251103,-0.05804145,-35.88219,-24.76677,22.01498
21.35852766,0.644147799999998,2.31894,3.48616,0.9782037,-0.2932013,-0.03842408,-35.88219,-24.76677,22.01498
21.368525505,-1.078783,2.022178,2.69354,0.976523,-0.3592875,-0.03457553,-35.88219,-24.76677,22.01498
21.378524304,4.274609,0.775778400000001,0.5595631,0.9718295,-0.3941224,-0.007758116,-35.88219,-24.76677,22.01498
21.388522148,15.84286,-0.2332119,0.01082622,0.9563313,-0.2183037,-0.03744809,-35.89006,-24.38641,22.01295
21.398519993,13.38153,1.428654,1.474125,0.9981093,0.124685,-0.08403111,-35.89006,-24.38641,22.01295
21.408518791,-9.324236,0.775778400000001,3.791013,1.068544,0.1889736,-0.0611988,-35.89006,-24.38641,22.01295
21.418516636,-24.39988,0.775778400000001,5.13237,0.9993517,-0.09750175,-0.09881192,-35.89006,-24.38641,22.01295
21.428514481,-17.63122,-0.05515479,3.48616,0.9695729,-0.3806678,-0.1254874,-35.89006,-24.38641,22.01295
21.438513279,2.244012,0.3009594,2.327715,0.9957415,-0.4497404,-0.0834005,-35.88219,-24.76677,22.01498
21.448511124,12.2124,0.597721199999998,1.718008,0.9810992,-0.2660367,-0.04992195,-35.88219,-24.76677,22.01498
21.458509445,4.274609,-0.1145072,1.657037,0.9702984,-0.1834733,-0.03173849,-35.88219,-24.76677,22.01498
21.468507767,-5.570708,-0.1145072,2.449656,0.9934448,-0.2223641,-0.0303331,-35.88219,-24.76677,22.01498
21.478506088,-7.66283799999999,0.1822547,2.69354,0.9772081,-0.2667047,-0.06140082,-35.88219,-24.76677,22.01498
21.488503933,-4.83231,-0.708030899999999,2.022861,0.9816353,-0.2427053,-0.05040747,-36.27267,-24.00887,22.00815
21.498502731,-0.4019172,-0.411269,2.144803,0.9781571,-0.1361695,-0.08345058,-36.27267,-24.00887,22.00815
21.508500576,-3.417045,-0.5299737,2.327715,1.013382,-0.06610676,-0.09693015,-36.27267,-24.00887,22.00815
21.518498421,-7.78590499999999,-0.3519166,2.144803,1.012061,-0.1774047,-0.09594205,-36.27267,-24.00887,22.00815
21.528497219,-5.201509,-0.708030899999999,1.352183,0.9861071,-0.3004142,-0.1001723,-36.27267,-24.00887,22.00815
21.538495064,2.428612,-0.3519166,0.620533899999998,0.9853241,-0.3362885,-0.08915446,-35.88219,-24.76677,22.01498
21.548493385,6.05907200000001,-0.3519166,0.4376215,0.9863461,-0.2601544,-0.05567553,-35.88219,-24.76677,22.01498
21.558491707,2.859344,-0.1738595,0.3766508,0.9770718,-0.2073392,-0.05232292,-35.88219,-24.76677,22.01498
21.568490029,-1.632582,-0.2925643,0.31568,0.9867941,-0.2062279,-0.05808307,-35.88219,-24.76677,22.01498
21.578487873,-3.724712,0.1822547,-0.1111153,0.9920073,-0.2247311,-0.07340183,-35.88219,-24.76677,22.01498
21.588486195,-3.293979,0.06354995,-0.4159691,0.9874002,-0.2389363,-0.07578302,-36.25864,-24.76632,22.3992
21.598484516,-2.063314,-0.2332119,-1.086647,0.9904698,-0.24662,-0.07243636,-36.25864,-24.76632,22.3992
21.608482361,-1.140316,-0.2332119,-1.330531,0.9851884,-0.2248482,-0.0714756,-36.25864,-24.76632,22.3992
21.618481159,-1.817181,-0.5299737,-1.147618,0.9851947,-0.1990055,-0.06191075,-36.25864,-24.76632,22.3992
21.628479004,-3.232446,-0.589326100000003,-0.964705900000002,0.9915385,-0.1992959,-0.05426452,-36.25864,-24.76632,22.3992
21.638476849,-2.74018,-0.589326100000003,-0.659852100000001,0.9837121,-0.1981594,-0.07243706,-35.89006,-24.38641,22.01295
21.648475647,-1.017249,-1.064145,-0.720822899999998,0.9954646,-0.2013902,-0.07915677,-35.89006,-24.38641,22.01295
21.658473492,0.5210813,-1.18285,-0.7817937,0.99275,-0.2126775,-0.08537062,-35.89006,-24.38641,22.01295
21.668471813,1.690213,-1.18285,-0.964705900000002,0.9821448,-0.2186657,-0.07960768,-35.89006,-24.38641,22.01295
21.678470135,2.551678,-0.826735599999998,-0.7817937,0.9908022,-0.212694,-0.08297434,-35.89793,-24.00606,22.01093
21.688468456,1.690213,-0.589326100000003,-0.598881400000002,0.9881883,-0.2028997,-0.06909361,-35.89793,-24.00606,22.01093
21.698466301,0.4595481,-0.5299737,0.0717969800000001,0.983732,-0.1990782,-0.06669394,-35.89793,-24.00606,22.01093
21.708465099,-0.03271778,-0.648678499999998,-0.1111153,0.9887836,-0.2087587,-0.07340032,-35.89793,-24.00606,22.01093
21.718462944,1.382547,-0.708030899999999,-0.2940276,0.9899486,-0.2189668,-0.07627118,-35.89793,-24.00606,22.01093
21.728460789,3.105477,-0.767383199999997,-0.3549984,0.9976143,-0.2120209,-0.07724348,-36.2665,-24.38596,22.39718
21.738459587,3.474676,-0.767383199999997,-0.2940276,0.9896743,-0.2044115,-0.07818875,-36.2665,-24.38596,22.39718
21.748457432,2.736278,-0.886087999999999,-0.05014454,0.9931969,-0.2100679,-0.06670761,-36.2665,-24.38596,22.39718
21.758455276,2.613211,-0.767383199999997,-0.2330568,0.979798,-0.2228794,-0.05710944,-36.2665,-24.38596,22.39718
21.768454075,3.228544,-0.9454404,-0.05014454,0.987344,-0.2096494,-0.06143318,-36.2665,-24.38596,22.39718
21.77845192,3.105477,-0.411269,0.3766508,0.9891248,-0.1753316,-0.08537392,-35.51701,-24.38033,22.40274
21.788450241,0.0903486900000002,-0.3519166,0.3766508,1.001386,-0.179419,-0.08060848,-35.51701,-24.38033,22.40274
21.798448563,-1.324916,-0.411269,0.3766508,0.9929326,-0.2223884,-0.08488986,-35.51701,-24.38033,22.40274
21.808446884,1.505613,0.004197581,0.1937385,0.9865593,-0.2463517,-0.08774404,-35.51701,-24.38033,22.40274
21.818444729,4.213075,0.2416071,0.0717969800000001,0.9928634,-0.2183837,-0.07196923,-35.51701,-24.38033,22.40274
21.828443527,4.028476,0.3009594,0.01082622,0.9973994,-0.2002353,-0.06336743,-36.2665,-24.38596,22.39718
21.838441372,2.428612,-0.411269,-0.3549984,0.9831607,-0.2204271,-0.06190169,-36.2665,-24.38596,22.39718
21.848439217,2.059412,-0.708030899999999,-0.3549984,0.9859341,-0.2383434,-0.06094476,-36.2665,-24.38596,22.39718
21.858438015,3.53621,-0.4706214,-0.4769399,0.987433,-0.2145772,-0.06908928,-36.2665,-24.38596,22.39718
21.86843586,2.244012,-0.3519166,-0.2940276,0.9865522,-0.193743,-0.07387887,-36.2665,-24.38596,22.39718
21.878433704,0.2134152,-0.2925643,-0.1111153,0.9914761,-0.1966227,-0.08058677,-36.2665,-24.38596,22.39718
21.888432503,-0.4019172,-0.1145072,-0.2940276,0.9901916,-0.2321877,-0.08775403,-36.2665,-24.38596,22.39718
21.898430347,1.44408,-0.3519166,-0.4159691,0.9893091,-0.2370469,-0.08583692,-36.2665,-24.38596,22.39718
21.908428669,3.413143,-0.1738595,-0.659852100000001,0.9885406,-0.2219541,-0.08105371,-36.2665,-24.38596,22.39718
21.91842699,3.720809,-0.411269,-0.2940276,0.9912585,-0.1849206,-0.07580365,-36.2665,-24.38596,22.39718
21.928425312,3.105477,0.004197581,0.2547093,0.9906372,-0.1519151,-0.07868252,-35.51701,-24.38033,22.40274
21.938423157,1.690213,0.2416071,0.681504599999997,0.9998418,-0.1494571,-0.09544937,-35.51701,-24.38033,22.40274
21.948421955,0.705681,0.4196641,0.2547093,1.009703,-0.2076147,-0.09975877,-35.51701,-24.38033,22.40274
21.9584198,2.613211,0.4196641,-0.4769399,0.9945226,-0.2555457,-0.1006771,-35.51701,-24.38033,22.40274
21.968417644,4.828408,0.4196641,-1.025677,0.9824133,-0.2590462,-0.08534066,-35.51701,-24.38033,22.40274
21.978416443,4.582274,0.4790165,-1.025677,0.9883083,-0.2348159,-0.05233544,-36.25694,-24.76958,22.0122
21.988414288,2.428612,0.2416071,-0.4769399,0.975163,-0.2092242,-0.04179044,-36.25694,-24.76958,22.0122
21.998412132,-0.2788507,0.3603118,-0.2940276,0.9754178,-0.1972022,-0.05615126,-36.25694,-24.76958,22.0122
22.008410931,-2.370981,-0.05515479,-0.4769399,1.00066,-0.1925055,-0.0753395,-36.25694,-24.76958,22.0122
22.018408775,-2.801713,0.004197581,-0.598881400000002,0.9988732,-0.2013579,-0.08299133,-36.25694,-24.76958,22.0122
22.028407097,-2.74018,0.3009594,-0.7817937,0.9902772,-0.2108045,-0.08775968,-36.26848,-24.38214,22.84868
22.038405418,-2.001781,0.775778400000001,-0.4159691,0.9965393,-0.2067099,-0.0786787,-36.26848,-24.38214,22.84868
22.04840374,-2.001781,1.013188,-0.4769399,0.9875696,-0.2218724,-0.07004479,-36.26848,-24.38214,22.84868
22.058402061,-0.894183000000003,1.131893,-0.05014454,0.9798685,-0.2268401,-0.06524432,-36.26848,-24.38214,22.84868
22.068400383,0.8287475,1.606712,0.0717969800000001,0.9801412,-0.2158028,-0.08104066,-36.26848,-24.38214,22.84868
22.078398228,0.2749484,1.666064,-0.1111153,0.9981354,-0.2140333,-0.08585824,-35.89373,-24.37933,22.85146
22.088397026,-1.324916,1.666064,-0.1720861,0.9864385,-0.2136908,-0.07626642,-35.89373,-24.37933,22.85146
22.098394871,-1.201849,1.844121,-0.1720861,0.9894773,-0.2200225,-0.08440588,-35.89373,-24.37933,22.85146
22.108392715,-0.0942510000000003,2.200235,0.864416900000002,0.9867815,-0.2058475,-0.06956897,-35.89373,-24.37933,22.85146
22.118391514,-0.4634504,2.31894,0.620533899999998,0.9920769,-0.2023106,-0.06622908,-35.89373,-24.37933,22.85146
22.128389359,-0.3403839,2.31894,0.3766508,0.9901429,-0.2290843,-0.06717596,-35.90748,-23.62243,22.3959
22.138387203,1.751746,2.615702,0.1327677,0.9773637,-0.2236591,-0.08390524,-35.90748,-23.62243,22.3959
22.148386002,2.920877,2.496997,0.925387699999998,0.98907,-0.1980623,-0.07340357,-35.90748,-23.62243,22.3959
22.158383846,2.613211,2.793759,1.474125,1.003574,-0.1919488,-0.07390901,-35.90748,-23.62243,22.3959
22.168382168,2.920877,3.268578,1.96189,0.9819924,-0.1846791,-0.08248763,-35.90748,-23.62243,22.3959
22.178380489,3.043944,3.32793,1.535095,0.9940346,-0.2291698,-0.08489004,-35.89962,-24.00279,22.39793
22.188378811,6.05907200000001,2.912464,0.7424754,0.9941243,-0.2597165,-0.07770368,-35.89962,-24.00279,22.39793
22.198376656,8.58193500000002,3.031168,0.4376215,0.9800199,-0.2088002,-0.05902775,-35.89962,-24.00279,22.39793
22.208375454,4.951474,3.32793,0.803446099999999,0.9866179,-0.1706699,-0.0485204,-35.89962,-24.00279,22.39793
22.218373299,-1.447982,3.387283,1.352183,0.9881353,-0.2255733,-0.05090179,-36.6491,-24.00842,22.39237
22.228371143,-1.694115,3.505987,1.047329,0.9837015,-0.2754243,-0.07241714,-36.6491,-24.00842,22.39237
22.238369942,2.613211,4.396273,1.352183,0.9929786,-0.224804,-0.0834536,-36.6491,-24.00842,22.39237
22.248367786,1.936346,4.989797,1.230241,0.9989572,-0.1800275,-0.08873989,-36.6491,-24.00842,22.39237
22.258365631,-0.894183000000003,4.989797,0.620533899999998,1.008201,-0.2050612,-0.08300664,-36.6491,-24.00842,22.39237
22.26836443,-1.755648,5.108501,-0.4159691,0.9918657,-0.2432391,-0.07770399,-36.63955,-24.39204,22.00739
22.278362274,0.2749484,5.345911,0.2547093,0.9817395,-0.2222849,-0.04945575,-36.63955,-24.39204,22.00739
22.288360596,-0.586516899999998,5.82073000000003,0.803446099999999,0.9881282,-0.1993808,-0.05617286,-36.63955,-24.39204,22.00739
22.298358917,-4.155444,6.41425300000001,0.620533899999998,0.9897456,-0.2075792,-0.05282353,-36.63955,-24.39204,22.00739
22.308357239,-5.509175,5.702025,-0.4769399,0.9911361,-0.2556555,-0.052335,-36.63955,-24.39204,22.00739
22.318355084,-3.847778,5.405263,-1.818297,0.9928321,-0.2683355,-0.06094906,-36.27267,-24.00887,22.00815
22.328353882,-4.216978,4.752387,-2.488975,0.9828879,-0.2314688,-0.04658394,-36.27267,-24.00887,22.00815
22.338351727,-8.955036,4.752387,-2.732858,0.9879488,-0.2152143,-0.03367539,-36.27267,-24.00887,22.00815
22.348349571,-13.01623,4.336921,-2.06218,0.9841598,-0.1947568,-0.02027392,-36.27267,-24.00887,22.00815
22.35834837,-14.49303,4.099511,-1.086647,0.9800782,-0.1851888,-0.02792649,-36.27267,-24.00887,22.00815
22.368346214,-15.04683,3.32793,-2.184121,0.995145,-0.2092715,-0.0370395,-36.27098,-24.01214,21.62115
22.378344536,-12.15476,2.496997,-2.91577,0.9955902,-0.2331309,-0.04325562,-36.27098,-24.01214,21.62115
22.388342857,-6.98597300000001,1.488007,-3.952273,0.9878274,-0.2610443,-0.04993496,-36.27098,-24.01214,21.62115
22.398340702,-1.386449,1.428654,-3.647419,0.9882643,-0.2323344,-0.04659308,-36.27098,-24.01214,21.62115
22.408339024,0.951813900000003,1.250597,-3.098683,0.992489,-0.1977053,-0.04182361,-36.27098,-24.01214,21.62115
22.418337345,0.2134152,1.131893,-3.098683,0.9909449,-0.1933842,-0.04421491,-36.62999,-24.77567,21.62242
22.428335667,-0.03271778,0.4790165,-3.037712,0.9883396,-0.210505,-0.05090602,-36.62999,-24.77567,21.62242
22.438333511,1.690213,-0.1738595,-2.91577,0.9933667,-0.2186361,-0.04756266,-36.62999,-24.77567,21.62242
22.44833231,5.013007,-0.1145072,-2.610917,0.9986076,-0.1865305,-0.05523728,-36.62999,-24.77567,21.62242
22.458330155,5.013007,-0.1738595,-2.549946,0.995995,-0.1510514,-0.04902037,-36.62999,-24.77567,21.62242
22.468327999,3.597743,-0.411269,-2.549946,1.000884,-0.178343,-0.06816491,-36.62801,-24.77948,21.17092
22.478326798,4.705341,-0.4706214,-2.245092,0.9980431,-0.2084398,-0.05858069,-36.62801,-24.77948,21.17092
22.488324642,6.98206999999997,-0.5299737,-2.488975,0.9935384,-0.2279182,-0.05330348,-36.62801,-24.77948,21.17092
22.498322964,8.76653499999999,-0.648678499999998,-2.367033,0.9847448,-0.2265814,-0.04754559,-36.62801,-24.77948,21.17092
22.508321285,9.68953300000002,-0.589326100000003,-2.610917,0.9871816,-0.2264938,-0.04324267,-36.62801,-24.77948,21.17092
22.518319607,9.62799900000003,-1.004793,-2.549946,0.9836224,-0.2188987,-0.05520282,-35.88219,-24.76677,22.01498
22.528317452,7.96660199999998,-0.708030899999999,-2.367033,0.9934621,-0.1720759,-0.05762491,-35.88219,-24.76677,22.01498
22.53831625,2.059412,-0.708030899999999,-2.245092,0.9939119,-0.1701495,-0.06049765,-35.88219,-24.76677,22.01498
22.548314095,-1.447982,-1.064145,-2.732858,0.9975003,-0.2312064,-0.04948093,-35.88219,-24.76677,22.01498
22.558311939,-0.5249836,-1.242202,-3.586449,0.9785547,-0.2858833,-0.0360337,-35.88219,-24.76677,22.01498
22.568310738,3.843876,-1.717021,-4.379068,0.9721798,-0.2834787,-0.02501595,-35.52149,-24.00652,21.62671
22.578308582,6.18213799999999,-1.895078,-4.074214,0.9756616,-0.2096258,-0.03365541,-35.52149,-24.00652,21.62671
22.588307381,1.25948,-2.19184,-3.830332,0.9857783,-0.1516295,-0.03703801,-35.52149,-24.00652,21.62671
22.598305226,-4.340044,-2.666659,-3.647419,0.996273,-0.1654882,-0.03418128,-35.52149,-24.00652,21.62671
22.60830307,-4.955376,-1.835726,-3.098683,0.9916122,-0.20316,-0.05187077,-35.52149,-24.00652,21.62671
22.618301868,-2.370981,-2.844716,-2.976741,0.9889039,-0.2150209,-0.06765601,-36.63786,-24.39531,21.62039
22.628299713,0.705681,-3.022773,-2.976741,0.9882639,-0.2067024,-0.05999981,-36.63786,-24.39531,21.62039
22.638298035,2.920877,-3.082125,-3.220624,0.9905267,-0.1974072,-0.05809185,-36.63786,-24.39531,21.62039
22.648296356,4.459208,-3.022773,-2.732858,0.993262,-0.1613716,-0.05571302,-36.63786,-24.39531,21.62039
22.658294678,3.843876,-2.904068,-1.879267,0.9974742,-0.126362,-0.06242944,-36.63786,-24.39531,21.62039
22.668292522,0.4595481,-3.20083,-1.757326,1.001487,-0.1583417,-0.06099247,-36.26311,-24.3925,21.62317
22.678291321,-2.801713,-3.082125,-1.940238,0.9787607,-0.220243,-0.08534429,-36.26311,-24.3925,21.62317
22.688289165,-3.355512,-2.904068,-2.488975,0.987584,-0.275024,-0.09013133,-36.26311,-24.3925,21.62317
22.69828701,-0.894183000000003,-2.547954,-2.245092,0.9900635,-0.25027,-0.04563445,-36.26311,-24.3925,21.62317
22.708285808,0.644147799999998,-2.073135,-1.391501,0.9821256,-0.1905375,-0.03271444,-36.26311,-24.3925,21.62317
22.718283653,-1.201849,-2.369897,-1.513443,0.9813397,-0.1488016,-0.037031,-35.89006,-24.38641,22.01295
22.728281498,-4.278511,-2.666659,-2.184121,0.9887941,-0.1827886,-0.0499568,-35.89006,-24.38641,22.01295
22.738280296,-4.64771,-2.963421,-2.428004,0.9925399,-0.2271546,-0.07388071,-35.89006,-24.38641,22.01295
22.748278141,-0.709583300000001,-2.904068,-2.306063,1.006325,-0.2090165,-0.08635239,-35.89006,-24.38641,22.01295
22.758276462,0.767214200000001,-2.013783,-1.635384,0.9929208,-0.1435125,-0.06815999,-36.25694,-24.76958,22.0122
22.768274784,-2.309447,-1.895078,-1.330531,0.993214,-0.1590174,-0.06384933,-36.25694,-24.76958,22.0122
22.778273106,-2.494047,-1.538964,-2.001209,0.9894835,-0.2198294,-0.06334859,-36.25694,-24.76958,22.0122
22.78827095,0.767214200000001,-1.18285,-2.123151,0.9806473,-0.2431547,-0.09730608,-36.25694,-24.76958,22.0122
22.798269749,2.244012,-1.301555,-1.452472,0.9939728,-0.2000583,-0.08968319,-36.25694,-24.76958,22.0122
22.808267593,-0.832649800000001,-0.4706214,-0.8427644,0.9958208,-0.1426193,-0.08300114,-36.62551,-25.14948,22.39845
22.818265438,-6.30910700000001,-0.2925643,-0.7817937,0.9918547,-0.165108,-0.08920992,-36.62551,-25.14948,22.39845
22.828264236,-6.43217400000002,-0.3519166,0.4376215,1.004126,-0.1696592,-0.0820515,-36.62551,-25.14948,22.39845
22.838262081,-3.417045,0.5383689,0.5595631,0.9967835,-0.1678342,-0.07916772,-36.62551,-25.14948,22.39845
22.848259926,-0.4019172,0.597721199999998,0.31568,0.990456,-0.1685767,-0.09351377,-36.62551,-25.14948,22.39845
22.858258724,-0.03271778,0.2416071,-0.5379106,0.9880009,-0.1933381,-0.0858459,-35.86478,-25.53075,21.63204
22.868256569,0.1518819,0.3603118,-0.7817937,1.000497,-0.2101254,-0.08873482,-35.86478,-25.53075,21.63204
22.87825489,-2.863246,1.013188,-0.4769399,0.9991021,-0.2134756,-0.08011716,-35.86478,-25.53075,21.63204
22.888253212,-7.78590499999999,0.3603118,-0.1111153,1.001418,-0.2063635,-0.05140847,-35.86478,-25.53075,21.63204
22.898251533,-9.878035,0.3603118,0.4376215,0.9879833,-0.1908025,-0.02123876,-35.86478,-25.53075,21.63204
22.908249378,-7.539772,0.3603118,1.535095,0.9739414,-0.1697467,-0.02648404,-35.4996,-25.14431,22.01979
22.918248177,-5.386109,0.004197581,1.230241,0.9861763,-0.1731128,-0.04899757,-35.4996,-25.14431,22.01979
22.928246021,-2.001781,-1.004793,-0.1111153,0.9981669,-0.2153633,-0.07197925,-35.4996,-25.14431,22.01979
22.93824482,2.428612,-1.301555,-1.330531,0.9898944,-0.2680918,-0.0810442,-35.4996,-25.14431,22.01979
22.948242664,5.81293900000002,-1.598316,-2.123151,0.9889877,-0.2978135,-0.08773503,-35.4996,-25.14431,22.01979
22.958240509,6.48980500000002,-1.301555,-2.976741,0.9879624,-0.2948041,-0.07529103,-35.48387,-25.90503,22.02385
22.968239307,5.751406,-1.360907,-3.952273,1.000639,-0.2685488,-0.04804106,-35.48387,-25.90503,22.02385
22.978237152,5.689873,-1.895078,-3.464507,0.9832025,-0.1701462,-0.03702876,-35.48387,-25.90503,22.02385
22.988234997,0.644147799999998,-2.073135,-2.610917,0.9841238,-0.03739139,-0.02892875,-35.48387,-25.90503,22.02385
22.998233795,-6.98597300000001,-3.082125,-2.367033,1.011111,-0.07333452,-0.03231657,-35.48387,-25.90503,22.02385
23.00823164,-7.35517199999998,-3.794354,-2.549946,0.9971914,-0.1890058,-0.05714848,-35.86281,-25.53456,21.18054
23.018229961,0.2749484,-4.803344,-3.220624,0.979534,-0.261603,-0.0929922,-35.86281,-25.53456,21.18054
23.028228283,10.1818,-5.337515,-3.952273,0.9895025,-0.2471909,-0.07961316,-35.86281,-25.53456,21.18054
23.038226604,14.48913,-4.981401,-2.428004,0.9878615,-0.1333025,-0.05666798,-35.86281,-25.53456,21.18054
23.048224449,10.30486,-4.625287,-0.964705900000002,0.9894017,-0.06004397,-0.07296111,-35.86281,-25.53456,21.18054
23.058223248,2.367078,-4.091116,-0.720822899999998,1.031182,-0.1319001,-0.1031657,-36.23952,-25.53357,21.62926
23.068221092,1.321013,-3.141478,-0.8427644,1.003734,-0.2272405,-0.1074005,-36.23952,-25.53357,21.62926
23.078218937,6.73593800000001,-2.547954,-1.513443,0.9903632,-0.2678861,-0.1126311,-36.23952,-25.53357,21.62926
23.088217735,12.08933,-2.132488,-1.879267,0.9842175,-0.2255376,-0.09157392,-36.23952,-25.53357,21.62926
23.09821558,12.88926,-1.123497,-1.147618,0.9869502,-0.1631646,-0.0786732,-36.23952,-25.53357,21.62926
23.108213425,10.551,-0.2925643,-0.05014454,0.9990237,-0.1056464,-0.08540912,-36.24122,-25.5303,22.01626
23.118212223,5.689873,-0.2925643,0.1937385,1.018066,-0.1077175,-0.08735608,-36.24122,-25.5303,22.01626
23.128210068,2.305545,-0.3519166,-0.1720861,1.005945,-0.1885136,-0.07534975,-36.24122,-25.5303,22.01626
23.138208389,4.520741,-0.9454404,-0.4769399,0.9860442,-0.2185053,-0.07052158,-36.24122,-25.5303,22.01626
23.148206711,7.22820399999999,-0.767383199999997,-0.2330568,0.9868135,-0.1815191,-0.06622526,-36.24122,-25.5303,22.01626
23.158205032,5.93600600000003,-0.589326100000003,0.803446099999999,0.9927695,-0.1351361,-0.05524034,-35.4996,-25.14431,22.01979
23.168202877,2.613211,0.1822547,1.657037,0.9942043,-0.1343946,-0.08347901,-35.4996,-25.14431,22.01979
23.178201675,0.1518819,0.06354995,1.047329,1.008731,-0.1819492,-0.1074209,-35.4996,-25.14431,22.01979
23.18819952,0.767214200000001,-0.05515479,0.864416900000002,1.00157,-0.1634539,-0.08874871,-35.4996,-25.14431,22.01979
23.198197365,-2.001781,1.013188,1.291212,0.9912717,-0.133993,-0.08634546,-35.4996,-25.14431,22.01979
23.208196163,-7.232106,2.378292,2.083832,1.000678,-0.167823,-0.08635315,-36.24908,-25.14994,22.01423
23.218194008,-10.06263,3.624692,2.998394,1.002885,-0.2077012,-0.09448252,-36.24908,-25.14994,22.01423
23.228192806,-9.69343500000003,5.049149,3.48616,0.9822163,-0.2233711,-0.1159784,-36.24908,-25.14994,22.01423
23.238190651,-7.41670600000002,5.76137699999998,3.608101,1.002424,-0.2356327,-0.1188819,-36.24908,-25.14994,22.01423
23.248188496,-4.093911,6.41425300000001,2.75451,1.000417,-0.2321041,-0.1006934,-36.24908,-25.14994,22.01423
23.258187294,-0.1557842,6.88907200000001,2.388686,0.9835281,-0.2149087,-0.09683979,-35.87801,-25.14005,22.85551
23.268185139,1.013347,6.35490099999999,1.839949,0.9959841,-0.2026799,-0.06192861,-35.87801,-25.14005,22.85551
23.27818346,0.3980148,6.29554899999997,1.169271,0.9956194,-0.2088859,-0.04900483,-35.87801,-25.14005,22.85551
23.288181782,-2.494047,5.702025,0.4376215,0.976649,-0.2363813,-0.03891458,-35.87801,-25.14005,22.85551
23.298180103,-4.770776,4.930444,-0.05014454,0.9837915,-0.2531341,-0.02647974,-36.61765,-25.52984,22.40048
23.308177948,-6.24757399999999,3.921454,-0.2330568,0.9917123,-0.2077411,-0.02171947,-36.61765,-25.52984,22.40048
23.318176746,-9.81650199999998,3.031168,0.31568,0.9829681,-0.1310123,-0.008323858,-36.61765,-25.52984,22.40048
23.328174591,-14.12383,2.55635,0.986358399999998,0.9868208,-0.1284582,-0.003066896,-36.61765,-25.52984,22.40048
23.338172436,-14.24689,1.428654,1.230241,0.982112,-0.1901922,-0.04802894,-36.61765,-25.52984,22.40048
23.348171234,-8.21663800000001,0.3009594,0.3766508,0.9928548,-0.2435257,-0.05808403,-35.87264,-25.15039,21.63001
23.358169079,-0.3403839,-0.1145072,-0.2330568,0.9875297,-0.2456799,-0.06956001,-35.87264,-25.15039,21.63001
23.368166924,2.674744,-0.589326100000003,-0.1720861,0.9814974,-0.2098087,-0.06620871,-35.87264,-25.15039,21.63001
23.378165722,1.751746,-0.826735599999998,0.1327677,0.9957306,-0.1890171,-0.05523163,-35.87264,-25.15039,21.63001
23.388163567,-1.509515,-0.708030899999999,0.01082622,0.9993927,-0.202652,-0.06624175,-35.87264,-25.15039,21.63001
23.398161888,-4.340044,-1.064145,-0.2330568,0.9916373,-0.2046876,-0.05952764,-36.25077,-25.14667,22.40123
23.40816021,-6.06297400000002,-1.18285,-0.05014454,0.9942415,-0.1876018,-0.05666512,-36.25077,-25.14667,22.40123
23.418158531,-7.04750599999997,-0.886087999999999,0.4985923,0.9923891,-0.1667035,-0.05236009,-36.25077,-25.14667,22.40123
23.428156376,-6.80137299999998,-1.123497,1.169271,0.9918359,-0.163383,-0.06001719,-36.25077,-25.14667,22.40123
23.438155174,-4.340044,-0.589326100000003,1.596066,0.988561,-0.145153,-0.07868064,-36.25077,-25.14667,22.40123
23.448153019,-3.540112,-0.589326100000003,1.352183,1.005292,-0.1541737,-0.09162904,-36.25694,-24.76958,22.0122
23.458150864,-3.047846,-0.589326100000003,1.291212,0.9946497,-0.2103068,-0.09590323,-36.25694,-24.76958,22.0122
23.468149662,-0.894183000000003,-0.05515479,1.413154,0.9885293,-0.2215342,-0.08823244,-36.25694,-24.76958,22.0122
23.478147507,-0.0942510000000003,0.597721199999998,2.144803,0.9915562,-0.1754152,-0.09973542,-36.25694,-24.76958,22.0122
23.488146305,-3.847778,1.666064,2.510627,1.008962,-0.141922,-0.08828856,-36.25694,-24.76958,22.0122
23.49814415,-8.77043599999998,2.378292,2.571598,0.9966424,-0.1863247,-0.08155558,-36.23335,-25.91065,22.01829
23.508142471,-8.955036,2.615702,2.022861,0.9889686,-0.2448112,-0.08392003,-36.23335,-25.91065,22.01829
23.518140793,-5.509175,2.378292,0.620533899999998,0.9967166,-0.2678736,-0.0719632,-36.23335,-25.91065,22.01829
23.528138638,-4.524643,2.378292,-0.05014454,0.9933993,-0.2463472,-0.04899131,-36.23335,-25.91065,22.01829
23.538136959,-7.10903899999999,1.666064,-0.7817937,0.9842149,-0.2497198,-0.02600278,-36.23335,-25.91065,22.01829
23.548135281,-6.06297400000002,1.606712,0.681504599999997,0.9635368,-0.1864217,-0.02071869,-36.24541,-25.15702,21.17573
23.558133602,-7.47823899999999,1.013188,1.778978,0.9827144,-0.1181294,-0.03369126,-36.24541,-25.15702,21.17573
23.568131447,-8.83197000000002,-0.1738595,1.778978,1.003296,-0.1246839,-0.05095419,-36.24541,-25.15702,21.17573
23.578130245,-6.678307,-0.826735599999998,0.864416900000002,0.9883357,-0.2106279,-0.06430611,-36.24541,-25.15702,21.17573
23.58812809,1.25948,-1.657669,-0.1111153,0.9936938,-0.2625836,-0.07148071,-36.24541,-25.15702,21.17573
23.598125935,8.705001,-1.717021,-0.2940276,0.9924465,-0.2480081,-0.06908941,-35.87067,-25.15421,21.17851
23.608124733,9.44340000000003,-1.835726,-0.5379106,0.9956626,-0.2113893,-0.05714005,-35.87067,-25.15421,21.17851
23.618122578,5.689873,-1.717021,-0.4769399,0.9882552,-0.2062034,-0.0585642,-35.87067,-25.15421,21.17851
23.628120899,2.490145,-1.835726,0.1327677,0.9783452,-0.1977663,-0.07099207,-35.87067,-25.15421,21.17851
23.638119221,0.705681,-1.657669,0.1327677,0.99843,-0.1774371,-0.07007516,-35.87067,-25.15421,21.17851
23.648117542,-0.1557842,-1.360907,0.0717969800000001,1.000857,-0.1768989,-0.06960096,-36.23167,-25.91392,21.63128
23.658115387,0.3980148,-1.717021,-0.3549984,0.9903415,-0.1877798,-0.06766553,-36.23167,-25.91392,21.63128
23.668113708,3.16701,-1.776374,-0.3549984,0.990355,-0.1889005,-0.08393684,-36.23167,-25.91392,21.63128
23.67811203,4.397675,-1.835726,-0.4159691,1.00587,-0.1846933,-0.08252925,-36.23167,-25.91392,21.63128
23.688110351,4.090009,-1.657669,-0.2940276,0.9978306,-0.1973507,-0.06767612,-36.23167,-25.91392,21.63128
23.698108673,4.643808,-1.479612,-0.2330568,0.9827195,-0.1972115,-0.07291415,-35.88051,-24.77004,21.62798
23.708106518,4.520741,-1.301555,-0.1720861,0.9926787,-0.2087388,-0.0796286,-35.88051,-24.77004,21.62798
23.718105316,3.474676,-0.886087999999999,0.31568,0.9959517,-0.2013806,-0.07915763,-35.88051,-24.77004,21.62798
23.728103161,2.244012,-0.886087999999999,-0.1111153,0.9897359,-0.207882,-0.08584518,-35.88051,-24.77004,21.62798
23.738101005,2.120945,-0.5299737,0.2547093,0.9905764,-0.2004798,-0.07531988,-35.88051,-24.77004,21.62798
23.748099804,1.874812,-0.1145072,0.1937385,0.9914817,-0.1708019,-0.0734148,-36.23952,-25.53357,21.62926
23.758097649,0.8287475,0.06354995,0.4985923,0.9962713,-0.1663163,-0.07150999,-36.23952,-25.53357,21.62926
23.76809597,0.4595481,0.1822547,0.5595631,0.9954123,-0.1983966,-0.07054309,-36.23952,-25.53357,21.62926
23.778094292,1.44408,-0.05515479,0.3766508,0.9933123,-0.2164837,-0.07771341,-36.23952,-25.53357,21.62926
23.788092613,2.674744,0.3009594,0.1327677,0.9947022,-0.2125205,-0.07245252,-36.23952,-25.53357,21.62926
23.798090458,2.367078,0.3009594,-0.1111153,0.9932166,-0.2109955,-0.06192165,-36.24739,-25.15321,21.62723
23.808089256,1.936346,0.597721199999998,0.3766508,0.9865372,-0.1926705,-0.06287188,-36.24739,-25.15321,21.62723
23.818087101,0.3364816,0.775778400000001,0.7424754,0.9973838,-0.1735396,-0.06672432,-36.24739,-25.15321,21.62723
23.828084946,-0.6480501,0.775778400000001,0.986358399999998,0.9912159,-0.1823952,-0.06527555,-36.24739,-25.15321,21.62723
23.838083744,-0.1557842,0.1822547,1.047329,0.9906601,-0.2048034,-0.07005458,-36.24739,-25.15321,21.62723
23.848081589,1.628679,-0.1145072,0.864416900000002,0.9893439,-0.2126308,-0.07292172,-35.87264,-25.15039,21.63001
23.858079433,3.720809,-0.1145072,0.31568,0.9906248,-0.2028208,-0.06574783,-35.87264,-25.15039,21.63001
23.868078232,2.982411,0.004197581,0.7424754,0.9961874,-0.1876424,-0.06528287,-35.87264,-25.15039,21.63001
23.878076076,0.5826145,-0.2925643,0.803446099999999,0.9954051,-0.1978538,-0.06432173,-35.87264,-25.15039,21.63001
23.888074398,-0.955716300000001,0.3603118,0.681504599999997,0.9936005,-0.2057303,-0.07149519,-36.23755,-25.53738,21.17776
23.89807272,-1.078783,0.597721199999998,0.925387699999998,0.9892053,-0.205397,-0.07866625,-36.23755,-25.53738,21.17776
23.908071041,-1.571049,0.597721199999998,0.803446099999999,0.992689,-0.2091894,-0.0757999,-36.23755,-25.53738,21.17776
23.918069363,-1.263382,0.597721199999998,0.5595631,0.9868625,-0.2102545,-0.07339659,-36.23755,-25.53738,21.17776
23.928067684,-0.5249836,0.4790165,0.0717969800000001,0.9908526,-0.2149736,-0.06670226,-36.23755,-25.53738,21.17776
23.938065529,-0.3403839,0.597721199999998,-0.3549984,0.9922953,-0.2139864,-0.06814075,-36.24541,-25.15702,21.17573
23.948064327,-1.386449,0.657073599999999,-0.1720861,0.9915731,-0.2013004,-0.06096413,-36.24541,-25.15702,21.17573
23.958062172,-3.417045,0.894483100000001,0.0717969800000001,0.9903709,-0.1891712,-0.06048658,-36.24541,-25.15702,21.17573
23.968060017,-4.709243,0.894483100000001,0.1937385,0.9896517,-0.202805,-0.06191754,-36.24541,-25.15702,21.17573
23.978058815,-3.355512,0.1229023,0.0717969800000001,0.9890136,-0.2208413,-0.06669755,-36.24541,-25.15702,21.17573
23.98805666,-0.832649800000001,0.4196641,-0.2940276,0.9955866,-0.2075998,-0.06766957,-35.87264,-25.15039,21.63001
23.998054504,-0.0942510000000003,0.5383689,-0.4159691,0.9957525,-0.1906455,-0.07389571,-35.87264,-25.15039,21.63001
24.008053303,-0.832649800000001,0.06354995,-0.4159691,0.9944478,-0.1988841,-0.06862697,-35.87264,-25.15039,21.63001
24.018051147,-0.832649800000001,0.06354995,-0.2940276,0.9903581,-0.2144448,-0.06095862,-35.87264,-25.15039,21.63001
24.028049469,0.2749484,0.06354995,-0.1111153,0.9868671,-0.210114,-0.0580822,-35.87264,-25.15039,21.63001
24.038047791,1.321013,0.1822547,-0.2330568,0.992676,-0.1824058,-0.06958528,-35.87264,-25.15039,21.63001
24.048046112,0.4595481,-0.1738595,-0.05014454,0.9987347,-0.1677123,-0.0700782,-35.87264,-25.15039,21.63001
24.058043957,-0.586516899999998,-0.589326100000003,0.0717969800000001,0.9977553,-0.1935348,-0.07533418,-35.87264,-25.15039,21.63001
24.068042755,-0.2788507,-0.9454404,-0.1720861,0.9909429,-0.219862,-0.07005119,-35.87264,-25.15039,21.63001
24.0780406,2.059412,-0.9454404,-0.2940276,0.9881049,-0.2242126,-0.06143076,-35.87264,-25.15039,21.63001
24.088039398,2.490145,-1.064145,-0.4769399,0.9940997,-0.2061143,-0.06144587,-36.62801,-24.77948,21.17092
24.098037243,1.505613,-0.589326100000003,-0.1111153,0.991999,-0.1721618,-0.06384383,-36.62801,-24.77948,21.17092
24.108035088,-0.4019172,-0.411269,0.01082622,0.9985705,-0.1589642,-0.0696016,-36.62801,-24.77948,21.17092
24.118033886,-1.755648,-0.2925643,0.1937385,1.000017,-0.1842791,-0.07773338,-36.62801,-24.77948,21.17092
24.128031731,-1.078783,-0.4706214,0.1327677,0.9975324,-0.2076403,-0.07628731,-36.62801,-24.77948,21.17092
24.138029575,2.428612,-0.9454404,0.1327677,1.001937,-0.2084462,-0.06768042,-35.88219,-24.76677,22.01498
24.148028374,5.25914,-1.242202,0.0717969800000001,0.9953555,-0.1947768,-0.04661512,-35.88219,-24.76677,22.01498
24.158026218,7.53587,-1.420259,0.3766508,0.9854664,-0.1872279,-0.04994985,-35.88219,-24.76677,22.01498
24.16802454,9.32033300000002,-1.479612,0.864416900000002,0.988119,-0.1732542,-0.06862254,-35.88219,-24.76677,22.01498
24.178022862,10.42793,-1.18285,0.803446099999999,0.9973482,-0.1723368,-0.09448197,-35.88219,-24.76677,22.01498
24.188021183,10.42793,-0.708030899999999,1.352183,1.002614,-0.1674085,-0.09832103,-35.87264,-25.15039,21.63001
24.198019028,8.88960099999997,0.004197581,1.596066,0.9904246,-0.1672467,-0.1073928,-35.87264,-25.15039,21.63001
24.208017826,6.48980500000002,0.775778400000001,1.535095,0.9964843,-0.2045752,-0.1107438,-35.87264,-25.15039,21.63001
24.218015671,5.013007,1.666064,1.291212,0.9965553,-0.234168,-0.1054719,-35.87264,-25.15039,21.63001
24.228013516,4.889941,2.437645,1.352183,0.9920174,-0.2259571,-0.1011589,-35.87264,-25.15039,21.63001
24.238012314,2.982411,3.090521,1.535095,0.9914593,-0.1956073,-0.07580125,-36.24908,-25.14994,22.01423
24.248010159,-0.6480501,3.980806,1.657037,0.9816377,-0.1913446,-0.06669228,-36.24908,-25.14994,22.01423
24.258008003,-4.401577,3.980806,1.413154,0.9907142,-0.2077355,-0.07196822,-36.24908,-25.14994,22.01423
24.268006802,-6.55523999999999,4.099511,0.864416900000002,0.9905363,-0.2242917,-0.07531367,-36.24908,-25.14994,22.01423
24.278004646,-7.539772,4.218216,0.2547093,0.9940546,-0.2300842,-0.07866836,-36.24908,-25.14994,22.01423
24.288003445,-7.78590499999999,3.684045,0.3766508,0.977707,-0.215036,-0.04514341,-36.25694,-24.76958,22.0122
24.298001289,-8.21663800000001,3.684045,0.925387699999998,0.9794966,-0.206087,-0.02696294,-36.25694,-24.76958,22.0122
24.307999611,-5.632242,3.209226,1.657037,0.981521,-0.1841972,-0.02888641,-36.25694,-24.76958,22.0122
24.317997933,-3.109379,2.437645,1.474125,1.001048,-0.1863376,-0.03944857,-36.25694,-24.76958,22.0122
24.327996254,-1.078783,1.903473,0.620533899999998,0.9875666,-0.2211935,-0.04898762,-36.25694,-24.76958,22.0122
24.337994099,1.013347,1.07254,-0.4159691,0.988806,-0.2616601,-0.06620809,-36.26311,-24.3925,21.62317
24.347992897,2.613211,1.131893,-0.598881400000002,0.9864249,-0.2646315,-0.06716033,-36.26311,-24.3925,21.62317
24.357990742,2.736278,1.606712,0.1327677,0.990747,-0.209026,-0.05378206,-36.26311,-24.3925,21.62317
24.367988587,-0.955716300000001,2.140883,1.169271,0.9844844,-0.1610766,-0.05761209,-36.26311,-24.3925,21.62317
24.377987385,-4.093911,1.844121,1.047329,0.9959558,-0.174837,-0.04614272,-36.26311,-24.3925,21.62317
24.38798523,-3.170913,1.07254,0.5595631,0.9826092,-0.2170539,-0.0638159,-36.25525,-24.77285,21.6252
24.397983074,1.505613,0.716426,-0.1720861,0.9911069,-0.2286101,-0.07052781,-36.25525,-24.77285,21.6252
24.407981873,3.843876,0.4790165,-0.2940276,1.002319,-0.2024933,-0.05523964,-36.25525,-24.77285,21.6252
24.417979717,2.859344,0.657073599999999,0.4376215,0.9944783,-0.1481877,-0.05141135,-36.25525,-24.77285,21.6252
24.427978039,-0.7711166,0.953835399999999,1.291212,0.9940131,-0.1754666,-0.057625,-35.87853,-24.77385,21.17648
24.43797636,-0.709583300000001,1.131893,1.839949,0.9876993,-0.2029707,-0.0757928,-35.87853,-24.77385,21.17648
24.447974682,2.305545,1.844121,2.327715,0.9911379,-0.1786671,-0.08250512,-35.87853,-24.77385,21.17648
24.457973003,3.16701,2.081531,2.022861,0.9998546,-0.2018859,-0.08969297,-35.87853,-24.77385,21.17648
24.467971325,4.582274,2.615702,1.596066,0.9927709,-0.2399819,-0.09541373,-35.87853,-24.77385,21.17648
24.47796917,5.81293900000002,3.149873,0.620533899999998,0.987305,-0.2862588,-0.09587087,-35.87853,-24.77385,21.17648
24.487967968,6.24367199999998,3.624692,0.01082622,0.9946946,-0.2904599,-0.0930112,-35.87853,-24.77385,21.17648
24.497965813,4.459208,4.040159,0.1327677,0.9917135,-0.234889,-0.06765579,-35.87853,-24.77385,21.17648
24.507963657,-0.1557842,4.277568,0.0717969800000001,0.9914133,-0.1924162,-0.0456517,-35.87853,-24.77385,21.17648
24.517962456,-4.216978,3.980806,-0.1720861,0.9865446,-0.2180831,-0.02553641,-35.87853,-24.77385,21.17648
24.527960301,-2.001781,3.031168,-0.4769399,0.9872199,-0.2019635,-0.01788452,-36.63786,-24.39531,21.62039
24.537958145,0.767214200000001,2.496997,-0.7817937,0.9819938,-0.1574479,-0.0274584,-36.63786,-24.39531,21.62039
24.547956944,0.890280700000001,1.191245,-1.208589,0.9987156,-0.1916369,-0.02939305,-36.63786,-24.39531,21.62039
24.557954788,2.674744,0.1229023,-1.635384,0.9875242,-0.2186637,-0.03798094,-36.63786,-24.39531,21.62039
24.56795311,5.751406,-0.589326100000003,-2.123151,0.9919989,-0.2234523,-0.03990182,-36.63786,-24.39531,21.62039
24.577951431,6.79747099999997,-0.9454404,-1.818297,0.9974511,-0.2024754,-0.04278818,-36.25327,-24.77666,21.1737
24.587949753,2.305545,-1.004793,-2.06218,0.9909499,-0.2196425,-0.04612246,-36.25327,-24.77666,21.1737
24.597947598,0.767214200000001,-1.717021,-2.123151,0.9831331,-0.2446195,-0.05040959,-36.25327,-24.77666,21.1737
24.607946396,2.244012,-1.598316,-2.732858,0.9876153,-0.2499421,-0.05759467,-36.25327,-24.77666,21.1737
24.61794424,3.53621,-1.776374,-3.220624,0.9898172,-0.2371544,-0.0456374,-36.25327,-24.77666,21.1737
24.627943039,2.982411,-2.073135,-4.135185,0.9899661,-0.2191892,-0.04755659,-36.25327,-24.77666,21.1737
24.637940884,1.997879,-2.073135,-4.257127,0.990706,-0.1808071,-0.04996064,-36.25327,-24.77666,21.1737
24.647938728,-0.955716300000001,-2.132488,-4.013244,1.000826,-0.1747759,-0.04997984,-36.25327,-24.77666,21.1737
24.657937527,-2.432514,-2.19184,-3.586449,1.002193,-0.195618,-0.0471054,-36.25327,-24.77666,21.1737
24.667935371,-1.632582,-2.547954,-4.013244,0.9896561,-0.2026689,-0.04708173,-36.25327,-24.77666,21.1737
24.677933216,1.013347,-2.666659,-4.013244,0.9917647,-0.1850851,-0.04182559,-36.26311,-24.3925,21.62317
24.687932014,1.690213,-2.607306,-3.403537,0.9863566,-0.1308367,-0.04948735,-36.26311,-24.3925,21.62317
24.697929859,-0.894183000000003,-2.726011,-3.037712,1.005158,-0.1460416,-0.05238767,-36.26311,-24.3925,21.62317
24.707928181,-2.801713,-2.42925,-3.220624,1.001257,-0.1983075,-0.07342476,-36.26311,-24.3925,21.62317
24.717926502,-2.186381,-2.251192,-3.464507,0.9897603,-0.2350768,-0.08392391,-36.26311,-24.3925,21.62317
24.727924824,-0.3403839,-1.895078,-3.647419,0.9913806,-0.2175421,-0.08297411,-35.88051,-24.77004,21.62798
24.737922668,-2.124848,-1.776374,-3.464507,0.9831055,-0.1918848,-0.07578765,-35.88051,-24.77004,21.62798
24.747921467,-5.201509,-1.420259,-2.793829,0.989646,-0.1765686,-0.06240287,-35.88051,-24.77004,21.62798
24.757919311,-7.04750599999997,-1.123497,-2.488975,0.9863026,-0.1799573,-0.0537818,-35.88051,-24.77004,21.62798
24.76791811,-7.47823899999999,-0.9454404,-2.610917,0.9873449,-0.209623,-0.05856173,-35.88051,-24.77004,21.62798
24.777915955,-5.570708,-1.242202,-2.793829,1.001261,-0.1981934,-0.06098181,-36.25525,-24.77285,21.6252
24.787913799,-4.893843,-1.717021,-3.403537,0.9974406,-0.1763883,-0.05954504,-36.25525,-24.77285,21.6252
24.797912598,-6.12450699999998,-1.835726,-2.91577,0.9917703,-0.1856806,-0.05378985,-36.25525,-24.77285,21.6252
24.807910442,-6.370641,-2.251192,-2.428004,0.9895343,-0.196455,-0.05809036,-36.25525,-24.77285,21.6252
24.817908287,-4.893843,-2.073135,-2.428004,0.9862722,-0.1785966,-0.06431077,-36.25525,-24.77285,21.6252
24.827907085,-5.693775,-1.657669,-2.306063,0.9871198,-0.1717416,-0.0604854,-35.87853,-24.77385,21.17648
24.83790493,-6.862906,-1.95443,-2.184121,0.989072,-0.1980009,-0.06670353,-35.87853,-24.77385,21.17648
24.847903252,-6.30910700000001,-1.895078,-2.245092,0.9844649,-0.2122017,-0.06860614,-35.87853,-24.77385,21.17648
24.857901573,-4.64771,-1.479612,-1.818297,0.9803092,-0.1987828,-0.08008818,-35.87853,-24.77385,21.17648
24.867899895,-4.83231,-1.301555,-1.452472,1.000909,-0.1798749,-0.07630035,-35.87853,-24.77385,21.17648
24.877897739,-6.61677399999998,-1.004793,-1.086647,0.9994161,-0.1785869,-0.09161251,-36.23952,-25.53357,21.62926
24.887896538,-8.21663800000001,-1.301555,-1.147618,0.9923738,-0.1928271,-0.09255372,-36.23952,-25.53357,21.62926
24.897894382,-6.30910700000001,-0.886087999999999,-0.659852100000001,1.004198,-0.1992081,-0.07199392,-36.23952,-25.53357,21.62926
24.907892227,-2.247914,-1.004793,-0.05014454,0.9975986,-0.1845541,-0.04949312,-36.23952,-25.53357,21.62926
24.917891026,1.25948,-1.242202,0.01082622,0.9868786,-0.1584636,-0.04278108,-36.23952,-25.53357,21.62926
24.92788887,1.997879,-1.835726,-0.05014454,0.98738,-0.1595528,-0.05666038,-35.86281,-25.53456,21.18054
24.937887669,2.674744,-1.895078,0.1327677,0.9918115,-0.1626046,-0.0810747,-35.86281,-25.53456,21.18054
24.947885513,2.367078,-2.013783,0.3766508,0.9931203,-0.1806551,-0.091601,-35.86281,-25.53456,21.18054
24.957883358,1.628679,-1.598316,1.047329,0.994997,-0.1766866,-0.08681954,-35.86281,-25.53456,21.18054
24.967882156,0.4595481,-0.708030899999999,1.839949,0.9954062,-0.1465326,-0.08491371,-36.23952,-25.53357,21.62926
24.977880001,-2.92478,0.06354995,1.718008,1.001983,-0.1595933,-0.09257903,-36.23952,-25.53357,21.62926
24.987878323,-5.693775,0.657073599999999,2.022861,1.001809,-0.2024166,-0.09878919,-36.23952,-25.53357,21.62926
24.997876644,-5.139976,0.8351307,1.596066,0.996295,-0.2199448,-0.09063927,-36.23952,-25.53357,21.62926
25.007874966,-2.801713,1.30995,1.596066,0.9956989,-0.2141122,-0.08920401,-36.23952,-25.53357,21.62926
25.01787281,-2.063314,1.962826,2.022861,0.9884432,-0.1908733,-0.08297585,-35.87434,-25.14713,22.01701
25.027871609,-3.109379,2.31894,1.839949,0.9937387,-0.187332,-0.07915738,-35.87434,-25.14713,22.01701
25.037869453,-3.109379,2.31894,1.657037,0.984453,-0.2118037,-0.07817774,-35.87434,-25.14713,22.01701
25.047868252,-1.817181,2.378292,1.230241,0.9891539,-0.2287934,-0.08631735,-35.87434,-25.14713,22.01701
25.057866097,-1.940248,2.378292,1.230241,0.9936225,-0.2329996,-0.07770969,-35.87434,-25.14713,22.01701
25.067863941,-3.417045,2.55635,0.620533899999998,0.9821358,-0.2438208,-0.06715821,-35.86478,-25.53075,21.63204
25.07786274,-3.047846,2.437645,-0.3549984,0.9879088,-0.2397929,-0.06429786,-35.86478,-25.53075,21.63204
25.087860584,-3.047846,2.615702,-0.2940276,0.9915125,-0.22344,-0.03750809,-35.86478,-25.53075,21.63204
25.097858429,-2.801713,2.31894,-0.2330568,0.9993464,-0.1994697,-0.03704935,-35.86478,-25.53075,21.63204
25.107857227,-0.6480501,1.784769,0.1327677,0.9983305,-0.171292,-0.03561911,-35.86478,-25.53075,21.63204
25.117855072,2.244012,0.2416071,-0.903735200000002,0.9965276,-0.1791202,-0.03752825,-35.86281,-25.53456,21.18054
25.127853394,6.98206999999997,-0.886087999999999,-1.757326,0.983974,-0.1851425,-0.03128333,-35.86281,-25.53456,21.18054
25.137851715,9.68953300000002,-2.073135,-1.818297,0.9784036,-0.1741549,-0.03989081,-35.86281,-25.53456,21.18054
25.147850037,9.62799900000003,-2.726011,-1.208589,0.9898444,-0.1609137,-0.05139999,-35.86281,-25.53456,21.18054
25.157847881,8.21273500000003,-2.904068,-1.086647,0.9991696,-0.1647047,-0.06098679,-35.86281,-25.53456,21.18054
25.16784668,4.213075,-2.666659,-1.025677,0.9956352,-0.1842912,-0.06958995,-35.86281,-25.53456,21.18054
25.177844524,2.428612,-1.835726,-0.1720861,0.9998925,-0.2037851,-0.08490679,-35.86281,-25.53456,21.18054
25.187842369,3.35161,-0.826735599999998,-0.4769399,1.000013,-0.2364724,-0.09925587,-35.86281,-25.53456,21.18054
25.197841167,7.78200200000001,-0.4706214,-1.025677,1.004324,-0.2581405,-0.08681483,-35.86281,-25.53456,21.18054
25.207839012,12.76619,-0.826735599999998,-1.147618,0.9836388,-0.1942865,-0.07387365,-35.86281,-25.53456,21.18054
25.217837811,12.70466,-0.826735599999998,-0.903735200000002,0.9774891,-0.09999933,-0.05905136,-35.87264,-25.15039,21.63001
25.227835655,7.16667,-0.767383199999997,-0.1720861,1.020675,-0.09047811,-0.06774347,-35.87264,-25.15039,21.63001
