Time (s),Gyroscope X (deg/s),Gyroscope Y (deg/s),Gyroscope Z (deg/s),Accelerometer X (g),Accelerometer Y (g),Accelerometer Z (g),Magnetometer X (uT),Magnetometer Y (uT),Magnetometer Z (uT)
164.04303503,1.567146,-1.420259,-0.659852100000001,1.014645,-0.08095299,-0.07587119,-40.75784,-30.69667,-7.534077
164.053033352,1.25948,-1.895078,-0.659852100000001,1.012316,-0.0869312,-0.08687285,-40.75784,-30.69667,-7.534077
164.063030243,1.136414,-2.073135,-0.903735200000002,1.009725,-0.07871699,-0.08639186,-40.75784,-30.69667,-7.534077
164.073028564,0.767214200000001,-2.251192,-0.720822899999998,1.010075,-0.07144289,-0.08878722,-40.75784,-30.69667,-7.534077
164.083026409,0.3364816,-2.310545,-0.7817937,1.008639,-0.07297293,-0.09357009,-40.7674,-30.31305,-7.149105
164.093023777,-0.03271778,-2.42925,-0.720822899999998,1.006315,-0.07879313,-0.08734304,-40.7674,-30.31305,-7.149105
164.103021622,0.2749484,-2.369897,-0.4769399,1.006826,-0.08035052,-0.09930794,-40.7674,-30.31305,-7.149105
164.113019466,0.5826145,-2.251192,-0.4159691,1.008673,-0.07501253,-0.1040983,-40.7674,-30.31305,-7.149105
164.123016834,0.3980148,-2.073135,-0.4159691,1.013022,-0.07291266,-0.0964492,-40.7674,-30.31305,-7.149105
164.133015156,-0.2788507,-1.717021,-0.2940276,1.018387,-0.07338911,-0.1069871,-41.14382,-30.3126,-6.764883
164.143012524,-0.4634504,-1.538964,-0.1111153,1.016154,-0.08404498,-0.0983661,-41.14382,-30.3126,-6.764883
164.153010368,-0.6480501,-1.717021,-0.1720861,1.007831,-0.08168761,-0.0883021,-41.14382,-30.3126,-6.764883
164.163008213,0.1518819,-1.360907,-0.05014454,1.010275,-0.08214719,-0.09069912,-41.14382,-30.3126,-6.764883
164.173005581,0.644147799999998,-1.360907,0.0717969800000001,1.009824,-0.08410864,-0.09165498,-41.14382,-30.3126,-6.764883
164.183003426,1.197947,-1.479612,-0.05014454,1.009758,-0.08077414,-0.09883437,-40.76909,-30.30978,-6.762102
164.193000794,2.182479,-1.479612,0.2547093,1.009759,-0.08073903,-0.09500577,-40.76909,-30.30978,-6.762102
164.202998638,2.982411,-1.717021,0.1327677,1.011209,-0.08028146,-0.1012299,-40.76909,-30.30978,-6.762102
164.21299696,3.720809,-1.657669,0.01082622,1.017486,-0.07726811,-0.1041131,-40.76909,-30.30978,-6.762102
164.222994328,4.151542,-1.538964,-0.05014454,1.016034,-0.07777397,-0.1031533,-40.76909,-30.30978,-6.762102
164.232992172,3.659276,-1.301555,0.0717969800000001,1.017325,-0.06842785,-0.0935864,-40.76909,-30.30978,-6.762102
164.242990017,2.736278,-1.657669,0.31568,1.014055,-0.07568946,-0.08352873,-40.76909,-30.30978,-6.762102
164.252987385,1.567146,-1.717021,0.2547093,1.017759,-0.09110941,-0.07730974,-40.76909,-30.30978,-6.762102
164.26298523,0.4595481,-2.073135,0.803446099999999,1.012605,-0.07613388,-0.07586887,-40.76909,-30.30978,-6.762102
164.272982597,-0.1557842,-2.310545,0.925387699999998,1.006194,-0.07255723,-0.09595882,-40.76909,-30.30978,-6.762102
164.282980919,1.197947,-2.607306,0.7424754,1.005898,-0.08279417,-0.09882712,-40.7674,-30.31305,-7.149105
164.292978764,3.53621,-2.19184,0.31568,1.015913,-0.09718772,-0.1002766,-40.7674,-30.31305,-7.149105
164.302976132,4.705341,-2.251192,0.1937385,1.012727,-0.08313204,-0.09740321,-40.7674,-30.31305,-7.149105
164.312973976,2.920877,-2.310545,0.803446099999999,1.00871,-0.07693803,-0.1021836,-40.7674,-30.31305,-7.149105
164.322971344,0.767214200000001,-2.488602,0.925387699999998,1.010562,-0.07142887,-0.0883095,-40.7674,-30.31305,-7.149105
164.332969189,0.02881546,-2.42925,0.925387699999998,1.004842,-0.07841963,-0.09643353,-40.76909,-30.30978,-6.762102
164.342967033,0.951813900000003,-2.547954,0.4376215,1.011716,-0.08121702,-0.09835909,-40.76909,-30.30978,-6.762102
164.352964401,2.305545,-2.666659,0.0717969800000001,1.012286,-0.08553097,-0.09309464,-40.76909,-30.30978,-6.762102
164.362962723,1.567146,-2.785364,0.31568,1.014069,-0.07680144,-0.09884291,-40.76909,-30.30978,-6.762102
164.372960568,-0.955716300000001,-3.082125,0.4985923,1.007195,-0.07399966,-0.09643877,-40.76909,-30.30978,-6.762102
164.382957935,-2.001781,-3.20083,0.620533899999998,1.012803,-0.08692596,-0.08735226,-41.13596,-30.69295,-6.762854
164.39295578,-0.894183000000003,-2.607306,0.7424754,1.018615,-0.08552875,-0.1065058,-41.13596,-30.69295,-6.762854
164.402953148,0.2749484,-2.310545,0.864416900000002,1.017281,-0.06670865,-0.1179942,-41.13596,-30.69295,-6.762854
164.412950993,-0.955716300000001,-1.538964,1.1083,1.012045,-0.04740078,-0.1208615,-41.13596,-30.69295,-6.762854
164.422949314,-4.709243,-1.064145,1.718008,1.014361,-0.04104653,-0.1218243,-41.13596,-30.69295,-6.762854
164.432946205,-7.10903899999999,-0.3519166,2.266744,1.023081,-0.0641512,-0.1165692,-41.14749,-30.30551,-5.926378
164.442944527,-7.41670600000002,0.5383689,2.876452,1.013198,-0.08284295,-0.1198972,-41.14749,-30.30551,-5.926378
164.452942371,-6.49370699999998,0.716426,3.120335,0.9956655,-0.08308406,-0.1083807,-41.14749,-30.30551,-5.926378
164.462939739,-4.216978,0.4196641,2.571598,1.010124,-0.1001607,-0.09404425,-41.14749,-30.30551,-5.926378
164.472937584,-0.5249836,0.4790165,2.083832,1.019529,-0.1340434,-0.09979483,-41.14749,-30.30551,-5.926378
164.482934952,3.843876,0.06354995,1.96189,1.016027,-0.1292971,-0.1045757,-40.76292,-30.68687,-6.373072
164.492932797,4.889941,-0.05515479,1.413154,1.007082,-0.09394744,-0.09882631,-40.76292,-30.68687,-6.373072
164.502931118,3.905409,-0.2925643,1.1083,0.9917065,-0.07970367,-0.1021532,-40.76292,-30.68687,-6.373072
164.512928486,1.505613,-1.242202,0.5595631,0.990499,-0.06697022,-0.08875425,-40.76292,-30.68687,-6.373072
164.522926331,-1.817181,-2.251192,0.2547093,0.9878904,-0.08342534,-0.07582392,-40.76292,-30.68687,-6.373072
164.532923699,-3.847778,-3.378887,0.5595631,0.9926024,-0.074423,-0.05812714,-41.50902,-30.69903,-7.152637
164.542921543,-6.12450699999998,-4.684639,0.2547093,0.984324,-0.04886675,-0.06194789,-41.50902,-30.69903,-7.152637
164.552919388,-10.61643,-5.69363,-0.1720861,0.9963846,-0.06867927,-0.07584252,-41.50902,-30.69903,-7.152637
164.562916756,-13.1393,-6.88067700000001,-0.1720861,1.015739,-0.1136254,-0.09070054,-41.50902,-30.69903,-7.152637
164.572914601,-11.2933,-7.65225799999999,-0.8427644,1.024973,-0.1381909,-0.08688171,-41.50902,-30.69903,-7.152637
164.582912922,-7.90897099999997,-8.245782,-1.818297,1.007364,-0.1610676,-0.1059882,-41.14382,-30.3126,-6.764883
164.59291029,-3.355512,-8.30513400000001,-2.488975,1.0117,-0.1322237,-0.09643163,-41.14382,-30.3126,-6.764883
164.602908135,-2.124848,-6.70261999999998,-2.549946,1.072767,-0.112896,-0.02810668,-41.14382,-30.3126,-6.764883
164.612905502,-1.878715,-1.123497,0.1937385,1.081224,-0.07060114,-0.0444039,-41.14382,-30.3126,-6.764883
164.622903347,-0.5249836,-3.497592,-1.025677,0.8926259,-0.07473367,-0.2474689,-40.77864,-29.92616,-6.377128
164.632901192,-1.632582,-5.81233500000002,-2.428004,0.96433,-0.1035673,-0.2078646,-40.77864,-29.92616,-6.377128
164.642898559,0.5826145,-4.862697,-2.306063,0.9989155,-0.07644571,-0.186396,-40.77864,-29.92616,-6.377128
164.652896881,2.982411,-3.141478,-2.06218,1.041355,-0.05268464,-0.1773832,-40.77864,-29.92616,-6.377128
164.662893772,0.8287475,-1.538964,-1.513443,1.042586,-0.01416127,-0.1654308,-40.77864,-29.92616,-6.377128
164.672892094,-3.478579,0.8351307,1.657037,1.044611,0.007737326,-0.1663971,-41.51438,-30.68868,-5.927131
164.682889938,-7.41670600000002,3.802749,4.217809,1.02941,0.0120113,-0.1974792,-41.51438,-30.68868,-5.927131
164.692887306,-8.40123700000001,4.989797,4.705575,1.025677,-0.0224678,-0.1869351,-41.51438,-30.68868,-5.927131
164.702885151,-6.06297400000002,6.82971999999999,5.437224,1.024353,-0.08105602,-0.1610746,-41.51438,-30.68868,-5.927131
164.712883472,0.8287475,8.13547199999999,5.80304899999998,1.02442,-0.1364169,-0.1572319,-41.51438,-30.68868,-5.927131
164.722880363,8.95113399999999,9.08511,5.80304899999998,1.03031,-0.1379811,-0.1285272,-40.7674,-30.31305,-7.149105
164.732878685,15.84286,9.85669000000001,6.29081499999999,1.011643,-0.1037428,-0.1170176,-40.7674,-30.31305,-7.149105
164.742876053,17.19659,9.97539500000001,6.41275599999997,0.9959362,-0.07133278,-0.09929128,-40.7674,-30.31305,-7.149105
164.752873897,14.11993,10.03475,6.35178600000003,1.018065,-0.08133627,-0.07204845,-40.7674,-30.31305,-7.149105
164.762871742,11.78166,9.08511,6.77858100000002,1.00806,-0.09380091,-0.08494934,-40.7674,-30.31305,-7.149105
164.77286911,9.935666,7.18583399999999,7.08343500000003,0.9941344,-0.05270959,-0.07823558,-41.14016,-30.31968,-7.603388
164.782866955,4.582274,6.29554899999997,6.16887299999999,1.030723,-0.02845974,-0.05629112,-41.14016,-30.31968,-7.603388
164.792864323,-3.417045,6.117492,6.22984400000002,1.033281,-0.03459485,-0.04193672,-41.14016,-30.31968,-7.603388
164.802862644,-10.12417,4.396273,6.65663900000001,0.9942297,-0.08308516,-0.05238483,-41.14016,-30.31968,-7.603388
164.812860489,-13.6931,2.022178,6.35178600000003,0.9798619,-0.122161,-0.04325677,-41.14016,-30.31968,-7.603388
164.822857857,-12.9547,0.597721199999998,5.98596099999998,0.9815872,-0.1362368,-0.04517046,-41.51857,-30.31541,-6.767662
164.832855701,-11.41637,-1.301555,4.705575,0.9945716,-0.1529794,-0.04423163,-41.51857,-30.31541,-6.767662
164.842853546,-8.89350299999999,-2.547954,3.54713,1.009788,-0.1847158,-0.04042138,-41.51857,-30.31541,-6.767662
164.852850914,-4.401577,-3.794354,2.876452,0.9986292,-0.1881722,-0.07533708,-41.51857,-30.31541,-6.767662
164.862848759,-1.140316,-5.040754,1.352183,0.9964141,-0.1741894,-0.08251547,-41.51857,-30.31541,-6.767662
164.872846127,0.767214200000001,-5.396868,0.5595631,1.010682,-0.1297702,-0.09164472,-41.54216,-29.17434,-6.773746
164.882844448,0.767214200000001,-5.45622,-0.4769399,1.012573,-0.1012289,-0.1098413,-41.54216,-29.17434,-6.773746
164.892842293,-2.370981,-5.634277,-0.7817937,1.018449,-0.07682895,-0.1112935,-41.54216,-29.17434,-6.773746
164.902839661,-5.509175,-5.515573,-0.5379106,1.000704,-0.06599851,-0.1107868,-41.54216,-29.17434,-6.773746
164.912837505,-7.539772,-5.100106,-0.2940276,1.00286,-0.07719397,-0.1174877,-41.54216,-29.17434,-6.773746
164.92283535,-8.33970399999999,-5.040754,-0.1720861,1.012885,-0.09206887,-0.1184585,-41.53261,-29.55796,-7.158722
164.932832718,-6.24757399999999,-4.506582,-0.1720861,1.011357,-0.1144304,-0.1160572,-41.53261,-29.55796,-7.158722
164.942831039,-3.232446,-4.565935,-0.2940276,1.002321,-0.1262716,-0.1160384,-41.53261,-29.55796,-7.158722
164.95282793,-1.078783,-4.743992,-0.1720861,0.9992459,-0.1179748,-0.1055065,-41.53261,-29.55796,-7.158722
164.962826252,-2.309447,-5.218811,0.2547093,1.012108,-0.07492179,-0.04858949,-41.53261,-29.55796,-7.158722
164.972824097,-5.816842,-5.87168699999998,0.2547093,1.004979,-0.05852308,-0.04666698,-41.15786,-29.55515,-7.155941
164.982821465,-11.23177,-7.77096299999999,0.4376215,0.9939287,-0.09269151,-0.03946028,-41.15786,-29.55515,-7.155941
164.992819309,-11.78556,-8.12707699999999,1.230241,1.010025,-0.1204318,-0.07872443,-41.15786,-29.55515,-7.155941
165.002817154,-10.1857,-8.48319099999998,1.352183,1.005822,-0.105399,-0.1261,-41.15786,-29.55515,-7.155941
165.012814522,-8.77043599999998,-8.72059999999997,0.1327677,1.022013,-0.1114797,-0.1352196,-41.15786,-29.55515,-7.155941
165.022812843,-6.98597300000001,-7.889668,0.1327677,1.027064,-0.1211514,-0.1409688,-41.54504,-28.86446,-7.613941
165.032810211,-5.632242,-6.22780099999998,0.3766508,1.030594,-0.1017229,-0.1495944,-41.54504,-28.86446,-7.613941
165.042808056,-7.232106,-3.616297,1.90092,1.043994,-0.0881009,-0.1237781,-41.54504,-28.86446,-7.613941
165.052805901,-8.46277000000003,-2.073135,2.449656,0.9985786,-0.08332478,-0.1409289,-41.54504,-28.86446,-7.613941
165.062803268,-8.03203799999998,-2.607306,2.327715,0.9882792,-0.1059649,-0.1499981,-41.54504,-28.86446,-7.613941
165.072801113,-6.24757399999999,-2.19184,2.937423,0.9945962,-0.1047805,-0.1404379,-41.54871,-28.85738,-6.775436
165.082798481,-3.786245,-2.251192,2.571598,0.9969822,-0.1024221,-0.1533642,-41.54871,-28.85738,-6.775436
165.092796326,-1.632582,-1.95443,2.388686,1.007285,-0.08044767,-0.1639165,-41.54871,-28.85738,-6.775436
165.102794647,-1.755648,-1.717021,2.022861,1.013176,-0.08274782,-0.1624904,-41.54871,-28.85738,-6.775436
165.112792015,-2.001781,-0.9454404,2.266744,1.011422,-0.09292147,-0.1553061,-41.54871,-28.85738,-6.775436
165.12278986,-1.201849,-0.5299737,2.144803,0.9985181,-0.106231,-0.1481016,-41.9169,-29.17715,-6.776527
165.132787704,0.1518819,-0.1145072,2.022861,1.015281,-0.116573,-0.1462138,-41.9169,-29.17715,-6.776527
165.142785072,2.182479,0.657073599999999,1.90092,1.015341,-0.1200874,-0.158656,-41.9169,-29.17715,-6.776527
165.152782917,3.413143,1.250597,1.596066,1.012745,-0.1112734,-0.1457322,-41.9169,-29.17715,-6.776527
165.162780285,3.53621,1.784769,1.596066,1.015551,-0.1048393,-0.1390387,-41.9169,-29.17715,-6.776527
165.172778606,3.228544,1.962826,1.718008,1.020958,-0.1070744,-0.129476,-41.90485,-29.93078,-5.933968
165.182776451,3.105477,1.962826,1.718008,1.015053,-0.1293032,-0.1031383,-41.90485,-29.93078,-5.933968
165.192773819,5.136074,1.784769,2.083832,1.001487,-0.1334499,-0.1021564,-41.90485,-29.93078,-5.933968
165.202771664,6.48980500000002,1.250597,1.778978,0.9853309,-0.1037373,-0.1126646,-41.90485,-29.93078,-5.933968
165.212769508,6.612871,0.4790165,0.620533899999998,0.9985949,-0.1092275,-0.1040719,-41.54216,-29.17434,-6.773746
165.222766876,7.35127000000003,-0.2332119,0.5595631,0.9990757,-0.1350607,-0.1136376,-41.54216,-29.17434,-6.773746
165.232764721,7.22820399999999,-0.648678499999998,0.4376215,1.005263,-0.1271327,-0.1103004,-41.54216,-29.17434,-6.773746
165.242762089,5.81293900000002,-0.708030899999999,0.2547093,1.005533,-0.1154165,-0.1050396,-41.54216,-29.17434,-6.773746
165.25276041,4.643808,-1.18285,-0.4769399,0.9983094,-0.1198976,-0.1011972,-41.54216,-29.17434,-6.773746
165.262758255,4.336142,-1.420259,-0.659852100000001,1.001351,-0.1261416,-0.09976518,-41.17397,-28.85456,-6.772655
165.272755623,4.151542,-1.895078,-0.903735200000002,1.003369,-0.1300857,-0.1102964,-41.17397,-28.85456,-6.772655
165.282753468,3.966942,-2.251192,-1.26956,0.9975529,-0.1316146,-0.1055001,-41.17397,-28.85456,-6.772655
165.292751312,4.889941,-2.607306,-1.147618,0.9965518,-0.130159,-0.1035844,-41.17397,-28.85456,-6.772655
165.30274868,7.35127000000003,-2.726011,-0.4769399,0.9890583,-0.0943123,-0.09975195,-41.17397,-28.85456,-6.772655
165.312747002,7.35127000000003,-3.20083,-0.7817937,1.002006,-0.08348422,-0.1126989,-41.5343,-29.5547,-6.771719
165.322743893,6.428272,-3.853706,-0.3549984,0.9985776,-0.05616815,-0.09403545,-41.5343,-29.5547,-6.771719
165.332742214,5.93600600000003,-4.625287,-0.05014454,0.9850947,-0.06466483,-0.09065973,-41.5343,-29.5547,-6.771719
165.342740059,7.10513699999998,-5.634277,0.864416900000002,0.9998614,-0.07268673,-0.09642632,-41.5343,-29.5547,-6.771719
165.352737427,6.55133799999999,-6.287153,1.535095,1.035464,-0.02162868,-0.06347978,-41.5343,-29.5547,-6.771719
165.362735272,2.120945,-6.64326800000002,1.535095,1.015958,-0.04681025,-0.06487502,-41.91859,-29.17388,-6.389525
165.372732639,2.859344,-7.77096299999999,2.327715,1.007102,-0.1212563,-0.109348,-41.91859,-29.17388,-6.389525
165.382730484,-2.001781,-5.040754,5.315282,1.138455,-0.1597196,-0.02964487,-41.91859,-29.17388,-6.389525
165.392728806,-5.693775,1.369302,7.38828800000001,1.014343,-0.1690767,-0.09355529,-41.91859,-29.17388,-6.389525
165.402726173,-0.03271778,-6.58391499999997,1.169271,0.958496,-0.2571943,-0.09678527,-41.91859,-29.17388,-6.389525
165.412724018,1.567146,-5.574925,0.1327677,0.9771218,-0.2632357,-0.1068663,-42.27959,-29.93359,-5.936749
165.422721863,3.905409,-8.42383900000002,-2.91577,1.001866,-0.2293728,-0.017903,-42.27959,-29.93359,-5.936749
165.432719231,8.76653499999999,-13.29073,-6.57401600000003,0.9938579,-0.2449154,-0.05282108,-42.27959,-29.93359,-5.936749
165.442717075,15.10446,-16.73317,-7.244694,0.9611682,-0.1664459,-0.1159563,-42.27959,-29.93359,-5.936749
165.452714443,13.44306,-19.16662,-7.244694,0.9627069,0.01088301,-0.1236619,-42.27959,-29.93359,-5.936749
165.462712765,2.490145,-19.9382,-6.33013299999999,0.9762419,0.09331308,-0.1725215,-41.92226,-29.1668,-5.551022
165.47271061,-10.5549,-19.10727,-2.671887,1.000266,0.03349588,-0.1763766,-41.92226,-29.1668,-5.551022
165.482707977,-16.58516,-18.15763,0.01082622,0.9910507,-0.02213712,-0.235211,-41.92226,-29.1668,-5.551022
165.492705822,-18.00042,-16.55511,1.352183,1.000795,-0.04830388,-0.2481428,-41.92226,-29.1668,-5.551022
165.502703667,-18.36962,-14.71519,2.144803,0.9951956,-0.08640911,-0.2050514,-41.92226,-29.1668,-5.551022
165.512701035,-14.98529,-13.64685,3.669072,0.9728535,-0.1174088,-0.2519049,-41.54305,-29.53781,-4.77221
165.522698879,-9.20116899999999,-11.39146,3.120335,1.002935,-0.08410283,-0.2352158,-41.54305,-29.53781,-4.77221
165.532696247,-9.44730199999998,-10.20441,2.998394,1.034068,-0.1058226,-0.1802282,-41.54305,-29.53781,-4.77221
165.542694569,-7.84743800000001,-10.44182,3.54713,1.023487,-0.1654174,-0.1912017,-41.54305,-29.53781,-4.77221
165.552692413,-2.678647,-9.31412399999998,2.815481,1.01755,-0.1350607,-0.2065136,-41.54305,-29.53781,-4.77221
165.562689781,-3.786245,-9.67023799999998,3.181306,0.9863381,-0.05525576,-0.180158,-42.29253,-29.54343,-4.777771
165.572687626,-8.03203799999998,-10.91664,2.632569,0.9941807,-0.1087157,-0.1447433,-42.29253,-29.54343,-4.777771
165.582685471,-6.92443900000002,-11.39146,2.876452,1.018998,-0.1339023,-0.1892877,-42.29253,-29.54343,-4.777771
165.592682839,-6.98597300000001,-11.2134,2.083832,1.046078,-0.09693044,-0.1903016,-42.29253,-29.54343,-4.777771
165.60268116,-7.90897099999997,-11.0947,2.327715,1.017658,-0.1409337,-0.211298,-42.29253,-29.54343,-4.777771
165.612678051,-3.170913,-9.31412399999998,1.657037,0.9902225,-0.1348139,-0.2796881,-41.55091,-29.15745,-4.774238
165.622676372,-2.494047,-6.52456300000001,2.144803,1.004724,-0.07672229,-0.2821213,-41.55091,-29.15745,-4.774238
165.632674217,-7.724371,-2.726011,4.217809,1.024677,-0.0489399,-0.2630202,-41.55091,-29.15745,-4.774238
165.642671585,-10.24723,0.657073599999999,5.559165,1.029778,-0.1378707,-0.22137,-41.55091,-29.15745,-4.774238
165.65266943,-4.032378,2.853111,5.437224,0.9912964,-0.1642631,-0.207896,-41.55091,-29.15745,-4.774238
165.662667274,-0.6480501,3.446635,4.522663,0.9811503,-0.09032849,-0.1782257,-42.2945,-29.53962,-4.326268
165.672664642,-1.632582,2.793759,3.48616,0.9961388,-0.1091498,-0.1433109,-42.2945,-29.53962,-4.326268
165.682662964,0.02881546,1.903473,2.937423,1.006133,-0.1226772,-0.1562464,-42.2945,-29.53962,-4.326268
165.692660332,-0.3403839,1.250597,2.022861,1.013289,-0.1149099,-0.1725324,-42.2945,-29.53962,-4.326268
165.702658176,-3.417045,0.597721199999998,1.778978,1.010419,-0.09150538,-0.1576976,-42.2945,-29.53962,-4.326268
165.712656021,-6.61677399999998,-0.2332119,1.413154,0.997496,-0.129537,-0.1437866,-41.92565,-29.16026,-4.777019
165.722653389,-7.539772,-0.767383199999997,0.31568,0.9730375,-0.1775908,-0.1911106,-41.92565,-29.16026,-4.777019
165.732651234,-7.60130500000002,-0.826735599999998,-0.4159691,0.9681103,-0.1491711,-0.2078595,-41.92565,-29.16026,-4.777019
165.742648601,-10.7395,-0.826735599999998,-1.025677,0.9742391,-0.08639423,-0.2112364,-41.92565,-29.16026,-4.777019
165.752646446,-16.21596,-0.3519166,-1.086647,0.9820346,-0.061309,-0.2481068,-41.92565,-29.16026,-4.777019
165.762644768,-21.26168,0.894483100000001,-0.598881400000002,0.9872438,-0.07916838,-0.246197,-41.92762,-29.15645,-4.325516
165.772642136,-23.66148,2.259588,-0.5379106,1.016484,-0.15585,-0.1926277,-41.92762,-29.15645,-4.325516
165.78263998,-19.47722,3.505987,-1.818297,1.037155,-0.2691423,-0.1385554,-41.92762,-29.15645,-4.325516
165.792637825,-1.940248,4.277568,-4.683922,1.024847,-0.3675334,-0.1901949,-41.92762,-29.15645,-4.325516
165.802635193,12.64313,5.049149,-7.366636,0.9774241,-0.2566653,-0.2389555,-42.68786,-28.47184,-5.173299
165.812633038,17.50425,5.167854,-9.50061200000003,0.9741189,-0.1314137,-0.1920815,-42.68786,-28.47184,-5.173299
165.822630405,17.44272,4.277568,-11.51265,0.992959,-0.1212998,-0.1366021,-42.68786,-28.47184,-5.173299
165.832628727,17.19659,3.505987,-11.57362,1.0149,-0.1217548,-0.1275473,-42.68786,-28.47184,-5.173299
165.842626572,19.16565,3.268578,-10.41517,1.021456,-0.05621181,-0.1481544,-42.68786,-28.47184,-5.173299
165.852623939,17.07352,2.734407,-10.23226,1.006289,-0.001136056,-0.150535,-42.30695,-28.84611,-4.781489
165.862621784,12.64313,2.496997,-9.86643700000001,1.016282,-0.01467657,-0.1649063,-42.30695,-28.84611,-4.781489
165.872619629,8.64346799999999,3.624692,-8.22022599999998,1.026335,-0.03252015,-0.2247412,-42.30695,-28.84611,-4.781489
165.882616997,2.920877,5.82073000000003,-6.14722099999998,1.039647,-0.01628345,-0.2845906,-42.30695,-28.84611,-4.781489
165.892614841,-6.001441,8.90705299999997,-4.196156,1.044124,0.005427696,-0.2582823,-42.30695,-28.84611,-4.781489
165.902612209,-14.80069,11.2218,-2.001209,1.013253,-0.00959284,-0.1869168,-41.17616,-29.15464,-4.771458
165.912610531,-18.86189,12.23079,-0.2940276,0.979034,-0.08096635,-0.1595599,-41.17616,-29.15464,-4.771458
165.922608376,-14.49303,13.12107,0.4985923,0.9774155,-0.1512766,-0.1925607,-41.17616,-29.15464,-4.771458
165.932605743,-3.355512,14.07071,0.803446099999999,0.9903862,-0.141262,-0.1882787,-41.17616,-29.15464,-4.771458
165.942603588,5.81293900000002,14.42682,2.388686,1.01015,-0.07755876,-0.1730152,-41.17616,-29.15464,-4.771458
165.952601433,10.551,15.67322,4.766546,1.010407,-0.013405,-0.1725536,-41.91441,-29.54716,-5.548994
165.962598801,9.99719900000002,15.85128,7.32731800000001,0.9904137,0.06629356,-0.1289888,-41.91441,-29.54716,-5.548994
165.972597122,3.966942,15.43581,9.15644099999999,0.9865928,0.06242265,-0.1189311,-41.91441,-29.54716,-5.548994
165.982594013,-4.524643,14.36747,11.29042,0.9918003,0.01886537,-0.1107931,-41.91441,-29.54716,-5.548994
165.992592335,-11.4779,13.18042,12.87566,0.9963883,-0.04369097,-0.1064778,-41.91441,-29.54716,-5.548994
166.002590179,-13.01623,12.64625,14.52187,0.9922784,-0.08475356,-0.1241674,-41.53797,-29.54762,-5.933215
166.012587547,-11.72403,12.52755,15.55837,0.9940453,-0.04932826,-0.1332726,-41.53797,-29.54762,-5.933215
166.022585392,-13.5085,11.2218,15.37546,1.011044,-0.04591884,-0.1160743,-41.53797,-29.54762,-5.933215
166.032583714,-15.35449,9.73798600000003,15.13157,1.011674,-0.1307137,-0.09068906,-41.53797,-29.54762,-5.933215
166.042580605,-11.17023,8.01676800000001,15.86322,0.9940537,-0.1780534,-0.07485314,-41.53797,-29.54762,-5.933215
166.052578926,-4.401577,5.464615,16.10711,0.9869434,-0.1361924,-0.05187988,-41.92515,-28.85692,-6.391215
166.062576294,-3.786245,3.32793,14.88769,0.9870522,-0.1163982,-0.06624244,-41.92515,-28.85692,-6.391215
166.072574139,-4.955376,0.894483100000001,14.64381,0.9923673,-0.1145556,-0.08874525,-41.92515,-28.85692,-6.391215
166.082571983,-4.524643,-1.004793,13.66828,0.9638464,-0.1532155,-0.1097429,-41.92515,-28.85692,-6.391215
166.092569351,-3.786245,-2.963421,12.38789,0.9707842,-0.1586334,-0.07960333,-41.92515,-28.85692,-6.391215
166.102567196,-6.55523999999999,-5.278163,9.76614900000002,0.9958476,-0.2210255,-0.04852352,-42.30437,-28.48592,-7.170029
166.112565517,-4.401577,-7.59290600000003,7.022464,1.001026,-0.341656,-0.07243028,-42.30437,-28.48592,-7.170029
166.122562885,1.382547,-10.02635,4.705575,0.974835,-0.3230253,-0.1039754,-42.30437,-28.48592,-7.170029
166.13256073,3.905409,-11.86628,1.535095,0.9497164,-0.2313155,-0.1173554,-42.30437,-28.48592,-7.170029
166.142558098,0.3980148,-13.29073,-0.4769399,0.9674715,-0.1649161,-0.1217106,-42.30437,-28.48592,-7.170029
166.152555943,-4.401577,-13.46879,-1.025677,0.9937528,-0.1115039,-0.129906,-42.31392,-28.10229,-6.785053
166.162553787,-8.52430299999999,-13.94361,-2.793829,1.003082,-0.141597,-0.1461861,-42.31392,-28.10229,-6.785053
166.172551155,-8.15510499999999,-14.00296,-4.988776,1.006025,-0.2209184,-0.1648353,-42.31392,-28.10229,-6.785053
166.182549,-3.417045,-13.52814,-7.244694,1.017082,-0.2649908,-0.1725004,-42.31392,-28.10229,-6.785053
166.192547321,4.705341,-12.40045,-9.25672899999999,1.034087,-0.2372764,-0.2074732,-42.31392,-28.10229,-6.785053
166.202544689,8.76653499999999,-10.56052,-11.26876,1.011767,-0.1650192,-0.2285103,-42.30606,-28.48265,-6.783026
166.212542534,8.397335,-9.61088600000001,-12.854,0.9957849,-0.1437429,-0.2055162,-42.30606,-28.48265,-6.783026
166.222539902,9.87413200000002,-7.77096299999999,-13.34177,1.01307,-0.1824873,-0.2285081,-42.30606,-28.48265,-6.783026
166.232537746,13.68919,-5.45622,-13.03692,1.022874,-0.1336819,-0.2266234,-42.30606,-28.48265,-6.783026
166.242535591,12.64313,-3.616297,-12.54915,1.030298,-0.03500221,-0.1859828,-42.30606,-28.48265,-6.783026
166.252532959,8.397335,-2.19184,-10.84197,1.050946,0.007954606,-0.1563581,-42.68616,-28.47511,-5.560301
166.262531281,7.59740300000001,-1.123497,-9.50061200000003,1.056602,-0.03450008,-0.1879431,-42.68616,-28.47511,-5.560301
166.272529125,9.68953300000002,0.004197581,-7.79343099999999,1.034765,-0.0136422,-0.1979605,-42.68616,-28.47511,-5.560301
166.282526493,9.38186599999998,1.784769,-4.379068,1.036541,0.04771803,-0.1874507,-42.68616,-28.47511,-5.560301
166.292524338,5.44374,2.734407,-1.208589,1.043574,0.08809802,-0.1975235,-42.68616,-28.47511,-5.560301
166.302521706,1.197947,3.56534,0.986358399999998,1.027139,0.0552898,-0.1893506,-41.93051,-28.84657,-5.165709
166.31251955,0.3980148,4.158864,4.33975,0.9792379,-0.01462519,-0.1854205,-41.93051,-28.84657,-5.165709
166.322517395,-3.478579,9.916043,4.583633,1.303844,0.1329588,0.6892912,-41.93051,-28.84657,-5.165709
166.332514763,172.1988,1.428654,-72.3004899999997,1.141417,3.530403,-1.799417,-41.93051,-28.84657,-5.165709
166.342513084,31.71843,-11.51016,-136.6856,1.282226,0.5058181,0.6983259,-41.93051,-28.84657,-5.165709
166.352510929,242.1005,11.28115,-54.61898,1.038047,-2.643067,-0.8400168,-41.93051,-28.84657,-5.165709
166.362508297,424.9773,-1.717021,-25.10913,1.404391,-2.302968,0.1125805,-41.93051,-28.84657,-5.165709
166.372506142,323.4475,16.68221,-4.561981,0.8437076,-1.23076,-0.1915711,-41.93051,-28.84657,-5.165709
166.38250351,143.955,1.07254,-11.02488,0.175565,0.02250657,-0.020356,-41.93051,-28.84657,-5.165709
166.392501354,-12.9547,-4.44723,-0.5379106,0.3839032,-0.4845834,-0.02011004,-41.15829,-31.01501,0.140707
166.402499676,-88.5790400000001,-7.29614399999999,13.42439,0.8926753,-1.422088,-0.07052746,-41.15829,-31.01501,0.140707
166.412496567,-71.4112699999999,1.250597,7.08343500000003,1.046094,-0.5167471,-0.3452521,-41.15829,-31.01501,0.140707
166.422494888,-63.59655,2.259588,-1.330531,1.197273,0.4164411,-0.1217824,-41.15829,-31.01501,0.140707
166.432492733,-107.9005,-0.826735599999998,-3.952273,1.074781,0.7703393,0.1568713,-41.15829,-31.01501,0.140707
166.442490101,-116.5767,-5.159458,-3.403537,1.101263,0.3414311,-0.03975917,-40.37538,-32.53462,-0.297123
166.452487946,-71.5343300000003,-9.848295,-1.452472,1.091328,-0.2227882,-0.1817337,-40.37538,-32.53462,-0.297123
166.462485314,2.490145,-9.19541899999997,-2.732858,1.02197,-0.4756852,-0.2667342,-40.37538,-32.53462,-0.297123
166.472483158,66.1155,-4.743992,-3.769361,0.975299,-0.3540115,-0.3576136,-40.37538,-32.53462,-0.297123
166.48248148,97.3128499999998,-0.826735599999998,-7.85440200000002,0.9882784,-0.2411482,-0.3720226,-40.37538,-32.53462,-0.297123
166.492478848,93.5593300000002,3.684045,-8.829934,0.991545,-0.1019192,-0.298842,-41.12934,-32.16643,-1.078715
166.502476692,62.85424,8.37288200000001,-8.03731400000003,1.013879,-0.01757047,-0.2103661,-41.12934,-32.16643,-1.078715
166.512474537,26.79577,11.4592,-7.91537200000002,1.014764,-0.09032139,-0.1969487,-41.12934,-32.16643,-1.078715
166.522471905,7.53587,13.18042,-9.31770000000002,1.009404,-0.1930653,-0.1552768,-41.12934,-32.16643,-1.078715
166.53246975,5.566806,13.29913,-10.72003,0.999065,-0.2123256,-0.1136177,-41.12934,-32.16643,-1.078715
166.542467117,13.38153,12.5869,-10.04935,0.9780596,-0.131505,-0.104509,-40.38324,-32.15427,-0.2991505
166.552465439,23.10378,11.28115,-8.52507999999999,0.9964887,0.003027198,-0.09931139,-40.38324,-32.15427,-0.2991505
166.562463284,27.16497,9.50057699999998,-6.08625000000001,1.033484,0.1350676,-0.08792406,-40.38324,-32.15427,-0.2991505
166.572460652,23.59604,8.19482400000001,-3.769361,1.054485,0.184624,-0.08127336,-40.38324,-32.15427,-0.2991505
166.582458496,15.59672,5.88008199999999,-1.513443,1.04205,0.1466328,-0.06401317,-40.38324,-32.15427,-0.2991505
166.592456341,7.90506900000002,4.277568,0.31568,1.004168,0.03605283,-0.0648758,-40.37538,-32.53462,-0.297123
166.602453709,1.321013,2.437645,1.169271,0.9801475,-0.06020049,-0.07007348,-40.37538,-32.53462,-0.297123
166.612451553,-2.309447,0.716426,1.291212,0.9792928,-0.1185655,-0.07388557,-40.37538,-32.53462,-0.297123
166.622448921,-5.078443,-0.886087999999999,0.1937385,0.9653851,-0.1569323,-0.09443022,-40.37538,-32.53462,-0.297123
166.632447243,-6.43217400000002,-2.607306,-0.7817937,0.9763734,-0.1713505,-0.1006671,-40.37538,-32.53462,-0.297123
166.642445087,-5.386109,-3.022773,-1.757326,1.009715,-0.1567486,-0.1170006,-40.37905,-32.52754,0.5413818
166.652442455,-2.001781,-2.963421,-3.220624,1.024709,-0.1512824,-0.1361712,-40.37905,-32.52754,0.5413818
166.6624403,2.613211,-3.319535,-4.683922,1.011999,-0.1491038,-0.1361496,-40.37905,-32.52754,0.5413818
166.672438145,8.95113399999999,-3.082125,-5.29363,1.015429,-0.1499334,-0.1280196,-40.37905,-32.52754,0.5413818
166.682435512,14.85832,-2.963421,-4.988776,1.012663,-0.08048961,-0.1270755,-40.37905,-32.52754,0.5413818
166.692433834,17.25812,-3.141478,-4.379068,1.026795,-0.002332545,-0.1132415,-40.01048,-32.14764,0.1551323
166.702430725,12.76619,-4.031764,-3.403537,1.012106,0.02760652,-0.1022164,-40.01048,-32.14764,0.1551323
166.712429047,6.55133799999999,-5.337515,-1.513443,0.998883,0.05769734,-0.07779372,-40.01048,-32.14764,0.1551323
166.722426891,2.059412,-7.29614399999999,1.413154,0.9716278,0.1083889,-0.05526619,-40.01048,-32.14764,0.1551323
166.732424259,-6.001441,-9.25477200000002,3.851984,0.9845762,0.09360684,-0.0524135,-40.01048,-32.14764,0.1551323
166.742422104,-15.66216,-10.97599,4.766546,1.014199,-0.005067193,-0.06631844,-39.63126,-32.51865,0.9339447
166.752419949,-17.44662,-12.5785,5.437224,1.017973,-0.1293244,-0.1117577,-39.63126,-32.51865,0.9339447
166.762417316,-10.3703,-13.7062,6.10790299999999,0.9916311,-0.1807819,-0.155249,-39.63126,-32.51865,0.9339447
166.772415638,-4.216978,-13.35009,4.766546,0.9801401,-0.1140324,-0.1643391,-39.63126,-32.51865,0.9339447
166.782413006,-8.27817099999997,-13.11268,2.266744,0.9998863,-0.1006349,-0.123698,-39.63126,-32.51865,0.9339447
166.79241085,-15.84676,-14.18102,1.96189,1.02238,-0.1308487,-0.1285152,-40.37905,-32.52754,0.5413818
166.802408695,-16.58516,-14.29972,2.69354,1.015003,-0.101352,-0.1285099,-40.37905,-32.52754,0.5413818
166.812406063,-18.06195,-14.47778,0.803446099999999,1.009536,-0.1220538,-0.1485953,-40.37905,-32.52754,0.5413818
166.822403908,-16.33902,-15.96159,-0.4159691,1.014591,-0.1836773,-0.1495454,-40.37905,-32.52754,0.5413818
166.832402229,-6.18604100000003,-15.48677,-1.940238,1.022301,-0.1791997,-0.1548243,-40.37905,-32.52754,0.5413818
166.84239912,2.613211,-13.88426,-1.940238,1.021778,-0.07390989,-0.1711221,-39.99983,-32.89855,1.320194
166.852397442,3.413143,-13.35009,-0.964705900000002,1.039069,0.06859329,-0.1951177,-39.99983,-32.89855,1.320194
166.86239481,-1.201849,-9.551534,0.0717969800000001,1.079852,0.1008746,-0.2602835,-39.99983,-32.89855,1.320194
166.872392654,-10.67797,-1.776374,5.254312,1.218779,0.05009412,-0.1092825,-39.99983,-32.89855,1.320194
166.882390499,-17.26202,11.51856,16.89973,0.9246373,-0.1717282,-0.2953573,-39.99983,-32.89855,1.320194
166.892387867,-7.60130500000002,2.378292,9.09546899999999,0.843963,-0.07882568,-0.2708332,-39.63493,-32.51157,1.772449
166.902385712,-11.17023,2.853111,8.72964499999998,0.925063,-0.165926,-0.1934229,-39.63493,-32.51157,1.772449
166.912384033,-11.6625,1.250597,7.754113,0.9801586,-0.1927019,-0.158576,-39.63493,-32.51157,1.772449
166.922381401,-7.60130500000002,-1.18285,5.98596099999998,1.004136,-0.1195948,-0.1337506,-39.63493,-32.51157,1.772449
166.932379246,-7.232106,-5.040754,5.315282,0.9917468,-0.05588296,-0.1012023,-39.61384,-33.28263,0.5509996
166.94237709,-5.632242,-7.889668,5.254312,1.019257,-0.01607906,-0.1122677,-39.61384,-33.28263,0.5509996
166.952374458,-3.109379,-11.27275,5.315282,1.019882,-0.02253214,-0.07541678,-39.61384,-33.28263,0.5509996
166.962372303,-2.124848,-14.83389,5.193341,0.9763148,-0.1157262,-0.07579542,-39.61384,-33.28263,0.5509996
166.972369671,-1.263382,-17.74216,4.400721,0.966256,-0.1780781,-0.1236194,-39.61384,-33.28263,0.5509996
166.982367516,-0.955716300000001,-19.46338,3.181306,0.9554071,-0.1716384,-0.1398738,-40.38243,-32.521,1.315386
166.992365837,-3.170913,-21.00654,2.937423,0.9469198,-0.1092381,-0.1527966,-40.38243,-32.521,1.315386
167.002363205,-8.093571,-22.19359,3.181306,0.9702742,-0.05601522,-0.1753441,-40.38243,-32.521,1.315386
167.01236105,-10.1857,-22.31229,3.303247,1.010187,-0.05461444,-0.2146573,-40.38243,-32.521,1.315386
167.022358894,-8.40123700000001,-21.95618,2.815481,1.006507,-0.09205639,-0.2093769,-40.38243,-32.521,1.315386
167.032356262,-3.232446,-22.37165,2.69354,1.033656,-0.1624543,-0.2079703,-40.77488,-31.75929,1.760051
167.042354107,4.397675,-21.89683,1.535095,0.9975582,-0.1865892,-0.2184299,-40.77488,-31.75929,1.760051
167.052351475,8.64346799999999,-21.12525,0.3766508,0.9944185,-0.1749316,-0.2122059,-40.77488,-31.75929,1.760051
167.062349796,10.85866,-20.53172,0.5595631,1.010439,-0.09476374,-0.2481477,-40.77488,-31.75929,1.760051
167.072347641,6.92053700000001,-18.75115,1.047329,1.012535,0.001682727,-0.2275974,-40.77488,-31.75929,1.760051
167.082345009,-2.063314,-16.85188,0.864416900000002,1.015774,-0.01534018,-0.236213,-40.77657,-31.75602,2.147053
167.092342854,-5.75530800000001,-15.36807,0.681504599999997,0.995378,-0.09766644,-0.2672637,-40.77657,-31.75602,2.147053
167.102340698,-4.955376,-13.58749,0.01082622,0.9786348,-0.1659545,-0.2590812,-40.77657,-31.75602,2.147053
167.112338066,-3.232446,-13.11268,-1.452472,0.988906,-0.1931695,-0.2284632,-40.77657,-31.75602,2.147053
167.122336388,-0.4634504,-12.87527,-2.976741,0.985915,-0.1891963,-0.212666,-40.77657,-31.75602,2.147053
167.132333279,1.25948,-13.29073,-4.866835,0.9836489,-0.1457642,-0.1877873,-40.39146,-32.50357,3.379395
167.1423316,1.690213,-13.88426,-6.57401600000003,0.9912544,-0.1360749,-0.2074246,-40.39146,-32.50357,3.379395
167.152329445,3.659276,-14.71519,-7.366636,1.019686,-0.1196965,-0.2314072,-40.39146,-32.50357,3.379395
167.162326813,3.905409,-14.65584,-8.52507999999999,1.017269,-0.09428665,-0.2108308,-40.39146,-32.50357,3.379395
167.172324657,2.182479,-15.36807,-10.04935,0.9976431,-0.1388161,-0.2021707,-40.39146,-32.50357,3.379395
167.182322502,3.474676,-14.65584,-8.70799300000002,0.9636109,-0.144384,-0.2590605,-40.042,-31.35642,3.763094
167.19231987,3.659276,-14.00296,-8.95187600000001,0.940924,-0.07839417,-0.2738738,-40.042,-31.35642,3.763094
167.202318192,1.321013,-13.64685,-9.74449500000001,0.9734477,-0.07124574,-0.2533536,-40.042,-31.35642,3.763094
167.212315559,-1.632582,-13.40944,-9.31770000000002,0.9759794,-0.07589722,-0.236128,-40.042,-31.35642,3.763094
167.222313404,-3.970845,-14.12167,-8.890904,0.9736021,-0.07875457,-0.2246374,-40.042,-31.35642,3.763094
167.232311249,-5.570708,-15.19001,-10.29323,0.9779336,-0.101324,-0.2045389,-39.65689,-32.10397,4.995436
167.242308617,-2.494047,-15.36807,-10.3542,0.9958186,-0.120904,-0.2586442,-39.65689,-32.10397,4.995436
167.252306461,-1.263382,-14.9526,-11.45168,0.9924081,-0.1217643,-0.2921383,-39.65689,-32.10397,4.995436
167.262304783,0.5826145,-13.64685,-12.48818,1.011628,-0.1080678,-0.3237614,-39.65689,-32.10397,4.995436
167.272301674,1.013347,-10.97599,-11.08585,0.9971514,-0.03870718,-0.3596472,-39.65689,-32.10397,4.995436
167.282299995,-5.447642,-8.89865800000003,-10.47614,0.9799628,0.04739036,-0.3132175,-39.64903,-32.48433,4.997464
167.29229784,-14.06229,-9.19541899999997,-7.73246000000002,1.014308,0.06295079,-0.2271377,-39.64903,-32.48433,4.997464
167.302295208,-24.03068,-8.18642900000001,-4.074214,1.021113,0.03852591,-0.2027359,-39.64903,-32.48433,4.997464
167.312293053,-24.27681,-10.38247,-3.342566,1.058306,-0.0476921,-0.1994285,-39.64903,-32.48433,4.997464
167.322290421,-17.32355,-10.56052,-4.866835,1.062356,-0.1872493,-0.271186,-39.64903,-32.48433,4.997464
167.332288265,-9.69343500000003,-11.62887,-6.39110400000002,1.035815,-0.2007625,-0.256779,-38.51863,-32.85297,5.394836
167.342286587,-3.724712,-10.73858,-7.976343,1.030717,-0.1894507,-0.2840519,-38.51863,-32.85297,5.394836
167.352283955,-3.293979,-9.13606700000001,-8.70799300000002,0.9821752,-0.1228516,-0.3356706,-38.51863,-32.85297,5.394836
167.362281799,-6.12450699999998,-8.42383900000002,-9.86643700000001,0.943613,-0.01507747,-0.3169667,-38.51863,-32.85297,5.394836
167.372279644,-13.1393,-7.65225799999999,-11.45168,0.9330331,0.004598578,-0.2681385,-38.51863,-32.85297,5.394836
167.382277012,-16.58516,-6.761972,-12.30527,0.9356155,-0.05592736,-0.3030635,-38.87765,-33.6165,5.396111
167.392274857,-12.09323,-4.743992,-11.63459,0.9202947,-0.09821498,-0.3772052,-38.87765,-33.6165,5.396111
167.402272225,-3.417045,-2.607306,-10.59809,0.9039936,-0.0342831,-0.3652288,-38.87765,-33.6165,5.396111
167.412270069,1.628679,-1.004793,-9.31770000000002,0.913186,0.0485841,-0.3040085,-38.87765,-33.6165,5.396111
167.422268391,2.797811,0.004197581,-6.39110400000002,0.9179364,0.08134569,-0.2920608,-38.87765,-33.6165,5.396111
167.432265759,0.8287475,0.2416071,-2.976741,0.9217364,0.1132877,-0.2614467,-38.50122,-33.61695,5.01189
167.442263603,-1.817181,-0.3519166,0.620533899999998,0.9535737,0.1047496,-0.2543214,-38.50122,-33.61695,5.01189
167.452261448,-5.078443,-0.826735599999998,4.217809,0.9741061,0.1012941,-0.2514849,-38.50122,-33.61695,5.01189
167.462258816,-8.15510499999999,-1.538964,8.668674,0.9881913,0.1297921,-0.2476881,-38.50122,-33.61695,5.01189
167.472256661,-14.06229,-2.785364,11.71721,0.9925162,0.1334282,-0.231425,-37.81419,-33.6118,5.016988
167.482254028,-20.58482,-3.853706,14.09507,0.9935731,0.07703602,-0.2361981,-37.80633,-33.99215,5.019016
167.49225235,-23.53841,-5.040754,15.74128,1.007277,-0.004533178,-0.2582155,-37.80633,-33.99215,5.019016
167.502250195,-21.56935,-4.506582,17.02167,1.012309,-0.06611858,-0.3079803,-37.80633,-33.99215,5.019016
167.512247563,-18.30809,-2.844716,17.75332,0.9920322,-0.07780207,-0.3725497,-37.80633,-33.99215,5.019016
167.522245407,-15.53909,-0.4706214,16.89973,0.9779814,-0.05625179,-0.376838,-37.80633,-33.99215,5.019016
167.532243252,-14.67763,2.675054,16.41196,0.9690596,-0.07454387,-0.3916536,-37.80633,-33.99215,5.019016
167.54224062,-13.38543,5.642673,16.59487,0.9754372,-0.102506,-0.3811288,-37.80633,-33.99215,5.019016
167.552238941,-10.5549,8.610291,17.63138,0.9864668,-0.09229728,-0.3514789,-37.80633,-33.99215,5.019016
167.562235832,-8.33970399999999,10.50957,17.5704,0.9845095,-0.09107017,-0.3194113,-37.80633,-33.99215,5.019016
167.572234154,-5.693775,11.51856,17.81429,0.9839019,-0.1104672,-0.3136623,-38.88015,-33.24649,4.168578
167.582231999,-2.432514,11.87467,18.54594,0.9990291,-0.1372889,-0.3036317,-38.88015,-33.24649,4.168578
167.592229366,5.62834,13.12107,21.47253,1.005332,0.01964119,-0.3204332,-38.88015,-33.24649,4.168578
167.602227211,3.782343,14.18941,20.19215,0.9728531,0.1156853,-0.2691937,-38.88015,-33.24649,4.168578
167.612225056,-4.032378,12.52755,18.60691,1.008169,-0.0506659,-0.2036475,-38.88015,-33.24649,4.168578
167.622222423,-4.278511,11.69661,20.25312,1.048402,-0.2224295,-0.2620597,-39.26106,-32.87222,3.776767
167.632220745,3.35161,12.64625,22.14321,0.9943562,-0.148151,-0.3122351,-39.26106,-32.87222,3.776767
167.64221859,4.274609,13.12107,19.52147,0.948809,-0.03103626,-0.2667211,-39.26106,-32.87222,3.776767
167.652215958,-1.571049,12.17143,18.24108,0.9561179,-0.08210777,-0.2346561,-39.26106,-32.87222,3.776767
167.662213802,-4.955376,12.17143,18.24108,0.9512239,-0.1334389,-0.257606,-39.26106,-32.87222,3.776767
167.67221117,-6.73984000000002,11.39985,16.71681,0.9885845,-0.1505928,-0.2480952,-39.6577,-31.73723,3.3809
167.682209015,-6.30910700000001,10.68762,15.37546,0.9977116,-0.1436137,-0.2485915,-39.6577,-31.73723,3.3809
167.692207336,-2.92478,9.97539500000001,14.39993,0.9725889,-0.1033217,-0.2519081,-39.6577,-31.73723,3.3809
167.702204227,-1.817181,8.55093899999998,12.20498,0.9959244,-0.1253051,-0.2088713,-39.6577,-31.73723,3.3809
167.712202549,0.2749484,7.48259600000002,9.217411,1.008006,-0.2501157,-0.2265675,-39.6577,-31.73723,3.3809
167.722200394,8.705001,7.60130100000003,9.46129399999998,0.9754848,-0.2579606,-0.2700593,-40.40521,-31.74667,2.923837
167.732197761,12.15086,7.66065299999999,7.63217200000002,0.9727067,-0.1353038,-0.2423286,-40.40521,-31.74667,2.923837
167.742195606,8.58193500000002,7.36389100000001,6.71760999999998,1.016987,-0.05356964,-0.2213694,-40.40521,-31.74667,2.923837
167.752192974,3.843876,9.14446299999999,8.42479100000002,1.039045,-0.0362628,-0.2893701,-40.40521,-31.74667,2.923837
167.762190819,-2.92478,11.99338,10.92459,0.9949362,0.001687479,-0.3481679,-40.40521,-31.74667,2.923837
167.77218914,-12.2163,13.77395,11.04653,0.960524,-0.0331258,-0.3078986,-40.79399,-30.99204,2.529999
167.782186508,-17.56969,13.952,11.41236,0.9306179,-0.2038216,-0.257552,-40.79399,-30.99204,2.529999
167.792184353,-9.57036899999999,14.72359,14.15604,0.8856451,-0.1693758,-0.2196749,-40.79399,-30.99204,2.529999
167.802182198,-8.64737,12.46819,10.13197,0.9613444,-0.2027749,-0.1566263,-40.79399,-30.99204,2.529999
167.812179565,-4.340044,11.57791,6.83955100000002,1.059174,-0.3276738,-0.2098866,-40.79399,-30.99204,2.529999
167.82217741,5.99753899999999,12.46819,3.181306,1.066877,-0.3762527,-0.2778453,-41.18107,-30.24068,1.749158
167.832175732,12.33546,14.18941,-1.452472,1.028485,-0.3306415,-0.308419,-41.18107,-30.24068,1.749158
167.842172623,14.91986,14.54553,-2.184121,0.9627687,-0.1510722,-0.2447001,-41.18107,-30.24068,1.749158
167.852170944,10.3664,16.02934,0.7424754,0.9119443,0.1697627,-0.1757791,-41.18107,-30.24068,1.749158
167.862168312,-12.33936,14.13006,0.7424754,0.9409546,0.1308001,-0.1418407,-41.18107,-30.24068,1.749158
167.872166157,-22.67695,12.88366,3.608101,1.039641,-0.1175066,-0.1945922,-41.17909,-30.24449,1.297656
167.882164001,-13.1393,12.88366,3.851984,1.061545,-0.2993951,-0.2577556,-41.17909,-30.24449,1.297656
167.892161369,5.62834,14.30812,1.352183,1.028367,-0.3763663,-0.3131928,-41.17909,-30.24449,1.297656
167.902159214,25.19591,16.08869,-0.8427644,0.9870455,-0.2517702,-0.3088456,-41.17909,-30.24449,1.297656
167.912157536,28.5187,19.88724,-2.488975,1.009649,0.001228445,-0.1648988,-41.17909,-30.24449,1.297656
167.922154903,41.50221,21.01493,-12.54915,0.8905776,1.132756,-0.9407544,-41.17401,-30.2543,0.136651
167.932152748,-3.540112,8.076119,-31.75494,1.539952,0.4471617,0.3169452,-41.17401,-30.2543,0.136651
167.942150116,-80.88738,31.4016,6.77858100000002,1.405506,-1.610786,0.07889999,-41.17401,-30.2543,0.136651
167.952147961,13.50459,30.80808,38.23949,0.6604862,-1.192958,-0.7617241,-41.17401,-30.2543,0.136651
167.962145805,65.8693700000002,28.13722,20.61894,0.4065191,0.04086227,-0.3715596,-41.17401,-30.2543,0.136651
167.972143173,28.58023,24.75414,-1.26956,0.5112,0.4461608,0.09428664,-41.54876,-30.25711,0.1338701
167.982141018,-14.61609,17.92861,0.803446099999999,0.9132458,0.2120315,0.1386322,-41.54876,-30.25711,0.1338701
167.992139339,-35.41433,13.41783,8.668674,1.11804,-0.03286763,-0.03634201,-41.54876,-30.25711,0.1338701
168.002136707,-31.4762,8.49158700000002,10.37586,1.20006,-0.2265283,-0.1881437,-41.54876,-30.25711,0.1338701
168.012134552,-9.324236,7.66065299999999,3.120335,1.167343,-0.4030363,-0.129655,-41.54876,-30.25711,0.1338701
168.02213192,18.48878,8.19482400000001,-2.245092,1.007677,-0.4113827,-0.1126243,-42.67887,-29.88901,-0.328002
168.032129765,32.02609,4.336921,-5.720425,0.9017401,-0.3230555,-0.1086338,-42.67887,-29.88901,-0.328002
168.042127609,33.37983,-0.1738595,-7.79343099999999,0.9051625,-0.2192455,-0.08282337,-42.67887,-29.88901,-0.328002
168.052124977,30.05703,-3.735002,-9.68352500000001,0.9428858,-0.1517814,-0.06711349,-42.67887,-29.88901,-0.328002
168.062123299,25.44204,-5.931039,-10.04935,0.9516259,-0.07246607,-0.07432779,-41.93556,-29.50629,-0.7114706
168.072121143,19.78098,-7.05873399999998,-8.70799300000002,0.9914838,-0.04251866,-0.1270484,-41.93556,-29.50629,-0.7114706
168.082118511,14.11993,-6.88067700000001,-7.79343099999999,1.024583,-0.01621605,-0.1917206,-41.93556,-29.50629,-0.7114706
168.092116356,7.28973700000001,-5.99039199999999,-7.12275300000002,1.04682,-0.06002904,-0.24822,-41.93556,-29.50629,-0.7114706
168.102114201,4.520741,-3.20083,-6.26916200000001,1.059688,-0.1232323,-0.2793337,-41.93556,-29.50629,-0.7114706
168.112111568,5.382206,0.06354995,-6.02527899999998,1.041537,-0.1167702,-0.2773894,-41.55663,-29.87675,0.1318426
168.12210989,3.474676,3.32793,-5.049747,1.023853,-0.05659526,-0.2481809,-41.55663,-29.87675,0.1318426
168.132106781,-2.370981,5.345911,-3.586449,0.9955,0.001009361,-0.2112959,-41.55663,-29.87675,0.1318426
168.142105103,-9.20116899999999,6.17684400000002,-2.428004,1.003636,-0.04229267,-0.1816273,-41.55663,-29.87675,0.1318426
168.152102947,-8.27817099999997,6.59230999999998,-1.452472,1.017925,-0.1285299,-0.1840228,-41.55663,-29.87675,0.1318426
168.162100315,-2.309447,6.948425,-1.330531,1.006657,-0.1774168,-0.1916478,-41.56082,-29.50348,-0.7086897
168.17209816,3.105477,6.65166300000002,-1.696355,1.00387,-0.1840163,-0.1634053,-41.56082,-29.50348,-0.7086897
168.182096005,7.16667,6.88907200000001,-1.574414,0.9986711,-0.1402,-0.1433073,-41.56082,-29.50348,-0.7086897
168.192093372,4.766874,6.17684400000002,-1.452472,0.9836329,-0.06547794,-0.1232001,-41.56082,-29.50348,-0.7086897
168.202091694,-1.201849,4.57433,-1.940238,0.9799258,-0.1014582,-0.1174415,-41.56082,-29.50348,-0.7086897
168.212089539,-0.0942510000000003,3.031168,-1.818297,0.9820147,-0.1870655,-0.1308232,-41.17034,-30.26138,-0.7018528
168.222086906,6.73593800000001,1.606712,-2.549946,0.984796,-0.205507,-0.1341734,-41.17034,-30.26138,-0.7018528
168.232084751,13.44306,0.3603118,-3.159653,0.978581,-0.159925,-0.1313028,-41.17034,-30.26138,-0.7018528
168.242082119,15.47366,-0.9454404,-3.464507,0.9812645,-0.09524173,-0.1313241,-41.17034,-30.26138,-0.7018528
168.252079964,12.2124,-1.657669,-3.220624,0.9902716,-0.05634636,-0.1485786,-41.17034,-30.26138,-0.7018528
168.262078285,6.428272,-2.785364,-3.037712,1.008552,-0.06953015,-0.141907,-41.55465,-29.88057,-0.3196602
168.272075176,2.797811,-3.497592,-2.671887,1.018055,-0.1344629,-0.1423854,-41.55465,-29.88057,-0.3196602
168.282073498,4.336142,-3.319535,-2.91577,1.007005,-0.1694288,-0.1691574,-41.55465,-29.88057,-0.3196602
168.292071343,7.41280299999999,-3.616297,-3.464507,0.9960573,-0.1311723,-0.1600552,-41.55465,-29.88057,-0.3196602
168.30206871,5.44374,-4.091116,-3.769361,1.001433,-0.1056305,-0.1418853,-41.55465,-29.88057,-0.3196602
168.312066555,1.321013,-4.684639,-3.464507,0.9920492,-0.1247018,-0.1346854,-42.29824,-30.26274,0.1283092
168.322063923,0.8287475,-5.45622,-2.245092,0.9812909,-0.1223706,-0.1222243,-42.29824,-30.26274,0.1283092
168.332061768,-0.1557842,-6.82132499999999,-2.367033,0.9884341,-0.1134562,-0.1193676,-42.29824,-30.26274,0.1283092
168.342060089,-1.078783,-8.30513400000001,-2.8548,0.9881209,-0.1226777,-0.1174503,-42.29824,-30.26274,0.1283092
168.352057457,2.059412,-9.96700000000001,-3.464507,1.002757,-0.1760439,-0.1394766,-42.29824,-30.26274,0.1283092
168.362055302,4.213075,-10.56052,-3.647419,1.03938,-0.1289375,-0.1687457,-41.1757,-30.25103,0.523653
168.372053146,2.736278,-10.38247,-4.440039,1.010993,-0.09648503,-0.1720546,-41.1757,-30.25103,0.523653
168.382050514,-1.509515,-9.61088600000001,-4.561981,0.9921671,-0.1325851,-0.1997699,-41.1757,-30.25103,0.523653
168.392048359,-3.724712,-8.83930499999998,-5.171688,0.9686875,-0.1804705,-0.2308241,-41.1757,-30.25103,0.523653
168.402046681,-0.5249836,-8.00837199999998,-5.232659,0.9628233,-0.1796364,-0.233207,-41.1757,-30.25103,0.523653
168.412043572,2.059412,-6.287153,-4.866835,0.9796609,-0.08969308,-0.2117236,-41.16785,-30.63139,0.5256805
168.422041893,-0.832649800000001,-5.87168699999998,-4.622952,1.003588,-0.09201758,-0.1988431,-41.16785,-30.63139,0.5256805
168.432039261,0.3364816,-5.69363,-3.586449,1.032127,-0.1592189,-0.2228044,-41.16785,-30.63139,0.5256805
168.442037106,8.08966899999999,-4.862697,-3.891303,1.08636,-0.1148504,-0.217646,-41.16785,-30.63139,0.5256805
168.45203495,12.08933,-3.497592,-4.257127,1.037796,-0.01944871,-0.2017929,-41.16785,-30.63139,0.5256805
168.462032318,4.889941,-3.082125,-4.013244,0.9616984,-0.01431032,-0.1662469,-41.16337,-31.0052,1.301712
168.472030163,-1.632582,-3.319535,-1.26956,0.9548218,-0.03725035,-0.1624004,-41.16337,-31.0052,1.301712
168.482028484,-2.986313,-2.666659,1.291212,1.003952,-0.007346885,-0.1869012,-41.16337,-31.0052,1.301712
168.492025852,-7.04750599999997,-2.251192,2.144803,1.003885,-0.02970592,-0.1873738,-41.16337,-31.0052,1.301712
168.502023697,-8.27817099999997,-2.013783,2.998394,1.018579,-0.08587255,-0.1969565,-41.16337,-31.0052,1.301712
168.512021542,-3.724712,-0.4706214,4.888487,0.9926668,-0.08243212,-0.2428555,-40.41389,-30.99958,1.307274
168.52201891,-4.46311,1.250597,5.315282,0.9768711,-0.0715193,-0.2375665,-40.41389,-30.99958,1.307274
168.532016754,-7.66283799999999,3.387283,7.44925899999998,0.99963,-0.08937313,-0.2198942,-40.41389,-30.99958,1.307274
168.542014122,-7.78590499999999,4.752387,8.72964499999998,1.024599,-0.09573125,-0.2252005,-40.41389,-30.99958,1.307274
168.552011967,-9.57036899999999,5.76137699999998,8.11993799999998,1.028053,-0.1229932,-0.1849991,-40.41389,-30.99958,1.307274
168.562010288,-9.07810300000001,5.998787,7.754113,0.9791256,-0.2155747,-0.160004,-40.78863,-31.00239,1.304493
168.572007656,-3.047846,5.345911,8.48576300000002,1.010838,-0.1923458,-0.1859084,-40.78863,-31.00239,1.304493
168.582005501,-1.386449,5.76137699999998,6.90052199999999,1.008448,-0.1171335,-0.1926236,-40.78863,-31.00239,1.304493
168.592003346,-6.98597300000001,5.049149,5.437224,0.9826982,-0.1465926,-0.1700781,-40.78863,-31.00239,1.304493
168.602000713,-6.678307,3.980806,4.644604,0.9715502,-0.2009926,-0.1432444,-40.78863,-31.00239,1.304493
168.611998558,-2.74018,3.031168,3.120335,0.9956573,-0.2130982,-0.1375404,-41.53473,-31.01456,0.5249281
168.621996879,-1.263382,1.428654,0.4376215,0.9527683,-0.2387856,-0.1436805,-41.53473,-31.01456,0.5249281
168.631994247,1.751746,-1.242202,-2.06218,0.9564576,-0.2531067,-0.123583,-41.53473,-31.01456,0.5249281
168.641992092,5.99753899999999,-3.43824,-4.50101,0.9797785,-0.2234895,-0.1236313,-41.53473,-31.01456,0.5249281
168.65198946,6.612871,-6.22780099999998,-5.964308,0.9536517,-0.1290058,-0.09728841,-41.16615,-30.63465,0.1386786
168.661987305,1.07488,-8.542543,-6.87886999999998,0.9676864,-0.07181635,-0.09110612,-41.16615,-30.63465,0.1386786
168.671985149,-5.139976,-10.20441,-7.18372300000002,1.006806,-0.1571428,-0.1007239,-41.16615,-30.63465,0.1386786
168.681982517,-2.55558,-11.62887,-8.76896300000003,1.00446,-0.2421124,-0.1940202,-41.16615,-30.63465,0.1386786
168.691980839,3.228544,-13.23138,-10.41517,1.045886,-0.1644626,-0.1883695,-41.16615,-30.63465,0.1386786
168.701978683,1.25948,-13.29073,-11.87847,1.017573,-0.1094491,-0.1691913,-41.54429,-30.63093,0.9099016
168.711976051,-3.417045,-11.74757,-10.41517,0.970533,-0.07182436,-0.257177,-41.54429,-30.63093,0.9099016
168.721973896,-8.33970399999999,-10.73858,-9.68352500000001,0.9605663,-0.008472584,-0.2691403,-41.54429,-30.63093,0.9099016
168.731971264,-14.24689,-9.13606700000001,-8.58605100000002,0.9716731,-0.002793743,-0.2567182,-41.54429,-30.63093,0.9099016
168.741969109,-19.66182,-8.12707699999999,-7.18372300000002,0.9832646,-0.04846599,-0.228012,-41.54429,-30.63093,0.9099016
168.751966953,-18.36962,-7.47420100000002,-5.964308,0.983619,-0.09309983,-0.2208225,-41.16337,-31.0052,1.301712
168.761964321,-12.89316,-7.83031500000001,-6.513045,0.9887237,-0.1313883,-0.2208216,-41.16337,-31.0052,1.301712
168.771962643,-4.893843,-7.889668,-8.58605100000002,1.014384,-0.1739547,-0.2017123,-41.16337,-31.0052,1.301712
168.781960487,3.105477,-7.889668,-10.41517,1.042649,-0.2250411,-0.1634623,-41.16337,-31.0052,1.301712
168.791957855,9.44340000000003,-8.00837199999998,-11.45168,1.005231,-0.2050735,-0.183981,-41.16337,-31.0052,1.301712
168.8019557,11.96626,-8.77995300000002,-12.79303,1.000878,-0.1551953,-0.1935578,-41.16337,-31.0052,1.301712
168.811953545,11.16633,-7.236791,-12.12236,1.003552,-0.09159908,-0.2591438,-41.16337,-31.0052,1.301712
168.821950912,7.35127000000003,-6.88067700000001,-12.06138,0.9927816,-0.01116751,-0.2615386,-41.16337,-31.0052,1.301712
168.831949234,-0.586516899999998,-5.634277,-9.378671,1.02069,0.06078315,-0.2123124,-41.16337,-31.0052,1.301712
168.841946125,-11.6625,-4.862697,-6.63498599999997,0.9868971,0.0690501,-0.2447988,-41.16337,-31.0052,1.301712
168.851944447,-19.29262,-5.040754,-5.049747,1.013789,-0.01268652,-0.2074957,-40.408,-31.37612,1.760804
168.861942291,-20.15409,-4.803344,-4.318098,1.026829,-0.08434822,-0.2075,-40.408,-31.37612,1.760804
168.871939659,-15.90829,-4.150468,-5.049747,1.005635,-0.1502077,-0.2428607,-40.408,-31.37612,1.760804
168.881937504,-8.89350299999999,-3.794354,-6.20819099999998,0.9800014,-0.1604067,-0.2399419,-40.408,-31.37612,1.760804
168.891935348,-5.816842,-2.132488,-7.61051899999998,0.9969782,-0.155382,-0.2055153,-40.408,-31.37612,1.760804
168.901932716,-6.73984000000002,-0.411269,-7.976343,1.000407,-0.1818875,-0.1887643,-40.40013,-31.75648,1.762832
168.911931038,-3.970845,-1.420259,-9.07381699999998,0.9776449,-0.1905685,-0.2384943,-40.40013,-31.75648,1.762832
168.921928883,-0.03271778,-1.835726,-10.53712,0.9844165,-0.1360136,-0.2389987,-40.40013,-31.75648,1.762832
168.93192625,0.705681,-1.657669,-11.32973,0.9703934,-0.06385466,-0.2356429,-40.40013,-31.75648,1.762832
168.941924095,-0.894183000000003,-1.242202,-10.72003,0.9415591,-0.03403373,-0.2600076,-40.40013,-31.75648,1.762832
168.951921463,-2.92478,-1.301555,-9.68352500000001,0.9562052,-0.009385879,-0.2533395,-40.3903,-32.14065,1.313357
168.961919308,-4.46311,-1.479612,-8.64702100000002,0.9851958,0.004631903,-0.217979,-40.3903,-32.14065,1.313357
168.971917629,-6.61677399999998,-2.013783,-8.40313799999999,1.006558,-0.01663796,-0.1988677,-40.3903,-32.14065,1.313357
168.98191452,-4.770776,-1.95443,-8.15925599999997,1.016692,-0.06376269,-0.219452,-40.3903,-32.14065,1.313357
168.991912842,0.767214200000001,-1.895078,-8.28119799999998,1.012961,-0.07329299,-0.2438504,-40.3903,-32.14065,1.313357
169.001910686,3.474676,-0.411269,-8.34216799999998,1.048911,-0.06631717,-0.1965359,-39.62875,-32.88865,2.161479
169.011908054,3.105477,2.31894,-6.63498599999997,1.018852,-0.04841018,-0.1926595,-39.62875,-32.88865,2.161479
169.021905899,2.859344,1.784769,-6.33013299999999,0.9511264,-0.02388901,-0.2341838,-39.62875,-32.88865,2.161479
169.031904221,-0.586516899999998,0.3603118,-5.78139599999999,0.9592133,-0.01359465,-0.2418578,-39.62875,-32.88865,2.161479
169.041901112,-4.278511,-0.1738595,-5.049747,0.991675,-0.02863408,-0.2031459,-39.62875,-32.88865,2.161479
169.051899433,-7.66283799999999,0.1229023,-3.281595,1.008561,-0.04591277,-0.2160924,-39.24446,-33.26946,1.779285
169.061896801,-5.386109,0.8351307,-2.001209,1.007255,-0.02934296,-0.2610805,-39.24446,-33.26946,1.779285
169.071894646,-0.6480501,2.259588,-1.391501,1.007264,-0.03060417,-0.2926663,-39.24446,-33.26946,1.779285
169.08189249,2.920877,3.446635,0.31568,0.995313,0.03545832,-0.2696908,-39.24446,-33.26946,1.779285
169.091889858,1.628679,4.396273,1.657037,0.9805828,0.04230823,-0.2328165,-39.24446,-33.26946,1.779285
169.101887703,-0.1557842,4.218216,3.425189,0.9827276,-0.01976657,-0.2237113,-38.93217,-33.26712,1.781602
169.111886025,1.936346,5.108501,5.681107,1.02204,-0.03676355,-0.2012824,-38.93217,-33.26712,1.781602
169.121883392,3.413143,6.23619700000001,7.08343500000003,0.994945,-0.02136807,-0.2127249,-38.93217,-33.26712,1.781602
169.131881237,3.290077,5.642673,8.05896700000001,0.9918073,-0.009644648,-0.1993224,-38.93217,-33.26712,1.781602
169.141879082,2.613211,5.464615,8.85158600000001,0.9845448,-0.01226609,-0.2045734,-38.93217,-33.26712,1.781602
169.15187645,1.936346,5.702025,9.58323599999998,0.9872678,-0.02867384,-0.2509958,-39.25034,-32.89292,1.325755
169.161874294,0.2749484,5.998787,10.25391,0.9923027,-0.03733448,-0.252438,-39.25034,-32.89292,1.325755
169.171871662,-1.201849,6.71101499999999,10.80265,1.006878,-0.06080502,-0.2467145,-39.25034,-32.89292,1.325755
169.181869507,-0.3403839,7.48259600000002,11.29042,1.008813,-0.08604451,-0.2476685,-39.25034,-32.89292,1.325755
169.191867828,1.567146,8.84769999999998,11.47333,1.016786,-0.06930796,-0.2414652,-39.99027,-33.28217,0.9352198
169.201865196,1.690213,9.916043,11.47333,1.005049,-0.06711892,-0.2424025,-39.99027,-33.28217,0.9352198
169.211863041,0.767214200000001,11.39985,12.14401,1.006543,-0.06838053,-0.2242189,-39.99027,-33.28217,0.9352198
169.221860886,-0.2788507,11.57791,13.30245,0.9913706,-0.01270491,-0.2141567,-39.99027,-33.28217,0.9352198
169.231858254,-2.309447,11.04374,13.60731,0.9835312,-0.009659022,-0.1830363,-39.99027,-33.28217,0.9352198
169.241856098,-4.340044,9.44122399999999,12.9976,1.010179,-0.07897653,-0.1687077,-40.01386,-32.14111,0.9291363
169.25185442,-0.2788507,8.610291,12.38789,1.013726,-0.1646603,-0.1935777,-40.01386,-32.14111,0.9291363
169.261851788,6.12060500000003,8.13547199999999,11.59527,1.028621,-0.1794609,-0.1969499,-40.01386,-32.14111,0.9291363
169.271849632,9.75106599999998,9.97539500000001,12.26595,1.027895,-0.1140739,-0.1658581,-40.01386,-32.14111,0.9291363
169.281847,7.41280299999999,9.67863400000001,11.41236,0.9655904,-0.06567305,-0.1585833,-40.01386,-32.14111,0.9291363
169.291844845,0.705681,7.89806300000001,10.071,0.9556727,-0.1336376,-0.1298339,-40.39478,-31.76683,0.5373259
169.30184269,-0.6480501,5.345911,8.97352800000002,0.9695589,-0.1985145,-0.13367,-40.39478,-31.76683,0.5373259
169.311840057,2.182479,3.743397,6.41275599999997,0.9776189,-0.2388113,-0.1470738,-40.39478,-31.76683,0.5373259
169.321837902,6.67440499999999,2.615702,3.973926,0.9744713,-0.2273951,-0.1671715,-40.39478,-31.76683,0.5373259
169.331836224,10.24333,1.369302,1.169271,0.9736195,-0.1823246,-0.1786674,-40.39478,-31.76683,0.5373259
169.341833592,10.3664,0.4790165,-0.720822899999998,0.994339,-0.1176438,-0.1648415,-40.77569,-31.39256,0.1455154
169.351831436,7.28973700000001,0.2416071,-0.964705900000002,1.014142,-0.05658879,-0.1735061,-40.77569,-31.39256,0.1455154
169.361829281,1.321013,-0.05515479,-1.086647,1.011508,-0.04588871,-0.1668042,-40.77569,-31.39256,0.1455154
169.371826649,-3.417045,0.1822547,-0.598881400000002,1.001616,-0.09048028,-0.1859185,-40.77569,-31.39256,0.1455154
169.381824493,-2.92478,0.5383689,-0.659852100000001,0.9859377,-0.1387369,-0.2212934,-40.77569,-31.39256,0.1455154
169.391821861,0.4595481,1.666064,-0.903735200000002,1.000875,-0.1296553,-0.2170146,-40.78355,-31.0122,0.1434879
169.401820183,2.551678,3.031168,-1.025677,1.002649,-0.1204357,-0.2222844,-40.78355,-31.0122,0.1434879
169.411818028,4.582274,4.099511,-0.3549984,0.9917505,-0.05885307,-0.2131883,-40.78355,-31.0122,0.1434879
169.421815395,4.274609,4.752387,-0.2330568,1.020348,-0.02396511,-0.1797468,-40.78355,-31.0122,0.1434879
169.43181324,0.767214200000001,5.049149,-0.1111153,1.02451,-0.09003674,-0.1869157,-40.78355,-31.0122,0.1434879
169.441811085,1.690213,5.345911,-0.1720861,1.014997,-0.1807984,-0.2074545,-40.40264,-31.38647,0.5352983
169.451808453,7.720469,5.93943499999998,-0.7817937,1.003455,-0.1894848,-0.2289681,-40.40264,-31.38647,0.5352983
169.461806297,10.79713,6.53295800000002,-2.488975,1.004679,-0.1760683,-0.1993019,-40.40264,-31.38647,0.5352983
169.471804619,10.79713,7.779358,-3.403537,1.008553,-0.1751646,-0.215102,-40.40264,-31.38647,0.5352983
169.481801987,9.87413200000002,9.50057699999998,-3.525478,0.9862133,-0.1540237,-0.2461759,-40.40264,-31.38647,0.5352983
169.491799832,8.95113399999999,9.79733799999999,-1.208589,0.9583637,0.03308816,-0.1834821,-40.40095,-31.38974,0.1482964
169.501797676,-3.293979,9.79733799999999,-0.964705900000002,0.9937394,0.09785431,-0.08593088,-40.40095,-31.38974,0.1482964
169.511795044,-16.70822,8.43223400000003,0.1327677,1.032337,-0.01188485,-0.1070273,-40.40095,-31.38974,0.1482964
169.521792889,-16.09289,7.66065299999999,0.925387699999998,1.03407,-0.1578183,-0.1802148,-40.40095,-31.38974,0.1482964
169.531790257,-6.862906,7.54194799999998,1.291212,1.017796,-0.2002422,-0.2141544,-40.40095,-31.38974,0.1482964
169.541788578,2.613211,8.55093899999998,1.169271,1.017229,-0.1180854,-0.2093889,-40.01834,-31.76728,0.1531048
169.551786423,6.18213799999999,9.79733799999999,1.1083,1.02349,-0.06198194,-0.1988855,-40.01834,-31.76728,0.1531048
169.561783791,6.18213799999999,11.04374,3.364218,1.007447,0.01332377,-0.2189772,-40.01834,-31.76728,0.1531048
169.571781635,2.859344,12.46819,6.35178600000003,0.9587458,0.142415,-0.1854252,-40.01834,-31.76728,0.1531048
169.58177948,-13.81616,12.46819,7.81508400000003,0.9928985,0.09043891,-0.09789191,-40.01834,-31.76728,0.1531048
169.591776848,-23.41535,11.4592,10.01003,1.020535,-0.08484793,-0.1424025,-40.77202,-31.39964,-0.6929884
169.60177517,-15.60063,11.16244,10.37586,1.017316,-0.2520676,-0.1945186,-40.77202,-31.39964,-0.6929884
169.611773014,0.0903486900000002,11.28115,10.01003,1.019061,-0.2414345,-0.2045745,-40.77202,-31.39964,-0.6929884
169.621770382,10.1818,12.46819,7.44925899999998,1.020714,-0.1995363,-0.1964524,-40.77202,-31.39964,-0.6929884
169.631768227,14.98139,12.88366,6.29081499999999,1.021322,-0.1801481,-0.2031585,-40.77202,-31.39964,-0.6929884
169.641765594,23.16531,18.40343,5.98596099999998,1.059751,0.3216515,0.01248308,-40.40345,-31.01974,-1.079238
169.651763439,50.60913,6.53295800000002,-9.01284600000001,0.9382934,0.6519895,-0.5320098,-40.40345,-31.01974,-1.079238
169.661761284,-25.13828,16.56351,11.22945,1.200817,-0.7774075,0.1479572,-40.40345,-31.01974,-1.079238
169.671758652,6.98206999999997,13.53654,24.27719,0.5112754,-0.8714604,-0.5672449,-40.40345,-31.01974,-1.079238
169.681756973,53.43966,13.71459,7.57120099999999,1.113258,-0.3253692,-0.1281449,-40.40345,-31.01974,-1.079238
169.691754818,43.28667,17.98796,7.14440499999997,1.179231,-0.150981,-0.01248946,-41.15881,-30.64882,-1.53833
169.701752186,11.6586,18.9376,5.254312,0.9073209,0.05556032,-0.06040481,-41.15881,-30.64882,-1.53833
169.71175003,-30.43013,14.01136,3.730042,0.89477,0.1288659,0.01186317,-41.15881,-30.64882,-1.53833
169.721747875,-58.3046899999999,9.67863400000001,2.69354,1.092669,-0.003602671,0.03021676,-41.15881,-30.64882,-1.53833
169.731745243,-59.0430900000001,8.13547199999999,2.998394,1.018801,-0.3033717,-0.122243,-41.15881,-30.64882,-1.53833
169.741743565,-29.01487,6.71101499999999,1.047329,0.9920645,-0.3083576,-0.18441,-41.53188,-30.6549,-1.928112
169.751741409,2.551678,5.227206,-1.818297,0.9644983,-0.2660463,-0.1212008,-41.53188,-30.6549,-1.928112
169.761738777,24.21138,3.090521,-2.245092,0.9817508,-0.144998,-0.0470828,-41.53188,-30.6549,-1.928112
169.771736622,29.38017,0.597721199999998,-2.06218,0.9934211,-0.03974268,-0.04043018,-41.53188,-30.6549,-1.928112
169.78173399,21.19625,-0.5299737,-1.757326,1.021209,-0.01592645,-0.09982818,-41.53635,-30.28109,-2.704144
169.791731834,9.01266799999998,-0.4706214,-1.26956,1.004059,-0.06377884,-0.1409435,-41.53635,-30.28109,-2.704144
169.801729679,-1.509515,-0.2332119,-1.452472,0.9913576,-0.1141432,-0.1476085,-41.53635,-30.28109,-2.704144
169.811727047,-7.66283799999999,0.1229023,-2.610917,0.9919698,-0.1723037,-0.1322801,-41.53635,-30.28109,-2.704144
169.821725368,-6.43217400000002,0.4196641,-4.013244,1.00755,-0.2235101,-0.1327727,-41.53635,-30.28109,-2.704144
169.831723213,-0.2173175,1.962826,-4.866835,1.010102,-0.1785654,-0.1653319,-41.53804,-30.27782,-2.317142
169.841720581,3.905409,3.149873,-6.02527899999998,1.018188,-0.1162402,-0.1691906,-41.53804,-30.27782,-2.317142
169.851718426,6.79747099999997,3.505987,-4.683922,1.017627,-0.08599132,-0.1548401,-41.53804,-30.27782,-2.317142
169.86171627,7.28973700000001,4.277568,-3.220624,0.9909748,-0.04167087,-0.1394906,-41.53804,-30.27782,-2.317142
169.871713638,4.090009,3.980806,-2.488975,0.995761,-0.03651952,-0.1179644,-41.53804,-30.27782,-2.317142
169.88171196,1.751746,3.090521,-2.184121,1.00831,-0.05550307,-0.09548832,-41.52849,-30.66144,-2.702115
169.891708851,1.751746,1.962826,-1.818297,1.005977,-0.08648715,-0.07776895,-41.52849,-30.66144,-2.702115
169.901707172,2.859344,0.5383689,-1.696355,1.001995,-0.1335749,-0.06387119,-41.52849,-30.66144,-2.702115
169.911705017,5.81293900000002,-1.064145,-1.208589,0.9975848,-0.1585723,-0.07773577,-41.52849,-30.66144,-2.702115
169.921702385,7.47433699999998,-2.369897,-1.147618,0.9917265,-0.1326797,-0.1030968,-41.52849,-30.66144,-2.702115
169.93170023,6.55133799999999,-3.497592,-1.208589,0.9921497,-0.07721257,-0.09641171,-41.89706,-31.04134,-2.315866
169.941698551,3.35161,-5.040754,-0.598881400000002,0.9890516,-0.04169038,-0.08445105,-41.89706,-31.04134,-2.315866
169.951695442,-0.894183000000003,-6.16844799999999,1.1083,1.005732,0.004379089,-0.07779192,-41.89706,-31.04134,-2.315866
169.961693764,-8.21663800000001,-5.75298199999998,3.730042,1.076802,-0.01671389,-0.04058146,-41.89706,-31.04134,-2.315866
169.971691608,-12.15476,-5.87168699999998,5.620136,1.053052,-0.07635928,-0.08168224,-41.89706,-31.04134,-2.315866
169.981688976,-4.83231,-9.01736299999997,3.669072,1.062843,-0.1569637,-0.09603584,-41.52232,-31.03853,-2.313086
169.991686821,-1.571049,-3.853706,6.41275599999997,1.119158,-0.219432,0.0713837,-41.52232,-31.03853,-2.313086
170.001684666,6.73593800000001,-8.30513400000001,4.949458,0.8865816,-0.1907851,-0.1186915,-41.52232,-31.03853,-2.313086
170.011682034,5.44374,-11.39146,0.925387699999998,0.9891087,-0.2504545,-0.01069669,-41.52232,-31.03853,-2.313086
170.021680355,6.18213799999999,-16.91123,-1.574414,0.9694819,-0.2173124,-0.01067101,-41.52232,-31.03853,-2.313086
170.031677723,5.25914,-21.48136,-5.171688,0.9530239,-0.1972367,-0.01160464,-41.17115,-29.89465,-2.316389
170.041675568,-0.3403839,-26.34826,-7.91537200000002,0.9100251,-0.1914585,-0.03067421,-41.17115,-29.89465,-2.316389
170.051673412,-1.447982,-30.26551,-9.25672899999999,0.8979605,-0.2269147,-0.1617739,-41.17115,-29.89465,-2.316389
170.06167078,4.766874,-30.20616,-9.98837900000002,0.9583023,-0.1467957,-0.2456505,-41.17115,-29.89465,-2.316389
170.071668625,5.81293900000002,-28.54429,-9.56158399999997,1.004475,-0.03725629,-0.2701666,-41.17115,-29.89465,-2.316389
170.081666946,-3.293979,-26.40761,-7.42760699999997,1.002998,0.01582253,-0.2548633,-41.52767,-31.02818,-1.08758
170.091663837,-12.89316,-24.68639,-3.70839,0.9979111,0.02824779,-0.2137,-41.52767,-31.02818,-1.08758
170.101662159,-20.58482,-21.60007,-0.720822899999998,1.007411,-0.01037843,-0.2070066,-41.52767,-31.02818,-1.08758
170.111659527,-24.83061,-21.36266,-0.964705900000002,1.005615,-0.09646505,-0.2112885,-41.52767,-31.02818,-1.08758
170.121657372,-20.64635,-22.31229,-2.488975,0.9908125,-0.2154579,-0.1724674,-41.52767,-31.02818,-1.08758
170.131655216,-12.52396,-22.78711,-5.3546,0.9700546,-0.2782528,-0.1925152,-40.41667,-30.62903,0.1442404
170.141652584,-3.601645,-22.49035,-8.890904,1.004501,-0.2454484,-0.2399627,-40.41667,-30.62903,0.1442404
170.151650429,1.997879,-22.13424,-11.32973,1.013036,-0.1548025,-0.2299509,-40.41667,-30.62903,0.1442404
170.16164875,-1.140316,-21.77812,-12.06138,0.9858968,-0.05846085,-0.2107853,-40.41667,-30.62903,0.1442404
170.171646118,-5.078443,-20.70978,-11.20779,0.973525,-0.04935053,-0.2504879,-40.41667,-30.62903,0.1442404
170.181643963,-7.66283799999999,-19.9382,-11.63459,1.012197,-0.08447158,-0.2424105,-40.41837,-30.62576,0.5312424
170.191641808,-7.90897099999997,-19.64144,-10.65906,1.041732,-0.1253369,-0.2051225,-40.41837,-30.62576,0.5312424
170.201639175,-5.816842,-19.52273,-10.53712,0.9953626,-0.1222524,-0.2457215,-40.41837,-30.62576,0.5312424
170.21163702,-2.494047,-18.6918,-11.51265,0.9804187,-0.1307692,-0.241386,-40.41837,-30.62576,0.5312424
170.221635342,0.8287475,-18.21698,-12.30527,0.9953853,-0.1230834,-0.2304068,-40.41837,-30.62576,0.5312424
170.231632233,3.35161,-17.02993,-12.79303,1.019643,-0.1179641,-0.2543793,-40.408,-31.37612,1.760804
170.241630554,5.074541,-14.47778,-12.73206,0.995206,-0.08993961,-0.3251731,-40.408,-31.37612,1.760804
170.251628399,4.397675,-10.85729,-12.00041,0.9755193,-0.02840437,-0.3553049,-40.408,-31.37612,1.760804
170.261625767,-1.017249,-7.29614399999999,-10.90294,1.005767,-0.003000861,-0.2998494,-40.408,-31.37612,1.760804
170.271623612,-4.46311,-4.44723,-10.3542,1.055359,-0.04851355,-0.2826954,-40.408,-31.37612,1.760804
170.281620979,-0.3403839,-1.360907,-9.92740700000002,1.031292,-0.09105197,-0.3123142,-40.01923,-32.13075,2.154642
170.291618824,3.043944,0.716426,-9.31770000000002,1.002385,-0.05656512,-0.3046154,-40.01923,-32.13075,2.154642
170.301617146,3.53621,2.259588,-9.25672899999999,0.991548,-0.04899444,-0.2505194,-40.01923,-32.13075,2.154642
170.311614513,4.028476,2.853111,-9.19575899999999,1.002444,-0.05782344,-0.2299574,-40.01923,-32.13075,2.154642
170.321612358,4.151542,2.55635,-10.04935,1.00807,-0.07169493,-0.2179992,-39.63493,-32.51157,1.772449
170.331610203,3.290077,1.784769,-10.11032,0.994988,-0.07516637,-0.1973967,-39.63493,-32.51157,1.772449
170.341607571,1.567146,1.488007,-9.68352500000001,0.9813145,-0.0477861,-0.2026443,-39.63493,-32.51157,1.772449
170.351605415,-1.755648,1.369302,-8.40313799999999,0.9881658,0.0023179,-0.2117621,-39.63493,-32.51157,1.772449
170.361603737,-7.66283799999999,1.606712,-6.75692799999998,0.9811394,0.06550501,-0.1950159,-39.63493,-32.51157,1.772449
170.371601105,-16.15442,1.428654,-4.683922,0.9946057,0.04938064,-0.180678,-39.62706,-32.89192,1.774477
170.38159895,-21.38475,1.725416,-2.428004,0.9952224,-0.03659785,-0.231386,-39.62706,-32.89192,1.774477
170.391596317,-22.43081,2.022178,-1.757326,0.9945087,-0.1013465,-0.1897319,-39.62706,-32.89192,1.774477
170.401594162,-18.92342,1.369302,-1.879267,1.002797,-0.1794105,-0.1887691,-39.62706,-32.89192,1.774477
170.411592007,-12.33936,1.191245,-3.403537,0.9870035,-0.2220399,-0.2461598,-39.62706,-32.89192,1.774477
170.421589375,-6.12450699999998,0.775778400000001,-4.622952,0.9826547,-0.14564,-0.2251145,-38.9285,-33.2742,0.9430981
170.431587219,-4.093911,0.4196641,-6.695957,0.9693581,-0.0852556,-0.1825136,-38.9285,-33.2742,0.9430981
170.441585541,-6.001441,-2.666659,-9.62255399999997,0.9726811,-0.0794191,-0.136099,-38.9285,-33.2742,0.9430981
170.451582909,-4.709243,-4.981401,-10.04935,1.0309,-0.09196736,-0.1462474,-38.9285,-33.2742,0.9430981
170.461580753,-1.694115,-4.803344,-9.378671,1.032222,-0.06062356,-0.2285728,-38.9285,-33.2742,0.9430981
170.471578598,-1.694115,-4.20982,-9.56158399999997,1.010323,0.01499098,-0.2553544,-39.62706,-32.89192,1.774477
170.481575966,-6.73984000000002,-2.785364,-10.04935,0.981274,0.03019433,-0.2835436,-39.62706,-32.89192,1.774477
170.491573811,-11.60097,-0.886087999999999,-9.56158399999997,0.9556282,-0.006036113,-0.3107685,-39.62706,-32.89192,1.774477
170.501572132,-15.10836,0.775778400000001,-8.70799300000002,0.9858662,-0.03223034,-0.2648711,-39.62706,-32.89192,1.774477
170.5115695,-16.09289,2.200235,-7.73246000000002,1.012394,-0.0432153,-0.2481644,-39.62706,-32.89192,1.774477
170.521567345,-15.96982,3.505987,-7.244694,1.003377,-0.05600161,-0.2452739,-39.25034,-32.89292,1.325755
170.531564713,-12.09323,4.218216,-6.75692799999998,1.002313,-0.05111057,-0.2395304,-39.25034,-32.89292,1.325755
170.541562557,-6.370641,4.218216,-6.695957,0.9959285,-0.04824211,-0.2309056,-39.25034,-32.89292,1.325755
170.551560402,-1.201849,4.099511,-6.45207400000002,1.014239,-0.03715015,-0.2266332,-39.25034,-32.89292,1.325755
170.56155777,0.8287475,4.930444,-4.805864,1.010732,-0.006920952,-0.2610923,-39.25034,-32.89292,1.325755
170.571555615,-1.447982,5.167854,-2.793829,0.9954026,0.08337624,-0.2376387,-39.22507,-34.03726,0.9448366
170.581553936,-8.093571,5.702025,-1.391501,0.9820771,0.1187534,-0.2194387,-39.22507,-34.03726,0.9448366
170.591551304,-15.60063,5.345911,0.1327677,0.9746151,0.0755721,-0.1959643,-39.22507,-34.03726,0.9448366
170.601549149,-17.75429,5.108501,2.205774,0.9745016,0.003571554,-0.20456,-39.22507,-34.03726,0.9448366
170.611546993,-16.40056,4.693035,4.156838,0.9838709,-0.02833741,-0.2069609,-39.22507,-34.03726,0.9448366
170.621544361,-13.6931,4.158864,4.583633,0.9855453,-0.03938009,-0.1959538,-39.22507,-34.03726,0.9448366
170.631542206,-10.49337,3.56534,4.522663,0.9676658,-0.04758736,-0.2045349,-39.22507,-34.03726,0.9448366
170.641540527,-8.03203799999998,2.615702,4.888487,0.9537516,-0.05897313,-0.197329,-39.22507,-34.03726,0.9448366
170.651537895,-4.64771,1.191245,5.254312,0.9693194,-0.05696647,-0.171035,-39.22507,-34.03726,0.9448366
170.66153574,-0.709583300000001,-0.2332119,5.80304899999998,0.9876457,-0.04692505,-0.1753767,-39.22507,-34.03726,0.9448366
170.671533108,1.25948,-1.242202,6.35178600000003,0.9875413,-0.01529705,-0.1705989,-38.52848,-34.41573,0.5649614
170.681530952,1.44408,-1.95443,7.022464,0.9984478,0.000310652,-0.1878507,-38.52848,-34.41573,0.5649614
170.691528797,0.890280700000001,-2.19184,8.79061600000001,0.9935707,0.02567092,-0.2203919,-38.52848,-34.41573,0.5649614
170.701526165,-1.632582,-1.835726,10.13197,0.9967186,0.06555401,-0.2232791,-38.52848,-34.41573,0.5649614
170.71152401,-5.509175,-1.479612,11.5343,0.9979736,0.05044882,-0.230456,-38.52848,-34.41573,0.5649614
170.721522331,-7.66283799999999,-0.1145072,12.93663,1.0136,-0.003926694,-0.2587053,-38.91109,-34.03819,0.560153
170.731519699,-5.87837500000002,1.07254,14.64381,1.007391,-0.06304568,-0.2802151,-38.91109,-34.03819,0.560153
170.741517544,-1.386449,2.259588,15.4974,0.9938839,-0.04435206,-0.2792392,-38.91109,-34.03819,0.560153
170.751515388,-0.832649800000001,3.387283,15.43643,1.002537,-0.01134668,-0.2491125,-38.91109,-34.03819,0.560153
170.761512756,-4.155444,4.455625,15.37546,1.010794,-0.009594116,-0.2347701,-38.91109,-34.03819,0.560153
170.771510601,-7.47823899999999,5.88008199999999,14.58284,1.023144,-0.04502563,-0.256797,-39.2374,-33.28308,0.1667776
170.781508923,-8.64737,7.423244,13.42439,1.027186,-0.1312381,-0.2874107,-39.2374,-33.28308,0.1667776
170.79150629,-5.078443,8.78834800000002,12.44886,0.9983445,-0.177797,-0.2682054,-39.2374,-33.28308,0.1667776
170.801504135,1.997879,9.85669000000001,12.26595,0.9774174,-0.1263453,-0.2294175,-39.2374,-33.28308,0.1667776
170.811501503,4.951474,10.92503,11.35139,0.9880637,-0.07009818,-0.2127004,-39.2374,-33.28308,0.1667776
170.821499348,3.843876,11.04374,9.64420700000001,0.9989157,-0.1020822,-0.1734678,-39.63376,-32.14864,-0.2935896
170.831497192,4.582274,9.61928199999999,8.30284999999999,0.976168,-0.1879959,-0.166706,-39.63376,-32.14864,-0.2935896
170.84149456,11.1048,8.55093899999998,8.668674,1.000784,-0.1753172,-0.1619664,-39.63376,-32.14864,-0.2935896
170.851492882,15.53519,10.27216,9.339353,1.00197,-0.08305696,-0.1720424,-39.63376,-32.14864,-0.2935896
170.861490726,12.70466,7.83871000000002,5.620136,0.9688658,-0.05901571,-0.1815623,-39.63376,-32.14864,-0.2935896
170.871488094,10.61253,5.523968,4.217809,0.9977385,-0.1171301,-0.1691547,-39.99895,-32.53508,-0.6813431
170.881485939,11.72013,3.921454,4.156838,0.9633876,-0.1041323,-0.161441,-39.99895,-32.53508,-0.6813431
170.891483784,7.04360400000002,-0.05515479,1.657037,0.9639514,-0.1063525,-0.08678353,-39.99895,-32.53508,-0.6813431
170.901481152,6.05907200000001,-3.319535,-0.4159691,1.00246,-0.2111945,-0.1035738,-39.99895,-32.53508,-0.6813431
170.911478996,15.53519,-4.803344,-1.635384,0.9956766,-0.2155811,-0.1964046,-40.76585,-31.77673,-0.3039589
170.921477318,21.56545,-4.862697,-2.793829,0.9987063,-0.06679338,-0.2462201,-40.76585,-31.77673,-0.3039589
170.931474686,16.64279,-4.44723,-2.976741,1.008194,0.05114985,-0.2290383,-40.76585,-31.77673,-0.3039589
170.94147253,5.505273,-3.972411,-1.818297,1.015321,0.009815504,-0.1945826,-40.76585,-31.77673,-0.3039589
170.951469898,-1.386449,-2.844716,0.01082622,1.002725,-0.07293911,-0.2361754,-40.76585,-31.77673,-0.3039589
170.961467743,-0.0942510000000003,-1.18285,1.047329,0.9829249,-0.1098032,-0.2921248,-40.0085,-32.15145,-0.2963696
170.973965168,5.136074,0.4790165,0.925387699999998,0.9701374,-0.07668281,-0.2562179,-40.0085,-32.15145,-0.2963696
170.981462955,6.05907200000001,1.428654,0.4985923,0.9828184,-0.07669451,-0.2318326,-40.0085,-32.15145,-0.2963696
170.991461277,6.48980500000002,2.496997,-0.4159691,1.028385,-0.1154967,-0.216109,-40.0085,-32.15145,-0.2963696
171.001459122,8.52040099999998,3.980806,0.0717969800000001,1.039015,-0.13669,-0.218515,-40.0085,-32.15145,-0.2963696
171.01145649,9.87413200000002,4.514977,0.0717969800000001,1.058101,-0.08920296,-0.2214319,-40.75379,-32.53035,0.5386019
171.023953438,13.62766,4.930444,0.681504599999997,1.024715,-0.04928377,-0.1945838,-40.75379,-32.53035,0.5386019
171.031452179,16.21206,5.58332,1.230241,0.9965334,-0.001745504,-0.1959826,-40.75379,-32.53035,0.5386019
171.041449547,10.551,5.998787,1.169271,1.000141,-0.01168161,-0.1744504,-40.75379,-32.53035,0.5386019
171.053946972,4.090009,7.24518699999998,2.937423,1.0013,-0.07491101,-0.2361725,-40.75379,-32.53035,0.5386019
171.063944817,6.24367199999998,8.254177,3.242276,0.9633697,-0.1054651,-0.2538058,-40.01637,-31.7711,-0.298398
171.073942184,6.428272,8.49158700000002,2.022861,0.977154,-0.1635092,-0.2011715,-40.01637,-31.7711,-0.298398
171.083940029,11.53553,9.26316700000002,3.181306,0.995453,-0.1263653,-0.2174846,-40.01637,-31.7711,-0.298398
171.093938351,15.35059,10.74698,2.69354,1.001958,-0.03136849,-0.2055559,-40.01637,-31.7711,-0.298398
171.103935719,11.72013,11.16244,1.291212,1.028208,-0.02790351,-0.2022526,-40.01637,-31.7711,-0.298398
171.113933563,12.52006,13.59589,1.596066,1.08575,0.05134995,-0.0564076,-40.01637,-31.7711,-0.298398
171.123931408,30.11857,13.47719,-7.12275300000002,0.9890552,0.1084267,-0.3008061,-40.01637,-31.7711,-0.298398
171.133928776,17.31965,14.48618,10.37586,0.9427238,-0.668183,-0.3148826,-40.01637,-31.7711,-0.298398
171.143926621,48.517,14.60488,16.41196,0.8258003,-0.3315066,-0.2836581,-40.01637,-31.7711,-0.298398
171.153924942,63.6541700000001,17.6912,6.41275599999997,1.004712,-0.07323571,-0.1667853,-40.01637,-31.7711,-0.298398
171.16392231,50.42453,19.41242,-1.818297,1.166694,0.2537991,-0.145616,-40.01637,-31.7711,-0.298398
171.173920155,17.01199,18.34408,-2.610917,1.072379,0.2422651,-0.1401843,-40.01637,-31.7711,-0.298398
171.183917522,-21.44628,19.94659,6.04693200000002,1.053706,-0.189133,-0.08691868,-40.01637,-31.7711,-0.298398
171.193915367,-22.73848,18.16602,7.32731800000001,0.9435722,-0.2953506,-0.1982076,-40.01637,-31.7711,-0.298398
171.203913212,-9.93956800000001,18.28473,6.53469799999998,0.9210778,-0.1618243,-0.2144743,-40.01637,-31.7711,-0.298398
171.21391058,-5.570708,19.59048,4.33975,0.8929166,-0.008759842,-0.1015207,-40.39308,-31.7701,0.1503239
171.223908424,-13.5085,19.17501,4.827517,1.039394,0.03077903,0.02599359,-40.39308,-31.7701,0.1503239
171.233906746,-16.27749,15.55452,5.498195,1.038113,-0.08548472,-0.09074679,-40.39308,-31.7701,0.1503239
171.243904114,-8.46277000000003,11.93402,5.315282,1.021571,-0.1916381,-0.1318482,-40.39308,-31.7701,0.1503239
171.253901959,1.505613,10.50957,3.48616,1.002586,-0.1931649,-0.1514363,-40.39308,-31.7701,0.1503239
171.263899803,9.074201,9.08511,2.144803,0.989566,-0.1223869,-0.1418603,-41.1372,-31.78608,-1.080743
171.273897171,8.52040099999998,7.12648200000003,1.230241,0.9617719,-0.0951102,-0.1279401,-41.1372,-31.78608,-1.080743
171.283895016,0.3364816,4.514977,2.083832,0.9734316,-0.03916135,-0.0399169,-41.1372,-31.78608,-1.080743
171.293893337,-10.98563,2.734407,2.205774,0.9785695,-0.05308196,-0.03226506,-41.1372,-31.78608,-1.080743
171.303890705,-19.60028,-0.411269,1.718008,0.9497122,-0.1522027,-0.0747825,-41.1372,-31.78608,-1.080743
171.31388855,-13.81616,-3.082125,0.1327677,0.9729563,-0.2229365,-0.1016051,-40.40345,-31.01974,-1.079238
171.323886395,-4.64771,-4.506582,-2.306063,1.007187,-0.229681,-0.1160203,-40.40345,-31.01974,-1.079238
171.333883762,2.859344,-5.75298199999998,-3.647419,0.9957609,-0.1926954,-0.138503,-40.40345,-31.01974,-1.079238
171.343881607,6.67440499999999,-6.70261999999998,-5.232659,0.9923338,-0.1397077,-0.1289391,-40.40345,-31.01974,-1.079238
171.353878975,5.87447300000001,-8.00837199999998,-6.26916200000001,0.9935062,-0.1240379,-0.1184165,-41.15096,-31.02917,-1.536302
171.36387682,4.028476,-9.848295,-6.26916200000001,0.9906079,-0.09846216,-0.07869624,-41.15096,-31.02917,-1.536302
171.373875141,0.02881546,-12.22239,-6.93983999999998,0.9843428,-0.1011068,-0.03561279,-41.15096,-31.02917,-1.536302
171.383872509,-1.878715,-14.59649,-8.03731400000003,0.968594,-0.1710567,-0.05183891,-41.15096,-31.02917,-1.536302
171.393870354,3.290077,-19.10727,-8.58605100000002,0.966715,-0.2263772,-0.03937841,-41.15096,-31.02917,-1.536302
171.403868198,13.38153,-23.02452,-9.86643700000001,0.9719171,-0.2180485,-0.04321823,-40.39728,-31.39682,-0.6902075
171.413865566,23.34991,-26.05149,-11.8175,0.9578022,-0.1938733,-0.07909305,-40.39728,-31.39682,-0.6902075
171.423863411,28.64177,-31.68997,-13.46371,0.9496254,-0.1215637,-0.07191878,-40.39728,-31.39682,-0.6902075
171.433861733,25.38051,-35.54787,-15.41478,0.9785945,-0.05538492,-0.07150774,-40.39728,-31.39682,-0.6902075
171.4438591,20.76551,-40.23671,-16.39031,1.002211,-0.04044002,-0.02943807,-40.39728,-31.39682,-0.6902075
171.453856945,11.8432,-43.73849,-17.00002,1.000993,-0.1057162,-0.044255,-40.39308,-31.7701,0.1503239
171.46385479,7.90506900000002,-47.95251,-17.06099,0.9499241,-0.1376685,-0.08005095,-40.39308,-31.7701,0.1503239
171.473852158,9.44340000000003,-52.87876,-19.25594,0.9704083,-0.163644,-0.04227246,-40.39308,-31.7701,0.1503239
171.483850002,13.50459,-54.36257,-18.58526,0.9934962,-0.17564,-0.1284533,-40.39308,-31.7701,0.1503239
171.49384737,14.18146,-53.88775,-17.54875,0.9562586,-0.08927568,-0.221733,-40.39308,-31.7701,0.1503239
171.503845692,11.1048,-53.94711,-17.36584,0.9513693,-0.03788096,-0.2767739,-40.38779,-32.51065,2.540892
171.513843536,6.98206999999997,-52.582,-16.75613,0.9387379,-0.04094185,-0.3183872,-40.38779,-32.51065,2.540892
171.523840904,5.93600600000003,-50.2079,-15.29283,0.9594354,-0.02746953,-0.3246482,-40.38779,-32.51065,2.540892
171.533838749,2.859344,-48.96151,-14.43924,0.9678959,0.01571928,-0.2964382,-40.38779,-32.51065,2.540892
171.543836594,1.382547,-48.01187,-12.67109,0.9699693,0.03528563,-0.2868753,-40.38779,-32.51065,2.540892
171.553833962,-1.201849,-48.60539,-13.15886,0.9458665,-0.03017514,-0.2724591,-39.64117,-32.86468,4.999493
171.563831806,2.551678,-51.15754,-13.34177,0.9721522,-0.1063819,-0.2667424,-39.64117,-32.86468,4.999493
171.573830128,9.44340000000003,-52.76006,-14.92701,0.9874027,-0.139365,-0.2399603,-39.64117,-32.86468,4.999493
171.583827496,17.99652,-54.71869,-15.23186,0.9670665,-0.09622596,-0.3141152,-39.64117,-32.86468,4.999493
171.59382534,18.18112,-56.79602,-16.8171,0.9401673,-0.0613861,-0.1661973,-39.64117,-32.86468,4.999493
171.603823185,16.21206,-56.67731,-15.41478,1.027342,-0.1379189,-0.2213658,-38.58028,-33.22018,7.008908
171.613820553,19.22718,-53.35358,-9.92740700000002,0.9713095,-0.1177097,-0.4404611,-38.58028,-33.22018,7.008908
171.623818397,18.61185,-50.56402,-10.17129,0.9638786,0.0965183,-0.4323676,-38.58028,-33.22018,7.008908
171.633816719,8.15120200000001,-48.18993,-9.92740700000002,0.9429144,0.1747696,-0.4385726,-38.58028,-33.22018,7.008908
171.643814087,-6.001441,-46.58741,-9.98837900000002,0.9434454,0.1217783,-0.3892666,-38.58028,-33.22018,7.008908
171.653811932,-13.07776,-45.63777,-7.79343099999999,0.9796569,0.03608389,-0.3797361,-37.82382,-33.95837,9.018035
171.663809776,-14.00076,-44.15396,-6.20819099999998,0.9701697,-0.03132673,-0.4505315,-37.82382,-33.95837,9.018035
171.673807144,-10.12417,-45.40036,-7.18372300000002,0.9863936,-0.06431683,-0.4266225,-37.82382,-33.95837,9.018035
171.683804989,-4.093911,-46.88417,-8.15925599999997,0.9978667,-0.1028987,-0.366332,-37.82382,-33.95837,9.018035
171.693802357,1.197947,-48.72409,-11.87847,0.9965932,-0.1629911,-0.2926136,-37.82382,-33.95837,9.018035
171.703800201,10.3664,-50.0892,-12.42721,0.9226806,-0.1743388,-0.4169115,-37.07155,-34.3233,10.18663
171.713798523,15.41212,-49.67373,-15.04895,0.804094,-0.08887199,-0.4856418,-37.07155,-34.3233,10.18663
171.723795891,14.79679,-50.0892,-17.30487,0.7626976,-0.01097516,-0.4334249,-37.07155,-34.3233,10.18663
171.733793735,5.87447300000001,-49.13956,-16.39031,0.9005499,-0.05565609,-0.2508376,-37.07155,-34.3233,10.18663
171.74379158,-1.509515,-43.44173,-10.84197,1.00019,-0.1002023,-0.5012951,-37.07155,-34.3233,10.18663
171.753788948,1.07488,-40.47412,-11.57362,1.001132,0.002168271,-0.6271887,-35.96421,-33.91707,12.25695
171.763786793,-3.663178,-39.46513,-13.64662,1.004052,0.05649978,-0.5377141,-35.96421,-33.91707,12.25695
171.773785114,-6.001441,-37.68456,-13.64662,1.025768,0.01702116,-0.4913198,-35.96421,-33.91707,12.25695
171.783782482,-4.093911,-35.90398,-14.13439,1.028535,-0.05314978,-0.5185854,-35.96421,-33.91707,12.25695
171.793780327,2.920877,-34.95435,-12.48818,1.033813,-0.07580236,-0.5626178,-35.96421,-33.91707,12.25695
171.803778171,8.397335,-32.22414,-12.42721,0.9681059,-0.05367885,-0.5519803,-35.57882,-34.66516,13.4248
171.813775539,14.85832,-29.9094,-13.21983,0.8859603,-0.01240296,-0.5370119,-35.57882,-34.66516,13.4248
171.823773384,14.18146,-26.94178,-8.58605100000002,0.9142479,0.06387946,-0.5461738,-35.57882,-34.66516,13.4248
171.833770752,7.59740300000001,-22.19359,-8.64702100000002,0.8594703,0.1272091,-0.5169014,-35.57882,-34.66516,13.4248
171.843768597,1.505613,-17.62346,-5.720425,0.7624837,0.1516196,-0.613411,-35.57882,-34.66516,13.4248
171.853766918,-7.35517199999998,-13.8249,-2.671887,0.801954,0.1785008,-0.5756792,-34.81309,-35.78644,15.11345
171.863764286,-15.96982,-10.56052,1.596066,0.9285493,0.1070477,-0.5328097,-34.81309,-35.78644,15.11345
171.873762131,-20.76942,-7.29614399999999,6.29081499999999,0.9655076,0.03199636,-0.5831053,-34.81309,-35.78644,15.11345
171.883759975,-19.66182,-4.684639,10.13197,0.9677536,0.04154025,-0.6070405,-34.81309,-35.78644,15.11345
171.893757343,-18.30809,-3.43824,10.92459,0.9378284,0.05438181,-0.5198907,-33.69672,-35.39765,15.11976
171.903755188,-14.24689,-3.260183,10.92459,0.9183416,-0.02301348,-0.4920794,-33.69672,-35.39765,15.11976
171.91375351,-6.862906,-2.310545,11.47333,0.9363907,-0.07698241,-0.5342117,-33.69672,-35.39765,15.11976
171.923750877,-2.063314,-1.835726,10.4978,0.938121,-0.06448824,-0.500239,-33.69672,-35.39765,15.11976
171.933748722,-1.447982,-1.657669,9.27838200000003,0.896615,-0.05846466,-0.442739,-33.69672,-35.39765,15.11976
171.943746567,-7.17057299999998,0.3603118,9.64420700000001,0.841969,-0.08183278,-0.4885811,-34.45576,-35.01965,15.49918
171.953743935,-12.46243,1.488007,9.76614900000002,0.8349749,-0.04636125,-0.4737421,-34.45576,-35.01965,15.49918
171.963741779,-18.06195,1.844121,8.97352800000002,0.849631,-0.02217282,-0.4642024,-34.45576,-35.01965,15.49918
171.973740101,-23.23075,3.031168,8.85158600000001,0.8698349,-0.03532833,-0.5116133,-34.45576,-35.01965,15.49918
171.983737469,-21.13862,2.675054,8.36382100000002,0.9183493,-0.02277208,-0.4657578,-34.45576,-35.01965,15.49918
171.993735313,-17.20049,3.56534,7.754113,0.9231458,-0.04602538,-0.521275,-34.06779,-35.40754,14.27848
172.003733158,-12.64703,4.040159,6.83955100000002,0.9081779,-0.05374621,-0.5360828,-34.06779,-35.40754,14.27848
172.013730526,-6.80137299999998,4.57433,6.16887299999999,0.9325637,-0.05385907,-0.4949677,-34.06779,-35.40754,14.27848
172.023728371,-4.278511,4.871092,6.59566799999998,0.9274463,-0.04083975,-0.4949622,-34.06779,-35.40754,14.27848
172.033725739,-4.709243,5.049149,5.742078,0.9308034,-0.01214674,-0.4997612,-34.06779,-35.40754,14.27848
172.043723583,-6.73984000000002,5.167854,4.583633,0.9145284,-0.0009977412,-0.4676711,-34.08183,-34.6501,13.88742
172.053721905,-10.3703,5.108501,3.912955,0.874138,-0.003643,-0.4570713,-34.08183,-34.6501,13.88742
172.063719273,-13.5085,4.396273,3.303247,0.8575491,-0.02815378,-0.444593,-34.08183,-34.6501,13.88742
172.073717117,-12.89316,4.040159,2.449656,0.8434379,-0.05515059,-0.4436044,-34.08183,-34.6501,13.88742
172.083714962,-10.5549,3.149873,1.596066,0.8184223,-0.07281947,-0.4617421,-34.08183,-34.6501,13.88742
172.09371233,-7.04750599999997,1.369302,1.352183,0.8779654,-0.07727259,-0.4398303,-34.82345,-35.03608,13.88389
172.103710175,-1.017249,0.716426,1.778978,0.9259415,-0.06324378,-0.4442247,-34.82345,-35.03608,13.88389
172.113708496,1.936346,0.894483100000001,2.266744,0.9175496,-0.007111488,-0.5050037,-34.82345,-35.03608,13.88389
172.123705864,-1.386449,1.903473,2.205774,0.8904572,0.0604377,-0.499231,-34.82345,-35.03608,13.88389
172.133703709,-7.97050500000002,1.666064,2.022861,0.851983,0.03503148,-0.4311995,-34.82345,-35.03608,13.88389
172.143701553,-15.47756,0.06354995,3.059364,0.9114646,-0.04364911,-0.3958683,-34.43887,-35.41744,13.43719
172.153698921,-10.24723,-1.301555,3.851984,1.004679,-0.1301752,-0.4409947,-34.43887,-35.41744,13.43719
172.163696766,-0.6480501,-1.242202,3.059364,0.9933718,-0.1002887,-0.4960189,-34.43887,-35.41744,13.43719
172.173695087,3.105477,-1.301555,1.230241,0.9124829,-0.04842012,-0.4944555,-34.43887,-35.41744,13.43719
172.183691978,2.120945,-1.776374,-0.2940276,0.8766008,-0.005056553,-0.4575538,-34.43887,-35.41744,13.43719
172.1936903,-2.678647,-1.657669,-0.4159691,0.8918067,-0.01071025,-0.470979,-34.81192,-35.42352,13.04741
172.203687668,-8.89350299999999,-1.420259,-0.05014454,0.9014138,-0.003945351,-0.4958834,-34.81192,-35.42352,13.04741
172.213685513,-14.73916,-1.538964,-0.720822899999998,0.9297391,-0.006502203,-0.4648247,-34.81192,-35.42352,13.04741
172.223683357,-17.26202,-1.123497,-1.757326,0.9355617,-0.0576128,-0.4868362,-34.81192,-35.42352,13.04741
172.233680725,-16.15442,-0.05515479,-2.428004,0.8942656,-0.06584597,-0.5537627,-34.81192,-35.42352,13.04741
172.24367857,-17.13896,2.081531,-3.70839,0.9185726,-0.0358364,-0.5131339,-34.44673,-35.03708,13.43517
172.253676891,-21.07708,6.117492,-3.098683,0.9310625,-0.02563394,-0.4873151,-34.44673,-35.03708,13.43517
172.263674259,-23.59995,9.26316700000002,-4.074214,0.8289017,-0.03664148,-0.5665779,-34.44673,-35.03708,13.43517
172.273672104,-24.27681,10.86568,-8.58605100000002,0.7845139,-0.08608628,-0.5636163,-34.44673,-35.03708,13.43517
172.283669949,-21.87701,12.94301,-12.91498,0.8062004,-0.1498319,-0.5138658,-34.44673,-35.03708,13.43517
172.293667317,-15.41603,12.88366,-16.69516,0.8556855,-0.1894276,-0.4871416,-34.81023,-35.42679,12.66041
172.303665161,-5.816842,12.46819,-19.92661,0.9290571,-0.1782329,-0.4844009,-34.81023,-35.42679,12.66041
172.313663483,3.659276,11.63726,-23.40195,0.9605245,-0.1154414,-0.487822,-34.81023,-35.42679,12.66041
172.323660851,9.44340000000003,10.15345,-25.90175,0.950529,-0.04913409,-0.4423569,-34.81023,-35.42679,12.66041
172.333658695,13.19693,8.01676800000001,-27.18213,0.9388292,0.02958976,-0.4169922,-34.81023,-35.42679,12.66041
172.34365654,15.10446,6.948425,-25.77981,0.9084504,0.08936381,-0.457155,-34.42395,-35.81142,11.82671
172.353653908,9.68953300000002,5.523968,-21.75574,0.8835839,0.1945499,-0.4322528,-34.42395,-35.81142,11.82671
172.363651753,-0.2173175,4.455625,-18.52429,0.8970032,0.259284,-0.3968783,-34.42395,-35.81142,11.82671
172.373650074,-9.57036899999999,4.158864,-15.17089,0.9139395,0.1868843,-0.4327824,-34.42395,-35.81142,11.82671
172.383646965,-13.57003,5.405263,-11.45168,0.9131913,0.09541065,-0.4968867,-34.42395,-35.81142,11.82671
172.393645287,-10.12417,5.049149,-9.378671,0.9193829,0.05140879,-0.4863575,-33.6666,-36.18615,11.8343
172.403642655,-4.032378,5.702025,-7.42760699999997,0.928533,0.03192038,-0.458611,-33.6666,-36.18615,11.8343
172.413640499,1.321013,5.642673,-6.14722099999998,0.9104822,0.03300841,-0.4600155,-33.6666,-36.18615,11.8343
172.423638344,4.643808,5.405263,-4.744893,0.9036095,0.06148177,-0.466711,-33.6666,-36.18615,11.8343
172.433635712,4.336142,4.099511,-4.440039,0.9133161,0.09005992,-0.4447207,-33.6666,-36.18615,11.8343
172.443633556,2.490145,3.921454,-3.037712,0.9091517,0.1039779,-0.4547671,-33.65088,-36.94686,11.83836
172.453631878,-1.386449,3.56534,-1.208589,0.9153234,0.1129564,-0.4428158,-33.65088,-36.94686,11.83836
172.463629246,-4.770776,3.149873,0.4985923,0.9213952,0.1016506,-0.4169804,-33.65088,-36.94686,11.83836
172.473627091,-5.139976,2.912464,2.205774,0.9131492,0.073075,-0.4418446,-33.65088,-36.94686,11.83836
172.483624935,-5.632242,3.209226,3.608101,0.907645,0.0543294,-0.4604947,-32.8997,-36.9445,11.45692
172.493622303,-4.278511,2.971816,4.644604,0.9086149,0.02856734,-0.4633612,-32.8997,-36.9445,11.45692
172.503620148,-0.2173175,2.853111,4.705575,0.8990474,0.0191849,-0.4590349,-32.8997,-36.9445,11.45692
172.513618469,2.982411,2.793759,4.888487,0.9079718,0.01114408,-0.4542626,-32.8997,-36.9445,11.45692
172.52361536,5.751406,2.853111,5.437224,0.9162438,0.01180222,-0.4533201,-32.8997,-36.9445,11.45692
172.533613682,7.65893599999998,2.971816,6.29081499999999,0.9058093,0.04856272,-0.4494827,-33.64919,-36.95012,11.45136
172.543611527,6.79747099999997,2.912464,6.53469799999998,0.9209438,0.07325531,-0.4389868,-33.64919,-36.95012,11.45136
172.553608894,4.951474,3.802749,7.57120099999999,0.9324574,0.08260603,-0.4509737,-33.64919,-36.95012,11.45136
172.563606739,2.613211,3.921454,8.60770299999997,0.917397,0.08046997,-0.4394611,-33.64919,-36.95012,11.45136
172.573605061,0.5210813,4.514977,10.43683,0.9209582,0.07216527,-0.4519081,-33.64919,-36.95012,11.45136
172.583601952,-1.324916,4.989797,12.26595,0.9203076,0.0809257,-0.4490377,-34.4127,-36.19831,11.05474
172.593600273,-3.232446,5.049149,13.54634,0.923398,0.07234508,-0.4375551,-34.4127,-36.19831,11.05474
172.603597641,-3.970845,5.286559,14.33895,0.9222663,0.028452,-0.4523777,-34.4127,-36.19831,11.05474
172.613595486,-2.370981,5.405263,15.13157,0.9216928,0.007037305,-0.454764,-34.4127,-36.19831,11.05474
172.62359333,0.1518819,5.167854,15.4974,0.9213269,0.0007917895,-0.4461474,-34.4127,-36.19831,11.05474
172.633590698,2.244012,5.227206,15.31449,0.9085765,0.004808082,-0.4576121,-34.02841,-36.57912,10.67255
172.643588543,2.920877,5.167854,14.76575,0.9219014,-0.004174708,-0.4590687,-34.02841,-36.57912,10.67255
172.653586864,2.797811,5.167854,14.27798,0.9233863,-0.03136687,-0.4600214,-34.02841,-36.57912,10.67255
172.663584232,2.920877,5.464615,13.11954,0.9193156,-0.04787281,-0.4494814,-34.02841,-36.57912,10.67255
172.673582077,3.782343,6.17684400000002,11.90012,0.9205502,-0.06207231,-0.4638372,-34.02841,-36.57912,10.67255
172.683579922,6.05907200000001,7.00777700000002,10.68071,0.9120964,-0.05299328,-0.4623891,-35.1605,-36.2072,10.66218
172.69357729,6.12060500000003,6.88907200000001,8.54673300000003,0.9201435,-0.0393191,-0.4193348,-35.1605,-36.2072,10.66218
172.703575134,6.79747099999997,7.06713000000001,6.83955100000002,0.9248974,-0.05928038,-0.4336952,-35.1605,-36.2072,10.66218
172.713573456,7.96660199999998,7.24518699999998,5.559165,0.9097039,-0.08119447,-0.4590276,-35.1605,-36.2072,10.66218
172.723570347,8.88960099999997,7.36389100000001,3.54713,0.9223045,-0.05114078,-0.44135,-35.1605,-36.2072,10.66218
172.733568668,8.88960099999997,7.83871000000002,1.596066,0.9447197,-0.05121018,-0.4442605,-35.1605,-36.2072,10.66218
172.743566513,8.95113399999999,8.31352900000002,-0.1720861,0.9531648,-0.08620658,-0.4634093,-35.1605,-36.2072,10.66218
172.753563881,9.87413200000002,8.78834800000002,-0.8427644,0.9478661,-0.08984883,-0.4782349,-35.1605,-36.2072,10.66218
172.763561726,11.04326,10.2128,-1.940238,0.9308633,-0.06618939,-0.4581112,-35.1605,-36.2072,10.66218
172.77355957,13.62766,10.98439,-2.793829,0.8909774,-0.01776134,-0.4432183,-35.1605,-36.2072,10.66218
172.783556938,14.42759,11.04374,-3.464507,0.8973711,0.03171264,-0.4140491,-35.55266,-35.44603,11.04234
172.79355526,11.53553,10.27216,-3.281595,0.9367109,0.03966152,-0.3739193,-35.55266,-35.44603,11.04234
172.803552628,10.67406,9.559929,-1.757326,0.927413,0.0148079,-0.4145756,-35.55266,-35.44603,11.04234
172.813550472,10.7356,9.32251899999998,-0.2330568,0.9174321,0.0007806364,-0.438962,-35.55266,-35.44603,11.04234
172.823548317,11.59706,9.38187199999997,1.352183,0.9407215,0.03249894,-0.421782,-35.55266,-35.44603,11.04234
172.833545685,12.82773,9.97539500000001,3.303247,0.9315061,0.08176009,-0.4351788,-35.91167,-36.20956,11.04362
172.843543529,10.42793,9.79733799999999,5.254312,0.9617922,0.07808587,-0.4242234,-35.91167,-36.20956,11.04362
172.853541851,7.10513699999998,11.28115,8.11993799999998,0.9922718,0.06350543,-0.4371943,-35.91167,-36.20956,11.04362
172.863538742,4.028476,13.41783,11.59527,0.959221,0.05817631,-0.4701571,-35.91167,-36.20956,11.04362
172.873537064,-0.03271778,13.952,13.60731,0.956749,0.06084668,-0.4385674,-35.91167,-36.20956,11.04362
172.883534908,-5.324575,13.952,14.39993,0.9317991,0.01573141,-0.3762974,-35.54311,-35.82966,10.65737
172.893532276,-4.83231,12.76496,16.16808,0.926954,-0.01151125,-0.3691033,-35.54311,-35.82966,10.65737
172.903530121,-1.140316,12.11208,17.32652,0.9274265,0.01522926,-0.3686325,-35.54311,-35.82966,10.65737
172.913528442,0.2134152,11.39985,16.9607,0.9552086,0.01476679,-0.372988,-35.54311,-35.82966,10.65737
172.923525333,1.44408,11.39985,17.63138,0.9642306,-0.02512149,-0.3969222,-35.54311,-35.82966,10.65737
172.933523655,2.613211,11.4592,18.91176,0.9489982,-0.04517153,-0.4308694,-35.93159,-35.07557,10.19903
172.9435215,1.628679,11.75597,18.91176,0.937497,-0.05489827,-0.406918,-35.93159,-35.07557,10.19903
172.953518867,-0.6480501,12.88366,19.70438,0.9449291,-0.0616248,-0.4145865,-35.93159,-35.07557,10.19903
172.963516712,-2.55558,13.952,19.82632,0.9262723,-0.05424466,-0.4174273,-35.93159,-35.07557,10.19903
172.973514557,-3.293979,14.42682,19.09467,0.9083059,-0.005396704,-0.4040084,-35.93159,-35.07557,10.19903
172.983511925,-5.386109,14.07071,17.75332,0.8853182,-0.0002949671,-0.380998,-36.68894,-34.70084,10.19144
172.993510246,-8.70890300000002,12.52755,17.38749,0.9030575,-0.03542166,-0.3283765,-36.68894,-34.70084,10.19144
173.003508091,-9.07810300000001,10.56892,17.20458,0.9541808,-0.08487497,-0.3203171,-36.68894,-34.70084,10.19144
173.013505459,-5.816842,9.02575799999998,17.81429,0.9757245,-0.1174241,-0.365811,-36.68894,-34.70084,10.19144
173.023503304,-1.447982,8.84769999999998,17.08264,0.983839,-0.1093537,-0.4041134,-36.68894,-34.70084,10.19144
173.033500671,2.428612,9.26316700000002,16.10711,0.9668337,-0.08654433,-0.4237112,-37.83168,-33.57802,9.016007
173.043498516,3.905409,10.15345,15.13157,0.9422607,-0.07455231,-0.3877783,-37.83168,-33.57802,9.016007
173.053496838,48.39393,13.18042,17.14361,0.8372165,0.5341464,-0.4997387,-37.83168,-33.57802,9.016007
173.063493729,57.5623900000001,3.56534,-4.135185,0.5171102,-0.0341025,-0.3061682,-37.83168,-33.57802,9.016007
173.07349205,36.14882,10.86568,-3.464507,1.170579,-1.646244,-0.4198362,-37.83337,-33.57475,9.403009
173.083489895,125.8027,19.29372,36.7762,1.183867,-0.6416234,-0.4292109,-37.83337,-33.57475,9.403009
173.093487263,125.8643,18.40343,6.22984400000002,1.104194,0.2019646,-0.4173249,-37.83337,-33.57475,9.403009
173.103485107,44.825,22.26134,9.76614900000002,1.028658,0.1053201,-0.1419871,-37.83337,-33.57475,9.403009
173.113482952,2.428612,23.44838,19.70438,0.8467083,0.2667891,-0.3178275,-37.83337,-33.57475,9.403009
173.12348032,-25.38441,17.6912,13.18051,0.8852178,0.4743514,-0.2877977,-38.60197,-32.81313,10.1674
173.133478642,-63.6580799999999,14.90164,3.364218,0.9729134,0.3988861,-0.2276306,-38.60197,-32.81313,10.1674
173.143476486,-79.4721200000002,12.5869,4.034896,0.9022028,-0.01454211,-0.2752585,-38.60197,-32.81313,10.1674
173.153473854,-79.6567200000001,10.0941,0.4376215,0.9946337,-0.08490287,-0.3045946,-38.60197,-32.81313,10.1674
173.163471699,-72.6419299999997,8.55093899999998,7.14440499999997,0.9538168,-0.3769988,-0.3274199,-38.60197,-32.81313,10.1674
173.173469543,-48.27477,7.00777700000002,1.230241,1.015708,-0.2225606,-0.3648965,-38.62217,-31.6786,9.387308
173.183466911,-34.30673,5.464615,-0.1720861,0.9104813,-0.3003885,-0.3053496,-38.62217,-31.6786,9.387308
173.193465233,-6.73984000000002,2.378292,6.29081499999999,0.8647039,-0.3553299,-0.3689063,-38.62217,-31.6786,9.387308
173.203463078,21.93465,2.55635,1.413154,0.9107732,-0.2654178,-0.360874,-38.62217,-31.6786,9.387308
173.213460445,36.94875,2.200235,1.291212,0.9589379,-0.2096251,-0.3686295,-38.62217,-31.6786,9.387308
173.22345829,41.99448,2.200235,0.681504599999997,0.950981,-0.07124066,-0.3633869,-38.60754,-32.07203,7.841329
173.233456135,32.57989,1.30995,-0.1720861,0.9460108,0.03893135,-0.3145919,-38.60754,-32.07203,7.841329
173.243453503,13.50459,0.06354995,-0.2330568,0.9517949,0.06971791,-0.2552664,-38.60754,-32.07203,7.841329
173.253451347,-6.24757399999999,-1.064145,-0.05014454,0.9542673,-0.0106373,-0.2796575,-38.60754,-32.07203,7.841329
173.263449669,-16.58516,-1.479612,0.3766508,0.9408459,-0.1018534,-0.3413469,-38.60754,-32.07203,7.841329
173.273447037,-18.36962,-1.123497,0.01082622,0.9342991,-0.143008,-0.3638179,-39.29626,-32.07391,8.223232
173.283444882,-15.66216,-1.301555,-1.574414,0.9553212,-0.1720158,-0.3399183,-39.29626,-32.07391,8.223232
173.293442726,-10.67797,-0.708030899999999,-2.367033,0.956591,-0.2138431,-0.3466098,-39.29626,-32.07391,8.223232
173.303440094,-0.586516899999998,-0.826735599999998,-2.8548,0.9404626,-0.2119865,-0.3743396,-39.29626,-32.07391,8.223232
173.313437939,7.96660199999998,-0.708030899999999,-4.805864,0.9623897,-0.1600391,-0.3739126,-39.29626,-32.07391,8.223232
173.323435307,11.41246,-0.9454404,-6.14722099999998,0.9961175,-0.08725596,-0.3524542,-39.29795,-32.07064,8.610234
173.333433628,12.0278,-0.2332119,-7.30566500000003,0.9914988,-0.04898854,-0.3558061,-39.29795,-32.07064,8.610234
173.343431473,9.812599,-0.1145072,-7.73246000000002,0.9514973,-0.04699041,-0.3696156,-39.29795,-32.07064,8.610234
173.353428841,7.10513699999998,-0.589326100000003,-6.93983999999998,0.9467183,-0.02550162,-0.3475983,-39.29795,-32.07064,8.610234
173.363426685,3.35161,-0.4706214,-5.90333699999997,0.9522005,-0.005127568,-0.3102841,-39.29795,-32.07064,8.610234
173.37342453,-1.632582,-1.895078,-5.049747,0.94383,-0.02602614,-0.2925569,-38.97611,-32.45193,8.227577
173.383421898,-3.540112,-2.785364,-3.464507,0.9493828,-0.06321205,-0.3322788,-38.97611,-32.45193,8.227577
173.39342022,-2.186381,-2.785364,-1.818297,0.9676495,-0.07682598,-0.3725075,-38.97611,-32.45193,8.227577
173.403418064,-1.140316,-2.666659,0.4376215,0.9744331,-0.02267349,-0.3639189,-38.97611,-32.45193,8.227577
173.413415432,-4.032378,-3.319535,1.474125,0.9709454,-0.01746627,-0.3184494,-38.97611,-32.45193,8.227577
173.423413277,-7.04750599999997,-3.556944,2.815481,0.9621794,-0.0696352,-0.3184207,-38.98566,-32.0683,8.612552
173.433411121,-6.18604100000003,-3.616297,3.669072,0.9471757,-0.1018073,-0.3499722,-38.98566,-32.0683,8.612552
173.443408489,-4.46311,-3.556944,3.851984,0.9560097,-0.1057397,-0.3739155,-38.98566,-32.0683,8.612552
173.453406334,-4.401577,-3.022773,3.120335,0.958818,-0.1248762,-0.3471152,-38.98566,-32.0683,8.612552
173.463404656,-2.801713,-3.022773,2.266744,0.9612406,-0.1501061,-0.3480701,-38.98566,-32.0683,8.612552
173.473402023,-0.709583300000001,-2.013783,2.144803,0.9567432,-0.1188456,-0.3739134,-38.60923,-32.06876,8.228331
173.483399868,-1.878715,-2.132488,0.986358399999998,0.9642909,-0.07915098,-0.3538366,-38.60923,-32.06876,8.228331
173.493397713,-2.55558,-3.43824,2.815481,1.022088,-0.04375725,-0.3812253,-38.60923,-32.06876,8.228331
173.503395081,-6.862906,-5.45622,6.22984400000002,1.100019,0.03682956,-0.3459672,-38.60923,-32.06876,8.228331
173.513392925,-12.0317,-6.88067700000001,3.181306,1.045312,-0.007144787,-0.3070959,-38.60923,-32.06876,8.228331
173.523391247,-15.29296,-8.42383900000002,4.827517,1.003988,-0.03880802,-0.3323802,-38.98566,-32.0683,8.612552
173.533388615,-15.60063,-6.58391499999997,3.669072,0.8791037,-0.1101046,-0.3661231,-38.98566,-32.0683,8.612552
173.543386459,-7.47823899999999,-5.100106,3.730042,0.7820868,-0.2117709,-0.3802851,-38.98566,-32.0683,8.612552
173.553384304,0.951813900000003,-4.328525,5.010429,0.8151969,-0.2099914,-0.363593,-38.98566,-32.0683,8.612552
173.563381672,4.643808,-4.862697,4.644604,0.9159046,-0.1482387,-0.3116197,-38.98566,-32.0683,8.612552
173.573379517,1.197947,-6.287153,3.54713,0.9665195,-0.0919413,-0.2696078,-39.29178,-32.44773,8.999264
173.583376885,-5.816842,-8.30513400000001,2.205774,0.9659482,-0.08764052,-0.2763079,-39.29178,-32.44773,8.999264
173.593374729,-9.81650199999998,-10.14506,0.803446099999999,0.9542221,-0.1387303,-0.3112104,-39.29178,-32.44773,8.999264
173.603373051,-8.15510499999999,-11.39146,-1.086647,0.9424741,-0.1881873,-0.3269702,-39.29178,-32.44773,8.999264
173.613370418,-3.355512,-12.10369,-3.281595,0.9433626,-0.2103222,-0.3580735,-38.98736,-32.06503,8.999554
173.623368263,1.136414,-11.68822,-5.415571,0.9197495,-0.1995341,-0.4025427,-38.98736,-32.06503,8.999554
173.633366108,2.736278,-11.51016,-7.12275300000002,0.8955335,-0.1551611,-0.3867189,-38.98736,-32.06503,8.999554
173.643363476,0.02881546,-11.62887,-9.43964200000003,0.9065157,-0.1161688,-0.3446334,-38.98736,-32.06503,8.999554
173.65336132,-3.970845,-12.10369,-11.14682,0.9202495,-0.1470591,-0.3513494,-38.98736,-32.06503,8.999554
173.663359642,-3.847778,-11.62887,-11.51265,0.9631501,-0.1497457,-0.4189027,-38.97163,-32.82574,9.00361
173.67335701,-4.093911,-11.3321,-12.42721,0.99755,-0.08736021,-0.4199359,-38.97163,-32.82574,9.00361
173.683354855,-3.232446,-11.56951,-15.65866,0.9770299,-0.08351841,-0.3806579,-38.97163,-32.82574,9.00361
173.693352699,-0.832649800000001,-11.74757,-16.87807,0.9483729,-0.1140945,-0.3676785,-38.97163,-32.82574,9.00361
173.703350067,1.25948,-12.63786,-17.18293,0.9705291,-0.1263176,-0.3705855,-38.97163,-32.82574,9.00361
173.713347912,4.705341,-12.40045,-17.00002,0.9817647,-0.1281797,-0.385919,-38.22384,-32.81685,9.396173
173.723346233,7.41280299999999,-11.86628,-17.79264,0.9475269,-0.09602708,-0.4093178,-38.22384,-32.81685,9.396173
173.733343601,8.705001,-11.3321,-17.67069,0.9137873,-0.06428911,-0.4260173,-38.22384,-32.81685,9.396173
173.743341446,6.18213799999999,-10.38247,-17.42681,0.8888161,-0.03159808,-0.4106678,-38.22384,-32.81685,9.396173
173.753339291,1.567146,-10.02635,-17.00002,0.917829,-0.0191912,-0.3920571,-38.22384,-32.81685,9.396173
173.763336658,-2.678647,-8.89865800000003,-16.26837,0.9250969,-0.01794508,-0.4308347,-37.45246,-33.94902,9.79482
173.773334503,-5.632242,-8.48319099999998,-15.7806,0.9470724,-0.02039585,-0.4275224,-37.45246,-33.94902,9.79482
173.783332825,-5.632242,-8.245782,-16.08545,0.9572902,-0.04465679,-0.3925979,-37.45246,-33.94902,9.79482
173.793329716,-3.663178,-8.18642900000001,-16.45128,0.9556687,-0.08787183,-0.3854053,-37.45246,-33.94902,9.79482
173.803328037,1.013347,-8.48319099999998,-17.12196,0.9553779,-0.1243539,-0.3887454,-37.45246,-33.94902,9.79482
173.813325882,6.612871,-7.41484800000003,-16.93905,0.9332708,-0.115992,-0.4360881,-36.70467,-33.94013,10.18738
173.82332325,9.75106599999998,-6.94003,-17.2439,0.9318209,-0.06514157,-0.4518917,-36.70467,-33.94013,10.18738
173.833321094,8.08966899999999,-6.58391499999997,-17.00002,0.949487,0.006952307,-0.4179621,-36.70467,-33.94013,10.18738
173.843318939,1.197947,-5.81233500000002,-16.87807,0.9521706,0.0459947,-0.4055339,-36.70467,-33.94013,10.18738
173.853316307,-5.75530800000001,-5.574925,-16.02448,0.9411216,0.03749785,-0.4074267,-36.70467,-33.94013,10.18738
173.863314629,-10.24723,-5.040754,-15.17089,0.934083,-0.003040158,-0.4145826,-37.07352,-34.31948,10.63813
173.873311996,-9.878035,-4.862697,-14.37827,0.9181763,-0.03840363,-0.4212459,-37.07352,-34.31948,10.63813
173.883309841,-6.18604100000003,-4.387877,-13.95148,0.9281436,-0.05044736,-0.4313103,-37.07352,-34.31948,10.63813
173.893307686,-1.447982,-3.853706,-13.64662,0.9538313,-0.04317614,-0.4356641,-37.07352,-34.31948,10.63813
173.903305054,1.813279,-3.378887,-13.64662,0.9347043,-0.01040035,-0.4236748,-37.07352,-34.31948,10.63813
173.913302898,2.551678,-3.794354,-12.79303,0.9262592,0.02459166,-0.4050046,-36.30634,-35.07839,10.19625
173.92330122,0.2749484,-3.972411,-12.18333,0.9361814,0.0414106,-0.394019,-36.30634,-35.07839,10.19625
173.933298111,-1.632582,-3.378887,-10.65906,0.9509938,0.03018884,-0.4308923,-36.30634,-35.07839,10.19625
173.943296432,-1.940248,-2.42925,-9.07381699999998,0.9337584,0.03943994,-0.4447433,-36.30634,-35.07839,10.19625
173.953294277,-3.478579,-1.95443,-6.81789900000001,0.9224102,0.07344219,-0.4217606,-36.30634,-35.07839,10.19625
173.963291645,-5.93990799999998,-1.657669,-4.135185,0.9093797,0.09337154,-0.3930285,-35.94143,-34.6914,10.6485
173.97328949,-8.89350299999999,-2.251192,-1.025677,0.9268841,0.09581905,-0.3758309,-35.94143,-34.6914,10.6485
173.983287811,-9.07810300000001,-2.607306,1.718008,0.9362375,0.06418078,-0.4016822,-35.94143,-34.6914,10.6485
173.993284702,-6.43217400000002,-2.42925,4.33975,0.9426052,0.03514037,-0.4557649,-35.94143,-34.6914,10.6485
174.003283024,-4.032378,-1.776374,7.32731800000001,0.9444698,0.06590995,-0.4428545,-35.94143,-34.6914,10.6485
174.013280869,-4.64771,-1.18285,10.43683,0.9270282,0.1128596,-0.4256075,-35.17622,-35.44649,10.65812
174.023278236,-9.07810300000001,-1.064145,13.79022,0.9138759,0.1390029,-0.4078839,-35.17622,-35.44649,10.65812
174.033276081,-14.98529,-1.420259,15.98516,0.9337394,0.119634,-0.3902063,-35.17622,-35.44649,10.65812
174.043273926,-19.04649,-1.835726,17.32652,0.9593207,0.02871225,-0.3978847,-35.17622,-35.44649,10.65812
174.053271294,-17.63122,-1.657669,17.9972,0.9579846,-0.05666974,-0.4323179,-35.17622,-35.44649,10.65812
174.063269615,-12.4009,-0.708030899999999,18.36302,0.9414699,-0.08656923,-0.4777461,-35.55096,-35.4493,10.65534
174.07326746,-7.47823899999999,0.1229023,17.14361,0.9126545,-0.08257644,-0.4571181,-35.55096,-35.4493,10.65534
174.083264828,-4.586177,1.30995,15.86322,0.884366,-0.08118281,-0.456112,-35.55096,-35.4493,10.65534
174.093262672,-3.909311,2.55635,15.31449,0.8832993,-0.07638393,-0.4604186,-35.55096,-35.4493,10.65534
174.103260517,-5.139976,3.624692,14.21701,0.9204176,-0.08029507,-0.437032,-35.55096,-35.4493,10.65534
174.113257885,-5.75530800000001,4.396273,12.75372,0.9533759,-0.09656852,-0.4279923,-35.93357,-35.07176,10.65053
174.123256207,-4.401577,5.049149,11.22945,0.9544978,-0.1306807,-0.4409071,-35.93357,-35.07176,10.65053
174.133254051,-1.386449,5.88008199999999,9.82711900000002,0.947296,-0.1103871,-0.4380283,-35.93357,-35.07176,10.65053
174.143251419,1.813279,6.117492,8.11993799999998,0.9434131,-0.05873911,-0.4145846,-35.93357,-35.07176,10.65053
174.153249264,4.151542,6.05813900000001,7.44925899999998,0.925557,0.009946905,-0.4107425,-35.93357,-35.07176,10.65053
174.163247108,2.797811,5.464615,6.90052199999999,0.9244176,0.045828,-0.3638493,-36.31251,-34.7013,9.807218
174.173244476,-1.078783,4.099511,6.65663900000001,0.9636845,-0.0208061,-0.3490648,-36.31251,-34.7013,9.807218
174.183242321,-0.832649800000001,3.387283,8.36382100000002,0.9573748,-0.07536595,-0.4031188,-36.31251,-34.7013,9.807218
174.193239689,0.951813900000003,3.268578,8.05896700000001,0.931599,-0.07844965,-0.4188661,-36.31251,-34.7013,9.807218
174.20323801,1.321013,2.971816,6.83955100000002,0.9403724,-0.07810524,-0.400217,-37.06199,-34.70692,9.801656
174.213235855,2.428612,3.387283,5.742078,0.9376748,-0.1168199,-0.4298741,-37.06199,-34.70692,9.801656
174.223233223,4.213075,4.040159,5.193341,0.9137023,-0.1120666,-0.442755,-37.06199,-34.70692,9.801656
174.233231068,5.382206,4.040159,4.461692,0.9040151,-0.03592473,-0.3853286,-37.06199,-34.70692,9.801656
174.243228912,2.182479,3.209226,3.730042,0.9125081,-0.02044271,-0.3580686,-37.06199,-34.70692,9.801656
174.25322628,1.07488,2.200235,4.156838,0.9378523,-0.02102792,-0.3705556,-37.08389,-33.56913,9.40857
174.263224602,-0.709583300000001,1.191245,3.364218,0.9579183,-0.05180192,-0.3782399,-37.08389,-33.56913,9.40857
174.273222447,0.1518819,0.716426,3.608101,0.9628597,-0.08209147,-0.4064767,-37.08389,-33.56913,9.40857
174.283219814,2.859344,0.953835399999999,3.48616,0.9535037,-0.07771955,-0.4394833,-37.08389,-33.56913,9.40857
174.293217659,3.905409,1.666064,2.69354,0.9476687,-0.07828569,-0.4356443,-37.08389,-33.56913,9.40857
174.303215504,4.028476,2.31894,2.571598,0.9320334,-0.07546402,-0.4121675,-37.46032,-33.56867,9.792791
174.313212872,4.090009,2.615702,2.449656,0.9108692,-0.0642064,-0.4106978,-37.46032,-33.56867,9.792791
174.323210716,3.16701,3.149873,1.90092,0.9213155,-0.05007877,-0.4293841,-37.46032,-33.56867,9.792791
174.333209038,2.120945,4.455625,1.291212,0.9422793,-0.05064087,-0.4298991,-37.46032,-33.56867,9.792791
174.343206406,1.936346,4.633682,1.291212,0.9384906,-0.05581543,-0.4030909,-37.46032,-33.56867,9.792791
174.35320425,2.613211,4.218216,2.327715,0.927978,-0.04097649,-0.4049907,-37.07772,-33.94621,9.7976
174.363202095,2.428612,4.57433,3.364218,0.9585686,-0.00928062,-0.4060094,-37.07772,-33.94621,9.7976
174.373199463,0.8287475,5.108501,4.400721,0.9648728,-0.007724564,-0.4088922,-37.07772,-33.94621,9.7976
174.383197308,-0.4019172,5.702025,5.498195,0.9575305,-0.03231584,-0.4251447,-37.07772,-33.94621,9.7976
174.393195629,-1.078783,6.23619700000001,6.65663900000001,0.9611532,-0.04332443,-0.4146195,-37.07772,-33.94621,9.7976
174.403192997,0.5210813,6.948425,7.32731800000001,0.9294916,0.008120353,-0.4064417,-37.46201,-33.5654,10.17979
174.413190842,-1.694115,6.23619700000001,6.77858100000002,0.91664,-0.03306574,-0.3657298,-37.46201,-33.5654,10.17979
174.423188686,-1.201849,5.108501,7.38828800000001,0.9526512,-0.1080603,-0.354766,-37.46201,-33.5654,10.17979
174.433186054,3.35161,4.871092,8.05896700000001,0.956689,-0.1166845,-0.403107,-37.46201,-33.5654,10.17979
174.443183899,6.85900399999999,4.57433,8.42479100000002,0.9271041,-0.04633911,-0.4049878,-37.46201,-33.5654,10.17979
174.453182221,5.074541,4.57433,8.36382100000002,0.9375956,-0.007466104,-0.3748659,-37.83337,-33.57475,9.403009
174.463179588,0.767214200000001,4.633682,8.54673300000003,0.9597032,-0.04299778,-0.3758524,-37.83337,-33.57475,9.403009
174.473177433,-2.370981,5.405263,9.03449899999999,0.9639518,-0.08840905,-0.4088698,-37.83337,-33.57475,9.403009
174.483175278,-3.417045,6.77036799999997,9.339353,0.9399202,-0.08088165,-0.4370659,-37.83337,-33.57475,9.403009
174.493172646,-4.401577,8.254177,8.72964499999998,0.9210961,-0.06484997,-0.4499587,-37.83337,-33.57475,9.403009
174.50317049,-5.386109,9.44122399999999,6.77858100000002,0.9395279,-0.11128,-0.41265,-38.20642,-33.58083,9.013227
174.513168812,-3.232446,10.33151,6.04693200000002,0.9313208,-0.1673649,-0.4169284,-38.20642,-33.58083,9.013227
174.523165703,1.382547,10.45021,4.27878,0.8969202,-0.1512988,-0.3924652,-38.20642,-33.58083,9.013227
174.533164024,4.459208,9.67863400000001,2.449656,0.9410202,-0.1374685,-0.357131,-38.20642,-33.58083,9.013227
174.543161869,7.96660199999998,9.559929,1.047329,0.973963,-0.1278084,-0.3815983,-38.20642,-33.58083,9.013227
174.553159237,10.42793,9.50057699999998,-0.3549984,0.9721367,-0.1348232,-0.4007364,-38.60475,-32.44258,9.004362
174.563157082,11.59706,9.79733799999999,-1.391501,0.9466668,-0.1017306,-0.3935218,-38.60475,-32.44258,9.004362
174.57315445,10.12027,10.50957,-1.696355,0.9363247,-0.06979263,-0.3858548,-38.60475,-32.44258,9.004362
174.583152294,6.305205,10.62827,-1.574414,0.9426997,-0.04577658,-0.3772577,-38.60475,-32.44258,9.004362
174.593150616,6.79747099999997,13.35848,-1.26956,0.9363467,0.1663169,-0.2332499,-38.60475,-32.44258,9.004362
174.603147984,30.9185,10.03475,-16.08545,0.7606022,0.8196449,-0.7313095,-38.23618,-32.06268,8.618113
174.613145828,-23.23075,13.18042,-21.45088,1.045568,-0.7969728,-0.2202707,-38.23618,-32.06268,8.618113
174.623143673,23.90371,15.37646,14.0341,0.9744781,-0.7282968,-0.4738097,-38.23618,-32.06268,8.618113
174.633141041,35.59502,19.05631,10.61974,1.074522,-0.2937874,-0.4161883,-38.23618,-32.06268,8.618113
174.643138885,22.30384,18.70019,13.66828,1.024677,-0.1810126,-0.3577442,-38.23618,-32.06268,8.618113
174.653137207,14.55066,20.30271,15.0706,0.8884652,0.2221539,-0.3470819,-37.85188,-32.44349,8.23592
174.663134098,-5.87837500000002,16.91962,4.33975,0.8651341,0.3499343,-0.2992165,-37.85188,-32.44349,8.23592
174.67313242,-16.64669,15.13905,-1.818297,1.045476,0.08822143,-0.2941992,-37.85188,-32.44349,8.23592
174.683130264,-18.18502,15.1984,0.1937385,1.004347,-0.1874113,-0.3227711,-37.85188,-32.44349,8.23592
174.693127632,-11.17023,14.60488,5.315282,0.93397,-0.2032406,-0.3604518,-37.85188,-32.44349,8.23592
174.703125477,-5.509175,14.01136,5.80304899999998,0.9153605,-0.04205634,-0.3365321,-38.96655,-32.83555,7.842604
174.713123798,-7.41670600000002,12.5869,6.10790299999999,0.9454097,0.01974061,-0.2863499,-38.96655,-32.83555,7.842604
174.723120689,-8.955036,11.04374,6.83955100000002,0.9570836,-0.03106577,-0.2877929,-38.96655,-32.83555,7.842604
174.733119011,-6.678307,9.08511,6.77858100000002,0.9715706,-0.1536921,-0.2844366,-38.96655,-32.83555,7.842604
174.743116856,0.5210813,7.72000599999998,7.38828800000001,0.9561141,-0.2135323,-0.311673,-38.96655,-32.83555,7.842604
174.753114223,7.28973700000001,7.60130100000003,7.32731800000001,0.932802,-0.192358,-0.3370023,-38.97244,-32.45901,7.389073
174.763112068,9.812599,7.304539,6.16887299999999,0.9265702,-0.1201153,-0.3413173,-38.97244,-32.45901,7.389073
174.773109913,6.305205,6.948425,4.27878,0.9512315,-0.05781263,-0.3303691,-38.97244,-32.45901,7.389073
174.783107281,-0.709583300000001,6.59230999999998,2.937423,0.9734071,-0.01891055,-0.322282,-38.97244,-32.45901,7.389073
174.793105602,-8.70890300000002,4.871092,2.632569,0.9678805,-0.008862268,-0.2744173,-39.27517,-32.84498,7.001782
174.803103447,-14.55456,1.250597,3.791013,0.9700232,0.007474936,-0.2461893,-39.27517,-32.84498,7.001782
174.813100815,-21.26168,-2.726011,5.620136,1.037084,-0.007975623,-0.2209377,-39.27517,-32.84498,7.001782
174.823098659,-23.41535,-4.091116,5.315282,1.02076,-0.1001596,-0.2759217,-39.27517,-32.84498,7.001782
174.833096504,-19.16955,-3.43824,4.644604,0.9473315,-0.1885168,-0.3734005,-39.27517,-32.84498,7.001782
174.843093872,-10.9241,-2.607306,4.766546,0.8758551,-0.1974856,-0.4024667,-39.65608,-32.4707,6.609972
174.853092194,-5.263042,-1.538964,3.851984,0.9047915,-0.1797603,-0.3336067,-39.65608,-32.4707,6.609972
174.863090038,0.644147799999998,-1.420259,3.730042,0.9267191,-0.1270243,-0.3001582,-39.65608,-32.4707,6.609972
174.873087406,2.120945,-2.488602,3.669072,0.964163,-0.0708082,-0.2916236,-39.65608,-32.4707,6.609972
174.883085251,-1.817181,-3.675649,2.388686,0.9984378,-0.08001655,-0.3098669,-39.65608,-32.4707,6.609972
174.893083096,-4.278511,-3.913059,1.047329,0.9839443,-0.1394133,-0.3438052,-40.03083,-32.47352,6.607191
174.903080463,-2.370981,-3.141478,0.31568,0.9485126,-0.1733503,-0.364792,-40.03083,-32.47352,6.607191
174.913078308,-0.1557842,-3.022773,-0.4769399,0.9231446,-0.1455528,-0.352312,-40.03083,-32.47352,6.607191
174.92307663,0.951813900000003,-3.141478,-0.4769399,0.9195433,-0.08335769,-0.3451431,-40.03083,-32.47352,6.607191
174.933073997,-1.509515,-3.497592,0.1327677,0.9661169,-0.04572874,-0.3165194,-40.03083,-32.47352,6.607191
174.943071842,-4.770776,-3.556944,0.986358399999998,0.9745179,-0.0261865,-0.3232392,-39.67011,-31.71326,6.218914
174.95306921,-8.093571,-3.616297,1.535095,0.9298775,-0.06271327,-0.3418164,-39.67011,-31.71326,6.218914
174.963067055,-8.21663800000001,-4.20982,2.327715,0.9346473,-0.1085905,-0.3207556,-39.67011,-31.71326,6.218914
174.973064899,-6.678307,-5.69363,1.839949,0.9544505,-0.1500945,-0.2791433,-39.67011,-31.71326,6.218914
174.983063221,-3.170913,-7.71161000000001,1.230241,1.016024,-0.1860728,-0.3079559,-39.67011,-31.71326,6.218914
174.993060589,4.274609,-7.35549600000001,0.620533899999998,1.017899,-0.1580714,-0.3850172,-39.29707,-31.70718,6.608696
175.003058434,5.566806,-6.99938200000001,-1.147618,0.9336739,-0.08370921,-0.3609607,-39.29707,-31.70718,6.608696
175.013055801,0.5826145,-7.17743899999998,-0.659852100000001,0.9092438,-0.02752876,-0.3288679,-39.29707,-31.70718,6.608696
175.023053646,-9.57036899999999,-6.94003,-0.05014454,0.929069,-0.04501602,-0.3178908,-39.29707,-31.70718,6.608696
175.033051491,-16.40056,-6.82132499999999,0.1937385,0.9328553,-0.1176141,-0.3470718,-39.29707,-31.70718,6.608696
175.043048859,-13.01623,-6.287153,0.01082622,0.9503942,-0.170008,-0.3753249,-39.35166,-32.08801,6.610261
175.05304718,-3.970845,-6.16844799999999,-1.818297,0.9701292,-0.1825982,-0.3600416,-39.35166,-32.08801,6.610261
