Time (s),Gyroscope X (deg/s),Gyroscope Y (deg/s),Gyroscope Z (deg/s),Accelerometer X (g),Accelerometer Y (g),Accelerometer Z (g),Magnetometer X (uT),Magnetometer Y (uT),Magnetometer Z (uT)
36.88232851,-5.958221,-3.683259,-3.347762,0.2738157,-0.1667234,0.8709372,-20.59838,-20.99332,-23.19698
36.892217159,-5.64738,-5.625061,-3.347762,0.27771,-0.1648121,0.8690084,-20.59838,-20.99332,-23.19698
36.902105808,-5.709548,-6.390014,-3.71431,0.2893279,-0.1681215,0.877214,-20.59128,-21.37973,-23.64565
36.911994934,-5.709548,-6.743068,-4.080859,0.294675,-0.1681824,0.8738539,-20.59128,-21.37973,-23.64565
36.921883583,-5.958221,-6.62538299999997,-4.56959,0.2932165,-0.1661742,0.8776895,-20.59128,-21.37973,-23.64565
36.931772232,-6.89074399999999,-7.33149300000002,-4.875047,0.277182,-0.1660346,0.8848843,-20.59128,-21.37973,-23.64565
36.941660881,-8.32061100000001,-7.97876099999998,-4.813955,0.2636001,-0.1675549,0.8791055,-20.59128,-21.37973,-23.64565
36.951550007,-8.88012499999997,-9.92056299999999,-5.119412,0.2723511,-0.1661689,0.8752611,-20.97534,-20.98779,-23.20556
36.961438656,-9.75047899999999,-10.74436,-5.791418,0.2810548,-0.1669731,0.887779,-20.97534,-20.98779,-23.20556
36.971327305,-10.93167,-10.8032,-6.46342299999997,0.2916345,-0.180305,0.9094998,-20.97534,-20.98779,-23.20556
36.983688831,-12.29937,-11.09741,-7.31870300000003,0.3133971,-0.1937813,0.9230585,-20.97534,-20.98779,-23.20556
36.99357748,-13.4184,-9.27329500000003,-7.44088499999998,0.334248,-0.199666,0.9231119,-20.97534,-20.98779,-23.20556
37.003466129,-14.22659,-6.62538299999997,-6.82997100000002,0.3488288,-0.2037989,0.9092026,-20.96756,-20.99615,-23.65953
37.013354778,-13.04539,-4.977794,-6.52451399999998,0.3551463,-0.1949024,0.9187833,-20.96756,-20.99615,-23.65953
37.023243427,-10.86951,-2.388725,-6.09687499999998,0.3614489,-0.1963614,0.9197596,-20.96756,-20.99615,-23.65953
37.033132553,-9.066629,-0.2115527,-5.669235,0.348877,-0.197634,0.8981104,-20.96756,-20.99615,-23.65953
37.043021202,-9.19096599999999,-0.1527103,-4.936138,0.3323209,-0.2216487,0.885709,-20.96756,-20.99615,-23.65953
37.052909851,-11.18035,-1.09419,-4.203042,0.317655,-0.2433528,0.8978249,-21.35093,-20.22615,-23.22475
37.0627985,-13.4184,-0.3292377,-3.347762,0.3064436,-0.2614412,0.8916517,-21.35093,-20.22615,-23.22475
37.072687626,-13.54274,-0.741135099999998,-3.164488,0.3006203,-0.2634279,0.8882886,-21.35093,-20.22615,-23.22475
37.082576275,-11.98853,-1.741457,-3.775402,0.305888,-0.2719445,0.9056509,-21.35093,-20.22615,-23.22475
37.092464924,-9.93698300000002,-1.741457,-4.019767,0.3165095,-0.293005,0.8990365,-21.35093,-20.22615,-23.22475
37.102353573,-8.81795700000002,-0.2703952,-3.836493,0.325264,-0.2986089,0.8836852,-22.09775,-20.60151,-23.69057
37.112242699,-8.81795700000002,1.965619,-3.103397,0.3234044,-0.295141,0.8548103,-22.09775,-20.60151,-23.69057
37.122131348,-7.45025699999999,3.554366,-2.492483,0.318171,-0.2734048,0.8421906,-22.09775,-20.60151,-23.69057
37.132019997,-4.528353,4.437004,-1.453929,0.3245909,-0.2447521,0.8377249,-22.09775,-20.60151,-23.69057
37.141908646,-1.730786,4.848901,-1.026289,0.3251331,-0.2217227,0.8472275,-22.09775,-20.60151,-23.69057
37.151797295,-0.611759299999997,4.495846,-0.598649399999998,0.3270897,-0.2163486,0.8486453,-21.33537,-20.24286,-24.13269
37.16168642,1.501958,3.907421,-0.598649399999998,0.3134906,-0.2137791,0.8558307,-21.33537,-20.24286,-24.13269
37.171575069,1.874967,0.4945571,-1.270655,0.2939582,-0.2274307,0.8847327,-21.33537,-20.24286,-24.13269
37.181463718,0.2585949,-0.799977499999998,-1.637203,0.3059755,-0.2501039,0.9007313,-21.33537,-20.24286,-24.13269
37.191352367,-1.979459,0.847612000000001,-1.087381,0.3142354,-0.2516673,0.8949776,-20.95174,-20.25554,-24.51323
37.203713894,-4.528353,7.02607300000003,-0.965197799999999,0.328396,-0.2457604,0.8685132,-20.95174,-20.25554,-24.51323
37.213602543,-4.093176,8.55597700000001,-0.4764667,0.3110139,-0.224408,0.8611717,-20.95174,-20.25554,-24.51323
37.223490715,-3.844504,5.319641,-0.3542839,0.2997792,-0.2254297,0.8890575,-20.95174,-20.25554,-24.51323
37.233380318,-4.404017,2.965941,-0.781923700000001,0.3103474,-0.2366988,0.9184627,-20.95174,-20.25554,-24.51323
37.243268967,-3.409327,3.142469,-1.392838,0.3224968,-0.2417936,0.9050364,-21.32759,-20.25121,-24.58666
37.253157616,0.5694358,5.025428,-1.51502,0.347768,-0.2350766,0.9016648,-21.32759,-20.25121,-24.58666
37.263046265,1.253286,8.02639499999998,-2.064843,0.3327645,-0.2333292,0.8862494,-21.32759,-20.25121,-24.58666
37.272935391,2.80749,6.437648,-0.4764667,0.3183243,-0.2121696,0.8664083,-21.32759,-20.25121,-24.58666
37.28282404,3.180499,6.673018,1.173001,0.3105502,-0.1897095,0.9018741,-21.32759,-20.25121,-24.58666
37.292712689,-1.668618,7.32028499999999,0.806452599999999,0.2949184,-0.2029825,0.9240457,-20.19671,-20.26779,-24.56092
37.302601338,-6.70423899999999,6.31996299999998,0.6842698,0.2851264,-0.21288,0.9447643,-20.19671,-20.26779,-24.56092
37.312489986,-10.24782,6.908388,0.4399042,0.2918762,-0.2330092,0.9347743,-20.19671,-20.26779,-24.56092
37.322379112,-11.8642,7.73218199999999,0.0733558600000001,0.2986927,-0.2366399,0.9208537,-20.19671,-20.26779,-24.56092
37.332267761,-12.67238,10.67431,-0.598649399999998,0.3059647,-0.2331161,0.9295008,-20.19671,-20.26779,-24.56092
37.34215641,-13.2319,15.7936,-1.453929,0.3166018,-0.227901,0.9540135,-20.57367,-20.26226,-24.5695
37.352045059,-14.41309,19.67721,-1.392838,0.3156638,-0.2191484,0.9530063,-20.57367,-20.26226,-24.5695
37.361934185,-17.58367,20.85406,-1.026289,0.3127728,-0.2247508,0.9361991,-20.57367,-20.26226,-24.5695
37.371822834,-22.18411,21.26595,-2.553574,0.2952648,-0.2533619,0.9093922,-20.57367,-20.26226,-24.5695
37.381711483,-23.30314,21.38364,-1.392838,0.3102104,-0.277137,0.9172241,-20.57367,-20.26226,-24.5695
37.391600132,-20.56774,22.20743,1.783915,0.304891,-0.2737682,0.9138346,-20.55922,-20.27777,-25.41258
37.401489258,-14.72393,22.14859,2.700286,0.2841768,-0.2677511,0.8575129,-20.55922,-20.27777,-25.41258
37.411377907,-12.79672,19.38299,3.066834,0.2787638,-0.2702595,0.884451,-20.55922,-20.27777,-25.41258
37.42373848,-16.3403,19.85373,2.761377,0.263085,-0.2916955,0.9143586,-20.55922,-20.27777,-25.41258
37.433628082,-19.88389,18.73573,2.394829,0.2557771,-0.3109165,0.898096,-20.55922,-20.27777,-25.41258
37.443516731,-18.70269,17.7354,1.356275,0.2587593,-0.3262931,0.8471995,-19.4264,-19.22319,-25.40187
37.45340538,-13.72924,18.32383,0.01226447,0.2800855,-0.3390822,0.8415174,-19.4264,-19.22319,-25.40187
37.463294029,-9.93698300000002,22.38396,0.745361200000002,0.2956773,-0.3041585,0.8668475,-19.4264,-19.22319,-25.40187
37.473183155,-8.44494700000003,25.97335,0.989726799999999,0.2871271,-0.2645136,0.8464386,-19.4264,-19.22319,-25.40187
37.483071804,-9.68831099999998,24.50229,0.928635399999997,0.266706,-0.2652459,0.8598849,-19.4264,-19.22319,-25.40187
37.492960453,-8.32061100000001,22.38396,0.928635399999997,0.2525749,-0.2807932,0.8604283,-19.08158,-18.88195,-27.15105
37.502849102,-5.087867,22.26628,0.745361200000002,0.2481517,-0.2928791,0.8657746,-19.08158,-18.88195,-27.15105
37.512738228,-1.730786,22.03091,1.356275,0.2528777,-0.3209446,0.8784257,-19.08158,-18.88195,-27.15105
37.522626877,2.12364,21.91322,3.433383,0.2621276,-0.3166595,0.8731244,-19.08158,-18.88195,-27.15105
37.532515526,5.605057,22.14859,4.65521,0.2462174,-0.2884424,0.8691164,-19.08158,-18.88195,-27.15105
37.542404175,7.656606,22.38396,4.044297,0.2350934,-0.2652822,0.8858189,-18.32697,-18.51494,-27.1392
37.552292824,5.605057,21.20711,3.372291,0.2176222,-0.2488403,0.9083192,-18.32697,-18.51494,-27.1392
37.56218195,0.00992228700000002,21.08943,3.433383,0.218077,-0.252629,0.9155527,-18.32697,-18.51494,-27.1392
37.572070599,-3.28499,21.26595,4.044297,0.2171519,-0.2559012,0.8920031,-18.32697,-18.51494,-27.1392
37.581959247,-2.228132,20.9129,3.738839,0.2050254,-0.254932,0.8900607,-18.32697,-18.51494,-27.1392
37.591847896,0.9424447,20.44216,2.150463,0.2002072,-0.2641046,0.8622081,-17.9507,-18.89853,-27.12531
37.601737022,4.361694,18.50036,1.295184,0.1792535,-0.2804614,0.8728473,-17.9507,-18.89853,-27.12531
37.611625671,3.304835,16.6174,0.745361200000002,0.1676417,-0.2871426,0.8478599,-17.9507,-18.89853,-27.12531
37.62151432,1.315454,12.85148,1.173001,0.1681403,-0.2927014,0.8344228,-17.9507,-18.89853,-27.12531
37.631402969,2.247976,10.85083,1.478458,0.1685582,-0.3171575,0.827333,-17.9507,-18.89853,-27.12531
37.643764496,4.796871,9.85051200000002,3.3112,0.1622517,-0.2967631,0.8551162,-16.81913,-18.53705,-27.10488
37.653652668,2.993994,7.32028499999999,2.822469,0.1448589,-0.2962437,0.8223912,-16.81913,-18.53705,-27.10488
37.663541317,4.113021,6.96723000000003,2.639194,0.1587787,-0.3077261,0.8705571,-16.81913,-18.53705,-27.10488
37.67343092,4.672534,10.61546,0.867544000000001,0.1660044,-0.2655928,0.9535518,-16.81913,-18.53705,-27.10488
37.683319569,4.796871,13.55759,-2.553574,0.1732889,-0.2079059,1.034544,-16.81913,-18.53705,-27.10488
37.693208218,7.15926100000001,14.73444,-6.70778799999998,0.2006104,-0.1501259,1.059291,-16.43619,-18.92779,-27.48011
37.703096867,8.83780200000001,17.20582,-9.64017600000001,0.2502091,-0.1134726,1.074552,-16.43619,-18.92779,-27.48011
37.712985992,3.677844,23.09007,-9.76235899999999,0.2774938,-0.1325933,1.004465,-16.43619,-18.92779,-27.48011
37.722874641,-6.39339799999998,20.97174,-7.01324599999999,0.2371359,-0.2007336,0.9364727,-16.43619,-18.92779,-27.48011
37.73276329,-18.08101,18.61804,-3.103397,0.2062647,-0.2570491,0.9766387,-16.43619,-18.92779,-27.48011
37.742651939,-25.04385,20.44216,-1.148472,0.1773986,-0.3038164,1.004255,-15.67517,-19.32526,-27.91162
37.752540588,-23.48964,24.03155,-1.94266,0.1425262,-0.3067071,0.9691224,-15.67517,-19.32526,-27.91162
37.762429714,-22.68146,22.03091,-5.180504,0.1203651,-0.3241345,0.8754056,-15.67517,-19.32526,-27.91162
37.772318363,-20.81641,19.50068,-6.46342299999997,0.1315546,-0.3511925,0.8260202,-15.67517,-19.32526,-27.91162
37.782207012,-21.50026,17.44119,-5.180504,0.1518238,-0.386823,0.8233378,-15.67517,-19.32526,-27.91162
37.792095661,-20.4434,16.79392,-1.209563,0.1602982,-0.4593307,0.8280421,-15.66072,-19.34077,-28.7547
37.801984787,-13.91575,16.79392,2.517012,0.1463877,-0.5259559,0.8649129,-15.66072,-19.34077,-28.7547
37.811873436,-2.787645,19.44184,4.777393,0.1444001,-0.5415847,0.8616232,-15.66072,-19.34077,-28.7547
37.821762085,7.28359699999998,21.20711,5.51049,0.144157,-0.4848914,0.8425805,-15.66072,-19.34077,-28.7547
37.831650734,12.7544,20.73637,5.449399,0.1546547,-0.3888032,0.85413,-15.66072,-19.34077,-28.7547
37.84153986,14.18426,19.79489,6.73231800000002,0.1868779,-0.3004826,0.9027742,-14.58284,-18.2306,-29.20027
37.851428509,11.20019,22.4428,7.28214099999998,0.1928861,-0.2080995,0.9590629,-14.58284,-18.2306,-29.20027
37.861317158,7.53226999999998,22.91354,5.81594700000002,0.1518493,-0.1546695,0.9443186,-14.58284,-18.2306,-29.20027
37.873678684,-0.1765822,17.97077,2.822469,0.07864287,-0.1694948,0.8875616,-14.58284,-18.2306,-29.20027
37.883567333,-6.89074399999999,11.61579,0.3788128,0.03302221,-0.2082495,0.829995,-13.82182,-18.62807,-29.63178
37.893455982,-10.24782,4.731216,0.0733558600000001,0.06246101,-0.2405811,0.853757,-13.82182,-18.62807,-29.63178
37.903344154,-10.99384,2.730572,2.150463,0.1195723,-0.2829579,0.860769,-13.82182,-18.62807,-29.63178
37.913233757,-11.24251,3.024784,4.65521,0.146088,-0.3341257,0.8620196,-13.82182,-18.62807,-29.63178
37.923122406,-9.12879799999998,3.730894,6.42686099999998,0.1584617,-0.3778803,0.9012093,-13.82182,-18.62807,-29.63178
37.933011055,-2.974149,9.203244,8.87051700000001,0.1466563,-0.4007561,0.9330523,-12.69026,-18.26659,-29.61134
37.942899704,2.931826,12.67495,9.60361400000002,0.1016314,-0.4217967,0.8551982,-12.69026,-18.26659,-29.61134
37.95278883,9.397315,10.43894,8.80942499999997,0.0513961,-0.3923837,0.7963201,-12.69026,-18.26659,-29.61134
37.962677479,14.24643,5.201956,7.037775,0.02208088,-0.3100743,0.7929853,-12.69026,-18.26659,-29.61134
37.972566128,17.41701,2.200989,5.632673,0.02718511,-0.2410021,0.7883137,-12.69026,-18.26659,-29.61134
37.982454777,19.03338,-2.27104,4.410845,0.03504806,-0.2117719,0.7900987,-12.68958,-17.88853,-29.61665
37.992343903,16.48449,-7.27265099999999,4.227571,0.07666688,-0.2115718,0.8416035,-12.68958,-17.88853,-29.61665
38.002232552,11.26236,-9.037926,4.594119,0.1167865,-0.2170684,0.9027539,-12.68958,-17.88853,-29.61665
38.012121201,4.237358,-8.861399,3.922114,0.109407,-0.2233966,0.9345182,-12.68958,-17.88853,-29.61665
38.02200985,-1.233441,-7.39033600000002,2.333737,0.09379517,-0.2362977,0.9489934,-12.68958,-17.88853,-29.61665
38.031898499,-3.844504,-8.27297300000001,2.578103,0.06892709,-0.2693684,0.9486513,-13.075,-18.25271,-29.16595
38.041787624,-5.958221,-9.56750800000002,5.81594700000002,0.07671878,-0.2710388,0.9356837,-13.075,-18.25271,-29.16595
38.051676273,-9.68831099999998,-10.45015,7.70977999999998,0.08557522,-0.2583759,0.90437,-13.075,-18.25271,-29.16595
38.061564922,-8.44494700000003,-10.33246,6.24358699999999,0.06645883,-0.2179251,0.8387385,-13.075,-18.25271,-29.16595
38.071453571,0.00992228700000002,-12.80384,2.822469,0.03655602,-0.1951826,0.7924212,-13.075,-18.25271,-29.16595
38.081342697,8.02961499999997,-18.33504,-0.659740900000002,0.01568794,-0.2200425,0.7554922,-13.07636,-19.00883,-29.15535
38.09370327,11.94621,-23.86623,-2.248117,0.08188964,-0.273549,0.8010444,-13.07636,-19.00883,-29.15535
38.103591919,8.58912800000003,-20.39453,-1.148472,0.152965,-0.291859,0.8887454,-13.07636,-19.00883,-29.15535
38.113481522,-3.720167,-16.98166,-1.026289,0.1615658,-0.2935055,0.9426266,-13.07636,-19.00883,-29.15535
38.123370171,-13.60491,-17.57009,-0.843015,0.1284359,-0.3021097,0.9815871,-13.07636,-19.00883,-29.15535
38.13325882,-13.60491,-20.39453,-1.637203,0.08222386,-0.3372082,0.9730552,-13.08278,-18.24435,-28.71198
38.143147469,-3.222822,-21.86559,-1.759386,0.0870378,-0.3902129,0.9136944,-13.08278,-18.24435,-28.71198
38.153036594,9.33514699999999,-23.10128,-0.659740900000002,0.09531053,-0.3814067,0.9175067,-13.08278,-18.24435,-28.71198
38.162925243,10.57851,-29.27974,0.0733558600000001,0.125457,-0.3350243,0.9620323,-13.08278,-18.24435,-28.71198
38.172813892,7.47010199999997,-29.57395,0.867544000000001,0.1915566,-0.2909268,0.988816,-13.08278,-18.24435,-28.71198
38.182702541,4.734703,-24.45466,0.989726799999999,0.2105705,-0.2730838,0.9796101,-13.84337,-18.22614,-28.34003
38.192591667,0.0720904500000002,-21.80675,1.234092,0.1883198,-0.2834762,0.932988,-13.84337,-18.22614,-28.34003
38.202480316,-2.911981,-19.62957,2.333737,0.1888378,-0.2881617,0.9128135,-13.84337,-18.22614,-28.34003
38.212368965,-1.109105,-13.45111,5.388307,0.2018784,-0.2987278,0.9244238,-13.84337,-18.22614,-28.34003
38.222257614,1.564126,-10.15593,6.976684,0.192219,-0.3099609,0.8884006,-13.84337,-18.22614,-28.34003
38.23214674,4.610366,-9.62634999999999,6.85450100000001,0.1781508,-0.3184413,0.8730379,-14.5913,-18.60031,-28.741
38.242035389,5.16988,-9.80287800000002,4.838485,0.1683707,-0.3269211,0.8908638,-14.5913,-18.60031,-28.741
38.251924038,0.5694358,-11.80352,2.089372,0.1662325,-0.3510539,0.9376326,-14.5913,-18.60031,-28.741
38.261812687,-6.02038900000001,-12.15658,-1.331746,0.170947,-0.3556576,0.9886388,-14.5913,-18.60031,-28.741
38.271701813,-10.06132,-10.3913,-1.698295,0.1883265,-0.3710227,1.005569,-14.5913,-18.60031,-28.741
38.281590462,-21.31376,-9.80287800000002,-0.4764667,0.1908737,-0.3598442,0.9718504,-15.35967,-18.57375,-27.91507
38.291479111,-19.88389,-10.92089,1.295184,0.1548427,-0.3417204,0.8437929,-15.35967,-18.57375,-27.91507
38.30136776,1.688463,-11.33278,2.02828,0.1197082,-0.2967548,0.7848533,-15.35967,-18.57375,-27.91507
38.313729286,25.4367,-9.80287800000002,-1.209563,0.1605668,-0.2262239,0.8499486,-15.35967,-18.57375,-27.91507
38.323617935,24.44201,-6.860754,-5.73032600000002,0.2214153,-0.1393775,0.9015185,-15.35967,-18.57375,-27.91507
38.333506107,10.26767,-4.742424,-10.55655,0.2712654,-0.02469043,0.9245607,-16.05008,-18.18555,-27.93611
38.34339571,-3.96884,-1.859142,-12.3282,0.3063472,0.03311016,0.951721,-16.05008,-18.18555,-27.93611
38.353284359,-17.58367,1.494879,-12.81693,0.2742478,0.005216127,0.9383597,-16.05008,-18.18555,-27.93611
38.363173008,-29.8308,-1.8003,-11.83947,0.2185291,-0.1181382,0.9211256,-16.05008,-18.18555,-27.93611
38.373061657,-39.28036,-2.03567,-7.25761099999999,0.1994897,-0.2676139,0.9531191,-16.05008,-18.18555,-27.93611
38.382950306,-44.68899,-4.624739,-3.897585,0.1521448,-0.3902644,0.8863562,-15.6809,-18.18273,-27.47356
38.392839432,-34.86642,-13.03922,-1.759386,0.1152056,-0.4978583,0.7531618,-15.6809,-18.18273,-27.47356
38.402728081,-9.99915100000003,-21.39485,1.11191,0.1336839,-0.5628015,0.6462656,-15.6809,-18.18273,-27.47356
38.41261673,18.53604,-24.5135,2.700286,0.1656986,-0.5920981,0.6127856,-15.6809,-18.18273,-27.47356
38.422505379,34.76192,-23.45433,0.6842698,0.1757874,-0.5591146,0.7030436,-15.6809,-18.18273,-27.47356
38.432394505,35.63228,-20.27684,-2.492483,0.1811198,-0.4914046,0.802739,-16.43482,-18.17167,-27.49072
38.442283154,30.41015,-16.62861,-5.85250900000001,0.1907665,-0.4586935,0.8747228,-16.43482,-18.17167,-27.49072
38.452171803,25.49887,-16.04018,-8.11289000000001,0.1829255,-0.4467592,0.9227457,-16.43482,-18.17167,-27.49072
38.462060452,22.20396,-13.98069,-8.235073,0.1969544,-0.4345466,0.9597309,-16.43482,-18.17167,-27.49072
38.471949577,20.71192,-8.39065799999998,-5.48596,0.2052527,-0.4079873,0.978362,-16.43482,-18.17167,-27.49072
38.481838226,19.03338,-8.15528900000001,-1.026289,0.2043363,-0.3655326,1.01662,-16.44995,-18.53422,-26.64233
38.491726875,22.57697,-9.27329500000003,5.99922100000002,0.2149333,-0.2770384,0.9762685,-16.44995,-18.53422,-26.64233
38.501615524,28.04776,-10.45015,11.43636,0.2127914,-0.2017006,0.966267,-16.44995,-18.53422,-26.64233
38.51150465,25.93405,-15.03986,14.30765,0.221636,-0.1566167,0.986248,-16.44995,-18.53422,-26.64233
38.521393299,21.02276,-16.56976,15.10184,0.2511918,-0.1827207,0.9705431,-16.44995,-18.53422,-26.64233
38.533753872,23.38515,-15.21639,14.49092,0.2870654,-0.2387444,0.9088281,-17.19746,-19.28764,-27.10285
38.543643474,25.93405,-9.39098100000002,11.19199,0.2997382,-0.2784176,0.8301719,-17.19746,-19.28764,-27.10285
38.553532123,25.68537,-7.39033600000002,6.85450100000001,0.2860811,-0.2968803,0.8312116,-17.19746,-19.28764,-27.10285
38.563420772,23.63382,-5.625061,4.16648,0.2661866,-0.2864281,0.8436401,-17.19746,-19.28764,-27.10285
38.573309421,19.71723,-4.977794,3.555565,0.2496911,-0.2799717,0.8498406,-17.96751,-19.57493,-26.20765
38.583198547,18.72254,-0.0938677799999998,5.143942,0.2430225,-0.2742896,0.8055596,-17.96751,-19.57493,-26.20765
38.593087196,27.55042,-1.32956,6.91559200000002,0.1879508,-0.2519431,0.7293985,-17.96751,-19.57493,-26.20765
38.602975845,38.55418,-10.3913,7.89305399999997,0.1505496,-0.2372659,0.7615036,-17.96751,-19.57493,-26.20765
38.612864494,41.72476,-20.33568,9.237065,0.1490856,-0.1879478,0.8353145,-17.96751,-19.57493,-26.20765
38.62275362,38.67852,-29.16206,8.74833400000002,0.1708764,-0.1384025,0.9274257,-17.98139,-19.24437,-25.36898
38.632642269,32.0887,-31.57459,7.15995799999999,0.2421552,-0.128637,0.9712213,-17.98139,-19.24437,-25.36898
38.642530918,25.37453,-27.16141,4.044297,0.2857974,-0.1443847,0.9660603,-17.98139,-19.24437,-25.36898
38.652419567,18.78471,-24.63118,0.928635399999997,0.3080051,-0.176517,0.9696145,-17.98139,-19.24437,-25.36898
38.662308693,13.25174,-24.74887,-0.1710097,0.3026157,-0.1906207,0.9701605,-17.98139,-19.24437,-25.36898
38.672197342,10.95152,-23.92507,0.928635399999997,0.2958534,-0.186834,0.961958,-19.43612,-20.286,-24.93287
38.682085991,8.71346500000002,-16.62861,0.01226447,0.307217,-0.1577636,0.9209457,-19.43612,-20.286,-24.93287
38.69197464,14.18426,-4.683581,-0.2321011,0.3530039,-0.156884,0.8555881,-19.43612,-20.286,-24.93287
38.701863766,28.54511,1.906777,1.173001,0.3218316,-0.08008032,0.809477,-19.43612,-20.286,-24.93287
38.711752415,31.40484,-3.683259,2.150463,0.2800578,-0.03749985,0.8832762,-19.43612,-20.286,-24.93287
38.721641064,22.45263,-12.39195,2.517012,0.2653013,-0.03773091,0.9635744,-20.21295,-20.62914,-23.64767
38.731529713,9.27297899999999,-15.9225,1.356275,0.2732836,-0.07934208,1.015252,-20.21295,-20.62914,-23.64767
38.741418838,-2.352468,-13.68648,-1.331746,0.2784087,-0.147669,1.005985,-20.21295,-20.62914,-23.64767
38.751307487,-8.50711499999998,-12.80384,-3.653219,0.272338,-0.223235,0.9996271,-20.21295,-20.62914,-23.64767
38.76366806,-7.57459399999998,-12.27426,-3.103397,0.2819438,-0.2639153,0.9834923,-20.21295,-20.62914,-23.64767
38.773557663,-3.347158,-11.56815,-2.125934,0.2834824,-0.2619509,0.9522242,-20.22031,-21.00004,-23.25325
38.783446312,1.128949,-9.50866599999999,-2.3703,0.2899595,-0.2416215,0.9122124,-20.22031,-21.00004,-23.25325
38.793334961,4.237358,-8.802556,-2.553574,0.2934943,-0.222589,0.882784,-20.22031,-21.00004,-23.25325
38.80322361,5.107712,-8.68487099999997,-2.981214,0.3024035,-0.1873684,0.8619366,-20.22031,-21.00004,-23.25325
38.813112736,5.667225,-9.50866599999999,-0.720832200000002,0.3006268,-0.144614,0.8549856,-20.22031,-21.00004,-23.25325
38.823001385,4.48603,-8.21413099999998,0.0733558600000001,0.3049554,-0.1647744,0.8425885,-20.2274,-20.61363,-22.80459
38.832890034,4.610366,-7.56686399999999,0.989726799999999,0.2897725,-0.1942399,0.8566669,-20.2274,-20.61363,-22.80459
38.842778683,4.548198,-8.50834399999998,0.867544000000001,0.2837698,-0.2274393,0.8827975,-20.2274,-20.61363,-22.80459
38.852667808,2.80749,-8.62602799999997,0.01226447,0.2763905,-0.236754,0.9102487,-20.2274,-20.61363,-22.80459
38.862556457,0.5694358,-7.44917799999999,-0.1710097,0.2885581,-0.2265377,0.9111727,-20.2274,-20.61363,-22.80459
38.872445106,-0.798263799999999,-4.918952,-0.720832200000002,0.309008,-0.2205137,0.8933715,-20.59863,-21.75063,-23.25123
38.882333755,1.253286,-3.977472,0.01226447,0.3031638,-0.2104253,0.9159172,-20.59863,-21.75063,-23.25123
38.892222881,5.294216,-2.977149,1.783915,0.3163048,-0.21018,0.9015032,-20.59863,-21.75063,-23.25123
38.90211153,9.45948300000001,-2.918307,2.88356,0.3075843,-0.202801,0.9053034,-20.59863,-21.75063,-23.25123
38.912000179,11.63537,-2.212197,1.967189,0.3071113,-0.1998927,0.9043263,-20.59863,-21.75063,-23.25123
38.921888828,12.50572,-2.565252,1.539549,0.3057072,-0.1892705,0.8980191,-20.22074,-20.62079,-23.1937
38.931777477,10.88935,-2.859464,1.234092,0.3043602,-0.1635817,0.889712,-20.22074,-20.62079,-23.1937
38.941666603,7.96744700000002,-2.329882,0.867544000000001,0.3116266,-0.1649994,0.8935748,-20.22074,-20.62079,-23.1937
38.951555252,5.232048,-1.682615,0.562087,0.3126049,-0.1685322,0.8854182,-20.22074,-20.62079,-23.1937
38.961443901,3.367003,-0.741135099999998,0.745361200000002,0.3165198,-0.1533151,0.8940022,-20.22074,-20.62079,-23.1937
38.97133255,1.937135,0.2003446,0.562087,0.3175023,-0.146922,0.8982994,-20.97602,-21.36585,-23.20026
38.983694077,1.501958,0.4945571,-0.1099183,0.3257547,-0.1419681,0.9050166,-20.97602,-21.36585,-23.20026
38.993582726,2.185808,-0.3292377,0.0733558600000001,0.3179601,-0.139782,0.9199053,-20.97602,-21.36585,-23.20026
39.003471851,1.999303,0.2003446,-0.1099183,0.3145773,-0.1408643,0.9122121,-20.97602,-21.36585,-23.20026
39.0133605,1.564126,1.200667,-0.4153753,0.3063222,-0.1472933,0.9045405,-20.97602,-21.36585,-23.20026
39.023249149,0.9424447,1.553722,0.1955387,0.307302,-0.1483483,0.8992568,-20.98269,-21.3587,-22.81114
39.033137798,-0.4252549,2.200989,0.0733558600000001,0.3106992,-0.1508401,0.8959069,-20.98269,-21.3587,-22.81114
39.043026924,-2.041627,3.201311,0.0733558600000001,0.3126437,-0.154346,0.8896748,-20.98269,-21.3587,-22.81114
39.052915573,-2.60114,3.318996,-0.2321011,0.3058247,-0.1611498,0.8897014,-20.98269,-21.3587,-22.81114
39.062804222,-2.041627,2.730572,-0.1710097,0.3038624,-0.1674835,0.8892503,-20.98269,-21.3587,-22.81114
39.072692871,-2.165963,2.907099,-0.4764667,0.3033271,-0.1721434,0.9032199,-21.72815,-20.97794,-23.28757
39.08258152,-3.160654,4.025106,-0.4764667,0.302862,-0.1682901,0.9003144,-21.72815,-20.97794,-23.28757
39.092470646,-3.160654,4.025106,-0.1099183,0.2985592,-0.1527711,0.8954219,-21.72815,-20.97794,-23.28757
39.102359295,-3.471495,3.201311,-0.2321011,0.2970759,-0.1585684,0.898335,-21.72815,-20.97794,-23.28757
39.112247944,-4.901362,2.965941,-0.4764667,0.2985241,-0.1605119,0.8988274,-21.72815,-20.97794,-23.28757
39.122136593,-5.83388499999998,3.083626,-0.5375581,0.2927004,-0.165979,0.8906727,-21.35965,-21.35317,-22.81972
39.132025719,-5.709548,2.436359,-0.598649399999998,0.2810251,-0.1802213,0.881113,-21.35965,-21.35317,-22.81972
39.141914368,-4.777026,1.141824,-0.598649399999998,0.2703305,-0.1875619,0.8772906,-21.35965,-21.35317,-22.81972
39.151803017,-4.404017,-0.3292377,-0.965197799999999,0.2708239,-0.1896042,0.8710495,-21.35965,-21.35317,-22.81972
39.161691666,-4.714858,-0.3880802,-1.148472,0.2752145,-0.1892553,0.8623961,-21.35965,-21.35317,-22.81972
39.171580792,-3.906672,-0.85882,-1.270655,0.2864091,-0.1800182,0.8628432,-20.98201,-20.98064,-22.81644
39.181469441,-3.782336,-1.388402,-1.331746,0.2878526,-0.1749646,0.8753231,-20.98201,-20.98064,-22.81644
39.191358089,-4.777026,-2.03567,-1.087381,0.28297,-0.1812422,0.8782348,-20.98201,-20.98064,-22.81644
39.203719616,-5.398708,-2.859464,-1.087381,0.2771129,-0.1949587,0.8720455,-20.98201,-20.98064,-22.81644
39.213608265,-5.274371,-3.271362,-1.759386,0.2906836,-0.1963529,0.87832,-20.98201,-20.98064,-22.81644
39.223496914,-5.025699,-2.800622,-1.881569,0.2964763,-0.2001449,0.8860405,-20.98201,-20.98064,-22.81644
39.23338604,-5.087867,-3.035992,-1.881569,0.3013356,-0.1942176,0.892268,-20.98201,-20.98064,-22.81644
39.243274689,-5.087867,-3.389047,-2.003752,0.3076056,-0.1929829,0.9105439,-20.98201,-20.98064,-22.81644
39.253163338,-5.212203,-2.918307,-2.248117,0.3163178,-0.188366,0.9273627,-20.98201,-20.98064,-22.81644
39.263051987,-6.33123000000002,-1.682615,-2.248117,0.3255259,-0.1927739,0.9269146,-21.35119,-20.98346,-23.279
39.272941113,-7.512425,0.3180296,-2.187026,0.3274357,-0.1985492,0.9317552,-21.35119,-20.98346,-23.279
39.282829762,-7.07724800000002,1.965619,-1.576112,0.3187284,-0.196728,0.9221176,-21.35119,-20.98346,-23.279
39.292718411,-5.958221,2.789414,-1.270655,0.3206993,-0.190946,0.9182432,-21.35119,-20.98346,-23.279
39.30260706,-5.274371,3.613209,-1.148472,0.3216656,-0.19291,0.9172924,-21.35119,-20.98346,-23.279
39.312495709,-5.336539,4.613531,-1.148472,0.3255211,-0.2021985,0.9154201,-20.58991,-20.62362,-23.65626
39.322384834,-5.958221,5.96690800000001,-1.087381,0.3284225,-0.2026336,0.919273,-20.58991,-20.62362,-23.65626
39.332273483,-7.32592100000003,7.84986700000002,-0.965197799999999,0.3216307,-0.2066237,0.9120716,-20.58991,-20.62362,-23.65626
39.342162132,-8.13410699999998,9.262087,-0.659740900000002,0.3148451,-0.2051782,0.9101328,-20.58991,-20.62362,-23.65626
39.352050781,-7.94760199999998,9.73282600000002,-0.659740900000002,0.3012701,-0.2107235,0.8957178,-20.58991,-20.62362,-23.65626
39.361939907,-7.01508000000001,9.55629900000002,-0.5375581,0.2963877,-0.2209829,0.8928785,-20.96687,-20.61809,-23.66483
39.371828556,-5.89605299999999,8.96787499999997,-0.843015,0.2929772,-0.2283595,0.8876218,-20.96687,-20.61809,-23.66483
39.381717205,-5.150035,8.96787499999997,-0.781923700000001,0.291963,-0.2395286,0.8896008,-20.96687,-20.61809,-23.66483
39.391605854,-4.963531,9.497457,-0.1710097,0.2851741,-0.2440343,0.8804783,-20.96687,-20.61809,-23.66483
39.401495457,-4.404017,9.73282600000002,0.5009956,0.2832888,-0.2389114,0.8645799,-20.96687,-20.61809,-23.66483
39.411384106,-3.098486,9.14440199999997,0.928635399999997,0.2813772,-0.2296412,0.8654928,-20.58213,-20.63197,-24.11023
39.421272278,-1.979459,8.08523799999998,1.295184,0.2702271,-0.226719,0.8640226,-20.58213,-20.63197,-24.11023
39.433633804,-0.1765822,6.26111999999998,1.417367,0.2634064,-0.2320189,0.8669271,-20.58213,-20.63197,-24.11023
39.443522453,0.9424447,4.437004,1.050818,0.2682692,-0.2300951,0.865961,-20.58213,-20.63197,-24.11023
39.453411102,0.693772100000003,4.142791,1.11191,0.2745802,-0.2311102,0.8640497,-20.58213,-20.63197,-24.11023
39.463300228,-0.4252549,3.907421,1.417367,0.275086,-0.2272587,0.8611452,-19.82112,-21.02943,-24.54173
39.473188877,-0.4252549,3.377839,1.539549,0.2813617,-0.2280509,0.8741413,-19.82112,-21.02943,-24.54173
39.483077526,0.1342586,3.083626,1.478458,0.2828143,-0.2230549,0.8827742,-19.82112,-21.02943,-24.54173
39.492966175,0.880276599999999,3.083626,0.989726799999999,0.2726085,-0.2274316,0.8818229,-19.82112,-21.02943,-24.54173
39.502855301,1.937135,2.848256,1.173001,0.2600202,-0.2186489,0.8812833,-19.82112,-21.02943,-24.54173
39.51274395,3.429171,2.377517,1.539549,0.2595731,-0.2029649,0.8879364,-20.20517,-20.6375,-24.10164
39.522632599,3.926517,2.436359,1.11191,0.2654493,-0.1824024,0.8960149,-20.20517,-20.6375,-24.10164
39.532521248,3.429171,2.495202,1.050818,0.2702878,-0.1848036,0.898918,-20.20517,-20.6375,-24.10164
39.542410374,2.372312,2.200989,0.867544000000001,0.2664052,-0.1823108,0.9022675,-20.20517,-20.6375,-24.10164
39.552299023,1.004613,2.318674,0.25663,0.2649304,-0.1856734,0.9051683,-20.20517,-20.6375,-24.10164
39.562187672,0.1342586,2.495202,0.01226447,0.2624787,-0.1924787,0.9056808,-20.19739,-20.64585,-24.55561
39.572076321,0.0720904500000002,2.083304,-0.4153753,0.2493459,-0.1997426,0.9066645,-20.19739,-20.64585,-24.55561
39.581965923,0.1964268,1.612564,-0.5375581,0.2571291,-0.2008613,0.8980224,-20.19739,-20.64585,-24.55561
39.591854572,-0.05224587,1.906777,-0.3542839,0.2556798,-0.203888,0.8908222,-20.19739,-20.64585,-24.55561
39.601742744,0.2585949,1.965619,0.01226447,0.2605567,-0.1975745,0.8903149,-20.19739,-20.64585,-24.55561
39.611631393,1.004613,1.847934,0.4399042,0.266413,-0.1938055,0.8826078,-19.45125,-20.64855,-24.08448
39.621520996,1.43979,1.730249,0.5009956,0.2727065,-0.1981933,0.883118,-19.45125,-20.64855,-24.08448
39.631409645,1.626294,1.494879,0.3177214,0.2678851,-0.1949045,0.8744394,-19.45125,-20.64855,-24.08448
39.641298294,1.128949,1.024139,-0.1099183,0.2610577,-0.2031476,0.875916,-19.45125,-20.64855,-24.08448
39.653659344,-1.109105,0.1415022,-0.4764667,0.2532424,-0.2122764,0.8831671,-19.45125,-20.64855,-24.08448
39.663547993,-2.787645,-0.799977499999998,0.01226447,0.2421109,-0.2010114,0.885983,-20.19739,-20.64585,-24.55561
39.673436642,-3.595831,-1.211875,0.01226447,0.2537278,-0.2122773,0.8831676,-20.19739,-20.64585,-24.55561
39.683325291,-2.414636,-2.27104,-0.3542839,0.2595636,-0.2083789,0.8841164,-20.19739,-20.64585,-24.55561
39.693214416,-0.487423,-2.74178,-0.3542839,0.284301,-0.2018529,0.9004629,-20.19739,-20.64585,-24.55561
39.703103065,0.5694358,-2.859464,-0.659740900000002,0.2935072,-0.1997796,0.9100813,-20.19739,-20.64585,-24.55561
39.712991714,0.3207631,-2.27104,-0.659740900000002,0.2799744,-0.1911603,0.8984803,-19.82112,-21.02943,-24.54173
39.722880363,-0.860432000000003,-2.212197,-0.1099183,0.2712653,-0.1858441,0.8945962,-19.82112,-21.02943,-24.54173
39.732769489,-2.476804,-2.918307,0.3177214,0.2702794,-0.1912202,0.8931794,-19.82112,-21.02943,-24.54173
39.742658138,-3.906672,-2.977149,0.3788128,0.2712332,-0.1960916,0.8932051,-19.82112,-21.02943,-24.54173
39.752546787,-4.714858,-2.50641,-0.1710097,0.2692499,-0.2057763,0.8966182,-19.82112,-21.02943,-24.54173
39.762435436,-4.155344,-1.8003,-0.598649399999998,0.266783,-0.2159687,0.8985906,-20.19072,-20.65301,-24.94473
39.772325039,-2.974149,-2.329882,-0.781923700000001,0.2555985,-0.224275,0.8952535,-20.19072,-20.65301,-24.94473
39.782213688,-2.165963,-2.977149,-0.5375581,0.2478478,-0.2208726,0.8937846,-20.19072,-20.65301,-24.94473
39.79210186,-1.917291,-2.800622,-0.2321011,0.2512579,-0.2189675,0.8913743,-20.19072,-20.65301,-24.94473
39.801990509,-2.228132,-2.918307,-0.2931925,0.2551364,-0.2209374,0.8904269,-20.19072,-20.65301,-24.94473
39.811880112,-2.041627,-3.271362,-0.659740900000002,0.2604619,-0.2218571,0.8947659,-19.45057,-20.27049,-24.08979
39.821768761,-1.792954,-3.153677,-1.148472,0.2672532,-0.2213476,0.8971756,-19.45057,-20.27049,-24.08979
39.83165741,-1.730786,-3.153677,-1.759386,0.2672916,-0.2126329,0.8937652,-19.45057,-20.27049,-24.08979
39.841546059,-1.357777,-3.447889,-2.125934,0.2639142,-0.2057874,0.8951695,-19.45057,-20.27049,-24.08979
39.851435184,-1.357777,-3.447889,-2.309208,0.2653789,-0.2053465,0.8922834,-19.45057,-20.27049,-24.08979
39.861323833,-1.979459,-3.389047,-2.431391,0.275143,-0.196766,0.8811899,-20.567,-20.26942,-24.95861
39.873684406,-2.60114,-3.094834,-2.187026,0.2848419,-0.1922516,0.8912775,-20.567,-20.26942,-24.95861
39.883573532,-2.787645,-3.742102,-2.248117,0.2833604,-0.2005484,0.889875,-20.567,-20.26942,-24.95861
39.893462181,-2.911981,-5.095479,-2.431391,0.2769662,-0.2164254,0.901971,-20.567,-20.26942,-24.95861
39.90335083,-3.96884,-5.272007,-2.248117,0.280321,-0.2300954,0.9001201,-20.19739,-20.64585,-24.55561
39.913239479,-4.65269,-4.448212,-2.003752,0.2730706,-0.2317648,0.8852118,-20.19739,-20.64585,-24.55561
39.923128605,-3.28499,-4.153999,-1.576112,0.2803779,-0.2274686,0.8803892,-20.19739,-20.64585,-24.55561
39.933017254,-1.855123,-4.330527,-1.453929,0.2930495,-0.2109013,0.8827245,-20.19739,-20.64585,-24.55561
39.942905903,-0.798263799999999,-4.389369,-1.759386,0.302267,-0.2088999,0.887534,-20.19739,-20.64585,-24.55561
39.952794552,-0.984768300000001,-4.801267,-2.431391,0.3061019,-0.2170634,0.8957553,-20.19739,-20.64585,-24.55561
39.962684155,-2.663309,-4.036314,-2.675757,0.3070016,-0.2375171,0.8958597,-20.19739,-20.64585,-24.55561
39.972572327,-4.031008,-2.800622,-2.125934,0.2968027,-0.2439279,0.8891476,-20.19739,-20.64585,-24.55561
39.982460976,-3.595831,-2.094512,-1.392838,0.2793597,-0.2411012,0.8804569,-20.19739,-20.64585,-24.55561
39.992349625,-1.60645,-2.918307,-1.331746,0.2793839,-0.2308033,0.8852141,-20.19739,-20.64585,-24.55561
40.002239227,0.7559403,-3.977472,-0.965197799999999,0.2861294,-0.2394596,0.8934412,-20.57367,-20.26226,-24.5695
40.012127876,2.247976,-4.036314,-1.51502,0.2885313,-0.2412971,0.901148,-20.57367,-20.26226,-24.5695
40.022016525,2.247976,-3.506732,-1.637203,0.2885684,-0.2295888,0.9025316,-20.57367,-20.26226,-24.5695
40.031905174,0.9424447,-2.388725,-1.881569,0.2769839,-0.2190256,0.8909229,-20.57367,-20.26226,-24.5695
40.0417943,-0.1765822,-1.976827,-1.392838,0.27754,-0.2050417,0.8817154,-20.57367,-20.26226,-24.5695
40.051682949,-0.3009185,-2.682937,-1.576112,0.2766056,-0.201288,0.8720769,-21.33605,-20.62092,-24.12738
40.061571598,-0.487423,-3.918629,-1.453929,0.2828782,-0.2100224,0.8750137,-21.33605,-20.62092,-24.12738
40.071460724,0.1342586,-4.212842,-1.453929,0.2857656,-0.2168382,0.8755324,-21.33605,-20.62092,-24.12738
40.081349373,0.693772100000003,-4.389369,-1.331746,0.2872303,-0.2183882,0.8697708,-21.33605,-20.62092,-24.12738
40.093709946,1.004613,-4.918952,-1.209563,0.2794494,-0.215293,0.8803266,-21.33605,-20.62092,-24.12738
40.103599072,0.880276599999999,-6.09580100000001,-0.965197799999999,0.2784607,-0.2241352,0.87508,-20.95909,-20.62644,-24.1188
40.113487721,0.693772100000003,-7.56686399999999,-0.904106400000002,0.2755606,-0.2306755,0.8606822,-20.95909,-20.62644,-24.1188
40.12337637,1.253286,-8.567186,-1.331746,0.27407,-0.2369238,0.8660021,-20.95909,-20.62644,-24.1188
40.133265018,1.377622,-9.09676800000003,-1.698295,0.2813308,-0.2393011,0.8708316,-20.95909,-20.62644,-24.1188
40.143154621,1.501958,-9.09676800000003,-1.759386,0.2910965,-0.2272472,0.864049,-20.95909,-20.62644,-24.1188
40.153042793,2.12364,-9.44982299999999,-1.453929,0.2974176,-0.2203633,0.8693115,-20.95773,-19.87032,-24.12941
40.162931442,2.931826,-9.62634999999999,-1.148472,0.3032655,-0.2045984,0.8822234,-20.95773,-19.87032,-24.12941
40.172820091,3.180499,-10.21478,-1.270655,0.3046876,-0.2083674,0.8909006,-20.95773,-19.87032,-24.12941
40.182709694,2.869658,-9.97940500000002,-1.331746,0.3002824,-0.2126046,0.9000545,-20.95773,-19.87032,-24.12941
40.192598343,1.564126,-9.037926,-1.51502,0.3100039,-0.2072386,0.9019621,-20.95773,-19.87032,-24.12941
40.202486992,-0.487423,-7.56686399999999,-1.698295,0.3081488,-0.1853869,0.8975212,-21.33537,-20.24286,-24.13269
40.212375641,-1.295609,-6.801911,-2.3703,0.306247,-0.1806574,0.8878767,-21.33537,-20.24286,-24.13269
40.222264767,-1.233441,-7.09612300000002,-3.469945,0.3134914,-0.1864145,0.8946471,-21.33537,-20.24286,-24.13269
40.232153416,-0.860432000000003,-8.33181600000001,-4.508498,0.3361666,-0.2129612,0.9135628,-21.33537,-20.24286,-24.13269
40.242042065,-2.352468,-8.15528900000001,-4.56959,0.3430423,-0.1821315,0.924476,-21.33537,-20.24286,-24.13269
40.251930714,-6.08255700000002,-6.09580100000001,-4.14195,0.3314969,-0.1489242,0.9291044,-21.3505,-20.6054,-23.2843
40.26181984,-8.00976999999999,-4.801267,-3.531036,0.3159293,-0.1755411,0.905656,-21.3505,-20.6054,-23.2843
40.271708489,-7.45025699999999,-4.271684,-3.408854,0.3111015,-0.1871412,0.8782966,-21.3505,-20.6054,-23.2843
40.281597138,-5.274371,-3.212519,-3.653219,0.3188763,-0.1926855,0.8667914,-21.3505,-20.6054,-23.2843
40.291485787,-0.860432000000003,-4.860109,-3.592128,0.3599402,-0.295553,0.799548,-21.3505,-20.6054,-23.2843
40.301374912,1.066781,-6.566541,0.3177214,0.4036813,-0.2362851,0.8608562,-21.72148,-20.9851,-23.67669
40.311263561,1.874967,-5.330849,-0.04882693,0.3478735,-0.2237998,0.8741955,-21.72148,-20.9851,-23.67669
40.323624134,-0.3009185,-4.271684,-2.553574,0.2924618,-0.2336431,0.8924571,-21.72148,-20.9851,-23.67669
40.333513737,-2.787645,-4.036314,-3.286671,0.2793492,-0.2330727,0.8962868,-21.72148,-20.9851,-23.67669
40.343401909,-4.217513,-5.507376,-2.981214,0.3026193,-0.2468755,0.8882073,-21.72148,-20.9851,-23.67669
40.353290558,-5.150035,-7.56686399999999,-1.759386,0.3326638,-0.2516031,0.9017311,-21.72079,-20.60704,-23.682
40.363179207,-6.82857599999998,-5.566219,-0.720832200000002,0.3560464,-0.2437234,0.8781528,-21.72079,-20.60704,-23.682
40.37306881,-1.046937,-4.565897,-1.94266,0.2968667,-0.2717024,0.8229209,-21.72079,-20.60704,-23.682
40.382957459,5.107712,-6.21348599999998,-2.981214,0.302314,-0.2355711,0.8299584,-21.72079,-20.60704,-23.682
40.392846108,7.34576600000001,-5.272007,-2.79794,0.3183972,-0.1942173,0.8619894,-21.72079,-20.60704,-23.682
40.402735233,3.180499,-5.566219,-2.675757,0.3295616,-0.182301,0.8787741,-22.09707,-20.22345,-23.69588
40.412623882,-1.855123,-6.03695899999998,-2.064843,0.3329087,-0.1874627,0.8922698,-22.09707,-20.22345,-23.69588
40.422512531,-5.523044,-6.331171,-1.392838,0.326059,-0.1930769,0.906718,-22.09707,-20.22345,-23.69588
40.43240118,-6.33123000000002,-4.389369,-2.492483,0.3105283,-0.1980308,0.8990306,-22.09707,-20.22345,-23.69588
40.442290306,-3.533663,-3.389047,-3.958676,0.2970179,-0.1950268,0.8701448,-22.09707,-20.22345,-23.69588
40.452178955,0.5694358,-4.742424,-4.752864,0.3072358,-0.1942097,0.8610148,-22.10511,-20.97241,-23.29615
40.462067604,0.880276599999999,-4.860109,-5.119412,0.3343173,-0.2125444,0.8760468,-22.10511,-20.97241,-23.29615
40.471956253,-1.109105,-4.212842,-5.48596,0.3512622,-0.2277309,0.8722954,-22.10511,-20.97241,-23.29615
40.481845379,-3.471495,-3.212519,-5.669235,0.3706905,-0.2188963,0.8794867,-22.10511,-20.97241,-23.29615
40.491734028,-5.398708,-1.447245,-5.73032600000002,0.3751192,-0.201869,0.8789248,-22.10511,-20.97241,-23.29615
40.501622677,-5.709548,-0.799977499999998,-5.669235,0.3674022,-0.1837503,0.8845955,-22.4878,-19.82435,-22.86668
40.511511326,-5.150035,-1.211875,-5.608143,0.3440897,-0.1945609,0.8750052,-22.4878,-19.82435,-22.86668
40.521400452,-4.590521,-2.859464,-5.547052,0.3217005,-0.2170171,0.8683603,-22.4878,-19.82435,-22.86668
40.531289101,-4.466185,-4.860109,-5.241595,0.3187392,-0.2321282,0.8669906,-22.4878,-19.82435,-22.86668
40.543649673,-4.590521,-5.036636,-5.058321,0.3410148,-0.2537419,0.8575067,-22.4878,-19.82435,-22.86668
40.553539276,-5.025699,-4.742424,-4.386316,0.3701751,-0.2221889,0.8871976,-22.79483,-20.20616,-23.32249
40.563427925,-4.963531,-3.800944,-4.203042,0.3595403,-0.2294094,0.8588476,-22.79483,-20.20616,-23.32249
40.573316574,-3.595831,-3.800944,-4.875047,0.3682246,-0.2435265,0.8603715,-22.79483,-20.20616,-23.32249
40.583205223,-2.165963,-2.977149,-5.73032600000002,0.3818553,-0.2353472,0.8555365,-22.79483,-20.20616,-23.32249
40.593094349,-1.171273,-1.976827,-6.82997100000002,0.3858175,-0.2025137,0.8698027,-22.79483,-20.20616,-23.32249
40.602982998,-1.109105,-1.32956,-7.56306800000003,0.380962,-0.202991,0.8697996,-22.47471,-20.59599,-23.69916
40.612871647,-1.419945,-0.682292600000002,-7.56306800000003,0.3741182,-0.2156095,0.8717793,-22.47471,-20.59599,-23.69916
40.622760296,-1.792954,-0.2115527,-7.50197599999999,0.3717115,-0.222201,0.8540158,-22.47471,-20.59599,-23.69916
40.632649422,-1.60645,-0.85882,-6.82997100000002,0.3673336,-0.2276064,0.8501907,-22.47471,-20.59599,-23.69916
40.642538071,-1.60645,-1.623772,-6.09687499999998,0.3643402,-0.2355479,0.8723498,-22.47471,-20.59599,-23.69916
40.65242672,-0.922600200000001,-0.85882,-5.180504,0.3682401,-0.2276997,0.8766429,-22.78748,-19.83526,-23.71691
40.662315369,0.0720904500000002,-1.153032,-5.48596,0.3701935,-0.2282768,0.870877,-22.78748,-19.83526,-23.71691
40.672204494,0.0720904500000002,-1.917985,-5.91360000000002,0.3589815,-0.2458639,0.865663,-22.78748,-19.83526,-23.71691
40.682093143,0.1964268,-3.094834,-6.28014899999998,0.3546059,-0.2522791,0.8594384,-22.78748,-19.83526,-23.71691
40.691981792,-0.860432000000003,-3.683259,-7.135428,0.3594911,-0.237558,0.8675452,-22.78748,-19.83526,-23.71691
40.701870918,-2.414636,-2.74178,-7.074337,0.3746015,-0.2185824,0.8684284,-22.78175,-20.97779,-24.15497
40.711759567,-2.60114,-1.8003,-6.76888000000001,0.3765752,-0.2113252,0.8655084,-22.78175,-20.97779,-24.15497
40.721648216,-2.538972,-1.153032,-6.46342299999997,0.3722298,-0.203998,0.8664284,-22.78175,-20.97779,-24.15497
40.731536865,-2.165963,-1.447245,-6.34123999999999,0.3551998,-0.2126576,0.8712619,-22.78175,-20.97779,-24.15497
40.741426468,-1.233441,-2.565252,-6.58560600000002,0.3328461,-0.2228969,0.8674409,-22.78175,-20.97779,-24.15497
40.75131464,-1.233441,-2.977149,-6.82997100000002,0.3273803,-0.2469675,0.8853504,-23.16581,-20.58586,-23.71489
40.76367569,-1.482114,-1.8003,-6.21905800000003,0.3273344,-0.270564,0.870561,-23.16581,-20.58586,-23.71489
40.773564815,-0.673927500000001,-0.976504999999998,-4.875047,0.326396,-0.2672829,0.8618868,-23.16581,-20.58586,-23.71489
40.783453464,1.004613,-0.917662500000002,-3.897585,0.3439397,-0.2538267,0.8522203,-23.16581,-20.58586,-23.71489
40.793342113,3.11833,-0.682292600000002,-3.653219,0.3536747,-0.2435697,0.855546,-23.18026,-20.57034,-22.8718
40.803230762,5.542889,-0.976504999999998,-3.836493,0.356621,-0.2408048,0.845436,-23.18026,-20.57034,-22.8718
40.813119888,7.097093,-1.211875,-3.897585,0.3536818,-0.2515766,0.8411589,-23.18026,-20.57034,-22.8718
40.823008537,8.46479200000001,-1.153032,-3.653219,0.3444785,-0.2511793,0.8339325,-23.18026,-20.57034,-22.8718
40.832897186,9.08647399999999,-2.447567,-2.920122,0.3226126,-0.2499896,0.8454437,-23.18026,-20.57034,-22.8718
40.842785835,8.52696000000002,-3.859787,-2.3703,0.3181805,-0.2535602,0.8666173,-22.4807,-20.21077,-23.31534
40.852674961,7.843111,-3.800944,-2.492483,0.3259742,-0.2462857,0.8656276,-22.4807,-20.21077,-23.31534
40.86256361,8.34045599999999,-3.271362,-2.981214,0.326503,-0.2331247,0.8665236,-22.4807,-20.21077,-23.31534
40.872452259,8.775634,-4.565897,-3.225579,0.3299799,-0.2196982,0.8529938,-22.4807,-20.21077,-23.31534
40.882340908,8.34045599999999,-6.743068,-3.469945,0.3503574,-0.2107289,0.869323,-22.4807,-20.21077,-23.31534
40.892230034,8.21611999999997,-5.448534,-3.592128,0.3745928,-0.2160398,0.8756293,-22.7962,-20.96228,-23.31188
40.902118683,11.3867,0.671084500000001,-2.248117,0.4130935,-0.2006792,0.8332745,-22.7962,-20.96228,-23.31188
40.912007332,17.35484,4.790059,-2.920122,0.4167666,-0.1461931,0.7974151,-22.7962,-20.96228,-23.31188
40.921896934,18.4117,3.907421,-2.003752,0.4138151,-0.1135937,0.8602477,-22.7962,-20.96228,-23.31188
40.931785107,17.54134,4.966586,-0.3542839,0.432701,-0.09842581,0.9001089,-22.7962,-20.96228,-23.31188
40.941673756,18.66037,6.614175,-0.4153753,0.4349749,-0.1029384,0.9568831,-23.18804,-20.56199,-22.41783
40.951562405,19.53073,9.14440199999997,-1.148472,0.4326228,-0.09146263,0.9423947,-23.18804,-20.56199,-22.41783
40.961452007,13.87342,8.20292199999998,-1.698295,0.4037809,-0.1135015,0.9953747,-23.18804,-20.56199,-22.41783
40.971340656,4.423862,15.08749,-0.1099183,0.376515,-0.1298313,1.006968,-23.18804,-20.56199,-22.41783
40.983701229,-10.24782,16.73508,-0.04882693,0.2764733,-0.1596468,0.9863256,-23.18804,-20.56199,-22.41783
40.993590355,-28.21442,8.43829199999998,0.3177214,0.25684,-0.1846039,1.040774,-23.18231,-21.70452,-22.85589
41.003479004,-45.37284,-1.035347,0.562087,0.2404009,-0.1665615,1.040183,-23.18231,-21.70452,-22.85589
41.013367653,-56.99828,-6.09580100000001,-0.843015,0.2723665,-0.1721589,1.060927,-23.18231,-21.70452,-22.85589
41.023256302,-66.3856800000001,-9.86171999999999,-3.836493,0.3035311,-0.1489691,1.05267,-23.18231,-21.70452,-22.85589
41.033145428,-74.7783800000002,-9.27329500000003,-6.46342299999997,0.3424603,-0.150667,1.009439,-23.18231,-21.70452,-22.85589
41.043034077,-82.7980699999999,-9.62634999999999,-9.76235899999999,0.348255,-0.1639267,1.00278,-22.48275,-21.34494,-23.29943
41.052922726,-90.6934299999999,-12.15658,-11.96165,0.3441592,-0.2188074,1.01219,-22.48275,-21.34494,-23.29943
41.062811852,-90.2582600000002,-15.98134,-12.51147,0.3361898,-0.2991188,0.9813272,-22.48275,-21.34494,-23.29943
41.072700501,-80.9330300000002,-18.74693,-12.87802,0.3166192,-0.3622921,0.9551736,-22.48275,-21.34494,-23.29943
41.082589149,-69.92926,-19.57073,-13.91657,0.2936721,-0.379811,0.985534,-22.48275,-21.34494,-23.29943
41.092477798,-60.23103,-19.62957,-15.99368,0.3067755,-0.3579294,1.01766,-22.4518,-20.24179,-25.00151
41.102366447,-52.58434,-17.74661,-19.10934,0.3354882,-0.337563,1.015666,-22.4518,-20.24179,-25.00151
41.112255573,-46.30536,-17.15819,-22.34719,0.3325357,-0.3776112,0.9749869,-22.4518,-20.24179,-25.00151
41.122144222,-38.2235,-14.62796,-23.56901,0.2975821,-0.4387095,0.8901328,-22.4518,-20.24179,-25.00151
41.132032871,-24.04916,-15.21639,-22.83592,0.2271733,-0.4841679,0.8369002,-22.4518,-20.24179,-25.00151
41.141922474,-10.86951,-14.92217,-20.8199,0.1670841,-0.4513228,0.8433989,-22.74066,-19.19108,-26.3856
41.151811123,1.688463,-16.92282,-19.72026,0.1223846,-0.4514482,0.8616236,-22.74066,-19.19108,-26.3856
41.161699772,8.402624,-18.57041,-18.31516,0.1145632,-0.4281919,0.917765,-22.74066,-19.19108,-26.3856
41.171588421,4.175189,-19.62957,-15.62713,0.127737,-0.3679401,0.9756669,-22.74066,-19.19108,-26.3856
41.181477547,-3.347158,-17.74661,-13.0002,0.1789414,-0.3073523,0.963396,-22.74066,-19.19108,-26.3856
41.191366196,-12.79672,-14.39259,-10.73982,0.2328078,-0.3238156,0.9443035,-22.41003,-18.07702,-27.23745
41.203726769,-16.52681,-11.2151,-4.019767,0.1471541,-0.3237816,0.8374415,-22.41003,-18.07702,-27.23745
41.213615894,-13.60491,-13.98069,0.6842698,0.07257517,-0.3396302,0.7446191,-22.41003,-18.07702,-27.23745
41.223504543,-5.958221,-19.92379,4.899576,0.04174166,-0.3231103,0.6728432,-22.41003,-18.07702,-27.23745
41.233393192,2.496649,-28.3971,7.64868900000003,0.04918746,-0.3087413,0.6251679,-22.41003,-18.07702,-27.23745
41.243282318,9.77032399999997,-36.87042,9.84797900000002,0.09439053,-0.306741,0.602125,-22.01152,-18.48447,-28.52062
41.253170967,15.24112,-43.10772,11.00872,0.1719842,-0.3263795,0.6018315,-22.01152,-18.48447,-28.52062
41.263059616,18.97121,-47.63859,10.70326,0.2171043,-0.3462487,0.5817846,-22.01152,-18.48447,-28.52062
41.272948265,23.01214,-51.28683,8.87051700000001,0.2602712,-0.3744999,0.5545639,-22.01152,-18.48447,-28.52062
41.282837868,27.48825,-54.64085,6.48795199999999,0.2752841,-0.3862595,0.5517548,-22.01152,-18.48447,-28.52062
41.292726517,33.33206,-58.3479300000003,2.944651,0.2396057,-0.3628193,0.4861906,-23.07043,-17.72105,-29.00951
41.302614689,42.0356,-65.64439,-1.148472,0.1966603,-0.3220338,0.4397672,-23.07043,-17.72105,-29.00951
41.312503338,50.36613,-74.5296099999999,-4.508498,0.1692272,-0.2856328,0.3953074,-23.07043,-17.72105,-29.00951
41.322392941,56.33428,-85.4154699999999,-7.25761099999999,0.198833,-0.2548246,0.4403919,-23.07043,-17.72105,-29.00951
41.33228159,59.0696799999998,-93.5945700000001,-8.54052999999998,0.2559974,-0.2497641,0.4933327,-23.07043,-17.72105,-29.00951
41.342170239,57.20463,-100.0084,-9.51799300000002,0.3133646,-0.2345396,0.4769697,-25.36357,-18.41179,-27.29936
41.352058888,51.796,-103.892,-10.25109,0.3797809,-0.2550652,0.4809963,-25.36357,-18.41179,-27.29936
41.361948013,44.14932,-103.2447,-9.090353,0.4072647,-0.2182158,0.4087031,-25.36357,-18.41179,-27.29936
41.371836662,38.80286,-101.1853,-8.54052999999998,0.4544177,-0.2137845,0.3856502,-25.36357,-18.41179,-27.29936
41.381725311,36.62697,-98.53734,-6.21905800000003,0.4112231,-0.1361721,0.2943147,-25.36357,-18.41179,-27.29936
41.39161396,34.82409,-106.4222,-6.76888000000001,0.3896215,-0.08738596,0.2647075,-27.60764,-18.70988,-24.74999
41.401503086,33.89157,-112.7184,-6.21905800000003,0.410674,-0.026866,0.2764486,-27.60764,-18.70988,-24.74999
41.411391735,30.84533,-115.6605,-1.331746,0.4350002,-0.008366827,0.2792683,-27.60764,-18.70988,-24.74999
41.421280384,26.99091,-132.2541,0.1344473,0.4004931,0.08247872,0.2273115,-27.60764,-18.70988,-24.74999
41.433641434,25.31236,-146.0821,-2.920122,0.554469,0.03825408,0.319085,-30.98385,-19.68451,-22.21664
41.443530083,20.15241,-148.3769,-4.630681,0.7265232,-0.01920093,0.3426552,-30.98385,-19.68451,-22.21664
41.453418732,11.69754,-142.375,-4.752864,0.8631172,-0.0963155,0.3494522,-30.98385,-19.68451,-22.21664
41.463308334,-0.1765822,-130.7242,-1.637203,0.8867986,-0.1280644,0.3462731,-30.98385,-19.68451,-22.21664
41.473196983,-16.40247,-119.8383,-2.003752,0.8103213,-0.12577,0.2615324,-30.98385,-19.68451,-22.21664
41.483085156,-25.23035,-117.5435,-3.71431,0.7490285,-0.1432059,0.2923298,-35.13539,-19.55185,-18.35357
41.492973805,-26.53588,-115.837,-3.469945,0.6227124,-0.08754845,0.2197668,-35.13539,-19.55185,-18.35357
41.502863407,-14.66176,-126.5464,-8.11289000000001,0.5632085,-0.06479058,0.1705302,-35.13539,-19.55185,-18.35357
41.512752056,2.931826,-139.4917,-11.10637,0.5883143,-0.1167445,0.1515844,-35.13539,-19.55185,-18.35357
41.522640705,18.28736,-148.73,-13.79439,0.6410713,-0.1915482,0.1063349,-35.13539,-19.55185,-18.35357
41.532529354,33.33206,-148.1416,-16.72678,0.6889662,-0.2543463,0.08169881,-37.78507,-19.05608,-14.07236
41.54241848,43.77631,-139.1975,-19.10934,0.6956225,-0.2883165,0.09053461,-37.78507,-19.05608,-14.07236
41.552307129,47.56857,-131.3714,-17.82642,0.6591325,-0.3125775,0.09157757,-37.78507,-19.05608,-14.07236
41.562195778,55.02875,-130.43,-13.48893,0.6262191,-0.3667595,0.176456,-37.78507,-19.05608,-14.07236
41.572084427,54.46923,-128.3116,-4.630681,0.7777325,-0.4400357,0.4419861,-37.78507,-19.05608,-14.07236
41.581973553,25.56104,-110.4235,8.13742,1.048316,-0.5104523,0.8495088,-41.21363,-20.03762,-8.490048
41.591862202,-29.8308,-77.1775199999998,12.10836,1.34673,-0.4635273,1.356983,-41.21363,-20.03762,-8.490048
41.601750851,-98.34011,-51.93409,13.39128,1.426732,-0.07373895,1.348371,-41.21363,-20.03762,-8.490048
41.611639976,-153.0481,-38.75338,5.08285,1.527029,0.2483294,1.079946,-41.21363,-20.03762,-8.490048
41.621528625,-131.9109,-51.1103,-10.92309,1.633894,0.07434152,0.5966596,-41.21363,-20.03762,-8.490048
41.631417274,-0.922600200000001,-44.16689,-18.25406,2.068576,-0.4145925,0.5895252,-43.52721,-20.32763,-5.552995
41.641305923,128.325,11.79231,-6.76888000000001,2.415864,-0.5786542,1.258268,-43.52721,-20.32763,-5.552995
41.65366745,83.3152500000002,70.4582700000003,-10.06781,2.492214,-0.5725209,1.808978,-43.52721,-20.32763,-5.552995
41.663555622,-29.8308,89.6997600000001,-27.78432,2.099557,-0.3157809,1.567736,-43.52721,-20.32763,-5.552995
41.673444271,-51.65182,65.9862399999998,-41.22443,1.528775,0.03699323,0.6578058,-43.52721,-20.32763,-5.552995
41.683333874,-4.031008,27.26789,-33.46582,1.308656,0.179975,0.1595606,-44.95504,-18.80973,-6.450188
41.693222523,38.30551,-3.800944,-13.42784,1.268823,0.2936406,0.1348949,-44.95504,-18.80973,-6.450188
41.703111172,10.08116,-19.45304,3.494474,1.191193,0.3308429,-0.02552808,-44.95504,-18.80973,-6.450188
41.713000297,-48.10823,-30.3389,4.227571,0.9845639,0.3725038,-0.4260999,-44.95504,-18.80973,-6.450188
41.722888946,-89.9474099999998,-24.45466,-2.675757,0.7059943,0.3469492,-0.4787078,-44.95504,-18.80973,-6.450188
41.732777595,-111.8306,-12.03889,-5.302687,0.3821599,0.1079507,-0.3840888,-44.24581,-21.11208,-7.69969
41.742666244,-116.9906,-15.5106,-3.531036,0.1516048,-0.2247606,-0.258592,-44.24581,-21.11208,-7.69969
41.75255537,-112.5145,-26.10225,-6.21905800000003,0.1304911,-0.5847288,-0.07164232,-44.24581,-21.11208,-7.69969
41.762444019,-91.8124500000001,-40.51865,-12.81693,0.3176893,-0.8427183,0.02605844,-44.24581,-21.11208,-7.69969
41.772332668,-40.27505,-60.8193099999999,-18.62061,0.6698777,-0.9704953,0.1256934,-44.24581,-21.11208,-7.69969
41.782221317,27.92343,-75.7653,-21.79736,1.109537,-0.9916103,0.3355007,-43.84594,-20.76341,-8.99347
41.792110443,88.3508800000001,-83.47366,-20.63663,1.521271,-0.8976526,0.616352,-43.84594,-20.76341,-8.99347
41.801999092,111.3531,-82.8852399999997,-17.2766,1.869003,-0.6702107,0.8594249,-43.84594,-20.76341,-8.99347
41.811887741,90.5889300000002,-69.5280000000001,-15.26058,2.006652,-0.3703142,0.9696397,-43.84594,-20.76341,-8.99347
41.82177639,50.17963,-48.81544,-12.93911,1.657097,-0.05532549,0.8517485,-43.84594,-20.76341,-8.99347
41.831665516,15.55196,-35.75241,-7.990708,1.122029,0.1183393,0.5722901,-44.60373,-20.68168,-5.118031
41.841554165,-1.295609,-34.28135,-4.875047,0.6744,0.1844669,0.3103069,-44.60373,-20.68168,-5.118031
41.851442814,-6.70423899999999,-40.10675,-3.408854,0.3858316,0.1572085,0.1749777,-44.60373,-20.68168,-5.118031
41.861332417,-10.93167,-47.16785,-4.875047,0.2498547,0.1007015,0.1231692,-44.60373,-20.68168,-5.118031
41.873692989,-14.53743,-59.9955099999998,-8.907079,0.3679946,0.007760588,0.1112692,-44.60373,-20.68168,-5.118031
41.883581638,-17.02415,-66.0562900000003,-11.53401,0.6011666,-0.03811928,0.1680339,-44.32233,-22.16631,-3.338639
41.893470764,-20.13256,-66.9389300000001,-13.30566,0.8460611,-0.0899611,0.1858875,-44.32233,-22.16631,-3.338639
41.903359413,-20.94075,-64.9382900000001,-15.56604,1.007086,-0.1313197,0.1771421,-44.32233,-22.16631,-3.338639
41.913248062,-17.83234,-61.8196299999999,-17.03223,1.090972,-0.1578311,0.174005,-44.32233,-22.16631,-3.338639
41.923136711,-12.98322,-56.28844,-17.88751,1.115682,-0.1680484,0.1779321,-44.32233,-22.16631,-3.338639
41.933025837,-8.88012499999997,-49.93345,-17.52097,1.074458,-0.1527492,0.1859836,-44.67315,-22.12232,-1.205646
41.942914486,-6.766407,-45.40258,-15.62713,0.9928966,-0.1390378,0.2127531,-44.67315,-22.12232,-1.205646
41.952803135,-4.65269,-49.93345,-13.79439,0.8935202,-0.1177391,0.1908911,-44.67315,-22.12232,-1.205646
41.962692261,-3.347158,-53.69937,-12.51147,0.8856277,-0.1139391,0.2485734,-44.67315,-22.12232,-1.205646
41.97258091,-5.460876,-60.1720400000001,-13.7333,0.8846738,-0.122503,0.2293788,-44.67315,-22.12232,-1.205646
41.982469559,-6.70423899999999,-61.87848,-16.05477,0.9276773,-0.1686325,0.2440884,-44.00428,-22.10859,0.1071398
41.992358208,-9.56397399999999,-62.2315300000002,-18.74279,0.9648429,-0.2176507,0.2602488,-44.00428,-22.10859,0.1071398
42.00224781,-13.97791,-60.4074100000001,-21.12536,0.9933424,-0.2596351,0.2571269,-44.00428,-22.10859,0.1071398
42.012135983,-18.95137,-56.58265,-20.69772,0.9986648,-0.287905,0.2236113,-44.00428,-22.10859,0.1071398
42.022024632,-23.1788,-52.93442,-19.47589,0.9619789,-0.2851303,0.1437227,-44.00428,-22.10859,0.1071398
42.03191328,-25.35469,-51.22799,-16.91005,0.935374,-0.2776892,0.1167233,-44.05666,-22.7468,3.100093
42.041802883,-26.53588,-51.75757,-14.95513,0.9475538,-0.2730235,0.1046905,-44.05666,-22.7468,3.100093
42.051691532,-27.84141,-49.1685,-12.57256,0.9589032,-0.2443609,0.06897041,-44.05666,-22.7468,3.100093
42.061580181,-26.66022,-44.4611,-9.64017600000001,1.006906,-0.2565864,0.07197229,-44.05666,-22.7468,3.100093
42.071468353,-22.30845,-40.10675,-7.807434,1.010404,-0.2467771,0.0445142,-44.05666,-22.7468,3.100093
42.081357956,-14.84827,-39.16528,-6.58560600000002,1.009412,-0.2411671,0.06131696,-43.32634,-23.49011,4.424917
42.093718529,-4.031008,-39.57717,-6.21905800000003,0.9871525,-0.2146768,0.07125713,-43.32634,-23.49011,4.424917
42.103607655,4.48603,-39.51833,-6.70778799999998,0.9756063,-0.1749953,0.08547112,-43.32634,-23.49011,4.424917
42.113496304,7.96744700000002,-38.98875,-7.50197599999999,0.9620871,-0.1430724,0.1016457,-43.32634,-23.49011,4.424917
42.123384953,4.672534,-38.51801,-7.807434,0.951083,-0.09877415,0.09900477,-43.72689,-24.21683,5.724001
42.133273602,-1.668618,-35.92894,-8.35725599999999,0.9342669,-0.06897418,0.07046071,-43.72689,-24.21683,5.724001
42.143162727,-6.20689400000001,-35.34052,-9.70126700000002,0.9242075,-0.05934664,0.02904142,-43.72689,-24.21683,5.724001
42.153051376,-7.32592100000003,-36.75274,-11.5951,0.9335283,-0.06446654,-0.01901422,-43.72689,-24.21683,5.724001
42.162940025,-6.02038900000001,-37.98843,-12.08383,0.9398535,-0.08149548,-0.04969992,-43.72689,-24.21683,5.724001
42.172829628,-5.150035,-41.81319,-12.75584,0.9491292,-0.07986076,-0.0694154,-42.99699,-24.58088,7.108375
42.182718277,-7.01508000000001,-44.93184,-12.3282,0.961658,-0.08727412,-0.04243211,-42.99699,-24.58088,7.108375
42.192606449,-11.80203,-47.75628,-10.25109,0.9675639,-0.08232476,-0.06890107,-42.99699,-24.58088,7.108375
42.202495098,-17.64584,-51.16914,-8.29616499999998,1.005355,-0.09490917,-0.05869516,-42.99699,-24.58088,7.108375
42.212384701,-22.49495,-51.05146,-7.074337,1.031519,-0.120047,-0.07537062,-42.99699,-24.58088,7.108375
42.22227335,-24.85734,-50.58072,-6.09687499999998,1.053288,-0.151979,-0.0910549,-42.64363,-25.31866,8.424619
42.232161999,-24.23566,-48.16817,-5.547052,1.066749,-0.1900021,-0.0918093,-42.64363,-25.31866,8.424619
42.242050648,-21.6246,-44.16689,-5.608143,1.058919,-0.2099803,-0.09364093,-42.64363,-25.31866,8.424619
42.251939774,-18.39185,-40.69518,-7.074337,1.016221,-0.2234318,-0.1195912,-42.64363,-25.31866,8.424619
42.261828423,-13.91575,-38.75338,-8.29616499999998,0.9561052,-0.2197769,-0.1437241,-42.64363,-25.31866,8.424619
42.271717072,-9.68831099999998,-38.10611,-9.27362699999999,0.9115252,-0.2206575,-0.1759921,-42.2889,-25.30032,9.730255
42.281605721,-3.409327,-36.9881,-8.96817000000001,0.9023593,-0.2165156,-0.1933366,-42.2889,-25.30032,9.730255
42.291494846,2.061472,-35.22283,-8.35725599999999,0.92334,-0.2077939,-0.2260594,-42.2889,-25.30032,9.730255
42.301383495,7.843111,-32.45723,-7.68525100000001,0.9607525,-0.201144,-0.2323025,-42.2889,-25.30032,9.730255
42.313744545,12.56789,-27.51447,-6.891063,0.9985467,-0.2142441,-0.2240176,-42.2889,-25.30032,9.730255
42.323633194,13.12741,-24.98424,-5.91360000000002,0.9946517,-0.198237,-0.1962095,-41.55778,-25.60256,11.04889
42.333521843,11.69754,-23.80739,-4.691772,0.987421,-0.1701718,-0.1766418,-41.55778,-25.60256,11.04889
42.343410492,9.02430599999998,-24.33697,-3.347762,0.9850994,-0.1374912,-0.1734431,-41.55778,-25.60256,11.04889
42.353300095,5.79156200000001,-27.33794,-2.431391,0.9916117,-0.09598584,-0.1976915,-41.55778,-25.60256,11.04889
42.363188744,2.310144,-31.45691,-3.592128,0.9859661,-0.04883397,-0.2041882,-41.55778,-25.60256,11.04889
42.373076916,0.5694358,-34.98746,-6.15796599999999,0.9919147,-0.01280423,-0.2038826,-41.57223,-25.58705,11.89198
42.382965565,-1.357777,-36.92926,-9.21253599999998,0.9934396,0.008654512,-0.2015847,-41.57223,-25.58705,11.89198
42.392855167,-1.917291,-38.57685,-11.28964,1.007524,0.01006596,-0.2030186,-41.57223,-25.58705,11.89198
42.402743816,-1.357777,-38.2238,-12.45038,1.012872,0.006016006,-0.2126104,-41.57223,-25.58705,11.89198
42.412632465,0.2585949,-36.69389,-12.20601,1.014305,-0.01523483,-0.233181,-41.57223,-25.58705,11.89198
42.422521591,0.9424447,-34.39904,-11.83947,1.023451,-0.03617018,-0.2316221,-40.91183,-25.94301,13.66404
42.43241024,0.4450994,-31.39807,-10.55655,1.034958,-0.06664792,-0.2165464,-40.91183,-25.94301,13.66404
42.442298889,-0.798263799999999,-27.22025,-9.151444,1.058015,-0.1129446,-0.1831027,-40.91183,-25.94301,13.66404
42.452187538,-1.109105,-21.39485,-7.68525100000001,1.049055,-0.1528189,-0.1478041,-40.91183,-25.94301,13.66404
42.462076664,0.0720904500000002,-16.15787,-6.46342299999997,1.02653,-0.1958183,-0.1278947,-40.91183,-25.94301,13.66404
42.471965313,1.501958,-13.27458,-4.99723,1.018159,-0.2214231,-0.1152709,-40.17304,-26.31661,14.52959
42.481853962,3.429171,-11.98005,-4.691772,1.011835,-0.2238095,-0.1128614,-40.17304,-26.31661,14.52959
42.491742611,6.288907,-11.15625,-4.264133,1.007926,-0.225126,-0.1037217,-40.17304,-26.31661,14.52959
42.501631737,11.01369,-10.45015,-4.14195,1.012798,-0.2217701,-0.1066187,-40.17304,-26.31661,14.52959
42.511520386,15.80064,-10.21478,-3.958676,1.022059,-0.2190464,-0.1186449,-40.17304,-26.31661,14.52959
42.521409035,18.66037,-10.62667,-2.859031,1.023586,-0.2005885,-0.121622,-39.81164,-26.30543,15.44611
42.531298161,17.85218,-9.68519299999999,-1.820477,1.016909,-0.1620127,-0.1155725,-39.81164,-26.30543,15.44611
42.54365921,14.55727,-6.27232800000001,-0.5375581,1.012348,-0.103135,-0.1519443,-39.81164,-26.30543,15.44611
42.553547859,13.43825,-2.565252,0.1344473,1.013513,-0.05908368,-0.1694788,-39.81164,-26.30543,15.44611
42.563436985,13.81125,0.4357146,-0.5375581,1.022373,-0.03101624,-0.1801908,-39.81164,-26.30543,15.44611
42.573325634,14.4951,2.612886,-1.881569,1.027729,-0.02416639,-0.1773338,-40.20442,-27.04051,16.29122
42.583214283,13.81125,2.965941,-2.3703,1.019463,-0.02505206,-0.1725295,-40.20442,-27.04051,16.29122
42.593102932,10.39201,2.554044,-1.576112,0.9970928,-0.0152813,-0.1408635,-40.20442,-27.04051,16.29122
42.602992058,4.175189,3.260154,-0.781923700000001,0.9655956,0.005849204,-0.1323495,-40.20442,-27.04051,16.29122
42.612880707,-1.60645,3.966264,-0.720832200000002,0.9399286,0.01150608,-0.1482777,-40.20442,-27.04051,16.29122
42.622769356,-4.714858,3.142469,-0.904106400000002,0.9350352,-0.01460895,-0.1693118,-39.44981,-26.67351,16.30308
42.632658482,-6.02038900000001,1.906777,-0.843015,0.9621654,-0.04071536,-0.1855004,-39.44981,-26.67351,16.30308
42.642547131,-6.144726,0.965297,-0.3542839,0.9743151,-0.05775579,-0.2161794,-39.44981,-26.67351,16.30308
42.652435779,-6.26906200000001,-0.1527103,-0.2321011,0.9957381,-0.05473457,-0.2392545,-39.44981,-26.67351,16.30308
42.662324428,-6.144726,-0.799977499999998,-0.659740900000002,1.001113,-0.06243767,-0.2651792,-39.44981,-26.67351,16.30308
42.672213554,-6.45556599999999,-2.918307,-1.94266,0.9778306,-0.07542622,-0.290148,-40.20442,-27.04051,16.29122
42.682102203,-6.89074399999999,-6.68422599999997,-3.347762,0.9549258,-0.09719305,-0.2833311,-40.20442,-27.04051,16.29122
42.691990852,-6.39339799999998,-9.56750800000002,-3.164488,0.9402564,-0.1138982,-0.2625838,-40.20442,-27.04051,16.29122
42.701879501,-5.087867,-9.97940500000002,-2.492483,0.9431372,-0.110222,-0.244324,-40.20442,-27.04051,16.29122
42.711769104,-3.906672,-8.15528900000001,-1.759386,0.9634972,-0.1056209,-0.227011,-40.20442,-27.04051,16.29122
42.721657276,-3.720167,-4.801267,-2.125934,0.9746332,-0.1099464,-0.2216863,-39.83387,-26.28157,16.74316
42.731545925,-5.087867,-1.682615,-2.309208,0.9775681,-0.108105,-0.2284252,-39.83387,-26.28157,16.74316
42.741435528,-5.523044,0.906454499999998,-2.859031,0.9757093,-0.09468961,-0.2434037,-39.83387,-26.28157,16.74316
42.751324177,-3.782336,2.083304,-2.675757,0.982124,-0.07993754,-0.2655933,-39.83387,-26.28157,16.74316
42.76368475,-0.673927500000001,0.4357146,-3.347762,0.9864831,-0.0923284,-0.2794724,-39.44203,-26.68186,15.84911
42.773573875,1.315454,-3.035992,-3.469945,0.9844502,-0.1176242,-0.2779042,-39.44203,-26.68186,15.84911
42.783462524,3.677844,-6.44885599999998,-2.736848,0.9630067,-0.1369376,-0.2696553,-39.44203,-26.68186,15.84911
42.793351173,5.79156200000001,-8.44950099999998,-1.51502,0.944071,-0.1289005,-0.2557707,-39.44203,-26.68186,15.84911
42.803240299,7.097093,-9.80287800000002,-0.659740900000002,0.9392572,-0.09729484,-0.2270806,-39.44203,-26.68186,15.84911
42.813128948,7.40793400000002,-9.97940500000002,-0.781923700000001,0.9504779,-0.06582867,-0.2055854,-39.82746,-27.04604,16.2998
42.823017597,6.59974800000002,-9.037926,-1.209563,0.9670497,-0.03494631,-0.1898523,-39.82746,-27.04604,16.2998
42.832906246,4.423862,-7.50802099999999,-1.576112,0.9811462,-0.02067288,-0.1778853,-39.82746,-27.04604,16.2998
42.842795372,0.9424447,-5.97811599999998,-1.820477,0.9846347,0.002134995,-0.1828058,-39.82746,-27.04604,16.2998
42.852684021,-3.036318,-5.154321,-1.637203,0.9890209,-0.002464716,-0.1967243,-39.82746,-27.04604,16.2998
42.86257267,-5.89605299999999,-4.977794,-1.576112,0.9943693,-0.007510142,-0.2077539,-39.46563,-27.41411,17.15677
42.872461319,-8.13410699999998,-4.565897,-1.51502,1.006967,-0.02033234,-0.2168123,-39.46563,-27.41411,17.15677
42.882350922,-8.94229299999998,-3.624417,-2.3703,1.016069,-0.05492378,-0.2166271,-39.46563,-27.41411,17.15677
42.892239571,-7.82326600000002,-3.035992,-2.492483,1.012007,-0.1055442,-0.2154141,-39.46563,-27.41411,17.15677
42.902127743,-4.963531,-2.565252,-2.125934,1.009882,-0.1496655,-0.2026896,-39.46563,-27.41411,17.15677
42.912017345,-1.295609,-2.50641,-1.759386,0.9985921,-0.1777066,-0.1905377,-39.46495,-27.03605,17.15147
42.921905994,1.750631,-2.800622,-0.965197799999999,0.9864153,-0.182888,-0.1804261,-39.46495,-27.03605,17.15147
42.931794643,3.491339,-2.800622,-0.843015,0.9733083,-0.1793672,-0.1746877,-39.46495,-27.03605,17.15147
42.941683292,4.050853,-3.330204,-0.781923700000001,0.9621946,-0.1707024,-0.1829198,-39.46495,-27.03605,17.15147
42.951572418,3.926517,-4.448212,-1.026289,0.9656143,-0.1683606,-0.1886988,-39.46495,-27.03605,17.15147
42.961461067,4.48603,-4.683581,-0.904106400000002,0.9957315,-0.1685711,-0.1987628,-39.46563,-27.41411,17.15677
42.971349716,6.72408399999998,-3.800944,-0.659740900000002,1.021978,-0.1698485,-0.2155588,-39.46563,-27.41411,17.15677
42.983710766,11.82187,-0.917662500000002,-0.5375581,1.036167,-0.1467042,-0.2291254,-39.46563,-27.41411,17.15677
42.993599415,16.54665,-0.0938677799999998,-0.5375581,1.023599,-0.1285904,-0.224422,-39.46563,-27.41411,17.15677
43.003488064,20.40108,-0.4469227,-0.4153753,1.008567,-0.1182053,-0.215835,-39.46563,-27.41411,17.15677
43.013377666,22.5148,-0.682292600000002,-0.4153753,0.9915521,-0.1155141,-0.2009594,-39.09576,-27.03322,17.61402
43.023265839,23.38515,-0.0938677799999998,-0.1099183,0.9789388,-0.106573,-0.1909195,-39.09576,-27.03322,17.61402
43.033154488,23.07431,0.1415022,-0.5375581,0.9711738,-0.1015875,-0.1842207,-39.09576,-27.03322,17.61402
43.043043137,23.69599,0.02381719,-1.148472,0.9653543,-0.09911974,-0.182797,-39.09576,-27.03322,17.61402
43.052932739,24.75285,-0.3292377,-1.51502,0.9809193,-0.09537711,-0.1909739,-39.09576,-27.03322,17.61402
43.062821388,26.05838,-0.917662500000002,-1.637203,1.011079,-0.07694697,-0.1919946,-39.87192,-26.99831,18.89392
43.072710037,27.9856,0.5533996,-1.576112,1.046578,-0.06051833,-0.1958846,-39.87192,-26.99831,18.89392
43.082599163,29.91281,3.789736,-1.148472,1.060645,-0.0515294,-0.1790818,-39.87192,-26.99831,18.89392
43.092487812,29.5398,6.79070299999997,-0.781923700000001,1.043604,-0.05315595,-0.1598561,-39.87192,-26.99831,18.89392
43.102376461,26.36922,8.73250499999998,-0.3542839,1.018789,-0.06665524,-0.154045,-39.87192,-26.99831,18.89392
43.11226511,22.01745,8.73250499999998,0.562087,0.9886236,-0.08903129,-0.1563709,-38.73368,-26.64398,18.52523
43.122154236,18.22519,8.08523799999998,0.867544000000001,0.9715484,-0.1063624,-0.1452415,-38.73368,-26.64398,18.52523
43.132042885,14.68161,7.79102499999999,1.050818,0.9555014,-0.1111211,-0.1399456,-38.73368,-26.64398,18.52523
43.141931534,11.44886,8.49713400000001,1.295184,0.9511551,-0.1067731,-0.142858,-38.73368,-26.64398,18.52523
43.151820183,9.14864300000002,8.73250499999998,1.356275,0.9546089,-0.09767886,-0.1529994,-38.73368,-26.64398,18.52523
43.161709309,8.96213800000002,8.49713400000001,1.600641,0.9571564,-0.08301979,-0.1819258,-39.10928,-25.88234,18.50605
43.171597958,10.51634,7.90871000000001,1.539549,0.9810783,-0.06602574,-0.2146871,-39.10928,-25.88234,18.50605
43.181486607,13.37608,6.908388,1.417367,1.003016,-0.04677082,-0.2267825,-39.10928,-25.88234,18.50605
43.191375732,16.42232,6.49648999999998,0.806452599999999,1.010848,-0.02729391,-0.2259102,-39.10928,-25.88234,18.50605
43.203736305,17.91435,4.966586,0.4399042,0.9962176,-0.03230512,-0.204741,-39.10928,-25.88234,18.50605
43.213624954,15.92497,4.260476,0.806452599999999,0.9640824,-0.04006684,-0.1744403,-39.48624,-25.87681,18.49747
43.223514557,11.88404,4.554688,1.478458,0.9431839,-0.03885753,-0.1614853,-39.48624,-25.87681,18.49747
43.233403206,7.96744700000002,5.084271,1.600641,0.9271976,-0.03354857,-0.1668204,-39.48624,-25.87681,18.49747
43.243291855,4.610366,4.907743,0.989726799999999,0.9300926,-0.04787715,-0.1802105,-39.48624,-25.87681,18.49747
43.253180981,1.999303,3.789736,0.4399042,0.9382629,-0.0712669,-0.180083,-39.48624,-25.87681,18.49747
43.26306963,0.00992228700000002,1.906777,0.3788128,0.9523019,-0.09395317,-0.1972656,-39.12509,-26.62295,19.35974
43.272958279,-0.860432000000003,-0.741135099999998,0.623178399999998,0.9654734,-0.08494283,-0.2117238,-39.12509,-26.62295,19.35974
43.282846928,-1.730786,-2.918307,1.050818,0.9859297,-0.06801189,-0.2165953,-39.12509,-26.62295,19.35974
43.292736054,-1.295609,-3.683259,1.11191,1.001972,-0.05576199,-0.2094251,-39.12509,-26.62295,19.35974
43.302624703,-0.736095699999999,-3.800944,0.989726799999999,1.003889,-0.05560761,-0.1988434,-39.12509,-26.62295,19.35974
43.312513352,-0.3630867,-3.330204,0.3788128,0.9911892,-0.06851449,-0.184365,-40.62447,-26.23113,18.86615
43.322402001,-0.984768300000001,-2.212197,0.1955387,0.9682533,-0.09157678,-0.1664805,-40.62447,-26.23113,18.86615
43.332291126,-3.098486,-0.682292600000002,0.0733558600000001,0.9556103,-0.09887042,-0.1674199,-40.62447,-26.23113,18.86615
43.342179775,-5.89605299999999,-0.4469227,-0.2321011,0.9522018,-0.1117329,-0.1813055,-40.62447,-26.23113,18.86615
43.352068424,-8.63145299999999,-0.917662500000002,-0.5375581,0.9604161,-0.1274394,-0.1884306,-40.62447,-26.23113,18.86615
43.36195755,-10.4965,-2.565252,-0.720832200000002,0.9677151,-0.1315507,-0.2018673,-39.10025,-25.19759,18.04235
43.371846199,-11.11818,-4.271684,-0.904106400000002,0.9721351,-0.1264115,-0.2158349,-39.10025,-25.19759,18.04235
43.381734848,-9.43963799999997,-5.683904,-1.087381,0.9760634,-0.1177476,-0.2221262,-39.10025,-25.19759,18.04235
43.391623497,-6.02038900000001,-6.44885599999998,-0.965197799999999,0.9862845,-0.1099838,-0.2226348,-39.10025,-25.19759,18.04235
43.4015131,-1.855123,-6.27232800000001,-0.4764667,0.9994166,-0.1042095,-0.2255345,-39.10025,-25.19759,18.04235
43.411401749,1.128949,-5.86043100000001,0.01226447,1.00767,-0.09975693,-0.2197766,-39.86987,-25.86413,18.878
43.421290398,1.377622,-5.036636,0.562087,1.009089,-0.09803288,-0.2019896,-39.86987,-25.86413,18.878
43.433651447,-0.798263799999999,-2.447567,0.6842698,1.003261,-0.08854643,-0.1871356,-39.86987,-25.86413,18.878
43.443540096,-2.60114,-0.2703952,0.3177214,1.000766,-0.09955443,-0.1745789,-39.86987,-25.86413,18.878
43.453428745,-3.347158,1.200667,-0.1710097,0.999757,-0.1067776,-0.1692534,-39.86987,-25.86413,18.878
43.463317871,-3.098486,2.495202,-0.04882693,1.011796,-0.1246101,-0.1552029,-39.10928,-25.88234,18.50605
43.47320652,-2.352468,3.672051,0.01226447,1.019933,-0.1592356,-0.1574233,-39.10928,-25.88234,18.50605
43.483095169,-1.60645,5.143113,0.3788128,1.012611,-0.1743884,-0.1621642,-39.10928,-25.88234,18.50605
43.492984295,-0.736095699999999,5.73153800000001,0.5009956,0.9932336,-0.16961,-0.170867,-39.10928,-25.88234,18.50605
43.502872944,0.0720904500000002,5.201956,0.562087,0.9714459,-0.1589619,-0.1781594,-39.10928,-25.88234,18.50605
43.512761593,-0.1765822,4.142791,0.3177214,0.9501697,-0.1444983,-0.1907606,-39.11526,-25.49712,18.88986
43.522650242,-1.046937,2.612886,0.3788128,0.9565518,-0.1280481,-0.1970885,-39.11526,-25.49712,18.88986
43.532539845,-1.544282,2.377517,0.623178399999998,0.9711493,-0.1183523,-0.1980827,-39.11526,-25.49712,18.88986
43.542428494,-1.109105,2.377517,0.6842698,0.9867131,-0.115598,-0.2072164,-39.11526,-25.49712,18.88986
43.552316666,0.1964268,3.672051,0.6842698,0.9998379,-0.1102746,-0.2077093,-39.11526,-25.49712,18.88986
43.562205315,1.128949,4.731216,1.050818,0.9998871,-0.100135,-0.2135316,-39.85542,-25.87964,18.03492
43.572094917,1.501958,6.02575100000001,0.806452599999999,0.989276,-0.0781438,-0.2098074,-39.85542,-25.87964,18.03492
43.581983566,1.501958,5.90806599999998,0.4399042,0.9810804,-0.06205825,-0.209898,-39.85542,-25.87964,18.03492
43.591872215,1.315454,4.613531,-0.4153753,0.9738171,-0.05369385,-0.2051393,-39.85542,-25.87964,18.03492
43.601761341,1.128949,3.436681,-0.843015,0.9684314,-0.05836579,-0.1926179,-39.85542,-25.87964,18.03492
43.61164999,0.5072676,2.318674,-0.965197799999999,0.9533854,-0.05883739,-0.1935944,-39.47789,-25.57012,18.03908
43.621538639,-0.1765822,1.436037,-1.148472,0.9485024,-0.07058643,-0.1983498,-39.47789,-25.57012,18.03908
43.631427288,-0.798263799999999,-0.5646076,-1.209563,0.9450682,-0.08278935,-0.2006967,-39.47789,-25.57012,18.03908
43.641316414,-1.171273,-2.153355,-1.392838,0.9542356,-0.09987947,-0.2025236,-39.47789,-25.57012,18.03908
43.653676987,-0.984768300000001,-2.918307,-0.965197799999999,0.9745684,-0.1125228,-0.1985892,-39.47914,-26.26323,18.0488
43.663566589,0.1964268,-3.212519,-0.4764667,0.9891387,-0.1116137,-0.2009818,-39.47914,-26.26323,18.0488
43.673454761,1.191117,-3.330204,-0.04882693,0.990572,-0.1104773,-0.1899248,-39.47914,-26.26323,18.0488
43.68334341,0.5694358,-2.859464,0.1955387,0.9891443,-0.09124613,-0.1741532,-39.47914,-26.26323,18.0488
43.693232059,-1.979459,-2.212197,-0.1710097,0.9882122,-0.07307615,-0.1641467,-39.47914,-26.26323,18.0488
43.703121662,-4.590521,-1.506087,-0.904106400000002,0.9804534,-0.06862795,-0.1608116,-39.48567,-25.56177,18.49305
43.713010311,-6.08255700000002,-1.035347,-1.759386,0.9804393,-0.07003125,-0.1569571,-39.48567,-25.56177,18.49305
43.72289896,-6.08255700000002,-0.6234501,-2.187026,0.9779916,-0.08034583,-0.1631597,-39.48567,-25.56177,18.49305
43.732788086,-4.901362,-1.153032,-2.187026,0.9842821,-0.09367128,-0.1741464,-39.48567,-25.56177,18.49305
43.742676735,-3.036318,-2.094512,-2.125934,0.9900922,-0.1065304,-0.1865788,-39.48567,-25.56177,18.49305
43.752565384,-0.922600200000001,-3.506732,-1.820477,0.9813459,-0.1109316,-0.1889711,-39.10996,-26.2604,18.51135
43.762454033,0.3829313,-4.153999,-1.453929,0.9770029,-0.1016278,-0.1861375,-39.10996,-26.2604,18.51135
43.772343159,0.7559403,-4.742424,-0.904106400000002,0.9794704,-0.0899459,-0.1861937,-39.10996,-26.2604,18.51135
43.782231808,0.1964268,-4.683581,-0.4764667,0.9901679,-0.08710286,-0.1900433,-39.10996,-26.2604,18.51135
43.792120457,-0.5495912,-3.918629,-0.2321011,0.9964923,-0.081236,-0.1876612,-39.10996,-26.2604,18.51135
43.802009582,-1.855123,-2.447567,-0.3542839,0.9911508,-0.07922012,-0.1838301,-39.48624,-25.87681,18.49747
43.811898231,-3.160654,-1.388402,-0.659740900000002,0.9852847,-0.09387455,-0.1876101,-39.48624,-25.87681,18.49747
43.82178688,-4.031008,-1.211875,-0.598649399999998,0.9857464,-0.1006928,-0.1875751,-39.48624,-25.87681,18.49747
43.831675529,-4.714858,-1.270717,-0.904106400000002,0.9876959,-0.1027379,-0.1938145,-39.48624,-25.87681,18.49747
43.841564655,-5.025699,-1.859142,-1.087381,0.980408,-0.1031745,-0.191416,-39.48624,-25.87681,18.49747
43.851453304,-4.093176,-2.329882,-1.576112,0.9789371,-0.1080555,-0.1923548,-39.48513,-25.87801,18.43261
43.861341953,-2.538972,-3.212519,-1.820477,0.9658254,-0.1149547,-0.1995487,-39.48513,-25.87801,18.43261
43.87370348,0.00992228700000002,-4.271684,-1.576112,0.9619519,-0.111524,-0.1986086,-39.48513,-25.87801,18.43261
43.883592129,1.626294,-5.036636,-1.637203,0.9537593,-0.09694965,-0.202058,-39.48513,-25.87801,18.43261
43.893480778,1.191117,-6.27232800000001,-1.392838,0.9548314,-0.07917905,-0.2184979,-39.48513,-25.87801,18.43261
43.903369904,-0.922600200000001,-7.68454900000002,-1.51502,0.9524744,-0.06070623,-0.2209985,-38.73232,-25.88787,18.51463
43.913258553,-3.96884,-8.62602799999997,-1.453929,0.9569248,-0.04381555,-0.2306973,-38.73232,-25.88787,18.51463
43.923147202,-6.952912,-9.214453,-1.759386,0.959375,-0.04247458,-0.238396,-38.73232,-25.88787,18.51463
43.933036327,-8.81795700000002,-9.80287800000002,-1.94266,0.9782432,-0.06053621,-0.2387642,-38.73232,-25.88787,18.51463
43.942924976,-9.68831099999998,-9.15561100000003,-2.187026,0.9908194,-0.06874575,-0.2324564,-38.73232,-25.88787,18.51463
43.952813625,-9.62614300000003,-8.44950099999998,-2.187026,0.9927513,-0.07018165,-0.2305233,-39.87123,-26.62025,18.88861
43.962702274,-9.93698300000002,-7.56686399999999,-2.003752,0.9868695,-0.07528205,-0.2141529,-39.87123,-26.62025,18.88861
43.9725914,-10.93167,-6.91959600000003,-2.187026,0.9771691,-0.06883907,-0.2079445,-39.87123,-26.62025,18.88861
43.982480049,-11.55336,-6.50769899999997,-2.675757,0.9761334,-0.08285792,-0.2011419,-39.87123,-26.62025,18.88861
43.992368698,-11.49119,-6.390014,-2.920122,0.9794972,-0.09160811,-0.1996511,-39.87123,-26.62025,18.88861
44.002257347,-9.93698300000002,-6.44885599999998,-3.103397,0.9760743,-0.101892,-0.2039313,-39.11064,-26.63846,18.51665
44.012146473,-7.45025699999999,-6.331171,-3.103397,0.9804145,-0.1116755,-0.2062816,-39.11064,-26.63846,18.51665
44.022035122,-5.212203,-6.68422599999997,-2.981214,0.9871771,-0.1214351,-0.2067055,-39.11064,-26.63846,18.51665
44.031923771,-4.031008,-6.860754,-2.553574,0.986676,-0.1312881,-0.214351,-39.11064,-26.63846,18.51665
44.041813374,-4.466185,-6.743068,-2.309208,0.9891277,-0.1214964,-0.2105503,-39.11064,-26.63846,18.51665
44.051702023,-6.144726,-5.91927400000001,-2.187026,0.980943,-0.1079679,-0.2188036,-38.37049,-26.25594,19.3716
44.061590672,-8.38277900000002,-4.801267,-2.248117,0.9814457,-0.1006143,-0.2154738,-38.37049,-26.25594,19.3716
44.071478844,-9.75047899999999,-3.977472,-1.94266,0.9882558,-0.09873029,-0.218842,-38.37049,-26.25594,19.3716
44.081368446,-9.99915100000003,-2.800622,-1.637203,1.000869,-0.1012044,-0.219777,-38.37049,-26.25594,19.3716
44.093729019,-9.31530200000001,-2.094512,-1.270655,0.9945301,-0.1109596,-0.2216586,-38.37049,-26.25594,19.3716
44.103618145,-8.13410699999998,-1.917985,-1.148472,0.9819289,-0.1055782,-0.2217001,-38.74882,-27.00653,19.37362
44.113506794,-7.20158399999998,-2.447567,-0.965197799999999,0.9771196,-0.08743654,-0.2141025,-38.74882,-27.00653,19.37362
44.123395443,-6.33123000000002,-2.977149,-0.720832200000002,0.978614,-0.0727519,-0.2088849,-38.74882,-27.00653,19.37362
44.133284092,-5.709548,-2.918307,-0.659740900000002,0.9926879,-0.06530292,-0.1973644,-38.74882,-27.00653,19.37362
44.143173218,-5.585212,-2.212197,-0.598649399999998,1.004819,-0.05485649,-0.1810521,-38.74882,-27.00653,19.37362
44.153061867,-6.02038900000001,-0.6234501,-0.843015,1.011555,-0.06594025,-0.1723319,-37.97976,-26.65504,18.54239
44.162950516,-6.45556599999999,1.318352,-0.598649399999998,1.011988,-0.07705469,-0.1665042,-37.97976,-26.65504,18.54239
44.172840118,-7.63676199999999,2.907099,-0.04882693,1.00563,-0.09564688,-0.1731503,-37.97976,-26.65504,18.54239
44.182728767,-9.066629,3.436681,0.562087,0.9920257,-0.1044929,-0.1803349,-37.97976,-26.65504,18.54239
44.19261694,-11.05601,2.965941,0.01226447,0.9818866,-0.09535745,-0.1895301,-37.97976,-26.65504,18.54239
44.202505589,-13.4184,1.789092,-0.3542839,0.9712801,-0.08036325,-0.1977936,-38.73505,-27.4001,18.53584
44.212395191,-15.28345,0.0826596800000002,-0.904106400000002,0.9684548,-0.06199735,-0.207508,-38.73505,-27.4001,18.53584
44.22228384,-16.46464,-1.388402,-1.453929,0.9685068,-0.05038255,-0.2123759,-38.73505,-27.4001,18.53584
44.232172489,-16.77548,-2.153355,-1.453929,0.9767776,-0.04853017,-0.217666,-38.73505,-27.4001,18.53584
44.242061615,-16.3403,-1.035347,-1.026289,0.9874378,-0.05540449,-0.2200237,-38.73505,-27.4001,18.53584
44.251950264,-15.03477,0.4945571,-0.4764667,0.9922901,-0.0628693,-0.2300798,-38.73505,-27.4001,18.53584
44.261838913,-13.48057,1.612564,-0.1099183,0.992231,-0.08190338,-0.2328692,-38.73505,-27.4001,18.53584
44.271727562,-13.4184,1.965619,0.25663,0.990769,-0.07887813,-0.2261533,-38.73505,-27.4001,18.53584
44.281616688,-14.41309,1.906777,0.0733558600000001,0.9835542,-0.07131711,-0.242551,-38.73505,-27.4001,18.53584
44.291505337,-14.7861,0.729926999999997,-0.1710097,0.9705158,-0.05877444,-0.2522477,-38.73505,-27.4001,18.53584
44.301393986,-14.9726,-0.741135099999998,-1.453929,0.9564618,-0.04843444,-0.2465448,-39.0985,-28.54546,17.63523
44.311283112,-16.02946,-2.447567,-3.103397,0.9578692,-0.05609183,-0.237367,-39.0985,-28.54546,17.63523
44.323643684,-19.0757,-4.330527,-4.936138,0.9680154,-0.07024781,-0.2382458,-39.0985,-28.54546,17.63523
44.333532333,-21.6246,-5.389691,-5.91360000000002,0.9709004,-0.07505831,-0.2338899,-39.0985,-28.54546,17.63523
44.343421936,-22.74363,-6.15464400000001,-6.09687499999998,0.9839926,-0.06007307,-0.2070192,-39.10559,-28.15905,18.0839
44.353310585,-23.98699,-4.212842,-6.03578300000001,1.014596,-0.02446203,-0.166286,-39.10559,-28.15905,18.0839
44.363199234,-26.59805,0.847612000000001,-6.891063,1.048539,-0.01286913,-0.1355271,-39.10559,-28.15905,18.0839
44.37308836,-31.385,6.02575100000001,-7.92961600000002,1.053769,-0.01418741,-0.0927125,-39.10559,-28.15905,18.0839
44.382977009,-35.98544,10.67431,-7.37979399999998,1.076422,-0.02764916,-0.04548846,-39.10559,-28.15905,18.0839
44.392865658,-39.28036,16.79392,-4.386316,1.116045,-0.06641747,-0.02745342,-38.33013,-28.57203,16.80931
44.402754307,-42.26443,24.03155,-3.347762,1.119202,-0.1251218,-0.01224462,-38.33013,-28.57203,16.80931
44.412643433,-44.93766,28.50358,-1.637203,1.091845,-0.1732183,-0.00818531,-38.33013,-28.57203,16.80931
44.422532082,-43.32129,32.62255,1.356275,1.056734,-0.2218799,-0.01038393,-38.33013,-28.57203,16.80931
44.432420731,-36.91796,35.91773,3.677748,1.014051,-0.2607986,-0.07852659,-38.33013,-28.57203,16.80931
44.442309857,-27.65491,34.85857,4.044297,0.9724087,-0.2842375,-0.1534792,-38.30012,-28.60425,15.05828
44.452198506,-19.0757,32.79908,5.571581,0.9068704,-0.2666118,-0.1233447,-38.30012,-28.60425,15.05828
44.462087154,-16.27814,31.50455,8.38178500000001,0.8469092,-0.1962575,-0.1160737,-38.30012,-28.60425,15.05828
44.471975803,-16.89982,30.21001,10.21453,0.8270003,-0.09174146,-0.1637548,-38.30012,-28.60425,15.05828
44.481864929,-16.71331,29.9158,9.54252199999998,0.8566277,0.01299826,-0.2224418,-38.30012,-28.60425,15.05828
44.491753578,-9.066629,28.62126,7.46541499999997,0.9192601,0.09876606,-0.307927,-39.01929,-29.70374,12.91601
44.501642227,2.558817,25.38493,1.845006,0.9738837,0.1243764,-0.3791707,-39.01929,-29.70374,12.91601
44.51153183,9.89465999999999,20.32447,-2.553574,0.99498,0.06277956,-0.3595986,-39.01929,-29.70374,12.91601
44.521420479,11.88404,17.67656,-2.614666,0.9878012,-0.009429181,-0.3044168,-39.01929,-29.70374,12.91601
44.531309128,10.64068,15.26402,-0.1099183,0.9793679,-0.03364307,-0.2639067,-39.01929,-29.70374,12.91601
44.543670177,5.16988,12.73379,2.02828,0.9729069,-0.04362426,-0.2157715,-39.01026,-29.01899,12.45231
44.553558826,-4.963531,9.96819699999999,1.295184,0.9514147,-0.07258312,-0.2012219,-39.01026,-29.01899,12.45231
44.563447475,-14.53743,9.32093,-0.4764667,0.9206782,-0.1173074,-0.2000691,-39.01026,-29.01899,12.45231
44.573336601,-15.78079,9.026717,-2.248117,0.8687695,-0.1303113,-0.2298795,-39.01026,-29.01899,12.45231
44.58322525,-10.43433,2.495202,-2.492483,0.8767187,-0.1090901,-0.2751842,-39.01026,-29.01899,12.45231
44.593113899,-3.28499,-5.507376,-1.576112,0.9588997,-0.05597357,-0.2618935,-39.74195,-29.0318,11.1381
44.603002548,-1.109105,-7.56686399999999,-0.2931925,1.032747,-0.006799001,-0.2202178,-39.74195,-29.0318,11.1381
44.612891674,-6.57990299999997,-3.859787,-1.94266,1.050363,0.03257321,-0.2228013,-39.74195,-29.0318,11.1381
44.622780323,-11.73986,-1.447245,-6.34123999999999,1.00917,0.03722934,-0.2425895,-39.74195,-29.0318,11.1381
44.632668972,-11.42902,-4.095157,-10.55655,0.9552665,0.0185945,-0.258427,-39.74195,-29.0318,11.1381
44.642558575,-7.63676199999999,-10.45015,-13.36675,0.9382506,0.01233372,-0.2560101,-39.74252,-29.34685,11.14252
44.652447224,-4.528353,-17.80546,-12.93911,0.9298996,-0.003940078,-0.2381433,-39.74252,-29.34685,11.14252
44.662335396,-3.96884,-22.39517,-9.82344899999998,0.9321377,-0.02813192,-0.1947356,-39.74252,-29.34685,11.14252
44.672224998,-2.725477,-25.33729,-5.547052,0.9155304,-0.05281853,-0.186935,-39.74252,-29.34685,11.14252
44.682113647,0.4450994,-28.92669,-2.553574,0.9232458,-0.05500252,-0.1691211,-39.74252,-29.34685,11.14252
44.692002296,5.107712,-32.6926,-2.064843,0.9329678,-0.04416503,-0.1595464,-39.74919,-29.33969,11.53163
44.701890945,8.27828799999998,-37.34116,-3.103397,0.9281515,-0.02199832,-0.1433126,-39.74919,-29.33969,11.53163
44.711780071,9.21081099999998,-42.63698,-4.508498,0.9238499,0.00694873,-0.129517,-39.74919,-29.33969,11.53163
44.72166872,8.15395200000002,-48.10933,-5.91360000000002,0.9253798,0.03185925,-0.124351,-39.74919,-29.33969,11.53163
44.731557369,5.294216,-52.75789,-6.95215400000001,0.9366408,0.06555878,-0.1163329,-39.74919,-29.33969,11.53163
44.741446495,2.185808,-55.8177,-8.54052999999998,0.95274,0.08740377,-0.1188296,-39.01861,-29.32568,12.9107
44.751335144,-1.979459,-56.64149,-9.94563200000002,0.9658064,0.08662693,-0.1039022,-39.01861,-29.32568,12.9107
44.763695717,-7.32592100000003,-55.28812,-10.61764,0.986598,0.06867653,-0.09657407,-39.01861,-29.32568,12.9107
44.773584843,-10.30999,-53.81705,-10.25109,1.000566,0.03648865,-0.09783829,-39.01861,-29.32568,12.9107
44.783473492,-11.80203,-52.75789,-9.39580999999998,0.9989393,-0.003738078,-0.08513291,-39.01861,-29.32568,12.9107
44.793362141,-13.72924,-50.81609,-7.990708,1.010848,-0.04164833,-0.04597319,-37.92509,-29.68094,15.08189
44.803251743,-16.02946,-46.75595,-6.58560600000002,1.021731,-0.09165123,-0.0014634,-37.92509,-29.68094,15.08189
44.813140392,-18.14318,-41.10708,-5.424869,1.029877,-0.1138945,0.01020037,-37.92509,-29.68094,15.08189
44.823029041,-18.39185,-35.98778,-4.325224,1.026424,-0.1384221,-0.002183557,-37.92509,-29.68094,15.08189
44.83291769,-17.64584,-31.22154,-2.492483,1.012849,-0.1424706,-0.01420156,-37.92509,-29.68094,15.08189
44.842806816,-16.65115,-27.51447,-1.576112,1.006646,-0.1351704,-0.04790998,-37.62746,-30.80421,15.94804
44.852695465,-14.35092,-24.69003,-1.270655,1.020946,-0.1286512,-0.131126,-37.62746,-30.80421,15.94804
44.862584114,-7.20158399999998,-22.68938,-1.392838,1.042609,-0.1077394,-0.2278722,-37.62746,-30.80421,15.94804
44.87247324,2.247976,-21.92443,-2.981214,1.081494,-0.07283298,-0.2005919,-37.62746,-30.80421,15.94804
44.882361889,8.402624,-22.68938,-6.58560600000002,1.123264,-0.06263924,-0.1972294,-37.62746,-30.80421,15.94804
44.892250538,11.5732,-26.21993,-14.03876,1.061858,-0.1072291,-0.1586002,-37.64302,-30.7875,16.85598
44.902139187,11.94621,-30.57427,-17.82642,1.001641,-0.1745172,-0.04194578,-37.64302,-30.7875,16.85598
44.912028313,12.19488,-29.69164,-13.85548,0.9828283,-0.2234065,0.04051738,-37.64302,-30.7875,16.85598
44.921916962,20.33891,-22.33633,-7.990708,1.006656,-0.2187566,0.02897887,-37.64302,-30.7875,16.85598
44.931805611,32.71038,-14.09838,-5.119412,1.01652,-0.2212579,-0.03928806,-37.64302,-30.7875,16.85598
44.941694736,44.89534,-9.50866599999999,-2.920122,1.001179,-0.2104898,-0.1028415,-37.28119,-31.15557,17.71295
44.951583385,52.85286,-9.09676800000003,-2.125934,0.9931182,-0.1773416,-0.134278,-37.28119,-31.15557,17.71295
44.961472034,56.83162,-10.21478,-1.392838,1.014174,-0.1372467,-0.1532126,-37.28119,-31.15557,17.71295
44.971361637,58.69667,-9.86171999999999,-1.209563,1.060858,-0.09210818,-0.1245324,-37.28119,-31.15557,17.71295
44.98372221,59.1940100000001,-6.09580100000001,-1.51502,1.097786,-0.05958951,-0.09435671,-36.5495,-31.14276,19.02716
44.993610859,58.6345000000003,-1.32956,-1.392838,1.065306,-0.05380414,-0.1025985,-36.5495,-31.14276,19.02716
45.003499985,56.89379,0.847612000000001,-0.781923700000001,1.013393,-0.06230324,-0.1242561,-36.5495,-31.14276,19.02716
45.013388634,53.47454,-0.4469227,1.050818,0.9721913,-0.07003652,-0.1584092,-36.5495,-31.14276,19.02716
45.023277283,48.56326,-4.742424,3.677748,0.9518849,-0.07796207,-0.202637,-36.5495,-31.14276,19.02716
45.033166409,42.2221,-10.97973,6.67122700000001,0.9602684,-0.07980808,-0.2598477,-36.58456,-29.58995,21.21095
45.043055058,35.69445,-17.51124,7.70977999999998,0.9809279,-0.04126866,-0.3177295,-36.58456,-29.58995,21.21095
45.052943707,30.78316,-22.27748,7.70977999999998,0.9986602,0.0147871,-0.3444433,-36.58456,-29.58995,21.21095
45.062832356,27.36391,-25.10192,7.40432299999999,1.070734,0.08878332,-0.3365596,-36.58456,-29.58995,21.21095
45.072721481,25.12586,-23.6897,6.36576900000001,1.160698,0.1522254,-0.3156174,-36.58456,-29.58995,21.21095
45.08261013,25.93405,-19.51189,4.960668,1.309303,0.1857614,-0.3002284,-36.97335,-28.11969,22.02512
45.092498779,29.85064,-12.27426,4.594119,1.468757,0.1341819,-0.2762213,-36.97335,-28.11969,22.02512
45.102388382,37.18649,-0.1527103,6.24358699999999,1.585793,0.03312508,-0.2447986,-36.97335,-28.11969,22.02512
45.112277031,45.64135,15.55823,8.80942499999997,1.599817,-0.0973746,-0.2094969,-36.97335,-28.11969,22.02512
45.122165203,50.86348,31.26918,8.38178500000001,1.472564,-0.2253957,-0.1575361,-36.97335,-28.11969,22.02512
45.132053852,54.90441,41.86082,6.121404,1.284742,-0.3270737,-0.1105865,-36.9949,-27.71776,23.31687
45.141943455,59.0696799999998,46.50938,4.899576,1.122164,-0.4288375,-0.0660124,-36.9949,-27.71776,23.31687
45.151832104,63.4214500000001,49.33382,10.09234,1.009098,-0.518775,-0.005571343,-36.9949,-27.71776,23.31687
45.161720753,62.6132599999997,56.86566,16.93458,0.9576642,-0.5799011,0.1009626,-36.9949,-27.71776,23.31687
45.171609879,52.10684,70.87017,27.25903,0.9198641,-0.6542684,0.1705481,-36.9949,-27.71776,23.31687
45.181498528,47.00905,83.2270900000001,39.29403,0.8843803,-0.7031397,0.1217007,-38.80679,-25.80791,22.85977
45.191387177,55.27742,92.8772600000001,51.69558,0.9048613,-0.7032828,0.08228923,-38.80679,-25.80791,22.85977
45.201276302,64.6648099999997,101.2329,58.5378200000002,0.9532079,-0.6246217,0.07329012,-38.80679,-25.80791,22.85977
45.213636875,71.93848,110.7065,58.1712699999999,1.003923,-0.4521226,0.02197938,-38.80679,-25.80791,22.85977
45.223525524,79.1499900000002,114.5313,55.66652,1.062858,-0.2734656,-0.007230765,-38.80679,-25.80791,22.85977
45.233415127,84.5586200000001,119.886,49.55738,1.153764,-0.1128817,-0.0358323,-41.01968,-23.9964,20.12368
45.243303299,92.7648200000002,124.358,42.22642,1.205807,0.1116068,-0.1600233,-41.01968,-23.9964,20.12368
45.253191948,104.5146,124.4757,32.32961,1.25421,0.2614913,-0.2910553,-41.01968,-23.9964,20.12368
45.263081551,113.7155,120.7686,26.46484,1.264389,0.3182085,-0.4048277,-41.01968,-23.9964,20.12368
45.2729702,111.5396,116.2966,19.43933,1.198056,0.3466671,-0.4319786,-41.01968,-23.9964,20.12368
45.282858849,93.9460100000001,114.4725,17.30113,1.174527,0.2994022,-0.404354,-44.65946,-19.5316,16.53935
45.292747498,61.8672400000002,116.2377,13.63565,1.134561,0.2776351,-0.3672585,-44.65946,-19.5316,16.53935
45.302636623,24.25551,116.5908,11.37526,1.066794,0.2313904,-0.3098722,-44.65946,-19.5316,16.53935
45.312525272,-11.24251,116.3554,9.29815699999998,1.007622,0.1302955,-0.2719168,-44.65946,-19.5316,16.53935
45.322413921,-42.07792,115.9435,11.19199,0.9519791,0.07413682,-0.224566,-44.65946,-19.5316,16.53935
45.332303047,-68.4372300000001,115.4728,11.37526,0.9124847,0.04747766,-0.188888,-47.52472,-16.61516,11.63148
45.342191696,-87.7715300000001,118.5914,12.65818,0.9243367,0.014403,-0.1194548,-47.52472,-16.61516,11.63148
45.352080345,-98.0914400000002,122.2397,13.63565,0.9587178,0.01086363,-0.09102348,-47.52472,-16.61516,11.63148
45.361968994,-98.0292699999999,121.2982,8.9927,0.9659582,0.01806923,-0.06412008,-47.52472,-16.61516,11.63148
45.37185812,-93.24232,121.7689,7.34323199999999,1.007881,-0.03632004,-0.01570546,-47.52472,-16.61516,11.63148
45.381746769,-82.6115699999999,118.5326,3.127926,1.021736,-0.08819946,0.001404689,-49.22571,-15.58195,4.634851
45.391635418,-69.9914299999997,116.1789,0.1955387,1.06354,-0.1995636,0.01740445,-49.22571,-15.58195,4.634851
45.401524544,-58.3038100000003,115.3551,0.6842698,1.053265,-0.251277,-0.02274327,-49.22571,-15.58195,4.634851
45.411413193,-48.85425,110.6477,0.01226447,1.017924,-0.2602474,-0.07371576,-49.22571,-15.58195,4.634851
45.421301842,-40.83456,102.6451,-1.51502,1.016988,-0.2564794,-0.08239245,-49.22571,-15.58195,4.634851
45.433663368,-37.78832,97.0550800000001,-2.79794,1.019692,-0.2074772,-0.1268817,-50.24655,-15.68351,-1.811317
45.443552017,-39.52903,92.2299899999997,-6.402331,1.032451,-0.187976,-0.1563019,-50.24655,-15.68351,-1.811317
45.453440666,-40.64806,87.9344900000001,-9.33471900000003,1.047071,-0.1794195,-0.1683516,-50.24655,-15.68351,-1.811317
45.463329792,-42.45093,84.6981499999997,-10.80091,1.045152,-0.1711016,-0.1659912,-50.24655,-15.68351,-1.811317
45.473218441,-41.51841,81.2264500000001,-11.77837,1.026193,-0.1818274,-0.169325,-50.24655,-15.68351,-1.811317
45.48310709,-38.09916,76.3425199999999,-12.57256,0.9717469,-0.1966139,-0.1558464,-50.88696,-15.09988,-8.388335
45.492996216,-33.43655,69.3991099999999,-13.18348,0.9003175,-0.2128925,-0.1467079,-50.88696,-15.09988,-8.388335
45.502884865,-26.90889,61.9261100000003,-13.18348,0.8079723,-0.2383027,-0.1322568,-50.88696,-15.09988,-8.388335
45.512773514,-19.44871,51.56984,-14.52749,0.7191716,-0.2318041,-0.1328716,-50.88696,-15.09988,-8.388335
45.52266264,-11.8642,40.8605,-16.91005,0.6589271,-0.2353002,-0.1141665,-50.88696,-15.09988,-8.388335
45.532551289,-2.849813,29.62159,-18.74279,0.613785,-0.2411695,-0.1218829,-50.43348,-14.05118,-12.74081
45.542439938,4.548198,18.26499,-21.36972,0.5798689,-0.22108,-0.1181756,-50.43348,-14.05118,-12.74081
45.552328586,9.64598800000001,6.437648,-22.28609,0.5803691,-0.2027618,-0.0980689,-50.43348,-14.05118,-12.74081
45.562218189,11.44886,-5.330849,-23.38574,0.5814053,-0.1698363,-0.07803542,-50.43348,-14.05118,-12.74081
45.572106838,10.2055,-16.09902,-24.24102,0.583387,-0.1606385,-0.08144609,-50.43348,-14.05118,-12.74081
45.58199501,6.288907,-26.4553,-26.13485,0.5576585,-0.1555887,-0.07284428,-49.28242,-15.2258,-13.99621
45.591884613,1.688463,-37.04695,-25.89049,0.555251,-0.1771052,-0.1116929,-49.28242,-15.2258,-13.99621
45.601773262,-3.533663,-46.28522,-26.5014,0.498059,-0.1536257,-0.1123575,-49.28242,-15.2258,-13.99621
45.611661911,-8.00976999999999,-53.99358,-28.45633,0.5018677,-0.196458,-0.1429157,-49.28242,-15.2258,-13.99621
45.62155056,-9.19096599999999,-61.7019500000003,-29.61706,0.5033743,-0.2057365,-0.1770125,-49.28242,-15.2258,-13.99621
45.631439686,-8.258443,-70.1164199999998,-30.41125,0.5034109,-0.212935,-0.2024649,-49.68354,-16.26758,-12.69271
45.641328335,1.253286,-87.0630599999998,-25.7683,0.5732864,-0.3611706,-0.2059646,-49.68354,-16.26758,-12.69271
45.653689384,14.05993,-108.011,-22.40828,0.6448023,-0.3672555,-0.08225585,-49.68354,-16.26758,-12.69271
45.663578033,25.87188,-120.1914,-18.62061,0.7542182,-0.3258987,0.09271485,-49.68354,-16.26758,-12.69271
45.673466682,37.37299,-124.8988,-26.13485,0.9866841,-0.2872788,0.3616188,-49.73715,-16.96761,-9.634016
45.683356285,54.28273,-115.837,-36.27602,1.331801,-0.3028265,0.7357655,-49.73715,-16.96761,-9.634016
45.693244934,77.2849400000002,-79.3546900000001,-44.34009,1.721774,-0.3614544,1.165968,-49.73715,-16.96761,-9.634016
45.703133106,89.15907,-32.04533,-41.59098,2.023458,-0.5420604,1.601495,-49.73715,-16.96761,-9.634016
45.713021755,57.8884800000002,20.38332,-16.36023,2.07463,-0.6040195,1.828861,-49.73715,-16.96761,-9.634016
45.722911358,16.36015,60.1019900000002,6.48795199999999,1.600682,-0.4382092,1.553359,-50.57537,-18.00243,-4.836156
45.732800007,-6.89074399999999,72.3412300000002,13.57455,1.056651,-0.2606872,1.172397,-50.57537,-18.00243,-4.836156
45.742688656,-21.99761,56.57145,7.46541499999997,0.6971916,-0.05697779,0.7761226,-50.57537,-18.00243,-4.836156
45.752577782,-28.21442,25.09072,-6.82997100000002,0.5955093,0.06491983,0.4469219,-50.57537,-18.00243,-4.836156
45.762466431,-26.41155,-2.918307,-19.65916,0.7346196,0.008555016,0.245859,-50.57537,-18.00243,-4.836156
45.77235508,-23.24097,-16.80513,-22.71373,0.919063,-0.06397014,0.1425563,-51.60757,-19.09851,-7.050433
45.782243729,-21.50026,-18.39388,-21.06427,1.022448,-0.1204076,0.06216431,-51.60757,-19.09851,-7.050433
45.792132854,-18.64053,-15.39291,-15.93259,1.007483,-0.1328341,0.01075154,-51.60757,-19.09851,-7.050433
45.802021503,-22.93013,-13.45111,-10.55655,0.9365815,-0.05839579,-0.0685763,-51.60757,-19.09851,-7.050433
45.811910152,-34.18257,-15.27523,-8.54052999999998,0.8482156,0.0960605,-0.2377796,-51.60757,-19.09851,-7.050433
45.821799278,-43.07261,-27.80868,-14.58858,0.8908377,0.2551366,-0.3736739,-51.6009,-19.10567,-7.43955
45.831687927,-39.52903,-45.10837,-18.6817,1.139733,0.2533008,-0.3329842,-51.6009,-19.10567,-7.43955
45.841576576,-29.76863,-52.58136,-14.4053,1.500473,0.169971,-0.0931352,-51.6009,-19.10567,-7.43955
45.851466179,-28.96044,-41.16592,-4.813955,1.829271,0.005579554,0.1927747,-51.6009,-19.10567,-7.43955
45.861354351,-46.4297,-14.27491,11.43636,1.857741,-0.1530005,0.4364735,-51.6009,-19.10567,-7.43955
45.873715401,-84.7874500000002,31.68107,24.20446,1.420498,-0.2839437,0.4145157,-51.99105,-18.39153,-6.614767
45.883604526,-111.9549,43.68494,17.91204,0.9515507,-0.346823,0.1526791,-51.99105,-18.39153,-6.614767
45.893493175,-127.3726,34.15246,5.693764,0.5153,-0.4088902,-0.1807815,-51.99105,-18.39153,-6.614767
45.903381824,-125.2589,2.965941,-6.21905800000003,0.1558602,-0.410668,-0.4779095,-51.99105,-18.39153,-6.614767
45.91327095,-90.5069299999999,-41.10708,-17.82642,-0.006872428,-0.4300757,-0.8531149,-51.99105,-18.39153,-6.614767
45.923159599,-23.30314,-90.4170799999997,-30.16689,0.1131013,-0.3881375,-1.028727,-51.57673,-18.05837,-8.751635
45.933048248,44.08715,-124.9576,-41.71316,0.5880392,-0.3407505,-0.8576991,-51.57673,-18.05837,-8.751635
45.942937374,86.0506500000001,-125.2518,-42.32407,1.019072,-0.2416215,-0.5215461,-51.57673,-18.05837,-8.751635
45.952826023,103.3334,-102.9505,-37.62003,1.227631,-0.1156628,-0.2771567,-51.57673,-18.05837,-8.751635
45.962714672,102.7117,-79.9431200000001,-28.27305,1.305213,-0.003355003,-0.08382476,-51.57673,-18.05837,-8.751635
45.972603321,85.42897,-60.7604700000001,-20.45335,1.276619,0.09296717,0.03588624,-52.00209,-16.48572,-5.798201
45.982492447,58.2614899999999,-50.81609,-12.38929,1.194355,0.1890896,0.06993328,-52.00209,-16.48572,-5.798201
45.992381096,29.16679,-48.46239,-9.70126700000002,1.10486,0.2525609,0.03632723,-52.00209,-16.48572,-5.798201
46.002269745,4.361694,-51.40451,-9.151444,1.007837,0.2404834,-0.002676661,-52.00209,-16.48572,-5.798201
46.012159348,-14.16442,-59.0540399999999,-9.51799300000002,0.9360548,0.2044577,-0.07663807,-52.00209,-16.48572,-5.798201
46.022047997,-25.10601,-68.5276699999999,-9.39580999999998,0.9107701,0.1560245,-0.1273997,-52.45084,-18.61274,-1.819819
46.031936646,-31.82018,-75.0003500000001,-10.73982,0.9291008,0.1159002,-0.1377563,-52.45084,-18.61274,-1.819819
46.041825771,-36.10978,-75.52993,-12.75584,0.9589917,0.07432286,-0.1134662,-52.45084,-18.61274,-1.819819
46.05171442,-36.66929,-72.2347499999998,-17.88751,0.9845489,0.03402803,-0.1016914,-52.45084,-18.61274,-1.819819
46.061603069,-31.5715,-67.64503,-23.26356,1.011044,-0.01750444,-0.09226339,-52.45084,-18.61274,-1.819819
46.071491718,-22.24628,-63.5849100000001,-27.53996,1.043349,-0.07493494,-0.08568448,-52.50197,-18.55785,1.16341
46.081380844,-10.06132,-61.6431000000002,-29.25051,1.048439,-0.1390571,-0.07429348,-52.50197,-18.55785,1.16341
46.091269493,0.3829313,-59.1717200000001,-28.15087,1.03321,-0.1742005,-0.0491253,-52.50197,-18.55785,1.16341
46.103630543,9.45948300000001,-54.28779,-23.63011,1.018453,-0.2147372,-0.02633395,-52.50197,-18.55785,1.16341
46.113519192,15.8628,-47.69744,-18.55952,1.01945,-0.2104286,-0.0311638,-52.50197,-18.55785,1.16341
46.123407841,21.08493,-40.69518,-14.58858,1.049705,-0.1771692,-0.05005339,-52.16373,-19.65818,3.328045
46.133297443,21.70661,-34.22251,-13.42784,1.055194,-0.1462812,-0.06799731,-52.16373,-19.65818,3.328045
46.143186092,19.15772,-29.92701,-14.09985,1.031983,-0.1238931,-0.07198422,-52.16373,-19.65818,3.328045
46.153074741,14.93028,-28.69131,-14.95513,1.002988,-0.1002557,-0.09089255,-52.16373,-19.65818,3.328045
46.162962914,10.51634,-28.98553,-15.07731,0.9826462,-0.09850492,-0.1067949,-52.16373,-19.65818,3.328045
46.172852516,7.656606,-30.28006,-14.4053,0.9677797,-0.08717171,-0.1650605,-51.50402,-20.39221,5.105409
46.182741165,7.843111,-32.81029,-13.79439,0.9631225,-0.06003902,-0.207524,-51.50402,-20.39221,5.105409
46.192629814,11.5732,-33.9283,-13.42784,0.9807285,-0.03602825,-0.227824,-51.50402,-20.39221,5.105409
46.20251894,17.41701,-33.16334,-14.09985,0.9930033,-0.01305275,-0.2529341,-51.50402,-20.39221,5.105409
46.212407589,23.07431,-33.04566,-16.72678,0.9629933,-0.00107851,-0.2703418,-51.50402,-20.39221,5.105409
46.222296238,27.55042,-35.51704,-17.58206,0.9270511,-0.006327993,-0.2679516,-50.77369,-21.13551,6.430233
46.232185364,28.85595,-37.75306,-16.05477,0.8950001,0.00179974,-0.2497541,-50.77369,-21.13551,6.430233
46.242074013,26.18272,-38.40032,-14.16094,0.8848506,0.0159773,-0.2474327,-50.77369,-21.13551,6.430233
46.251962662,21.39577,-38.81222,-13.42784,0.8960142,-0.0004663973,-0.270902,-50.77369,-21.13551,6.430233
46.261851311,17.044,-37.98843,-13.36675,0.923215,-0.01159252,-0.2948609,-50.77369,-21.13551,6.430233
46.271740437,16.04931,-36.22315,-13.79439,0.9475297,-0.02486923,-0.332759,-50.80969,-20.71807,8.565072
46.281629086,20.64975,-36.04662,-14.58858,0.9747525,-0.03165599,-0.3596253,-50.80969,-20.71807,8.565072
46.291517735,27.30175,-37.75306,-15.32168,0.9931211,-0.03171192,-0.3283442,-50.80969,-20.71807,8.565072
46.301407337,31.71568,-40.93055,-16.5435,1.00365,-0.04820802,-0.2902561,-50.80969,-20.71807,8.565072
46.311295986,34.45108,-45.57911,-18.74279,0.9811484,-0.06796122,-0.2464181,-50.80969,-20.71807,8.565072
46.323657036,35.25927,-49.99229,-19.65916,0.9455295,-0.07567101,-0.1805334,-50.84038,-21.06391,10.3214
46.333545685,33.26989,-49.93345,-17.82642,0.9264967,-0.07548049,-0.1377541,-50.84038,-21.06391,10.3214
46.343434334,29.35329,-47.75628,-16.05477,0.9338853,-0.05079723,-0.1470079,-50.84038,-21.06391,10.3214
46.353322983,25.12586,-46.46174,-15.93259,0.9524586,-0.04517938,-0.1922217,-50.84038,-21.06391,10.3214
46.363212109,23.07431,-45.75563,-16.48241,0.9796422,-0.05122028,-0.2017787,-50.84038,-21.06391,10.3214
46.373100758,23.8825,-45.16721,-15.81041,0.9966372,-0.05428341,-0.2089577,-50.13092,-21.02723,12.93267
46.382989407,29.72631,-42.69582,-15.01622,1.000037,-0.0657488,-0.2262091,-50.13092,-21.02723,12.93267
46.392878533,38.05684,-39.57717,-14.03876,1.004926,-0.0555325,-0.2262552,-50.13092,-21.02723,12.93267
46.402767181,44.5845,-35.51704,-13.30566,1.015166,-0.03643946,-0.2181643,-50.13092,-21.02723,12.93267
46.41265583,49.0606,-31.39807,-13.06129,1.025358,-0.03148226,-0.210964,-50.13092,-21.02723,12.93267
46.422545433,50.73914,-27.51447,-13.18348,1.057808,-0.03955853,-0.1930922,-49.03977,-22.0744,15.17844
46.432434082,51.29866,-23.80739,-13.97766,1.075635,-0.06015877,-0.1679599,-49.03977,-22.0744,15.17844
46.442322254,53.1637,-19.09999,-14.03876,1.061937,-0.07587753,-0.1462546,-49.03977,-22.0744,15.17844
46.452210903,56.08561,-15.86365,-13.42784,1.046507,-0.06454846,-0.1722991,-49.03977,-22.0744,15.17844
46.462100506,59.1940100000001,-14.21606,-12.69475,1.039805,-0.05218366,-0.1930489,-48.3841,-21.35205,17.32459
46.471989155,62.4267600000003,-13.50995,-12.08383,1.034065,-0.04822832,-0.2224116,-48.3841,-21.35205,17.32459
46.481877804,63.6079500000002,-13.03922,-12.20601,1.007942,-0.03977107,-0.2465301,-48.3841,-21.35205,17.32459
46.49176693,61.5564000000001,-12.98037,-12.14492,0.9886464,-0.01908884,-0.2663743,-48.3841,-21.35205,17.32459
46.501655579,56.14777,-13.68648,-11.47292,0.9810115,0.00995633,-0.2790337,-48.3841,-21.35205,17.32459
46.511544228,48.62543,-15.15754,-11.83947,0.9821292,0.04485637,-0.2897891,-47.65105,-20.58311,18.62819
46.521433354,40.29489,-17.39356,-13.42784,1.005448,0.06110252,-0.2749361,-47.65105,-20.58311,18.62819
46.531322003,33.6429,-16.45208,-15.26058,1.05766,0.04141735,-0.2165858,-47.65105,-20.58311,18.62819
46.543682575,31.15617,-10.62667,-16.17696,1.142319,-0.003252659,-0.1638434,-47.65105,-20.58311,18.62819
46.553572178,34.38892,-3.977472,-14.64967,1.271734,-0.05810432,-0.1672664,-47.65105,-20.58311,18.62819
46.56346035,42.34644,4.437004,-12.14492,1.400702,-0.1126982,-0.1860808,-48.0422,-19.80476,19.51695
46.573348999,53.28804,14.91096,-11.65619,1.451519,-0.1611361,-0.1944348,-48.0422,-19.80476,19.51695
46.583238602,66.9028599999998,27.73863,-12.69475,1.4221,-0.2398201,-0.1844522,-48.0422,-19.80476,19.51695
46.593127251,83.68826,43.03767,-13.18348,1.316844,-0.3350309,-0.1499453,-48.0422,-19.80476,19.51695
46.6030159,102.1522,56.68913,-13.97766,1.167917,-0.4401819,-0.1346748,-48.0422,-19.80476,19.51695
46.612905025,118.9376,66.28046,-12.69475,1.015191,-0.521472,-0.12001,-47.67327,-20.55925,19.92525
46.622793674,134.3553,71.63512,-8.78489600000001,0.9072347,-0.5791986,-0.1193601,-47.67327,-20.55925,19.92525
46.632682323,147.7215,75.7541000000002,-3.286671,0.84263,-0.6071219,-0.1390102,-47.67327,-20.55925,19.92525
46.642570972,159.6578,77.9312699999999,4.899576,0.8261278,-0.6250077,-0.1649083,-47.67327,-20.55925,19.92525
46.652460098,168.1126,83.1682499999998,14.6742,0.8851166,-0.6794254,-0.1486959,-47.67327,-20.55925,19.92525
46.662348747,164.8799,101.7036,29.21395,0.970085,-0.7289545,-0.03004241,-48.3465,-18.67434,19.03992
46.672237396,158.2901,123.1811,45.40317,0.9746413,-0.6943201,-0.05810568,-48.3465,-18.67434,19.03992
46.682126522,166.2476,135.95,54.99452,0.9472341,-0.5934697,-0.2216787,-48.3465,-18.67434,19.03992
46.692015171,185.8306,134.0081,55.1167,0.9437793,-0.3857475,-0.3020843,-48.3465,-18.67434,19.03992
46.70190382,193.2286,121.2393,46.01408,1.015284,-0.2033184,-0.3053295,-48.3465,-18.67434,19.03992
46.711793423,186.1414,105.2342,35.01763,1.098854,-0.09461906,-0.3851357,-49.40466,-15.38983,15.07615
46.721681595,171.1589,87.8756499999997,27.80885,1.179716,-0.04336536,-0.4314712,-49.40466,-15.38983,15.07615
46.731570244,150.7056,77.9901099999997,23.899,1.263084,-0.06219763,-0.4096398,-49.40466,-15.38983,15.07615
46.741459846,130.8739,79.6377000000001,21.88298,1.289654,-0.07638414,-0.3777971,-49.40466,-15.38983,15.07615
46.751348495,114.8345,88.8759699999997,20.29461,1.274457,-0.105262,-0.3569888,-49.40466,-15.38983,15.07615
46.761237144,99.2303099999997,101.0564,23.71572,1.212278,-0.1018364,-0.3315881,-51.20703,-11.03146,10.62624
46.773598194,78.3417999999998,112.766,31.04669,1.101424,-0.1566571,-0.3323989,-51.20703,-11.03146,10.62624
46.783486843,58.88317,115.8847,39.11076,1.030925,-0.1761664,-0.31122,-51.20703,-11.03146,10.62624
46.793375492,41.10308,107.529,46.31954,0.9676536,-0.1277581,-0.3716516,-51.20703,-11.03146,10.62624
46.803264618,26.12055,90.5824100000002,45.58644,0.9482575,-0.0994747,-0.339114,-51.20703,-11.03146,10.62624
46.813153267,15.48979,78.1666300000003,41.73769,0.9587526,-0.1167505,-0.2880372,-51.50542,-8.837533,6.240693
46.823041916,8.34045599999999,75.2833600000001,42.47078,0.9734631,-0.1753679,-0.2328992,-51.50542,-8.837533,6.240693
46.832931519,7.34576600000001,70.6936399999998,41.55441,0.9925614,-0.220681,-0.1667623,-51.50542,-8.837533,6.240693
46.842819691,9.77032399999997,70.04637,42.59296,0.9706013,-0.2084456,-0.100482,-51.50542,-8.837533,6.240693
46.85270834,17.66568,65.5154999999997,38.31657,0.9687035,-0.2802982,-0.02076909,-51.50542,-8.837533,6.240693
46.862596989,22.63913,66.28046,38.86639,0.9620914,-0.3311253,0.03141972,-51.75555,-6.69202,2.700551
46.872486591,25.06369,65.5154999999997,38.37766,0.9724874,-0.4059996,0.0409474,-51.75555,-6.69202,2.700551
46.88237524,27.92343,65.69203,41.67659,0.927941,-0.4200298,-0.02395669,-51.75555,-6.69202,2.700551
46.892263889,34.94843,60.5138899999999,42.71515,0.8857494,-0.4460515,-0.07629357,-51.75555,-6.69202,2.700551
46.902153015,44.39799,53.33511,43.87589,0.8689104,-0.4305384,-0.1158266,-51.75555,-6.69202,2.700551
46.912041664,52.16901,46.45054,42.89842,0.8554898,-0.3872955,-0.1242361,-52.44962,-5.608843,-0.7048671
46.921930313,55.21525,40.97819,40.82132,0.8638877,-0.3240426,-0.09424813,-52.44962,-5.608843,-0.7048671
46.931819439,55.7126,37.38879,38.86639,0.8810541,-0.2570265,-0.07196397,-52.44962,-5.608843,-0.7048671
46.941708088,54.96658,34.97625,38.13329,0.9083661,-0.1902297,-0.03043034,-52.44962,-5.608843,-0.7048671
46.951596737,52.66636,32.44603,38.13329,0.9556439,-0.1009936,0.01630275,-52.44962,-5.608843,-0.7048671
46.961485386,46.88472,32.74024,38.0722,0.9946223,-0.02786085,0.05974131,-51.65324,-3.077064,-2.928946
46.971374512,37.9325,34.85857,37.3391,1.00247,0.01291435,0.08455209,-51.65324,-3.077064,-2.928946
46.981263161,26.55573,37.74185,34.28453,0.9787762,0.04722742,0.09637477,-51.65324,-3.077064,-2.928946
46.993624687,15.36546,36.74153,30.37469,0.9099199,0.06435642,0.09284348,-51.65324,-3.077064,-2.928946
47.003513336,7.40793400000002,35.44699,25.42628,0.8657318,0.07202838,0.1115104,-51.65324,-3.077064,-2.928946
47.013401985,-1.482114,33.7994,19.80588,0.8181739,0.07405577,0.1104842,-52.3822,-1.577641,-4.264379
47.023291111,-11.05601,31.03381,14.85747,0.7856203,0.06686617,0.11385,-52.3822,-1.577641,-4.264379
47.03317976,-21.12725,26.20872,10.51998,0.7632813,0.05951979,0.1080907,-52.3822,-1.577641,-4.264379
47.043068409,-30.26597,19.85373,7.15995799999999,0.7327047,0.05210341,0.09655127,-52.3822,-1.577641,-4.264379
47.052957535,-37.41531,12.38074,2.700286,0.7035168,0.02968229,0.09134125,-52.3822,-1.577641,-4.264379
47.062846184,-43.56996,4.378161,-2.003752,0.6680641,0.004500903,0.06353477,-50.52953,-1.25851,-5.979239
47.072734833,-49.22726,-3.624417,-6.76888000000001,0.6545174,-0.01366396,0.01936642,-50.52953,-1.25851,-5.979239
47.082623482,-56.25227,-12.80384,-11.5951,0.6647803,-0.02805935,-0.03008404,-50.52953,-1.25851,-5.979239
47.092512608,-65.2666500000002,-22.92475,-16.29914,0.7022046,-0.04238619,-0.0713283,-50.52953,-1.25851,-5.979239
47.102401257,-77.32728,-32.6926,-20.39226,0.7371783,-0.05357081,-0.09816359,-50.52953,-1.25851,-5.979239
47.112289906,-93.8640099999999,-40.40097,-23.38574,0.7745982,-0.06587794,-0.1346088,-50.89789,-0.1889758,-6.391964
47.122179031,-113.447,-48.7566,-27.17341,0.785443,-0.05948661,-0.194263,-50.89789,-0.1889758,-6.391964
47.13206768,-132.0352,-55.75886,-30.35016,0.7966857,-0.07394145,-0.2475594,-50.89789,-0.1889758,-6.391964
47.141956329,-149.1315,-61.0546799999999,-30.28907,0.8054652,-0.09114777,-0.2897836,-50.89789,-0.1889758,-6.391964
47.151845932,-166.5386,-71.3521099999999,-35.66511,0.8052174,-0.04686551,-0.324634,-50.89789,-0.1889758,-6.391964
47.161734581,-186.3081,-76.5891000000001,-35.60402,0.8494701,-0.04101083,-0.350583,-50.9365,-1.220764,-4.236793
47.17162323,-209.3725,-77.7659499999998,-36.52039,0.9482062,-0.07874757,-0.2882412,-50.9365,-1.220764,-4.236793
47.181512356,-233.991,-69.99873,-32.1829,1.051926,-0.2053185,-0.206208,-50.9365,-1.220764,-4.236793
47.191401005,-252.5793,-65.64439,-29.25051,1.107908,-0.2989379,-0.2066331,-50.9365,-1.220764,-4.236793
47.201289654,-257.8636,-57.4652899999999,-28.94506,1.156092,-0.5321025,-0.193377,-50.9365,-1.220764,-4.236793
47.213650703,-244.1866,-50.58072,-28.45633,1.17869,-0.8187629,-0.1135126,-50.98875,-1.164679,-1.18871
47.223539352,-221.7439,-45.87332,-27.17341,1.204758,-1.076527,-0.02224813,-50.98875,-1.164679,-1.18871
47.233428001,-198.493,-40.22444,-24.24102,1.213984,-1.362475,0.1686902,-50.98875,-1.164679,-1.18871
47.243317127,-191.2193,-25.27845,-22.77483,1.274518,-1.678393,0.5767337,-50.98875,-1.164679,-1.18871
47.253205776,-191.1572,18.91225,-5.180504,1.304074,-1.981863,0.9664041,-51.02679,-1.881418,0.9620401
47.263094425,-169.7713,82.4032999999998,18.70623,1.044742,-1.907964,0.7281609,-51.02679,-1.881418,0.9620401
47.272984028,-101.0755,96.34897,26.83138,0.6680054,-1.573742,0.03640283,-51.02679,-1.881418,0.9620401
47.282872677,-13.29406,72.6942799999998,22.31062,0.5184262,-1.233433,-0.4459271,-51.02679,-1.881418,0.9620401
47.292761326,74.2386999999998,34.85857,9.053791,0.5803354,-0.9239572,-0.7148126,-51.02679,-1.881418,0.9620401
47.302650452,152.7571,-7.91991900000001,-10.61764,0.6324967,-0.4739541,-0.9666253,-51.37758,-3.419155,-0.7114971
47.312539101,213.7441,-45.28489,-38.29204,0.8216543,-0.1283311,-1.015768,-51.37758,-3.419155,-0.7114971
47.32242775,244.2686,-66.2916599999998,-61.3234900000001,1.111268,0.1844343,-0.9040028,-51.37758,-3.419155,-0.7114971
47.332316399,236.5598,-65.7032400000001,-73.4195899999998,1.332774,0.4774143,-0.7566268,-51.37758,-3.419155,-0.7114971
47.342205525,209.7031,-56.05307,-71.3424799999998,1.477235,0.7339735,-0.5148939,-51.37758,-3.419155,-0.7114971
47.352094174,172.1536,-37.34116,-62.9118700000003,1.581049,0.8328174,0.05173053,-50.26047,-3.042161,0.1520255
47.361982823,96.7435800000003,-3.271362,-39.14732,1.587503,0.8356153,0.5980501,-50.26047,-3.042161,0.1520255
47.371871948,-16.46464,31.32802,-12.3282,1.391959,0.8282202,0.7613782,-50.26047,-3.042161,0.1520255
47.381760597,-126.5645,47.39202,-1.087381,1.033244,0.7409084,0.4435228,-50.26047,-3.042161,0.1520255
47.391649246,-205.0828,35.50584,-2.920122,0.7550544,0.6193993,0.09659547,-50.26047,-3.042161,0.1520255
47.401538372,-244.8083,15.32286,-10.73982,0.6780478,0.4861189,-0.1639587,-49.52567,-5.621104,1.048516
47.411427021,-240.8917,-1.976827,-21.43081,0.7569109,0.3273246,-0.2861824,-49.52567,-5.621104,1.048516
47.42131567,-206.3884,-10.92089,-27.35668,0.8739154,0.1498325,-0.3510386,-49.52567,-5.621104,1.048516
47.433677197,-148.3233,-21.57137,-28.08978,0.9926226,-0.08338183,-0.3968554,-49.52567,-5.621104,1.048516
47.443565846,-105.8003,-26.57299,-28.94506,1.085941,-0.2907247,-0.344243,-49.52567,-5.621104,1.048516
47.453454495,-73.84586,-27.57331,-32.12181,1.151416,-0.5337161,-0.2693597,-49.49882,-6.786308,-0.6217449
47.46334362,-52.58434,-27.57331,-38.5364,1.131131,-0.7282295,-0.188086,-49.49882,-6.786308,-0.6217449
47.473232269,-39.40469,-23.98392,-45.37864,1.074294,-0.9262118,-0.05056857,-49.49882,-6.786308,-0.6217449
47.483120918,-23.36531,-16.09902,-45.43973,0.9873223,-1.029898,0.03834598,-49.49882,-6.786308,-0.6217449
47.493010044,0.880276599999999,-13.33343,-38.35313,0.9005328,-0.9949808,0.04961295,-49.49882,-6.786308,-0.6217449
47.502898693,29.91281,-15.98134,-29.61706,0.8462537,-0.8322538,0.04728616,-49.13892,-8.225549,0.2502536
47.512787342,56.52078,-20.80642,-19.17043,0.8349125,-0.6143005,0.03126333,-49.13892,-8.225549,0.2502536
47.522676468,75.1090599999999,-25.10192,-8.72380399999998,0.8581132,-0.3615906,0.03193636,-49.13892,-8.225549,0.2502536
47.532565117,82.1340599999998,-26.51414,-2.003752,0.909356,-0.1321298,0.0447818,-49.13892,-8.225549,0.2502536
47.542453766,75.0468900000002,-23.16012,-0.1710097,0.9850831,0.03130903,0.07482094,-49.13892,-8.225549,0.2502536
47.552343368,57.5154699999998,-15.56944,-1.881569,1.067443,0.1360419,0.08785113,-48.77179,-9.356898,0.7287152
47.562232017,36.19179,-7.15496600000002,-6.09687499999998,1.117578,0.1768538,0.08818282,-48.77179,-9.356898,0.7287152
47.572120666,17.79002,-0.2115527,-11.71728,1.136975,0.1674772,0.0824812,-48.77179,-9.356898,0.7287152
47.582008839,4.983376,5.613853,-16.5435,1.134421,0.1369337,0.09128922,-48.77179,-9.356898,0.7287152
47.591898441,-3.844504,10.32125,-18.13188,1.13378,0.1035799,0.1078084,-48.77179,-9.356898,0.7287152
47.60178709,-12.36154,15.85244,-16.72678,1.105989,0.1098971,0.1683409,-49.16346,-10.09317,1.508977
47.611675739,-23.48964,22.56049,-13.97766,1.057909,0.1250967,0.201393,-49.16346,-10.09317,1.508977
47.621564865,-36.8558,26.14988,-11.41183,1.01562,0.1006818,0.1913689,-49.16346,-10.09317,1.508977
47.631453514,-49.28943,24.50229,-8.66271300000003,0.9834716,0.03478223,0.1440542,-49.16346,-10.09317,1.508977
47.641342163,-54.8224,21.26595,-5.608143,0.9765149,-0.04480169,0.09683725,-49.16346,-10.09317,1.508977
47.653703213,-50.09762,18.67688,-2.309208,0.9890454,-0.1368227,0.002094148,-48.78051,-10.48392,1.133744
47.663591862,-42.26443,16.14666,-0.904106400000002,0.9866214,-0.1846076,-0.06740069,-48.78051,-10.48392,1.133744
47.673481464,-36.98013,12.96916,-2.064843,0.9696426,-0.2304159,-0.1369221,-48.78051,-10.48392,1.133744
47.683370113,-32.7527,8.37945000000001,-4.019767,0.9308357,-0.2578548,-0.1858815,-48.78051,-10.48392,1.133744
47.693258762,-25.7277,2.083304,-5.119412,0.8861798,-0.2701991,-0.203183,-48.78051,-10.48392,1.133744
47.703147888,-16.89982,-4.095157,-5.547052,0.8910449,-0.2702806,-0.2079863,-48.38269,-11.26943,-0.144124
47.713036537,-8.693621,-8.03760300000001,-6.46342299999997,0.9255322,-0.2555821,-0.1974411,-48.38269,-11.26943,-0.144124
47.722925186,-3.222822,-7.15496600000002,-7.19651999999998,0.9784592,-0.233923,-0.1748871,-48.38269,-11.26943,-0.144124
47.732813835,-3.347158,-5.213164,-7.990708,1.01439,-0.205713,-0.1398815,-48.38269,-11.26943,-0.144124
47.742702961,-8.19627499999999,-1.859142,-8.11289000000001,1.020525,-0.2115862,-0.07588239,-48.38269,-11.26943,-0.144124
47.75259161,-10.74517,2.965941,-7.86852500000001,0.9898875,-0.2036894,-0.04036897,-48.3891,-10.50496,0.2992375
47.762480259,-7.26375199999999,5.319641,-8.235073,0.9738361,-0.2074239,-0.03171177,-48.3891,-10.50496,0.2992375
47.772369385,0.7559403,5.201956,-8.47943899999997,0.9650995,-0.2143749,-0.04178592,-48.3891,-10.50496,0.2992375
47.782258034,8.27828799999998,3.848579,-8.72380399999998,0.9671454,-0.1856777,-0.0438523,-48.3891,-10.50496,0.2992375
47.792146683,13.31391,0.671084500000001,-8.54052999999998,0.9605898,-0.1190029,-0.04756312,-48.3891,-10.50496,0.2992375
47.802035809,14.37077,-2.50641,-7.86852500000001,0.9641902,-0.05360767,-0.03779015,-48.36824,-11.28494,-0.9872105
47.811924458,11.32453,-3.918629,-8.235073,0.9735673,-0.00533905,-0.03273328,-48.36824,-11.28494,-0.9872105
47.821813106,6.35107500000001,-4.918952,-8.72380399999998,0.9494003,0.01894837,-0.0400973,-48.36824,-11.28494,-0.9872105
47.831702709,2.310144,-8.39065799999998,-9.45690200000001,0.931937,0.01593177,-0.04875849,-48.36824,-11.28494,-0.9872105
47.841591358,-0.860432000000003,-14.33375,-9.76235899999999,0.9561633,-0.008729617,-0.0664004,-48.36824,-11.28494,-0.9872105
47.851480007,-2.663309,-19.8061,-9.70126700000002,1.012798,-0.05265266,-0.06515221,-48.38326,-11.58448,-0.139704
47.861368179,-3.657999,-21.68906,-8.35725599999999,1.046567,-0.08923154,-0.03174541,-48.38326,-11.58448,-0.139704
47.871257782,-6.26906200000001,-20.218,-7.37979399999998,1.060487,-0.09872292,0.01929601,-48.38326,-11.58448,-0.139704
47.883618355,-10.30999,-12.15658,-6.34123999999999,1.068125,-0.09892827,0.07172613,-48.38326,-11.58448,-0.139704
47.893507481,-15.22128,-3.624417,-5.85250900000001,1.037062,-0.0948922,0.07696054,-48.07049,-12.3452,-0.1219461
47.90339613,-17.64584,1.141824,-5.48596,0.9671997,-0.1063998,0.04712215,-48.07049,-12.3452,-0.1219461
47.913284779,-16.3403,0.4357146,-4.264133,0.9264786,-0.1195767,0.00722599,-48.07049,-12.3452,-0.1219461
47.923173904,-13.79141,-3.977472,-3.042305,0.9309602,-0.1158213,-0.0341471,-48.07049,-12.3452,-0.1219461
47.933062553,-12.67238,-9.86171999999999,-3.164488,0.9489546,-0.1220525,-0.05766029,-48.07049,-12.3452,-0.1219461
47.942951202,-13.72924,-15.56944,-4.386316,0.972678,-0.1316731,-0.04652351,-48.09272,-12.32133,1.17511
47.952840805,-16.02946,-18.51157,-5.180504,0.9809402,-0.1148383,-0.02688143,-48.09272,-12.32133,1.17511
47.962729454,-16.89982,-17.8643,-5.669235,1.01061,-0.08841472,-0.01447727,-48.09272,-12.32133,1.17511
47.972618103,-14.5996,-15.15754,-6.34123999999999,1.075746,-0.06327236,-0.01789671,-48.09272,-12.32133,1.17511
47.982507229,-11.36685,-9.44982299999999,-5.974692,1.143738,-0.04822497,-0.01212439,-48.09272,-12.32133,1.17511
47.992395878,-9.43963799999997,-1.32956,-5.241595,1.133986,-0.05588906,-0.004882928,-48.09408,-13.07745,1.185718
48.002284527,-6.766407,6.49648999999998,-2.981214,1.042134,-0.08781752,-0.002902338,-48.09408,-13.07745,1.185718
48.012173653,-3.347158,9.96819699999999,-0.5375581,0.9794654,-0.11621,-0.02110512,-48.09408,-13.07745,1.185718
48.022062302,-1.60645,8.61482000000001,-0.598649399999998,0.9441251,-0.1137361,-0.05578411,-48.09408,-13.07745,1.185718
