Time (s),Gyroscope X (deg/s),Gyroscope Y (deg/s),Gyroscope Z (deg/s),Accelerometer X (g),Accelerometer Y (g),Accelerometer Z (g),Magnetometer X (uT),Magnetometer Y (uT),Magnetometer Z (uT)
18.299614906,10.32984,49.68687,-9.51799300000002,0.02144757,0.0145823,0.7168012,-11.98795,-29.586,-27.61918
18.309500694,6.91058800000001,43.86147,-8.66271300000003,-0.004514541,-0.04258927,0.732931,-9.41094,-29.62496,-27.62541
18.319387436,4.175189,43.68494,-7.44088499999998,-0.01812449,-0.07528343,0.6941262,-9.41094,-29.62496,-27.62541
18.329274178,4.672534,38.5068,-4.752864,-0.04466607,-0.05331295,0.6617632,-9.41094,-29.62496,-27.62541
18.339160919,4.299526,35.85889,-4.264133,-0.05466046,-0.03165558,0.6106648,-9.41094,-29.62496,-27.62541
18.349046707,1.377622,32.79908,-1.209563,-0.08078678,-0.006755112,0.6114711,-9.41094,-29.62496,-27.62541
18.361404419,-3.844504,26.20872,-0.2321011,-0.1099199,0.01974348,0.6536251,-6.830312,-30.74105,-27.94087
18.371291161,-4.466185,22.20743,1.234092,-0.1131987,0.04288632,0.637634,-6.830312,-30.74105,-27.94087
18.381177902,1.191117,13.96949,0.3177214,-0.1198853,0.02628904,0.5689386,-6.830312,-30.74105,-27.94087
18.391064644,8.09178400000001,6.849545,-1.026289,-0.1104217,-0.01747416,0.6071633,-6.830312,-30.74105,-27.94087
18.400950432,13.31391,3.436681,-2.981214,-0.1105871,-0.05972347,0.6150713,-6.830312,-30.74105,-27.94087
18.410837174,17.29267,-0.799977499999998,-4.508498,-0.1087225,-0.07516577,0.6247699,-5.330935,-31.13286,-27.44727
18.420723915,20.71192,-6.978438,-2.920122,-0.1075882,-0.02643705,0.6269295,-5.330935,-31.13286,-27.44727
18.430609703,23.26081,-15.5106,0.928635399999997,-0.08406131,0.04074434,0.6285405,-5.330935,-31.13286,-27.44727
18.440496445,20.96059,-20.57105,3.127926,-0.06829101,0.1173369,0.6397135,-5.330935,-31.13286,-27.44727
18.45038271,14.43294,-24.21929,3.555565,-0.07458778,0.134186,0.6583771,-5.330935,-31.13286,-27.44727
18.460269451,8.71346500000002,-26.74951,2.700286,-0.07030098,0.1401667,0.7006727,-6.083603,-30.42869,-27.47416
18.470155239,0.631603899999999,-28.33826,1.722824,-0.05595642,0.1186157,0.7594704,-6.083603,-30.42869,-27.47416
18.480041981,-6.20689400000001,-30.3389,2.02828,-0.01974265,0.08042739,0.7832696,-6.083603,-30.42869,-27.47416
18.489928722,-7.82326600000002,-33.22218,2.639194,0.01607152,0.04717212,0.7786692,-6.083603,-30.42869,-27.47416
18.499815464,-4.963531,-37.22347,3.677748,0.04848302,0.01146725,0.7726345,-6.083603,-30.42869,-27.47416
18.509701252,-0.3009185,-41.75434,4.227571,0.07312994,0.001645523,0.8030103,-7.223087,-31.47613,-27.09575
18.519587994,3.491339,-42.63698,3.494474,0.08608379,-0.00140576,0.8612318,-7.223087,-31.47613,-27.09575
18.529474735,5.045544,-42.63698,2.578103,0.07054919,-0.009818572,0.8501955,-7.223087,-31.47613,-27.09575
18.539360523,7.15926100000001,-44.34341,1.906098,0.06662132,-0.01301097,0.8641539,-7.223087,-31.47613,-27.09575
18.549247265,8.34045599999999,-44.81416,0.989726799999999,0.07096492,-0.00340803,0.8881564,-7.223087,-31.47613,-27.09575
18.55913353,6.84842,-45.75563,1.967189,0.08312795,0.008827964,0.8938794,-8.303656,-30.37379,-26.292
18.569020271,4.796871,-48.10933,2.333737,0.08123884,0.02492262,0.8952386,-8.303656,-30.37379,-26.292
18.58137846,3.491339,-52.52252,2.88356,0.08136054,0.04555209,0.8744549,-8.303656,-30.37379,-26.292
18.591264248,0.631603899999999,-55.99422,4.105388,0.09546963,0.07517259,0.9031765,-8.303656,-30.37379,-26.292
18.601150989,-8.81795700000002,-58.4067700000001,7.221049,0.1196621,0.1114362,0.986701,-9.449809,-31.41406,-25.52448
18.611037254,-22.49495,-55.52349,8.87051700000001,0.159191,0.1429332,1.144329,-9.449809,-31.41406,-25.52448
18.620923996,-34.74208,-42.16624,7.221049,0.1829504,0.1634407,1.183688,-9.449809,-31.41406,-25.52448
18.630809784,-36.8558,-35.63473,4.044297,0.1727061,0.1185014,1.14062,-9.449809,-31.41406,-25.52448
18.640696525,-29.70646,-33.16334,-0.2931925,0.1643387,0.04361006,1.081355,-9.449809,-31.41406,-25.52448
18.650583267,-21.43809,-34.22251,-3.958676,0.1823573,-0.02838247,1.154359,-12.02502,-30.99824,-25.58842
18.660470009,-20.69208,-35.63473,-1.576112,0.2313576,-0.01290934,1.186077,-12.02502,-30.99824,-25.58842
18.670355797,-17.95668,-35.4582,-3.836493,0.2421795,0.01701574,1.169587,-12.02502,-30.99824,-25.58842
18.680242538,-13.91575,-36.10546,-5.119412,0.2482225,0.0001972746,1.055219,-12.02502,-30.99824,-25.58842
18.69012928,5.480721,-47.52091,-2.736848,0.2166877,-0.06012521,0.7621264,-12.02502,-30.99824,-25.58842
18.700015068,35.94312,-64.4086999999999,2.822469,0.2327863,-0.07261309,0.7107492,-13.09182,-30.28947,-25.62245
18.70990181,47.75507,-66.0562900000003,5.81594700000002,0.2660055,0.00417943,0.9330654,-13.09182,-30.28947,-25.62245
18.719788074,30.96967,-53.99358,3.3112,0.2946062,0.07601234,1.051042,-13.09182,-30.28947,-25.62245
18.729674816,4.983376,-39.16528,-2.309208,0.2951487,0.1229258,1.094569,-13.09182,-30.28947,-25.62245
18.739560604,-12.11287,-27.45562,-11.28964,0.3166114,0.07941677,0.9885296,-13.09182,-30.28947,-25.62245
18.749447346,-21.93544,-22.63054,-12.63365,0.3383604,0.0650313,1.006421,-15.36803,-30.2408,-24.83084
18.759334087,-26.22504,-24.80771,-9.45690200000001,0.3670812,0.06892574,0.9775788,-15.36803,-30.2408,-24.83084
18.769220829,-23.67615,-27.63215,-4.813955,0.4000691,0.08489589,1.007834,-15.36803,-30.2408,-24.83084
18.779106617,-12.29937,-26.57299,-4.080859,0.4089359,0.09649854,0.9707541,-15.36803,-30.2408,-24.83084
18.788993359,-1.295609,-31.63344,-4.56959,0.3624667,0.07986486,0.8943189,-15.36803,-30.2408,-24.83084
18.80135107,1.812799,-35.4582,-4.264133,0.3802429,0.009821998,0.8696852,-16.44444,-30.53184,-24.39676
18.811237812,7.34576600000001,-41.40129,0.3177214,0.4030212,-0.05569388,0.7902092,-16.44444,-30.53184,-24.39676
18.821124554,22.07962,-47.34438,0.623178399999998,0.3618644,-0.03484624,0.778515,-16.44444,-30.53184,-24.39676
18.831010342,33.58073,-47.46207,-3.103397,0.3482731,0.004498034,0.8350495,-16.44444,-30.53184,-24.39676
18.840897083,33.02122,-39.63602,-5.669235,0.3601475,0.05729332,0.817483,-16.44444,-30.53184,-24.39676
18.850783825,28.42077,-38.2238,-8.78489600000001,0.4019474,0.07177608,0.8145719,-16.45247,-31.2808,-23.99704
18.86067009,21.83095,-33.75177,-9.45690200000001,0.3956006,0.1063588,0.8793142,-16.45247,-31.2808,-23.99704
18.870556354,9.58381899999998,-34.6344,-7.135428,0.4212664,0.1201171,0.9235186,-16.45247,-31.2808,-23.99704
18.880442619,1.688463,-39.51833,-5.058321,0.4264784,0.1089664,0.9601309,-16.45247,-31.2808,-23.99704
18.890329361,6.78625199999999,-40.81287,-3.042305,0.4556211,0.06648279,0.891126,-16.45247,-31.2808,-23.99704
18.900215626,18.10086,-40.87171,-0.2321011,0.4583939,0.03501247,0.9037921,-17.97476,-31.24318,-23.18827
18.910101891,26.6179,-40.40097,-0.965197799999999,0.4641255,0.03807576,0.9465852,-17.97476,-31.24318,-23.18827
18.919988632,30.09931,-38.45917,-0.843015,0.461832,0.08351763,0.9564523,-17.97476,-31.24318,-23.18827
18.929875374,28.48294,-34.16367,-4.080859,0.4943741,0.07535298,0.9358509,-17.97476,-31.24318,-23.18827
18.939761162,25.18803,-31.92765,-5.363778,0.4977551,0.08092562,0.9507352,-17.97476,-31.24318,-23.18827
18.949647903,22.45263,-26.80836,-5.669235,0.4987673,0.08115894,0.933903,-18.30403,-31.60112,-22.34703
18.959534645,19.46856,-25.57266,-4.630681,0.4949043,0.0785521,0.9218886,-18.30403,-31.60112,-22.34703
18.96942091,18.03869,-22.63054,-2.920122,0.446946,0.09596857,0.9077994,-18.30403,-31.60112,-22.34703
18.979307175,12.38139,-20.80642,-1.637203,0.4594698,0.1065024,0.9625854,-18.30403,-31.60112,-22.34703
18.989193439,6.97275699999999,-20.74758,-2.187026,0.4550354,0.09050654,0.9669895,-18.30403,-31.60112,-22.34703
18.999080181,5.542889,-17.8643,-1.637203,0.474931,0.07905168,0.9526423,-19.83435,-32.31247,-21.13854
19.008966446,5.045544,-15.45176,-1.94266,0.4831508,0.07326393,0.9574901,-19.83435,-32.31247,-21.13854
19.021324635,5.79156200000001,-11.98005,-0.781923700000001,0.4866833,0.105746,0.9481925,-19.83435,-32.31247,-21.13854
19.031210899,4.237358,-9.15561100000003,-0.598649399999998,0.488617,0.1182323,0.9692922,-19.83435,-32.31247,-21.13854
19.041097641,1.315454,-5.74274599999998,-0.720832200000002,0.4871505,0.1078511,0.9587626,-19.83435,-32.31247,-21.13854
19.050983906,-1.109105,-2.212197,-0.04882693,0.4817097,0.08362214,0.9660928,-20.22644,-32.66949,-20.29873
19.060870647,-3.409327,0.612241999999999,0.1955387,0.472464,0.07184576,0.9589279,-20.22644,-32.66949,-20.29873
19.070756435,-4.590521,2.554044,0.6842698,0.4676505,0.07707512,0.9497586,-20.22644,-32.66949,-20.29873
19.080643177,-5.087867,4.672373,1.478458,0.4594191,0.07348143,0.9363015,-20.22644,-32.66949,-20.29873
19.090529919,-5.025699,7.79102499999999,1.906098,0.4560577,0.07923083,0.9295358,-20.22644,-32.66949,-20.29873
19.100415707,-4.155344,8.26176499999998,1.661732,0.4518033,0.092951,0.9020491,-20.21798,-32.29978,-20.758
19.110302448,-2.414636,9.79166900000002,1.173001,0.4436046,0.1010944,0.8918993,-20.21798,-32.29978,-20.758
19.12018919,-1.109105,11.14505,0.745361200000002,0.4417202,0.1111875,0.8827087,-20.21798,-32.29978,-20.758
19.130075455,-1.544282,13.02801,1.356275,0.4398622,0.1335549,0.8801889,-20.21798,-32.29978,-20.758
19.13996172,-1.357777,14.20485,1.845006,0.4436939,0.104014,0.8591821,-20.21798,-32.29978,-20.758
19.149847984,-1.668618,14.55791,2.089372,0.4369553,0.1270577,0.8686763,-20.21199,-32.685,-21.14182
19.159734726,-3.657999,14.85212,2.089372,0.4355171,0.1369002,0.8753578,-20.21199,-32.685,-21.14182
19.169621468,-5.77171700000003,14.38138,1.417367,0.420041,0.1325967,0.8460258,-20.21199,-32.685,-21.14182
19.179507256,-7.45025699999999,14.44023,0.867544000000001,0.4224213,0.1279094,0.8585562,-20.21199,-32.685,-21.14182
19.189393997,-9.56397399999999,15.44055,-0.1710097,0.4156649,0.1246919,0.8378851,-20.21199,-32.685,-21.14182
19.199280739,-10.4965,15.20518,-0.2321011,0.4111995,0.09744588,0.8389795,-19.45671,-31.93993,-21.13526
19.209167481,-9.50180599999998,15.7936,-0.4153753,0.4009367,0.07700706,0.8385903,-19.45671,-31.93993,-21.13526
19.219053268,-7.45025699999999,15.26402,0.25663,0.3911767,0.06292636,0.8400931,-19.45671,-31.93993,-21.13526
19.23141098,-4.155344,14.2637,0.623178399999998,0.3727347,0.06195295,0.8376725,-19.45671,-31.93993,-21.13526
19.241297722,-2.60114,13.61643,0.0733558600000001,0.368396,0.07520983,0.8443335,-19.45671,-31.93993,-21.13526
19.251184464,-1.917291,13.14569,-0.598649399999998,0.3815435,0.08735761,0.844287,-19.06598,-32.33903,-21.96447
19.261071205,-2.041627,12.14537,-1.087381,0.3917035,0.08455962,0.8539311,-19.06598,-32.33903,-21.96447
19.270956993,-2.725477,11.61579,-1.453929,0.3883276,0.07945235,0.8376017,-19.06598,-32.33903,-21.96447
19.280843735,-3.595831,11.0862,-1.94266,0.3810465,0.07598619,0.8328018,-19.06598,-32.33903,-21.96447
19.29073,-3.533663,11.0862,-2.492483,0.3786724,0.08113166,0.8183454,-19.06598,-32.33903,-21.96447
19.300616741,-2.849813,11.02736,-2.492483,0.3733603,0.08992881,0.8197377,-19.42849,-32.34902,-22.81613
19.310503006,-1.295609,10.85083,-2.248117,0.3602321,0.08263613,0.8187978,-19.42849,-32.34902,-22.81613
19.320389271,-0.05224587,9.67398500000002,-2.248117,0.3470964,0.07688338,0.8231402,-19.42849,-32.34902,-22.81613
19.330276012,0.7559403,7.73218199999999,-2.248117,0.3378845,0.07484595,0.8159262,-19.42849,-32.34902,-22.81613
19.3401618,0.880276599999999,5.319641,-2.309208,0.320447,0.07017434,0.7942885,-19.42849,-32.34902,-22.81613
19.350048542,0.818108400000001,3.613209,-2.736848,0.3136298,0.06385745,0.7943127,-18.68167,-31.97366,-22.35031
19.359935284,1.191117,2.495202,-2.859031,0.3146119,0.06278815,0.7880673,-18.68167,-31.97366,-22.35031
19.369822025,1.937135,1.730249,-2.79794,0.3116687,0.05253926,0.786192,-18.68167,-31.97366,-22.35031
19.379707813,2.869658,0.847612000000001,-2.248117,0.3063329,0.0535237,0.786181,-18.68167,-31.97366,-22.35031
19.389594555,4.48603,-0.2703952,-1.820477,0.3048695,0.05108465,0.7857108,-18.68167,-31.97366,-22.35031
19.39948082,5.294216,-1.917985,-1.51502,0.3004751,0.04727681,0.7910151,-17.97544,-31.62124,-23.18297
19.409367561,5.85373000000002,-4.036314,-1.209563,0.2965491,0.03859855,0.7963446,-17.97544,-31.62124,-23.18297
19.419253826,6.78625199999999,-6.15464400000001,-0.904106400000002,0.285854,0.02976831,0.7906061,-17.97544,-31.62124,-23.18297
19.429140091,7.78094299999999,-8.33181600000001,-0.4153753,0.2829853,0.03895414,0.7857472,-17.97544,-31.62124,-23.18297
19.439026833,9.14864300000002,-11.09741,-0.2321011,0.2785784,0.03323447,0.7934657,-17.97544,-31.62124,-23.18297
19.451385021,11.63537,-13.92185,-0.4764667,0.2824601,0.03721587,0.799702,-17.99126,-32.36185,-22.32927
19.461271286,13.93559,-15.9225,-1.148472,0.3009555,0.06024572,0.8116297,-17.99126,-32.36185,-22.32927
19.471157551,14.86811,-17.39356,-1.881569,0.3194244,0.0710012,0.8168865,-17.99126,-32.36185,-22.32927
19.481043816,14.86811,-18.51157,-1.576112,0.3296047,0.07305111,0.8250634,-17.99126,-32.36185,-22.32927
19.490930557,15.24112,-19.33536,-1.637203,0.3320771,0.09216669,0.8336262,-18.30539,-32.35724,-22.33642
19.500817299,15.42763,-20.57105,-0.843015,0.3364768,0.1088797,0.8446079,-18.30539,-32.35724,-22.33642
19.510703087,14.80595,-21.39485,-0.598649399999998,0.3399408,0.1343308,0.8536207,-18.30539,-32.35724,-22.33642
19.520589829,13.06524,-22.27748,-0.1099183,0.3487053,0.1376215,0.8468812,-18.30539,-32.35724,-22.33642
19.53047657,9.89465999999999,-23.10128,0.867544000000001,0.3598358,0.1243728,0.8416706,-18.30539,-32.35724,-22.33642
19.540362835,7.78094299999999,-23.51318,1.906098,0.3806752,0.1051249,0.827364,-19.45086,-33.01945,-21.57421
19.5502491,7.03492499999999,-24.45466,2.45592,0.3917676,0.08962837,0.8346688,-19.45086,-33.01945,-21.57421
19.560135841,7.34576600000001,-25.63151,3.005743,0.3951738,0.08707905,0.8274716,-19.45086,-33.01945,-21.57421
19.570022106,7.53226999999998,-27.45562,3.616657,0.4048588,0.08322182,0.8313495,-19.45086,-33.01945,-21.57421
19.579908848,7.59443799999999,-28.45595,4.227571,0.4009844,0.08068689,0.8241441,-19.45086,-33.01945,-21.57421
19.589794636,8.402624,-29.51511,4.227571,0.39424,0.09033138,0.8168739,-19.47252,-32.68054,-20.28157
19.599681377,9.52165100000002,-30.04469,4.16648,0.4049725,0.1019107,0.8110566,-19.47252,-32.68054,-20.28157
19.609568119,10.26767,-30.57427,3.861022,0.4122976,0.117042,0.8143549,-19.47252,-32.68054,-20.28157
19.619453907,9.956828,-30.7508,3.983205,0.434152,0.1189107,0.8119656,-19.47252,-32.68054,-20.28157
19.629340649,9.45948300000001,-30.98617,4.410845,0.4598489,0.1060985,0.8053267,-19.47252,-32.68054,-20.28157
19.63922739,9.33514699999999,-31.33923,4.716302,0.4748333,0.09352326,0.8131021,-21.30242,-33.33978,-19.9242
19.649113655,9.64598800000001,-32.04533,5.266125,0.4864717,0.08908895,0.811214,-21.30242,-33.33978,-19.9242
19.65899992,9.45948300000001,-32.16302,6.06031299999999,0.5000553,0.09408259,0.8213035,-21.30242,-33.33978,-19.9242
19.671358585,8.09178400000001,-32.75145,7.15995799999999,0.5034257,0.0902666,0.8270977,-21.30242,-33.33978,-19.9242
19.681244373,7.34576600000001,-33.1045,7.77087200000001,0.4951849,0.07727708,0.8040698,-21.30242,-33.33978,-19.9242
19.691131115,8.775634,-33.28103,8.50396799999999,0.490373,0.08797075,0.8020866,-22.06412,-33.32037,-19.48739
19.70101738,10.51634,-33.86945,8.9927,0.5021219,0.1126957,0.796204,-22.06412,-33.32037,-19.48739
19.710904121,11.88404,-34.34019,9.237065,0.5036504,0.130151,0.7913083,-22.06412,-33.32037,-19.48739
19.720790386,11.26236,-35.16399,9.84797900000002,0.5080805,0.155629,0.8022457,-22.06412,-33.32037,-19.48739
19.730676651,9.52165100000002,-35.98778,10.82544,0.5125234,0.1566425,0.7729095,-22.06412,-33.32037,-19.48739
19.740563393,7.96744700000002,-36.28199,11.43636,0.5237098,0.161454,0.7704933,-22.83916,-33.28665,-18.27234
19.750450134,7.22142900000002,-36.69389,10.76435,0.516496,0.1680123,0.752177,-22.83916,-33.28665,-18.27234
19.760335922,5.85373000000002,-37.34116,9.725797,0.5083305,0.1893824,0.7472505,-22.83916,-33.28665,-18.27234
19.770222664,2.745321,-39.22412,8.56506000000003,0.51464,0.1848939,0.7410283,-22.83916,-33.28665,-18.27234
19.780109405,0.3207631,-41.98972,8.80942499999997,0.5069526,0.1978483,0.7270074,-22.83916,-33.28665,-18.27234
19.789995193,-1.60645,-44.93184,9.48143099999997,0.5165887,0.1699149,0.7165793,-24.68225,-33.23727,-17.08161
19.799881935,-2.663309,-47.16785,9.84797900000002,0.5083029,0.144272,0.6940961,-24.68225,-33.23727,-17.08161
19.8097682,-3.720167,-48.52123,9.90907000000003,0.5130861,0.1272911,0.6989966,-24.68225,-33.23727,-17.08161
19.819654942,-5.709548,-48.99197,9.90907000000003,0.5097373,0.1463967,0.7061101,-24.68225,-33.23727,-17.08161
19.829541206,-7.512425,-50.81609,9.84797900000002,0.52239,0.150145,0.6979298,-24.68225,-33.23727,-17.08161
19.839427471,-9.50180599999998,-54.52316,10.09234,0.5552586,0.1260633,0.7202113,-25.81313,-33.22069,-17.10735
19.849314213,-12.61021,-58.4656099999999,11.68072,0.6098619,0.07474848,0.7479452,-25.81313,-33.22069,-17.10735
19.859200954,-15.34561,-60.6427800000002,14.06328,0.6416993,0.01820653,0.748748,-25.81313,-33.22069,-17.10735
19.869086742,-15.71862,-61.4665800000002,17.11785,0.6567101,0.01691013,0.7617565,-25.81313,-33.22069,-17.10735
19.878973484,-15.53212,-63.7025899999997,21.14989,0.6218747,0.03269605,0.738072,-25.81313,-33.22069,-17.10735
19.891331196,-17.708,-68.7630500000002,25.85392,0.5962114,0.04479829,0.729806,-27.27869,-32.86178,-15.91246
19.901217937,-17.89451,-69.8810499999998,27.93103,0.5570018,0.04420716,0.6850387,-27.27869,-32.86178,-15.91246
19.911104679,-17.77017,-73.17623,27.56448,0.5337635,0.04835524,0.6662354,-27.27869,-32.86178,-15.91246
19.920991421,-20.2569,-78.35437,25.60956,0.5124007,0.04594833,0.6652614,-27.27869,-32.86178,-15.91246
19.930877209,-22.80579,-86.4746299999998,22.79935,0.5197111,0.06117313,0.6748112,-27.27869,-32.86178,-15.91246
19.94076395,-21.87327,-92.35888,19.80588,0.5228485,0.09955497,0.6366281,-29.49863,-32.74386,-14.73119
19.950650215,-16.09163,-97.53702,13.63565,0.5119026,0.1220875,0.5787913,-29.49863,-32.74386,-14.73119
19.96053648,-11.30468,-102.6563,11.1309,0.4840534,0.1844271,0.5428565,-29.49863,-32.74386,-14.73119
19.970423222,-11.61552,-108.8348,11.19199,0.4721957,0.2513765,0.5242296,-29.49863,-32.74386,-14.73119
19.980309486,-13.35623,-116.4843,8.62615099999998,0.4433895,0.3260714,0.5002543,-29.49863,-32.74386,-14.73119
19.990196228,-16.27814,-121.4271,4.105388,0.4663495,0.3788395,0.5149223,-31.73188,-31.98034,-12.71567
20.000082016,-23.48964,-124.9576,-0.04882693,0.5058216,0.4275356,0.5200112,-31.73188,-31.98034,-12.71567
20.009968758,-30.07947,-127.2525,-5.058321,0.5627026,0.4153966,0.4648314,-31.73188,-31.98034,-12.71567
20.019855499,-37.85049,-129.0766,-9.090353,0.6330425,0.3737067,0.4218391,-31.73188,-31.98034,-12.71567
20.029742241,-47.05138,-128.7824,-12.69475,0.7385193,0.3014675,0.4574313,-31.73188,-31.98034,-12.71567
20.039628029,-55.50624,-128.194,-15.26058,0.8173449,0.1921755,0.4215232,-33.66533,-31.14289,-9.850805
20.049514771,-58.8633299999998,-126.664,-16.66569,0.8595926,0.06514901,0.4323125,-33.66533,-31.14289,-9.850805
20.059401035,-60.1688600000003,-120.6621,-16.36023,0.9007894,0.03367712,0.6128638,-33.66533,-31.14289,-9.850805
20.069287777,-54.51155,-108.4817,-20.63663,0.8737442,0.02292034,0.5412301,-33.66533,-31.14289,-9.850805
20.079174042,-52.39784,-101.2441,-23.56901,0.921131,-0.03973298,0.5262112,-33.66533,-31.14289,-9.850805
20.089060307,-46.36753,-95.94827,-26.99013,0.9252913,-0.1006315,0.5250809,-35.51757,-31.84127,-8.195495
20.098947048,-36.8558,-86.3569500000002,-31.02216,0.9429558,-0.1639968,0.5562001,-35.51757,-31.84127,-8.195495
20.11130476,-24.60867,-79.9431200000001,-34.26001,0.9547964,-0.2328292,0.5791647,-35.51757,-31.84127,-8.195495
20.121191502,-21.56243,-75.8241399999998,-34.13783,0.8901851,-0.2348343,0.5993001,-35.51757,-31.84127,-8.195495
20.131078243,-21.56243,-67.9392500000001,-32.8549,0.8680401,-0.2597487,0.6888521,-35.51757,-31.84127,-8.195495
20.140964031,-12.67238,-56.17075,-37.62003,0.8426648,-0.3573728,0.6051553,-36.30774,-32.17009,-6.132061
20.150850773,-21.93544,-52.64021,-37.25349,0.820838,-0.4026299,0.734727,-36.30774,-32.17009,-6.132061
20.160737515,-15.84296,-61.2312100000002,-31.75526,0.861988,-0.3822095,0.6077074,-36.30774,-32.17009,-6.132061
20.170624256,-2.103795,-72.3524400000002,-22.83592,0.9045612,-0.2774843,0.6149214,-36.30774,-32.17009,-6.132061
20.180510044,17.60351,-71.9405399999999,-15.38277,0.9059628,-0.1886431,0.5639774,-36.30774,-32.17009,-6.132061
20.190396786,38.86502,-66.0562900000003,-10.73982,0.9178284,-0.05625067,0.4632902,-36.31771,-33.99022,-5.717307
20.200283051,45.95219,-56.40612,-9.51799300000002,0.9248537,0.04379941,0.5113657,-36.31771,-33.99022,-5.717307
20.210169792,41.16525,-44.16689,-9.70126700000002,0.9198075,0.08724475,0.452468,-36.31771,-33.99022,-5.717307
20.22005558,40.79224,-34.6344,-13.24457,0.910059,0.03427605,0.3935713,-36.31771,-33.99022,-5.717307
20.229942322,41.16525,-29.75048,-13.30566,0.9321795,-0.06548128,0.33639,-36.31771,-33.99022,-5.717307
20.239829063,44.9575,-28.10289,-12.14492,1.052226,-0.1094395,0.4088868,-35.60782,-34.33279,-3.165583
20.249715805,43.4033,-15.45176,-11.90056,1.186118,-0.1245938,0.6183163,-35.60782,-34.33279,-3.165583
20.259601593,37.62166,-0.6234501,-11.41183,1.316617,-0.1095027,0.6679233,-35.60782,-34.33279,-3.165583
20.269488335,29.97498,10.14472,-10.37327,1.341862,-0.09067463,0.6928647,-35.60782,-34.33279,-3.165583
20.279375076,24.44201,13.4399,-8.60162200000002,1.332372,-0.06814501,0.6350296,-35.60782,-34.33279,-3.165583
20.289260864,22.94997,8.61482000000001,-3.958676,1.36487,-0.08797481,0.6159298,-36.37508,-34.30742,-2.40451
20.299147606,38.11901,1.259509,0.6842698,1.364057,-0.02526972,0.6406199,-36.37508,-34.30742,-2.40451
20.309033871,39.1137,-1.211875,12.04727,1.347341,-0.04188699,0.5041034,-36.37508,-34.30742,-2.40451
20.318920612,53.10153,-1.682615,16.50694,1.306794,-0.01030363,0.6568305,-36.37508,-34.30742,-2.40451
20.331278801,54.46923,7.90871000000001,25.3041,1.200162,0.06608891,0.7034535,-35.63823,-35.75218,-1.523932
20.341165066,43.58981,15.67592,30.61905,1.15419,0.0732664,0.6562347,-35.63823,-35.75218,-1.523932
20.351051331,30.65883,20.79521,34.58999,1.160035,0.05570835,0.6226656,-35.63823,-35.75218,-1.523932
20.360937595,16.60882,24.7965,36.97256,1.180723,-0.01383893,0.5989946,-35.63823,-35.75218,-1.523932
20.370824337,-1.419945,25.91451,38.98857,1.154871,-0.07817504,0.5593738,-35.63823,-35.75218,-1.523932
20.380711079,-23.11663,20.85406,40.39367,1.021563,-0.2311845,0.4700632,-36.02103,-34.66714,-1.09357
20.390596867,-23.55181,3.024784,41.06568,0.8929557,-0.3877922,0.2384235,-36.02103,-34.66714,-1.09357
20.400483608,-3.657999,3.907421,36.72819,0.8691766,-0.4514696,0.1454196,-36.02103,-34.66714,-1.09357
20.41037035,12.69223,14.14601,37.4002,0.8545748,-0.4467058,0.168944,-36.02103,-34.66714,-1.09357
20.420257092,17.91435,35.38815,43.20388,0.7918765,-0.4083056,0.05806685,-36.02103,-34.66714,-1.09357
20.43014288,20.89842,44.39105,48.27446,0.7818125,-0.3842186,0.03917777,-37.44177,-33.53564,-2.439428
20.440029621,22.39046,42.97883,53.03959,0.8298385,-0.3985788,0.02968652,-37.44177,-33.53564,-2.439428
20.449915886,30.59666,37.68301,58.1712699999999,0.9283093,-0.4436754,-0.009409154,-37.44177,-33.53564,-2.439428
20.459802628,46.01436,31.09265,64.2804100000001,1.034153,-0.4301493,-0.002624264,-37.44177,-33.53564,-2.439428
20.469688416,63.5457799999999,27.03252,69.9008199999999,1.098901,-0.3772572,-0.006665291,-37.44177,-33.53564,-2.439428
20.479575157,81.45021,21.3248,68.9844499999999,1.083794,-0.2639621,-0.02023985,-38.19239,-31.69731,-2.482224
20.489461899,90.8997700000002,15.55823,65.1967800000001,1.031734,-0.1506854,-0.007405682,-38.19239,-31.69731,-2.482224
20.499348641,91.0862700000003,9.37977200000003,61.4091100000003,0.9922065,-0.04982109,0.02378046,-38.19239,-31.69731,-2.482224
20.509234429,83.1909199999999,6.26111999999998,59.8207399999998,0.9767745,0.006805394,0.06339321,-38.19239,-31.69731,-2.482224
20.51912117,72.7466699999998,4.260476,58.1101800000001,0.9642158,0.03680018,0.08102144,-38.19239,-31.69731,-2.482224
20.529007435,62.1159200000002,2.554044,58.1101800000001,0.959896,0.06387136,0.09963565,-39.63399,-29.78583,-2.541634
20.541365623,52.16901,1.847934,59.2098200000001,0.9482466,0.09425258,0.1432327,-39.63399,-29.78583,-2.541634
20.551252365,45.33051,-0.4469227,61.3480199999999,0.9549326,0.09393407,0.1879676,-39.63399,-29.78583,-2.541634
20.56113863,39.92188,-3.565574,63.9749599999999,0.9368469,0.07187925,0.2087381,-39.63399,-29.78583,-2.541634
20.571024895,35.75661,-4.330527,66.0520600000003,0.9275339,0.04908289,0.2136519,-39.63399,-29.78583,-2.541634
20.580911636,32.71038,-8.92024,68.31245,0.9240493,0.02873852,0.2204836,-40.78979,-27.53288,-0.9121406
20.590797901,29.35329,-12.86269,69.4120899999999,0.9141926,0.0122827,0.2585483,-40.78979,-27.53288,-0.9121406
20.600684643,23.8825,-16.04018,70.57283,0.9000303,-0.01152831,0.2600953,-40.78979,-27.53288,-0.9121406
20.610570431,18.22519,-15.39291,70.5117299999999,0.8683482,-0.04297367,0.2698366,-40.78979,-27.53288,-0.9121406
20.620457172,13.99776,-17.0405,70.5117299999999,0.8492064,-0.08489072,0.2974392,-40.78979,-27.53288,-0.9121406
20.630343914,12.07055,-15.33407,71.2448299999999,0.8542613,-0.1268968,0.3548868,-42.2368,-24.92113,-0.5921581
20.640230656,6.102402,-3.859787,72.5277500000002,0.8529894,-0.143903,0.4550028,-42.2368,-24.92113,-0.5921581
20.650116444,-2.725477,0.2591871,72.2833899999998,0.8252377,-0.1811296,0.4368844,-42.2368,-24.92113,-0.5921581
20.660003185,-8.13410699999998,-2.212197,70.6339199999998,0.7447196,-0.1733518,0.4252115,-42.2368,-24.92113,-0.5921581
20.66988945,-5.398708,-3.271362,62.8142199999998,0.6931778,-0.177645,0.4569153,-42.2368,-24.92113,-0.5921581
20.679776192,-0.922600200000001,-4.153999,54.75015,0.6666009,-0.1574425,0.4365843,-43.74707,-21.92921,-0.2140563
20.689662456,-1.171273,-11.98005,50.1683,0.7137099,-0.1462638,0.4413906,-43.74707,-21.92921,-0.2140563
20.699548721,-0.673927500000001,-19.21768,46.68609,0.7512163,-0.1407049,0.3947558,-43.74707,-21.92921,-0.2140563
20.709435463,5.79156200000001,-22.92475,42.83733,0.7731159,-0.1640035,0.3376689,-43.74707,-21.92921,-0.2140563
20.719322205,14.18426,-25.10192,40.08822,0.8191257,-0.2092389,0.3148656,-43.74707,-21.92921,-0.2140563
20.729207992,20.64975,-24.45466,39.23294,0.862009,-0.2511256,0.3853405,-44.80268,-19.3385,-0.72858
20.739094734,24.81502,-22.68938,41.00459,0.9141439,-0.2668412,0.4811825,-44.80268,-19.3385,-0.72858
20.748981476,26.43139,-15.39291,40.51586,0.8763289,-0.215791,0.5357065,-44.80268,-19.3385,-0.72858
20.761339188,26.49356,-12.68616,34.16235,0.8687572,-0.173212,0.5162458,-44.80268,-19.3385,-0.72858
20.771225929,26.30705,-13.92185,28.66413,0.9478021,-0.1788881,0.5380058,-44.80268,-19.3385,-0.72858
20.781112671,28.23427,-14.6868,23.1659,0.9759029,-0.2049964,0.5218185,-46.34279,-17.45092,1.286754
20.790998459,31.90219,-16.80513,19.43933,0.9583459,-0.2303119,0.5200027,-46.34279,-17.45092,1.286754
20.8008852,36.44046,-16.04018,17.11785,0.8846455,-0.2386117,0.476197,-46.34279,-17.45092,1.286754
20.810771465,42.15993,-17.74661,14.91856,0.8119352,-0.2231516,0.4582421,-46.34279,-17.45092,1.286754
20.820658207,48.12808,-18.80578,12.35273,0.8380526,-0.2519764,0.455532,-46.34279,-17.45092,1.286754
20.830544472,52.85286,-18.57041,11.1309,0.8807946,-0.2671727,0.4219929,-46.34085,-16.37976,1.271726
20.840430737,56.08561,-18.39388,9.60361400000002,0.8814507,-0.2488443,0.3776563,-46.34085,-16.37976,1.271726
20.850317478,55.83693,-24.04276,6.121404,0.8377161,-0.1892982,0.2830451,-46.34085,-16.37976,1.271726
20.86020422,54.46923,-37.51768,-2.553574,0.7357016,-0.09068149,0.05784069,-46.34085,-16.37976,1.271726
20.870090008,69.7626000000002,-58.4067700000001,-19.47589,0.5922079,0.006356444,-0.2784958,-46.34085,-16.37976,1.271726
20.879976749,97.6760999999998,-96.8309099999999,-32.97709,0.5067849,0.03869307,-0.6351188,-46.35992,-15.2229,2.488017
20.889863491,120.3053,-125.7814,-35.90948,0.5763001,0.0489898,-0.2628589,-46.35992,-15.2229,2.488017
20.899749756,71.0681300000001,-99.12577,-26.5014,1.330457,-0.1954618,1.043973,-46.35992,-15.2229,2.488017
20.909636021,-17.14849,-10.45015,-2.064843,2.771005,-0.6712005,1.792961,-46.35992,-15.2229,2.488017
20.919522285,-13.66707,82.9917200000001,-54.11471,2.755722,-0.1321313,1.658929,-46.35992,-15.2229,2.488017
20.929409027,-3.160654,68.1634100000001,-93.8852,1.347825,0.008379624,0.576469,-46.047,-15.53847,6.198511
20.939295769,9.83249199999998,-43.46078,-60.4682200000003,0.6997012,-0.07018335,0.1211777,-46.047,-15.53847,6.198511
20.949181557,45.95219,-115.7193,-22.40828,0.8030087,-0.2380969,-0.08657601,-46.047,-15.53847,6.198511
20.959068298,92.9513200000003,-101.9502,-4.264133,0.69609,-0.2579277,-0.05918487,-46.047,-15.53847,6.198511
20.96895504,74.6117199999998,-89.1813900000002,-4.203042,0.5412612,-0.3064285,-0.1317349,-46.047,-15.53847,6.198511
20.981312752,45.57919,-58.2890800000002,-8.907079,0.5443797,-0.3499562,-0.07861008,-45.68112,-17.36293,6.686697
20.991199493,79.2121599999999,1.671407,-16.84896,0.5049901,-0.2176964,-0.2601495,-45.68112,-17.36293,6.686697
21.001086235,123.7867,-3.565574,-28.15087,0.4689009,0.0007638894,-0.2781268,-45.68112,-17.36293,6.686697
21.010972023,106.0066,-34.45788,-19.59807,0.6930297,0.5029208,-0.1130489,-45.68112,-17.36293,6.686697
21.020858765,47.81724,-70.2341099999997,-6.402331,1.044666,1.00127,0.107499,-45.68112,-17.36293,6.686697
21.030745506,7.28359699999998,-80.6492199999999,-29.49488,1.542245,1.426164,0.2877058,-44.97722,-17.32028,9.622233
21.040631771,-28.15226,-68.8807299999998,-62.9729600000001,1.669189,0.9004999,0.0303282,-44.97722,-17.32028,9.622233
21.050518036,-37.91265,-45.34373,-55.88636,1.422549,0.05733557,-0.1455559,-44.97722,-17.32028,9.622233
21.060404301,8.89997000000001,-30.7508,-36.4593,1.048097,-0.3773348,-0.4746588,-44.97722,-17.32028,9.622233
21.070291042,73.9278600000003,-56.75918,-27.9065,0.8478619,-0.554859,-0.4210882,-44.97722,-17.32028,9.622233
21.080177784,115.7049,-77.4717300000002,-28.02869,0.8542969,-0.6505522,-0.2085111,-43.95277,-18.04671,12.12156
21.090063572,121.6108,-81.2964900000003,-24.30211,0.9941038,-0.71954,-0.1137429,-43.95277,-18.04671,12.12156
21.099950314,107.3122,-73.1173900000002,-6.402331,1.016207,-0.5750084,-0.2154416,-43.95277,-18.04671,12.12156
21.109837055,85.36681,-68.9395799999999,5.75485600000001,0.9508799,-0.2150903,-0.3846952,-43.95277,-18.04671,12.12156
21.11972332,55.46392,-72.41128,14.73529,0.8511219,0.01497799,-0.3513449,-43.95277,-18.04671,12.12156
21.129609585,32.77254,-83.4148299999999,24.38773,1.041671,0.2152805,-0.3809957,-42.50492,-19.83524,15.48901
21.139496326,24.81502,-88.00454,24.20446,1.26896,0.4528523,-0.09530885,-42.50492,-19.83524,15.48901
21.149382591,37.18649,-81.70839,13.39128,1.27426,0.6575392,0.01331283,-42.50492,-19.83524,15.48901
21.159269333,48.25241,-80.2373299999999,0.562087,1.147221,0.6918049,0.00818602,-42.50492,-19.83524,15.48901
21.169155121,42.0356,-77.4717300000002,-10.31218,1.039924,0.4052248,0.01095496,-42.50492,-19.83524,15.48901
21.179041863,29.29113,-81.9437600000001,-8.235073,0.9568099,0.2389887,0.020838,-42.25263,-18.32141,19.23729
21.188928604,21.20927,-83.5913499999999,-8.72380399999998,0.9448319,0.1858524,0.08072711,-42.25263,-18.32141,19.23729
21.201286316,17.91435,-82.1791300000001,-11.77837,0.950458,0.1243921,0.07479212,-42.25263,-18.32141,19.23729
21.211173058,21.27143,-83.47366,-10.80091,0.9793801,0.1121651,0.140292,-42.25263,-18.32141,19.23729
21.221059799,26.36922,-80.8846000000003,-10.67873,1.007262,0.07400231,0.1972653,-42.25263,-18.32141,19.23729
21.230945587,31.90219,-75.2945599999999,-10.55655,1.02417,0.05308037,0.2007567,-41.18485,-17.51266,23.01388
21.240832329,37.55949,-73.8823400000002,-9.76235899999999,1.010388,-0.001917765,0.2010189,-41.18485,-17.51266,23.01388
21.25071907,44.9575,-77.35405,-7.68525100000001,0.9759253,-0.02224598,0.1722272,-41.18485,-17.51266,23.01388
21.260605335,48.50109,-85.0624200000003,-4.447407,0.9694691,-0.02081166,0.2347323,-41.18485,-17.51266,23.01388
21.2704916,44.08715,-82.7675600000001,-3.408854,0.947759,0.003778125,0.2153466,-41.18485,-17.51266,23.01388
21.280377865,38.74069,-81.8849200000003,-1.148472,0.9759623,0.009865822,0.2028439,-38.65966,-17.87478,25.99619
21.290264607,33.33206,-81.8849200000003,-2.125934,0.9789908,0.02455269,0.1758416,-38.65966,-17.87478,25.99619
21.300151348,28.1721,-82.2968099999997,-2.859031,1.014914,0.01598787,0.1614981,-38.65966,-17.87478,25.99619
21.31003809,23.07431,-83.47366,-3.958676,1.017855,0.007838573,0.1379775,-38.65966,-17.87478,25.99619
21.319923878,18.34953,-82.5321900000001,-4.14195,1.042594,0.01137089,0.1495298,-38.65966,-17.87478,25.99619
21.329810619,13.25174,-78.4132200000001,-3.103397,1.045192,0.03914874,0.1186135,-36.88454,-16.7148,28.87528
21.339697361,9.64598800000001,-74.17655,-4.691772,1.039936,0.03912844,0.08398129,-36.88454,-16.7148,28.87528
21.349583626,8.96213800000002,-69.1749400000002,-5.119412,1.014809,0.05240291,0.05647315,-36.88454,-16.7148,28.87528
21.359469891,6.91058800000001,-69.2337900000003,-5.608143,0.9600931,0.0770579,0.0370495,-36.88454,-16.7148,28.87528
21.369356155,3.926517,-70.05758,-5.974692,0.915039,0.0965099,0.02920524,-36.88454,-16.7148,28.87528
21.379242897,2.683153,-71.8817000000001,-4.203042,0.9024847,0.1150316,0.02861645,-34.72771,-16.00739,31.44486
21.389129639,3.677844,-72.17591,-5.058321,0.9462255,0.147429,0.05158668,-34.72771,-16.00739,31.44486
21.399015427,5.91589799999997,-63.4083799999999,-8.78489600000001,0.9986926,0.1510124,0.03768152,-34.72771,-16.00739,31.44486
21.411374092,8.27828799999998,-53.8759,-13.42784,1.016593,0.1000879,-0.01109474,-34.72771,-16.00739,31.44486
21.42125988,6.47541100000003,-53.52284,-16.97114,0.9777524,0.08629996,-0.0264587,-33.256,-16.30636,33.55889
21.431146622,6.288907,-51.99294,-21.49191,0.9318202,-0.03110279,-0.06775779,-33.256,-16.30636,33.55889
21.441033363,15.55196,-51.87525,-22.10282,0.8990219,-0.1258226,-0.08847696,-33.256,-16.30636,33.55889
21.450920105,27.73692,-48.63892,-20.88099,0.9283671,-0.1834395,-0.06218269,-33.256,-16.30636,33.55889
21.460805893,36.50263,-42.40161,-18.86498,1.019365,-0.2258167,-0.01810127,-33.256,-16.30636,33.55889
21.470692635,34.57542,-29.98585,-15.81041,1.130993,-0.2050821,0.01558535,-31.07762,-16.00087,34.83672
21.480579376,23.63382,-14.51028,-15.1384,1.157412,-0.2019739,-0.06615689,-31.07762,-16.00087,34.83672
21.490465641,14.18426,-12.80384,-13.12239,1.097458,-0.2033221,-0.1643262,-31.07762,-16.00087,34.83672
21.500351906,10.08116,-15.74597,-9.45690200000001,1.000914,-0.1800362,-0.1506069,-31.07762,-16.00087,34.83672
21.510238171,17.2305,-19.04115,-7.50197599999999,0.9366591,-0.08227473,-0.1348226,-31.07762,-16.00087,34.83672
21.520124912,21.64444,-23.04244,-7.25761099999999,0.9591133,0.02387058,-0.03530192,-29.57644,-16.01582,35.26016
21.530011654,17.29267,-22.98359,-7.25761099999999,1.071105,0.08070205,0.100158,-29.57644,-16.01582,35.26016
21.539897442,-1.046937,-13.1569,-9.151444,1.247826,0.1722188,0.4144188,-29.57644,-16.01582,35.26016
21.549784183,-27.71708,14.02833,-6.28014899999998,1.49689,0.3345305,0.6201969,-29.57644,-16.01582,35.26016
21.559670925,-48.91642,46.68591,-3.469945,1.739312,0.4501077,0.695874,-29.57644,-16.01582,35.26016
21.56955719,-67.3182000000002,66.33929,0.3177214,1.890926,0.3693066,1.109566,-29.25428,-15.27146,34.86759
21.579443931,-77.6381099999997,94.7013800000001,3.005743,1.894274,0.0349455,1.253612,-29.25428,-15.27146,34.86759
21.589330196,-48.23257,105.2342,6.91559200000002,1.703522,-0.5139087,0.8685463,-29.25428,-15.27146,34.86759
21.599216461,-18.20535,101.5859,20.23351,1.678046,-1.010756,0.8570813,-29.25428,-15.27146,34.86759
21.609103203,-21.43809,117.2969,44.05916,1.734589,-1.52761,0.8212838,-29.25428,-15.27146,34.86759
21.618989944,-27.03323,145.8943,76.92633,1.583932,-1.670008,0.4948057,-30.26826,-16.76589,31.55612
21.631347656,35.57011,150.7194,93.0544599999999,1.297372,-0.7412975,0.2954947,-30.26826,-16.76589,31.55612
21.641234398,126.2113,144.2467,66.84625,1.241175,0.2227566,-0.3755165,-30.26826,-16.76589,31.55612
21.651120186,201.4969,118.5914,42.59296,1.414663,0.8948323,-0.9038813,-30.26826,-16.76589,31.55612
21.661006927,256.6401,108.0586,23.10481,1.528952,1.417368,-1.05163,-30.26826,-16.76589,31.55612
21.670893669,254.7751,112.1188,-9.33471900000003,1.561528,1.839703,-1.072002,-35.34823,-16.38868,27.28297
21.680780411,201.3104,107.4114,-43.05717,1.591931,1.859162,-0.9715535,-35.34823,-16.38868,27.28297
21.690666199,86.9210100000002,119.4741,-44.58445,1.921445,1.211248,0.1324427,-35.34823,-16.38868,27.28297
21.70055294,-90.3204200000002,149.013,-8.96817000000001,1.809784,0.4019524,0.187864,-35.34823,-16.38868,27.28297
21.710439205,-149.0693,159.7223,10.51998,1.313556,0.2063122,-0.4234432,-35.34823,-16.38868,27.28297
21.720325947,-157.6485,155.368,10.94762,1.150236,0.1413433,-0.6214401,-38.97454,-11.2439,22.97553
21.730211735,-147.0799,151.6021,6.976684,1.127349,0.09806958,-0.6525073,-38.97454,-11.2439,22.97553
21.740098476,-132.6569,146.4239,1.661732,1.132288,0.1497719,-0.6138083,-38.97454,-11.2439,22.97553
21.749985218,-126.0049,143.6583,-3.164488,1.139818,0.232783,-0.597868,-38.97454,-11.2439,22.97553
21.75987196,-126.2536,140.0689,-6.402331,1.076485,0.2810855,-0.6328104,-38.97454,-11.2439,22.97553
21.769757748,-127.3105,133.8316,-4.447407,1.023119,0.2675904,-0.6631009,-42.47621,-11.34323,14.59143
21.779644489,-126.9375,126.3586,1.295184,0.9143924,0.2429401,-0.6977262,-42.47621,-11.34323,14.59143
21.789531231,-123.4561,119.2387,3.005743,0.832871,0.2215656,-0.7376274,-42.47621,-11.34323,14.59143
21.799417496,-119.6016,108.9413,2.45592,0.778871,0.1985647,-0.7197785,-42.47621,-11.34323,14.59143
21.809304237,-116.1202,99.7618299999997,0.806452599999999,0.750138,0.1663821,-0.7263814,-42.47621,-11.34323,14.59143
21.819190025,-112.9496,89.5232400000001,-1.026289,0.7415989,0.1050165,-0.6953021,-44.22104,-13.35983,6.209042
21.829076767,-112.6388,80.6380200000001,-3.469945,0.6929098,0.05979037,-0.6975334,-44.22104,-13.35983,6.209042
21.838963509,-109.6547,69.2225800000002,-7.135428,0.6153777,-0.03483916,-0.6856014,-44.22104,-13.35983,6.209042
21.85132122,-105.0543,55.98302,-5.974692,0.5037979,-0.1349213,-0.6520389,-44.22104,-13.35983,6.209042
21.861207962,-100.7025,44.97948,-4.936138,0.440557,-0.1766956,-0.6533425,-44.22104,-13.35983,6.209042
21.871094704,-94.6722000000002,41.62545,-6.34123999999999,0.4175662,-0.1780137,-0.5817047,-45.20656,-14.50603,1.270946
21.880980492,-91.5637799999998,35.09394,-8.84598700000002,0.4684078,-0.1813196,-0.5354618,-45.20656,-14.50603,1.270946
21.890867233,-90.6312600000002,25.97335,-9.02926199999999,0.5520473,-0.2012931,-0.4270585,-45.20656,-14.50603,1.270946
21.900753975,-89.8852499999998,18.85341,-8.96817000000001,0.6071567,-0.2268633,-0.3710798,-45.20656,-14.50603,1.270946
21.91064024,-75.4000600000003,12.79264,-12.08383,0.6782044,-0.2504722,-0.2795047,-45.20656,-14.50603,1.270946
21.920526504,-54.69806,8.37945000000001,-18.07079,0.7774801,-0.2591923,-0.1980721,-45.15124,-15.32301,-2.025939
21.930413246,-38.03699,5.672696,-22.9581,0.9004149,-0.2706562,-0.06898756,-45.15124,-15.32301,-2.025939
21.940299511,-24.29783,14.2637,-24.48538,0.9811777,-0.2321286,0.1083694,-45.15124,-15.32301,-2.025939
21.950186253,-13.60491,22.38396,-28.57851,1.02958,-0.1776278,0.242326,-45.15124,-15.32301,-2.025939
21.960072994,-5.958221,29.5039,-32.67163,1.024758,-0.02653706,0.4454676,-45.15124,-15.32301,-2.025939
21.969958782,3.677844,35.15278,-42.32407,1.04091,0.1298307,0.613499,-44.42526,-15.74939,-4.080195
21.979845524,1.501958,34.32899,-51.73215,1.024063,0.2792595,0.7690241,-44.42526,-15.74939,-4.080195
21.989732265,-12.11287,35.32931,-61.01804,0.9714147,0.3394434,0.7484615,-44.42526,-15.74939,-4.080195
21.99961853,-25.35469,23.91387,-69.9373799999999,0.9123368,0.1899764,0.6779733,-44.42526,-15.74939,-4.080195
22.009504795,-34.49341,16.32318,-69.2653699999997,0.9437883,0.03037428,0.6908386,-44.42526,-15.74939,-4.080195
22.01939106,-37.78832,10.38009,-57.5358300000001,1.001857,0.00748984,0.7314177,-44.40009,-17.22845,-5.681184
22.029277802,-42.07792,13.96949,-39.63605,1.04557,0.06444519,0.800913,-44.40009,-17.22845,-5.681184
22.039164543,-46.92704,20.14795,-23.20247,1.048267,0.1413564,0.7990847,-44.40009,-17.22845,-5.681184
22.049050331,-48.54341,24.32576,-12.93911,0.9418051,0.1962739,0.744823,-44.40009,-17.22845,-5.681184
22.058937073,-48.29474,18.85341,-10.43436,0.8115469,0.1960798,0.6167508,-44.40009,-17.22845,-5.681184
22.071294785,-57.4956300000001,4.848901,-15.62713,0.7160125,0.1479612,0.5125255,-42.87343,-19.16472,-6.9174
22.081181526,-70.17794,0.2003446,-20.02571,0.7348605,0.08623563,0.4580339,-42.87343,-19.16472,-6.9174
22.091068268,-82.2385600000001,-0.799977499999998,-20.57553,0.7931924,0.02336797,0.3324166,-42.87343,-19.16472,-6.9174
22.100955009,-89.0148900000003,-5.74274599999998,-19.47589,0.8317915,-0.04449941,0.1303356,-42.87343,-19.16472,-6.9174
22.110840797,-82.9845800000002,-17.68777,-20.51444,0.8112404,-0.0534473,-0.01488066,-42.87343,-19.16472,-6.9174
22.120727539,-67.8777200000003,-24.86655,-28.82287,0.7355085,-0.02492758,-0.1694866,-42.83176,-19.52511,-9.377387
22.130614281,-49.04076,-33.33987,-41.22443,0.6753465,-0.06228615,-0.2333287,-42.83176,-19.52511,-9.377387
22.140500546,-37.16664,-47.69744,-43.17935,0.9124835,-0.06283084,0.05501543,-42.83176,-19.52511,-9.377387
22.150387287,-44.19164,-23.86623,-35.66511,1.624146,-0.003430428,0.7028441,-42.83176,-19.52511,-9.377387
22.160273075,-64.3962999999998,19.79489,-37.55894,2.178696,-0.02543967,0.7704339,-42.83176,-19.52511,-9.377387
22.170159817,-100.0808,43.39073,-42.87389,2.243116,-0.224187,0.7426562,-42.44757,-19.22275,-9.762343
22.180046558,-151.1209,27.38557,-12.57256,1.218649,-0.5422392,0.01642694,-42.44757,-19.22275,-9.762343
22.1899333,-139.1224,-22.74822,5.87703800000003,0.7942521,-0.6169921,-0.2193292,-42.44757,-19.22275,-9.762343
22.199819088,-85.2848,-54.64085,18.27859,0.6795934,-0.80758,-0.2463899,-42.44757,-19.22275,-9.762343
22.20970583,-5.89605299999999,-72.82317,25.48738,0.6809292,-0.9078426,-0.3401422,-42.44757,-19.22275,-9.762343
22.219592094,82.1340599999998,-92.1823499999997,33.42926,0.6238161,-0.7172387,-0.3349184,-42.40479,-19.58434,-12.28718
22.229478836,135.7852,-82.7087199999997,16.7513,0.5945386,-0.3124415,-0.4942584,-42.40479,-19.58434,-12.28718
22.239365578,142.748,-48.16817,-14.71076,0.6631503,-0.0451106,-0.5845017,-42.40479,-19.58434,-12.28718
22.249251366,92.2674699999999,-29.45627,-20.20899,0.7416323,0.07204091,-0.5556683,-42.40479,-19.58434,-12.28718
22.259138107,23.07431,-42.81351,-10.98419,0.8641132,0.2489022,-0.3707872,-42.40479,-19.58434,-12.28718
22.269024849,-38.34784,-54.64085,5.75485600000001,1.076583,0.7283344,-0.03343811,-42.46022,-18.83037,-8.989413
22.278911591,-54.38722,-35.39936,0.1955387,1.404261,1.325289,0.1995692,-42.46022,-18.83037,-8.989413
22.291269302,-6.144726,-57.9948699999998,-23.87447,1.370402,1.309189,0.1279548,-42.46022,-18.83037,-8.989413
22.301156044,-39.5912,-48.16817,-32.73272,1.127963,0.288586,0.1689057,-42.46022,-18.83037,-8.989413
22.311041832,-44.68899,-40.63634,-20.57553,1.068921,-0.2406473,-0.05884827,-43.23763,-19.48856,-7.699794
22.320928574,-29.20911,-38.98875,-6.09687499999998,0.996083,-0.4024512,-0.07686935,-43.23763,-19.48856,-7.699794
22.330815315,-22.61929,-39.87138,-0.965197799999999,0.9616757,-0.4822679,-0.01302356,-43.23763,-19.48856,-7.699794
22.34070158,-23.1788,-41.51897,8.9927,0.9277098,-0.4121792,-0.1177762,-43.23763,-19.48856,-7.699794
22.350587845,-8.50711499999998,-49.22734,14.00219,0.9275367,-0.08537446,-0.1805049,-43.23763,-19.48856,-7.699794
22.36047411,1.999303,-51.22799,9.84797900000002,0.984439,0.09286629,-0.1726843,-42.5055,-19.855,-6.445127
22.370360851,-3.595831,-54.81738,6.18249599999998,1.015256,0.1664427,-0.1658072,-42.5055,-19.855,-6.445127
22.380247593,-14.28875,-58.2890800000002,2.639194,1.059323,0.1465992,-0.1517101,-42.5055,-19.855,-6.445127
22.390134335,-21.87327,-62.7022699999997,1.478458,1.091093,0.0929666,-0.1191813,-42.5055,-19.855,-6.445127
22.400020123,-19.69739,-63.1730099999998,4.594119,1.035332,-0.0544998,-0.1531258,-42.5055,-19.855,-6.445127
22.409906864,-12.36154,-62.8199499999999,14.30765,0.9983669,-0.1430215,-0.2484238,-42.52662,-19.83232,-5.212923
22.419793129,1.191117,-73.2350800000001,17.60658,1.116015,-0.1289306,-0.1045658,-42.52662,-19.83232,-5.212923
22.429679871,7.656606,-66.3505000000001,18.58405,1.110418,-0.0959411,0.04915583,-42.52662,-19.83232,-5.212923
22.439566136,-3.533663,-59.6424600000002,20.53897,1.018743,-0.07723428,0.05039982,-42.52662,-19.83232,-5.212923
22.4494524,-11.8642,-59.4070900000001,22.31062,0.9717531,-0.07025415,0.0224177,-42.52662,-19.83232,-5.212923
22.459339142,-12.17504,-61.7019500000003,24.20446,0.9806483,-0.04041871,-0.0003262438,-43.33056,-19.76757,-2.311706
22.469225884,-2.725477,-63.5260699999998,24.44882,1.017478,-0.04858273,0.01226084,-43.33056,-19.76757,-2.311706
22.479112625,10.14333,-61.7607900000001,24.81537,1.040807,-0.01448286,0.04866504,-43.33056,-19.76757,-2.311706
22.488998413,15.92497,-60.1132000000003,25.12083,1.050076,0.02899029,0.09125788,-43.33056,-19.76757,-2.311706
22.501357079,10.57851,-56.64149,23.28808,1.018917,0.05652623,0.1699543,-43.33056,-19.76757,-2.311706
22.511242867,0.00992228700000002,-50.34535,21.21098,1.001811,0.06924617,0.2367186,-43.74646,-17.88942,0.1184847
22.521129608,-11.73986,-44.10804,17.54549,0.9842571,0.05983661,0.256464,-43.74646,-17.88942,0.1184847
22.53101635,-20.62991,-41.22476,13.88001,0.9852087,0.05000227,0.2502628,-43.74646,-17.88942,0.1184847
22.540902614,-22.9923,-37.34116,12.78037,0.9841601,0.01616034,0.2340813,-43.74646,-17.88942,0.1184847
22.550788879,-20.19473,-33.9283,11.19199,0.9883823,-0.02422892,0.2366948,-43.74646,-17.88942,0.1184847
22.560675144,-12.54805,-29.2209,9.11488200000001,1.008285,-0.0715566,0.1681849,-43.7669,-17.48868,1.345384
22.570561886,4.175189,-26.33762,9.17597399999999,1.019048,-0.1183956,0.06599765,-43.7669,-17.48868,1.345384
22.580448627,29.91281,-26.92604,7.037775,1.008447,-0.1686226,-0.03763954,-43.7669,-17.48868,1.345384
22.590335369,57.4533000000001,-28.27942,4.594119,0.9628628,-0.2165666,-0.123534,-43.7669,-17.48868,1.345384
22.600221157,80.5176899999998,-32.39839,5.571581,0.9544778,-0.2724362,-0.1482691,-43.7669,-17.48868,1.345384
22.610107899,91.1484500000003,-32.33955,14.18547,0.9805003,-0.3081265,-0.1216085,-43.78539,-16.01678,2.557255
22.61999464,86.0506500000001,-30.86849,26.22047,0.9832235,-0.2308794,-0.1335378,-43.78539,-16.01678,2.557255
22.629880905,74.9225500000001,-28.809,32.08525,1.026003,-0.09411845,-0.1659211,-43.78539,-16.01678,2.557255
22.63976717,65.4729899999999,-25.57266,37.64456,1.051238,0.01725508,-0.2049289,-43.78539,-16.01678,2.557255
22.649653435,56.64512,-24.63118,40.8824,1.055946,0.1136331,-0.2073342,-43.78539,-16.01678,2.557255
22.659540176,47.75507,-24.45466,40.51586,1.05083,0.1993196,-0.1769941,-43.82164,-16.35666,4.63785
22.669426918,41.84909,-25.92572,38.01111,1.057759,0.2840535,-0.1110473,-43.82164,-16.35666,4.63785
22.67931366,36.93781,-24.80771,34.28453,1.086806,0.3138334,-0.03710292,-43.82164,-16.35666,4.63785
22.689199448,33.89157,-19.04115,31.22997,1.065825,0.3006356,-0.01060943,-43.82164,-16.35666,4.63785
22.699086189,29.85064,-13.45111,29.5805,1.062612,0.1811144,-0.05762029,-43.82164,-16.35666,4.63785
22.708972454,25.62321,-12.92153,30.86342,1.0439,0.08680333,-0.08169196,-44.59327,-14.43263,5.826373
22.721330643,22.32829,-11.56815,30.19141,1.056629,0.007042493,-0.04039614,-44.59327,-14.43263,5.826373
22.731217384,15.8628,-8.62602799999997,33.24598,1.079163,-0.03752632,0.01083234,-44.59327,-14.43263,5.826373
22.741103649,8.65129700000001,-5.154321,35.2009,1.108648,-0.0825853,-0.002372229,-44.59327,-14.43263,5.826373
22.750989914,7.097093,-3.447889,39.90495,1.111193,-0.09428819,-0.06819638,-44.59327,-14.43263,5.826373
22.760876179,12.9409,-3.094834,40.08822,1.085556,-0.1022535,-0.1157965,-44.22678,-12.2173,6.647099
22.77076292,22.26612,-3.624417,38.62202,1.076247,-0.1225864,-0.1089714,-44.22678,-12.2173,6.647099
22.780649662,27.9856,-2.094512,37.64456,1.12109,-0.1650933,-0.04714772,-44.22678,-12.2173,6.647099
22.790536404,27.23958,1.318352,39.29403,1.195445,-0.2329225,0.01868485,-44.22678,-12.2173,6.647099
22.800422192,27.11524,6.55533299999998,42.22642,1.253079,-0.2471704,0.05056317,-44.22678,-12.2173,6.647099
22.810308933,30.59666,8.43829199999998,41.37114,1.283219,-0.2211556,0.06826006,-44.21638,-10.77643,6.172797
22.820195675,33.8294,11.38042,38.98857,1.254794,-0.1532623,0.07798399,-44.21638,-10.77643,6.172797
22.83008194,32.58604,14.49907,35.62855,1.167982,-0.1241738,0.09024224,-44.21638,-10.77643,6.172797
22.839968204,30.34799,17.14698,35.99509,1.106267,-0.1305672,0.1104031,-44.21638,-10.77643,6.172797
22.849854469,27.42608,20.38332,37.09474,1.100788,-0.1276812,0.1724211,-44.21638,-10.77643,6.172797
22.859741211,19.34422,26.32641,35.934,1.144286,-0.1236088,0.2551684,-44.90406,-8.876001,6.130548
22.869627953,4.237358,37.80069,34.58999,1.168451,-0.1289752,0.2903302,-44.90406,-8.876001,6.130548
22.879514694,-7.76109800000001,49.62803,35.75073,1.156084,-0.1832159,0.3088652,-44.90406,-8.876001,6.130548
22.889400482,-12.23721,61.9261100000003,35.50636,1.116662,-0.2292421,0.2869306,-44.90406,-8.876001,6.130548
22.899287224,-13.16973,68.1634100000001,33.67362,1.047853,-0.22734,0.2421171,-44.90406,-8.876001,6.130548
22.909173489,-11.42902,70.2817499999997,28.90849,0.9918768,-0.2228258,0.1131438,-44.88032,-7.449447,4.878012
22.91906023,0.5694358,70.2229000000002,21.82189,0.9345166,-0.1884108,-0.002997293,-44.88032,-7.449447,4.878012
22.928946495,21.20927,66.1039300000003,16.50694,0.8422673,-0.09465598,-0.258945,-44.88032,-7.449447,4.878012
22.941304684,61.9294099999999,46.86243,3.433383,0.8485653,0.03264214,-0.4731101,-44.88032,-7.449447,4.878012
22.951190948,76.4767600000001,42.86115,-5.363778,0.9095193,0.09593112,-0.4988495,-44.88032,-7.449447,4.878012
22.961077213,69.3274200000002,43.03767,-13.0002,0.9620748,0.02140491,-0.4604203,-45.58092,-5.664807,1.91684
22.970963955,53.97189,46.86243,-18.80388,1.047634,-0.1386918,-0.3431311,-45.58092,-5.664807,1.91684
22.980850697,40.73007,51.45215,-26.07376,1.083268,-0.3120551,-0.2729619,-45.58092,-5.664807,1.91684
22.990737438,36.3783,53.68816,-28.82287,1.064283,-0.4643611,-0.2674046,-45.58092,-5.664807,1.91684
23.000623226,40.23272,52.92321,-26.92904,0.9919131,-0.4649044,-0.2482473,-45.58092,-5.664807,1.91684
23.010509968,45.64135,49.09845,-28.76178,0.8793141,-0.2777036,-0.1848779,-46.3068,-4.926277,0.3326043
23.020396709,50.55264,41.74314,-37.74222,0.7967815,-0.0819317,-0.0979525,-46.3068,-4.926277,0.3326043
23.030282974,45.64135,34.56436,-47.76121,0.7626883,0.06509783,-0.04006188,-46.3068,-4.926277,0.3326043
23.040169239,23.13648,29.15085,-55.82527,0.7738873,0.1335258,0.04328532,-46.3068,-4.926277,0.3326043
23.050055504,-2.849813,32.21066,-60.5903999999999,0.8288909,0.03796047,0.04286894,-46.3068,-4.926277,0.3326043
23.059942245,-18.82703,31.21033,-61.1402200000001,0.9272704,-0.1801542,-0.00545186,-45.89564,-5.726107,-1.723498
23.069828987,-22.37062,31.21033,-59.4907500000002,1.00477,-0.3986714,-0.05090884,-45.89564,-5.726107,-1.723498
23.079715729,-12.23721,31.97529,-60.2238500000002,1.052265,-0.5719058,-0.06825444,-45.89564,-5.726107,-1.723498
23.089601517,5.232048,31.50455,-62.36205,1.067111,-0.6866168,-0.1494144,-45.89564,-5.726107,-1.723498
23.099488258,30.47232,27.38557,-65.9664400000001,1.043697,-0.7470477,-0.1880903,-45.89564,-5.726107,-1.723498
23.109374523,52.66636,24.56113,-66.2719,0.9773307,-0.6974757,-0.1711031,-46.25367,-7.571734,-3.003498
23.119261265,67.6488799999999,19.44184,-67.0049900000003,0.890802,-0.6149402,-0.199512,-46.25367,-7.571734,-3.003498
23.129148006,77.9687999999997,14.49907,-67.5548200000002,0.8533349,-0.4959209,-0.1914995,-46.25367,-7.571734,-3.003498
23.139033794,78.9634900000002,11.4981,-66.3940699999999,0.8488656,-0.3634813,-0.160914,-46.25367,-7.571734,-3.003498
23.15139246,73.1818499999999,4.260476,-66.8827999999998,0.872227,-0.1888398,-0.1377238,-45.48903,-9.046332,-3.74424
23.161278725,68.45706,-4.448212,-65.5388,0.9025171,-0.1319193,-0.1374961,-45.48903,-9.046332,-3.74424
23.17116499,64.7269699999998,-10.09709,-65.1111599999999,0.9283298,-0.1016716,-0.1304058,-45.48903,-9.046332,-3.74424
23.181051731,62.4267600000003,-19.74726,-65.7831599999998,0.9655725,-0.1267934,-0.1119615,-45.48903,-9.046332,-3.74424
23.190938473,62.48893,-24.98424,-66.6995299999998,0.9948325,-0.1013448,-0.1322555,-45.48903,-9.046332,-3.74424
23.200824261,58.6345000000003,-29.04437,-65.7831599999998,1.023876,-0.05661137,-0.0353025,-45.5084,-12.37154,-2.919154
23.210711002,45.57919,-33.1045,-65.5998899999998,1.01734,0.02238094,-0.02945713,-45.5084,-12.37154,-2.919154
23.220597744,39.23803,-42.22509,-70.54829,0.9599937,0.07561637,-0.1245328,-45.5084,-12.37154,-2.919154
23.230484009,40.41923,-55.8177,-74.0915900000003,0.9368305,0.09571144,-0.1515923,-45.5084,-12.37154,-2.919154
23.24037075,50.11746,-63.5849100000001,-75.1301500000001,0.9260504,0.07647042,-0.1370797,-45.5084,-12.37154,-2.919154
23.250256538,47.63073,-67.0566099999997,-71.52576,0.9247951,0.05786673,-0.046093,-45.54128,-14.54586,-1.202041
23.26014328,33.39423,-70.1752600000002,-63.7060499999998,0.9121302,-0.02882991,0.04907215,-45.54128,-14.54586,-1.202041
23.270030022,21.89312,-60.8781500000002,-53.62598,0.9109063,-0.1023713,0.04848055,-45.54128,-14.54586,-1.202041
23.279916763,19.28205,-53.8759,-48.00557,0.9017646,-0.1297342,-0.02401065,-45.54128,-14.54586,-1.202041
23.289803028,22.88781,-48.46239,-45.43973,0.9289939,-0.1400446,-0.0585539,-45.54128,-14.54586,-1.202041
23.299689293,23.82033,-42.81351,-43.36263,0.9916241,-0.1293261,-0.04988028,-44.84162,-17.46587,1.710191
23.309575558,15.55196,-41.75434,-40.30806,1.036406,-0.122256,-0.09218614,-44.84162,-17.46587,1.710191
23.319462299,3.304835,-41.57782,-33.77128,1.060671,-0.1456723,-0.1242619,-44.84162,-17.46587,1.710191
23.329349041,-13.29406,-43.87267,-24.54648,1.05616,-0.203483,-0.148021,-44.84162,-17.46587,1.710191
23.339234829,-28.4631,-51.22799,-13.7333,1.051527,-0.2834128,-0.1529125,-44.84162,-17.46587,1.710191
23.349121571,-34.74208,-56.52381,-3.897585,1.057483,-0.3364263,-0.08242331,-44.19674,-19.636,4.221268
23.359008312,-37.16664,-57.4064399999998,0.6842698,1.086313,-0.4216449,0.1171414,-44.19674,-19.636,4.221268
23.371366024,-63.7746200000002,-42.28393,3.189017,1.171909,-0.5663859,0.642655,-44.19674,-19.636,4.221268
23.381252766,-104.7434,-19.09999,6.36576900000001,1.334221,-0.5827155,0.9401312,-44.19674,-19.636,4.221268
23.391139507,-75.0270499999999,12.73379,-7.56306800000003,1.314814,-0.3342301,0.4896733,-44.19674,-19.636,4.221268
23.401026249,-25.78987,-12.45079,-16.6046,1.209024,-0.06824319,0.05826548,-44.20521,-20.0057,4.680542
23.410912037,33.70507,-39.28296,-10.19,1.155011,-0.01800882,0.1863561,-44.20521,-20.0057,4.680542
23.420798779,77.4714499999999,-33.16334,-5.241595,1.109471,0.1373004,0.3730787,-44.20521,-20.0057,4.680542
23.430685043,71.0681300000001,-18.21735,-4.752864,1.033093,0.1320844,0.4374617,-44.20521,-20.0057,4.680542
23.440571785,46.94688,-6.331171,-5.608143,0.9436234,-0.07465862,0.4081067,-44.20521,-20.0057,4.680542
23.450458527,37.80817,-3.271362,-4.447407,0.8807614,-0.2740086,0.2253307,-43.83423,-19.62601,5.072934
23.460344315,51.42299,-11.56815,0.745361200000002,0.863232,-0.3422947,0.1506322,-43.83423,-19.62601,5.072934
23.470231056,63.2971100000001,-13.09806,10.3978,0.9412117,-0.2966937,0.0841233,-43.83423,-19.62601,5.072934
23.480117798,53.41237,-11.27394,19.50042,1.050601,-0.09807599,0.09382426,-43.83423,-19.62601,5.072934
23.490004063,30.59666,-2.094512,27.01466,1.13937,0.0433452,0.1186994,-43.83423,-19.62601,5.072934
23.499890804,9.64598800000001,4.437004,34.65108,1.104177,0.2488358,0.1128117,-44.61774,-19.96199,6.747252
23.509777069,-1.046937,2.495202,29.21395,1.070181,0.4141608,0.1566633,-44.61774,-19.96199,6.747252
23.519663334,2.372312,-3.624417,14.49092,1.026235,0.575489,0.0947211,-44.61774,-19.96199,6.747252
23.529550076,17.85218,-5.80158899999998,-2.675757,0.9863122,0.5201039,0.06561941,-44.61774,-19.96199,6.747252
23.539436817,19.84157,-4.153999,-11.04528,1.025683,0.2122985,0.003738032,-44.61774,-19.96199,6.747252
23.549322605,16.04931,0.02381719,-11.71728,1.046535,0.04475171,-0.0276133,-44.6158,-18.89082,6.732224
23.559209347,13.93559,2.965941,-7.01324599999999,1.052206,-0.02097094,-0.05805368,-44.6158,-18.89082,6.732224
23.569096088,8.27828799999998,5.613853,3.494474,0.9835474,0.05064576,-0.06522655,-44.6158,-18.89082,6.732224
23.578982353,5.356384,4.790059,5.75485600000001,0.9209375,0.1536775,-0.1201625,-44.6158,-18.89082,6.732224
23.591340542,4.859039,0.2591871,6.304678,0.9176178,0.1566757,-0.1480748,-44.6158,-18.89082,6.732224
23.601227283,5.667225,-5.154321,7.15995799999999,0.9346015,0.1372628,-0.1739271,-44.93592,-18.501,7.108886
23.611113548,7.53226999999998,-10.45015,6.91559200000002,0.9485902,0.1208658,-0.1613244,-44.93592,-18.501,7.108886
23.620999813,9.33514699999999,-14.86333,5.632673,0.9673398,0.09210783,-0.1279742,-44.93592,-18.501,7.108886
23.630886078,13.74909,-17.33472,3.372291,0.9772483,0.05108764,-0.06908331,-44.93592,-18.501,7.108886
23.640772819,17.97652,-17.80546,2.211555,1.009039,0.01972008,-0.01310181,-44.93592,-18.501,7.108886
23.650659561,18.4117,-15.98134,2.822469,1.0492,0.008987261,0.02354809,-44.63692,-18.86815,7.964427
23.660546303,17.16833,-11.74468,2.517012,1.079762,0.009034711,0.03079642,-44.63692,-18.86815,7.964427
23.670432091,16.48449,-7.15496600000002,1.661732,1.070645,0.01087638,-0.01010155,-44.63692,-18.86815,7.964427
23.680318832,17.72785,-5.448534,1.356275,1.038783,0.03025006,-0.05399949,-44.63692,-18.86815,7.964427
23.690205097,19.09555,-6.390014,2.517012,1.006379,0.04600241,-0.07960476,-44.63692,-18.86815,7.964427
23.700091839,17.35484,-7.15496600000002,4.410845,0.9769387,0.08829585,-0.08850854,-44.63487,-17.73397,7.948515
23.70997858,14.3086,-7.91991900000001,5.327216,0.9795935,0.1331312,-0.1185492,-44.63487,-17.73397,7.948515
23.719864368,12.9409,-8.21413099999998,5.205033,0.9890134,0.177646,-0.1365575,-44.63487,-17.73397,7.948515
23.72975111,10.95152,-6.62538299999997,4.65521,0.997815,0.1966269,-0.1361625,-44.63487,-17.73397,7.948515
23.739637852,6.91058800000001,-4.918952,3.799931,1.006973,0.1855671,-0.1255159,-44.63487,-17.73397,7.948515
23.749524593,3.304835,-2.212197,3.555565,1.005948,0.1749641,-0.1182497,-44.27835,-17.33876,9.183994
23.759410858,-1.295609,-0.1527103,2.578103,0.997098,0.1443468,-0.1152195,-44.27835,-17.33876,9.183994
23.769297123,-7.38808899999998,-0.6234501,2.211555,1.00126,0.09040215,-0.1072474,-44.27835,-17.33876,9.183994
23.779183388,-10.74517,-2.800622,3.005743,1.009363,0.05151639,-0.1012707,-44.27835,-17.33876,9.183994
23.789070129,-10.93167,-4.448212,4.044297,1.000493,0.02998064,-0.07712588,-44.27835,-17.33876,9.183994
23.798956871,-9.75047899999999,-5.448534,4.16648,0.9815018,0.01498022,-0.0732243,-44.97012,-17.7067,9.173569
23.811314583,-6.57990299999997,-6.09580100000001,4.349754,0.9896866,-0.005516618,-0.0750351,-44.97012,-17.7067,9.173569
23.821201324,-3.409327,-5.566219,4.16648,1.010076,-0.007569413,-0.07932983,-44.97012,-17.7067,9.173569
23.831088066,-2.352468,-5.036636,4.594119,1.008151,-0.002696108,-0.07935665,-44.97012,-17.7067,9.173569
23.840973854,-3.844504,-4.801267,4.288662,0.9911754,0.00621757,-0.07172626,-44.97012,-17.7067,9.173569
23.850860596,-5.398708,-5.91927400000001,4.288662,0.987798,0.01604952,-0.06600873,-44.95636,-18.10027,8.335786
23.860747337,-5.274371,-6.91959600000003,5.51049,0.9951174,0.02723491,-0.06605694,-44.95636,-18.10027,8.335786
23.870633602,-3.036318,-7.39033600000002,6.36576900000001,1.001948,0.03645189,-0.06753851,-44.95636,-18.10027,8.335786
23.880520344,1.128949,-5.86043100000001,5.81594700000002,0.9990683,0.03973683,-0.07621495,-44.95636,-18.10027,8.335786
23.890406132,4.610366,-4.153999,4.65521,0.9985851,0.02628818,-0.09634624,-44.95636,-18.10027,8.335786
23.900292873,8.15395200000002,-3.565574,4.227571,1.017034,0.01776508,-0.1102289,-44.97722,-17.32028,9.622233
23.910179615,10.95152,-2.859464,4.227571,1.036005,0.02990853,-0.1097878,-44.97722,-17.32028,9.622233
23.920066357,12.81656,-1.917985,3.738839,1.019534,0.04267368,-0.1050618,-44.97722,-17.32028,9.622233
23.929952145,12.19488,-1.682615,3.189017,1.002543,0.04471976,-0.1007632,-44.97722,-17.32028,9.622233
23.939838886,11.20019,-2.565252,2.944651,0.991367,0.04531507,-0.09500783,-44.97722,-17.32028,9.622233
23.949725628,10.82718,-3.624417,3.250108,0.9971789,0.04836907,-0.08539823,-44.96944,-17.32863,9.168264
23.959611893,9.89465999999999,-3.506732,3.433383,1.015135,0.06825733,-0.05566121,-44.96944,-17.32863,9.168264
23.969498634,8.27828799999998,-2.03567,3.616657,1.036999,0.08051729,-0.04704172,-44.96944,-17.32863,9.168264
23.979384422,7.47010199999997,0.965297,3.555565,1.032594,0.06632537,-0.05226515,-44.96944,-17.32863,9.168264
23.989271164,7.53226999999998,3.377839,2.639194,1.012103,0.02273971,-0.07130504,-44.96944,-17.32863,9.168264
23.999157906,8.96213800000002,3.848579,2.272646,0.982463,-0.006857282,-0.1005254,-44.28476,-16.5743,9.627356
24.009044647,10.88935,3.142469,2.394829,0.9694684,0.006901723,-0.1265794,-44.28476,-16.5743,9.627356
24.018930912,12.19488,2.377517,2.394829,0.967627,0.04210237,-0.1176219,-44.28476,-16.5743,9.627356
24.031289101,10.019,1.671407,2.578103,0.9856859,0.08323652,-0.1000151,-44.28476,-16.5743,9.627356
24.041175842,6.35107500000001,0.906454499999998,3.433383,1.019214,0.1093093,-0.07798638,-44.97586,-16.56416,9.611626
24.05106163,4.361694,1.612564,3.922114,1.033806,0.1294899,-0.06172046,-44.97586,-16.56416,9.611626
24.060948372,3.11833,2.789414,3.861022,1.031767,0.1136906,-0.04384886,-44.97586,-16.56416,9.611626
24.070834637,1.191117,5.496168,4.533028,1.018938,0.04685996,-0.05314415,-44.97586,-16.56416,9.611626
24.080721378,2.310144,6.49648999999998,4.227571,1.002369,0.007003997,-0.08277868,-44.97586,-16.56416,9.611626
24.09060812,6.04023399999999,6.849545,4.410845,0.9897239,-0.01421183,-0.1028845,-44.66839,-16.56161,10.00789
24.100493908,8.402624,6.437648,4.716302,1.006247,-0.0004373287,-0.09139325,-44.66839,-16.56161,10.00789
24.11038065,7.843111,6.96723000000003,4.288662,1.017013,0.04626178,-0.06083805,-44.66839,-16.56161,10.00789
24.120267391,4.610366,8.90903199999997,3.127926,1.006386,0.07282972,-0.04415216,-44.66839,-16.56161,10.00789
24.130154133,-0.3009185,10.43894,2.02828,0.9938394,0.1012558,-0.0337298,-44.66839,-16.56161,10.00789
24.140040398,-5.274371,10.67431,1.050818,0.993802,0.09751124,-0.02361158,-45.35225,-16.24359,9.598626
24.149926662,-8.94229299999998,9.55629900000002,2.150463,1.011697,0.08444326,-0.01583046,-45.35225,-16.24359,9.598626
24.159812927,-11.11818,9.026717,3.677748,1.024264,0.08226406,0.002950761,-45.35225,-16.24359,9.598626
24.169699669,-12.23721,9.73282600000002,4.288662,1.018359,0.0598904,0.004018951,-45.35225,-16.24359,9.598626
24.179586411,-13.2319,10.61546,4.105388,1.00379,0.04702842,-0.01132209,-45.35225,-16.24359,9.598626
24.189473152,-12.29937,11.0862,2.761377,0.9892394,0.04798793,-0.01422901,-44.9675,-16.25747,9.153236
24.19935894,-10.99384,10.96852,1.478458,0.9872583,0.03928427,-0.01033991,-44.9675,-16.25747,9.153236
24.209245682,-10.86951,10.79199,0.3177214,0.9979165,0.0448641,0.005995324,-44.9675,-16.25747,9.153236
24.219131947,-11.49119,11.32157,-0.904106400000002,1.003763,0.05864531,0.0165126,-44.9675,-16.25747,9.153236
24.229018688,-13.10756,11.85116,-1.698295,1.005735,0.07039293,0.02078376,-44.9675,-16.25747,9.153236
24.23890543,-15.03477,12.43958,-2.614666,1.006708,0.07386436,0.02509561,-45.7292,-16.23806,9.590046
24.251263142,-18.20535,13.4399,-3.897585,1.019838,0.07915173,0.0221983,-45.7292,-16.23806,9.590046
24.261149883,-21.99761,13.8518,-4.019767,1.027668,0.09714623,0.02163535,-45.7292,-16.23806,9.590046
24.271035671,-28.4631,14.20485,-4.019767,1.04372,0.1088373,0.02399913,-45.7292,-16.23806,9.590046
24.280922413,-36.42062,15.44055,-4.080859,1.054036,0.1443642,0.02383133,-45.7292,-16.23806,9.590046
24.290809155,-47.54872,16.97045,-4.691772,1.056189,0.2027437,0.02017232,-45.32392,-16.58966,7.916873
24.300695896,-57.6821300000002,20.03026,-7.19651999999998,1.06215,0.2411794,0.01854211,-45.32392,-16.58966,7.916873
24.310582161,-64.8936500000001,25.38493,-8.78489600000001,1.029083,0.2172548,0.009968827,-45.32392,-16.58966,7.916873
24.320468426,-73.9701899999997,29.5039,-7.44088499999998,0.9814547,0.1903653,-0.003415237,-45.32392,-16.58966,7.916873
24.330355167,-82.2385600000001,27.67978,-5.547052,0.9992554,0.149527,0.003544267,-45.32392,-16.58966,7.916873
24.340241432,-87.33635,26.09104,-4.508498,1.038335,0.1235662,0.06383502,-45.3028,-16.61234,6.684669
24.350128174,-91.6259500000001,27.03252,-4.630681,1.081702,0.06278618,0.1084362,-45.3028,-16.61234,6.684669
24.360014916,-90.7556000000003,28.03284,-2.187026,1.075024,-0.09063692,0.04091312,-45.3028,-16.61234,6.684669
24.369900704,-76.6434199999999,19.26531,0.928635399999997,1.002437,-0.2590075,-0.09057187,-45.3028,-16.61234,6.684669
24.379787445,-46.98921,9.026717,-1.148472,0.9323558,-0.3557185,-0.1517207,-45.3028,-16.61234,6.684669
24.389674187,-15.15911,1.377194,-5.119412,0.8923479,-0.4115596,-0.1461939,-45.2686,-17.40664,4.619987
24.399560452,5.045544,0.5533996,-6.76888000000001,0.8849376,-0.4166982,-0.100008,-45.2686,-17.40664,4.619987
24.409447193,13.43825,2.907099,-2.431391,0.8992642,-0.3536171,-0.1132953,-45.2686,-17.40664,4.619987
24.419332981,18.84688,6.55533299999998,0.1344473,0.9120731,-0.2016459,-0.1746447,-45.2686,-17.40664,4.619987
24.429219723,25.12586,9.497457,-0.781923700000001,0.9196466,-0.1223958,-0.1822504,-45.2686,-17.40664,4.619987
24.439106464,27.17741,10.55662,0.01226447,0.926155,-0.04851975,-0.1585703,-46.00806,-17.4111,3.759741
24.448993206,27.17741,10.38009,0.6842698,0.936789,-0.03482514,-0.1206346,-46.00806,-17.4111,3.759741
24.461350918,30.9075,10.32125,3.3112,0.9526169,-0.06998681,-0.09254554,-46.00806,-17.4111,3.759741
24.47123766,35.32144,9.203244,5.143942,0.9772522,-0.09018543,-0.07221678,-46.00806,-17.4111,3.759741
24.481124401,40.91657,7.26144300000002,6.48795199999999,1.011776,-0.07671251,-0.07849757,-46.00806,-17.4111,3.759741
24.491010189,50.49047,3.260154,5.75485600000001,1.021766,-0.006361724,-0.09471212,-46.00208,-17.79632,3.375928
24.500896931,59.5670199999998,-2.74178,3.433383,1.050254,0.08750585,-0.09900144,-46.00208,-17.79632,3.375928
24.510783196,62.3024200000003,-9.80287800000002,2.089372,1.095212,0.1541704,-0.1291043,-46.00208,-17.79632,3.375928
24.520669937,58.2614899999999,-15.62828,1.661732,1.106653,0.1927065,-0.1884393,-46.00208,-17.79632,3.375928
24.530556679,50.73914,-18.57041,1.600641,1.058621,0.181729,-0.2124845,-46.00208,-17.79632,3.375928
24.540442467,39.54887,-19.86494,2.700286,1.009466,0.145835,-0.2094735,-45.63845,-17.78753,4.162742
24.550329208,27.23958,-20.86526,4.16648,0.9738739,0.1294947,-0.1671103,-45.63845,-17.78753,4.162742
24.56021595,18.84688,-19.21768,4.899576,0.9774875,0.1162594,-0.07470251,-45.63845,-17.78753,4.162742
24.570102692,16.85749,-15.21639,2.45592,0.9904147,0.1108885,-0.00877448,-45.63845,-17.78753,4.162742
24.579988956,15.30329,-11.03857,-0.904106400000002,0.9990115,0.08836585,0.01683792,-45.63845,-17.78753,4.162742
24.589875698,12.07055,-9.44982299999999,-2.492483,0.9969308,0.06635848,0.04291651,-45.66531,-16.62232,5.833003
24.599761486,10.45417,-9.97940500000002,-3.286671,0.9996933,0.04739265,0.07764181,-45.66531,-16.62232,5.833003
24.609648228,9.83249199999998,-10.97973,-2.920122,0.9957983,0.04996451,0.08628095,-45.66531,-16.62232,5.833003
24.619534969,8.402624,-11.15625,-1.637203,1.012252,0.06068997,0.1218336,-45.66531,-16.62232,5.833003
24.629421711,6.47541100000003,-9.97940500000002,-2.003752,1.033569,0.05940986,0.1367729,-45.66531,-16.62232,5.833003
24.639307976,4.361694,-7.037281,-2.920122,1.051515,0.03307716,0.1042237,-45.29502,-16.62069,6.2307
24.64919424,6.59974800000002,-3.330204,-4.019767,1.054442,-0.006833636,0.04094715,-45.29502,-16.62069,6.2307
24.659080505,12.9409,-0.976504999999998,-4.508498,1.020463,-0.04655648,-0.01467759,-45.29502,-16.62069,6.2307
24.668967247,19.59289,-1.035347,-4.56959,0.9768446,-0.04837688,-0.04453509,-45.29502,-16.62069,6.2307
24.681325436,24.069,-3.565574,-4.691772,0.9420086,0.001749106,-0.01885827,-45.29502,-16.62069,6.2307
24.6912117,22.14179,-6.743068,-4.019767,0.9392665,0.07184132,0.01108244,-46.05808,-17.3574,6.678118
24.701098442,17.35484,-9.037926,-3.469945,0.9704848,0.12455,0.02287461,-46.05808,-17.3574,6.678118
24.710985184,13.06524,-10.09709,-1.759386,1.007043,0.153851,0.0006457453,-46.05808,-17.3574,6.678118
24.720870972,11.82187,-10.03825,-1.026289,1.028983,0.1616544,-0.02822401,-46.05808,-17.3574,6.678118
24.730757713,11.5732,-8.27297300000001,-1.637203,1.034432,0.1554748,-0.08253066,-46.05808,-17.3574,6.678118
24.740644455,8.402624,-6.50769899999997,-2.981214,1.013506,0.1145601,-0.1184168,-46.06475,-17.35024,7.067234
24.75053072,1.377622,-7.44917799999999,-2.675757,0.9924833,0.05335183,-0.1436202,-46.06475,-17.35024,7.067234
24.760417461,-6.20689400000001,-8.15528900000001,-1.392838,0.9507499,0.04292796,-0.1623709,-46.06475,-17.35024,7.067234
24.770303726,-7.32592100000003,-11.56815,-1.209563,0.9337693,0.03644424,-0.1748614,-46.06475,-17.35024,7.067234
24.780189991,-2.352468,-16.21671,-0.5375581,0.9531772,0.04441278,-0.160452,-46.06475,-17.35024,7.067234
24.790076733,4.237358,-19.98263,-0.2931925,0.9827884,0.0677226,-0.1283144,-45.31793,-16.97488,7.53306
24.799963474,7.78094299999999,-21.63022,-1.576112,0.9895589,0.07632528,-0.1057469,-45.31793,-16.97488,7.53306
24.809850216,6.72408399999998,-21.04179,-1.94266,0.9953178,0.06279433,-0.09797719,-45.31793,-16.97488,7.53306
24.819736004,2.247976,-20.98295,-1.637203,0.9966784,0.04398751,-0.08537666,-45.31793,-16.97488,7.53306
24.829622745,-2.041627,-20.68874,-0.904106400000002,0.9985784,0.04076203,-0.07285425,-45.31793,-16.97488,7.53306
24.83950901,-4.901362,-20.27684,-1.026289,0.9970846,0.0449841,-0.05123583,-44.95431,-16.96609,8.319874
24.849395752,-6.766407,-19.3942,-1.51502,1.004776,0.0583773,-0.001278979,-44.95431,-16.96609,8.319874
24.859282494,-10.18566,-16.39324,-0.965197799999999,1.030532,0.1004289,0.04614899,-44.95431,-16.96609,8.319874
24.869168282,-14.41309,-13.27458,-1.331746,1.050956,0.1324932,0.07630821,-44.95431,-16.96609,8.319874
24.879055023,-15.53212,-8.33181600000001,-2.675757,1.061089,0.1298679,0.09749352,-44.95431,-16.96609,8.319874
24.888941765,-14.9726,-3.977472,-3.71431,1.057455,0.07563139,0.1174812,-45.3464,-17.32311,9.159684
24.901299477,-15.65645,-2.153355,-2.920122,1.036846,0.0173675,0.1264088,-45.3464,-17.32311,9.159684
24.911186218,-12.54805,-1.917985,-2.859031,1.029974,-0.008012218,0.12172,-45.3464,-17.32311,9.159684
24.92107296,-8.32061100000001,0.3180296,-1.698295,1.036883,-0.003273329,0.08130657,-45.3464,-17.32311,9.159684
24.930959225,-3.471495,3.377839,-0.4153753,1.050253,0.05027003,0.04882949,-44.96944,-17.32863,9.168264
24.940845966,0.693772100000003,7.79102499999999,-0.965197799999999,1.049453,0.09696132,0.04474527,-44.96944,-17.32863,9.168264
24.950732231,-1.792954,11.38042,-2.553574,1.032961,0.1143463,0.06531826,-44.96944,-17.32863,9.168264
24.960618496,-8.50711499999998,12.67495,-4.264133,1.009207,0.113705,0.05182871,-44.96944,-17.32863,9.168264
24.970505238,-12.98322,11.26273,-3.775402,0.9850037,0.1163294,0.02870371,-44.96944,-17.32863,9.168264
24.980391979,-14.84827,9.438614,-2.553574,0.9729506,0.1153415,-0.006412234,-44.96209,-16.95774,8.773843
24.990278244,-14.35092,8.96787499999997,-2.003752,0.9958165,0.1065005,-0.04096787,-44.96209,-16.95774,8.773843
25.000164509,-13.29406,10.49778,-1.51502,1.022954,0.07636906,-0.06579265,-44.96209,-16.95774,8.773843
25.01005125,-13.35623,13.67527,-1.331746,1.035493,0.04699067,-0.07476743,-44.96209,-16.95774,8.773843
25.019937515,-14.35092,15.49939,-1.453929,1.028555,0.01407151,-0.06258594,-44.96209,-16.95774,8.773843
25.029824257,-14.72393,16.44087,-1.820477,0.996471,-0.005959459,-0.07117779,-44.94969,-18.10743,7.946669
25.039710999,-11.49119,15.91129,-1.881569,0.9682984,-0.01025039,-0.06878353,-44.94969,-18.10743,7.946669
25.049596787,-5.89605299999999,15.32286,-1.576112,0.9697204,-0.02845009,-0.08071297,-44.94969,-18.10743,7.946669
25.059483528,-0.05224587,15.49939,-0.2931925,0.9973291,-0.04107908,-0.0748467,-44.94969,-18.10743,7.946669
25.06937027,4.361694,16.32318,1.356275,1.004551,-0.05166966,-0.06564748,-44.94969,-18.10743,7.946669
25.079256535,7.03492499999999,16.85277,2.150463,0.9880589,-0.03080412,-0.04028285,-44.94234,-17.73653,7.552248
25.089143276,8.15395200000002,16.85277,2.761377,1.002113,-0.003824838,0.007207979,-44.94234,-17.73653,7.552248
25.099030018,11.20019,18.50036,3.005743,1.049318,0.04805088,0.03056464,-44.94234,-17.73653,7.552248
25.108915806,13.81125,22.03091,3.433383,1.072781,0.1171318,0.0615021,-44.94234,-17.73653,7.552248
25.121274471,7.53226999999998,26.26756,5.266125,1.055971,0.1822242,0.08087181,-44.94234,-17.73653,7.552248
25.131160259,-2.041627,30.50422,5.327216,1.032756,0.1936908,0.06299339,-45.31083,-17.36129,7.084394
25.141047001,-9.87481500000001,30.3277,4.533028,1.008396,0.1699287,0.06645222,-45.31083,-17.36129,7.084394
25.150933743,-15.65645,28.68011,5.266125,0.9985867,0.1178425,0.03400164,-45.31083,-17.36129,7.084394
25.160820484,-16.65115,28.38589,7.58759699999999,0.9894452,0.1069013,-0.01500741,-45.31083,-17.36129,7.084394
25.170706749,-17.64584,28.44474,9.17597399999999,0.9769568,0.1095797,-0.06553185,-45.31083,-17.36129,7.084394
25.180593014,-21.18942,27.5621,9.90907000000003,0.9804767,0.114275,-0.1093154,-45.28373,-17.76919,5.468378
25.190479755,-23.73832,27.85631,9.053791,0.9820538,0.1219677,-0.1483071,-45.28373,-17.76919,5.468378
25.20036602,-24.04916,25.2084,5.51049,0.977701,0.1154087,-0.1641493,-45.28373,-17.76919,5.468378
25.210252762,-24.04916,17.67656,-0.2321011,0.9324064,0.09209059,-0.1337849,-45.28373,-17.76919,5.468378
25.220139504,-22.18411,12.20421,-7.86852500000001,0.9053761,0.02160286,-0.09642854,-45.28373,-17.76919,5.468378
25.230025768,-17.95668,9.026717,-13.06129,0.9157041,-0.04040015,-0.04031663,-45.26081,-17.41499,4.166018
25.239912033,-16.27814,6.26111999999998,-11.65619,0.9687056,-0.09576891,0.04178001,-45.26081,-17.41499,4.166018
25.249798775,-16.21597,7.084915,-7.19651999999998,1.021384,-0.098417,0.1322664,-45.26081,-17.41499,4.166018
25.25968504,-11.55336,11.43926,-5.974692,1.054846,-0.04555075,0.2200459,-45.26081,-17.41499,4.166018
25.269571781,-4.65269,15.38171,-7.01324599999999,1.050492,0.01557493,0.3014886,-45.26081,-17.41499,4.166018
25.279458523,-3.96884,20.14795,-7.68525100000001,1.023914,0.06813371,0.3281244,-45.6258,-18.17991,3.389812
25.289344311,-5.150035,25.2084,-6.82997100000002,1.005616,0.08715181,0.2948239,-45.6258,-18.17991,3.389812
25.299231052,-0.736095699999999,28.68011,-5.669235,0.9908704,0.1096612,0.2023566,-45.6258,-18.17991,3.389812
25.309117794,5.107712,27.67978,-2.431391,0.9716085,0.1082345,0.1369366,-45.6258,-18.17991,3.389812
25.319004059,7.656606,29.15085,1.906098,0.9721835,0.1176201,0.1133247,-45.6258,-18.17991,3.389812
25.331362248,6.288907,35.62352,6.48795199999999,1.00971,0.1539019,0.1021229,-45.23439,-18.20095,2.555305
25.341248989,-0.984768300000001,38.5068,8.9927,1.033289,0.204338,0.0586119,-45.23439,-18.20095,2.555305
25.351135254,-10.86951,40.4486,8.68724300000001,1.094171,0.2576312,0.04831249,-45.23439,-18.20095,2.555305
25.361021996,-23.67615,46.50938,11.49745,1.164285,0.2809846,-0.008955414,-45.23439,-18.20095,2.555305
25.370907784,-35.23943,49.68687,17.85095,1.235331,0.3200068,-0.02782774,-45.23439,-18.20095,2.555305
25.380794525,-42.82394,52.15826,22.98263,1.239887,0.3596186,-0.04870234,-45.96719,-18.21257,1.305942
25.390681267,-50.96797,50.80488,22.98263,1.236969,0.3969868,0.007373271,-45.96719,-18.21257,1.305942
25.400568009,-60.4796999999997,52.2171,13.57455,1.187864,0.3846604,0.02325012,-45.96719,-18.21257,1.305942
25.410454273,-64.2719599999997,48.68655,6.85450100000001,1.128491,0.2902264,-0.04703558,-45.96719,-18.21257,1.305942
25.420340538,-62.0960700000003,38.15375,4.777393,1.113604,0.2440426,0.02147167,-45.96719,-18.21257,1.305942
25.43022728,-66.8208499999998,31.91644,-5.180504,0.985146,0.1522556,0.02130851,-45.92427,-17.87985,-1.163769
25.440113545,-67.5668699999999,22.8547,-7.92961600000002,0.9981294,-0.01412726,0.03418709,-45.92427,-17.87985,-1.163769
25.450000286,-61.7852300000002,15.26402,-1.637203,0.9930366,-0.06684967,0.05753193,-45.92427,-17.87985,-1.163769
25.459887028,-54.44939,10.67431,5.266125,1.009136,-0.02012516,0.09049768,-45.92427,-17.87985,-1.163769
25.469772816,-48.54341,9.497457,5.75485600000001,0.9613452,0.01663766,0.03495164,-45.92427,-17.87985,-1.163769
25.479659557,-39.83987,5.260798,8.19851100000001,0.8983027,0.03233026,0.03383882,-45.87357,-17.55549,-4.087449
25.489546299,-31.63367,1.494879,4.349754,0.912101,-0.006749811,0.09272436,-45.87357,-17.55549,-4.087449
25.499432564,-29.89296,1.494879,10.58108,0.9905563,-0.0162465,0.1520149,-45.87357,-17.55549,-4.087449
25.509319306,-31.94451,4.083949,11.86399,0.9807411,0.06399553,0.1107199,-45.87357,-17.55549,-4.087449
25.519206047,-33.25005,-2.565252,8.9927,1.024331,0.02419323,0.09269561,-45.87357,-17.55549,-4.087449
25.529091835,-33.37438,-0.85882,5.327216,1.018829,0.03020953,0.1686445,-45.86622,-17.18459,-4.48187
25.538978577,-30.2038,-2.918307,0.745361200000002,0.9683767,0.0102345,0.1287716,-45.86622,-17.18459,-4.48187
25.551336288,-29.20911,-1.623772,0.867544000000001,0.871975,-0.03596802,0.1851632,-45.86622,-17.18459,-4.48187
25.56122303,-32.19318,1.553722,6.976684,0.8929135,-0.04340185,0.1467509,-45.86622,-17.18459,-4.48187
25.571109772,-29.20911,-0.1527103,8.80942499999997,0.9264269,-0.01624007,0.1764689,-45.86622,-17.18459,-4.48187
25.580996513,-23.73832,2.848256,5.571581,0.9048031,0.01676237,0.1334755,-46.23415,-16.49431,-4.954144
25.590882778,-13.60491,1.200667,-0.659740900000002,0.8715891,-0.04953383,0.1246353,-46.23415,-16.49431,-4.954144
25.60076952,-5.523044,1.847934,-2.492483,0.8914056,-0.07740823,0.1195085,-46.23415,-16.49431,-4.954144
25.610655308,-3.347158,2.200989,-7.074337,0.8436778,-0.1136195,0.1340649,-46.23415,-16.49431,-4.954144
25.620542049,-6.02038900000001,5.90806599999998,-2.614666,0.8958141,-0.1771176,0.1608957,-46.23415,-16.49431,-4.954144
25.630428791,-6.45556599999999,7.49681300000002,-1.148472,0.9220331,-0.1642858,0.1757692,-46.23415,-16.49431,-4.954144
25.640315533,-10.93167,5.73153800000001,-0.3542839,0.9052035,-0.1065336,0.1927714,-46.23415,-16.49431,-4.954144
25.650201797,-13.54274,4.201633,-0.843015,0.9202332,-0.1278544,0.1693311,-46.23415,-16.49431,-4.954144
25.660088062,-7.88543400000003,3.377839,-3.71431,0.9197966,-0.1540377,0.1117524,-46.23415,-16.49431,-4.954144
25.669974804,0.1342586,0.906454499999998,-7.68525100000001,0.8933825,-0.224358,0.09524548,-46.23415,-16.49431,-4.954144
25.679861069,3.491339,1.553722,-4.14195,0.9001409,-0.2286173,0.1044122,-46.22081,-16.50863,-5.732378
25.68974781,-1.60645,-0.6234501,-2.125934,0.9023169,-0.1594387,0.1064697,-46.22081,-16.50863,-5.732378
25.699634552,-8.00976999999999,-2.388725,-2.79794,0.8949912,-0.1566516,0.1290506,-46.22081,-16.50863,-5.732378
25.709521294,-9.99915100000003,-2.447567,-3.286671,0.9112461,-0.2337441,0.121283,-46.22081,-16.50863,-5.732378
25.719407082,-8.63145299999999,-0.85882,-1.576112,0.9507304,-0.318909,0.1304148,-46.22081,-16.50863,-5.732378
25.729293823,-2.041627,1.377194,1.11191,0.9749947,-0.3054929,0.1515351,-46.22873,-17.19458,-5.333537
25.739180088,9.45948300000001,5.201956,0.4399042,0.951981,-0.2430479,0.1233,-46.22873,-17.19458,-5.333537
25.74906683,15.55196,2.907099,-0.904106400000002,0.9338213,-0.1915625,0.07925534,-46.22873,-17.19458,-5.333537
25.758953571,21.20927,-0.0938677799999998,-2.309208,0.9155582,-0.1434046,0.07322017,-46.22873,-17.19458,-5.333537
25.771311283,26.36922,-0.682292600000002,-2.309208,0.8903624,-0.1237259,0.08319142,-46.22873,-17.19458,-5.333537
25.781198025,30.28582,-0.2703952,-2.248117,0.9030346,-0.1066645,0.08600514,-46.97419,-16.81382,-5.80997
25.791084766,32.39954,-0.976504999999998,-3.042305,0.9229807,-0.09554721,0.08308611,-46.97419,-16.81382,-5.80997
25.800970554,32.58604,-3.094834,-3.469945,0.9396135,-0.06753828,0.0694977,-46.97419,-16.81382,-5.80997
25.810857296,30.41015,-6.27232800000001,-5.119412,0.9478772,-0.07808251,0.04936169,-46.97419,-16.81382,-5.80997
25.820744038,31.28051,-8.21413099999998,-6.09687499999998,0.9709542,-0.1259983,0.07223335,-46.97419,-16.81382,-5.80997
25.830630302,36.99998,-6.44885599999998,-4.508498,0.9748034,-0.153162,0.0473671,-46.23472,-16.80936,-4.949724
25.840517044,47.44423,-7.44917799999999,-0.965197799999999,0.9428964,-0.1106121,0.05529146,-46.23472,-16.80936,-4.949724
25.850402832,58.0128200000002,-7.39033600000002,1.234092,0.9417534,-0.02848777,0.04333306,-46.23472,-16.80936,-4.949724
25.860289574,63.8566199999999,-8.979083,-2.859031,0.9511843,0.0288962,0.03920643,-46.23472,-16.80936,-4.949724
25.870176315,66.9028599999998,-7.91991900000001,-3.164488,0.973607,0.05362883,0.03525958,-46.23472,-16.80936,-4.949724
25.880063057,65.8460000000002,-8.39065799999998,-4.447407,0.9975607,0.08286128,0.006764749,-45.87289,-17.17743,-4.092753
25.889949322,62.0537499999999,-8.50834399999998,-5.241595,1.016601,0.09556152,-0.02069028,-45.87289,-17.17743,-4.092753
25.899836063,56.39645,-10.27362,-5.608143,1.082869,0.04213207,-0.002550855,-45.87289,-17.17743,-4.092753
25.909722328,50.67698,-7.44917799999999,-3.897585,1.087914,0.004666736,0.06545407,-45.87289,-17.17743,-4.092753
25.919608593,47.81724,-5.86043100000001,-4.447407,1.068073,0.01378545,0.05384333,-45.87289,-17.17743,-4.092753
25.929495335,52.10684,-10.97973,-7.01324599999999,1.045776,0.05742882,0.1036132,-45.5097,-16.78939,-3.246391
25.939382076,53.03936,-7.97876099999998,-4.386316,0.9935572,0.1493178,0.1516625,-45.5097,-16.78939,-3.246391
25.949268818,48.50109,-11.86236,-3.225579,0.9600194,0.2655495,0.1366094,-45.5097,-16.78939,-3.246391
25.959154606,39.48671,-17.51124,-0.904106400000002,0.9381146,0.3470246,0.07846226,-45.5097,-16.78939,-3.246391
25.969041347,33.02122,-24.39581,-4.264133,0.919372,0.3881792,0.05995797,-45.5097,-16.78939,-3.246391
25.978927612,24.31767,-26.98488,-8.418347,0.9643215,0.4002412,0.1561323,-46.66306,-17.50626,-2.02932
25.991285801,5.85373000000002,-26.98488,-11.10637,1.01273,0.3925,0.1985476,-46.66306,-17.50626,-2.02932
26.001172543,-7.13941599999997,-25.74919,-13.42784,1.034916,0.331643,0.1700251,-46.66306,-17.50626,-2.02932
26.011058807,-17.27283,-26.10225,-14.4664,1.052729,0.267837,0.1391079,-46.66306,-17.50626,-2.02932
26.020945549,-21.31376,-27.9852,-16.23805,1.06329,0.1914258,0.07842904,-45.93804,-17.48628,-0.3259861
26.030832291,-20.87858,-32.51608,-16.11586,1.056995,0.06253304,0.08821071,-45.93804,-17.48628,-0.3259861
26.040718079,-20.87858,-29.98585,-12.14492,1.028747,0.008456382,0.05045909,-45.93804,-17.48628,-0.3259861
26.05060482,-21.93544,-31.33923,-7.807434,1.030084,-0.03110426,0.04296579,-45.93804,-17.48628,-0.3259861
26.060491562,-28.27659,-29.33858,-1.94266,1.055284,-0.01348532,0.08474555,-45.93804,-17.48628,-0.3259861
26.070377827,-36.60712,-29.33858,0.25663,1.06434,-0.001009268,0.1712586,-45.56775,-17.48465,0.07171071
26.080264568,-39.96421,-23.63086,2.150463,1.053545,0.01517874,0.2428217,-45.56775,-17.48465,0.07171071
26.09015131,-39.28036,-18.21735,3.066834,1.031249,0.03194446,0.2537728,-45.56775,-17.48465,0.07171071
26.100037098,-35.98544,-12.27426,2.517012,0.9950125,0.01304798,0.1576429,-45.56775,-17.48465,0.07171071
26.10992384,-26.53588,-13.09806,-1.51502,0.9911667,-0.04291353,0.06221806,-45.56775,-17.48465,0.07171071
26.119810581,-10.80734,-15.39291,-4.447407,1.006572,-0.102361,0.02935243,-45.58425,-18.60331,0.9307091
26.129696846,4.610366,-18.68809,-5.608143,0.989126,-0.1099615,0.007248634,-45.58425,-18.60331,0.9307091
26.139583588,16.60882,-20.98295,-4.691772,0.9480201,-0.09889084,-0.03950339,-45.58425,-18.60331,0.9307091
26.149470329,20.02807,-24.57234,-0.781923700000001,0.9473001,-0.05817446,-0.08491655,-45.58425,-18.60331,0.9307091
26.159356117,18.53604,-28.3971,1.295184,0.9756128,-0.01296561,-0.08655557,-45.58425,-18.60331,0.9307091
26.169242859,12.63006,-28.51479,0.0733558600000001,0.9878369,0.06208351,-0.01622552,-45.59023,-18.21809,1.314522
26.179129601,6.66191600000002,-27.04373,-2.125934,1.043959,0.05366236,0.0468815,-45.59023,-18.21809,1.314522
26.189016342,3.367003,-21.57137,-1.087381,1.089084,0.08850086,0.1030245,-45.59023,-18.21809,1.314522
26.198902607,5.045544,-15.9225,-3.225579,1.079554,0.138654,0.1013175,-45.59023,-18.21809,1.314522
26.211260796,10.45417,-13.1569,-8.47943899999997,1.025869,0.1723865,0.07030705,-45.59023,-18.21809,1.314522
26.22114706,18.5982,-15.03986,-10.19,0.9667047,0.146799,0.01217762,-44.8641,-18.19931,2.953002
26.231033802,25.4367,-19.51189,-8.907079,0.9642804,0.1388257,-0.0002887921,-44.8641,-18.19931,2.953002
26.240920067,24.25551,-19.98263,-8.29616499999998,0.9866074,0.1293282,-0.0136812,-44.8641,-18.19931,2.953002
26.250806332,19.09555,-19.68842,-7.135428,0.9891338,0.1331737,-0.04928592,-44.8641,-18.19931,2.953002
26.260693073,15.42763,-18.74693,-8.17398199999999,0.9694107,0.1554811,-0.09078028,-44.8641,-18.19931,2.953002
26.270579815,13.93559,-18.15851,-9.45690200000001,0.9695096,0.1578418,-0.1283039,-45.25688,-18.93439,3.798117
26.280466557,14.55727,-20.27684,-10.49545,0.9637696,0.1687654,-0.1476025,-45.25688,-18.93439,3.798117
26.290352345,18.03869,-23.57202,-13.42784,0.9515425,0.1330481,-0.1604208,-45.25688,-18.93439,3.798117
26.300239086,20.58758,-26.0434,-14.95513,0.9424657,0.07101876,-0.1086591,-45.25688,-18.93439,3.798117
26.310125351,15.24112,-28.51479,-12.02274,0.9531395,0.01039349,0.007080444,-45.25688,-18.93439,3.798117
26.320012093,3.491339,-30.10353,-7.25761099999999,0.9851694,-0.03633741,0.1429728,-45.27856,-19.22677,5.03474
26.329898834,-5.585212,-26.69067,-2.309208,1.035341,-0.0399669,0.265202,-45.27856,-19.22677,5.03474
26.339785576,-5.585212,-22.80707,-0.965197799999999,1.045366,0.06300422,0.2810445,-45.27856,-19.22677,5.03474
26.349671364,-3.347158,-18.92346,0.5009956,1.03324,0.1892973,0.2577891,-45.27856,-19.22677,5.03474
26.359558106,-0.798263799999999,-14.98102,0.562087,1.034632,0.3035769,0.2471139,-45.27856,-19.22677,5.03474
26.36944437,-2.60114,-8.09644600000001,-0.2321011,1.05348,0.3831028,0.1943131,-44.59594,-19.6066,5.509744
26.379331112,-7.32592100000003,-4.036314,-3.653219,1.089928,0.3558727,0.1367816,-44.59594,-19.6066,5.509744
26.389217854,-9.253134,-0.1527103,-5.058321,1.113988,0.1308019,0.1018772,-44.59594,-19.6066,5.509744
26.399104595,-5.087867,4.378161,-3.103397,1.063137,-0.01554403,0.04581027,-44.59594,-19.6066,5.509744
26.408990383,3.926517,4.966586,-2.736848,0.9984651,-0.06692704,0.02050757,-44.59594,-19.6066,5.509744
26.421349049,4.361694,-0.3880802,1.967189,0.9693525,-0.05598406,0.03196128,-44.98555,-19.2087,6.274094
26.43123579,-3.595831,-3.977472,2.578103,0.9876055,0.03567748,0.04161818,-44.98555,-19.2087,6.274094
26.441121578,-6.51773500000002,-3.506732,0.0733558600000001,1.006728,0.08568053,0.03369251,-44.98555,-19.2087,6.274094
26.45100832,-7.94760199999998,-1.8003,-1.453929,1.014234,0.120566,-0.009758143,-44.98555,-19.2087,6.274094
26.460895062,-7.512425,-0.0938677799999998,-2.981214,1.004592,0.1166875,-0.04245214,-44.98555,-19.2087,6.274094
26.470781326,-5.77171700000003,1.789092,-2.309208,0.9943087,0.08891575,-0.0447281,-45.29301,-19.21126,5.877827
26.480668068,-4.217513,1.612564,-0.2321011,0.9913568,0.08120947,-0.03940238,-45.29301,-19.21126,5.877827
26.490553856,-2.538972,-1.09419,1.539549,0.9719294,0.0763496,-0.04132359,-45.29301,-19.21126,5.877827
26.500440598,-1.171273,-2.977149,2.394829,0.9525752,0.07849187,-0.0634788,-45.29301,-19.21126,5.877827
26.510327339,-1.544282,-4.860109,1.967189,0.9511077,0.06214503,-0.08215377,-45.29301,-19.21126,5.877827
26.520214081,-4.217513,-7.21380900000002,1.173001,0.9670693,0.02862704,-0.1069741,-44.9234,-19.58768,6.280828
26.530100346,-6.33123000000002,-8.50834399999998,0.5009956,1.001448,0.01315643,-0.09483386,-44.9234,-19.58768,6.280828
26.539987087,-6.144726,-8.09644600000001,-0.2931925,1.030011,0.01108223,-0.06689747,-44.9234,-19.58768,6.280828
26.549872875,-4.590521,-5.97811599999998,-0.1710097,1.041235,0.04899376,-0.03774011,-44.9234,-19.58768,6.280828
26.559759617,-3.28499,-2.859464,0.1955387,1.034557,0.1020146,-0.01012221,-44.9234,-19.58768,6.280828
26.569646358,-4.093176,-0.976504999999998,0.01226447,1.006046,0.1460618,0.0006839721,-44.91742,-19.9729,5.897015
26.5795331,-3.595831,0.3768721,-1.392838,0.9915371,0.1542176,-0.00947308,-44.91742,-19.9729,5.897015
26.589419365,-1.357777,0.847612000000001,-3.103397,0.9904483,0.1285912,0.002678206,-44.91742,-19.9729,5.897015
26.599306106,-0.798263799999999,1.671407,-3.531036,0.9995005,0.08336598,0.008207167,-44.91742,-19.9729,5.897015
26.609191894,-0.487423,1.671407,-2.79794,1.021262,0.04999468,-0.006027085,-44.91742,-19.9729,5.897015
26.619078636,2.247976,2.142147,-0.843015,1.023176,0.03523142,-0.01604965,-44.92409,-19.96574,6.286132
26.628965378,4.796871,3.672051,0.01226447,1.011158,0.06587552,-0.02006553,-44.92409,-19.96574,6.286132
26.64132309,5.294216,4.907743,-0.3542839,0.9981505,0.09513979,-0.01878544,-44.92409,-19.96574,6.286132
26.651209831,4.175189,5.496168,-0.2931925,0.9918415,0.1021133,-0.009209435,-44.92409,-19.96574,6.286132
26.661096573,2.993994,5.437326,0.0733558600000001,1.001045,0.1141558,0.01574807,-44.92409,-19.96574,6.286132
26.670983314,1.999303,6.31996299999998,-0.1710097,0.997653,0.1161175,0.01621522,-44.98623,-19.58676,6.279397
26.680869579,1.377622,6.55533299999998,0.1955387,0.9961778,0.1072834,0.01144897,-44.98623,-19.58676,6.279397
26.690755844,1.688463,6.55533299999998,0.01226447,0.9977018,0.1033685,-0.02219398,-44.98623,-19.58676,6.279397
26.700642586,2.434481,5.84922299999998,0.3788128,1.007417,0.1003126,-0.02986223,-44.98623,-19.58676,6.279397
26.71052885,0.3829313,5.73153800000001,1.173001,1.00931,0.09265423,-0.02068388,-44.98623,-19.58676,6.279397
26.720415592,-2.663309,5.96690800000001,1.356275,0.9937309,0.076064,-0.02494605,-44.9181,-20.35096,5.902319
26.730302334,-3.28499,6.437648,1.234092,0.9849902,0.061178,-0.04459852,-44.9181,-20.35096,5.902319
26.740188599,-2.787645,5.319641,1.478458,0.9811016,0.0562443,-0.04938723,-44.9181,-20.35096,5.902319
26.750074863,-3.720167,4.554688,2.333737,0.9916827,0.05036753,-0.01760471,-44.9181,-20.35096,5.902319
26.759961605,-6.45556599999999,5.73153800000001,3.250108,1.009471,0.03150142,0.02579375,-44.9181,-20.35096,5.902319
26.76984787,-9.12879799999998,7.96755199999999,4.410845,1.014209,0.004359449,0.0350738,-44.91674,-19.59484,5.891711
26.779734611,-8.56928299999999,9.85051200000002,6.18249599999998,1.035546,-0.006009319,0.02841756,-44.91674,-19.59484,5.891711
26.789621353,-2.849813,11.38042,10.03125,1.064739,-0.00452181,0.001511655,-44.91674,-19.59484,5.891711
26.799508095,7.47010199999997,12.02768,11.00872,1.080976,0.03586104,-0.03137659,-44.91674,-19.59484,5.891711
26.809393883,20.33891,8.43829199999998,12.96364,1.091839,0.09786917,-0.01917363,-44.91674,-19.59484,5.891711
26.819280624,20.83626,17.32351,14.91856,1.013374,0.1805795,0.03033498,-44.97221,-19.22302,5.49586
26.829166889,7.34576600000001,23.14891,14.12438,0.9377787,0.1749751,-0.02887594,-44.97221,-19.22302,5.49586
26.839053631,-7.63676199999999,10.08588,11.92509,0.8833828,0.1653436,-0.02888912,-44.97221,-19.22302,5.49586
26.848940372,-17.335,6.31996299999998,8.07632800000003,0.9030086,0.1351897,0.04150005,-44.97221,-19.22302,5.49586
26.861298084,-20.38124,16.32318,5.143942,0.9836641,0.1200748,-0.01411871,-45.2719,-19.23393,4.645623
26.871184826,-20.13256,20.32447,4.349754,1.012847,0.1121736,-0.05011468,-45.2719,-19.23393,4.645623
26.881071568,-17.335,19.85373,3.127926,0.9908643,0.07080475,-0.05137338,-45.2719,-19.23393,4.645623
26.890958309,-13.48057,13.08685,-0.598649399999998,0.9851588,0.01391142,0.01864118,-45.2719,-19.23393,4.645623
26.900844097,-12.11287,11.91,-2.553574,1.001299,-0.03558424,0.0977807,-45.2719,-19.23393,4.645623
26.910730839,-12.79672,13.02801,-1.270655,1.032622,-0.06258271,0.1527777,-45.63982,-18.54365,4.173349
26.920617104,-12.92105,14.20485,2.700286,1.027006,-0.0181029,0.1304242,-45.63982,-18.54365,4.173349
26.930503845,-6.26906200000001,15.38171,1.173001,0.9944027,0.06202599,0.07852369,-45.63982,-18.54365,4.173349
26.940390587,0.2585949,17.97077,-0.781923700000001,1.013545,0.108419,0.05715048,-45.63982,-18.54365,4.173349
26.950277328,2.993994,18.26499,-2.614666,0.9898196,0.120539,0.05032936,-45.63982,-18.54365,4.173349
26.960163116,5.605057,17.91193,-3.897585,0.9876501,0.08366645,0.09187244,-45.62774,-19.25108,3.40484
26.970049858,4.237358,18.20614,-2.309208,0.9904498,0.07640892,0.1279814,-45.62774,-19.25108,3.40484
26.979936123,-0.114414,19.38299,-0.904106400000002,1.000181,0.08867847,0.1356252,-45.62774,-19.25108,3.40484
26.989822865,-1.917291,20.67753,-0.04882693,0.9949229,0.09315576,0.108665,-45.62774,-19.25108,3.40484
26.999709606,0.1342586,23.6785,-0.4153753,0.9993699,0.09364636,0.07692678,-45.62774,-19.25108,3.40484
27.009596348,0.880276599999999,27.26789,-2.248117,1.011947,0.07597628,0.06933564,-45.23644,-19.33512,2.571218
27.019482136,0.3207631,25.67914,-1.148472,1.005008,0.04504805,0.08439259,-45.23644,-19.33512,2.571218
27.029368877,2.496649,23.03123,2.45592,1.021386,0.05426441,0.149289,-45.23644,-19.33512,2.571218
27.039255619,5.107712,24.20808,5.93813000000001,1.030804,0.1157094,0.156203,-45.23644,-19.33512,2.571218
27.049141884,3.11833,26.03219,9.053791,1.038678,0.1727408,0.1934356,-45.23644,-19.33512,2.571218
27.059028626,-1.979459,30.44538,12.59709,1.042678,0.2287197,0.2248981,-45.22131,-18.97258,1.722827
27.068915367,-11.61552,36.9769,17.24004,1.063574,0.2678376,0.2708926,-45.22131,-18.97258,1.722827
27.081273079,-31.88235,41.03703,23.65463,1.098544,0.3158942,0.3303237,-45.22131,-18.97258,1.722827
27.091159821,-48.41908,51.15794,27.68666,1.156223,0.3267395,0.3793884,-45.22131,-18.97258,1.722827
27.101046562,-62.9664299999998,59.3958899999997,30.9856,1.181691,0.3605797,0.3335589,-45.22131,-18.97258,1.722827
27.11093235,-79.1301499999999,66.0450800000002,33.36816,1.20672,0.3921349,0.2651371,-45.93356,-19.32192,-0.7543199
27.120819092,-93.5531699999998,65.69203,26.52593,1.156573,0.3737131,0.1011791,-45.93356,-19.32192,-0.7543199
27.130705833,-88.5175500000002,42.50809,12.536,1.049152,0.2375429,-0.03098917,-45.93356,-19.32192,-0.7543199
27.140592098,-70.5509499999998,33.15214,1.906098,0.9888882,0.08695184,-0.01394539,-45.93356,-19.32192,-0.7543199
27.15047884,-55.44408,21.73669,-2.125934,0.9642455,-0.03803256,-0.03834972,-45.93356,-19.32192,-0.7543199
27.160365582,-37.35314,17.97077,-6.402331,0.9616863,-0.2038187,-0.0202017,-45.88871,-17.91804,-3.239059
27.17025137,-19.88389,16.67624,-0.4764667,0.9909046,-0.2671042,0.0503658,-45.88871,-17.91804,-3.239059
27.180138111,-15.78079,23.14891,12.47491,0.9849905,-0.1685724,0.02773879,-45.88871,-17.91804,-3.239059
27.190024853,-19.51088,26.97367,23.65463,0.9280756,0.01878921,-0.05358654,-45.88871,-17.91804,-3.239059
27.199911118,-21.8111,23.50197,18.76732,1.026719,0.07760345,-0.0152979,-45.88871,-17.91804,-3.239059
27.209797859,-22.74363,20.20679,11.68072,1.019412,0.1086356,0.0398429,-45.85177,-17.20011,-5.324957
27.219684601,-24.11132,15.91129,7.70977999999998,0.9954664,0.07337999,0.05634515,-45.85177,-17.20011,-5.324957
27.229570389,-19.75955,17.20582,9.35924799999999,0.9602852,0.01073358,0.06335461,-45.85177,-17.20011,-5.324957
27.23945713,-9.37747000000002,17.61772,8.19851100000001,0.9491403,-0.00130505,0.03839488,-45.85177,-17.20011,-5.324957
27.249343872,-1.482114,14.38138,3.799931,0.97021,-0.05875455,0.07477823,-45.85177,-17.20011,-5.324957
27.259230137,-4.093176,15.85244,9.90907000000003,0.8983563,-0.0420759,0.1058721,-46.2136,-16.83204,-6.181928
27.269116879,-10.62083,13.08685,9.66470500000002,0.8770906,-0.002797479,0.1244054,-46.2136,-16.83204,-6.181928
27.27900362,-14.5996,11.43926,11.74181,0.8840683,0.0577431,0.1356495,-46.2136,-16.83204,-6.181928
27.288889408,-12.42371,9.14440199999997,4.410845,0.8612928,0.03665321,0.09004266,-46.2136,-16.83204,-6.181928
27.301248074,-9.19096599999999,6.908388,0.01226447,0.8561355,-0.02959585,0.1206696,-46.2136,-16.83204,-6.181928
27.311134815,-10.30999,5.201956,0.928635399999997,0.8739154,-0.07478075,0.1300557,-46.19915,-16.84755,-7.025014
27.321020603,-6.89074399999999,3.613209,1.783915,0.854941,-0.07993434,0.1411213,-46.19915,-16.84755,-7.025014
27.330907345,-7.512425,0.0826596800000002,-1.698295,0.8687688,-0.1306457,0.1712104,-46.19915,-16.84755,-7.025014
27.340794087,-12.73455,-1.32956,-1.087381,0.9129189,-0.1241438,0.1885409,-46.19915,-16.84755,-7.025014
27.350680828,-13.16973,-1.976827,-3.531036,0.9129219,-0.1480494,0.1530735,-46.19915,-16.84755,-7.025014
27.360567093,-11.80203,-2.800622,-4.813955,0.9093044,-0.2287629,0.1284694,-46.56944,-16.84918,-7.422711
27.370453835,-12.73455,-4.095157,-4.325224,0.9313176,-0.3004724,0.1557884,-46.56944,-16.84918,-7.422711
27.380339623,-12.42371,-4.095157,-2.859031,0.9315977,-0.3404801,0.1834034,-46.56944,-16.84918,-7.422711
27.390226364,-6.33123000000002,-3.447889,-1.881569,0.9162732,-0.2860264,0.175416,-46.56944,-16.84918,-7.422711
27.400113106,-1.60645,-2.800622,-3.653219,0.9095978,-0.2917454,0.1177268,-46.56944,-16.84918,-7.422711
27.409999848,-0.1765822,-2.212197,-4.630681,0.9144425,-0.3111055,0.09378411,-46.57486,-16.14891,-7.043318
27.419886112,1.999303,-2.329882,-4.264133,0.9168953,-0.3043074,0.09279071,-46.57486,-16.14891,-7.043318
27.429772854,8.58912800000003,-2.50641,-3.836493,0.920373,-0.2635164,0.1180773,-46.57486,-16.14891,-7.043318
27.439658642,12.63006,-2.50641,-2.920122,0.9141771,-0.2119718,0.1447414,-46.57486,-16.14891,-7.043318
27.449545384,16.17365,-2.27104,-2.859031,0.9119233,-0.1463781,0.1670107,-46.57486,-16.14891,-7.043318
27.459432125,19.53073,-1.32956,-2.675757,0.9154865,-0.09169573,0.1768377,-46.20568,-16.14609,-6.580769
27.469318867,26.05838,-0.5646076,-3.775402,0.9215095,-0.03623126,0.1741597,-46.20568,-16.14609,-6.580769
27.479205132,32.0887,-0.6234501,-6.58560600000002,0.926552,0.005363298,0.1556802,-46.20568,-16.14609,-6.580769
27.489091873,32.77254,-4.330527,-10.49545,0.9199272,0.05008234,0.1491947,-46.20568,-16.14609,-6.580769
27.498978615,34.32675,-7.27265099999999,-12.63365,0.9375173,0.05578122,0.1092695,-46.20568,-16.14609,-6.580769
27.511336327,40.73007,-11.98005,-15.44386,0.9375578,0.05005083,0.08429062,-46.9525,-16.52145,-7.046594
27.521223068,45.45485,-16.15787,-17.88751,0.962398,0.04796575,0.04585572,-46.9525,-16.52145,-7.046594
27.531108856,44.83317,-17.39356,-17.09333,0.98226,0.03722079,0.04641351,-46.9525,-16.52145,-7.046594
27.540995598,42.2221,-17.98198,-16.84896,0.9740901,0.05264679,0.03478417,-46.9525,-16.52145,-7.046594
27.550882339,39.54887,-19.51189,-17.64315,0.9905331,0.03507691,0.03441073,-46.9525,-16.52145,-7.046594
27.560769081,38.24334,-20.51221,-15.26058,1.00597,0.03465484,0.07338502,-45.85109,-16.82205,-5.330261
27.570655346,36.3783,-21.04179,-13.85548,1.006064,0.07635457,0.09385401,-45.85109,-16.82205,-5.330261
27.580542087,38.49202,-22.86591,-11.41183,1.050475,0.1195316,0.05617448,-45.85109,-16.82205,-5.330261
27.590428829,38.80286,-23.80739,-8.78489600000001,1.057826,0.1568919,0.08052102,-45.85109,-16.82205,-5.330261
27.600314617,32.64821,-20.86526,-4.203042,1.031202,0.180877,0.08517875,-45.85109,-16.82205,-5.330261
27.610201359,26.12055,-23.16012,-7.25761099999999,1.010435,0.2021497,0.07206277,-46.24387,-17.55713,-4.485147
27.6200881,20.71192,-25.92572,-6.70778799999998,0.9928772,0.190778,0.09085619,-46.24387,-17.55713,-4.485147
27.629974842,17.35484,-26.33762,-8.54052999999998,1.00435,0.1570354,0.1155667,-46.24387,-17.55713,-4.485147
27.639861107,12.44355,-28.57363,-8.418347,1.012426,0.141705,0.1661501,-46.24387,-17.55713,-4.485147
27.649747848,7.03492499999999,-26.16109,-8.54052999999998,1.04287,0.1429873,0.2234078,-46.24387,-17.55713,-4.485147
27.659633636,5.605057,-23.10128,-8.17398199999999,1.018311,0.1691783,0.1804456,-45.89674,-18.667,-2.839334
27.669520378,7.22142900000002,-20.80642,-6.82997100000002,1.01175,0.1891092,0.1120466,-45.89674,-18.667,-2.839334
27.67940712,2.12364,-22.63054,-5.058321,1.029446,0.2200142,0.06429937,-45.89674,-18.667,-2.839334
27.689293861,-3.96884,-24.69003,-5.669235,1.06574,0.1733588,0.04293496,-45.89674,-18.667,-2.839334
27.699180126,-6.33123000000002,-25.80803,-2.3703,1.063743,0.1343976,0.009946019,-45.89674,-18.667,-2.839334
27.709066868,-9.99915100000003,-26.0434,-1.331746,1.07185,0.1059319,0.028855,-45.54201,-18.64866,-1.533698
27.718952656,-18.01884,-26.10225,-0.2321011,1.069109,0.06164305,0.0954428,-45.54201,-18.64866,-1.533698
27.731311321,-26.53588,-21.336,3.250108,1.043509,0.02017925,0.1850745,-45.54201,-18.64866,-1.533698
27.741198063,-25.29252,-18.04082,2.761377,1.004713,0.03247999,0.1883347,-45.54201,-18.64866,-1.533698
27.751083851,-20.38124,-16.45208,0.1344473,0.9917251,0.03773796,0.1474151,-45.55535,-18.63434,-0.7554638
27.760970592,-14.16442,-18.45272,-2.492483,0.9772611,0.019237,0.0806441,-45.55535,-18.63434,-0.7554638
27.770857334,-7.20158399999998,-20.15915,-2.859031,0.958375,-0.005384256,0.02736481,-45.55535,-18.63434,-0.7554638
27.780744076,-0.4252549,-21.51253,-2.553574,0.9846304,-0.04204753,-0.04359638,-45.55535,-18.63434,-0.7554638
27.790630341,3.242667,-25.04308,-1.94266,0.9955839,-0.07707015,-0.006856945,-45.55535,-18.63434,-0.7554638
27.800517082,4.610366,-24.21929,-0.4764667,1.017833,-0.08657273,0.01197229,-45.55466,-18.25628,-0.7607679
27.810403824,0.2585949,-22.86591,-2.125934,1.054609,-0.05707225,0.1008354,-45.55466,-18.25628,-0.7607679
27.820289612,-6.26906200000001,-18.15851,-3.408854,1.048821,0.00292419,0.171702,-45.55466,-18.25628,-0.7607679
27.830176353,-6.64207099999998,-13.45111,-4.508498,1.006837,0.07412344,0.1727372,-45.55466,-18.25628,-0.7607679
27.840063095,-1.233441,-13.68648,-5.302687,0.9998925,0.1217754,0.1017931,-45.55466,-18.25628,-0.7607679
27.84994936,2.745321,-15.39291,-8.907079,1.013168,0.1336118,0.04836617,-46.33082,-18.22136,0.5191283
27.859836101,7.40793400000002,-15.03986,-10.73982,1.014436,0.04522494,-0.0002396904,-46.33082,-18.22136,0.5191283
27.869722843,14.3086,-15.27523,-9.94563200000002,0.9853997,-0.08158354,-0.01694506,-46.33082,-18.22136,0.5191283
27.879608631,18.34953,-14.98102,-7.31870300000003,0.9739953,-0.1307986,0.01214594,-46.33082,-18.22136,0.5191283
27.889495373,19.84157,-13.74532,-6.891063,0.9836304,-0.1124462,0.06833192,-46.33082,-18.22136,0.5191283
27.899382114,20.52542,-11.15625,-8.60162200000002,0.9751167,-0.02277114,0.1044191,-45.5916,-18.97421,1.32513
27.909268379,21.89312,-11.92121,-11.16746,0.9585363,0.07719951,0.07888715,-45.5916,-18.97421,1.32513
27.919155121,21.45794,-17.74661,-12.08383,0.966594,0.1554603,0.07032518,-45.5916,-18.97421,1.32513
27.929041862,19.53073,-21.15948,-11.35073,0.9653445,0.2039206,0.05420847,-45.5916,-18.97421,1.32513
27.938928604,18.84688,-23.98392,-11.22855,0.9764181,0.1940178,0.07735531,-45.5916,-18.97421,1.32513
27.951286316,18.97121,-23.27781,-10.06781,1.005554,0.07800334,0.106349,-45.98383,-20.02553,2.109812
27.961173058,17.66568,-22.51285,-5.85250900000001,1.012706,0.04347327,0.110379,-45.98383,-20.02553,2.109812
27.971058846,16.91966,-20.39453,-5.424869,1.008403,0.05252533,0.09638169,-45.98383,-20.02553,2.109812
27.980945587,15.36546,-18.62925,-6.03578300000001,1.025059,0.08984379,0.08659363,-45.98383,-20.02553,2.109812
27.990832329,14.05993,-17.80546,-6.58560600000002,0.9999779,0.09884153,0.03361832,-45.98383,-20.02553,2.109812
28.00071907,13.81125,-18.68809,-6.891063,0.9858944,0.1053866,0.04607318,-45.24368,-19.64301,2.964754
28.010605335,14.3086,-16.33439,-7.135428,0.9818982,0.1056121,0.09319776,-45.24368,-19.64301,2.964754
28.020492077,13.00307,-11.68584,-6.402331,0.9915341,0.1214722,0.145549,-45.24368,-19.64301,2.964754
28.030378819,9.77032399999997,-8.15528900000001,-4.875047,1.003701,0.1341808,0.1503078,-45.24368,-19.64301,2.964754
28.040264606,9.27297899999999,-6.566541,-3.775402,1.011533,0.1247891,0.1094859,-45.24368,-19.64301,2.964754
28.050151348,13.87342,-8.21413099999998,-3.103397,1.015003,0.09447242,0.03654301,-45.25214,-20.01272,3.424028
28.06003809,22.14179,-10.45015,-0.904106400000002,1.011717,0.1017309,0.0004335181,-45.25214,-20.01272,3.424028
28.069924355,25.4367,-9.09676800000003,1.295184,1.017804,0.1667473,-0.01479666,-45.25214,-20.01272,3.424028
28.079811096,20.46325,-8.50834399999998,1.356275,1.014973,0.191122,-0.01348029,-45.25214,-20.01272,3.424028
28.089697838,13.74909,-8.92024,1.661732,1.008135,0.1829436,-0.007675687,-45.25214,-20.01272,3.424028
28.099584579,11.69754,-8.44950099999998,-0.3542839,0.9925825,0.170664,-0.01676881,-44.95271,-20.75912,4.22002
28.109470367,13.50041,-9.27329500000003,-1.820477,0.9773736,0.1363866,0.001181184,-44.95271,-20.75912,4.22002
28.119357109,11.26236,-9.15561100000003,-1.94266,0.9815276,0.09543338,0.03120996,-44.95271,-20.75912,4.22002
28.129243374,5.542889,-7.44917799999999,-1.148472,1.003818,0.1020935,0.05620955,-44.95271,-20.75912,4.22002
28.139130116,-0.3009185,-4.448212,0.0733558600000001,1.042703,0.1255557,0.06719638,-44.95271,-20.75912,4.22002
28.149016857,-5.585212,-0.799977499999998,0.867544000000001,1.050563,0.1478392,0.06035982,-44.58815,-19.61496,5.055774
28.158903599,-7.07724800000002,2.377517,-1.453929,1.043765,0.1414001,0.05220897,-44.58815,-19.61496,5.055774
28.171261311,-10.06132,7.02607300000003,-1.881569,1.019297,0.07104719,0.03378074,-44.58815,-19.61496,5.055774
28.181148052,-10.06132,7.43797000000002,-1.209563,0.9988213,0.02288484,0.001779132,-44.58815,-19.61496,5.055774
28.191034794,-4.963531,5.96690800000001,-0.3542839,0.9935219,0.009208457,-0.03422686,-44.58815,-19.61496,5.055774
28.200920582,1.999303,4.025106,0.3177214,0.9776492,0.02275747,-0.07471075,-44.60329,-19.9775,5.904165
28.210807324,10.08116,2.200989,-0.1099183,0.9690415,0.0438552,-0.09791136,-44.60329,-19.9775,5.904165
28.220693588,13.37608,0.3180296,0.4399042,0.9672284,0.0898262,-0.08516086,-44.60329,-19.9775,5.904165
28.23058033,8.775634,-1.153032,0.1344473,0.9682816,0.1256303,-0.06802743,-44.60329,-19.9775,5.904165
28.240467072,-1.171273,-2.565252,-0.1710097,0.9929823,0.142341,-0.02191537,-44.60329,-19.9775,5.904165
28.250353813,-10.06132,-3.094834,-0.1099183,1.018592,0.1370438,0.01805697,-44.96579,-19.98749,5.052498
28.260240078,-13.29406,-3.094834,0.01226447,1.029739,0.140116,0.02959622,-44.96579,-19.98749,5.052498
28.270126343,-10.62083,-0.5057651,-0.598649399999998,1.020036,0.1316485,0.01568127,-44.96579,-19.98749,5.052498
28.280013084,-7.01508000000001,1.553722,-0.965197799999999,1.007324,0.09642629,0.003340855,-44.96579,-19.98749,5.052498
28.289899349,-5.64738,2.789414,-0.04882693,0.9979534,0.06553162,0.02031856,-44.96579,-19.98749,5.052498
28.299786091,-8.07193900000002,3.201311,1.234092,1.001768,0.06446584,0.04725986,-45.28703,-19.59647,5.494014
28.309672833,-11.18035,3.907421,1.417367,1.011046,0.07852591,0.04431383,-45.28703,-19.59647,5.494014
28.319559097,-12.42371,3.907421,1.234092,1.004779,0.08025604,0.02890849,-45.28703,-19.59647,5.494014
28.329445362,-11.42902,3.848579,1.11191,0.9969859,0.05406766,0.00258131,-45.28703,-19.59647,5.494014
28.339332104,-8.75578900000001,3.142469,0.745361200000002,0.9892345,0.04055428,-0.02284803,-45.28703,-19.59647,5.494014
28.349218369,-2.60114,2.142147,0.5009956,0.9907724,0.04501095,-0.0502813,-44.95844,-19.61659,4.658077
28.35910511,1.626294,1.377194,-0.04882693,0.9805939,0.043448,-0.05846064,-44.95844,-19.61659,4.658077
28.368991852,0.818108400000001,0.906454499999998,0.3177214,0.9800414,0.03989139,-0.03584,-44.95844,-19.61659,4.658077
28.378878594,-3.409327,1.730249,2.45592,1.004654,0.02979128,0.008483757,-44.95844,-19.61659,4.658077
28.391236305,-6.39339799999998,3.966264,4.044297,1.01637,0.07015096,0.03859115,-44.95844,-19.61659,4.658077
28.401123047,-6.51773500000002,5.555011,4.227571,1.024225,0.1034062,0.0490123,-44.58149,-19.62212,4.666657
28.411009789,-5.89605299999999,7.32028499999999,3.861022,1.027592,0.1080769,0.06871029,-44.58149,-19.62212,4.666657
28.420896053,-6.57990299999997,10.08588,3.922114,1.028986,0.09552846,0.07647002,-44.58149,-19.62212,4.666657
28.430782318,-7.512425,10.96852,4.410845,1.023101,0.0809891,0.08038417,-44.58149,-19.62212,4.666657
28.440668583,-6.57990299999997,11.61579,6.121404,1.008109,0.07818855,0.05393062,-44.58149,-19.62212,4.666657
28.450555325,-4.093176,11.0862,7.70977999999998,1.005377,0.102933,0.01484787,-45.2648,-19.62034,4.196958
28.460442066,-2.2903,10.90968,9.237065,1.005967,0.1117238,-0.01597483,-45.2648,-19.62034,4.196958
28.470328808,0.2585949,12.38074,10.09234,1.021525,0.09461191,-0.05097791,-45.2648,-19.62034,4.196958
28.480215073,5.480721,12.79264,9.54252199999998,1.035644,0.0853516,-0.08217493,-45.2648,-19.62034,4.196958
28.490101814,7.22142900000002,11.43926,8.13742,1.024933,0.08458579,-0.06967929,-45.2648,-19.62034,4.196958
28.499987602,3.180499,11.67463,9.29815699999998,0.9763484,0.09692217,-0.03276595,-45.63383,-18.92887,3.789537
28.509874344,-3.28499,13.02801,9.11488200000001,0.9331193,0.1116324,0.0007750351,-45.63383,-18.92887,3.789537
28.519761086,-8.13410699999998,13.73412,6.36576900000001,0.9320038,0.06328276,-0.008600328,-45.63383,-18.92887,3.789537
28.529647827,-9.75047899999999,12.3219,4.533028,0.9478606,0.02943093,0.009382845,-45.63383,-18.92887,3.789537
28.539534092,-9.066629,10.55662,3.066834,0.968671,0.02529483,0.02866425,-45.63383,-18.92887,3.789537
28.549420833,-7.07724800000002,9.85051200000002,2.822469,1.022424,0.01601757,0.06676502,-44.94342,-19.31706,3.810571
28.559307575,-4.341849,12.43958,3.372291,1.024809,0.03020823,0.1042079,-44.94342,-19.31706,3.810571
28.569193363,-2.663309,15.32286,3.3112,1.02098,0.05924063,0.1237746,-44.94342,-19.31706,3.810571
28.579080105,-2.974149,17.85309,2.394829,1.027831,0.08873168,0.1428702,-44.94342,-19.31706,3.810571
28.588966846,-5.398708,18.79457,1.234092,1.025902,0.1060735,0.1624981,-44.94342,-19.31706,3.810571
28.601324558,-9.50180599999998,20.9129,1.295184,1.011737,0.09322704,0.1808219,-45.6134,-19.3296,2.562637
28.6112113,-8.94229299999998,23.50197,2.150463,0.9932532,0.06415246,0.155459,-45.6134,-19.3296,2.562637
28.621098041,-8.13410699999998,23.50197,4.533028,0.9942192,0.06617026,0.1602591,-45.6134,-19.3296,2.562637
28.630984306,-10.18566,24.26692,6.91559200000002,0.9792666,0.0835215,0.1462077,-45.6134,-19.3296,2.562637
28.640871048,-8.44494700000003,25.14956,6.304678,0.9837461,0.09774012,0.1206521,-45.59827,-18.96705,1.714247
28.65075779,-6.952912,26.85599,3.861022,0.9997597,0.08927216,0.1101329,-45.59827,-18.96705,1.714247
28.660644531,-9.75047899999999,32.09297,2.394829,1.032534,0.04339287,0.1402191,-45.59827,-18.96705,1.714247
28.670530319,-10.62083,35.21162,1.356275,1.015413,-0.002511964,0.1293704,-45.59827,-18.96705,1.714247
28.680417061,-5.398708,35.85889,2.333737,1.02406,-0.01788859,0.1443665,-45.59827,-18.96705,1.714247
28.690303802,1.626294,35.56468,4.349754,0.9902287,-0.0003222128,0.109613,-45.95454,-18.60495,0.5330123
28.700190067,7.90527900000001,32.03413,7.34323199999999,0.9815283,-0.01894765,0.06785705,-45.95454,-18.60495,0.5330123
28.710076809,12.69223,33.32866,12.29163,1.029145,-0.005421519,0.06688099,-45.95454,-18.60495,0.5330123
28.719963551,19.09555,29.97464,14.97966,1.040103,0.04753182,0.02719034,-45.95454,-18.60495,0.5330123
28.729849815,23.13648,30.62191,16.44585,1.06014,0.09837948,0.04330748,-45.95454,-18.60495,0.5330123
28.73973608,17.72785,31.56339,19.07278,1.069543,0.1937567,0.104875,-44.85827,-19.02969,-1.123547
28.749622822,-0.3630867,41.39008,25.05973,1.116397,0.307492,0.1615832,-44.85827,-19.02969,-1.123547
28.759509087,-21.87327,42.44925,29.51941,1.14243,0.3617255,0.1118038,-44.85827,-19.02969,-1.123547
28.769395828,-35.73677,43.27304,30.92451,1.155115,0.4030859,0.143831,-44.85827,-19.02969,-1.123547
28.77928257,-44.56465,46.03864,28.23649,1.135701,0.4036184,0.1442871,-44.85827,-19.02969,-1.123547
28.789169311,-54.38722,37.44764,17.42331,1.03489,0.3640741,0.02654666,-45.89606,-18.28894,-2.844638
28.799055576,-56.87395,23.32544,6.121404,1.026493,0.2396869,0.1094032,-45.89606,-18.28894,-2.844638
28.808941841,-49.47593,17.08814,4.288662,1.036362,0.1620933,0.1324098,-45.89606,-18.28894,-2.844638
28.821300507,-39.15602,15.08749,3.494474,1.010368,0.0643161,0.1035382,-45.89606,-18.28894,-2.844638
28.831186771,-34.86642,15.7936,2.150463,0.9761544,0.002183486,0.1124698,-45.89606,-18.28894,-2.844638
28.841073036,-35.55027,15.55823,4.899576,0.9561002,-0.02964959,0.1304019,-45.86622,-17.18459,-4.48187
28.850959301,-34.67991,16.26434,7.09886600000001,0.94969,-0.06184753,0.1257482,-45.86622,-17.18459,-4.48187
28.860846043,-24.98168,13.38106,8.320694,0.9575535,-0.04754933,0.1059671,-45.86622,-17.18459,-4.48187
28.870732784,-14.7861,14.38138,4.349754,0.9910796,-0.02444853,0.1246444,-45.86622,-17.18459,-4.48187
28.880619526,-5.709548,16.38203,4.105388,0.9732482,-0.02820491,0.06645165,-45.86622,-17.18459,-4.48187
28.890505791,-0.922600200000001,11.0862,4.105388,0.9562768,-0.03574164,0.04867636,-45.85776,-16.81489,-4.941144
28.900392532,2.310144,9.96819699999999,3.066834,0.8901661,-0.01706709,0.1163167,-45.85776,-16.81489,-4.941144
28.91027832,6.35107500000001,8.43829199999998,4.16648,0.9057049,-0.0325671,0.09140479,-45.85776,-16.81489,-4.941144
28.920165062,5.79156200000001,6.79070299999997,3.555565,0.9434991,-0.02725465,0.1260472,-45.85776,-16.81489,-4.941144
28.930051804,2.80749,3.260154,0.0733558600000001,0.9051946,-0.02096363,0.1182771,-45.85776,-16.81489,-4.941144
28.939938545,3.491339,-1.56493,-1.698295,0.8910303,-0.03232049,0.1385171,-46.97487,-17.19188,-5.804667
28.94982481,2.061472,-0.682292600000002,-1.94266,0.9159355,-0.0009767626,0.1210739,-46.97487,-17.19188,-5.804667
28.959711552,-4.279681,-1.859142,-3.836493,0.8783326,0.07461077,0.1230538,-46.97487,-17.19188,-5.804667
28.969598293,-8.88012499999997,-2.27104,-6.76888000000001,0.8554407,0.06221817,0.1379989,-46.97487,-17.19188,-5.804667
28.979484081,-15.34561,-0.4469227,-8.72380399999998,0.8339635,0.02719301,0.1376706,-46.97487,-17.19188,-5.804667
28.989370823,-23.92482,-3.565574,-10.55655,0.8288989,-0.03516255,0.1355753,-46.22805,-16.81652,-5.33884
28.999257565,-29.51995,-6.743068,-11.5951,0.8560383,-0.1762017,0.1517083,-46.22805,-16.81652,-5.33884
29.009143829,-29.89296,-8.68487099999997,-11.65619,0.9060372,-0.283742,0.1965534,-46.22805,-16.81652,-5.33884
29.019030571,-24.23566,-7.86107600000001,-10.31218,0.9365479,-0.3127337,0.1832688,-46.22805,-16.81652,-5.33884
29.028917313,-16.27814,-6.978438,-10.49545,0.9308013,-0.3097306,0.1553537,-46.22805,-16.81652,-5.33884
29.041275024,-9.812647,-9.39098100000002,-11.22855,0.9337808,-0.3345461,0.09200087,-45.84467,-17.58652,-5.773623
29.051161766,-7.20158399999998,-11.2151,-9.64017600000001,0.9429135,-0.3623634,0.08926629,-45.84467,-17.58652,-5.773623
29.061048508,-4.714858,-11.15625,-7.56306800000003,0.9531599,-0.3462999,0.09015861,-45.84467,-17.58652,-5.773623
29.070935249,-0.798263799999999,-9.56750800000002,-6.03578300000001,0.9479956,-0.2976307,0.0875022,-45.84467,-17.58652,-5.773623
29.080821037,6.66191600000002,-9.39098100000002,-5.058321,0.9327381,-0.2142386,0.09331542,-45.84467,-17.58652,-5.773623
29.090707779,16.23581,-10.27362,-5.974692,0.9157568,-0.09191055,0.06478452,-46.59859,-17.57547,-5.790782
29.100594521,22.07962,-11.27394,-8.72380399999998,0.903451,-0.01126099,0.05041626,-46.59859,-17.57547,-5.790782
29.110480785,23.82033,-11.80352,-12.26711,0.9025594,0.01859571,0.06036372,-46.59859,-17.57547,-5.790782
29.120367527,24.56635,-11.92121,-13.36675,0.9142507,0.03074637,0.06031561,-46.59859,-17.57547,-5.790782
29.130254269,24.56635,-11.627,-13.61112,0.9288049,0.02230285,0.05123733,-46.59859,-17.57547,-5.790782
29.140140533,26.05838,-12.09773,-12.51147,0.9545552,0.01313459,0.02774781,-46.62083,-17.5516,-4.493726
29.150027275,27.73692,-12.86269,-11.28964,1.003939,-0.01205434,0.04332072,-46.62083,-17.5516,-4.493726
29.15991354,28.1721,-12.56847,-9.02926199999999,1.042173,-0.02536189,0.07036301,-46.62083,-17.5516,-4.493726
29.169799805,33.70507,-12.56847,-5.058321,1.069338,-0.03128773,0.06850017,-46.62083,-17.5516,-4.493726
29.179686546,41.66259,-12.68616,0.1955387,1.062133,-0.008365271,0.06981891,-46.62083,-17.5516,-4.493726
29.189573288,48.25241,-13.5688,-0.720832200000002,1.028823,0.04280876,0.06807967,-45.86827,-18.31877,-4.465959
29.19946003,49.68229,-12.745,-2.3703,1.035719,0.06356145,0.05644054,-45.86827,-18.31877,-4.465959
29.209346294,48.99844,-13.74532,-1.209563,1.017951,0.1046854,0.03601383,-45.86827,-18.31877,-4.465959
29.219233036,50.30397,-14.98102,-1.392838,0.9971746,0.1623538,0.07946261,-45.86827,-18.31877,-4.465959
29.229118824,50.49047,-16.98166,-3.71431,1.004104,0.2082716,0.08981871,-45.86827,-18.31877,-4.465959
29.239005566,46.63604,-18.33504,-4.936138,0.9785619,0.272357,0.1058171,-45.89606,-18.28894,-2.844638
29.251364231,38.18118,-20.10031,-4.691772,0.9892554,0.2777139,0.107245,-45.89606,-18.28894,-2.844638
29.261250019,29.91281,-20.33568,-5.180504,1.005642,0.2580113,0.1270809,-45.89606,-18.28894,-2.844638
29.271136761,25.62321,-20.10031,-5.058321,1.025433,0.2337829,0.1378061,-45.89606,-18.28894,-2.844638
29.281023502,23.07431,-17.21703,-6.34123999999999,1.045155,0.177644,0.1313794,-45.89606,-18.28894,-2.844638
29.290910244,21.70661,-15.98134,-5.424869,1.045204,0.1564299,0.080509,-45.91965,-19.02119,-1.536974
29.300796509,18.90904,-16.33439,-7.807434,1.045055,0.1419458,0.1214603,-45.91965,-19.02119,-1.536974
29.31068325,11.01369,-15.21639,-6.82997100000002,1.034169,0.102476,0.1509836,-45.91965,-19.02119,-1.536974
29.320569992,4.548198,-14.6868,-3.958676,1.011368,0.08900671,0.1264987,-45.91965,-19.02119,-1.536974
29.33045578,4.859039,-18.2762,-1.637203,0.9982401,0.08071855,0.1241211,-45.91965,-19.02119,-1.536974
29.340342522,5.294216,-20.74758,0.4399042,1.003954,0.07394221,0.1602309,-45.56313,-18.62598,-0.3014944
29.350229263,1.315454,-19.92379,2.150463,1.020931,0.102842,0.2062726,-45.56313,-18.62598,-0.3014944
29.360115528,-1.482114,-18.2762,1.783915,1.012292,0.1261248,0.1989313,-45.56313,-18.62598,-0.3014944
29.37000227,-0.922600200000001,-15.9225,2.02828,1.004726,0.1417974,0.1387284,-45.56313,-18.62598,-0.3014944
29.379889011,-0.984768300000001,-16.98166,0.928635399999997,0.9955868,0.118402,0.07102633,-45.56313,-18.62598,-0.3014944
29.389775753,-3.782336,-19.57073,-0.1099183,0.9982603,0.05371865,0.07712729,-45.20256,-19.68717,0.5652003
29.399662018,-7.13941599999997,-19.21768,-0.2931925,0.9936821,-0.001676786,0.08461583,-45.20256,-19.68717,0.5652003
29.409548283,-9.99915100000003,-17.74661,0.1955387,1.009679,-0.01651102,0.07172411,-45.20256,-19.68717,0.5652003
29.419434548,-10.62083,-19.3942,-2.187026,1.004763,-0.04397181,0.0583915,-45.20256,-19.68717,0.5652003
29.429321289,-8.44494700000003,-21.39485,-4.019767,0.9983621,-0.06876487,0.06043319,-45.20256,-19.68717,0.5652003
29.439208031,-4.031008,-21.15948,-5.669235,0.9910426,-0.06253315,0.08540127,-45.58561,-19.35943,0.9413171
29.449094772,2.931826,-20.51221,-7.25761099999999,0.9796027,-0.01605809,0.06543565,-45.58561,-19.35943,0.9413171
29.458981037,10.32984,-22.33633,-6.46342299999997,0.9794512,0.06195296,0.03907153,-45.58561,-19.35943,0.9413171
29.471339226,15.8628,-22.86591,-5.547052,0.9831054,0.1334771,0.0353478,-45.58561,-19.35943,0.9413171
29.481225968,15.17895,-22.51285,-7.135428,0.9910011,0.1520499,0.008331343,-45.58561,-19.35943,0.9413171
29.491112232,10.70285,-23.16012,-8.54052999999998,1.031174,0.1377575,0.03489991,-45.96788,-18.59063,1.311246
29.500998974,7.40793400000002,-20.45337,-7.807434,1.052737,0.09220228,0.08517042,-45.96788,-18.59063,1.311246
29.510885716,6.35107500000001,-14.98102,-7.62415899999998,1.029444,0.08823049,0.07698834,-45.96788,-18.59063,1.311246
29.520771504,7.34576600000001,-11.27394,-8.418347,0.9999701,0.09391452,0.02979584,-45.96788,-18.59063,1.311246
29.530658245,10.14333,-10.56783,-9.090353,0.9885355,0.1184605,-0.02372343,-45.96788,-18.59063,1.311246
29.540544987,12.31922,-11.03857,-9.151444,0.9726047,0.1179456,-0.06028894,-45.99025,-19.26106,2.553174
