Time (s),Gyroscope X (deg/s),Gyroscope Y (deg/s),Gyroscope Z (deg/s),Accelerometer X (g),Accelerometer Y (g),Accelerometer Z (g),Magnetometer X (uT),Magnetometer Y (uT),Magnetometer Z (uT)
17.109528065,-3.533663,2.965941,1.356275,0.149933,-0.2623129,0.7799044,-12.70766,-22.35149,-28.97021
17.119416714,-1.730786,1.671407,-0.4153753,0.1295934,-0.248631,0.7802931,-12.70766,-22.35149,-28.97021
17.129304886,1.315454,0.3768721,-2.248117,0.1232368,-0.2627543,0.7793954,-11.95306,-21.98448,-28.95835
17.139193535,5.356384,-2.329882,-3.469945,0.110621,-0.2816649,0.7506214,-11.95306,-21.98448,-28.95835
17.149082184,9.52165100000002,-6.09580100000001,-4.752864,0.1003846,-0.2908249,0.7554652,-11.95306,-21.98448,-28.95835
17.158970833,13.43825,-9.39098100000002,-5.974692,0.09550153,-0.3005829,0.7535853,-11.95306,-21.98448,-28.95835
17.171331406,16.48449,-11.56815,-7.990708,0.1158758,-0.2965694,0.7641684,-11.95306,-21.98448,-28.95835
17.181220055,16.54665,-13.68648,-9.21253599999998,0.1416115,-0.2787737,0.7852682,-11.26128,-21.61655,-28.94793
17.191108704,15.8628,-18.80578,-10.55655,0.1537845,-0.2566478,0.8010407,-11.26128,-21.61655,-28.94793
17.200997353,16.11148,-23.57202,-12.02274,0.1823883,-0.2445502,0.8322719,-11.26128,-21.61655,-28.94793
17.210885048,18.4117,-27.63215,-13.30566,0.2196323,-0.2736611,0.8444845,-11.26128,-21.61655,-28.94793
17.220773697,20.27674,-29.69164,-12.38929,0.2714033,-0.281186,0.9018109,-11.26128,-21.61655,-28.94793
17.230662346,19.28205,-26.92604,-10.00672,0.3662404,-0.3168234,0.9737562,-10.90139,-23.05579,-28.07593
17.240550995,13.81125,-20.27684,-7.135428,0.4201103,-0.2984741,1.003061,-10.90139,-23.05579,-28.07593
17.250439644,4.237358,-13.03922,-4.386316,0.429949,-0.2570238,1.008153,-10.90139,-23.05579,-28.07593
17.260328293,-3.657999,-10.92089,-3.164488,0.3853889,-0.2555415,0.9710636,-10.90139,-23.05579,-28.07593
17.270216942,-3.657999,-9.037926,-2.553574,0.3627635,-0.2377691,0.9190086,-10.90139,-23.05579,-28.07593
17.280105591,0.818108400000001,-6.801911,-3.286671,0.3235912,-0.2286429,0.8727495,-12.72268,-22.65102,-28.1227
17.289993286,4.610366,-4.977794,-5.058321,0.3585658,-0.2174402,0.8775419,-12.72268,-22.65102,-28.1227
17.299881935,8.15395200000002,-4.683581,-6.21905800000003,0.3504096,-0.2070779,0.8529533,-12.72268,-22.65102,-28.1227
17.309770584,14.37077,-7.74339099999999,-7.56306800000003,0.3684876,-0.2083626,0.8020027,-12.72268,-22.65102,-28.1227
17.319659233,20.83626,-10.97973,-9.090353,0.3048554,-0.2591908,0.7488049,-12.72268,-22.65102,-28.1227
17.329547882,27.73692,-15.9225,-10.862,0.2855439,-0.2906592,0.6609335,-12.72473,-23.7852,-28.10679
17.339436531,36.25396,-19.62957,-11.04528,0.3202278,-0.3537581,0.6795667,-12.72473,-23.7852,-28.10679
17.34932518,38.74069,-18.15851,-11.10637,0.3738719,-0.3578689,0.7700617,-12.72473,-23.7852,-28.10679
17.359212875,30.09931,-17.68777,-9.21253599999998,0.3872405,-0.3614707,0.8566609,-12.72473,-23.7852,-28.10679
17.369101524,19.46856,-19.33536,-6.891063,0.4343422,-0.3353169,0.8859184,-12.72473,-23.7852,-28.10679
17.378990173,14.74378,-19.04115,-5.791418,0.4514756,-0.3029264,0.8723084,-12.74165,-24.52461,-27.18824
17.391350746,20.83626,-16.45208,-5.91360000000002,0.4611218,-0.2006231,0.8434281,-12.74165,-24.52461,-27.18824
17.401239395,26.43139,-16.92282,-6.95215400000001,0.4555286,-0.1209588,0.8617751,-12.74165,-24.52461,-27.18824
17.411128044,24.87719,-17.39356,-6.58560600000002,0.4778096,-0.09582856,0.9169794,-12.74165,-24.52461,-27.18824
17.421016693,20.52542,-18.33504,-4.14195,0.4522211,-0.07225534,0.8942279,-12.74165,-24.52461,-27.18824
17.430905342,17.54134,-23.6897,-4.447407,0.4453878,-0.09290224,0.8803777,-14.26463,-24.86506,-26.37417
17.440793991,15.17895,-27.22025,-4.080859,0.4685388,-0.1392945,0.8748674,-14.26463,-24.86506,-26.37417
17.450682163,14.37077,-25.33729,-4.691772,0.4931764,-0.160503,0.8927967,-14.26463,-24.86506,-26.37417
17.460570812,11.75971,-22.27748,-3.958676,0.5256072,-0.1605005,0.9298645,-14.26463,-24.86506,-26.37417
17.470459461,9.397315,-16.56976,-4.752864,0.5246645,-0.1621679,0.9159251,-14.26463,-24.86506,-26.37417
17.480347633,8.96213800000002,-13.92185,-4.752864,0.5378928,-0.1525217,0.8788605,-14.65005,-25.22924,-25.92348
17.490236282,9.70815600000002,-12.39195,-5.73032600000002,0.4975994,-0.1752875,0.8491126,-14.65005,-25.22924,-25.92348
17.500124931,10.95152,-11.27394,-5.791418,0.4810482,-0.1928641,0.8438925,-14.65005,-25.22924,-25.92348
17.51001358,10.51634,-9.15561100000003,-4.936138,0.4722578,-0.2069395,0.8458773,-14.65005,-25.22924,-25.92348
17.519902229,9.77032399999997,-7.62570600000002,-3.408854,0.4800478,-0.1926752,0.8563943,-14.65005,-25.22924,-25.92348
17.529790402,8.46479200000001,-6.978438,-2.553574,0.4698459,-0.193593,0.8587919,-15.04271,-25.90131,-25.07925
17.539679051,6.41324300000002,-7.21380900000002,-1.94266,0.467995,-0.1638063,0.8639295,-15.04271,-25.90131,-25.07925
17.549567699,6.66191600000002,-8.21413099999998,-0.843015,0.4821563,-0.1295393,0.8777192,-15.04271,-25.90131,-25.07925
17.559456348,7.097093,-4.860109,-0.4153753,0.4700478,-0.121717,0.8781467,-15.04271,-25.90131,-25.07925
17.56934452,6.91058800000001,-3.330204,0.745361200000002,0.4657095,-0.1174193,0.8718681,-15.04271,-25.90131,-25.07925
17.579233169,4.610366,-5.036636,1.722824,0.4443712,-0.1184876,0.8627118,-15.05716,-25.88579,-24.23616
17.589121818,1.688463,-6.801911,2.150463,0.445289,-0.1340791,0.8623106,-15.05716,-25.88579,-24.23616
17.599009991,0.818108400000001,-6.566541,2.089372,0.4423563,-0.1389212,0.8637746,-15.05716,-25.88579,-24.23616
17.60889864,1.066781,-4.918952,2.089372,0.4482004,-0.1276107,0.8718997,-15.05716,-25.88579,-24.23616
17.621259212,0.5072676,-4.977794,1.845006,0.4230205,-0.1224633,0.8545319,-15.74894,-26.25372,-24.24659
17.631147861,-1.419945,-6.743068,1.173001,0.4157488,-0.1175291,0.8578652,-15.74894,-26.25372,-24.24659
17.64103651,-3.782336,-7.39033600000002,0.623178399999998,0.4263431,-0.1269727,0.8790855,-15.74894,-26.25372,-24.24659
17.650925159,-6.02038900000001,-6.15464400000001,0.1344473,0.4292005,-0.1380775,0.8858777,-15.74894,-26.25372,-24.24659
17.660813808,-7.82326600000002,-5.91927400000001,-0.598649399999998,0.4151272,-0.1460278,0.8733979,-15.74894,-26.25372,-24.24659
17.670702457,-9.19096599999999,-6.27232800000001,-1.209563,0.4146788,-0.1457629,0.8584875,-15.75603,-25.86731,-23.79792
17.680591106,-10.06132,-6.978438,-1.637203,0.4128297,-0.1339018,0.837265,-15.75603,-25.86731,-23.79792
17.690478802,-9.56397399999999,-6.743068,-1.820477,0.4196624,-0.1311662,0.8257169,-15.75603,-25.86731,-23.79792
17.700367451,-8.32061100000001,-7.44917799999999,-2.064843,0.4070744,-0.1273607,0.8179886,-15.75603,-25.86731,-23.79792
17.7102561,-6.952912,-8.743713,-2.614666,0.4211114,-0.1395838,0.8166235,-15.75603,-25.86731,-23.79792
17.720144749,-6.144726,-9.97940500000002,-2.248117,0.4273541,-0.1545981,0.8229584,-16.133,-25.86178,-23.8065
17.730033398,-5.523044,-10.92089,-1.576112,0.4341103,-0.1638204,0.8258983,-16.133,-25.86178,-23.8065
17.739922047,-6.39339799999998,-11.92121,-1.270655,0.4408316,-0.1807835,0.8322436,-16.133,-25.86178,-23.8065
17.749810696,-7.07724800000002,-13.39227,-0.3542839,0.4296699,-0.1872427,0.8221642,-16.133,-25.86178,-23.8065
17.759699345,-8.44494700000003,-14.51028,-0.598649399999998,0.4310956,-0.1970061,0.8207724,-16.133,-25.86178,-23.8065
17.76958704,-8.50711499999998,-15.03986,-0.4764667,0.4262457,-0.1955285,0.8212404,-16.8947,-25.84238,-23.36969
17.779475689,-9.253134,-15.21639,-0.904106400000002,0.4272791,-0.1949305,0.7962306,-16.8947,-25.84238,-23.36969
17.789364338,-8.88012499999997,-14.98102,-0.904106400000002,0.4374367,-0.1957231,0.8097119,-16.8947,-25.84238,-23.36969
17.799252987,-7.512425,-15.33407,-0.965197799999999,0.4287505,-0.1925418,0.7933347,-16.8947,-25.84238,-23.36969
17.809141636,-6.20689400000001,-16.56976,-0.965197799999999,0.4243922,-0.186625,0.7976281,-16.8947,-25.84238,-23.36969
17.819030285,-5.336539,-18.80578,-1.698295,0.4141861,-0.1830381,0.8081786,-16.50217,-25.86461,-24.26905
17.828918934,-3.471495,-19.57073,-1.759386,0.4185131,-0.1902502,0.8149529,-16.50217,-25.86461,-24.26905
17.841279507,-1.668618,-21.45369,-2.79794,0.3903454,-0.1900939,0.821653,-16.50217,-25.86461,-24.26905
17.851168156,-1.917291,-23.04244,-3.042305,0.3927247,-0.1977604,0.830351,-16.50217,-25.86461,-24.26905
17.861055851,-2.041627,-26.21993,-3.408854,0.3795788,-0.2208655,0.8141015,-16.50217,-25.86461,-24.26905
17.8709445,-2.725477,-29.86817,-3.836493,0.3722526,-0.2369851,0.8098463,-17.27054,-25.83804,-23.44312
17.880833149,-4.590521,-32.81029,-4.447407,0.3581038,-0.2549096,0.8142492,-17.27054,-25.83804,-23.44312
17.890721798,-6.45556599999999,-34.34019,-4.99723,0.3736114,-0.2717051,0.8004049,-17.27054,-25.83804,-23.44312
17.900610447,-5.336539,-35.0463,-4.56959,0.3950787,-0.2505518,0.784933,-17.27054,-25.83804,-23.44312
17.910499096,-2.911981,-36.34084,-4.752864,0.4140162,-0.2456621,0.7887772,-17.27054,-25.83804,-23.44312
17.920387745,3.11833,-37.57653,-3.897585,0.4024711,-0.2194231,0.7833413,-18.40197,-25.50523,-23.40843
17.930275917,7.47010199999997,-39.87138,-4.752864,0.4286212,-0.2076494,0.8251517,-18.40197,-25.50523,-23.40843
17.940164089,9.77032399999997,-41.04824,-5.241595,0.4451449,-0.1839274,0.8505394,-18.40197,-25.50523,-23.40843
17.950052738,8.58912800000003,-40.93055,-5.058321,0.4674011,-0.1850153,0.8784636,-18.40197,-25.50523,-23.40843
17.959941387,6.78625199999999,-41.10708,-4.386316,0.4859467,-0.1692701,0.8591683,-18.40197,-25.50523,-23.40843
17.969830036,5.294216,-40.28328,-3.469945,0.4951722,-0.1683145,0.859174,-19.11586,-25.78628,-22.12268
17.979718685,4.921207,-38.75338,-2.3703,0.5083885,-0.1531176,0.8350661,-19.11586,-25.78628,-22.12268
17.989607334,6.35107500000001,-38.69453,-1.453929,0.503646,-0.1468446,0.7979981,-19.11586,-25.78628,-22.12268
17.999495983,8.65129700000001,-38.9299,-0.1099183,0.5070828,-0.1416243,0.7893191,-19.11586,-25.78628,-22.12268
18.009384155,10.019,-38.45917,0.3788128,0.5114896,-0.1339137,0.7844759,-19.11586,-25.78628,-22.12268
18.019272804,9.33514699999999,-36.81158,0.6842698,0.5056552,-0.1437922,0.7744199,-20.26187,-26.13225,-21.30004
18.029161453,7.40793400000002,-34.34019,1.356275,0.5144401,-0.1356536,0.7662131,-20.26187,-26.13225,-21.30004
18.039049625,4.299526,-31.75112,1.417367,0.5449668,-0.1483243,0.7696783,-20.26187,-26.13225,-21.30004
18.048939228,2.310144,-28.63247,1.295184,0.5609227,-0.1643892,0.7721822,-20.26187,-26.13225,-21.30004
18.061298847,0.1964268,-22.92475,2.88356,0.5707458,-0.1317973,0.7710668,-20.26187,-26.13225,-21.30004
18.071187496,-2.041627,-19.09999,3.189017,0.5461171,-0.1036781,0.7593546,-22.46149,-26.47807,-21.34478
18.081076145,-2.538972,-18.04082,3.005743,0.5355082,-0.1021048,0.732884,-22.46149,-26.47807,-21.34478
18.090964794,-4.155344,-18.98231,2.02828,0.5214661,-0.09134255,0.7342563,-22.46149,-26.47807,-21.34478
18.100853443,-8.81795700000002,-21.15948,1.539549,0.5204326,-0.1043803,0.7415348,-22.46149,-26.47807,-21.34478
18.110741615,-9.56397399999999,-23.45433,0.0733558600000001,0.5489126,-0.1731129,0.7082501,-22.46149,-26.47807,-21.34478
18.120630264,-7.69893,-24.5135,-2.003752,0.5854352,-0.1137249,0.7440606,-23.98378,-26.44045,-20.53601
18.130518913,-5.523044,-25.10192,-4.508498,0.6186519,-0.2071071,0.7238907,-23.98378,-26.44045,-20.53601
18.140407562,-7.57459399999998,-26.33762,-6.64669700000003,0.6611163,-0.1340407,0.7307835,-23.98378,-26.44045,-20.53601
18.150296211,-12.11287,-24.74887,-5.669235,0.6625763,-0.1460107,0.7120897,-23.98378,-26.44045,-20.53601
18.160184383,-13.85358,-21.45369,-5.974692,0.6054198,-0.1481351,0.660096,-23.98378,-26.44045,-20.53601
18.170073032,-9.93698300000002,-19.57073,-6.28014899999998,0.5822251,-0.1387888,0.6306863,-25.49162,-26.41835,-20.57034
18.179961205,-4.528353,-20.51221,-6.34123999999999,0.5991233,-0.1750794,0.6159803,-25.49162,-26.41835,-20.57034
18.189849854,-3.533663,-22.1598,-6.09687499999998,0.6461594,-0.1778712,0.6309565,-25.49162,-26.41835,-20.57034
18.199738503,-6.766407,-24.27813,-6.09687499999998,0.6955715,-0.1614374,0.6944112,-25.49162,-26.41835,-20.57034
18.209627152,-7.88543400000003,-26.98488,-5.73032600000002,0.7183902,-0.1859038,0.6570489,-25.49162,-26.41835,-20.57034
18.219515801,-6.33123000000002,-29.86817,-6.52451399999998,0.7455486,-0.1763604,0.6801158,-25.82131,-26.39704,-19.66954
18.22940445,-3.471495,-31.10386,-7.68525100000001,0.7392929,-0.1771872,0.6565477,-25.82131,-26.39704,-19.66954
18.239293099,-2.725477,-31.51575,-7.62415899999998,0.7217923,-0.1869348,0.6536915,-25.82131,-26.39704,-19.66954
18.249181747,-1.855123,-31.80997,-7.990708,0.6661646,-0.1661324,0.6044692,-25.82131,-26.39704,-19.66954
18.259069443,-1.482114,-31.69228,-8.78489600000001,0.6404952,-0.1390621,0.6201736,-25.82131,-26.39704,-19.66954
18.268958092,-0.5495912,-32.98682,-10.55655,0.6721255,-0.1018145,0.64022,-26.94441,-26.38881,-20.14926
18.281318665,0.00992228700000002,-36.10546,-11.22855,0.7413977,-0.1274649,0.6601461,-26.94441,-26.38881,-20.14926
18.291207314,-0.736095699999999,-38.04727,-11.83947,0.7585064,-0.1038755,0.644176,-26.94441,-26.38881,-20.14926
18.301095963,3.180499,-38.2238,-11.83947,0.745288,-0.1404569,0.6385748,-26.94441,-26.38881,-20.14926
18.310984612,5.91589799999997,-38.40032,-13.12239,0.6944142,-0.1434166,0.5966918,-27.71347,-26.7403,-19.31802
18.320873261,9.64598800000001,-37.4,-13.48893,0.6650741,-0.2086674,0.5931408,-27.71347,-26.7403,-19.31802
18.33076191,8.27828799999998,-37.51768,-12.75584,0.713751,-0.1877476,0.5656779,-27.71347,-26.7403,-19.31802
18.340650559,8.58912800000003,-38.16496,-10.862,0.7432271,-0.2123527,0.5850726,-27.71347,-26.7403,-19.31802
18.350538254,11.07586,-37.4,-10.00672,0.7600394,-0.2485981,0.6059545,-27.71347,-26.7403,-19.31802
18.360426903,12.13271,-36.39968,-8.29616499999998,0.7324988,-0.2498358,0.5520663,-29.16831,-27.84495,-18.88103
18.370315552,19.03338,-35.0463,-7.990708,0.700267,-0.2639546,0.613178,-29.16831,-27.84495,-18.88103
18.380204201,23.32298,-32.33955,-6.15796599999999,0.7275328,-0.2282166,0.6293797,-29.16831,-27.84495,-18.88103
18.39009285,11.32453,-30.16238,-3.164488,0.668772,-0.05887241,0.4827381,-29.16831,-27.84495,-18.88103
18.399981499,7.22142900000002,-38.40032,-6.402331,0.6475144,-0.1305376,0.5398247,-29.16831,-27.84495,-18.88103
18.409870148,11.82187,-40.40097,-6.58560600000002,0.6457267,-0.1901466,0.5915824,-29.21277,-27.79721,-16.28692
18.419758797,13.37608,-40.98939,-6.891063,0.70886,-0.1452041,0.6419238,-29.21277,-27.79721,-16.28692
18.429646492,7.78094299999999,-40.40097,-4.630681,0.8218981,-0.1510551,0.6565096,-29.21277,-27.79721,-16.28692
18.439535141,-3.657999,-37.10579,-1.759386,0.7608637,0.0496721,0.4914317,-29.21277,-27.79721,-16.28692
18.44942379,3.429171,-41.2836,-3.592128,0.7043011,-0.2027127,0.6383619,-29.21277,-27.79721,-16.28692
18.459312439,7.96744700000002,-41.75434,-2.736848,0.7118411,-0.1809768,0.5622751,-30.73643,-28.51572,-15.46755
18.469201088,14.86811,-45.10837,-1.698295,0.7284232,-0.1695673,0.545885,-30.73643,-28.51572,-15.46755
18.479089737,18.4117,-48.3447,-0.781923700000001,0.7691639,-0.1644763,0.5661042,-30.73643,-28.51572,-15.46755
18.488978386,20.15241,-50.22766,0.3177214,0.7807551,-0.1546792,0.6040607,-30.73643,-28.51572,-15.46755
18.501338959,16.73316,-47.75628,1.845006,0.7303135,-0.168252,0.5689647,-30.73643,-28.51572,-15.46755
18.511227608,14.18426,-47.63859,2.517012,0.6944944,-0.1598475,0.5400262,-32.2604,-28.79195,-14.58951
18.521116257,12.81656,-50.22766,2.02828,0.6945316,-0.1645608,0.5179277,-32.2604,-28.79195,-14.58951
18.531003952,9.956828,-51.69873,0.989726799999999,0.7217811,-0.1341937,0.5331947,-32.2604,-28.79195,-14.58951
18.540892601,8.02961499999997,-51.28683,-0.720832200000002,0.7705476,-0.08348382,0.5113525,-32.2604,-28.79195,-14.58951
18.55078125,4.672534,-50.16882,-2.125934,0.8053046,-0.01624746,0.4855634,-32.2604,-28.79195,-14.58951
18.560669899,3.491339,-50.87493,-3.164488,0.840275,0.003441837,0.5042596,-32.9876,-28.4274,-12.46951
18.570558548,5.480721,-50.99261,-4.080859,0.8538731,-0.004097778,0.4903665,-32.9876,-28.4274,-12.46951
18.580447197,10.019,-51.46336,-5.73032600000002,0.8269637,-0.04549096,0.5194004,-32.9876,-28.4274,-12.46951
18.590335846,13.06524,-54.34664,-7.50197599999999,0.7668963,-0.03716793,0.4817781,-32.9876,-28.4274,-12.46951
18.600224495,13.62475,-58.4656099999999,-9.51799300000002,0.7459709,-0.04872711,0.4875838,-32.9876,-28.4274,-12.46951
18.610112667,13.93559,-61.7019500000003,-10.37327,0.7361853,-0.07956537,0.4757054,-34.52434,-28.37427,-10.81766
18.620001316,10.82718,-63.7025899999997,-10.862,0.7404337,-0.1171336,0.4715718,-34.52434,-28.37427,-10.81766
18.629889488,5.729393,-64.7029099999998,-10.25109,0.7315977,-0.1453521,0.4721853,-34.52434,-28.37427,-10.81766
18.639778137,2.12364,-67.5861999999999,-9.02926199999999,0.7501026,-0.1402982,0.4543867,-34.52434,-28.37427,-10.81766
18.649666786,0.2585949,-69.4103100000003,-6.34123999999999,0.7851101,-0.159161,0.4025824,-34.52434,-28.37427,-10.81766
18.659555435,1.253286,-70.5871700000002,-4.447407,0.8201434,-0.1662436,0.3569705,-35.31799,-29.39381,-8.614797
18.669444084,3.553508,-69.7045200000001,-2.859031,0.8429629,-0.1693182,0.3497982,-35.31799,-29.39381,-8.614797
18.679332733,2.185808,-67.8804099999998,-2.309208,0.8494194,-0.1428866,0.3270687,-35.31799,-29.39381,-8.614797
18.689220905,-0.487423,-66.8800899999997,-2.736848,0.8252009,-0.1132982,0.348533,-35.31799,-29.39381,-8.614797
18.699109554,-0.611759299999997,-69.2337900000003,-3.958676,0.8086484,-0.1423119,0.3275003,-35.31799,-29.39381,-8.614797
18.708998203,3.553508,-73.5881299999997,-5.608143,0.832752,-0.1761513,0.3474165,-37.1851,-29.69743,-6.05685
18.721358776,8.58912800000003,-76.5891000000001,-6.28014899999998,0.8527925,-0.1412455,0.3395681,-37.1851,-29.69743,-6.05685
18.731247425,11.94621,-76.7067800000002,-6.70778799999998,0.8490417,-0.1112197,0.32787,-37.1851,-29.69743,-6.05685
18.741136074,12.56789,-76.7067800000002,-7.50197599999999,0.841381,-0.07653766,0.333938,-37.1851,-29.69743,-6.05685
18.751024246,10.70285,-75.7653,-8.05179900000001,0.8381636,-0.0527877,0.293417,-37.1851,-29.69743,-6.05685
18.760912895,9.21081099999998,-76.8833099999999,-8.96817000000001,0.8440806,-0.04591931,0.2650147,-37.9828,-29.26058,-3.485202
18.770801544,7.15926100000001,-79.3546900000001,-10.06781,0.8548148,-0.03186211,0.2620703,-37.9828,-29.26058,-3.485202
18.780689716,6.288907,-82.3556599999998,-12.20601,0.8607534,-0.02313942,0.2274067,-37.9828,-29.26058,-3.485202
18.790578365,7.40793400000002,-85.2389400000003,-14.77185,0.8491915,-0.007742665,0.213369,-37.9828,-29.26058,-3.485202
18.800467014,7.22142900000002,-88.23991,-17.2766,0.8187691,0.0172075,0.1843531,-37.9828,-29.26058,-3.485202
18.810355663,6.102402,-89.9463400000002,-19.53698,0.7852819,0.02570999,0.1948523,-38.4049,-29.58538,-0.8943655
18.820244312,1.315454,-91.7116199999999,-22.16391,0.7571448,0.03064947,0.1957572,-38.4049,-29.58538,-0.8943655
18.830132961,-6.02038900000001,-93.94763,-23.87447,0.7590687,0.0292639,0.2010565,-38.4049,-29.58538,-0.8943655
18.84002161,-13.29406,-96.0659599999999,-23.93556,0.8031724,0.01267077,0.204557,-38.4049,-29.58538,-0.8943655
18.849909782,-19.44871,-98.3608200000001,-24.48538,0.8614607,0.03069497,0.2127078,-38.4049,-29.58538,-0.8943655
18.859798431,-24.73301,-99.0669300000002,-24.17993,0.928888,0.03479523,0.2353671,-38.84034,-29.89586,2.474705
18.869686604,-26.41155,-97.9489100000001,-23.87447,0.9812752,0.01101615,0.2153481,-38.84034,-29.89586,2.474705
18.879575253,-24.42216,-96.8309099999999,-23.44683,1.030345,0.02853566,0.2210864,-38.84034,-29.89586,2.474705
18.889463901,-24.48433,-93.6534200000001,-23.87447,1.041059,0.03525991,0.2162554,-38.84034,-29.89586,2.474705
18.89935255,-26.28721,-90.00518,-23.50792,1.028564,0.05489727,0.1925768,-38.84034,-29.89586,2.474705
18.909241199,-30.76332,-86.4746299999998,-25.95158,0.9921391,0.04664795,0.1896916,-39.25671,-31.3632,4.627483
18.919129848,-35.73677,-85.1212499999998,-27.11231,0.982929,0.04310653,0.1795997,-39.25671,-31.3632,4.627483
18.929018497,-39.7777,-85.5331500000001,-28.39523,1.052708,-0.008556543,0.1534894,-39.25671,-31.3632,4.627483
18.94137907,-37.66398,-90.2405500000001,-29.61706,1.234942,-0.1276573,0.09418335,-39.25671,-31.3632,4.627483
18.951267719,-27.59274,-94.1241499999999,-30.16689,1.38908,-0.2191816,0.05153821,-39.25671,-31.3632,4.627483
18.961156368,-14.66176,-93.0649900000002,-29.80034,1.42779,-0.2593103,0.04360935,-39.66562,-32.39662,6.384957
18.971044064,-0.984768300000001,-85.7685200000002,-30.65561,1.343734,-0.2695479,0.06424512,-39.66562,-32.39662,6.384957
18.980932713,10.95152,-74.8238199999998,-29.3727,1.226484,-0.2079461,0.06476235,-39.66562,-32.39662,6.384957
18.990821362,18.28736,-65.1148100000001,-28.02869,1.145154,-0.1469238,0.06388059,-39.66562,-32.39662,6.384957
19.000710011,22.20396,-58.7598199999997,-28.94506,1.070159,-0.108968,0.01935877,-39.66562,-32.39662,6.384957
19.01059866,24.00683,-55.87654,-28.76178,1.005203,-0.1262946,-0.04074265,-38.95889,-33.87217,9.017446
19.020487309,21.95528,-56.75918,-26.56249,1.013049,-0.1283102,-0.07679263,-38.95889,-33.87217,9.017446
19.030375957,19.21988,-55.11159,-22.89701,1.072759,-0.1364422,-0.09159219,-38.95889,-33.87217,9.017446
19.040264606,18.53604,-48.22702,-18.80388,1.111569,-0.132909,-0.07810013,-38.95889,-33.87217,9.017446
19.050152302,20.58758,-40.40097,-15.81041,1.121909,-0.07265349,-0.05290405,-38.95889,-33.87217,9.017446
19.060040951,24.069,-32.22186,-14.22203,1.15007,-0.03743112,-0.005919756,-38.61998,-34.59444,11.17678
19.0699296,27.42608,-24.69003,-13.79439,1.169087,0.01473036,0.03279288,-38.61998,-34.59444,11.17678
19.079818249,28.73161,-20.57105,-14.09985,1.170619,0.05604813,0.06047925,-38.61998,-34.59444,11.17678
19.089706898,23.8825,-17.98198,-13.55002,1.167723,0.07884179,0.08633051,-38.61998,-34.59444,11.17678
19.099595547,13.50041,-16.98166,-11.53401,1.164416,0.08822785,0.06223327,-38.61998,-34.59444,11.17678
19.109484196,1.066781,-18.98231,-8.235073,1.192071,0.05888239,0.02490117,-37.12852,-35.6722,12.06921
19.119372845,-11.36685,-23.6897,-2.431391,1.284428,0.05784434,-0.03221818,-37.12852,-35.6722,12.06921
19.12926054,-21.87327,-30.51543,3.555565,1.408829,0.05619133,-0.09362628,-37.12852,-35.6722,12.06921
19.139149189,-27.2819,-32.81029,6.976684,1.470632,0.06003284,-0.1541715,-37.12852,-35.6722,12.06921
19.149037838,-26.10071,-27.57331,4.410845,1.327738,-0.001664062,-0.1631597,-37.12852,-35.6722,12.06921
19.161398411,-24.42216,-19.68842,3.433383,1.001889,-0.07613465,-0.2040321,-37.14283,-34.96238,12.96743
19.17128706,-24.79517,-19.15883,2.944651,0.8799263,-0.07903437,-0.1536594,-37.14283,-34.96238,12.96743
19.181175709,-28.21442,-19.51189,2.333737,0.8207234,-0.07352498,-0.15135,-37.14283,-34.96238,12.96743
19.191064358,-30.45248,-20.74758,1.417367,0.8343658,-0.06094156,-0.1547645,-37.14283,-34.96238,12.96743
19.200953007,-27.65491,-22.98359,0.928635399999997,0.8883589,-0.03092923,-0.159664,-36.38948,-35.28848,12.98901
19.210841656,-18.39185,-25.04308,-0.2931925,0.9762813,-0.01213348,-0.1611018,-36.38948,-35.28848,12.98901
19.220730305,-5.087867,-25.33729,-0.965197799999999,1.027556,0.07139841,-0.1696413,-36.38948,-35.28848,12.98901
19.230618,8.96213800000002,-25.10192,-4.386316,1.033041,0.1122698,-0.1712843,-36.38948,-35.28848,12.98901
19.240506649,21.83095,-24.1016,-6.15796599999999,1.035457,0.125765,-0.1477846,-36.38948,-35.28848,12.98901
19.250395298,29.85064,-21.45369,-7.807434,1.030542,0.1326371,-0.1122368,-36.78157,-35.6455,13.82882
19.260283947,31.84002,-18.09967,-7.62415899999998,1.022286,0.143131,-0.09546697,-36.78157,-35.6455,13.82882
19.270172596,27.9856,-15.39291,-7.25761099999999,0.9984964,0.1357515,-0.1036324,-36.78157,-35.6455,13.82882
19.280061245,20.02807,-14.80449,-5.91360000000002,0.9926595,0.1124522,-0.1318956,-36.78157,-35.6455,13.82882
19.289949894,8.83780200000001,-16.09902,-3.897585,0.9833795,0.08745633,-0.1438029,-36.78157,-35.6455,13.82882
19.299838543,-4.031008,-16.74629,-1.637203,0.9901491,0.07367176,-0.152863,-35.34309,-34.96523,14.30595
19.309726715,-16.09163,-16.45208,-0.1710097,0.9963873,0.03430081,-0.1795886,-35.34309,-34.96523,14.30595
19.319614887,-24.36,-15.0987,0.989726799999999,1.002159,0.01024192,-0.1919644,-35.34309,-34.96523,14.30595
19.329503536,-26.84672,-14.21606,1.661732,1.005576,0.0006524031,-0.2140344,-35.34309,-34.96523,14.30595
19.339392185,-23.11663,-13.33343,1.417367,1.012882,-0.005493011,-0.2332319,-35.34309,-34.96523,14.30595
19.349280834,-14.9726,-11.74468,0.745361200000002,1.026034,-0.0003422832,-0.245266,-35.3581,-35.26476,15.15346
19.359169483,-5.336539,-10.56783,-0.2321011,1.009621,0.01057367,-0.2665003,-35.3581,-35.26476,15.15346
19.369058132,3.740012,-9.86171999999999,-0.843015,1.000453,0.0246774,-0.2689866,-35.3581,-35.26476,15.15346
19.378946781,10.51634,-10.09709,-1.209563,0.9839485,0.03815962,-0.2488749,-35.3581,-35.26476,15.15346
19.391307354,14.1221,-10.86204,-1.637203,1.009104,0.03366458,-0.2204492,-35.3581,-35.26476,15.15346
19.401196003,13.25174,-8.743713,-0.598649399999998,0.987711,0.03692332,-0.2007722,-35.3581,-35.26476,15.15346
19.411084175,9.64598800000001,-7.44917799999999,0.1955387,0.9968792,0.02778975,-0.1915781,-35.3581,-35.26476,15.15346
19.420972824,4.548198,-5.389691,0.806452599999999,0.9876859,0.03409513,-0.194506,-35.3581,-35.26476,15.15346
19.430861473,-0.3009185,-2.859464,1.600641,0.9916254,0.04666897,-0.1998552,-35.3581,-35.26476,15.15346
19.440749645,-4.341849,-2.212197,2.517012,0.9820679,0.07311063,-0.2240457,-35.3581,-35.26476,15.15346
19.450638294,-6.766407,-2.153355,3.250108,0.9831361,0.08742227,-0.2438346,-35.35032,-35.27311,14.69949
19.460526943,-6.64207099999998,-3.153677,3.616657,0.9821933,0.08475932,-0.2592117,-35.35032,-35.27311,14.69949
19.470415592,-4.466185,-4.507054,3.799931,0.9739977,0.1008449,-0.2593023,-35.35032,-35.27311,14.69949
19.480304241,-0.673927500000001,-5.91927400000001,3.922114,0.973484,0.09704375,-0.2530317,-35.35032,-35.27311,14.69949
19.49019289,2.993994,-6.331171,3.616657,0.9695562,0.09086495,-0.2433865,-35.35032,-35.27311,14.69949
19.500081062,5.729393,-6.21348599999998,3.189017,0.970452,0.08735581,-0.217398,-35.37198,-34.9342,15.99213
19.509969711,6.102402,-5.97811599999998,3.005743,0.9689624,0.08209576,-0.2111211,-35.37198,-34.9342,15.99213
19.51985836,4.113021,-5.74274599999998,3.005743,0.9796117,0.08176031,-0.1995652,-35.37198,-34.9342,15.99213
19.529747009,0.3207631,-5.625061,3.250108,0.9893283,0.08267906,-0.2019634,-35.37198,-34.9342,15.99213
19.539635182,-4.155344,-5.683904,4.044297,0.9941629,0.07781439,-0.2009715,-35.37198,-34.9342,15.99213
19.54952383,-8.258443,-4.918952,4.471936,0.999981,0.07734469,-0.1990388,-35.3713,-34.55614,15.98682
19.559412479,-10.4965,-3.683259,4.533028,0.9984846,0.06068351,-0.2061702,-35.3713,-34.55614,15.98682
19.569301128,-10.93167,-2.153355,5.143942,0.9926393,0.05137111,-0.2109389,-35.3713,-34.55614,15.98682
19.5791893,-9.37747000000002,-0.3880802,4.716302,0.990644,0.0422596,-0.2017577,-35.3713,-34.55614,15.98682
19.589077949,-7.63676199999999,-0.917662500000002,5.205033,0.9901487,0.03336607,-0.2103699,-35.3713,-34.55614,15.98682
19.598966598,-2.414636,-1.32956,5.571581,1.011525,0.025732,-0.2295438,-34.60361,-34.96077,15.1662
19.611327171,4.48603,3.201311,5.93813000000001,1.023172,0.02074602,-0.2357574,-34.60361,-34.96077,15.1662
19.62121582,4.672534,7.02607300000003,5.99922100000002,1.014888,0.01052206,-0.236677,-34.60361,-34.96077,15.1662
19.631104469,0.818108400000001,7.79102499999999,6.73231800000002,1.005609,0.001940644,-0.225583,-34.60361,-34.96077,15.1662
19.640993118,-4.217513,6.96723000000003,7.09886600000001,1.00266,0.000185594,-0.2130735,-34.60361,-34.96077,15.1662
19.650881767,-8.258443,7.20260000000002,7.46541499999997,1.000699,0.0003116885,-0.2049007,-35.36463,-34.5633,15.5977
19.660769939,-10.55867,7.73218199999999,8.13742,0.9977883,-0.0006852171,-0.2068227,-35.36463,-34.5633,15.5977
19.670658588,-10.12349,8.20292199999998,9.42034000000002,1.004139,0.006011695,-0.2140631,-35.36463,-34.5633,15.5977
19.68054676,-6.952912,9.497457,10.51998,1.011447,0.006318848,-0.2251175,-35.36463,-34.5633,15.5977
19.690435409,-3.409327,11.55694,11.49745,1.025518,0.003834724,-0.2265317,-35.36463,-34.5633,15.5977
19.700324058,-0.611759299999997,14.73444,11.86399,1.024074,0.002770216,-0.23278,-34.96408,-33.83657,14.29862
19.710212707,0.5694358,17.67656,12.41382,1.012844,-0.008736232,-0.2221543,-34.96408,-33.83657,14.29862
19.720101356,-0.798263799999999,19.26531,12.47491,1.011335,-0.0163591,-0.2110564,-34.96408,-33.83657,14.29862
19.729990005,-3.720167,19.44184,12.71927,1.005905,-0.03219485,-0.1960739,-34.96408,-33.83657,14.29862
19.739878654,-6.64207099999998,19.26531,13.02473,1.023752,-0.05540961,-0.1829515,-34.96408,-33.83657,14.29862
19.749766827,-7.26375199999999,20.61869,14.61311,1.077802,-0.1257072,-0.1546414,-35.34104,-33.83105,14.29004
19.759655476,-7.01508000000001,24.44345,18.64514,1.028997,-0.07423849,-0.1713083,-35.34104,-33.83105,14.29004
19.769543648,-6.08255700000002,28.32705,19.6226,1.088037,-0.09364431,-0.1259365,-35.34104,-33.83105,14.29004
19.779432297,-5.025699,34.68204,22.12735,1.101533,-0.1094959,-0.1094897,-35.34104,-33.83105,14.29004
19.789320946,-2.165963,41.44893,23.77682,1.12713,-0.1261584,-0.08052116,-35.34104,-33.83105,14.29004
19.799209595,-2.663309,46.33286,26.09829,1.114506,-0.1265988,-0.07909052,-36.39353,-33.8321,13.35779
19.809098244,-2.228132,54.45312,27.13684,1.143836,-0.1662109,-0.02114647,-36.39353,-33.8321,13.35779
19.818986893,-5.585212,61.9261100000003,31.47433,1.116653,-0.1621609,-0.01446495,-36.39353,-33.8321,13.35779
19.831347465,-12.36154,67.3396199999998,34.58999,1.098719,-0.1558167,-0.01596016,-36.39353,-33.8321,13.35779
19.841236114,-16.96199,72.8119700000002,36.17837,1.106991,-0.1410304,-0.003040613,-36.39353,-33.8321,13.35779
19.851124763,-20.4434,79.2257999999998,37.95002,1.123824,-0.1769111,0.009663791,-37.50013,-32.70521,12.01908
19.861013412,-26.03854,86.2280599999999,42.65406,1.11269,-0.1641349,0.01583854,-37.50013,-32.70521,12.01908
19.870901108,-30.82549,92.7595700000002,46.19736,1.068528,-0.1800183,-0.01010114,-37.50013,-32.70521,12.01908
19.880789757,-31.44717,95.99591,48.39665,1.011851,-0.170162,-0.0424371,-37.50013,-32.70521,12.01908
19.890678406,-27.77925,94.8779000000001,47.48028,0.9799131,-0.1652385,-0.07568185,-37.50013,-32.70521,12.01908
19.900567055,-21.87327,90.6412400000003,45.03662,0.9581488,-0.1532446,-0.09067576,-39.32272,-30.91354,8.513349
19.910455704,-16.65115,85.875,40.39367,0.9286924,-0.1242858,-0.1120161,-39.32272,-30.91354,8.513349
19.920344353,-12.54805,79.5200100000002,35.68964,0.8943419,-0.09456425,-0.1155718,-39.32272,-30.91354,8.513349
19.930233002,-8.38277900000002,72.6942799999998,29.88596,0.837735,-0.04335137,-0.1178187,-39.32272,-30.91354,8.513349
19.940121651,-5.585212,64.5151800000003,22.98263,0.8053304,-0.007689656,-0.1146693,-39.32272,-30.91354,8.513349
19.9500103,-3.595831,55.10038,17.4844,0.782248,0.04573355,-0.1274694,-40.69968,-30.20784,4.578681
19.959897995,-3.657999,43.74379,10.03125,0.7572101,0.09277995,-0.143606,-40.69968,-30.20784,4.578681
19.969786644,-5.336539,32.03413,4.410845,0.762352,0.1606193,-0.1655844,-40.69968,-30.20784,4.578681
19.979675293,-10.06132,20.26563,-0.659740900000002,0.7887476,0.2021932,-0.1825967,-40.69968,-30.20784,4.578681
19.989563942,-16.27814,9.32093,-5.73032600000002,0.8218444,0.2149879,-0.2018606,-40.69968,-30.20784,4.578681
19.999452591,-23.30314,-1.035347,-10.55655,0.8286015,0.1963051,-0.2128197,-41.78405,-29.10481,1.942917
20.00934124,-30.39031,-10.74436,-14.83294,0.804231,0.1566874,-0.2275558,-41.78405,-29.10481,1.942917
20.019229889,-36.91796,-20.80642,-18.0097,0.8011794,0.1172648,-0.2263982,-41.78405,-29.10481,1.942917
20.029118538,-42.63744,-29.92701,-20.08681,0.8096797,0.05454651,-0.2183768,-41.78405,-29.10481,1.942917
20.039006233,-46.86487,-37.4,-22.16391,0.8375977,0.001228773,-0.197877,-41.78405,-29.10481,1.942917
20.05136776,-50.9058,-45.22605,-24.48538,0.8668827,-0.04754902,-0.1341156,-41.02278,-28.74496,1.565656
20.061255455,-53.88987,-48.69776,-25.70721,0.9025962,-0.08166103,-0.09831448,-41.02278,-28.74496,1.565656
20.071144104,-56.50094,-49.52155,-26.31813,0.9343367,-0.1480405,-0.07149228,-41.02278,-28.74496,1.565656
20.081032753,-57.06045,-49.99229,-29.18942,0.9500822,-0.2200036,-0.06197324,-41.02278,-28.74496,1.565656
20.090921402,-55.50624,-50.52187,-30.41125,0.9385871,-0.3049743,-0.04664837,-41.40709,-29.11034,1.951497
20.100810051,-52.46001,-51.16914,-30.96107,0.920036,-0.3450689,-0.05993264,-41.40709,-29.11034,1.951497
20.1106987,-49.10292,-53.22863,-31.20544,0.9097588,-0.3783554,-0.07276098,-41.40709,-29.11034,1.951497
20.120587349,-45.68368,-54.52316,-30.16689,0.9199135,-0.393063,-0.07796525,-41.40709,-29.11034,1.951497
20.130475998,-44.56465,-55.99422,-30.10579,0.9427651,-0.4003209,-0.1043532,-41.40709,-29.11034,1.951497
20.140364647,-41.82925,-55.4058,-28.94506,0.9486301,-0.4020809,-0.1235745,-41.04731,-30.61259,2.824379
20.150252342,-40.39938,-53.464,-27.05122,0.9443141,-0.384986,-0.1207803,-41.04731,-30.61259,2.824379
20.160140991,-39.28036,-52.40483,-25.89049,0.966332,-0.3219469,-0.1032797,-41.04731,-30.61259,2.824379
20.17002964,-40.15071,-50.46303,-23.32465,1.111928,-0.2743587,-0.02785006,-41.04731,-30.61259,2.824379
20.179918289,-41.33191,-45.93216,-19.35371,1.352247,-0.2438465,-0.007051396,-41.04731,-30.61259,2.824379
20.189806938,-35.55027,-37.63537,-15.50495,1.591019,-0.2271869,0.03160959,-39.54919,-31.69751,3.327697
20.199695587,-26.03854,-26.63183,-11.90056,1.76767,-0.2348402,0.03184912,-39.54919,-31.69751,3.327697
20.209584236,-12.73455,-16.27555,-12.75584,1.738018,-0.2384831,0.04481868,-39.54919,-31.69751,3.327697
20.219472885,4.423862,-3.742102,-15.44386,1.406499,-0.2412654,0.04253211,-39.54919,-31.69751,3.327697
20.22936058,17.79002,-1.976827,-15.93259,0.9899406,-0.1736692,-0.01936008,-39.54919,-31.69751,3.327697
20.239249229,21.76878,-7.27265099999999,-11.47292,0.8030711,-0.07037044,-0.07299587,-39.63629,-32.8069,4.639235
20.249137878,16.42232,-9.15561100000003,-8.418347,0.7256915,-0.01724972,-0.1132687,-39.63629,-32.8069,4.639235
20.259026527,0.9424447,-15.15754,-7.01324599999999,0.6960768,-0.05496868,-0.1645704,-39.63629,-32.8069,4.639235
20.268915176,-14.9726,-19.57073,-3.408854,0.6942798,-0.0518963,-0.2198938,-39.63629,-32.8069,4.639235
20.281275749,-35.73677,-26.57299,-3.653219,0.7447624,0.01707318,-0.3231021,-39.63629,-32.8069,4.639235
20.291164398,-52.46001,-32.45723,-6.70778799999998,0.8576937,0.08198439,-0.3636991,-38.87527,-33.20436,4.207729
20.301053047,-65.9505,-35.8701,-9.64017600000001,0.9918295,0.1298987,-0.3657124,-38.87527,-33.20436,4.207729
20.310941696,-70.6752899999998,-35.10514,-13.67221,1.092027,0.2209348,-0.3218138,-38.87527,-33.20436,4.207729
20.320830345,-64.8314700000001,-30.63312,-19.23153,1.095096,0.2985642,-0.2755532,-38.87527,-33.20436,4.207729
20.330718994,-52.2735,-29.10321,-24.72975,1.054817,0.3478656,-0.2080382,-38.87527,-33.20436,4.207729
20.34060669,-40.89673,-30.63312,-29.00615,1.01796,0.2776509,-0.1211595,-38.10759,-33.60899,3.387107
20.350495339,-40.52372,-34.34019,-26.37922,0.9982785,0.113241,-0.04580835,-38.10759,-33.60899,3.387107
20.360383988,-45.80801,-37.45884,-22.04173,0.9826298,-0.03221637,-0.00517465,-38.10759,-33.60899,3.387107
20.370272636,-52.14917,-37.16463,-17.88751,0.970646,-0.1296043,-0.006138908,-38.10759,-33.60899,3.387107
20.380161285,-57.06045,-35.63473,-13.30566,0.953593,-0.1843985,-0.05782088,-38.10759,-33.60899,3.387107
20.390049934,-57.3091199999999,-33.63408,-9.88454100000001,0.9414984,-0.2010479,-0.09814786,-37.73909,-33.98421,3.854961
20.399938583,-54.01421,-30.16238,-8.96817000000001,0.9379305,-0.1418218,-0.1436578,-37.73909,-33.98421,3.854961
20.409827232,-49.22726,-29.10321,-10.12891,0.966316,-0.09806865,-0.1775111,-37.73909,-33.98421,3.854961
20.419715881,-43.81863,-27.2791,-9.21253599999998,1.002975,-0.02560708,-0.1792783,-37.73909,-33.98421,3.854961
20.429604054,-39.09385,-25.57266,-8.17398199999999,1.030877,0.04002573,-0.1829447,-37.73909,-33.98421,3.854961
20.439492226,-34.67991,-22.5717,-6.58560600000002,1.041783,0.1057497,-0.1827835,-37.35629,-35.06926,3.424599
20.449380875,-30.45248,-18.86462,-6.52451399999998,1.024915,0.1413519,-0.1815398,-37.35629,-35.06926,3.424599
20.459269524,-29.27128,-15.39291,-6.46342299999997,1.008404,0.1449154,-0.173401,-37.35629,-35.06926,3.424599
20.469158173,-31.385,-13.33343,-6.64669700000003,0.9918265,0.130992,-0.1622883,-37.35629,-35.06926,3.424599
20.479046822,-35.4881,-12.50963,-7.135428,0.9873701,0.122101,-0.1386833,-37.35629,-35.06926,3.424599
20.488935471,-38.90735,-11.33278,-7.74634200000002,0.9800459,0.1189081,-0.1252097,-36.98069,-35.83091,3.443787
20.501296044,-39.28036,-11.09741,-8.72380399999998,0.9708417,0.107367,-0.1492079,-36.98069,-35.83091,3.443787
20.511184693,-37.16664,-12.33311,-8.47943899999997,0.9742565,0.1032705,-0.1621682,-36.98069,-35.83091,3.443787
20.521073341,-34.49341,-13.1569,-7.62415899999998,0.9854198,0.09976792,-0.166947,-36.98069,-35.83091,3.443787
20.53096199,-32.31752,-12.68616,-5.48596,1.004828,0.1007682,-0.1626017,-36.98069,-35.83091,3.443787
20.540850162,-31.13633,-11.45047,-3.286671,1.015939,0.0906281,-0.155324,-36.59065,-36.60806,2.619889
20.550738811,-30.51464,-9.68519299999999,-1.453929,1.00712,0.06876872,-0.152819,-36.59065,-36.60806,2.619889
20.560626984,-30.51464,-8.50834399999998,-0.1710097,0.9973654,0.05614885,-0.1513235,-36.59065,-36.60806,2.619889
20.570515633,-31.32283,-8.09644600000001,0.745361200000002,0.9914398,0.03141957,-0.1449533,-36.59065,-36.60806,2.619889
20.580404282,-31.50934,-7.62570600000002,1.539549,0.9914489,0.0293711,-0.1516759,-36.59065,-36.60806,2.619889
20.590292931,-30.39031,-7.44917799999999,1.845006,0.9988108,0.05173469,-0.1532232,-36.26207,-36.62818,1.783952
20.600181579,-27.53057,-6.68422599999997,1.173001,1.006142,0.06882098,-0.1494539,-36.26207,-36.62818,1.783952
20.610070228,-24.04916,-5.389691,0.562087,1.000387,0.09078106,-0.1471668,-36.26207,-36.62818,1.783952
20.619958877,-20.19473,-4.683581,-0.1099183,1.002384,0.1033659,-0.1520373,-36.26207,-36.62818,1.783952
20.62984705,-17.89451,-3.389047,-0.3542839,1.016451,0.1053866,-0.1452987,-36.26207,-36.62818,1.783952
20.639735699,-16.83765,-1.56493,-0.2321011,1.02762,0.09886161,-0.1567951,-37.31498,-36.24998,0.9112515
20.649624348,-16.1538,1.024139,-0.3542839,1.029548,0.08949072,-0.1644403,-37.31498,-36.24998,0.9112515
20.65951252,-14.91044,2.671729,-0.4764667,1.008579,0.05581036,-0.1724696,-37.31498,-36.24998,0.9112515
20.669401169,-13.10756,3.024784,-1.148472,0.9963108,0.02333836,-0.1636629,-37.31498,-36.24998,0.9112515
20.679289818,-10.683,2.671729,-1.270655,1.003036,0.003861437,-0.162595,-37.31498,-36.24998,0.9112515
20.689178467,-7.82326600000002,2.965941,-1.087381,0.9981775,-0.000576217,-0.1669063,-36.55508,-36.64625,0.5445987
20.699067116,-3.96884,3.083626,-0.843015,0.9977107,0.004781157,-0.166934,-36.55508,-36.64625,0.5445987
20.708955765,0.00992228700000002,3.083626,-0.1099183,0.9899893,0.01695579,-0.1679661,-36.55508,-36.64625,0.5445987
20.721316338,3.367003,2.789414,0.745361200000002,0.9822553,0.030205,-0.1622708,-36.55508,-36.64625,0.5445987
20.731204987,4.610366,2.083304,1.478458,0.9769838,0.04969342,-0.1623752,-36.55508,-36.64625,0.5445987
20.741093159,4.48603,1.847934,2.150463,0.9823748,0.06328862,-0.1643615,-36.16965,-36.28207,0.09390497
20.750981808,3.367003,1.965619,2.944651,0.988244,0.07444093,-0.1668158,-36.16965,-36.28207,0.09390497
20.760870457,2.185808,1.436037,3.372291,0.9795383,0.08172643,-0.1692671,-36.16965,-36.28207,0.09390497
20.770759106,1.128949,0.612241999999999,4.044297,0.9770969,0.07585192,-0.1716448,-36.16965,-36.28207,0.09390497
20.780647278,0.2585949,-0.3292377,4.410845,0.9809713,0.07639591,-0.1673149,-36.16965,-36.28207,0.09390497
20.790535927,-0.3630867,-1.388402,4.716302,0.9902493,0.08746959,-0.1745741,-36.5544,-36.26819,0.5392947
20.800424576,-0.736095699999999,-2.977149,4.65521,0.9946938,0.1113645,-0.1718043,-36.5544,-36.26819,0.5392947
20.810313225,0.1964268,-3.506732,3.799931,1.004983,0.1435764,-0.1657034,-36.5544,-36.26819,0.5392947
20.820201874,-0.3009185,-3.389047,2.45592,0.9998589,0.1969713,-0.178002,-36.5544,-36.26819,0.5392947
20.830090046,-1.60645,-2.918307,0.01226447,0.9941186,0.218845,-0.1814856,-36.5544,-36.26819,0.5392947
20.839978695,-3.844504,-2.27104,-3.347762,1.001934,0.2309602,-0.1844234,-37.30763,-35.87908,0.5168307
20.849867344,-8.50711499999998,-1.859142,-6.58560600000002,1.001975,0.2321909,-0.1998191,-37.30763,-35.87908,0.5168307
20.859755993,-12.54805,-1.56493,-10.37327,1.011579,0.1950056,-0.2102005,-37.30763,-35.87908,0.5168307
20.869644642,-15.22128,0.729926999999997,-12.63365,1.027275,0.1163906,-0.1895867,-37.30763,-35.87908,0.5168307
20.879532814,-21.31376,5.084271,-10.73982,1.03376,0.0133365,-0.2087763,-37.30763,-35.87908,0.5168307
20.889421463,-29.39562,12.08653,-5.48596,1.009196,-0.07830538,-0.2179596,-36.93068,-35.88461,0.5254107
20.899310112,-32.7527,19.61836,1.539549,0.9653103,-0.1456191,-0.2311351,-36.93068,-35.88461,0.5254107
20.909198761,-26.41155,24.44345,7.77087200000001,0.9137515,-0.1751852,-0.2286397,-36.93068,-35.88461,0.5254107
20.919086933,-12.73455,23.91387,11.49745,0.8924147,-0.1493903,-0.1999391,-36.93068,-35.88461,0.5254107
20.928975582,3.429171,18.50036,11.8029,0.9012088,-0.1114524,-0.1693418,-36.93068,-35.88461,0.5254107
20.941336155,19.7794,10.14472,10.03125,0.941764,-0.03311197,-0.1682488,-36.53883,-36.2849,-0.3686445
20.951224804,27.05307,3.613209,6.85450100000001,0.9793348,0.02080774,-0.172326,-36.53883,-36.2849,-0.3686445
20.961113453,26.92874,-0.5646076,4.471936,1.008787,0.1032651,-0.1905032,-36.53883,-36.2849,-0.3686445
20.971002102,21.27143,-1.8003,2.394829,1.017222,0.149859,-0.1998666,-36.53883,-36.2849,-0.3686445
20.980890751,11.69754,-1.153032,1.783915,1.013536,0.2018693,-0.2068665,-36.1552,-36.29758,-0.7491815
20.9907794,2.931826,1.141824,1.906098,0.9852688,0.1732958,-0.2000214,-36.1552,-36.29758,-0.7491815
21.000667572,-6.144726,3.672051,2.639194,0.9557343,0.1763746,-0.2260402,-36.1552,-36.29758,-0.7491815
21.010556221,-11.61552,4.672373,2.822469,0.9415193,0.1300058,-0.2349596,-36.1552,-36.29758,-0.7491815
21.02044487,-14.7861,4.907743,2.394829,0.9413514,0.07931296,-0.23807,-36.1552,-36.29758,-0.7491815
21.030333042,-15.09694,4.554688,2.272646,0.9609977,0.01519083,-0.2247388,-37.29207,-35.89579,-0.3911085
21.040221691,-13.66707,4.613531,2.700286,0.9651815,-0.03092673,-0.2144017,-37.29207,-35.89579,-0.3911085
21.05011034,-10.62083,4.260476,3.066834,0.9639734,-0.08316986,-0.1910548,-37.29207,-35.89579,-0.3911085
21.059998989,-7.57459399999998,2.965941,3.433383,0.9667977,-0.1104878,-0.1937991,-37.29207,-35.89579,-0.3911085
21.069887638,-3.720167,1.436037,4.533028,0.9736335,-0.0988145,-0.1938503,-37.29207,-35.89579,-0.3911085
21.079776287,-0.922600200000001,-0.0938677799999998,4.899576,0.9883531,-0.06600417,-0.2122744,-37.27762,-35.9113,-1.234195
21.089664936,1.750631,-1.153032,5.571581,0.9895039,-0.01489105,-0.2134932,-37.27762,-35.9113,-1.234195
21.099553108,3.11833,-1.917985,5.51049,0.9881687,0.008233564,-0.2304438,-37.27762,-35.9113,-1.234195
21.109441757,3.180499,-1.211875,5.388307,0.9820926,0.06549001,-0.2451677,-37.27762,-35.9113,-1.234195
21.119329929,1.688463,-0.976504999999998,4.838485,0.9788632,0.1092213,-0.2521252,-37.27762,-35.9113,-1.234195
21.129218578,0.4450994,-1.153032,3.738839,0.9676077,0.09688475,-0.231877,-37.29207,-35.89579,-0.3911085
21.139107227,-0.673927500000001,-1.56493,2.944651,0.9679959,0.0775929,-0.2192751,-37.29207,-35.89579,-0.3911085
21.148995876,-1.233441,-2.153355,2.394829,0.9639855,0.05501612,-0.1989669,-37.29207,-35.89579,-0.3911085
21.158884525,-1.544282,-2.859464,1.600641,0.9585798,0.03852801,-0.1950424,-37.29207,-35.89579,-0.3911085
21.171245098,-0.736095699999999,-4.271684,0.623178399999998,0.9648378,0.01993245,-0.2002314,-37.29207,-35.89579,-0.3911085
21.181133747,-0.114414,-4.977794,0.01226447,0.9740434,0.004094607,-0.2160113,-36.89998,-35.53877,-1.230919
21.191022396,0.1964268,-5.272007,0.1344473,0.9793507,-0.01512262,-0.2303358,-36.89998,-35.53877,-1.230919
21.200911045,0.1964268,-5.566219,0.1955387,0.9856715,-0.01570114,-0.2356158,-36.89998,-35.53877,-1.230919
21.210799694,-0.736095699999999,-4.977794,1.11191,0.9856641,-0.01814307,-0.2360844,-36.89998,-35.53877,-1.230919
21.220687866,-1.730786,-3.977472,1.845006,0.9838057,0.001739288,-0.2419581,-36.89998,-35.53877,-1.230919
21.230576515,-2.476804,-3.506732,2.45592,0.9799314,0.01562599,-0.2256813,-37.6539,-35.52771,-1.248079
21.240464687,-3.28499,-3.565574,2.822469,0.973709,0.03548821,-0.2334835,-37.6539,-35.52771,-1.248079
21.250353336,-2.538972,-3.800944,2.822469,0.9755852,0.03141829,-0.2123003,-37.6539,-35.52771,-1.248079
21.260241985,-1.233441,-3.742102,2.394829,0.9814267,0.03727171,-0.2108804,-37.6539,-35.52771,-1.248079
21.270130634,0.2585949,-4.095157,1.967189,0.9882095,0.03435099,-0.2098961,-37.6539,-35.52771,-1.248079
21.280019283,1.750631,-3.859787,1.600641,0.9901161,0.01963806,-0.2165525,-36.90776,-35.53041,-0.7769496
21.289907932,2.993994,-3.683259,0.989726799999999,0.9872254,0.02448452,-0.218504,-36.90776,-35.53041,-0.7769496
21.299796581,3.740012,-3.683259,0.3788128,0.9784496,0.01330201,-0.2184574,-36.90776,-35.53041,-0.7769496
21.309684753,3.677844,-3.742102,0.25663,0.9813375,0.01295314,-0.208834,-36.90776,-35.53041,-0.7769496
21.319573402,2.683153,-3.506732,0.25663,0.9760191,0.02129213,-0.2055157,-36.90776,-35.53041,-0.7769496
21.329462051,1.688463,-2.977149,0.25663,0.9871798,0.02477218,-0.1992686,-37.29207,-35.89579,-0.3911085
21.339350224,0.3829313,-2.388725,0.562087,0.9920538,0.03259689,-0.1964171,-37.29207,-35.89579,-0.3911085
21.349238873,-0.5495912,-1.8003,0.562087,0.9862038,0.02729514,-0.1935114,-37.29207,-35.89579,-0.3911085
21.359127522,-1.917291,-1.32956,0.562087,0.9828182,0.0237422,-0.2035967,-37.29207,-35.89579,-0.3911085
21.369016171,-3.409327,-1.211875,0.745361200000002,0.9823221,0.02132281,-0.2026232,-37.29207,-35.89579,-0.3911085
21.37890482,-4.466185,-1.506087,0.562087,0.9847049,0.01263927,-0.1968056,-37.6671,-34.81909,-0.4147167
21.391265392,-5.212203,-1.8003,0.4399042,0.9788932,0.007594327,-0.2092906,-37.6671,-34.81909,-0.4147167
21.401154041,-4.777026,-2.094512,0.5009956,0.9808345,0.01157237,-0.2035374,-37.6671,-34.81909,-0.4147167
21.41104269,-4.404017,-2.212197,0.1344473,0.9784296,0.01492106,-0.2078854,-37.6671,-34.81909,-0.4147167
21.420931339,-4.404017,-2.388725,-0.2321011,0.9745887,0.01764905,-0.2213693,-37.6671,-34.81909,-0.4147167
21.430819512,-4.341849,-2.329882,-0.781923700000001,0.9716817,0.01612924,-0.2256932,-37.28472,-35.52489,-0.7855296
21.440708161,-4.65269,-2.50641,-0.965197799999999,0.9779935,0.0220752,-0.2180214,-37.28472,-35.52489,-0.7855296
21.450596809,-4.839194,-2.800622,-1.392838,0.9760731,0.02443466,-0.2233256,-37.28472,-35.52489,-0.7855296
21.460484982,-5.150035,-3.212519,-1.94266,0.9809489,0.02876445,-0.2262275,-37.28472,-35.52489,-0.7855296
21.470373631,-5.398708,-2.977149,-2.309208,0.9824021,0.02728634,-0.2271802,-37.28472,-35.52489,-0.7855296
21.48026228,-5.274371,-2.859464,-2.614666,0.9780005,0.02004111,-0.2237822,-37.66168,-35.51936,-0.7941096
21.490150929,-4.963531,-2.388725,-2.920122,0.973604,0.01127032,-0.2247047,-37.66168,-35.51936,-0.7941096
21.500039578,-5.025699,-2.624094,-3.347762,0.9769531,-0.002363715,-0.224151,-37.66168,-35.51936,-0.7941096
21.509928227,-5.398708,-2.859464,-3.286671,0.9798315,-0.009122,-0.2197853,-37.66168,-35.51936,-0.7941096
21.519816876,-6.02038900000001,-2.977149,-3.347762,0.9788426,-0.01398236,-0.219281,-37.66168,-35.51936,-0.7941096
21.529705048,-6.39339799999998,-2.977149,-3.225579,0.987615,-0.008751082,-0.2265112,-37.28472,-35.52489,-0.7855296
21.539593697,-7.07724800000002,-2.74178,-3.408854,0.989547,-0.009191524,-0.2231404,-37.28472,-35.52489,-0.7855296
21.549482345,-7.38808899999998,-1.976827,-3.592128,0.9788969,-0.001386466,-0.2236729,-37.28472,-35.52489,-0.7855296
21.559370518,-7.512425,-1.447245,-3.836493,0.9803609,-0.000444216,-0.2255996,-37.28472,-35.52489,-0.7855296
21.569259167,-7.20158399999998,-1.447245,-4.019767,0.9852238,-0.002502277,-0.2323166,-37.28472,-35.52489,-0.7855296
21.579147816,-6.33123000000002,-1.506087,-4.203042,0.9803729,-0.002012931,-0.2328055,-36.91443,-35.52325,-0.3878326
21.589036465,-5.087867,-1.682615,-4.56959,0.9726006,-0.003451234,-0.2323261,-36.91443,-35.52325,-0.3878326
21.598925114,-3.844504,-1.741457,-4.752864,0.9633933,-0.0005400965,-0.234275,-36.91443,-35.52325,-0.3878326
21.611285686,-2.60114,-2.03567,-5.363778,0.9711264,-0.005324228,-0.2275092,-36.91443,-35.52325,-0.3878326
21.621174335,-1.544282,-2.094512,-5.85250900000001,0.9648454,-0.001015538,-0.2333091,-36.90067,-35.91683,-1.225615
21.631062984,-0.736095699999999,-2.447567,-6.402331,0.9692408,0.005771511,-0.2347812,-36.90067,-35.91683,-1.225615
21.640951633,-0.05224587,-3.094834,-6.52451399999998,0.9706998,0.007243858,-0.2338251,-36.90067,-35.91683,-1.225615
21.650839806,0.2585949,-3.447889,-6.70778799999998,0.9717025,0.02246674,-0.2252443,-36.90067,-35.91683,-1.225615
21.660728455,-0.1765822,-3.742102,-6.76888000000001,0.9736694,0.02877164,-0.2267167,-36.90067,-35.91683,-1.225615
21.670617103,-0.673927500000001,-3.918629,-7.074337,0.9649337,0.03077265,-0.2243322,-36.90067,-35.91683,-1.225615
21.680505752,-1.544282,-5.625061,-7.37979399999998,0.9557256,0.03617606,-0.2224462,-36.90067,-35.91683,-1.225615
21.690393925,-0.798263799999999,-6.390014,-7.56306800000003,0.9703197,0.03892513,-0.232062,-36.90067,-35.91683,-1.225615
21.700282574,1.812799,-5.625061,-8.05179900000001,0.9693968,0.04061594,-0.2493847,-36.90067,-35.91683,-1.225615
21.710171223,3.864348,-4.271684,-8.29616499999998,0.9727912,0.03764439,-0.2522514,-36.90067,-35.91683,-1.225615
21.720059872,3.553508,-3.800944,-8.78489600000001,0.9543301,0.02783402,-0.2594366,-36.91511,-35.90131,-0.3825285
21.729948521,2.185808,-5.389691,-9.39580999999998,0.9451147,0.03079551,-0.2580193,-36.91511,-35.90131,-0.3825285
21.73983717,1.191117,-7.86107600000001,-9.88454100000001,0.9440897,0.03462317,-0.2301463,-36.91511,-35.90131,-0.3825285
21.749725342,0.818108400000001,-9.97940500000002,-10.06781,0.9392884,0.04972811,-0.2302281,-36.91511,-35.90131,-0.3825285
21.759613991,1.128949,-11.74468,-10.31218,0.9359522,0.06875452,-0.2284044,-36.91511,-35.90131,-0.3825285
21.76950264,1.999303,-12.86269,-10.49545,0.9306364,0.06911538,-0.2375498,-36.91579,-36.27937,-0.3772247
21.779391289,3.056162,-14.03954,-10.49545,0.9277476,0.06449408,-0.253881,-36.91579,-36.27937,-0.3772247
21.789279461,3.491339,-15.62828,-9.57908399999997,0.9205649,0.07931616,-0.273201,-36.91579,-36.27937,-0.3772247
21.79916811,3.988685,-16.86398,-8.96817000000001,0.9263754,0.07491493,-0.2736531,-36.91579,-36.27937,-0.3772247
21.809056759,3.740012,-18.21735,-7.74634200000002,0.9225015,0.07287414,-0.28038,-36.91579,-36.27937,-0.3772247
21.818945408,1.812799,-20.33568,-5.974692,0.9323003,0.1041274,-0.273313,-36.23317,-36.65921,0.09777904
21.831305981,-4.404017,-23.39549,-4.325224,0.9303719,0.1209679,-0.2546443,-36.23317,-36.65921,0.09777904
21.84119463,-10.99384,-25.33729,-2.309208,0.9160302,0.173851,-0.2698365,-36.23317,-36.65921,0.09777904
21.851083279,-17.77017,-26.80836,-1.209563,0.9253923,0.2107688,-0.2748216,-36.23317,-36.65921,0.09777904
21.860971928,-25.35469,-27.92636,-0.4153753,0.9502706,0.2457657,-0.275932,-36.23317,-36.65921,0.09777904
21.8708601,-31.50934,-28.98553,0.4399042,0.9712412,0.2689828,-0.2837202,-35.86467,-37.03444,0.5656326
21.880748749,-35.79894,-30.28006,0.745361200000002,0.9887242,0.2763532,-0.2770047,-35.86467,-37.03444,0.5656326
21.890637398,-37.60181,-31.45691,0.562087,1.005646,0.2717594,-0.2562826,-35.86467,-37.03444,0.5656326
21.900526047,-38.41,-31.69228,-0.2321011,1.031151,0.2273193,-0.2286165,-35.86467,-37.03444,0.5656326
21.910414696,-38.59651,-29.86817,-1.087381,1.039563,0.1442571,-0.2132787,-35.86467,-37.03444,0.5656326
21.920302868,-37.53965,-26.0434,-2.064843,1.033359,0.04713816,-0.1954818,-35.86399,-36.65638,0.5603287
21.930191517,-34.61774,-22.39517,-3.347762,1.029597,-0.04211534,-0.1724317,-35.86399,-36.65638,0.5603287
21.940080166,-28.77394,-19.15883,-4.630681,1.041895,-0.1147508,-0.1431955,-35.86399,-36.65638,0.5603287
21.949968815,-21.74893,-16.45208,-6.46342299999997,1.034523,-0.1405374,-0.1425926,-35.86399,-36.65638,0.5603287
21.959857464,-12.73455,-13.62764,-8.418347,1.051073,-0.1299219,-0.1469557,-35.86399,-36.65638,0.5603287
21.969745636,-2.228132,-11.33278,-10.55655,1.047846,-0.07575623,-0.1400193,-35.86535,-37.4125,0.5709367
21.979634285,9.08647399999999,-8.567186,-13.0002,1.037916,-0.00324573,-0.1447253,-35.86535,-37.4125,0.5709367
21.989522934,19.21988,-6.62538299999997,-14.4053,1.009555,0.06970906,-0.1547446,-35.86535,-37.4125,0.5709367
21.999411583,25.4367,-5.095479,-14.95513,0.9879639,0.1338566,-0.1666354,-35.86535,-37.4125,0.5709367
22.009300232,26.68006,-3.271362,-14.52749,0.9788982,0.1692134,-0.1807711,-35.86535,-37.4125,0.5709367
22.019188404,24.069,-1.09419,-12.63365,0.9649504,0.1883379,-0.2063725,-35.86467,-37.03444,0.5656326
22.029077053,18.84688,0.788769499999999,-9.94563200000002,0.9354972,0.2058309,-0.2454489,-35.86467,-37.03444,0.5656326
22.038965702,13.12741,-0.0938677799999998,-8.29616499999998,0.8972494,0.2187306,-0.267199,-35.86467,-37.03444,0.5656326
22.051326275,8.15395200000002,-3.271362,-6.21905800000003,0.8700727,0.2073113,-0.2854473,-35.86467,-37.03444,0.5656326
22.061214924,6.102402,-7.56686399999999,-5.241595,0.8656572,0.1877126,-0.2940098,-35.86467,-37.03444,0.5656326
22.071103573,5.418552,-12.39195,-4.447407,0.8873197,0.138044,-0.2908487,-35.8798,-37.39699,1.414023
22.080992222,5.045544,-16.80513,-4.203042,0.915849,0.1122943,-0.2829914,-35.8798,-37.39699,1.414023
22.090880394,5.294216,-19.62957,-4.56959,0.933587,0.06140269,-0.264439,-35.8798,-37.39699,1.414023
22.100769043,6.22673899999999,-21.51253,-4.99723,0.9450768,0.02357041,-0.2526927,-35.8798,-37.39699,1.414023
22.110657692,8.52696000000002,-22.1598,-5.791418,0.9526954,-0.01084556,-0.240968,-35.8798,-37.39699,1.414023
22.120546341,12.07055,-22.80707,-6.34123999999999,0.9560207,-0.02731498,-0.234629,-35.51618,-37.3882,2.200837
22.13043499,15.48979,-22.86591,-6.64669700000003,0.9714872,-0.04186058,-0.228286,-35.51618,-37.3882,2.200837
22.140323639,18.53604,-22.04211,-6.95215400000001,0.9898806,-0.05351903,-0.2238778,-35.51618,-37.3882,2.200837
22.150212288,21.45794,-19.62957,-7.56306800000003,1.004901,-0.05437882,-0.214238,-35.51618,-37.3882,2.200837
22.16010046,24.56635,-16.09902,-7.01324599999999,1.020401,-0.05619908,-0.2036309,-35.51618,-37.3882,2.200837
22.169989109,28.3586,-12.92153,-6.95215400000001,1.016113,-0.03679169,-0.209024,-35.53199,-38.1288,3.054532
22.179877758,32.89688,-10.27362,-6.402331,1.003065,-0.01921413,-0.2076849,-35.53199,-38.1288,3.054532
22.18976593,37.37299,-8.567186,-5.669235,0.9891018,0.01444178,-0.2059471,-35.53199,-38.1288,3.054532
22.199654579,41.22741,-7.80223399999999,-5.424869,0.9712341,0.04176787,-0.2046628,-35.53199,-38.1288,3.054532
22.209543228,43.96281,-7.44917799999999,-5.48596,0.9485484,0.07236115,-0.2134998,-35.53199,-38.1288,3.054532
22.219431877,45.39268,-8.33181600000001,-6.03578300000001,0.9356064,0.1186326,-0.2147101,-34.80808,-38.10763,4.822718
22.229320526,45.14401,-9.74403599999999,-7.25761099999999,0.9439675,0.1542497,-0.2091096,-34.80808,-38.10763,4.822718
22.239209175,44.02498,-10.09709,-7.56306800000003,0.9470706,0.2037975,-0.2170511,-34.80808,-38.10763,4.822718
22.249097824,43.65197,-10.27362,-8.235073,0.9432735,0.223168,-0.2248481,-34.80808,-38.10763,4.822718
22.258986473,43.52764,-10.09709,-8.29616499999998,0.9312017,0.2402135,-0.2263907,-34.80808,-38.10763,4.822718
22.268874645,42.71945,-9.68519299999999,-7.56306800000003,0.9519914,0.225758,-0.2133092,-34.46113,-38.08094,6.582323
22.281235695,40.41923,-9.09676800000003,-6.82997100000002,0.9673808,0.1823387,-0.2164387,-34.46113,-38.08094,6.582323
22.291123867,38.67852,-9.09676800000003,-6.891063,0.9837646,0.1487212,-0.2152884,-34.46113,-38.08094,6.582323
22.301012516,38.05684,-8.567186,-6.76888000000001,0.9821888,0.1176314,-0.2103238,-34.46113,-38.08094,6.582323
22.310900688,38.55418,-9.09676800000003,-7.19651999999998,0.9782636,0.102479,-0.21458,-34.46113,-38.08094,6.582323
22.320789337,39.92188,-9.27329500000003,-6.21905800000003,0.9874235,0.09091065,-0.2053736,-34.48393,-38.37212,7.8838
22.330677986,41.60042,-8.861399,-4.875047,1.009287,0.09172632,-0.2130476,-34.48393,-38.37212,7.8838
22.340566635,42.40861,-8.39065799999998,-2.859031,1.023953,0.1228837,-0.2117456,-34.48393,-38.37212,7.8838
22.350455284,41.97343,-6.390014,-1.026289,1.009518,0.1504815,-0.2244055,-34.48393,-38.37212,7.8838
22.360343933,40.60573,-4.624739,-0.2321011,1.001812,0.1600703,-0.2355238,-34.48393,-38.37212,7.8838
22.370232582,39.54887,-4.153999,0.4399042,0.9887751,0.1606602,-0.2629542,-34.51936,-37.63964,10.01422
22.380121231,38.42985,-5.272007,1.417367,0.9878181,0.156594,-0.2744768,-34.51936,-37.63964,10.01422
22.39000988,37.68383,-7.33149300000002,2.578103,1.000918,0.1476448,-0.284997,-34.51936,-37.63964,10.01422
22.399897575,36.50263,-9.80287800000002,4.105388,1.003234,0.1204717,-0.2781241,-34.51936,-37.63964,10.01422
22.409786224,35.94312,-12.15658,6.54904400000003,0.9972951,0.1032911,-0.2554408,-34.51936,-37.63964,10.01422
22.419674873,36.25396,-13.98069,8.74833400000002,1.020434,0.07787557,-0.2259498,-34.54937,-37.60742,11.76524
22.429563522,36.50263,-14.56912,11.43636,1.035956,0.09134483,-0.2024351,-34.54937,-37.60742,11.76524
22.439452171,35.38361,-15.27523,14.36874,1.103512,0.1234938,-0.1929024,-34.54937,-37.60742,11.76524
22.44934082,31.094,-14.6868,18.46186,1.229896,0.207661,-0.1489392,-34.54937,-37.60742,11.76524
22.459229469,27.92343,-9.74403599999999,19.74478,1.309041,0.3182181,-0.2027902,-34.54937,-37.60742,11.76524
22.469118118,23.07431,-3.918629,18.33968,1.259556,0.415623,-0.274034,-33.4538,-36.8285,13.92052
22.479006767,15.11679,-0.799977499999998,15.22402,1.208095,0.4053478,-0.28414,-33.4538,-36.8285,13.92052
22.488895416,5.107712,2.318674,13.51346,1.206316,0.3178153,-0.2760049,-33.4538,-36.8285,13.92052
22.501255989,-13.60491,10.96852,15.83493,1.208591,0.1596042,-0.2391338,-33.4538,-36.8285,13.92052
22.511144638,-29.39562,18.44151,23.41027,1.185465,0.0849975,-0.2161798,-34.97404,-35.6567,14.71337
22.521033287,-38.78301,23.03123,30.92451,1.130848,0.03545282,-0.182327,-34.97404,-35.6567,14.71337
22.530921936,-41.82925,25.32608,35.99509,1.069802,-0.04715582,-0.1459099,-34.97404,-35.6567,14.71337
22.540809631,-37.60181,27.91515,40.08822,1.045596,-0.1156059,-0.069606,-34.97404,-35.6567,14.71337
22.55069828,-30.07947,32.79908,43.14279,1.031937,-0.1300724,-0.0618537,-34.97404,-35.6567,14.71337
22.560586929,-19.88389,39.09523,45.28099,1.025602,-0.1279108,-0.04840603,-35.33588,-35.28863,13.8564
22.570475578,-10.99384,47.56855,46.38063,1.035771,-0.1317618,-0.04404672,-35.33588,-35.28863,13.8564
22.580364227,-8.63145299999999,58.5132499999999,47.84682,1.060548,-0.1200089,-0.0363832,-35.33588,-35.28863,13.8564
22.590252876,-9.62614300000003,72.45892,51.87886,1.070333,-0.1095742,-0.05373796,-35.33588,-35.28863,13.8564
22.600141525,-13.91575,84.1685699999998,53.65051,1.078249,-0.07569742,-0.06688502,-35.33588,-35.28863,13.8564
22.610030174,-23.05447,96.58434,56.21635,1.154061,-0.05106309,-0.07028975,-37.51774,-33.82268,12.94293
22.619918823,-33.49872,106.8229,57.68254,1.219441,0.02976893,-0.09466994,-37.51774,-33.82268,12.94293
22.629807472,-40.33722,120.1213,55.23888,1.207503,0.07284351,-0.114138,-37.51774,-33.82268,12.94293
22.639696121,-44.44032,131.5956,48.33556,1.136867,0.1203088,-0.1409089,-37.51774,-33.82268,12.94293
22.64958477,-45.43501,140.0689,39.35512,1.092943,0.169103,-0.1729462,-37.51774,-33.82268,12.94293
22.659472465,-45.49717,145.2471,32.14634,1.077679,0.2226814,-0.2068987,-40.39339,-32.34711,8.50937
22.669361114,-41.82925,145.4236,25.85392,1.076677,0.191531,-0.2384833,-40.39339,-32.34711,8.50937
22.679249763,-37.85049,144.1291,21.51643,1.124361,0.2006438,-0.2740633,-40.39339,-32.34711,8.50937
22.689138412,-43.44562,143.011,19.37823,1.159662,0.2899069,-0.2922683,-40.39339,-32.34711,8.50937
22.699027061,-54.76023,138.4802,15.22402,1.205939,0.3265864,-0.3082714,-40.39339,-32.34711,8.50937
22.711387634,-68.6858999999998,133.5374,8.320694,1.294828,0.3399303,-0.3159325,-42.92476,-30.21406,2.387058
22.721276283,-79.8761700000001,131.0072,0.3788128,1.341873,0.33509,-0.3076789,-42.92476,-30.21406,2.387058
22.731164932,-94.92087,133.3609,-4.080859,1.334437,0.3032464,-0.2887705,-42.92476,-30.21406,2.387058
22.741053581,-109.2817,138.7155,-8.05179900000001,1.253175,0.259905,-0.2670024,-42.92476,-30.21406,2.387058
22.75094223,-117.8609,143.1287,-9.45690200000001,1.177176,0.1936522,-0.2460745,-42.92476,-30.21406,2.387058
22.760830879,-120.5341,141.1281,-7.86852500000001,1.095443,0.1556969,-0.2224104,-43.87226,-28.81265,-4.532866
22.770719528,-121.5288,134.9496,-6.21905800000003,1.025396,0.1204749,-0.2098081,-43.87226,-28.81265,-4.532866
22.780608177,-122.5235,125.0053,-6.28014899999998,1.009783,0.1060913,-0.1967683,-43.87226,-28.81265,-4.532866
22.790496826,-123.1452,116.5908,-6.03578300000001,0.9723428,0.0891652,-0.1938398,-43.87226,-28.81265,-4.532866
22.800384521,-121.4045,108.294,-8.05179900000001,0.9300315,0.05245434,-0.2119775,-43.87226,-28.81265,-4.532866
22.81027317,-116.4932,99.5853,-10.00672,0.8570448,-0.001997364,-0.2156326,-43.73096,-28.26991,-12.71404
22.820161819,-111.0846,91.81809,-12.69475,0.8220139,-0.01533269,-0.2002156,-43.73096,-28.26991,-12.71404
22.830050468,-106.4841,83.1682499999998,-15.1384,0.7845333,-0.04394555,-0.1972281,-43.73096,-28.26991,-12.71404
22.839939117,-102.1324,74.8714599999998,-15.01622,0.7271332,-0.08135604,-0.199028,-43.73096,-28.26991,-12.71404
22.849827766,-99.0861399999998,65.7508699999998,-15.1384,0.6693091,-0.09974589,-0.1990008,-43.73096,-28.26991,-12.71404
22.859716415,-97.2210800000001,55.86534,-15.32168,0.6318248,-0.1318177,-0.1993623,-43.24927,-27.63029,-18.74738
22.869605064,-95.3560399999998,46.74475,-15.19949,0.6034928,-0.1769043,-0.1895483,-43.24927,-27.63029,-18.74738
22.879493713,-91.8746300000001,36.9769,-15.07731,0.5932512,-0.1825477,-0.1775084,-43.24927,-27.63029,-18.74738
22.889382362,-86.9633400000002,28.26821,-15.01622,0.5993679,-0.2281175,-0.1628435,-43.24927,-27.63029,-18.74738
22.899270534,-80.0626799999998,19.44184,-13.48893,0.6099594,-0.2360499,-0.1382644,-43.24927,-27.63029,-18.74738
22.909158707,-70.9239600000001,13.08685,-14.4053,0.6297683,-0.2603934,-0.1352333,-42.11042,-25.44919,-22.64606
22.919047356,-59.98235,6.37880599999998,-13.24457,0.6724374,-0.2567168,-0.1116383,-42.11042,-25.44919,-22.64606
22.928936005,-48.1704,1.906777,-12.38929,0.6778473,-0.243738,-0.122278,-42.11042,-25.44919,-22.64606
22.941296577,-34.3069,-5.213164,-11.22855,0.7059796,-0.2376985,-0.1054443,-42.11042,-25.44919,-22.64606
22.951185226,-24.23566,-11.33278,-10.67873,0.7385049,-0.2198803,-0.08193219,-42.11042,-25.44919,-22.64606
22.961073875,-17.77017,-16.45208,-10.80091,0.7362401,-0.1641694,-0.06923142,-41.67997,-24.81769,-25.69529
22.970962524,-14.91044,-20.92411,-10.61764,0.7444101,-0.1631738,-0.03411993,-41.67997,-24.81769,-25.69529
22.980851173,-15.22128,-25.92572,-10.25109,0.7521834,-0.125913,0.01619733,-41.67997,-24.81769,-25.69529
22.990739822,-18.14318,-32.22186,-11.22855,0.7818265,-0.0863829,0.05835233,-41.67997,-24.81769,-25.69529
23.000628471,-22.43279,-35.16399,-11.90056,0.8307944,-0.05677184,0.1236636,-41.67997,-24.81769,-25.69529
23.01051712,-27.4684,-35.81125,-14.71076,0.8995542,-0.01556675,0.2504967,-41.70015,-23.65965,-24.41415
23.020405293,-34.61774,-33.45755,-15.50495,1.007717,0.02749916,0.3441817,-41.70015,-23.65965,-24.41415
23.030293942,-41.39407,-28.63247,-19.23153,1.104109,0.03054339,0.4303608,-41.70015,-23.65965,-24.41415
23.04018259,-44.12947,-24.33697,-22.28609,1.205323,0.01935588,0.5098844,-41.70015,-23.65965,-24.41415
23.050071239,-45.43501,-18.2762,-21.12536,1.251607,-0.006137474,0.6024027,-41.70015,-23.65965,-24.41415
23.059959888,-46.18102,-7.27265099999999,-16.17696,1.279921,-0.07481552,0.6378891,-43.15363,-24.00817,-23.98776
23.069848061,-47.23788,1.436037,-9.02926199999999,1.323848,-0.1584656,0.6186441,-43.15363,-24.00817,-23.98776
23.07973671,-45.18633,9.55629900000002,-3.225579,1.31944,-0.2253886,0.5391443,-43.15363,-24.00817,-23.98776
23.089625359,-39.65337,14.55791,-1.576112,1.206447,-0.2491807,0.4636315,-43.15363,-24.00817,-23.98776
23.099514008,-32.13102,16.02897,-3.103397,1.033959,-0.2393295,0.3503691,-43.15363,-24.00817,-23.98776
23.109402657,-24.79517,14.85212,-6.402331,0.8969254,-0.2157484,0.2481389,-43.52213,-23.63294,-24.45562
23.119290829,-20.2569,11.96884,-10.00672,0.7971619,-0.205022,0.170543,-43.52213,-23.63294,-24.45562
23.129179478,-16.58898,5.90806599999998,-14.34421,0.70566,-0.195372,0.08719082,-43.52213,-23.63294,-24.45562
23.139068127,-11.30468,-3.918629,-20.08681,0.6259801,-0.1460312,-0.01077608,-43.52213,-23.63294,-24.45562
23.148956776,-5.150035,-16.51092,-25.15739,0.5786721,-0.1092549,-0.06535979,-43.52213,-23.63294,-24.45562
23.161317349,-2.228132,-32.81029,-30.96107,0.5645406,-0.003954246,-0.09235864,-43.88327,-22.88681,-25.31789
23.171205998,-6.45556599999999,-44.40226,-36.03166,0.6162688,0.06335641,-0.110915,-43.88327,-22.88681,-25.31789
23.181094646,-18.26752,-59.3482499999997,-44.70663,0.9292666,0.09054825,-0.04192477,-43.88327,-22.88681,-25.31789
23.190983295,-34.86642,-90.2405500000001,-44.76773,1.743485,0.1097953,-0.1117916,-43.88327,-22.88681,-25.31789
23.200871944,-43.50779,-113.7187,-37.43676,2.204864,0.2649219,3.663357e-06,-44.65301,-23.61636,-24.48136
23.210760593,-40.46155,-99.5964999999999,-25.40176,2.079235,0.310506,0.2309535,-44.65301,-23.61636,-24.48136
23.220648766,-40.27505,-65.1148100000001,-20.51444,1.752487,0.3584159,0.1346366,-44.65301,-23.61636,-24.48136
23.230537415,-49.66244,-34.45788,-16.42132,1.312948,0.1525823,0.1520092,-44.65301,-23.61636,-24.48136
23.240425587,-73.9701899999997,-19.86494,-4.080859,1.235947,-0.008440272,0.2508432,-44.65301,-23.61636,-24.48136
23.250314236,-91.3772799999998,-9.15561100000003,-2.003752,1.15602,-0.2355587,0.2605566,-46.50704,-24.69161,-22.75589
23.260202885,-97.8427699999999,-7.91991900000001,-10.67873,0.7962642,-0.4258536,0.02497696,-46.50704,-24.69161,-22.75589
23.270091534,-91.5637799999998,-23.39549,-18.07079,0.5439756,-0.5091345,-0.139364,-46.50704,-24.69161,-22.75589
23.279980183,-78.8193099999999,-35.63473,-25.03521,0.4902157,-0.549079,-0.245026,-46.50704,-24.69161,-22.75589
23.289868832,-49.22726,-41.57782,-28.51742,0.4926573,-0.6188457,-0.3509542,-46.50704,-24.69161,-22.75589
23.299757481,-6.89074399999999,-46.63827,-33.28255,0.4692747,-0.5680834,-0.4440551,-47.25114,-23.55474,-23.24293
23.30964613,41.78693,-53.40516,-35.7262,0.5011079,-0.3973385,-0.5175008,-47.25114,-23.55474,-23.24293
23.319534779,83.6261,-64.9971200000002,-35.90948,0.6211003,-0.232106,-0.5244513,-47.25114,-23.55474,-23.24293
23.329423428,110.5449,-76.0595200000001,-35.29856,0.7887586,-0.03275895,-0.5233444,-47.25114,-23.55474,-23.24293
23.339311123,120.6783,-85.65084,-34.07673,0.9718236,0.1753122,-0.4578206,-47.25114,-23.55474,-23.24293
23.349199772,109.115,-87.23959,-29.31161,1.21209,0.4553898,-0.2588995,-47.2956,-23.507,-20.64882
23.359088421,76.7254299999998,-72.2935900000002,-24.42429,1.309106,0.7480987,-0.01596044,-47.2956,-23.507,-20.64882
23.36897707,28.60728,-49.81577,-22.34719,1.165599,0.8428904,0.05120725,-47.2956,-23.507,-20.64882
23.378865719,-14.28875,-39.63602,-21.79736,0.9162728,0.7767044,-0.1093694,-47.2956,-23.507,-20.64882
23.391226292,-42.14009,-47.87396,-20.20899,0.7932925,0.6467103,-0.2213879,-47.2956,-23.507,-20.64882
23.401114941,-50.84364,-58.6421400000001,-20.1479,0.8090205,0.5335538,-0.2636002,-49.2591,-26.36208,-16.36988
23.41100359,-51.77616,-66.5858799999999,-17.58206,0.8783787,0.3710898,-0.2742424,-49.2591,-26.36208,-16.36988
23.420892239,-46.30536,-69.1749400000002,-18.0097,0.9463406,0.09686013,-0.268932,-49.2591,-26.36208,-16.36988
23.430780888,-30.76332,-66.1151399999998,-19.04825,1.002363,-0.1099024,-0.2476248,-49.2591,-26.36208,-16.36988
23.440669537,-17.95668,-61.4077300000001,-22.53046,1.061871,-0.2465688,-0.1627053,-49.2591,-26.36208,-16.36988
23.450558186,-2.2903,-52.87558,-27.60105,1.073767,-0.2948488,-0.1331116,-49.98157,-27.07585,-14.62398
23.460446835,18.84688,-43.81383,-32.73272,1.047006,-0.3093109,-0.126817,-49.98157,-27.07585,-14.62398
23.470335484,41.04091,-38.75338,-36.09275,0.9963101,-0.241239,-0.1406844,-49.98157,-27.07585,-14.62398
23.480224133,57.5154699999998,-37.63537,-37.25349,0.9599267,-0.106512,-0.1567961,-49.98157,-27.07585,-14.62398
23.490111828,65.5973299999999,-37.63537,-36.3982,0.983649,0.02562032,-0.1430092,-49.98157,-27.07585,-14.62398
23.500000477,65.4108299999999,-35.8701,-32.79382,0.9997239,0.1664734,-0.1658251,-50.78131,-27.77318,-12.03642
23.509889126,61.2455600000001,-32.45723,-28.88396,1.015158,0.2874079,-0.1529528,-50.78131,-27.77318,-12.03642
23.519777775,53.22587,-28.22058,-26.07376,0.9843697,0.3553973,-0.1696827,-50.78131,-27.77318,-12.03642
23.529666424,43.15463,-25.27845,-24.24102,0.9554603,0.3983975,-0.1963836,-50.78131,-27.77318,-12.03642
23.539555073,31.71568,-23.57202,-21.73627,0.9312746,0.418324,-0.2022828,-50.78131,-27.77318,-12.03642
23.549443722,20.89842,-23.80739,-21.67518,0.9365511,0.3828793,-0.2271056,-50.45212,-29.55826,-9.408093
23.559332371,13.37608,-25.27845,-23.01919,0.9459913,0.306918,-0.2252682,-50.45212,-29.55826,-9.408093
23.56922102,9.83249199999998,-25.74919,-23.14137,0.9393311,0.2121053,-0.2161401,-50.45212,-29.55826,-9.408093
23.579109669,10.39201,-26.8672,-23.6912,0.9225179,0.1110882,-0.232481,-50.45212,-29.55826,-9.408093
23.588998318,15.80064,-25.45498,-22.83592,0.9110775,0.03074966,-0.2330499,-50.45212,-29.55826,-9.408093
23.60135889,26.68006,-29.10321,-23.14137,0.8884585,-0.03305171,-0.2038979,-50.48375,-31.03947,-7.700704
23.611247539,34.63759,-32.22186,-22.83592,0.8922721,-0.04804685,-0.196604,-50.48375,-31.03947,-7.700704
23.621136188,40.73007,-35.34052,-21.73627,0.9005338,-0.03568812,-0.1831913,-50.48375,-31.03947,-7.700704
23.631024837,43.71414,-35.98778,-20.45335,0.9399762,0.01817231,-0.1584107,-50.48375,-31.03947,-7.700704
23.64091301,44.5845,-35.8701,-18.92607,0.9600647,0.06222939,-0.1730381,-50.48375,-31.03947,-7.700704
23.650801182,43.4033,-34.39904,-18.55952,0.9714529,0.1214998,-0.1810194,-50.53069,-31.74666,-5.03113
23.660689831,39.54887,-32.63376,-18.92607,0.976887,0.1592071,-0.1662952,-50.53069,-31.74666,-5.03113
23.67057848,35.38361,-30.28006,-18.49843,0.9808734,0.1839258,-0.1736294,-50.53069,-31.74666,-5.03113
23.680467129,33.6429,-28.33826,-17.94861,0.9721158,0.1766101,-0.1755261,-50.53069,-31.74666,-5.03113
23.690355778,33.02122,-27.57331,-17.03223,0.9555728,0.1550013,-0.1898633,-50.53069,-31.74666,-5.03113
23.700244427,33.51856,-28.22058,-15.62713,0.9316776,0.1239053,-0.1882906,-50.18525,-33.17039,-3.316046
23.710133076,34.26458,-29.6328,-13.97766,0.9194337,0.09575827,-0.1833531,-50.18525,-33.17039,-3.316046
23.720021725,34.82409,-31.63344,-13.36675,0.9295505,0.07482099,-0.181793,-50.18525,-33.17039,-3.316046
23.729910374,35.63228,-32.2807,-12.87802,0.9484282,0.06217331,-0.1783412,-50.18525,-33.17039,-3.316046
23.739798546,36.06746,-32.04533,-11.41183,0.9557258,0.04861582,-0.204715,-50.18525,-33.17039,-3.316046
23.749687195,37.31082,-32.39839,-9.88454100000001,0.9660645,0.06210584,-0.2456497,-50.61581,-33.86489,-0.2659352
23.759575844,39.54887,-32.86913,-7.74634200000002,0.9676852,0.07698767,-0.2923724,-50.61581,-33.86489,-0.2659352
23.769464016,42.40861,-34.16367,-6.28014899999998,1.00032,0.09411549,-0.3150252,-50.61581,-33.86489,-0.2659352
23.779352665,45.01967,-34.75209,-4.691772,1.022758,0.09784979,-0.3554159,-50.61581,-33.86489,-0.2659352
23.789241314,45.89003,-35.28167,-1.392838,1.040262,0.1200155,-0.3362712,-50.61581,-33.86489,-0.2659352
23.799129963,43.71414,-34.04598,-1.94266,1.054367,0.1431907,-0.3152117,-50.65274,-34.58283,1.819963
23.809018612,42.28427,-32.98682,0.562087,1.056795,0.1426845,-0.3161682,-50.65274,-34.58283,1.819963
23.818907261,40.79224,-32.39839,2.45592,1.070804,0.132625,-0.3031166,-50.65274,-34.58283,1.819963
23.831267834,40.8544,-34.04598,3.616657,1.063916,0.1292463,-0.2694429,-50.65274,-34.58283,1.819963
23.841156483,41.78693,-37.16463,2.333737,1.073527,0.1353099,-0.2208896,-50.65274,-34.58283,1.819963
23.851045132,43.96281,-38.2238,0.928635399999997,1.067035,0.1071103,-0.1861281,-51.06832,-35.60909,3.966554
23.860933304,46.88472,-36.28199,-0.598649399999998,1.066455,0.100747,-0.1557986,-51.06832,-35.60909,3.966554
23.870821953,50.11746,-33.63408,-1.51502,1.069254,0.08304069,-0.1345454,-51.06832,-35.60909,3.966554
23.880710602,52.91503,-29.86817,-0.720832200000002,1.065233,0.05207075,-0.1218895,-51.06832,-35.60909,3.966554
23.890599251,53.84755,-25.57266,-0.659740900000002,1.095327,0.05201128,-0.121855,-51.06832,-35.60909,3.966554
23.9004879,50.73914,-20.74758,2.272646,1.14556,0.1175784,-0.1269384,-51.11987,-35.17495,7.009332
23.910376549,42.09777,-15.74597,8.68724300000001,1.27164,0.2543439,-0.08276056,-51.11987,-35.17495,7.009332
23.920265198,35.81878,-6.21348599999998,10.88653,1.379188,0.4558203,-0.1101071,-51.11987,-35.17495,7.009332
23.93015337,27.92343,4.848901,7.95414600000001,1.352919,0.6327425,-0.2341468,-51.11987,-35.17495,7.009332
23.940042019,16.23581,12.02768,0.623178399999998,1.331564,0.6113785,-0.265323,-51.11987,-35.17495,7.009332
23.949930668,-3.720167,22.56049,-3.897585,1.358738,0.4830575,-0.2454068,-51.53226,-34.43693,9.13117
23.95981884,-26.59805,35.21162,-1.576112,1.326334,0.2601003,-0.2116143,-51.53226,-34.43693,9.13117
23.969707489,-34.86642,46.56822,5.693764,1.297734,0.02370945,-0.1638029,-51.53226,-34.43693,9.13117
23.979596138,-31.88235,55.15923,15.28511,1.241165,-0.1595414,-0.115811,-51.53226,-34.43693,9.13117
23.989484787,-24.17349,60.5138899999999,24.26555,1.183234,-0.2951168,-0.03872527,-51.53226,-34.43693,9.13117
23.999373436,-13.35623,67.8692000000003,36.05619,1.142428,-0.4171581,0.001280569,-52.64801,-34.05781,8.25704
24.009262085,-2.414636,79.9907499999997,45.28099,1.086035,-0.4612676,-0.02501131,-52.64801,-34.05781,8.25704
24.019150734,11.88404,93.64221,53.03959,1.031917,-0.4288676,-0.08006157,-52.64801,-34.05781,8.25704
24.029039383,24.25551,105.1753,57.3770800000001,0.9899799,-0.3888156,-0.1428314,-52.64801,-34.05781,8.25704
24.038928032,35.0106,114.649,61.95893,1.039139,-0.3723583,-0.1755613,-52.64801,-34.05781,8.25704
24.051288605,40.8544,126.0056,67.0295299999997,1.108993,-0.1599115,-0.2559074,-53.64023,-33.36599,3.876984
24.061177254,43.27896,134.067,65.6855200000002,1.188881,-0.08673395,-0.2691712,-53.64023,-33.36599,3.876984
24.071065903,42.65728,141.54,63.3640400000001,1.15736,0.02603283,-0.3202736,-53.64023,-33.36599,3.876984
24.080954552,40.23272,144.9529,55.54434,1.103243,0.1057068,-0.3077529,-53.64023,-33.36599,3.876984
24.090842247,36.12962,147.8361,48.45774,1.079216,0.1803655,-0.3009437,-55.78703,-30.11025,-2.576924
24.100730896,30.34799,149.0718,41.37114,1.057261,0.2721117,-0.3235546,-55.78703,-30.11025,-2.576924
24.110619545,19.03338,143.0699,32.87943,1.108019,0.3324488,-0.3526571,-55.78703,-30.11025,-2.576924
24.120508194,1.999303,140.4808,30.68014,1.186109,0.3341436,-0.3266071,-55.78703,-30.11025,-2.576924
24.130396843,-11.67769,139.5982,30.9856,1.203229,0.2348223,-0.3227193,-55.78703,-30.11025,-2.576924
24.140285492,-34.80425,135.7734,29.09177,1.239854,0.2855992,-0.3416902,-56.80005,-26.49542,-9.140101
24.150174141,-52.52217,137.0091,29.82486,1.148834,0.221703,-0.328005,-56.80005,-26.49542,-9.140101
24.16006279,-61.0392100000001,135.2439,29.03068,1.09633,0.2009326,-0.3236314,-56.80005,-26.49542,-9.140101
24.169951439,-58.67682,127.8297,22.24953,1.078613,0.1368196,-0.314671,-56.80005,-26.49542,-9.140101
24.179840088,-52.77085,127.5355,19.56151,1.069098,0.08444382,-0.2687297,-56.80005,-26.49542,-9.140101
24.189728737,-48.91642,121.4747,17.72877,1.012539,0.04038882,-0.2262503,-56.25639,-24.84908,-18.69052
24.199617386,-47.48655,117.9442,16.38476,1.02009,0.01734732,-0.1703384,-56.25639,-24.84908,-18.69052
24.209506035,-50.96797,115.8847,16.01821,1.002029,0.001107083,-0.151521,-56.25639,-24.84908,-18.69052
24.21939373,-55.31974,111.5303,15.28511,0.9234361,-0.008929551,-0.1818577,-56.25639,-24.84908,-18.69052
24.229282379,-58.8633299999998,103.057,13.81892,0.8715284,-0.0159678,-0.2035226,-56.25639,-24.84908,-18.69052
24.239171028,-60.6661999999998,94.8190599999997,11.74181,0.833181,-0.01935819,-0.2073964,-55.01027,-22.71663,-25.18188
24.249059677,-58.17948,86.6988,8.80942499999997,0.812265,-0.02251702,-0.1934575,-55.01027,-22.71663,-25.18188
24.258948326,-52.70868,80.2261300000001,5.99922100000002,0.8005911,-0.02731313,-0.1900801,-55.01027,-22.71663,-25.18188
24.271308899,-44.12947,72.4000699999999,2.639194,0.7699668,-0.02696504,-0.1708798,-55.01027,-22.71663,-25.18188
24.281197548,-38.90735,65.33897,1.295184,0.7277258,-0.01833741,-0.1531774,-55.01027,-22.71663,-25.18188
24.291086197,-34.49341,57.8071399999997,-0.659740900000002,0.7286547,-0.02802792,-0.1497609,-52.70261,-19.89838,-31.20469
24.300974846,-30.51464,51.39331,-3.531036,0.7033008,-0.04716107,-0.1299753,-52.70261,-19.89838,-31.20469
24.310863495,-27.84141,45.03832,-3.958676,0.6678159,-0.0447693,-0.1050198,-52.70261,-19.89838,-31.20469
24.320752144,-24.98168,37.03574,-5.791418,0.677407,-0.06992992,-0.09285875,-52.70261,-19.89838,-31.20469
24.330640793,-20.94075,29.56274,-6.64669700000003,0.668066,-0.09105689,-0.07400669,-52.70261,-19.89838,-31.20469
24.340529442,-15.84296,21.79554,-7.135428,0.6728363,-0.09501751,-0.04512599,-50.76352,-18.84792,-34.22579
24.350418091,-9.37747000000002,15.20518,-9.94563200000002,0.6786229,-0.1186757,-0.06327485,-50.76352,-18.84792,-34.22579
24.360306263,-2.60114,5.96690800000001,-11.35073,0.6955867,-0.1056172,-0.0344663,-50.76352,-18.84792,-34.22579
24.370194912,1.937135,-1.741457,-13.48893,0.7135233,-0.1020283,-0.0200364,-50.76352,-18.84792,-34.22579
24.380083084,5.16988,-8.802556,-14.95513,0.7285311,-0.09783164,0.002081823,-50.76352,-18.84792,-34.22579
24.389971733,5.79156200000001,-14.92217,-16.6046,0.7290593,-0.08616027,0.001061602,-49.30281,-18.19151,-35.04571
24.399860382,5.045544,-20.45337,-18.55952,0.7319143,-0.09326886,0.01456656,-49.30281,-18.19151,-35.04571
24.409749031,3.429171,-27.39678,-20.20899,0.7464724,-0.07984083,0.03519486,-49.30281,-18.19151,-35.04571
24.41963768,1.315454,-32.6926,-19.53698,0.7479573,-0.05613944,0.05719915,-49.30281,-18.19151,-35.04571
24.429526329,-3.533663,-39.16528,-19.84244,0.7741297,-0.02758665,0.1138333,-49.30281,-18.19151,-35.04571
24.439414978,-10.37216,-47.81512,-20.1479,0.8332031,-0.006401198,0.2032447,-49.62487,-18.87285,-34.65402
24.449303627,-17.21066,-51.87525,-17.76533,0.9116356,0.006640393,0.3042614,-49.62487,-18.87285,-34.65402
24.459191799,-22.30845,-49.75692,-15.38277,1.0201,-0.01382787,0.3828783,-49.62487,-18.87285,-34.65402
24.469080448,-26.28721,-43.69615,-13.67221,1.123849,-0.01675135,0.4291795,-49.62487,-18.87285,-34.65402
24.478969097,-28.27659,-34.57556,-11.77837,1.235192,-0.07035423,0.4743026,-49.62487,-18.87285,-34.65402
24.49132967,-27.71708,-17.27587,-9.21253599999998,1.32742,-0.1745046,0.5235068,-50.77866,-19.21046,-33.3774
24.501218319,-25.60336,-0.976504999999998,-6.15796599999999,1.361985,-0.2298873,0.6022161,-50.77866,-19.21046,-33.3774
24.511106968,-23.86265,15.32286,-2.3703,1.277552,-0.2646913,0.5431427,-50.77866,-19.21046,-33.3774
24.520995617,-21.31376,23.85502,0.0733558600000001,1.152385,-0.2837389,0.4901953,-50.77866,-19.21046,-33.3774
24.530884266,-19.0757,27.67978,0.0733558600000001,0.9862641,-0.249373,0.3888393,-50.77866,-19.21046,-33.3774
24.540772438,-16.27814,26.62062,-2.859031,0.8362623,-0.1913007,0.2792062,-51.90997,-18.81463,-33.34359
24.550661087,-11.36685,22.08975,-6.64669700000003,0.7385127,-0.1671018,0.1909643,-51.90997,-18.81463,-33.34359
24.560549736,-5.274371,14.6756,-10.92309,0.6702881,-0.1494047,0.1277966,-51.90997,-18.81463,-33.34359
24.570438385,0.5694358,1.789092,-15.56604,0.6161361,-0.1327092,0.06465001,-51.90997,-18.81463,-33.34359
24.580326557,4.796871,-13.03922,-19.90353,0.5863503,-0.08433115,0.006661147,-51.90997,-18.81463,-33.34359
24.590215206,6.04023399999999,-27.57331,-23.44683,0.585741,-0.01943283,-0.04993526,-50.74782,-18.17032,-35.0786
24.600103855,4.48603,-40.87171,-26.25704,0.590878,0.04196833,-0.07909497,-50.74782,-18.17032,-35.0786
24.609992504,0.2585949,-54.46432,-28.57851,0.5988508,0.1028501,-0.07746987,-50.74782,-18.17032,-35.0786
24.619881153,-3.782336,-68.1157799999998,-32.61054,0.6188875,0.0964763,-0.1428201,-50.74782,-18.17032,-35.0786
24.629769802,-10.55867,-92.0646700000001,-39.57496,0.9785169,0.1482327,-0.05322146,-50.74782,-18.17032,-35.0786
24.639658451,-25.85203,-127.9586,-30.35016,1.808212,0.1449128,-0.1320942,-50.75628,-18.54003,-34.61933
24.6495471,-20.19473,-159.8512,-18.37625,2.321231,0.153002,-0.1089485,-50.75628,-18.54003,-34.61933
24.659435749,-10.12349,-135.8435,-4.264133,2.116788,0.1103215,0.07089924,-50.75628,-18.54003,-34.61933
24.669323921,3.304835,-91.9469800000002,-1.453929,1.882243,0.03483849,0.007051493,-50.75628,-18.54003,-34.61933
24.679212093,2.558817,-63.5849100000001,-5.85250900000001,1.551673,0.1088276,0.1236465,-50.75628,-18.54003,-34.61933
24.689100742,-21.74893,-46.04985,-7.31870300000003,1.236018,0.03042407,0.2770976,-52.35498,-19.49363,-29.45039
24.698989391,-41.95359,-29.04437,-2.125934,0.9303601,-0.3442667,0.2882619,-52.35498,-19.49363,-29.45039
24.711349964,-58.6146499999997,-21.21832,-1.759386,0.6486667,-0.516774,0.1127962,-52.35498,-19.49363,-29.45039
24.721238613,-71.7321400000003,-26.0434,-8.11289000000001,0.5272684,-0.6490589,-0.05451478,-52.35498,-19.49363,-29.45039
24.731127262,-72.4781599999998,-35.22283,-11.35073,0.4572829,-0.6563855,-0.2281698,-52.35498,-19.49363,-29.45039
24.741015911,-57.8064700000002,-47.28554,-13.79439,0.5537269,-0.487116,-0.3265425,-54.96824,-19.79455,-27.36357
24.75090456,-29.8308,-57.4064399999998,-15.26058,0.7477359,-0.2822384,-0.3754494,-54.96824,-19.79455,-27.36357
24.760793209,5.667225,-69.82221,-15.99368,0.8781445,-0.06618427,-0.4018817,-54.96824,-19.79455,-27.36357
24.770681858,45.64135,-80.9434400000001,-16.05477,0.9557676,0.08111673,-0.3760871,-54.96824,-19.79455,-27.36357
24.780570507,73.7413600000002,-86.7099999999998,-17.09333,1.022031,0.3350985,-0.3171801,-54.96824,-19.79455,-27.36357
24.790459156,83.7504299999997,-79.11932,-20.57553,1.122257,0.5045754,-0.1731653,-55.35703,-18.32428,-26.5494
24.800347805,74.3008700000001,-58.0537100000002,-21.67518,1.12877,0.6366468,-0.06802268,-55.35703,-18.32428,-26.5494
24.810236454,49.30928,-40.34212,-21.24754,1.059697,0.6133469,-0.03960913,-55.35703,-18.32428,-26.5494
24.820125103,15.61413,-33.22218,-19.23153,0.9932228,0.5600877,-0.1255004,-55.35703,-18.32428,-26.5494
24.830013752,-12.0507,-35.10514,-16.6046,0.9392076,0.4630359,-0.2073089,-55.35703,-18.32428,-26.5494
24.839901447,-29.33345,-38.34148,-16.42132,0.9574931,0.4092627,-0.2185585,-56.87913,-19.67237,-22.21682
24.849790096,-42.5131,-40.10675,-16.97114,0.9713296,0.3520268,-0.2014213,-56.87913,-19.67237,-22.21682
24.859678745,-52.95735,-43.87267,-17.2766,0.9625232,0.2127281,-0.1713912,-56.87913,-19.67237,-22.21682
24.869567394,-56.25227,-48.99197,-16.91005,0.9686348,0.05779063,-0.1104862,-56.87913,-19.67237,-22.21682
24.879456043,-49.84894,-48.63892,-16.72678,0.9863901,-0.1070886,-0.0615407,-56.87913,-19.67237,-22.21682
24.889344692,-38.72084,-44.28457,-20.39226,1.019772,-0.2541828,-0.02613312,-57.65733,-20.77163,-20.92101
24.899233341,-20.00823,-37.10579,-24.79084,1.060251,-0.3514463,-0.04435151,-57.65733,-20.77163,-20.92101
24.90912199,-0.114414,-28.63247,-28.76178,1.094697,-0.3902298,-0.09317031,-57.65733,-20.77163,-20.92101
24.919010639,17.10617,-21.45369,-29.73924,1.066853,-0.3607695,-0.1784739,-57.65733,-20.77163,-20.92101
24.928899288,35.38361,-18.45272,-28.27305,0.9795905,-0.2339435,-0.2412528,-57.65733,-20.77163,-20.92101
24.941259861,58.57233,-18.98231,-25.52394,0.9068112,-0.1200925,-0.2904839,-58.05652,-20.74224,-19.63254
24.95114851,71.3167999999999,-22.74822,-23.44683,0.8824993,0.0005754172,-0.3007397,-58.05652,-20.74224,-19.63254
24.961037159,76.7876000000001,-27.63215,-21.98064,0.881394,0.1172966,-0.2787276,-58.05652,-20.74224,-19.63254
24.970925808,75.1090599999999,-31.57459,-21.30863,0.9030415,0.232857,-0.2335994,-58.05652,-20.74224,-19.63254
24.98081398,65.7838400000002,-33.5164,-20.51444,0.9328412,0.3251428,-0.1806496,-58.08679,-21.46733,-17.93575
24.990702629,51.04998,-32.39839,-20.94208,0.9460551,0.3751882,-0.1539559,-58.08679,-21.46733,-17.93575
25.000591278,35.88095,-28.57363,-20.20899,0.9592302,0.3926349,-0.1578765,-58.08679,-21.46733,-17.93575
25.010479927,22.26612,-27.16141,-20.69772,0.9591933,0.3739583,-0.1693242,-58.08679,-21.46733,-17.93575
25.020368099,14.1221,-25.21961,-21.67518,0.9557486,0.3329587,-0.2085565,-58.08679,-21.46733,-17.93575
25.030256748,9.14864300000002,-23.98392,-21.49191,0.9544657,0.2364013,-0.2176884,-58.51424,-24.7536,-15.30337
25.040145397,6.72408399999998,-22.51285,-19.23153,0.9337654,0.1428831,-0.2215677,-58.51424,-24.7536,-15.30337
25.050034046,5.91589799999997,-26.33762,-18.0097,0.9517754,0.03660803,-0.1940786,-58.51424,-24.7536,-15.30337
25.059922695,8.34045599999999,-26.10225,-14.34421,0.9645898,-0.054141,-0.2037048,-58.51424,-24.7536,-15.30337
25.069811344,14.3086,-28.27942,-13.79439,0.9890029,-0.1356374,-0.1792191,-58.51424,-24.7536,-15.30337
25.079699516,23.63382,-28.10289,-12.63365,0.9704359,-0.1756313,-0.185771,-57.78255,-24.74078,-13.98916
25.089588165,34.14024,-27.9852,-12.14492,0.9510908,-0.1581203,-0.1897289,-57.78255,-24.74078,-13.98916
25.099476814,43.03029,-28.3971,-11.96165,0.9531153,-0.1362547,-0.1927226,-57.78255,-24.74078,-13.98916
25.109365463,49.43361,-28.809,-12.14492,0.9519123,-0.06469944,-0.1950092,-57.78255,-24.74078,-13.98916
25.119254112,52.04467,-28.92669,-11.77837,0.9734324,0.001406102,-0.1679063,-57.78255,-24.74078,-13.98916
25.129142761,51.29866,-27.57331,-12.20601,0.9546967,0.07436535,-0.1437694,-57.8074,-26.16614,-12.67177
25.13903141,47.87941,-25.10192,-12.45038,0.9485776,0.1383621,-0.1311148,-57.8074,-26.16614,-12.67177
25.148919582,43.09246,-22.51285,-12.81693,0.9516489,0.1861202,-0.1284672,-57.8074,-26.16614,-12.67177
25.161280632,38.80286,-19.45304,-12.38929,0.9576378,0.2223924,-0.144514,-57.8074,-26.16614,-12.67177
25.171169281,37.18649,-17.8643,-12.02274,0.9634977,0.2211625,-0.1608525,-57.8074,-26.16614,-12.67177
25.18105793,35.38361,-17.27587,-11.71728,0.9687701,0.1892271,-0.1789601,-57.84723,-27.25975,-10.45086
25.190946102,34.01591,-15.74597,-11.22855,0.9487009,0.1276307,-0.1974276,-57.84723,-27.25975,-10.45086
25.200834274,33.20772,-15.86365,-10.06781,0.9199583,0.08157624,-0.2198308,-57.84723,-27.25975,-10.45086
25.210722923,33.39423,-17.15819,-10.49545,0.9194504,0.0553447,-0.2480732,-57.84723,-27.25975,-10.45086
25.220611572,34.69976,-18.80578,-9.33471900000003,0.8981442,0.04710672,-0.2807584,-57.84723,-27.25975,-10.45086
25.230500221,35.88095,-22.27748,-9.21253599999998,0.9224743,0.05164776,-0.2995096,-58.61697,-27.9893,-9.614325
25.24038887,37.87033,-24.04276,-7.074337,0.9270315,0.09224781,-0.3194274,-58.61697,-27.9893,-9.614325
25.250277519,38.30551,-27.04373,-7.56306800000003,0.9509027,0.1060777,-0.3358214,-58.61697,-27.9893,-9.614325
25.260166168,38.49202,-28.69131,-6.46342299999997,0.9321572,0.1487435,-0.3509669,-58.61697,-27.9893,-9.614325
25.270054817,39.1137,-30.80964,-6.58560600000002,0.9258996,0.1534025,-0.3659061,-58.61697,-27.9893,-9.614325
25.279943466,39.73538,-33.28103,-5.73032600000002,0.9418308,0.1429673,-0.3451557,-58.27794,-28.64856,-7.455878
25.289832115,40.54356,-34.69325,-5.424869,0.9659456,0.1150288,-0.321422,-58.27794,-28.64856,-7.455878
25.299720764,40.73007,-36.10546,-4.14195,1.002664,0.09214342,-0.2837527,-58.27794,-28.64856,-7.455878
25.309609413,40.6679,-36.16431,-4.325224,1.039368,0.06437417,-0.2470206,-58.27794,-28.64856,-7.455878
25.319498062,41.53825,-35.75241,-3.897585,1.019803,0.0300263,-0.2343653,-58.27794,-28.64856,-7.455878
25.329385758,44.02498,-34.69325,-2.675757,1.038137,0.0286965,-0.190574,-58.3171,-29.3641,-5.240274
25.339274407,47.00905,-31.57459,-1.759386,1.066664,0.0119204,-0.1688153,-58.3171,-29.3641,-5.240274
25.349163056,51.73383,-28.57363,-1.270655,1.093752,-0.004466563,-0.1537931,-58.3171,-29.3641,-5.240274
25.359051704,55.09092,-25.04308,0.806452599999999,1.111286,0.02448048,-0.1370872,-58.3171,-29.3641,-5.240274
25.368940353,54.65574,-22.10096,3.738839,1.222177,0.106937,-0.111889,-58.3171,-29.3641,-5.240274
25.381300926,46.51171,-15.15754,9.90907000000003,1.40102,0.3339984,-0.07964953,-58.36045,-29.31756,-2.711015
25.391189575,42.47078,-3.330204,10.3978,1.438412,0.5436504,-0.1883928,-58.36045,-29.31756,-2.711015
25.401078224,34.94843,6.55533299999998,4.044297,1.397191,0.6180713,-0.2975039,-58.36045,-29.31756,-2.711015
25.410966873,21.58228,12.79264,-2.79794,1.393402,0.511072,-0.2887918,-58.36045,-29.31756,-2.711015
25.420855522,3.242667,23.97271,-3.71431,1.395173,0.3450204,-0.2552481,-58.36045,-29.31756,-2.711015
25.430744171,-14.04008,36.21194,0.806452599999999,1.359851,0.1240959,-0.2161791,-58.75229,-28.91727,-1.816959
25.44063282,-22.55712,44.56758,8.50396799999999,1.3007,-0.09150948,-0.1502324,-58.75229,-28.91727,-1.816959
25.450521469,-22.74363,50.98141,18.64514,1.256667,-0.2603237,-0.04699326,-58.75229,-28.91727,-1.816959
25.460410118,-19.26221,57.7482900000002,29.03068,1.193081,-0.3636146,0.006357722,-58.75229,-28.91727,-1.816959
25.470298767,-10.62083,67.28078,38.62202,1.132725,-0.4216437,-0.006883455,-58.75229,-28.91727,-1.816959
25.480186939,4.548198,78.2843200000002,43.32606,1.04145,-0.4437068,-0.02899812,-58.34463,-28.57696,-3.564709
25.490075588,20.83626,87.8756499999997,48.88538,0.940837,-0.3914441,-0.09718648,-58.34463,-28.57696,-3.564709
25.499964237,37.24865,96.1135900000002,50.77921,0.8940638,-0.331094,-0.1384229,-58.34463,-28.57696,-3.564709
25.509852409,46.88472,104.94,54.3836,0.9034479,-0.2918278,-0.1491909,-58.34463,-28.57696,-3.564709
25.519741058,50.17963,112.766,58.1101800000001,0.9505027,-0.1823517,-0.1819124,-58.34463,-28.57696,-3.564709
25.529629707,47.87941,117.8853,58.3545500000002,1.021854,-0.06314867,-0.2122507,-58.24643,-27.23036,-9.162383
25.539518356,41.35175,123.593,55.29998,1.099909,0.02925165,-0.2429269,-58.24643,-27.23036,-9.162383
25.549407005,33.26989,127.8297,49.4352,1.114385,0.1232384,-0.2736835,-58.24643,-27.23036,-9.162383
25.559295654,23.13648,131.7133,42.59296,1.077412,0.2183152,-0.3035421,-58.24643,-27.23036,-9.162383
25.569184303,11.01369,132.184,33.24598,1.044288,0.2991693,-0.3395765,-58.24643,-27.23036,-9.162383
25.579072475,-0.984768300000001,130.1834,23.53245,1.044808,0.3118865,-0.3357928,-58.14301,-23.61659,-14.85673
25.588961124,-10.37216,126.9471,18.2175,1.089946,0.3177845,-0.3261529,-58.14301,-23.61659,-14.85673
25.601321697,-27.2819,123.6519,14.00219,1.112794,0.3249789,-0.3304916,-58.14301,-23.61659,-14.85673
25.611210346,-39.7777,120.9451,14.49092,1.088645,0.2452262,-0.293566,-58.14301,-23.61659,-14.85673
25.621098995,-50.78147,117.7676,14.24656,1.099533,0.1728001,-0.2830883,-56.50752,-22.63936,-22.16669
25.630987644,-55.38191,113.2956,12.29163,1.076983,0.1175193,-0.2703306,-56.50752,-22.63936,-22.16669
25.640876293,-57.5577999999999,110.7065,8.87051700000001,1.076334,0.08471709,-0.249486,-56.50752,-22.63936,-22.16669
25.650764942,-59.0498299999998,107.9998,6.304678,1.060603,0.04569344,-0.2233369,-56.50752,-22.63936,-22.16669
25.660653591,-59.1120000000001,107.176,4.471936,1.046809,0.002218701,-0.2014915,-56.50752,-22.63936,-22.16669
25.67054224,-60.6661999999998,106.6464,3.555565,1.025811,-0.01834076,-0.1788082,-53.80093,-20.60782,-29.53222
25.680430889,-63.1529299999999,103.057,4.533028,0.9956518,-0.04274371,-0.1864139,-53.80093,-20.60782,-29.53222
25.690319538,-65.82616,97.58466,5.327216,0.9606062,-0.07638905,-0.1939784,-53.80093,-20.60782,-29.53222
25.700207233,-67.0695299999999,90.5235600000001,4.471936,0.9169456,-0.07097508,-0.1959791,-53.80093,-20.60782,-29.53222
25.710095882,-65.7018300000002,83.7566799999998,3.494474,0.9212036,-0.08770323,-0.1742483,-53.80093,-20.60782,-29.53222
25.719984531,-60.8527100000001,78.9904299999997,1.783915,0.9139259,-0.07676026,-0.1598843,-50.76295,-18.53287,-34.23021
25.72987318,-53.76554,73.9299800000001,0.3177214,0.8687894,-0.07669264,-0.1613787,-50.76295,-18.53287,-34.23021
25.739761829,-44.68899,67.4573100000002,-0.781923700000001,0.8362101,-0.07724988,-0.1378478,-50.76295,-18.53287,-34.23021
25.749650478,-36.29628,60.4550500000001,-2.492483,0.8012294,-0.07846188,-0.1258584,-50.76295,-18.53287,-34.23021
25.759539127,-29.33345,53.80585,-3.164488,0.7865531,-0.09412839,-0.100788,-50.76295,-18.53287,-34.23021
25.769427776,-24.85734,46.74475,-5.241595,0.7723953,-0.09457824,-0.0676183,-46.97094,-16.40597,-38.91192
25.779316425,-22.68146,40.33092,-6.09687499999998,0.7576917,-0.1130586,-0.03531991,-46.97094,-16.40597,-38.91192
25.789205074,-21.68677,34.6232,-8.05179900000001,0.7721826,-0.1216007,-0.01842804,-46.97094,-16.40597,-38.91192
25.799093723,-21.99761,30.09233,-8.96817000000001,0.7794495,-0.113565,-0.001147223,-46.97094,-16.40597,-38.91192
25.808982372,-21.6246,26.14988,-9.76235899999999,0.7712184,-0.1096963,-0.004061659,-46.97094,-16.40597,-38.91192
25.818871021,-20.19473,23.14891,-11.5951,0.7832253,-0.1273274,0.02345359,-45.12537,-15.70042,-40.17811
25.831231594,-21.6246,17.97077,-14.34421,0.7943202,-0.1129814,0.07244766,-45.12537,-15.70042,-40.17811
25.841120243,-22.18411,12.73379,-15.1384,0.7929289,-0.09298489,0.07426871,-45.12537,-15.70042,-40.17811
25.851008892,-18.76486,10.49778,-15.26058,0.80322,-0.08616108,0.04346698,-45.12537,-15.70042,-40.17811
25.860897541,-13.85358,8.02639499999998,-15.50495,0.8270602,-0.06317775,0.05299637,-45.12537,-15.70042,-40.17811
25.87078619,-9.19096599999999,7.61449700000002,-15.56604,0.8295413,-0.05058666,0.04860727,-43.20863,-14.6891,-41.90126
25.880673885,-7.20158399999998,7.32028499999999,-15.56604,0.8445706,-0.0415493,0.06877737,-43.20863,-14.6891,-41.90126
25.890562534,-8.44494700000003,6.37880599999998,-15.1384,0.8610899,-0.02775323,0.08171131,-43.20863,-14.6891,-41.90126
25.900451183,-11.36685,4.201633,-15.56604,0.8571026,-0.04201595,0.1043821,-43.20863,-14.6891,-41.90126
25.910339832,-14.53743,0.965297,-16.11586,0.8526933,-0.03975748,0.1245644,-43.20863,-14.6891,-41.90126
25.920228481,-16.52681,-3.153677,-15.99368,0.862301,-0.03466779,0.1731226,-42.82389,-14.70298,-42.34666
25.93011713,-19.26221,-6.27232800000001,-18.13188,0.8646025,-0.04731673,0.2068536,-42.82389,-14.70298,-42.34666
25.940005779,-22.18411,-9.15561100000003,-19.29262,0.8911865,-0.04367829,0.258324,-42.82389,-14.70298,-42.34666
25.949894428,-24.91951,-10.56783,-20.45335,0.9298728,-0.0503113,0.3084173,-42.82389,-14.70298,-42.34666
25.959783077,-27.40624,-11.98005,-20.45335,0.989441,-0.0575516,0.3532473,-42.82389,-14.70298,-42.34666
25.969671726,-29.8308,-10.86204,-19.96462,1.009141,-0.08369698,0.3986084,-41.38597,-14.33775,-41.8651
25.979560375,-29.45779,-9.50866599999999,-17.52097,0.9983177,-0.1295352,0.3930567,-41.38597,-14.33775,-41.8651
25.989448547,-25.97637,-8.979083,-15.32168,0.9788087,-0.1766752,0.3644174,-41.38597,-14.33775,-41.8651
25.999337196,-20.19473,-8.979083,-9.57908399999997,0.9622307,-0.2080158,0.3506103,-41.38597,-14.33775,-41.8651
26.009225845,-14.7861,-9.44982299999999,-4.99723,0.9718659,-0.2439057,0.3291611,-41.38597,-14.33775,-41.8651
26.019114494,-9.68831099999998,-10.33246,-1.270655,0.9757152,-0.2750513,0.2985439,-42.11766,-14.35057,-43.17932
26.029003143,-3.28499,-13.09806,0.25663,1.013613,-0.2883045,0.2640277,-42.11766,-14.35057,-43.17932
26.038891315,1.874967,-14.03954,-0.781923700000001,1.036135,-0.2587261,0.2259111,-42.11766,-14.35057,-43.17932
26.051252365,5.667225,-11.86236,-2.981214,1.02717,-0.2011135,0.2020446,-42.11766,-14.35057,-43.17932
26.061141014,6.91058800000001,-7.21380900000002,-6.15796599999999,0.9822173,-0.1429914,0.2074708,-42.11766,-14.35057,-43.17932
26.071029186,7.22142900000002,-4.271684,-8.84598700000002,0.9102314,-0.08624455,0.1498726,-42.13143,-13.957,-42.34154
26.080917835,9.27297899999999,-5.625061,-11.35073,0.7890901,-0.05444161,0.1111005,-42.13143,-13.957,-42.34154
26.090806484,12.50572,-11.2151,-14.89404,0.703763,-0.03549043,0.096961,-42.13143,-13.957,-42.34154
26.100695133,14.61944,-20.51221,-18.49843,0.6548494,-0.004236159,0.09626652,-42.13143,-13.957,-42.34154
26.110583305,13.00307,-28.16173,-22.40828,0.6526041,0.04737062,0.09504135,-42.13143,-13.957,-42.34154
26.120471954,7.656606,-36.10546,-26.92904,0.6251653,0.1012247,0.07790577,-41.77003,-13.94581,-41.42501
26.130360603,0.0720904500000002,-46.4029,-32.1829,0.6083794,0.1477534,0.06081932,-41.77003,-13.94581,-41.42501
26.140249252,-8.258443,-57.28876,-38.10876,0.6394466,0.1382171,0.04599428,-41.77003,-13.94581,-41.42501
26.150137901,-15.71862,-68.23346,-45.62301,0.9393997,0.1262376,0.03389192,-41.77003,-13.94581,-41.42501
26.16002655,-33.68522,-90.4759200000001,-46.47829,1.483566,0.2247316,-0.04822456,-41.77003,-13.94581,-41.42501
26.169915199,-52.02483,-125.4872,-37.43676,1.890325,0.2128915,-0.06934368,-41.40178,-15.07836,-41.01141
26.179803848,-53.51686,-136.8438,-17.2766,1.955621,0.08888348,0.04870195,-41.40178,-15.07836,-41.01141
26.189692497,-48.91642,-109.6586,-5.180504,1.910047,0.006123974,0.1096644,-41.40178,-15.07836,-41.01141
26.199581146,-40.46155,-65.8209200000002,1.356275,1.690576,-0.09287504,0.2012901,-41.40178,-15.07836,-41.01141
26.209469795,-36.42062,-38.87106,2.211555,1.34042,-0.121276,0.2419138,-41.40178,-15.07836,-41.01141
26.219358444,-37.53965,-30.22122,-3.408854,1.005888,-0.2716323,0.2706676,-43.66866,-15.66763,-37.16056
26.229247093,-41.08323,-28.809,-6.76888000000001,0.7798977,-0.421129,0.1759437,-43.66866,-15.66763,-37.16056
26.239134789,-52.2735,-30.86849,-10.61764,0.7184967,-0.4314911,0.06098611,-43.66866,-15.66763,-37.16056
26.249023438,-62.5312499999998,-31.51575,-16.66569,0.7604976,-0.4526141,-0.0759219,-43.66866,-15.66763,-37.16056
26.258912087,-59.0498299999998,-28.809,-18.6817,0.7979078,-0.5196001,-0.1866336,-43.66866,-15.66763,-37.16056
26.271272659,-31.26066,-30.04469,-19.35371,0.8276706,-0.3759046,-0.2455174,-45.58086,-14.15856,-35.47277
26.281161308,4.050853,-36.39968,-20.08681,0.8663818,-0.1300569,-0.2457539,-45.58086,-14.15856,-35.47277
26.291049957,44.9575,-46.22638,-26.19594,0.840627,0.009441496,-0.234465,-45.58086,-14.15856,-35.47277
26.300938606,75.97942,-56.58265,-31.69417,0.8152518,0.1232314,-0.216313,-45.58086,-14.15856,-35.47277
26.310827255,87.7291899999998,-61.5842599999998,-34.62656,0.8647398,0.2804348,-0.1833867,-45.58086,-14.15856,-35.47277
26.320715904,80.02034,-60.7016300000003,-32.48836,0.9851275,0.4502164,-0.1465959,-46.28435,-12.99873,-34.66133
26.330604553,56.70729,-51.75757,-29.92252,1.102891,0.5471025,-0.132524,-46.28435,-12.99873,-34.66133
26.340493202,24.69068,-38.51801,-22.83592,1.144843,0.6029254,-0.1390103,-46.28435,-12.99873,-34.66133
26.350381851,-9.31530200000001,-26.39646,-16.23805,1.10231,0.5953994,-0.2246246,-46.28435,-12.99873,-34.66133
26.3602705,-36.60712,-19.33536,-11.41183,1.007883,0.4743387,-0.2890446,-46.28435,-12.99873,-34.66133
26.370159149,-54.01421,-20.04147,-10.61764,0.902858,0.4065366,-0.3104628,-46.70377,-15.53604,-32.42867
26.380047798,-65.3909900000002,-26.63183,-11.90056,0.8402605,0.2802402,-0.2973918,-46.70377,-15.53604,-32.42867
26.38993597,-71.4213000000002,-35.75241,-14.4053,0.8169762,0.1489031,-0.2905026,-46.70377,-15.53604,-32.42867
26.399824619,-64.45847,-43.46078,-16.48241,0.8250976,-0.02090039,-0.2790551,-46.70377,-15.53604,-32.42867
26.409713268,-41.20757,-47.63859,-23.20247,0.84443,-0.1800778,-0.2719767,-46.70377,-15.53604,-32.42867
26.419601917,-6.57990299999997,-49.69808,-29.18942,0.9246144,-0.2872647,-0.264611,-47.842,-15.89036,-32.05999
26.42949009,28.1721,-47.28554,-32.30508,1.001266,-0.3050902,-0.2740522,-47.842,-15.89036,-32.05999
26.439378739,59.5048500000001,-44.93184,-35.97057,1.057127,-0.2825851,-0.2596748,-47.842,-15.89036,-32.05999
26.449267387,80.9528699999999,-40.5775,-37.25349,1.076674,-0.2122925,-0.2133584,-47.842,-15.89036,-32.05999
26.459156036,91.27278,-37.28232,-36.82585,1.064726,-0.1318339,-0.1753049,-47.842,-15.89036,-32.05999
26.469044685,93.6973399999998,-31.63344,-33.52691,1.046983,-0.04707478,-0.1435317,-49.00942,-15.1401,-29.89045
26.478933334,88.1022000000001,-27.63215,-31.93854,1.02879,0.0409501,-0.1213939,-49.00942,-15.1401,-29.89045
26.491293907,73.4305200000002,-19.68842,-28.45633,1.03012,0.1556252,-0.1056205,-49.00942,-15.1401,-29.89045
26.501182556,60.31304,-13.03922,-25.8294,1.017901,0.2611018,-0.1205951,-49.00942,-15.1401,-29.89045
26.511070728,52.54202,-8.27297300000001,-24.85193,0.987668,0.3301412,-0.1647421,-48.67381,-17.68966,-27.70549
26.520959377,49.93096,-7.68454900000002,-24.3632,0.9456358,0.3563595,-0.2082053,-48.67381,-17.68966,-27.70549
26.530848026,51.92034,-10.74436,-25.03521,0.9060096,0.3782264,-0.2492392,-48.67381,-17.68966,-27.70549
26.540736675,56.27211,-13.74532,-26.92904,0.8919535,0.3622044,-0.280434,-48.67381,-17.68966,-27.70549
26.550625324,61.1834000000001,-16.09902,-26.37922,0.8971118,0.3061087,-0.2859158,-48.67381,-17.68966,-27.70549
26.560513973,64.0431300000002,-16.33439,-26.74577,0.9122786,0.2133373,-0.2676356,-49.07056,-20.63008,-26.82943
26.570402622,64.2296300000003,-14.80449,-26.25704,0.9090973,0.1399004,-0.2614971,-49.07056,-20.63008,-26.82943
26.580291271,63.3592799999998,-16.86398,-25.70721,0.9189299,0.06900384,-0.2139974,-49.07056,-20.63008,-26.82943
26.59017992,60.4995500000003,-16.86398,-24.54648,0.9227018,0.03635634,-0.21479,-49.07056,-20.63008,-26.82943
26.600068569,58.57233,-17.57009,-23.81338,0.9415641,0.02529895,-0.2026896,-49.07056,-20.63008,-26.82943
26.609957218,59.2561799999998,-18.21735,-22.59155,0.9648106,0.01910958,-0.190128,-48.34354,-23.20067,-25.47897
26.619845867,61.9915800000002,-17.21703,-20.94208,0.9785452,0.05051852,-0.2046987,-48.34354,-23.20067,-25.47897
26.629734516,65.4729899999999,-16.51092,-20.08681,1.000446,0.07448678,-0.1946956,-48.34354,-23.20067,-25.47897
26.639622211,68.8300800000001,-14.6868,-19.78135,1.028633,0.09262078,-0.1832131,-48.34354,-23.20067,-25.47897
26.64951086,70.6329500000001,-12.56847,-20.27008,1.007352,0.1125918,-0.1857428,-48.34354,-23.20067,-25.47897
26.659399509,71.6276399999999,-10.8032,-20.69772,1.010325,0.1296149,-0.1867873,-48.76894,-25.35276,-22.8625
26.669288158,71.93848,-9.80287800000002,-20.8199,0.9812392,0.1334241,-0.196458,-48.76894,-25.35276,-22.8625
26.679176807,71.6898100000002,-8.27297300000001,-20.94208,0.9676211,0.1251657,-0.1969127,-48.76894,-25.35276,-22.8625
26.689065456,72.12498,-7.037281,-20.63663,0.9408988,0.116926,-0.1978633,-48.76894,-25.35276,-22.8625
26.698954105,72.3114899999998,-6.27232800000001,-20.08681,0.933155,0.1202852,-0.2022173,-48.76894,-25.35276,-22.8625
26.708842754,73.0575099999999,-5.389691,-19.35371,0.946206,0.1036816,-0.2035614,-48.41763,-27.22471,-21.53034
26.721203327,73.7413600000002,-3.389047,-18.43734,0.9491345,0.09362044,-0.2246677,-48.41763,-27.22471,-21.53034
26.731091976,74.6117199999998,-2.27104,-17.33769,0.9462569,0.09788646,-0.2328682,-48.41763,-27.22471,-21.53034
26.740980625,74.7982199999998,-2.74178,-17.39878,0.9322773,0.1092486,-0.2565067,-48.41763,-27.22471,-21.53034
26.750869274,74.9847300000001,-3.447889,-16.78787,0.9333096,0.1282664,-0.2546779,-48.41763,-27.22471,-21.53034
26.760757923,75.0468900000002,-4.095157,-16.72678,0.9493615,0.1314995,-0.2642944,-47.69701,-29.03083,-19.73652
26.770646572,75.1712300000002,-4.153999,-16.36023,0.9479457,0.1347312,-0.2763354,-47.69701,-29.03083,-19.73652
26.780535221,76.04158,-5.036636,-15.62713,0.9430763,0.1248868,-0.2839859,-47.69701,-29.03083,-19.73652
26.790423393,76.16592,-6.331171,-14.28312,0.9396598,0.1090883,-0.2988185,-47.69701,-29.03083,-19.73652
26.800312042,76.3524200000001,-8.62602799999997,-12.87802,0.9361897,0.08417442,-0.3044676,-47.69701,-29.03083,-19.73652
26.810200691,76.8497699999999,-10.27362,-10.98419,0.9453586,0.07254859,-0.2991083,-47.73779,-31.25981,-17.56455
26.82008934,78.8391500000001,-12.745,-9.27362699999999,0.9353049,0.09856181,-0.3194498,-47.73779,-31.25981,-17.56455
26.829977989,80.02034,-15.9225,-9.151444,0.9450098,0.1055253,-0.3084128,-47.73779,-31.25981,-17.56455
26.839866638,80.8907000000002,-17.57009,-8.84598700000002,0.9542798,0.1256085,-0.2993663,-47.73779,-31.25981,-17.56455
26.84975481,82.0718900000001,-18.98231,-7.86852500000001,0.9799918,0.1211608,-0.3002764,-47.73779,-31.25981,-17.56455
26.859643459,83.3152500000002,-20.10031,-8.66271300000003,0.9867758,0.1172374,-0.3012107,-47.02565,-33.43563,-15.31146
26.869532108,84.6829499999999,-21.21832,-7.92961600000002,0.9775208,0.1134823,-0.2930266,-47.02565,-33.43563,-15.31146
26.879420757,85.9884900000001,-21.80675,-7.44088499999998,0.9629532,0.1150438,-0.2882419,-47.02565,-33.43563,-15.31146
26.889308929,87.48052,-23.10128,-7.19651999999998,0.9623677,0.09626962,-0.27372,-47.02565,-33.43563,-15.31146
26.899197578,88.8482200000002,-23.57202,-7.990708,0.977386,0.09343328,-0.2659939,-47.02565,-33.43563,-15.31146
26.909086227,90.7132599999999,-23.33665,-7.44088499999998,0.9773526,0.08418848,-0.2654663,-47.07173,-34.90133,-12.76098
26.918974876,93.44867,-23.98392,-7.62415899999998,0.9744119,0.08337856,-0.2548853,-47.07173,-34.90133,-12.76098
26.931335449,97.1787599999997,-23.80739,-7.074337,1.002081,0.09276286,-0.2423973,-47.07173,-34.90133,-12.76098
26.941224098,99.4789800000001,-23.21896,-6.34123999999999,1.001087,0.08743712,-0.2404478,-47.07173,-34.90133,-12.76098
26.951112747,101.5305,-21.63022,-4.936138,0.991311,0.07644352,-0.2278994,-47.07173,-34.90133,-12.76098
26.961001396,102.8361,-20.15915,-3.71431,1.018008,0.09728122,-0.1986382,-47.50286,-35.91088,-9.706453
26.970890045,101.2197,-19.27652,-1.392838,1.124452,0.1697937,-0.1551197,-47.50286,-35.91088,-9.706453
26.980778694,96.86791,-14.74565,1.783915,1.242012,0.3494977,-0.1390619,-47.50286,-35.91088,-9.706453
26.990667343,92.0188000000001,-6.801911,-1.209563,1.241821,0.5282049,-0.2053705,-47.50286,-35.91088,-9.706453
27.000555992,81.9475599999997,0.2003446,-6.82997100000002,1.236288,0.5736493,-0.2609124,-47.50286,-35.91088,-9.706453
27.010444641,67.5245399999999,8.85018899999998,-12.51147,1.272234,0.4610157,-0.2328898,-47.57161,-36.97346,-5.799372
27.02033329,49.55795,19.26531,-15.8715,1.266797,0.3164113,-0.1989817,-47.57161,-36.97346,-5.799372
27.030221939,35.38361,30.68075,-14.28312,1.252103,0.1506492,-0.1808476,-47.57161,-36.97346,-5.799372
27.040110588,30.47232,40.09555,-10.19,1.229804,0.01573614,-0.1850004,-47.57161,-36.97346,-5.799372
27.049999237,36.87564,47.09781,-6.09687499999998,1.199954,-0.1736841,-0.1552219,-47.57161,-36.97346,-5.799372
27.059886932,48.6876,51.33447,-0.4153753,1.150909,-0.2957882,-0.1205152,-47.21824,-37.71124,-4.483128
27.069775581,59.0696799999998,53.62932,6.06031299999999,1.114412,-0.4020379,-0.033454,-47.21824,-37.71124,-4.483128
27.07966423,64.9756499999998,57.5129200000002,15.77384,1.110196,-0.446703,0.04034783,-47.21824,-37.71124,-4.483128
27.089552879,69.5139200000002,68.8106799999999,25.73174,1.117357,-0.4678553,0.0596997,-47.21824,-37.71124,-4.483128
27.099441528,76.3524200000001,84.93353,36.11728,1.106389,-0.440703,0.01770989,-47.21824,-37.71124,-4.483128
27.109330177,87.41836,99.8795200000002,41.79878,1.075365,-0.3633446,-0.08899985,-46.82042,-38.49676,-5.760996
27.119218826,100.225,109.5297,44.67007,1.007563,-0.2473007,-0.1863285,-46.82042,-38.49676,-5.760996
27.129107475,110.3584,116.8261,44.36462,0.9841449,-0.1629708,-0.2165984,-46.82042,-38.49676,-5.760996
27.138996124,114.7102,122.475,43.69261,1.020475,-0.07209271,-0.2569327,-46.82042,-38.49676,-5.760996
27.148884773,112.4721,128.3004,40.45477,1.056701,-0.009915682,-0.2951985,-46.82042,-38.49676,-5.760996
27.161245346,104.2659,132.0075,30.86342,1.139468,0.02813628,-0.3448316,-46.78101,-37.0239,-7.922355
27.171133995,93.2000000000003,135.6557,24.571,1.159086,0.06811895,-0.371462,-46.78101,-37.0239,-7.922355
27.181022644,76.1037499999997,139.9512,16.99567,1.153933,0.1017843,-0.4004932,-46.78101,-37.0239,-7.922355
27.190910816,56.89379,143.776,12.10836,1.133707,0.1475976,-0.4007477,-46.78101,-37.0239,-7.922355
27.200799465,40.73007,144.5998,7.95414600000001,1.1153,0.1449044,-0.4204728,-46.78101,-37.0239,-7.922355
27.210688114,26.30705,142.1873,6.91559200000002,1.092515,0.1502556,-0.4238922,-46.72808,-36.70192,-10.97574
27.220576763,15.05462,136.4795,8.87051700000001,1.079617,0.08783834,-0.3985836,-46.72808,-36.70192,-10.97574
27.230465412,7.843111,129.4773,12.59709,1.114644,0.003744358,-0.3509885,-46.72808,-36.70192,-10.97574
27.240354061,7.22142900000002,121.004,14.36874,1.134838,-0.0135003,-0.2965343,-46.72808,-36.70192,-10.97574
27.25024271,8.96213800000002,113.884,15.89603,1.139008,-0.05256328,-0.2703624,-46.72808,-36.70192,-10.97574
27.260131359,7.843111,107.2348,16.38476,1.177603,-0.103904,-0.246494,-45.20056,-36.0541,-15.68771
27.270020008,6.84842,106.5287,18.8895,1.155361,-0.2073288,-0.2291644,-45.20056,-36.0541,-15.68771
27.27990818,6.59974800000002,107.0583,22.79935,1.088036,-0.2761898,-0.186091,-45.20056,-36.0541,-15.68771
27.289796352,6.72408399999998,107.9998,27.25903,0.9873657,-0.3110709,-0.1547693,-45.20056,-36.0541,-15.68771
27.299685001,8.58912800000003,107.2937,30.74123,0.8806291,-0.3086625,-0.1707733,-45.20056,-36.0541,-15.68771
27.30957365,13.62475,101.174,32.02415,0.7812775,-0.2845356,-0.1989016,-43.99328,-35.07946,-20.02214
27.319462299,20.46325,89.3467099999998,30.68014,0.7194012,-0.2193202,-0.2098817,-43.99328,-35.07946,-20.02214
27.329350948,27.92343,74.1653500000002,27.07575,0.6973446,-0.144351,-0.214614,-43.99328,-35.07946,-20.02214
27.339239597,34.14024,59.2193600000001,22.86045,0.7319801,-0.08132248,-0.1961372,-43.99328,-35.07946,-20.02214
27.349128246,38.49202,48.21581,19.31714,0.774318,-0.04030102,-0.1828305,-43.99328,-35.07946,-20.02214
27.359016895,39.98405,42.74346,16.7513,0.8092655,-0.01648603,-0.1487657,-42.4749,-35.1794,-24.26954
27.368905544,38.05684,39.7425,15.04075,0.8248426,0.01255834,-0.1258106,-42.4749,-35.1794,-24.26954
27.381266117,31.59135,37.50648,16.7513,0.8001512,0.04206858,-0.1096365,-42.4749,-35.1794,-24.26954
27.391154766,27.05307,33.50519,18.58405,0.8078582,0.0394408,-0.08893482,-42.4749,-35.1794,-24.26954
27.401043415,24.31767,31.38686,16.14039,0.799549,0.0328556,-0.07448336,-40.94809,-33.32792,-25.16967
27.410932064,15.98714,21.67785,14.18547,0.7915611,0.0457176,0.03557348,-40.94809,-33.32792,-25.16967
27.420820713,16.48449,13.61643,13.75783,0.8341271,-0.0007130509,0.03008546,-40.94809,-33.32792,-25.16967
27.430709362,28.3586,12.79264,10.58108,0.8414754,0.01875043,0.02999546,-40.94809,-33.32792,-25.16967
27.440598011,34.88626,8.90903199999997,5.75485600000001,0.8334947,0.006188441,0.1007453,-40.94809,-33.32792,-25.16967
27.45048666,35.50794,3.730894,0.562087,0.8284807,-0.002742633,0.1541669,-40.94279,-34.09119,-25.54818
27.460375309,33.14555,-0.976504999999998,-3.469945,0.8385338,-0.009841952,0.2018254,-40.94279,-34.09119,-25.54818
27.470263958,33.08339,-5.74274599999998,-6.28014899999998,0.8540001,-0.01642381,0.2196703,-40.94279,-34.09119,-25.54818
27.48015213,35.63228,-8.567186,-9.70126700000002,0.844328,-0.02060944,0.1990009,-40.94279,-34.09119,-25.54818
27.490040779,38.74069,-11.86236,-13.06129,0.8287813,-0.0254626,0.1980459,-40.94279,-34.09119,-25.54818
27.499929428,39.17587,-15.15754,-15.44386,0.8147507,-0.0177587,0.1902963,-40.95724,-34.07568,-24.7051
27.509818077,38.42985,-17.57009,-17.52097,0.8099447,-0.001629525,0.1935758,-40.95724,-34.07568,-24.7051
27.519706249,34.51325,-20.45337,-19.10934,0.8236243,0.02863501,0.2001713,-40.95724,-34.07568,-24.7051
27.529594898,29.60197,-22.1598,-19.47589,0.8299168,0.03669416,0.2188936,-40.95724,-34.07568,-24.7051
27.539483547,25.18803,-24.04276,-20.57553,0.8440062,0.04056193,0.2188901,-40.95724,-34.07568,-24.7051
27.549372196,21.52011,-24.33697,-21.12536,0.8720849,0.03350414,0.2391564,-40.60524,-35.56958,-23.37824
27.559260845,19.15772,-23.86623,-21.00318,0.9063562,0.005775648,0.27829,-40.60524,-35.56958,-23.37824
27.569149017,17.35484,-23.86623,-19.04825,0.9828053,-0.02371079,0.3357556,-40.60524,-35.56958,-23.37824
27.579037666,13.50041,-21.21832,-16.17696,1.035256,-0.1045437,0.4083619,-40.60524,-35.56958,-23.37824
27.588926315,8.402624,-20.39453,-13.48893,1.094586,-0.1550626,0.4899603,-40.60524,-35.56958,-23.37824
27.601286888,0.4450994,-17.21703,-10.31218,1.172314,-0.2585771,0.5146178,-39.87616,-37.00599,-22.0437
27.611175537,-2.787645,-12.80384,-7.44088499999998,1.21196,-0.3004757,0.5187219,-39.87616,-37.00599,-22.0437
27.621064186,-1.917291,-8.39065799999998,-4.936138,1.211076,-0.3104737,0.4687557,-39.87616,-37.00599,-22.0437
27.630952835,1.191117,-4.565897,0.623178399999998,1.134046,-0.3301484,0.3802781,-39.87616,-37.00599,-22.0437
27.640841484,6.35107500000001,1.259509,7.83196300000002,0.9616987,-0.3688736,0.3403613,-39.87616,-37.00599,-22.0437
27.650730133,8.58912800000003,6.20227800000001,17.11785,0.7997032,-0.3882223,0.2623657,-39.50835,-37.75928,-21.57054
27.660618782,12.38139,9.14440199999997,17.54549,0.6966451,-0.3263864,0.2152867,-39.50835,-37.75928,-21.57054
27.670507431,20.21457,7.79102499999999,12.96364,0.6816608,-0.2088906,0.1569654,-39.50835,-37.75928,-21.57054
27.68039608,31.34268,1.553722,4.105388,0.6736549,-0.07116715,0.05190047,-39.50835,-37.75928,-21.57054
27.690284729,42.53294,-13.27458,-7.01324599999999,0.6703027,0.02401903,-0.03130277,-39.50835,-37.75928,-21.57054
27.700173378,49.18494,-31.57459,-17.45988,0.6696068,0.07503321,-0.07195872,-39.87821,-38.14017,-22.02778
27.710062027,47.13339,-45.63795,-23.14137,0.6789155,0.1112936,-0.05578005,-39.87821,-38.14017,-22.02778
27.719950676,37.9325,-55.17043,-25.7683,0.7122359,0.1197686,0.02693343,-39.87821,-38.14017,-22.02778
27.729839325,24.44201,-60.28973,-26.92904,0.7407039,0.106847,0.07848965,-39.87821,-38.14017,-22.02778
27.739727974,12.00838,-63.7025899999997,-28.76178,0.7710051,0.06574334,0.1345187,-39.87821,-38.14017,-22.02778
27.749615669,3.615676,-67.5861999999999,-30.89998,0.8087204,0.04766796,0.1683173,-39.91557,-38.47885,-19.88234
27.759504318,-1.419945,-71.7051699999999,-33.89346,0.90043,0.03720327,0.1646271,-39.91557,-38.47885,-19.88234
27.769392967,-3.96884,-77.2951999999999,-37.8644,1.253331,0.006440573,0.1084352,-39.91557,-38.47885,-19.88234
27.779281616,-9.12879799999998,-95.7129100000002,-36.88694,1.575104,0.0437432,-0.0246026,-39.91557,-38.47885,-19.88234
27.789170265,-12.36154,-106.1869,-27.2345,1.762892,-0.003989003,0.1302278,-39.91557,-38.47885,-19.88234
27.799058914,-16.52681,-95.4186900000001,-11.41183,1.846412,-0.05157461,0.2483889,-39.96265,-39.88034,-17.26789
27.808947563,-23.92482,-69.58684,5.87703800000003,1.723726,-0.1519943,0.2578943,-39.96265,-39.88034,-17.26789
27.821308136,-30.76332,-34.75209,17.72877,1.528919,-0.213231,0.2401882,-39.96265,-39.88034,-17.26789
27.831196785,-38.53434,-19.92379,14.24656,1.255625,-0.2637743,0.178094,-39.96265,-39.88034,-17.26789
27.841085434,-42.76177,-20.218,3.738839,0.9557785,-0.4006834,0.1337193,-39.96265,-39.88034,-17.26789
27.850974083,-39.90204,-25.33729,-6.46342299999997,0.7388486,-0.4566965,0.03901425,-40.36457,-41.36319,-15.9582
27.860862732,-30.26597,-26.51414,-15.74932,0.6916303,-0.4125246,-0.04205739,-40.36457,-41.36319,-15.9582
27.870751381,-8.88012499999997,-20.74758,-21.98064,0.7370507,-0.3875125,-0.121965,-40.36457,-41.36319,-15.9582
27.880639553,20.83626,-17.09935,-25.27957,0.7894422,-0.3138623,-0.2049961,-40.36457,-41.36319,-15.9582
27.890528202,54.15839,-21.80675,-25.7683,0.814783,-0.1668337,-0.2369701,-40.36457,-41.36319,-15.9582
27.900416851,82.9422500000002,-34.57556,-26.99013,0.7842679,0.01637209,-0.2018615,-41.49477,-40.96855,-15.98925
27.9103055,98.0491100000001,-46.4029,-28.51742,0.7851292,0.1473619,-0.1698198,-41.49477,-40.96855,-15.98925
27.920194149,97.3652599999998,-54.9939,-30.71671,0.8292702,0.3026353,-0.1364089,-41.49477,-40.96855,-15.98925
27.930082798,82.1340599999998,-57.8183400000001,-31.93854,0.910927,0.467886,-0.1472505,-41.49477,-40.96855,-15.98925
27.939971447,59.0696799999998,-55.99422,-34.56546,1.020352,0.5464282,-0.1234769,-41.49477,-40.96855,-15.98925
27.949860096,35.1971,-46.4029,-35.60402,1.114547,0.5395666,-0.1464193,-41.18723,-42.41472,-12.06828
27.959748745,13.25174,-35.10514,-28.45633,1.192999,0.4698837,-0.1714668,-41.18723,-42.41472,-12.06828
27.969637394,-4.279681,-24.5135,-18.43734,1.179861,0.422837,-0.2255881,-41.18723,-42.41472,-12.06828
27.979526043,-19.13787,-18.68809,-9.51799300000002,1.107322,0.3417512,-0.2517115,-41.18723,-42.41472,-12.06828
27.989414692,-28.83611,-14.92217,-5.058321,0.9725728,0.2304536,-0.2873713,-41.18723,-42.41472,-12.06828
27.999303341,-33.87173,-18.68809,-5.85250900000001,0.828437,0.09333938,-0.2921325,-40.46526,-43.46471,-10.28507
28.00919199,-34.80425,-28.04405,-9.76235899999999,0.736908,-0.01171325,-0.3277748,-40.46526,-43.46471,-10.28507
28.019080639,-27.65491,-37.8119,-14.28312,0.7221254,-0.08642467,-0.3432844,-40.46526,-43.46471,-10.28507
28.028969288,-13.60491,-44.10804,-20.51444,0.8005893,-0.1487243,-0.3630791,-40.46526,-43.46471,-10.28507
28.038856983,12.81656,-45.63795,-24.91302,0.9143412,-0.2325751,-0.3538694,-40.46526,-43.46471,-10.28507
28.05121851,54.22056,-42.63698,-28.33414,1.033818,-0.1929729,-0.327483,-40.47508,-44.59054,-9.815186
28.061106682,83.1287500000002,-38.2238,-30.59452,1.081079,-0.1130823,-0.2869548,-40.47508,-44.59054,-9.815186
28.070995331,106.0688,-34.04598,-32.30508,1.085004,-0.02677183,-0.1811029,-40.47508,-44.59054,-9.815186
28.08088398,116.6374,-31.39807,-32.61054,1.055036,0.07102637,-0.09314167,-40.47508,-44.59054,-9.815186
28.090772152,117.1969,-29.98585,-31.26653,1.050342,0.1501464,-0.04593565,-40.47508,-44.59054,-9.815186
28.100660801,109.115,-28.33826,-30.47234,1.035018,0.206591,-0.05104751,-40.15908,-45.667,-6.353495
28.11054945,94.9407,-25.57266,-28.76178,1.022235,0.261309,-0.1061636,-40.15908,-45.667,-6.353495
28.120438099,78.4661399999998,-21.51253,-25.70721,1.004054,0.2860605,-0.1794093,-40.15908,-45.667,-6.353495
28.130326748,64.5404699999997,-17.80546,-23.32465,0.9891808,0.2854912,-0.2520424,-40.15908,-45.667,-6.353495
28.140215397,56.02344,-15.62828,-19.65916,0.967399,0.2747044,-0.2924101,-39.16812,-47.05193,-1.963714
28.150104046,53.53671,-14.92217,-17.70424,0.9484227,0.2536376,-0.3033864,-39.16812,-47.05193,-1.963714
28.159992218,55.96127,-14.45143,-17.15442,0.9095334,0.2416486,-0.2961562,-39.16812,-47.05193,-1.963714
28.169880867,61.6807400000002,-14.09838,-17.15442,0.8725241,0.2076496,-0.2950646,-39.16812,-47.05193,-1.963714
28.179769516,68.45706,-17.92314,-19.23153,0.8670145,0.1813671,-0.2622354,-39.16812,-47.05193,-1.963714
28.189658165,74.4252100000001,-20.92411,-20.94208,0.8784696,0.1566917,-0.217372,-38.08443,-48.53302,0.6773546
28.199546814,79.0256500000002,-22.98359,-21.24754,0.9172315,0.1550555,-0.19135,-38.08443,-48.53302,0.6773546
28.209435463,82.4448999999998,-23.21896,-21.43081,0.9510468,0.1166922,-0.1795755,-38.08443,-48.53302,0.6773546
28.219324112,83.4395900000003,-21.68906,-20.20899,0.9776252,0.08354142,-0.178416,-38.08443,-48.53302,0.6773546
28.229212761,83.1909199999999,-19.57073,-18.55952,1.000381,0.06245695,-0.1850164,-38.08443,-48.53302,0.6773546
28.23910141,81.6367200000003,-17.27587,-15.8715,0.9965418,0.06169,-0.2042538,-37.38831,-48.48201,4.066861
28.248990059,80.3311800000001,-15.9225,-14.28312,1.00332,0.06277992,-0.195595,-37.38831,-48.48201,4.066861
28.261350632,79.5229900000003,-13.74532,-12.57256,0.9762014,0.07040184,-0.2105729,-37.38831,-48.48201,4.066861
28.271239281,79.7095,-13.68648,-12.69475,0.9516184,0.1086822,-0.2266647,-37.38831,-48.48201,4.066861
28.28112793,79.3364900000002,-14.62796,-12.51147,0.9230825,0.1439284,-0.2182187,-37.38831,-48.48201,4.066861
28.291016579,77.4092800000002,-16.27555,-13.55002,0.9265456,0.1604276,-0.2216645,-36.709,-49.10741,8.37403
28.300905228,74.4252100000001,-16.92282,-12.63365,0.9295294,0.1863451,-0.2140974,-36.709,-49.10741,8.37403
