Time (s),Gyroscope X (deg/s),Gyroscope Y (deg/s),Gyroscope Z (deg/s),Accelerometer X (g),Accelerometer Y (g),Accelerometer Z (g),Magnetometer X (uT),Magnetometer Y (uT),Magnetometer Z (uT)
15.615147591,8.551796,7.68964099999998,-0.05361458,1.054747,0.1219704,0.566162,-47.79068,-35.3158,11.18782
15.625007152,8.30333200000001,16.67549,0.1915974,1.044649,0.1188646,0.5404029,-47.79068,-35.3158,11.18782
15.634867191,6.62620199999998,24.53067,-0.05361458,1.040971,0.1358499,0.5367652,-47.79068,-35.3158,11.18782
15.647191524,4.203681,35.30179,-1.095766,1.049409,0.1447464,0.553492,-47.79068,-35.3158,11.18782
15.657051086,1.967508,44.76371,-2.137917,1.054211,0.13367,0.5729772,-48.53416,-34.92743,12.02009
15.666910648,0.04191487,53.80907,-2.934855,1.059603,0.1162798,0.5943176,-48.53416,-34.92743,12.02009
15.676770687,-1.014056,62.9139300000002,-3.731794,1.069436,0.1158923,0.5975286,-48.53416,-34.92743,12.02009
15.686629772,-1.510983,71.3047,-4.590036,1.07243,0.1164232,0.6022824,-48.53416,-34.92743,12.02009
15.696489811,-3.001765,79.4574100000001,-5.08046,1.087896,0.1282259,0.5988072,-48.53416,-34.92743,12.02009
15.706349373,-4.927359,87.8481799999999,-5.570884,1.099883,0.1502351,0.6002597,-48.17039,-35.32306,10.35758
15.716208935,-6.41814000000001,96.2389399999999,-6.06130799999997,1.111873,0.1571102,0.588646,-48.17039,-35.32306,10.35758
15.726068497,-7.22564700000002,103.261,-6.00000499999998,1.125404,0.1742721,0.5914732,-48.17039,-35.32306,10.35758
15.735928535,-9.02700799999998,110.283,-6.85824700000003,1.152775,0.1886667,0.6022261,-48.17039,-35.32306,10.35758
15.74578762,-10.70414,117.4836,-8.08430800000001,1.170081,0.1795946,0.6076533,-48.17039,-35.32306,10.35758
15.755647659,-11.20107,124.0891,-8.697337,1.184724,0.164092,0.5915002,-48.20322,-35.01461,6.064879
15.765507698,-9.33758799999999,129.5044,-8.02300500000002,1.198351,0.1671227,0.5889356,-48.20322,-35.01461,6.064879
15.775366783,-8.09526999999998,134.7412,-8.08430800000001,1.216481,0.1677796,0.5915579,-48.20322,-35.01461,6.064879
15.785226822,-6.04544500000002,139.1449,-7.65518600000002,1.233599,0.1767184,0.5990565,-48.20322,-35.01461,6.064879
15.795085907,-5.300054,143.5485,-8.02300500000002,1.242593,0.1729441,0.609439,-48.20322,-35.01461,6.064879
15.804945946,-3.809272,147.6546,-7.53257999999997,1.231519,0.1641071,0.6147934,-47.86509,-34.71581,1.386169
15.814805031,-1.448867,150.8681,-7.28736799999999,1.218878,0.1626872,0.6552143,-47.86509,-34.71581,1.386169
15.827129841,0.2903785,156.9976,-8.51342899999998,1.215421,0.1496005,0.6771963,-47.86509,-34.71581,1.386169
15.83698988,3.147711,162.3534,-8.75863999999999,1.191177,0.1421219,0.6865835,-47.86509,-34.71581,1.386169
15.846848965,6.00504300000001,166.6975,-8.75863999999999,1.168975,0.1439612,0.7103963,-47.86509,-34.71581,1.386169
15.856709003,8.42756399999998,171.1012,-9.06515500000003,1.172582,0.1582024,0.7363418,-47.90512,-34.79332,-4.183032
15.866569042,8.92449099999999,176.0404,-9.61688199999998,1.176988,0.1743539,0.7507913,-47.90512,-34.79332,-4.183032
15.876428127,8.61391200000001,181.0987,-10.47512,1.185839,0.192509,0.7699863,-47.90512,-34.79332,-4.183032
15.886288166,6.37773799999999,185.7999,-11.21076,1.191519,0.2144771,0.775362,-47.90512,-34.79332,-4.183032
15.896147251,4.390029,189.4894,-12.069,1.192341,0.231529,0.7788486,-47.90512,-34.79332,-4.183032
15.90600729,1.594813,191.5127,-12.86594,1.198488,0.2477714,0.8134004,-46.44978,-34.88721,-9.695947
15.915866375,-3.99562,193.8931,-14.45982,1.211177,0.2561756,0.8185616,-46.44978,-34.88721,-9.695947
15.925726414,-9.15124000000001,195.9164,-15.07285,1.21033,0.2725336,0.7707918,-46.44978,-34.88721,-9.695947
15.935586452,-14.0584,195.1428,-14.27591,1.192427,0.2835235,0.7591597,-46.44978,-34.88721,-9.695947
15.945445538,-19.40037,193.7146,-13.35637,1.180493,0.282876,0.7444692,-46.44978,-34.88721,-9.695947
15.955305576,-24.80445,191.3937,-12.92724,1.150697,0.2909243,0.755025,-42.7677,-35.03728,-17.39692
15.965165138,-32.19624,189.787,-13.72418,1.10912,0.2793281,0.7454565,-42.7677,-35.03728,-17.39692
15.9750247,-39.58804,189.1919,-15.37936,1.059989,0.239288,0.6950237,-42.7677,-35.03728,-17.39692
15.984884262,-41.7621,187.8827,-14.76633,0.9930776,0.2055256,0.6736493,-42.7677,-35.03728,-17.39692
15.997208595,-40.64401,186.633,-15.01155,0.9210829,0.1521362,0.6210336,-42.7677,-35.03728,-17.39692
16.007068634,-34.68088,183.9551,-15.31806,0.8560658,0.09822096,0.541479,-38.70591,-35.1801,-24.26765
16.016927719,-24.92868,178.1827,-14.33721,0.7893729,0.04046265,0.4791669,-38.70591,-35.1801,-24.26765
16.026787758,-12.62973,170.2085,-13.60158,0.7449946,-0.004320945,0.4501903,-38.70591,-35.1801,-24.26765
16.036647797,-0.641360199999998,162.6509,-13.90809,0.6891971,-0.04974025,0.4084327,-38.70591,-35.1801,-24.26765
16.046506882,16.19205,153.9031,-12.31421,0.6266984,-0.1064074,0.3676341,-38.70591,-35.1801,-24.26765
16.05636692,34.08144,146.524,-9.67818499999998,0.5700151,-0.1343681,0.3121397,-33.21275,-33.91574,-30.26404
16.066226482,52.34352,137.5381,-5.019157,0.4859307,-0.05445718,0.2795101,-33.21275,-33.91574,-30.26404
16.076086044,62.2199500000002,127.8977,-3.609189,0.4229333,0.05823084,0.2435022,-33.21275,-33.91574,-30.26404
16.085945606,63.8970800000001,117.4241,-3.731794,0.3780884,0.1526767,0.2310417,-33.21275,-33.91574,-30.26404
16.095805645,59.9837799999997,107.1886,-5.448278,0.3521391,0.194293,0.2303251,-33.21275,-33.91574,-30.26404
16.105665207,53.15102,97.9646899999998,-7.47127699999998,0.3356782,0.2101709,0.2211097,-26.87701,-33.65126,-32.47711
16.115524769,46.13192,90.58559,-9.739489,0.2983477,0.1814811,0.1849805,-26.87701,-33.65126,-32.47711
16.125384808,43.02613,80.70711,-10.65903,0.2440186,0.1497454,0.1552974,-26.87701,-33.65126,-32.47711
16.135243893,39.36129,69.45992,-10.78164,0.207942,0.1270015,0.1445981,-26.87701,-33.65126,-32.47711
16.145103931,33.89509,58.8078199999999,-10.84294,0.1939823,0.09813514,0.1359279,-26.87701,-33.65126,-32.47711
16.154963017,28.18042,48.15572,-9.43297400000002,0.1544881,0.08366271,0.1330142,-23.13478,-35.111,-32.86606
16.164823055,23.0248,36.84902,-7.59388300000003,0.1338455,0.06894153,0.1489978,-23.13478,-35.111,-32.86606
16.177147388,14.57704,23.93558,-5.08046,0.1247233,0.05670272,0.1509413,-23.13478,-35.111,-32.86606
16.18700695,10.41527,13.4025,-2.873553,0.1092808,0.06101845,0.1703658,-23.13478,-35.111,-32.86606
16.196866989,6.874665,3.047944,-1.58619,0.1075998,0.083403,0.1744122,-20.14093,-35.88183,-32.87397
16.206726551,1.905392,-6.89004799999999,-0.6666446,0.119196,0.1235004,0.1990245,-20.14093,-35.88183,-32.87397
16.216586113,-4.678895,-14.68572,-0.3601296,0.1267329,0.1358279,0.2244187,-20.14093,-35.88183,-32.87397
16.226446152,-10.02086,-22.77893,0.743324399999998,0.1223057,0.1318761,0.2191773,-20.14093,-35.88183,-32.87397
16.236305237,-15.67341,-32.5384,1.47896,0.10934,0.09618764,0.2056433,-20.14093,-35.88183,-32.87397
16.246165276,-17.66112,-44.20215,3.011535,0.1102438,0.06457549,0.2082388,-20.14093,-35.88183,-32.87397
16.256024361,-16.91573,-56.99657,5.279747,0.134029,0.06305243,0.2649117,-19.38624,-36.62052,-32.4222
16.265884399,-18.03382,-67.4701499999999,6.19929100000001,0.177935,0.07686035,0.3396368,-19.38624,-36.62052,-32.4222
16.275743485,-19.08979,-74.2541700000001,6.62841199999998,0.2404375,0.1069465,0.4290894,-19.38624,-36.62052,-32.4222
16.285603523,-22.63039,-77.28912,7.118836,0.2799637,0.1347453,0.4819517,-19.38624,-36.62052,-32.4222
16.295463562,-26.5437,-79.6099600000003,6.99623000000001,0.2950821,0.1363311,0.4798329,-19.38624,-36.62052,-32.4222
16.305322647,-28.53141,-85.0847900000002,7.73186600000001,0.2788523,0.1239577,0.4627086,-19.76398,-35.87991,-32.4278
16.315182686,-28.84199,-95.0822900000001,8.40619900000001,0.2809066,0.09812687,0.4471269,-19.76398,-35.87991,-32.4278
16.325042248,-26.60581,-108.5908,9.14183399999998,0.3117877,0.07951187,0.4709689,-19.76398,-35.87991,-32.4278
16.33490181,-24.05906,-121.8018,8.40619900000001,0.3863062,0.06486369,0.5411838,-19.76398,-35.87991,-32.4278
16.344761372,-22.2577,-130.7876,7.24144199999999,0.4738786,0.07518807,0.6219659,-19.76398,-35.87991,-32.4278
16.357085705,-19.89729,-135.5484,5.279747,0.5409731,0.09253809,0.6781809,-22.74984,-35.46565,-31.58395
16.366945744,-16.35669,-137.8692,4.666717,0.5441146,0.09541713,0.6599509,-22.74984,-35.46565,-31.58395
16.376805782,-9.46182000000001,-141.8563,5.95407899999997,0.5528833,0.08083785,0.6443684,-22.74984,-35.46565,-31.58395
16.386664867,-2.566953,-147.5097,7.793169,0.5976553,0.08423442,0.6658021,-22.74984,-35.46565,-31.58395
16.396524906,2.215972,-150.9017,10.06138,0.6669382,0.08639763,0.6897513,-26.84413,-35.07574,-29.00529
16.406383991,7.55793999999999,-152.9845,12.39089,0.7154931,0.1255674,0.7689369,-26.84413,-35.07574,-29.00529
16.41624403,7.99275200000001,-150.3661,12.69741,0.750407,0.1474087,0.8012092,-26.84413,-35.07574,-29.00529
16.426103592,9.35930300000001,-145.8434,13.18783,0.7516045,0.1591973,0.8276477,-26.84413,-35.07574,-29.00529
16.435963154,12.77568,-140.4281,13.24914,0.7683484,0.1491237,0.8268448,-26.84413,-35.07574,-29.00529
16.445822716,16.56475,-136.0244,12.75871,0.7815881,0.1193327,0.766984,-32.04626,-36.01118,-25.57483
16.455682755,26.19271,-135.0128,13.98477,0.8171645,0.08689947,0.7283464,-32.04626,-36.01118,-25.57483
16.465542317,36.56607,-136.5005,14.84301,0.8885416,0.0543199,0.6959062,-32.04626,-36.01118,-25.57483
16.475401878,49.36195,-140.2496,17.84686,0.9576651,0.04130263,0.6948112,-32.04626,-36.01118,-25.57483
16.48526144,62.9653400000002,-146.141,22.26068,1.01369,0.1088922,0.8086326,-32.04626,-36.01118,-25.57483
16.495121002,66.0711400000002,-147.4501,24.34498,1.055139,0.2042918,0.8467037,-32.04626,-36.01118,-25.57483
16.504981041,65.2636300000002,-146.498,25.81625,1.042943,0.3757785,0.928351,-37.61417,-35.50078,-19.98042
16.514840126,50.29369,-140.6661,22.99631,1.032271,0.524836,0.994453,-37.61417,-35.50078,-19.98042
16.527164936,23.70808,-128.7048,17.60165,1.018617,0.5515794,1.021229,-37.61417,-35.50078,-19.98042
16.537024498,4.82484,-119.5405,14.04607,1.008722,0.4864441,1.063469,-37.61417,-35.50078,-19.98042
16.546884537,-10.76625,-108.7693,8.95792600000003,0.9964212,0.3474415,1.007843,-40.49692,-35.75226,-14.00824
16.556744099,-15.17648,-100.2596,6.87362400000002,0.9715286,0.2246916,0.9041339,-40.49692,-35.75226,-14.00824
16.56660366,-9.83451600000002,-96.1534499999999,8.03838099999998,0.9579291,0.1351174,0.7967103,-40.49692,-35.75226,-14.00824
16.576463222,0.1661467,-95.8558999999999,11.04223,0.9829728,0.1015427,0.7380868,-40.49692,-35.75226,-14.00824
16.586323261,11.03643,-97.0460800000001,13.37174,1.000968,0.1608837,0.8183575,-40.49692,-35.75226,-14.00824
16.596182346,9.60776600000003,-93.4755500000003,11.71656,1.033872,0.2647148,0.9189174,-43.08864,-35.67483,-10.60198
16.606042385,-1.510983,-84.2516600000002,9.81616800000001,0.9736378,0.2776987,0.8901751,-43.08864,-35.67483,-10.60198
16.615902424,-12.5055,-76.5750099999998,10.3679,0.8989575,0.2675364,0.8221491,-43.08864,-35.67483,-10.60198
16.625761509,-19.02767,-70.4455899999999,10.4905,0.8774645,0.227538,0.7176523,-43.08864,-35.67483,-10.60198
16.635621548,-16.91573,-67.9462100000002,11.53265,0.870725,0.1726919,0.641572,-43.08864,-35.67483,-10.60198
16.645480633,-10.57991,-67.3511300000001,11.77786,0.8900258,0.1537483,0.6051971,-44.5567,-35.9776,-7.13374
16.655340671,-4.927359,-67.3511300000001,11.59396,0.9057471,0.1698824,0.5883372,-44.5567,-35.9776,-7.13374
16.665199757,-1.014056,-66.75603,11.83917,0.9035234,0.195665,0.5914617,-44.5567,-35.9776,-7.13374
16.675059795,-1.262519,-65.9229100000003,10.85832,0.9147484,0.2230978,0.6135764,-44.5567,-35.9776,-7.13374
16.68491888,-4.927359,-63.0664799999998,9.632258,0.9135727,0.2215682,0.5977666,-44.5567,-35.9776,-7.13374
16.694778919,-7.59834299999997,-60.2695599999998,8.467502,0.9064025,0.2057926,0.5603582,-45.28575,-35.93333,-4.569324
16.707103729,-9.21335600000002,-58.0677300000002,8.03838099999998,0.8982524,0.1670612,0.5026435,-45.28575,-35.93333,-4.569324
16.716963768,-7.59834299999997,-57.05608,8.34489499999999,0.8968983,0.1332577,0.4453528,-45.28575,-35.93333,-4.569324
16.726822853,-2.442722,-56.93706,9.632258,0.8874593,0.1217699,0.3888448,-45.28575,-35.93333,-4.569324
16.736682892,3.706754,-58.6033100000001,10.73571,0.8753425,0.146323,0.3470552,-45.28575,-35.93333,-4.569324
16.746541977,8.241216,-60.3885800000002,10.3679,0.8828103,0.1720307,0.3073922,-46.39377,-35.52283,-2.454845
16.756402016,11.16066,-63.8400999999999,10.4292,0.8872805,0.1953886,0.2969832,-46.39377,-35.52283,-2.454845
16.766261101,11.40913,-66.9940700000001,9.38704699999999,0.9171896,0.2070369,0.3479295,-46.39377,-35.52283,-2.454845
16.776121139,9.23507000000002,-66.2799700000002,8.467502,0.9602024,0.1949844,0.4061563,-46.39377,-35.52283,-2.454845
16.785981178,7.930636,-63.42353,6.87362400000002,0.968913,0.168318,0.4115576,-46.39377,-35.52283,-2.454845
16.795840263,8.42756399999998,-60.7456299999998,5.89277599999998,0.9517914,0.1310612,0.3789015,-47.49856,-35.1061,0.1077318
16.805700302,12.0924,-59.4959400000003,5.402352,0.9404348,0.1026144,0.3462378,-47.49856,-35.1061,0.1077318
16.815559387,16.81321,-59.0793800000001,5.034534,0.9471337,0.09921475,0.3322168,-47.49856,-35.1061,0.1077318
16.825419426,20.54017,-58.0082200000003,4.666717,0.9615018,0.1008569,0.3468811,-47.49856,-35.1061,0.1077318
16.835278988,23.21115,-56.87755,4.789322,0.978466,0.1068223,0.3404601,-47.49856,-35.1061,0.1077318
16.84513855,25.01251,-55.62786,5.586261,0.9835061,0.1233725,0.3299855,-47.47693,-35.06422,3.116381
16.854998589,23.83231,-55.27081,6.62841199999998,0.9874469,0.1501322,0.3196128,-47.47693,-35.06422,3.116381
16.86485815,20.78863,-54.79474,7.118836,0.9929835,0.171571,0.3139644,-47.47693,-35.06422,3.116381
16.877182484,15.94359,-54.4972,7.54795700000002,0.996173,0.1935046,0.3160208,-47.47693,-35.06422,3.116381
16.887042522,10.9122,-53.96162,8.16098699999997,1.005284,0.1946462,0.3393814,-47.47693,-35.06422,3.116381
16.896901607,5.445999,-52.11684,8.77401600000001,1.007379,0.1829855,0.3392532,-47.83226,-35.02427,5.678865
16.906761646,1.346349,-50.03403,9.57095500000001,0.998303,0.1877126,0.3236088,-47.83226,-35.02427,5.678865
16.916621208,-2.939649,-49.14139,10.4292,0.9808458,0.2045532,0.3139366,-47.83226,-35.02427,5.678865
16.92648077,-7.53622700000002,-48.07023,10.06138,0.9629652,0.2087143,0.2979338,-47.83226,-35.02427,5.678865
16.936340332,-10.82837,-47.1776,9.264441,0.9598907,0.1891195,0.2704978,-47.83226,-35.02427,5.678865
16.946199894,-12.44338,-46.76104,9.50965299999998,0.9627737,0.1720427,0.2516239,-47.81829,-35.36925,7.346994
16.956059933,-13.25089,-46.88005,10.5518,0.9707095,0.1545669,0.2441753,-47.81829,-35.36925,7.346994
16.965919495,-12.81608,-46.70153,11.53265,0.9732552,0.1389938,0.237778,-47.81829,-35.36925,7.346994
16.975779057,-11.82222,-46.64202,12.14568,0.9682572,0.1281791,0.2205067,-47.81829,-35.36925,7.346994
16.985638618,-9.52393499999999,-46.99907,13.24914,0.9642755,0.1168958,0.2056131,-47.81829,-35.36925,7.346994
16.995498657,-7.10141600000002,-48.07023,14.10738,0.9658442,0.1237728,0.2190663,-48.18481,-34.97897,8.625431
17.005357742,-5.113706,-48.5463,14.41389,0.9783324,0.111261,0.2269291,-48.18481,-34.97897,8.625431
17.015217781,-2.691185,-49.2009,14.5978,0.9946386,0.09631538,0.2256122,-48.18481,-34.97897,8.625431
17.02507782,0.663074000000001,-49.43893,14.29129,0.9961072,0.09730516,0.226558,-48.18481,-34.97897,8.625431
17.034936905,4.390029,-49.14139,13.37174,1.001475,0.1022313,0.2298775,-48.18481,-34.97897,8.625431
17.044796944,6.874665,-48.42728,12.63611,0.9932615,0.1254866,0.2220444,-48.1744,-34.58677,10.35003
17.057121277,8.17909999999999,-47.41563,11.96177,0.9976076,0.1318564,0.2234738,-48.1744,-34.58677,10.35003
17.066980839,8.676027,-45.8684,11.28744,1.015274,0.1281225,0.224149,-48.1744,-34.58677,10.35003
17.076840878,9.60776600000003,-44.02362,10.30659,1.023021,0.1320747,0.2216759,-48.1744,-34.58677,10.35003
17.086699963,10.47739,-41.28621,9.38704699999999,1.036292,0.1540448,0.2096922,-48.1744,-34.58677,10.35003
17.096560001,9.794114,-38.60831,8.22229000000003,1.036378,0.184204,0.2065911,-48.91081,-33.87469,12.39543
17.106419086,8.42756399999998,-36.04943,6.3832,1.040344,0.2060886,0.1937809,-48.91081,-33.87469,12.39543
17.116279125,5.259652,-33.78809,4.911928,1.032197,0.2176457,0.1805769,-48.91081,-33.87469,12.39543
17.126139164,0.911537699999999,-32.5384,3.134141,1.028175,0.2185565,0.1734539,-48.91081,-33.87469,12.39543
17.135998249,-3.68504,-31.11018,0.1915974,1.029732,0.1912542,0.1559502,-48.91081,-33.87469,12.39543
17.145858288,-5.548518,-30.27706,-2.444432,1.019574,0.1459263,0.1605044,-48.52266,-34.22309,14.12564
17.155717373,-5.237938,-30.75313,-4.344824,0.9945431,0.1009001,0.1508972,-48.52266,-34.22309,14.12564
17.165577412,-3.933504,-31.70527,-5.448278,0.9682685,0.06178353,0.1629215,-48.52266,-34.22309,14.12564
17.175436497,-2.442722,-32.24085,-5.69349,0.9453456,0.06111135,0.1675553,-48.52266,-34.22309,14.12564
17.185296536,-1.573099,-32.65742,-4.896551,0.9398407,0.07323403,0.1691737,-48.52266,-34.22309,14.12564
17.195156574,-1.324635,-32.24085,-4.46743,0.95346,0.08407413,0.1729047,-47.76922,-34.22015,14.95395
17.205015659,-2.629069,-31.70527,-3.731794,0.9658938,0.1041228,0.1695423,-47.76922,-34.22015,14.95395
17.214875698,-4.865242,-30.63411,-3.302674,0.9628163,0.1172383,0.1706552,-47.76922,-34.22015,14.95395
17.227200508,-7.90892299999997,-29.8605,-3.180068,0.9548698,0.1059057,0.1519841,-47.76922,-34.22015,14.95395
17.237059593,-9.58605199999997,-28.72983,-1.708796,0.948971,0.09901036,0.1438635,-47.76922,-34.22015,14.95395
17.246919632,-10.26933,-27.12309,0.4368094,0.937372,0.1085761,0.1268584,-47.75679,-34.19609,16.68233
17.256778717,-10.45567,-25.15929,1.662869,0.9255316,0.1351609,0.1071251,-47.75679,-34.19609,16.68233
17.266638756,-12.1328,-23.1955,3.011535,0.915067,0.1485505,0.06905133,-47.75679,-34.19609,16.68233
17.276498795,-14.24475,-22.77893,4.421504,0.9124708,0.1732503,0.04389922,-47.75679,-34.19609,16.68233
17.28635788,-17.66112,-22.30286,4.360201,0.9107171,0.1775498,0.02670931,-47.75679,-34.19609,16.68233
17.296217918,-20.39422,-22.12433,4.298898,0.8842517,0.162655,0.01018882,-46.6356,-34.20904,16.67653
17.306077004,-22.69251,-22.83844,2.70502,0.8647028,0.1294228,0.01833338,-46.6356,-34.20904,16.67653
17.315937042,-21.76077,-21.46974,1.724172,0.8578651,0.05005464,0.02111541,-46.6356,-34.20904,16.67653
17.325796604,-15.30072,-20.51759,2.398505,0.857899,-0.004970164,0.01106656,-46.6356,-34.20904,16.67653
17.335656166,-4.803127,-20.39858,4.911928,0.8548502,-0.003075672,0.004417212,-46.6356,-34.20904,16.67653
17.345516205,2.650783,-19.863,5.402352,0.8651772,0.06866488,0.03554424,-46.63117,-34.51048,17.06376
17.355375767,5.75657900000002,-17.48264,4.666717,0.8859864,0.09905682,0.04556733,-46.63117,-34.51048,17.06376
17.365235329,4.452145,-15.75688,6.13798800000002,0.9079599,0.1401163,0.04272547,-46.63117,-34.51048,17.06376
17.375094891,0.3524944,-14.26916,5.77016999999999,0.9165297,0.1708853,0.052447,-46.63117,-34.51048,17.06376
17.384954929,-2.442722,-11.17469,2.459808,0.9117873,0.1440322,0.03982878,-46.63117,-34.51048,17.06376
17.394814015,-1.076172,-8.25875400000001,0.007688423,0.8812388,0.09341379,-0.02054215,-46.25267,-34.19554,17.95488
17.407138348,4.203681,-7.30661099999998,-2.137917,0.7992187,0.08953284,-0.08313943,-46.25267,-34.19554,17.95488
17.416998386,4.762724,-8.85384299999998,-2.934855,0.8025248,0.1147821,-0.1054958,-46.25267,-34.19554,17.95488
17.426857948,5.632347,-9.15138699999998,-2.750947,0.8264115,0.1276645,-0.1004564,-46.25267,-34.19554,17.95488
17.43671751,4.327913,-10.69862,-0.727947499999999,0.904905,0.157715,-0.05819355,-46.25267,-34.19554,17.95488
17.446577549,-0.703476100000001,-8.08022700000001,-1.647493,0.9582349,0.180295,-0.002217534,-45.12672,-34.57129,18.33694
17.456437111,-2.442722,-3.200494,-4.590036,0.9355952,0.146369,-0.04195473,-45.12672,-34.57129,18.33694
17.466296673,-2.504838,-1.950806,-6.18391400000002,0.8907758,0.1200122,-0.08706232,-45.12672,-34.57129,18.33694
17.476156235,-1.324635,-2.188842,-8.14561100000001,0.8471208,0.1093404,-0.1047398,-45.12672,-34.57129,18.33694
17.486016274,1.160001,-2.069824,-9.49427599999999,0.8379841,0.09172697,-0.1085918,-45.12672,-34.57129,18.33694
17.495875359,6.00504300000001,-1.355717,-9.18776100000002,0.8450937,0.07135649,-0.1074274,-45.12178,-35.98787,17.96731
17.505735397,11.47124,-0.2845563,-7.226065,0.8641734,0.07933747,-0.100444,-45.12178,-35.98787,17.96731
17.515595436,12.71356,1.084149,-5.203066,0.8910261,0.1214131,-0.1033469,-45.12178,-35.98787,17.96731
17.525454521,13.21049,2.571872,-3.118764,0.918848,0.1268777,-0.139158,-45.12178,-35.98787,17.96731
17.53531456,15.01185,3.524015,-0.973159599999999,0.9259456,0.1239449,-0.1594103,-45.12178,-35.98787,17.96731
17.545173645,14.8255,3.643033,0.5594154,0.9219173,0.1292479,-0.1631417,-43.99863,-35.25294,18.78615
17.555033684,15.38455,2.928926,1.417657,0.9102744,0.1233131,-0.1611091,-43.99863,-35.25294,18.78615
17.564892769,16.12994,2.393346,1.846778,0.9157667,0.1287629,-0.148203,-43.99863,-35.25294,18.78615
17.577217579,17.06167,3.524015,3.624565,0.9558336,0.116411,-0.1627751,-43.99863,-35.25294,18.78615
17.587077618,18.24188,1.322185,6.93492700000001,0.9989203,0.1518203,-0.1650071,-43.99863,-35.25294,18.78615
17.596937179,13.45895,-0.641609900000002,8.28359300000002,1.054699,0.1762407,-0.1430736,-43.99461,-35.98923,18.79369
17.606796741,5.259652,-0.1655384,8.03838099999998,1.062288,0.1666126,-0.1331999,-43.99461,-35.98923,18.79369
17.61665678,-0.827707900000002,0.727095499999998,8.83531999999998,1.018021,0.1394368,-0.1385487,-43.99461,-35.98923,18.79369
17.626515865,-5.300054,1.143658,8.71271399999999,0.9398498,0.1207076,-0.1471766,-43.99461,-35.98923,18.79369
17.636375904,-9.77240000000001,1.02464,7.60926000000002,0.8724405,0.09865588,-0.1588612,-43.99461,-35.98923,18.79369
17.646234989,-12.00857,2.512363,6.13798800000002,0.8395346,0.04231754,-0.1818692,-43.99139,-35.983,19.24179
17.656095028,-12.00857,3.226471,7.36404799999998,0.8367215,-0.01577265,-0.2240097,-43.99139,-35.983,19.24179
17.665955067,-9.46182000000001,2.750399,11.41005,0.9289077,-0.06078905,-0.2482259,-43.99139,-35.983,19.24179
17.675814152,-0.889823900000002,2.452855,16.5595,1.014367,-0.06544384,-0.2638591,-43.99139,-35.983,19.24179
17.68567419,4.141565,-1.058172,19.99247,1.043087,-0.0251939,-0.2390104,-43.99139,-35.983,19.24179
17.695533276,1.967508,-4.807235,21.34113,1.06849,0.02370878,-0.234647,-43.25037,-36.0041,18.34173
17.705393314,-2.194258,-6.830539,21.77025,1.05427,0.09737854,-0.2798257,-43.25037,-36.0041,18.34173
17.715252876,-6.91506799999999,-9.270405,20.78941,1.002615,0.1763694,-0.374742,-43.25037,-36.0041,18.34173
17.725112438,-11.69799,-14.20965,18.52119,0.9402993,0.2777522,-0.4424821,-43.25037,-36.0041,18.34173
17.734972477,-17.35054,-21.41023,12.94262,0.9002487,0.3090145,-0.4459603,-43.25037,-36.0041,18.34173
17.744832039,-24.55599,-27.71818,5.95407899999997,0.8764631,0.2054032,-0.379887,-43.99783,-35.99547,18.34559
17.757156372,-25.17715,-29.8605,0.804627399999999,0.8586074,0.01891486,-0.2388841,-43.99783,-35.99547,18.34559
17.767016411,-21.20173,-26.94456,1.662869,0.8572303,-0.06911855,-0.09440995,-43.99783,-35.99547,18.34559
17.776875496,-14.36898,-19.38692,3.747171,0.8522621,-0.05426649,-0.0151459,-43.99783,-35.99547,18.34559
17.786735535,-4.119852,-8.79433299999997,6.07668500000002,0.8784618,0.07119233,-0.1002372,-43.99783,-35.99547,18.34559
17.79659462,6.439854,-3.617057,8.16098699999997,0.8591419,0.3603155,-0.2939936,-42.87463,-36.37656,18.34357
17.806454658,-8.71642900000001,-14.5667,7.24144199999999,0.8791577,0.6164253,-0.4306061,-42.87463,-36.37656,18.34357
17.816314697,-48.53273,-38.60831,-4.46743,1.087542,0.8212654,-0.5396672,-42.87463,-36.37656,18.34357
17.826173782,-74.9319900000002,-51.52175,-31.13423,1.511224,0.5004343,-0.2834161,-42.87463,-36.37656,18.34357
17.836033821,-79.9633799999998,-44.91626,-41.37183,1.501983,0.1929639,0.2752633,-42.87463,-36.37656,18.34357
17.845893383,-85.1189999999998,-25.69487,-50.62859,1.464807,-0.3644697,0.6822419,-42.12518,-36.75335,18.34348
17.855752945,-25.30138,12.39085,-37.63235,1.359836,-0.814459,0.4456118,-42.12518,-36.75335,18.34348
17.865612507,33.39816,26.7325,-12.68203,1.103498,-0.7058422,0.0404664,-42.12518,-36.75335,18.34348
17.875472546,46.75309,24.7092,11.90047,1.038621,-0.306853,-0.2044254,-42.12518,-36.75335,18.34348
17.885332108,22.27941,0.07249729,23.24153,1.11659,0.165224,-0.2422846,-42.12518,-36.75335,18.34348
17.895191669,-17.03996,-15.8759,28.14577,1.350647,0.4816945,0.1586195,-39.12526,-39.74464,17.52601
17.905051708,-43.68769,-13.198,24.09977,1.502499,0.723085,0.4565544,-39.12526,-39.74464,17.52601
17.914910793,-59.2787799999998,10.01049,3.869777,1.569703,0.6946559,0.3729344,-39.12526,-39.74464,17.52601
17.927235126,-79.09376,29.64844,-11.88509,1.171278,0.473346,-0.08664066,-39.12526,-39.74464,17.52601
17.937095165,-79.2179899999998,26.97054,-18.99624,0.9426196,0.2117972,-0.25858,-39.12526,-39.74464,17.52601
17.946954727,-61.4528399999999,23.57853,-18.32191,0.8609883,-0.03221064,-0.2527671,-38.75475,-39.75519,17.07598
17.956814289,-33.62491,23.28098,-15.07285,0.8794618,-0.2762226,-0.2249001,-38.75475,-39.75519,17.07598
17.966674328,-5.424286,19.94848,-5.141763,0.9341397,-0.3785972,-0.1441211,-38.75475,-39.75519,17.07598
17.97653389,14.88762,14.17612,6.751019,1.129822,-0.2762876,-0.0549987,-38.75475,-39.75519,17.07598
17.986393452,24.01866,8.82031100000003,8.09968399999998,1.306438,-0.0995798,0.06473365,-38.75475,-39.75519,17.07598
17.996253014,15.69513,0.727095499999998,7.67056300000001,1.594641,-0.06974971,0.2017624,-38.39219,-40.5252,14.96914
18.006113052,-1.635215,0.786604499999998,10.24529,1.797503,-0.09764153,0.2005526,-38.39219,-40.5252,14.96914
18.015972137,-14.80379,13.75955,8.83531999999998,1.440405,0.007697775,-0.06229981,-38.39219,-40.5252,14.96914
18.025832176,-31.94778,16.25893,4.482807,0.9411891,0.1171313,-0.195625,-38.39219,-40.5252,14.96914
18.035692215,-33.87337,6.85651600000003,4.053687,0.725605,0.1756677,-0.1676192,-38.39219,-40.5252,14.96914
18.0455513,-19.08979,3.226471,3.563262,0.7613382,0.187843,-0.1196266,-38.08598,-40.16689,14.51566
18.055411339,-16.04611,4.654685,3.31805,0.9211332,0.1087065,-0.05931764,-38.08598,-40.16689,14.51566
18.065270424,-12.62973,8.87982000000001,6.56710899999998,1.032338,0.1163,-0.1135504,-38.08598,-40.16689,14.51566
18.075130463,-7.47411100000001,9.47490899999998,7.91577499999999,1.051382,0.07384837,-0.1894144,-38.08598,-40.16689,14.51566
18.084989548,-7.16353100000001,5.071248,9.50965299999998,1.09322,-0.07150226,-0.1193575,-38.08598,-40.16689,14.51566
18.094849587,0.1661467,4.95223,14.6591,1.099945,-0.08509467,0.003107008,-38.39616,-40.90493,14.14073
18.107174397,12.03029,7.68964099999998,13.67826,0.9930027,0.07103202,-0.02424075,-38.39616,-40.90493,14.14073
18.117033482,10.66374,7.154061,12.82001,0.9521495,0.1735643,-0.0956315,-38.39616,-40.90493,14.14073
18.12689352,3.147711,6.97553399999999,11.10353,0.9569395,0.1924843,-0.1223753,-38.39616,-40.90493,14.14073
18.136753559,-7.59834299999997,5.011739,9.75486500000002,1.019218,0.1210904,-0.1027806,-38.39616,-40.90493,14.14073
18.146612644,-13.87205,4.535667,9.93877400000001,1.068041,0.04489722,-0.03367718,-38.78236,-39.80865,13.23515
18.156472683,-14.36898,8.46325700000001,9.75486500000002,1.030897,0.0323722,-0.04187908,-38.78236,-39.80865,13.23515
18.166331768,-13.31301,9.05834700000001,8.77401600000001,0.9666507,0.04494037,-0.04229495,-38.78236,-39.80865,13.23515
18.176191807,-10.08298,8.28473000000001,8.95792600000003,0.9640935,0.07027476,-0.02814791,-38.78236,-39.80865,13.23515
18.186051846,-6.60448799999999,9.23687400000002,8.95792600000003,0.9751655,0.0775115,-0.07089339,-38.78236,-39.80865,13.23515
18.195910931,-4.865242,8.34423899999999,9.81616800000001,0.9799087,0.06579497,-0.09214464,-39.5258,-40.53631,13.24656
18.205770969,-3.809272,5.666337,11.71656,1.004212,0.05354364,-0.04275769,-39.5258,-40.53631,13.24656
18.215630055,-3.99562,5.487811,13.37174,1.031032,0.08367459,0.01318068,-39.5258,-40.53631,13.24656
18.225490093,-4.057736,8.10620399999998,12.82001,0.9924188,0.1157824,-0.02768836,-39.5258,-40.53631,13.24656
18.235349178,-6.16967699999999,7.21356999999998,11.77786,0.9544823,0.1052545,-0.02052772,-39.5258,-40.53631,13.24656
18.245209217,-6.35602500000002,5.666337,11.22614,0.9740528,0.04174126,-0.004570685,-39.53057,-40.17351,12.8587
18.255069256,-2.194258,6.02339100000001,10.85832,0.9868169,0.0005027097,-0.001746238,-39.53057,-40.17351,12.8587
18.264928341,1.967508,5.487811,11.41005,0.9855694,0.02922265,0.003785115,-39.53057,-40.17351,12.8587
18.27478838,4.390029,5.666337,11.47135,0.9926742,0.07839694,-0.005964334,-39.53057,-40.17351,12.8587
18.28711319,2.899247,5.368793,11.04223,0.9791138,0.1273552,-0.02452586,-39.53057,-40.17351,12.8587
18.296972275,1.222117,5.130757,10.61311,0.9733799,0.126989,0.02107672,-40.65698,-39.79865,12.41263
18.306832314,-0.2065488,4.535667,10.00008,0.9792463,0.09544035,0.02887324,-40.65698,-39.79865,12.41263
18.316691399,0.4146104,3.881069,11.04223,0.9883488,0.0560567,0.01595195,-40.65698,-39.79865,12.41263
18.326551437,1.656929,4.357141,13.12653,1.013566,0.08648924,0.02639176,-40.65698,-39.79865,12.41263
18.336411476,-0.2686647,4.833212,13.24914,0.9770002,0.1180168,-0.04422173,-40.65698,-39.79865,12.41263
18.346270561,-2.877533,2.69089,13.18783,0.9676465,0.06545953,-0.02296799,-41.03825,-39.43687,11.64263
18.3561306,-2.070026,0.727095499999998,14.4752,0.9989852,0.03086359,0.02037973,-41.03825,-39.43687,11.64263
18.365989685,-0.951939799999999,-0.2845563,14.78171,0.9829893,0.02623338,-0.008662526,-41.03825,-39.43687,11.64263
18.375849724,2.464436,-2.486387,14.16868,0.9773005,-0.004878182,0.01319917,-41.03825,-39.43687,11.64263
18.385709286,7.74428800000002,-4.866744,14.10738,0.9675286,-0.01445565,0.07747034,-41.03825,-39.43687,11.64263
18.395568848,12.4651,-6.53299399999998,14.04607,0.9471587,0.008847443,0.1110221,-41.4192,-38.7025,11.18892
18.405428887,17.49649,-9.62745900000001,16.31429,0.9588559,0.1238903,0.1372238,-41.4192,-38.7025,11.18892
18.415288448,16.12994,-7.90170000000001,16.43689,1.010291,0.2492987,0.1087972,-41.4192,-38.7025,11.18892
18.42514801,8.30333200000001,-1.950806,14.5978,0.9767514,0.3348839,-0.08695351,-41.4192,-38.7025,11.18892
18.435007572,-2.00791,-0.4035742,11.96177,0.9298196,0.1352802,-0.2600017,-41.4192,-38.7025,11.18892
18.444867611,-4.865242,-5.93790500000001,15.82386,0.9997032,-0.09893516,-0.077045,-41.77897,-39.04317,12.85898
18.457191944,0.1040308,-3.319512,18.03077,1.085505,-0.1289626,0.01779777,-41.77897,-39.04317,12.85898
18.467051506,5.508115,-1.236699,16.98862,1.002376,-0.07799017,-0.07786474,-41.77897,-39.04317,12.85898
18.476911068,5.321767,-5.99741399999999,17.84686,0.9511688,-0.06277694,-0.05256734,-41.77897,-39.04317,12.85898
18.486771107,4.327913,-12.18634,21.58634,0.9795119,0.01829356,0.08811832,-42.16194,-37.94064,12.40151
18.496630669,1.905392,-13.2575,22.26068,0.9857944,0.1368319,0.1508459,-42.16194,-37.94064,12.40151
18.506490231,-5.300054,-12.42438,22.01546,0.9877107,0.1950193,0.09140973,-42.16194,-37.94064,12.40151
18.516349793,-11.88434,-10.93666,22.32198,1.018203,0.1967466,-0.03887335,-42.16194,-37.94064,12.40151
18.526209355,-11.69799,-7.90170000000001,22.13807,1.009326,0.1070323,-0.1947646,-42.16194,-37.94064,12.40151
18.536068916,-10.02086,-12.00782,20.48289,0.9459137,-0.04659449,-0.136695,-42.15997,-37.19277,13.22614
18.545928955,-5.98332900000001,-14.32866,24.46758,1.002638,-0.2311663,-0.04993001,-42.15997,-37.19277,13.22614
18.555788517,3.582522,-14.62621,28.26837,1.004966,-0.1815968,0.05683741,-42.15997,-37.19277,13.22614
18.565648079,8.36544800000002,-13.49554,27.96185,0.953922,-0.04349165,0.02279048,-42.15997,-37.19277,13.22614
18.575508118,1.967508,-18.67282,29.31052,0.9497824,0.0639018,-0.006912948,-42.15997,-37.19277,13.22614
18.585367203,-9.896631,-21.8863,29.37182,0.9709954,0.103197,0.04055709,-42.15997,-37.19277,13.22614
18.595227241,-20.58057,-21.76728,29.73964,1.002271,0.07381845,0.04800978,-42.91224,-35.70531,13.66302
18.605086327,-22.69251,-20.33907,28.69749,1.022999,0.03241786,-0.01109737,-42.91224,-35.70531,13.66302
18.614946365,-16.91573,-15.93541,27.22622,0.9994346,-0.02374211,-0.1382233,-42.91224,-35.70531,13.66302
18.624806404,-7.84680700000002,-17.2446,25.81625,0.9602039,-0.1274849,-0.2003564,-42.91224,-35.70531,13.66302
18.637130737,-2.31849,-20.75563,31.70134,0.9961147,-0.1867579,-0.130447,-43.28477,-35.32661,14.10928
18.646990299,2.40232,-17.54215,36.17646,1.038585,-0.05938473,-0.1328525,-43.28477,-35.32661,14.10928
18.656850338,5.259652,-10.99616,34.45997,1.036924,0.0259343,-0.2154895,-43.28477,-35.32661,14.10928
18.666709423,0.5388422,-8.55629800000001,32.8661,0.9969006,-0.006618246,-0.237237,-43.28477,-35.32661,14.10928
18.676569462,-4.244083,-8.31826200000003,32.62088,1.02543,-0.1127032,-0.1757638,-43.28477,-35.32661,14.10928
18.686428547,4.576376,-4.450181,34.15346,1.050559,-0.1961355,-0.1643668,-44.03192,-34.26331,14.93464
18.696288586,17.18591,0.5485688,36.05385,1.051861,-0.2239987,-0.2010397,-44.03192,-34.26331,14.93464
18.706148624,18.98727,-1.77228,41.57112,1.007677,-0.1186235,-0.1554343,-44.03192,-34.26331,14.93464
18.716007709,16.56475,-3.140985,44.51366,1.016563,0.01902249,-0.06430984,-44.03192,-34.26331,14.93464
18.725867748,14.45281,-0.939154599999998,42.36806,1.02492,0.07658306,-0.04669198,-44.03192,-34.26331,14.93464
18.735726833,6.56408599999997,2.15531,42.18415,1.031498,0.03227312,-0.06968205,-44.4057,-33.14297,15.75744
18.745586872,-0.951939799999999,0.846113400000001,44.75888,1.007254,-0.01754584,-0.06161057,-44.4057,-33.14297,15.75744
18.755445957,-1.076172,-1.77228,45.86233,1.016218,-0.07036918,-0.02480656,-44.4057,-33.14297,15.75744
18.765305996,3.644638,0.2510241,45.98494,1.034315,-0.1208499,-0.03363691,-44.4057,-33.14297,15.75744
18.775166035,8.30333200000001,-0.1655384,47.39491,1.010555,-0.1328551,-0.06454755,-44.4057,-33.14297,15.75744
18.78502512,11.84394,-1.831789,48.98878,1.015908,-0.1119567,-0.08409464,-45.16721,-30.5573,15.73491
18.794885158,11.59548,-5.045271,51.3796,1.037119,-0.0785209,-0.04194523,-45.16721,-30.5573,15.73491
18.807209969,9.04872300000001,-6.77103000000002,50.95048,1.093204,0.01469136,0.02704679,-45.16721,-30.5573,15.73491
18.817069054,4.700608,-5.164289,46.59797,1.126274,0.0204361,0.05345912,-45.16721,-30.5573,15.73491
18.826929092,5.383883,-1.474735,41.38721,1.155652,-0.04423036,-0.001654879,-45.16721,-30.5573,15.73491
18.836788177,4.886956,-1.653262,41.69373,1.159264,-0.08369292,-0.02264497,-45.91425,-29.43175,16.62365
18.846648216,4.949072,-3.676566,43.90063,1.185354,-0.04484685,0.02331416,-45.91425,-29.43175,16.62365
18.856508255,10.16681,-2.664914,43.53282,1.234836,0.04704536,0.1451011,-45.91425,-29.43175,16.62365
18.86636734,18.17976,3.404998,35.68604,1.244195,0.1312562,0.2597279,-45.91425,-29.43175,16.62365
18.876227379,22.15518,6.14240899999998,24.89671,1.117063,0.1153639,0.2149234,-45.91425,-29.43175,16.62365
18.886086464,37.4357,7.86816799999999,25.87755,1.033891,0.007027256,-0.05986604,-46.67501,-26.47259,16.98143
18.895946503,45.01384,-1.831789,33.66304,0.9619814,0.0002615222,-0.1370077,-46.67501,-26.47259,16.98143
18.905806541,51.34966,-8.43728100000002,37.34121,0.9861183,0.001986021,-0.1234404,-46.67501,-26.47259,16.98143
18.915665627,75.6369900000002,-9.865495,29.24922,1.036411,0.04998156,-0.1601713,-46.67501,-26.47259,16.98143
18.925525665,103.7755,-9.62745900000001,12.08438,1.019587,0.172625,-0.2456316,-46.67501,-26.47259,16.98143
18.935385227,120.4847,-7.60415499999998,-9.24906400000001,0.9329409,0.3064867,-0.418654,-47.04033,-25.70793,18.7042
18.945244789,124.8949,-9.15138699999998,-27.70127,0.8713225,0.4766683,-0.6976296,-47.04033,-25.70793,18.7042
18.955104351,122.9693,-20.87465,-41.55574,0.8256262,0.6084124,-0.8832335,-47.04033,-25.70793,18.7042
18.96496439,107.3782,-48.78434,-49.70904,0.76895,0.6494814,-0.6980665,-47.04033,-25.70793,18.7042
18.974823952,73.2144600000001,-71.3977400000002,-53.26461,0.9038507,0.571138,-0.2382229,-47.04033,-25.70793,18.7042
18.987148762,36.25549,-56.87755,-56.69758,1.128859,0.5117664,0.1371159,-46.66103,-22.72519,21.68075
18.997007847,16.81321,-30.33657,-68.4677700000001,1.064794,0.4647703,-0.04590102,-46.66103,-22.72519,21.68075
19.006867886,-3.68504,-22.42188,-75.14979,0.8962091,0.3479192,-0.3133153,-46.66103,-22.72519,21.68075
19.016726971,-18.22017,-27.8967,-76.3145399999998,0.8859131,0.2235942,-0.3525538,-46.66103,-22.72519,21.68075
19.026587009,-23.25155,-29.38443,-79.0118800000002,0.9978734,0.1102929,-0.2065538,-46.66103,-22.72519,21.68075
19.036446571,-22.44405,-23.9096,-81.5252999999998,1.042498,0.02302501,-0.09627285,-44.77,-22.3314,25.06005
19.046306133,-18.65498,-16.70902,-85.5099900000002,1.007229,-0.02270566,-0.1397633,-44.77,-22.3314,25.06005
19.056166172,-12.94031,-13.43603,-88.3299299999997,0.9447846,-0.03631065,-0.2463288,-44.77,-22.3314,25.06005
19.066025734,-9.77240000000001,-13.85259,-93.66329,0.9439841,-0.06179157,-0.2915772,-44.77,-22.3314,25.06005
19.075885296,-8.59219699999999,-12.84094,-95.9928100000001,0.9628381,-0.09022159,-0.261417,-44.77,-22.3314,25.06005
19.085744858,-10.51779,-13.67407,-95.8089000000003,0.9788285,-0.114128,-0.1861332,-40.63293,-26.04877,25.90869
19.095604897,-14.55532,-11.47224,-94.4602400000001,0.9821943,-0.2509006,-0.203149,-40.63293,-26.04877,25.90869
19.105463982,-11.26318,-10.63911,-87.7168999999998,0.9078497,-0.3964239,-0.2938862,-40.63293,-26.04877,25.90869
19.11532402,-12.56762,-15.81639,-77.8471200000001,0.9257699,-0.4655078,-0.3321022,-40.63293,-26.04877,25.90869
19.125184059,-21.76077,-14.86425,-69.2647000000002,0.9644088,-0.5031141,-0.3300951,-40.63293,-26.04877,25.90869
19.135043144,-35.42627,-13.2575,-58.78189,0.9507904,-0.4871014,-0.3101187,-37.3092,-27.90359,27.63885
19.144903183,-51.57641,-12.42438,-48.9121,0.9813238,-0.433558,-0.2482853,-37.3092,-27.90359,27.63885
19.154762268,-67.7265500000002,-10.10353,-39.16492,1.017784,-0.3382292,-0.2173316,-37.3092,-27.90359,27.63885
19.167087078,-97.7285299999998,-6.11643200000001,-34.87371,0.9934443,-0.1961724,-0.2986873,-37.3092,-27.90359,27.63885
19.17694664,-120.3387,-2.90295,-38.00017,0.9554055,-0.2366465,-0.3612619,-37.3092,-27.90359,27.63885
19.186806202,-129.4698,-1.236699,-41.00402,0.9728552,-0.4050573,-0.413727,-33.93158,-30.51946,27.64786
19.196666241,-118.1026,-1.891297,-42.10747,0.9811748,-0.5766509,-0.3851042,-33.93158,-30.51946,27.64786
19.206525803,-88.4111499999997,-4.628708,-41.31053,1.023664,-0.7243094,-0.4128327,-33.93158,-30.51946,27.64786
19.216385365,-53.56412,-9.74647699999998,-37.01932,1.059628,-0.8342076,-0.347664,-33.93158,-30.51946,27.64786
19.226245403,-22.19558,-12.5434,-30.64381,1.068783,-0.8321596,-0.212643,-33.93158,-30.51946,27.64786
19.236104488,5.94292600000003,-12.42438,-24.45221,1.046322,-0.7205431,-0.1112282,-31.69033,-33.15179,25.55021
19.245964527,25.38521,-10.69862,-19.91578,1.040812,-0.6122415,-0.02541736,-31.69033,-33.15179,25.55021
19.255824566,32.21796,-6.71152099999998,-14.27591,1.066151,-0.5593985,0.1213025,-31.69033,-33.15179,25.55021
19.265683651,30.54083,1.917274,-10.41382,1.065457,-0.5873204,0.3328829,-31.69033,-33.15179,25.55021
19.27554369,30.29236,15.18777,-6.490429,1.05894,-0.6952977,0.6210217,-31.69033,-33.15179,25.55021
19.285402775,33.33605,33.04045,1.785475,1.046668,-0.7752772,1.121764,-29.06251,-35.32954,25.55869
19.295262814,29.36063,62.0213000000001,9.01922900000002,1.223844,-0.8792532,1.394381,-29.06251,-35.32954,25.55869
19.305121899,42.59132,98.2622399999998,9.14183399999998,1.334522,-0.623504,0.2999907,-29.06251,-35.32954,25.55869
19.314981937,52.03294,95.1082700000002,-0.05361458,1.06414,-0.2942857,-0.5463523,-29.06251,-35.32954,25.55869
19.324841976,41.47323,59.2838899999999,7.118836,0.9426043,-0.005324838,-1.060675,-29.06251,-35.32954,25.55869
19.337166309,-71.8883099999997,-25.57585,21.27983,1.124998,0.2823187,-0.9578193,-29.06695,-35.71016,24.66626
19.347025871,-159.4096,-57.5916600000001,22.7511,1.220976,0.1857437,0.8293284,-29.06695,-35.71016,24.66626
19.35688591,-43.00441,15.54482,26.67449,1.753971,0.2358006,1.499263,-29.06695,-35.71016,24.66626
19.366744995,15.75724,79.6359399999998,-40.02317,1.265544,-0.06952649,-0.6474786,-29.06695,-35.71016,24.66626
19.376605034,40.54149,63.3900000000003,-30.5212,0.7995436,-0.4597344,-0.8295803,-29.06695,-35.71016,24.66626
19.386464119,37.18723,4.119105,15.02692,0.4964222,-0.1394349,-0.6045212,-29.83039,-34.9884,22.99822
19.396324158,28.491,-20.81514,25.50974,0.8796619,0.2637607,0.1213234,-29.83039,-34.9884,22.99822
19.406184197,40.85207,9.11785500000002,11.90047,1.244569,0.4947689,0.391695,-29.83039,-34.9884,22.99822
19.416043282,23.3975,40.0625,-8.02300500000002,1.131208,0.3321757,-0.1356601,-29.83039,-34.9884,22.99822
19.42590332,-10.70414,29.76746,0.2529004,0.9616408,0.1341039,-0.2595068,-29.83039,-34.9884,22.99822
19.435762405,-16.91573,24.53067,3.256747,1.001673,0.1326709,-0.08757766,-30.95158,-34.97544,23.00402
19.445622444,-21.885,30.54107,2.766323,1.030193,0.09661726,-0.03701406,-30.95158,-34.97544,23.00402
19.455482006,-17.22631,34.52817,1.908081,1.030049,0.02111907,-0.1857218,-30.95158,-34.97544,23.00402
19.465341568,-7.28776300000003,35.12326,4.237596,1.022522,-0.02391681,-0.2391857,-30.95158,-34.97544,23.00402
19.475201607,0.2282626,33.27848,5.463655,1.041123,-0.04566659,-0.1140841,-30.95158,-34.97544,23.00402
19.485060692,14.32858,36.49197,5.034534,1.049929,-0.07314701,-0.06652162,-30.95601,-35.35607,22.1116
19.494920731,22.40364,38.09871,4.421504,0.9975214,-0.07495838,-0.03655881,-30.95601,-35.35607,22.1116
19.504780293,24.20501,35.4208,5.89277599999998,0.9575881,0.004183488,0.0106814,-30.95601,-35.35607,22.1116
19.517104626,21.03709,33.45701,6.93492700000001,0.9450953,0.1006691,0.07636566,-30.95601,-35.35607,22.1116
19.526964665,15.81936,32.26683,5.341049,0.9207035,0.1286537,0.07024068,-30.95601,-35.35607,22.1116
19.536824703,12.21663,29.29138,3.869777,0.9209184,0.08086874,0.04395757,-32.08519,-34.98655,21.28144
19.546683788,13.14837,24.64969,5.279747,0.9361229,0.04062672,0.04723484,-32.08519,-34.98655,21.28144
19.556543827,14.32858,20.78161,6.81232100000002,0.9518865,0.07692537,0.08709007,-32.08519,-34.98655,21.28144
19.566402912,12.71356,18.7583,6.87362400000002,0.9530076,0.1022274,0.08393323,-32.08519,-34.98655,21.28144
19.576262951,11.34701,17.03254,6.50580599999999,0.9687802,0.06627105,0.06088261,-32.08519,-34.98655,21.28144
19.586122513,13.83165,14.83071,6.81232100000002,0.9805506,0.001584567,0.04195936,-32.08841,-34.99279,20.83335
19.595982075,17.5586,12.62888,7.60926000000002,0.9933318,-0.01586119,0.03108757,-32.08841,-34.99279,20.83335
19.605842113,19.67054,10.18902,9.69356200000002,1.011365,0.05444951,0.05202951,-32.08841,-34.99279,20.83335
19.615701675,17.18591,9.83196299999999,10.98092,1.018348,0.1397179,0.06510878,-32.08841,-34.99279,20.83335
19.625561237,12.83779,9.17736400000001,12.08438,1.012742,0.1840345,0.08760587,-32.08841,-34.99279,20.83335
19.635420799,7.620056,7.451605,13.92347,1.014804,0.2026346,0.1116934,-32.8403,-34.68271,20.44998
19.645280361,4.079449,6.558971,15.39474,1.002062,0.2156974,0.1215693,-32.8403,-34.68271,20.44998
19.655139923,-0.3928965,3.643033,16.80471,0.989189,0.2117703,0.1428044,-32.8403,-34.68271,20.44998
19.664999962,-5.05159,2.69089,16.25298,0.9724801,0.1590079,0.1267836,-32.8403,-34.68271,20.44998
19.674859524,-5.610633,0.608077699999999,16.25298,0.9481803,0.04960913,0.07828677,-32.8403,-34.68271,20.44998
19.687184334,2.899247,-4.033619,17.29513,0.9671269,-0.06849302,0.07222804,-33.21529,-33.93676,20.82846
19.697043419,10.78797,-6.35446700000003,17.60165,0.9769673,-0.07717834,0.06866009,-33.21529,-33.93676,20.82846
19.706903458,14.45281,-7.60415499999998,16.74341,0.9618716,-0.01702315,0.05500693,-33.21529,-33.93676,20.82846
19.716763019,11.65759,-9.80598499999999,16.5595,0.9557124,0.02762415,0.03726193,-33.21529,-33.93676,20.82846
19.726622581,5.508115,-11.05567,15.88517,0.9881292,0.04112941,0.05847786,-33.21529,-33.93676,20.82846
19.73648262,-1.138287,-10.81764,14.6591,1.02166,0.01904137,0.05829275,-33.96676,-33.19183,20.82478
19.746342182,-5.175822,-10.5796,13.55565,1.017925,0.002946134,0.05725176,-33.96676,-33.19183,20.82478
19.756201744,-5.98332900000001,-12.84094,13.43304,1.009671,0.03400157,0.05331869,-33.96676,-33.19183,20.82478
19.766061306,-13.56147,-13.49554,11.41005,1.032642,0.05546349,0.1423035,-33.96676,-33.19183,20.82478
19.775921345,-17.22631,-10.5796,9.20313699999998,1.054312,0.06323694,0.08791073,-33.96676,-33.19183,20.82478
19.78578043,-19.95941,-9.44893200000001,4.482807,1.079929,-0.03497348,0.05029763,-34.33404,-33.17504,21.7229
19.795640469,-15.85976,-6.47348499999999,2.766323,1.047469,-0.1378364,-0.05265652,-34.33404,-33.17504,21.7229
19.80550003,-11.57376,-8.199244,3.256747,0.9701051,-0.163088,-0.1155005,-34.33404,-33.17504,21.7229
19.815359592,-8.40584900000001,-14.32866,7.91577499999999,0.9316738,-0.1271576,-0.1755079,-34.33404,-33.17504,21.7229
19.825219631,-7.47411100000001,-21.05317,8.16098699999997,0.9601875,-0.06513172,-0.1825788,-34.33404,-33.17504,21.7229
19.835078716,-8.96489200000003,-22.60041,7.36404799999998,0.9751425,-0.05466933,-0.1529933,-33.59383,-32.45361,21.2634
19.844938755,-13.74782,-22.89795,7.30274499999998,1.007187,-0.04162338,-0.1236295,-33.59383,-32.45361,21.2634
19.85479784,-15.92188,-23.1955,6.81232100000002,1.023731,-0.04087779,-0.09366947,-33.59383,-32.45361,21.2634
19.86712265,-16.17034,-22.36237,5.89277599999998,0.993506,-0.00908127,-0.2372094,-33.59383,-32.45361,21.2634
19.876982689,-9.64816799999999,-26.05193,2.643717,0.9292986,0.0300277,-0.4266856,-33.59383,-32.45361,21.2634
19.886842251,-3.747156,-32.06233,-0.727947499999999,0.8973768,0.01479339,-0.5207614,-33.58859,-32.81552,21.71527
19.896701813,5.321767,-39.56045,-1.524887,0.8918772,-0.04276363,-0.5441704,-33.58859,-32.81552,21.71527
19.906561851,17.49649,-45.57085,1.417657,0.8922101,-0.1284614,-0.5592744,-33.58859,-32.81552,21.71527
19.916420937,28.8637,-49.49844,5.463655,0.8796465,-0.1599942,-0.5037743,-33.58859,-32.81552,21.71527
19.926280975,37.68416,-53.36653,9.325744,0.8753337,-0.1035911,-0.3757698,-33.58859,-32.81552,21.71527
19.936141014,45.38654,-54.43769,10.4292,0.8929022,-0.03363078,-0.3174466,-33.5806,-33.17209,22.55122
19.946000099,46.13192,-51.70028,7.057533,0.8856868,-0.02682569,-0.3024312,-33.5806,-33.17209,22.55122
19.955860138,42.21862,-48.36777,6.50580599999999,0.9085138,0.01745896,-0.09632701,-33.5806,-33.17209,22.55122
19.965719223,32.777,-40.15554,6.87362400000002,0.9916983,0.09615275,0.1892336,-33.5806,-33.17209,22.55122
19.975579262,13.6453,-23.96911,7.42535099999997,1.057781,0.1048013,0.5223668,-33.5806,-33.17209,22.55122
19.985438347,-7.03929899999998,-0.760627799999999,8.65141099999999,1.104108,0.06280059,0.761431,-32.45101,-32.42469,24.26626
19.995298386,-25.11503,26.85152,10.79702,1.124696,0.03695314,0.956912,-32.45101,-32.42469,24.26626
20.005158424,-25.98465,53.27348,11.47135,1.148736,0.07071568,0.5610355,-32.45101,-32.42469,24.26626
20.015017509,-9.71028300000003,70.3525500000002,-4.46743,0.9691987,0.2809176,-0.1860164,-32.45101,-32.42469,24.26626
20.024877548,0.4767263,65.9488899999998,-19.73188,0.7645046,0.144626,-0.7506629,-32.45101,-32.42469,24.26626
20.037202358,19.23573,30.065,-19.73188,0.8283695,-0.297991,-0.977178,-31.34028,-31.71381,23.35673
20.047061443,6.99889700000002,-11.71027,3.134141,1.151091,-0.5266301,-0.2941391,-31.34028,-31.71381,23.35673
20.056921482,-5.424286,-14.20965,26.42928,1.673165,-0.5110554,0.5491305,-31.34028,-31.71381,23.35673
20.066781521,44.01999,41.96679,6.751019,1.896518,-0.1044688,0.3519484,-31.34028,-31.71381,23.35673
20.076640606,40.54149,69.8169700000003,-23.71657,1.333822,-0.09708662,-0.1134186,-31.34028,-31.71381,23.35673
20.086500645,25.88214,58.0937100000003,-18.1993,0.7953935,-0.1999951,-0.3313577,-32.08774,-31.70518,23.36059
20.09635973,20.60228,32.7429,-8.08430800000001,0.6680028,-0.1881623,-0.1195528,-32.08774,-31.70518,23.36059
20.106219769,12.40298,26.85152,-4.773945,0.7602924,-0.03159433,0.1488048,-32.08774,-31.70518,23.36059
20.116078854,7.185245,29.94598,-11.57858,0.8861832,0.1151417,0.1817929,-32.08774,-31.70518,23.36059
20.125938892,-2.566953,31.73125,-14.95024,0.9568654,0.1519101,0.08765193,-32.08774,-31.70518,23.36059
20.135798931,-10.26933,28.87482,-12.74334,0.979867,0.1392874,0.04121442,-32.09895,-31.35485,22.07654
20.145658016,-14.24475,23.81656,-9.24906400000001,0.966426,0.1607212,0.07896443,-32.09895,-31.35485,22.07654
20.155518055,-17.53689,19.35339,-6.73564099999998,0.9280224,0.1698595,0.1409265,-32.09895,-31.35485,22.07654
20.16537714,-18.09593,15.06875,-5.08046,0.9065183,0.1722509,0.1805475,-32.09895,-31.35485,22.07654
20.175237179,-16.10822,10.60558,-3.915704,0.9336159,0.139968,0.201932,-32.09895,-31.35485,22.07654
20.185096741,-10.76625,7.51111399999998,-3.670491,0.9780428,0.09604336,0.1923025,-32.1089,-31.74616,20.41595
20.194956303,-3.188113,4.714194,-4.222218,0.9841186,0.03854322,0.1567491,-32.1089,-31.74616,20.41595
20.204816341,4.762724,0.9056224,-3.486583,0.9711797,0.002727272,0.1091905,-32.1089,-31.74616,20.41595
20.217141151,10.53951,-3.498039,-1.279675,0.9804401,-0.02809359,0.04362726,-32.1089,-31.74616,20.41595
20.227000237,11.65759,-5.461833,0.3142034,0.9947903,-0.01731544,0.02913771,-32.1089,-31.74616,20.41595
20.236860275,7.99275200000001,-6.53299399999998,1.47896,1.020292,0.01550417,0.02665522,-32.48062,-32.11,20.42166
20.24671936,3.520406,-5.87839600000002,0.4981124,1.021424,0.01737427,0.003653307,-32.48062,-32.11,20.42166
20.256579399,-0.703476100000001,-5.10478,0.0689914200000002,1.000182,-0.001911778,-0.02831307,-32.48062,-32.11,20.42166
20.266439438,-3.560808,-4.747726,-0.2988266,0.9925647,-0.03267965,-0.03996495,-32.48062,-32.11,20.42166
20.276298523,-4.554663,-4.450181,-0.2988266,0.9972751,-0.05257019,-0.03492875,-32.48062,-32.11,20.42166
20.286158562,-3.312345,-4.152637,-0.1762206,1.02969,-0.05761804,-0.03016216,-32.10012,-32.84526,20.81135
20.296017647,-0.579244300000001,-3.736075,-0.6666446,1.042161,-0.05109393,-0.006804073,-32.10012,-32.84526,20.81135
20.305877686,0.4146104,-2.248351,-0.911856500000002,1.049408,-0.01102039,0.02170361,-32.10012,-32.84526,20.81135
20.315737248,0.4146104,-0.3440652,-2.505734,1.001856,0.009877422,-0.002839862,-32.10012,-32.84526,20.81135
20.325596809,2.153856,-0.820136700000001,-2.505734,0.9706393,-0.008085111,-0.04759129,-32.10012,-32.84526,20.81135
20.335456848,3.582522,-2.248351,-1.58619,0.9845716,-0.0136203,0.0005625719,-31.72317,-32.84334,21.25751
20.34531641,3.830986,-1.474735,-0.911856500000002,1.003617,0.006068266,0.01531247,-31.72317,-32.84334,21.25751
20.355175972,3.955218,-0.641609900000002,-1.279675,0.9909434,0.0165744,-0.007899007,-31.72317,-32.84334,21.25751
20.365035534,2.961363,-0.998663500000001,-1.524887,0.9765782,0.01688602,-0.02063002,-31.72317,-32.84334,21.25751
20.374895573,1.781161,-1.17719,-1.340978,0.9766511,0.009095191,-0.02213441,-31.72317,-32.84334,21.25751
20.384755135,0.849421699999999,-1.355717,-1.157069,0.9875897,-0.001988416,-0.01902945,-32.84758,-32.83663,20.81521
20.397079945,-0.0823169599999999,-0.641609900000002,-0.973159599999999,1.012922,-0.01581653,-0.003214426,-32.84758,-32.83663,20.81521
20.40693903,-0.4550124,0.9056224,-1.279675,1.018217,-0.0118877,-0.006131927,-32.84758,-32.83663,20.81521
20.416799069,0.1661467,1.738747,-2.260523,0.9974305,-0.01457936,-0.02598476,-32.84758,-32.83663,20.81521
20.426658154,0.849421699999999,1.917274,-2.567038,0.9865792,-0.02348817,-0.04028128,-32.84758,-32.83663,20.81521
20.436518192,1.408465,1.203167,-2.505734,0.9840614,-0.02778922,-0.01344652,-32.47987,-31.7365,20.80197
20.446377754,1.160001,0.965131299999997,-2.260523,0.984149,-0.02141729,-0.001414006,-32.47987,-31.7365,20.80197
20.456237316,1.03577,0.2510241,-2.321826,0.9815373,-0.0145159,0.02839183,-32.47987,-31.7365,20.80197
20.466097355,0.1040308,-0.2250474,-2.996159,0.9785928,-0.003803581,0.03714979,-32.47987,-31.7365,20.80197
20.475956917,-1.014056,-0.939154599999998,-3.915704,0.9743413,-0.00770524,0.04484465,-32.47987,-31.7365,20.80197
20.485816479,-0.703476100000001,-1.831789,-3.8544,0.9704583,-0.005290073,0.04923317,-32.10292,-31.73458,21.24813
20.495676041,-5.610633,-3.676566,-4.46743,0.9704168,0.03353835,0.1521101,-32.10292,-31.73458,21.24813
20.50553608,-12.19492,-2.486387,-4.528733,0.9872862,0.08363508,0.1058101,-32.10292,-31.73458,21.24813
20.515395641,-17.47477,-4.5692,-5.81609599999999,0.9563292,0.1036931,0.07766867,-32.10292,-31.73458,21.24813
20.525255203,-22.63039,-6.47348499999999,-5.93870199999998,0.9650745,0.07410727,0.08304473,-32.10292,-31.73458,21.24813
20.535115242,-27.84813,-6.77103000000002,-6.85824700000003,0.9887196,0.03920969,0.06420363,-32.47786,-32.10465,20.80574
20.544974327,-27.53755,-6.17594099999999,-6.55173199999999,0.9979572,-0.01993484,-0.02795427,-32.47786,-32.10465,20.80574
20.554834366,-20.82903,-8.37777100000001,-3.363976,1.03358,-0.0354022,-0.08417964,-32.47786,-32.10465,20.80574
20.567158699,-8.84066099999998,-8.02071800000003,-0.727947499999999,1.043864,-0.01347275,-0.09995473,-32.47786,-32.10465,20.80574
20.577018261,1.594813,-8.73482500000002,0.4981124,1.016667,0.03614,-0.04164448,-32.47786,-32.10465,20.80574
20.586877823,3.147711,-7.66366400000002,0.2529004,1.037071,0.07547484,0.01829661,-32.10087,-33.21875,20.43104
20.596737862,2.09174,-2.367369,-1.831402,1.028628,0.03665992,-0.06097854,-32.10087,-33.21875,20.43104
20.606597423,4.017333,-0.1060295,-0.6666446,1.01845,-0.007614969,-0.1647142,-32.10087,-33.21875,20.43104
20.616456985,3.706754,-1.355717,-0.5440385,1.030462,-0.05731536,-0.08096574,-32.10087,-33.21875,20.43104
20.626316547,3.706754,2.393346,-0.4214326,1.048778,-0.08771642,-0.0560858,-32.10087,-33.21875,20.43104
20.636176586,3.706754,2.69089,-0.4827355,1.017305,-0.0455649,-0.03084233,-31.35266,-32.85389,20.80749
20.646036148,3.334059,4.654685,-1.095766,1.017923,-0.0003893297,-0.05347144,-31.35266,-32.85389,20.80749
20.65589571,2.40232,5.309284,-0.4214326,1.020119,0.04531916,-0.06749297,-31.35266,-32.85389,20.80749
20.665755749,0.04191487,6.85651600000003,0.1302944,1.01067,0.08362753,-0.08093178,-31.35266,-32.85389,20.80749
20.675614834,-0.951939799999999,6.97553399999999,1.356354,1.013442,0.08911282,-0.05217304,-31.35266,-32.85389,20.80749
20.685474873,0.04191487,8.522766,2.275899,1.013106,0.08342865,-0.01004667,-32.10409,-33.22499,19.98294
20.695333958,2.899247,7.92767700000003,2.827626,0.9969993,0.03279082,0.01994511,-32.10409,-33.22499,19.98294
20.705193996,7.55793999999999,7.451605,3.992383,0.9825655,-0.007793009,0.002077942,-32.10409,-33.22499,19.98294
20.715054035,14.70127,4.892721,4.789322,0.9693624,-0.03609052,0.01352809,-32.10409,-33.22499,19.98294
20.72491312,20.85075,1.738747,5.034534,0.980346,-0.02944994,0.07141072,-32.10409,-33.22499,19.98294
20.734773159,22.65211,0.370042,4.053687,0.9885983,0.01538718,0.07023391,-31.72639,-32.84958,20.80942
20.747097492,19.73266,-0.701118900000002,2.153293,0.9606978,0.01193574,-0.005590283,-31.72639,-32.84958,20.80942
20.756957054,15.26031,-2.664914,1.356354,0.9767579,-0.005874212,0.008406499,-31.72639,-32.84958,20.80942
20.766817093,11.40913,-2.724423,-0.2375236,0.9994268,-0.05187389,0.01584159,-31.72639,-32.84958,20.80942
20.776676655,7.185245,-2.486387,-1.58619,1.000738,-0.06069366,-0.003419501,-31.35065,-33.22204,20.81126
20.786536217,4.327913,-2.248351,-2.505734,0.9995179,-0.05686534,-0.01774579,-31.35065,-33.22204,20.81126
20.796396255,2.278088,-2.367369,-2.62834,1.01575,-0.03486195,-0.02785463,-31.35065,-33.22204,20.81126
20.806255341,1.160001,-2.129333,-2.321826,1.035414,0.01451464,-0.01334221,-31.35065,-33.22204,20.81126
20.816115379,0.4146104,-0.939154599999998,-2.934855,1.01906,0.04067568,-0.00570034,-31.35065,-33.22204,20.81126
20.825974464,0.1661467,-0.4035742,-3.609189,1.003984,0.04154325,0.001709839,-31.35065,-33.22204,20.81126
20.835834503,1.781161,-0.4035742,-3.8544,0.9901157,0.01709693,0.003617985,-32.47184,-33.20909,20.81705
20.845694542,4.265797,-0.3440652,-3.302674,0.9845147,-0.003872024,0.004958448,-32.47184,-33.20909,20.81705
20.855553627,5.259652,-1.296208,-2.689644,0.9927903,0.009372188,0.01357786,-32.47184,-33.20909,20.81705
20.865413666,5.259652,-1.415226,-2.934855,0.9931734,0.02985178,0.02380842,-32.47184,-33.20909,20.81705
20.875272751,3.520406,-0.879645599999998,-3.118764,0.9818006,0.0297175,0.01486459,-32.47184,-33.20909,20.81705
20.88513279,1.160001,-0.879645599999998,-3.425279,0.9766912,0.03156506,0.0005770233,-32.47063,-32.83471,21.26138
20.894992828,-1.635215,-0.701118900000002,-3.425279,0.9904754,0.02194659,-0.001617406,-32.47063,-32.83471,21.26138
20.904851913,-4.119852,1.02464,-4.099612,0.9987993,0.01895792,-0.03961802,-32.47063,-32.83471,21.26138
20.917176723,-2.939649,2.333837,-3.977006,1.011396,-0.01758136,-0.08083788,-32.47063,-32.83471,21.26138
20.927036762,-0.703476100000001,3.107453,-3.118764,1.015572,-0.0238186,-0.06705326,-31.34622,-32.84142,21.70368
20.936895847,2.029624,4.773703,-2.567038,1.013836,0.004897032,-0.06151497,-31.34622,-32.84142,21.70368
20.946755886,3.334059,6.26142599999997,-2.62834,1.014499,0.01666834,-0.0384235,-31.34622,-32.84142,21.70368
20.956614971,4.017333,7.92767700000003,-2.812249,1.008442,0.02632783,-0.04352686,-31.34622,-32.84142,21.70368
20.96647501,4.514261,9.11785500000002,-3.118764,1.010074,0.01418186,-0.04221501,-31.34622,-32.84142,21.70368
20.976335049,4.886956,9.89147200000003,-3.118764,1.011517,0.003093856,-0.01788999,-32.0969,-32.83902,21.25945
20.986194134,4.700608,10.07,-3.118764,1.004959,-0.003719088,-0.002519634,-32.0969,-32.83902,21.25945
20.996054173,3.45829,9.41540100000002,-2.934855,0.9965185,0.008512716,0.03508145,-32.0969,-32.83902,21.25945
21.005913258,0.973653600000002,8.58227499999998,-2.505734,0.9861975,0.04014275,0.05945547,-32.0969,-32.83902,21.25945
21.015773296,-2.629069,8.28473000000001,-2.996159,0.9816875,0.06350806,0.07217611,-32.0969,-32.83902,21.25945
21.025633335,-6.16967699999999,7.27307799999999,-3.425279,0.9679488,0.05995734,0.06611237,-32.4746,-33.21444,20.43297
21.03549242,-8.34373400000002,5.428301,-3.302674,0.9646775,0.03995335,0.05976058,-32.4746,-33.21444,20.43297
21.045352459,-8.654313,4.000087,-2.260523,0.9770848,0.03425359,0.06768204,-32.4746,-33.21444,20.43297
21.055211544,-7.47411100000001,2.452855,-1.647493,0.9837232,0.04694819,0.06338175,-32.4746,-33.21444,20.43297
21.065071583,-5.67275,0.846113400000001,-1.340978,0.9929233,0.04602711,0.05557567,-32.4746,-33.21444,20.43297
21.074931622,-4.492547,0.1320062,-0.850553500000001,0.9997351,0.0485184,0.05502041,-32.4746,-33.21444,20.43297
21.084790707,-1.510983,-0.1655384,-0.727947499999999,0.9998884,0.03719772,0.02042032,-31.72191,-33.58498,20.88097
21.097115517,2.464436,-1.058172,-0.1762206,0.9883559,0.004930105,0.007373983,-31.72191,-33.58498,20.88097
21.106975555,5.570231,-1.891297,0.927233400000001,0.9971067,0.008898355,0.006803553,-31.72191,-33.58498,20.88097
21.116834641,6.56408599999997,-1.831789,1.049839,0.999564,0.02552296,0.02224321,-31.72191,-33.58498,20.88097
21.126694679,5.94292600000003,-2.486387,1.049839,0.9878145,0.03957498,0.03403005,-31.73036,-33.22931,19.98101
21.136553764,2.712899,-2.90295,0.4981124,0.987978,0.03571578,0.04262074,-31.73036,-33.22931,19.98101
21.146413803,-1.448867,-3.260003,0.3142034,0.9909443,0.03086839,0.04062076,-31.73036,-33.22931,19.98101
21.156273842,-3.871388,-3.319512,0.1302944,0.9982653,0.02506988,0.03423788,-31.73036,-33.22931,19.98101
21.166132927,-5.486402,-3.43853,-0.727947499999999,0.9920081,0.001119598,0.02070736,-31.73036,-33.22931,19.98101
21.175992966,-5.237938,-3.260003,-1.034463,0.9949509,-0.02375177,-0.0006292611,-32.09886,-33.5869,20.43481
21.185852528,-2.877533,-3.43853,-0.727947499999999,1.005385,-0.006662104,-0.009738536,-32.09886,-33.5869,20.43481
21.19571209,-1.759447,-3.260003,-0.789250600000002,0.996639,0.0312234,-0.007856555,-32.09886,-33.5869,20.43481
21.205572128,-2.504838,-3.081476,-0.4214326,1.004578,0.05413606,-0.01544353,-32.09886,-33.5869,20.43481
21.215431213,-3.37446,-2.367369,-0.1149176,1.010914,0.06150926,-0.01067962,-32.09886,-33.5869,20.43481
21.225291252,-3.871388,-1.117681,0.1915974,1.015502,0.04646592,-0.01039276,-31.73438,-32.49301,19.97347
21.235150814,-2.691185,-0.3440652,0.4981124,1.011161,0.03521545,-0.01569704,-31.73438,-32.49301,19.97347
21.245010376,-1.200403,0.1320062,0.620718400000002,1.005575,0.01962114,-0.008561028,-31.73438,-32.49301,19.97347
21.254869938,1.408465,0.727095499999998,1.172445,1.003203,0.003509116,-0.01728879,-31.73438,-32.49301,19.97347
21.267195225,5.011188,0.965131299999997,1.908081,1.00042,0.0005972398,-0.008648114,-31.73438,-32.49301,19.97347
21.27705431,6.06715799999999,0.727095499999998,2.030687,0.9984397,0.0191257,0.005912467,-32.47861,-32.47814,20.42543
21.286914349,4.82484,0.667586600000001,2.153293,1.001246,0.04206156,0.01660843,-32.47861,-32.47814,20.42543
21.296773434,2.278088,1.02464,1.908081,0.9997329,0.04642971,0.01714605,-32.47861,-32.47814,20.42543
21.306633473,0.4767263,1.084149,1.785475,0.9930598,0.02786647,0.0137301,-32.47861,-32.47814,20.42543
21.316493034,-0.3307806,1.084149,1.846778,0.9917182,0.01617196,0.01269213,-32.47861,-32.47814,20.42543
21.326352596,-0.0823169599999999,0.727095499999998,1.662869,0.9893175,0.006886885,0.007855991,-31.35065,-33.22204,20.81126
21.336212635,1.408465,0.4295509,1.662869,0.9937843,0.006944191,0.01258481,-31.35065,-33.22204,20.81126
21.346072197,2.712899,-0.1060295,1.662869,0.9913946,0.009379699,0.01886901,-31.35065,-33.22204,20.81126
21.355931759,3.023479,-0.3440652,1.601566,0.9927493,0.02107792,0.02086523,-31.35065,-33.22204,20.81126
21.365791321,1.843277,-0.582100999999999,1.540263,0.9935893,0.02885878,0.01756452,-31.35065,-33.22204,20.81126
21.375650883,0.1040308,-0.5225921,1.540263,1.000868,0.02939508,0.01363172,-32.47184,-33.20909,20.81705
21.385510922,-0.827707900000002,-0.4630831,1.111142,1.005342,0.02115456,0.01158161,-32.47184,-33.20909,20.81705
21.395370483,-1.324635,-0.760627799999999,1.295051,0.9975763,0.008897089,0.00535925,-32.47184,-33.20909,20.81705
21.405230045,-1.138287,-0.641609900000002,1.172445,0.9951589,0.00595424,0.004889668,-32.47184,-33.20909,20.81705
21.415089607,-0.951939799999999,-0.939154599999998,1.111142,0.997239,0.001612677,0.01009458,-32.47184,-33.20909,20.81705
21.424949646,-0.4550124,-0.760627799999999,0.8659304,0.999202,0.01041987,0.01828732,-32.47385,-32.84094,20.81328
21.434808731,-1.262519,-0.5225921,0.4981124,1.012308,0.01783105,0.01720467,-32.47385,-32.84094,20.81328
21.447133541,-1.635215,-0.1655384,0.4368094,1.001807,0.01621037,-0.0008689184,-32.47385,-32.84094,20.81328
21.456993103,-2.070026,-0.04652058,0.743324399999998,0.9946157,0.0132579,0.007355044,-32.47385,-32.84094,20.81328
21.466853142,-1.945794,-0.4035742,0.8659304,0.9925438,0.02297224,0.007466557,-32.47385,-32.84094,20.81328
21.476712704,-1.821563,-0.1060295,0.8659304,0.9906135,0.02296245,0.009410786,-32.1069,-32.11431,20.41973
21.486572266,-1.386751,-0.2845563,1.049839,0.9922203,0.02057404,0.01751412,-32.1069,-32.11431,20.41973
21.496431828,-0.703476100000001,-0.2845563,1.295051,0.9974318,0.02106155,0.00546397,-32.1069,-32.11431,20.41973
21.506291866,0.725189899999998,-0.2250474,1.172445,0.997049,0.0181582,0.01071612,-32.1069,-32.11431,20.41973
21.516151428,1.781161,-0.5225921,1.47896,0.9994791,0.01231664,0.004402589,-32.1069,-32.11431,20.41973
21.52601099,2.40232,-0.641609900000002,1.785475,0.9947235,0.01133572,0.01356688,-31.72639,-32.84958,20.80942
21.535870552,2.526551,-0.998663500000001,1.540263,0.9845259,0.02103074,0.02769083,-31.72639,-32.84958,20.80942
21.545730114,1.408465,-1.593753,1.47896,0.9856198,0.0200959,0.03533453,-31.72639,-32.84958,20.80942
21.555590153,0.911537699999999,-2.248351,1.540263,0.9923246,0.02499781,0.02905075,-31.72639,-32.84958,20.80942
21.565449715,-0.2686647,-2.367369,1.417657,0.9968002,0.02212822,0.03183795,-31.72639,-32.84958,20.80942
21.575309276,-1.635215,-2.664914,1.295051,1.001093,0.0187182,0.0207264,-31.73036,-33.22931,19.98101
21.585169315,-2.31849,-2.843441,1.47896,0.9999575,0.0181766,0.00875802,-31.73036,-33.22931,19.98101
21.5950284,-2.070026,-2.367369,1.233748,0.995432,0.01810258,-0.000282893,-31.73036,-33.22931,19.98101
21.604888439,-1.200403,-3.021967,1.47896,0.9818285,0.009219931,-0.001122373,-31.73036,-33.22931,19.98101
21.614747524,-0.0823169599999999,-3.319512,1.540263,0.993634,0.01520117,0.008823034,-31.73036,-33.22931,19.98101
21.627072334,-0.0823169599999999,-3.140985,1.540263,1.006979,0.01731012,0.02063062,-31.72639,-32.84958,20.80942
21.636932373,-0.2065488,-2.90295,1.601566,0.9999149,0.0245114,0.01120809,-31.72639,-32.84958,20.80942
21.646791935,-0.889823900000002,-2.783932,1.417657,1.000253,0.02349613,-0.0007852828,-31.72639,-32.84958,20.80942
21.656651497,-1.386751,-2.664914,1.356354,1.002061,0.02005345,-0.01473689,-31.72639,-32.84958,20.80942
21.666511059,-1.697331,-2.248351,1.601566,1.006107,0.01377908,-0.01053472,-31.72639,-32.84958,20.80942
21.676370621,-1.386751,-1.891297,1.724172,0.9979647,0.002525744,-0.007638442,-32.47661,-32.84629,20.4292
21.686230659,-1.138287,-1.950806,1.969384,0.9935355,0.01029082,-0.002717788,-32.47661,-32.84629,20.4292
21.696090221,-0.827707900000002,-1.950806,1.724172,0.995036,0.01080146,0.0001403326,-32.47661,-32.84629,20.4292
21.705949783,-0.703476100000001,-1.712771,1.601566,0.9998553,0.01082408,-0.005199358,-32.47661,-32.84629,20.4292
21.715809822,-0.4550124,-1.712771,1.540263,1.000401,0.009379787,-0.002344125,-32.47661,-32.84629,20.4292
21.725668907,-0.5171283,-1.534244,1.540263,0.999912,0.0181636,0.005404165,-32.10012,-32.84526,20.81135
21.735528946,-0.579244300000001,-1.296208,1.47896,1.001327,0.0137676,-0.002320294,-32.10012,-32.84526,20.81135
21.745388985,-0.579244300000001,-1.77228,1.601566,0.9935955,0.01128441,0.002560936,-32.10012,-32.84526,20.81135
21.75524807,-1.014056,-2.30786,1.662869,0.9947229,0.01524134,0.01695425,-32.10012,-32.84526,20.81135
21.765108108,-1.510983,-2.426878,1.601566,0.9869561,0.01958324,0.02524797,-32.10012,-32.84526,20.81135
21.774967194,-2.132142,-2.783932,1.969384,0.9946557,0.01815153,0.01458377,-31.7304,-32.11328,20.80188
21.784827232,-2.504838,-3.379021,1.969384,0.9936029,0.02056281,0.01126472,-31.7304,-32.11328,20.80188
21.797152042,-3.560808,-3.498039,2.09199,1.00617,0.02942014,0.00780597,-31.7304,-32.11328,20.80188
21.807011127,-3.560808,-3.617057,2.214596,0.9918883,0.02047935,-0.00692112,-31.7304,-32.11328,20.80188
21.816871166,-2.691185,-4.212146,2.398505,0.9935246,0.007358357,-0.006096778,-31.7304,-32.11328,20.80188
21.826730728,-1.883678,-4.331164,2.643717,0.9908043,0.00251131,0.005401877,-32.09891,-32.47087,21.25568
21.83659029,-0.703476100000001,-4.50969,2.766323,0.9892183,0.001488104,-0.004168143,-32.09891,-32.47087,21.25568
21.846450329,-0.02020105,-5.10478,3.256747,1.000427,0.009387214,-0.0004276354,-32.09891,-32.47087,21.25568
21.856309414,0.4146104,-5.164289,3.563262,1.009166,0.01872268,0.002880988,-32.09891,-32.47087,21.25568
21.866169453,-0.0823169599999999,-5.10478,3.563262,1.00213,0.0225142,-0.007529111,-32.09891,-32.47087,21.25568
21.876029491,-0.641360199999998,-5.164289,3.501959,0.9884169,0.01457685,-0.01554705,-31.72718,-32.10704,21.24997
21.885888576,-0.4550124,-5.521342,3.685868,0.9999117,0.004981423,-0.006207868,-31.72718,-32.10704,21.24997
21.895748615,-0.765591999999998,-5.045271,3.747171,1.005336,0.0040649,-0.003896914,-31.72718,-32.10704,21.24997
21.9056077,-0.0823169599999999,-4.331164,3.501959,0.9966747,-0.001477613,-0.03400981,-31.72718,-32.10704,21.24997
21.915467739,0.911537699999999,-4.5692,3.440656,1.003107,-0.008724041,-0.03512104,-31.72718,-32.10704,21.24997
21.925327778,1.03577,-4.450181,3.563262,1.002824,-0.01013424,-0.02123212,-31.7304,-32.11328,20.80188
21.935186863,1.160001,-3.676566,3.31805,0.9987612,-0.00142326,-0.0244551,-31.7304,-32.11328,20.80188
21.945046902,1.097885,-3.43853,2.950232,0.999209,-0.007289459,-0.03265738,-31.7304,-32.11328,20.80188
21.954905987,0.5388422,-2.843441,2.459808,1.004799,-0.01450551,-0.02369317,-31.7304,-32.11328,20.80188
21.964766026,0.04191487,-1.950806,2.398505,1.009935,-0.008180916,-0.03617217,-31.7304,-32.11328,20.80188
21.977090836,-0.3307806,-1.474735,1.908081,1.003043,-0.0121598,-0.04281631,-32.47063,-32.83471,21.26138
21.986950397,-1.014056,-0.939154599999998,1.724172,1.004267,-0.01745156,-0.02946084,-32.47063,-32.83471,21.26138
21.996809959,-1.697331,0.01298836,1.47896,1.009195,-0.01886269,-0.02810538,-32.47063,-32.83471,21.26138
22.006669998,-2.070026,0.667586600000001,1.295051,1.009562,-0.01791679,-0.03624902,-32.47063,-32.83471,21.26138
22.016529083,-1.821563,0.965131299999997,1.233748,1.001781,-0.01406704,-0.02939684,-32.47063,-32.83471,21.26138
22.026389122,-1.759447,1.441203,1.111142,1.0003,-0.005783981,-0.02307624,-32.09568,-32.46464,21.70377
22.036248207,-1.448867,1.798256,0.743324399999998,0.9982433,0.001005328,-0.02442722,-32.09568,-32.46464,21.70377
22.046108246,-1.076172,1.917274,0.804627399999999,0.9977672,-0.003389323,-0.02733272,-32.09568,-32.46464,21.70377
22.055968285,-0.703476100000001,2.15531,0.8659304,1.002326,-0.007211644,-0.01928356,-32.09568,-32.46464,21.70377
22.06582737,-0.02020105,2.333837,0.620718400000002,0.994619,-0.01505834,-0.01732314,-32.09568,-32.46464,21.70377
22.075687408,1.03577,2.036292,0.804627399999999,0.9932609,-0.02041062,-0.01399456,-32.09891,-32.47087,21.25568
22.085546494,1.719045,1.976783,0.743324399999998,0.9990295,-0.009158381,-0.01158582,-32.09891,-32.47087,21.25568
22.095406532,1.594813,1.976783,0.743324399999998,1.002822,-0.002811424,-0.0149407,-32.09891,-32.47087,21.25568
22.105266571,1.284233,1.857765,0.620718400000002,0.9960482,0.003008102,-0.004252658,-32.09891,-32.47087,21.25568
22.115125656,0.2282626,2.036292,0.620718400000002,0.9964932,-0.0004177805,-0.0105175,-32.09891,-32.47087,21.25568
22.124985695,-0.3928965,1.917274,0.3755064,0.9984409,0.002526336,-0.008603621,-32.09568,-32.46464,21.70377
22.134845257,0.04191487,1.857765,0.4368094,0.9951233,-0.004796902,-0.007180543,-32.09568,-32.46464,21.70377
22.14716959,0.5388422,1.560221,0.1915974,0.9985846,-0.005732499,-0.005320975,-32.09568,-32.46464,21.70377
22.157029629,0.600958099999998,1.322185,0.4368094,0.9921563,-0.004832012,-0.00953455,-32.09568,-32.46464,21.70377
22.166889668,0.5388422,1.02464,0.4368094,0.9941967,0.003509026,0.003924347,-32.09568,-32.46464,21.70377
22.176748753,0.1661467,0.786604499999998,0.2529004,0.9957283,-0.001341987,0.004340778,-32.0969,-32.83902,21.25945
22.186608791,-0.3928965,0.786604499999998,0.3142034,0.9985551,-0.003788043,-0.005783341,-32.0969,-32.83902,21.25945
22.196467876,-0.3928965,0.370042,0.3755064,0.9942075,-0.002346625,-0.0004380196,-32.0969,-32.83902,21.25945
22.206327915,-0.4550124,0.310533,0.4981124,0.9936184,-0.008238145,-0.01293853,-32.0969,-32.83902,21.25945
22.216187954,0.1661467,-0.2845563,0.4981124,0.9947558,-0.006231233,0.0004797811,-32.0969,-32.83902,21.25945
22.226047039,-0.02020105,-0.2845563,0.2529004,0.9979857,-0.0008858753,-0.009105131,-32.10367,-32.10807,20.86782
22.235907078,0.04191487,-0.582100999999999,0.4368094,0.9990028,-0.005260185,-0.01011494,-32.10367,-32.10807,20.86782
22.245766163,0.04191487,-0.2845563,0.4981124,1.006361,0.0006693169,-0.003460982,-32.10367,-32.10807,20.86782
22.255626202,0.2282626,-0.04652058,0.3142034,0.9953833,0.002953665,-0.01718203,-32.10367,-32.10807,20.86782
22.265485764,0.4146104,-0.2845563,0.4368094,0.9974169,-0.00628339,-0.01968496,-32.10367,-32.10807,20.86782
22.275345326,0.5388422,-0.1060295,0.3142034,1.008926,-0.01050417,-0.004550241,-32.10213,-32.47711,20.80758
22.285205364,0.973653600000002,0.5485688,0.4981124,1.003395,-0.0115711,-0.0164604,-32.10213,-32.47711,20.80758
22.295064926,1.284233,0.4295509,0.3142034,0.9929572,-0.01024446,-0.02732202,-32.10213,-32.47711,20.80758
22.304924488,1.408465,0.4295509,0.1915974,1.000918,-0.006719413,-0.01446735,-32.10213,-32.47711,20.80758
22.31478405,0.787305800000002,0.786604499999998,0.1915974,1.002403,-0.003283741,-0.01014673,-32.10213,-32.47711,20.80758
22.327108383,0.663074000000001,1.02464,0.2529004,0.9964454,-0.001896082,-0.01532129,-32.09891,-32.47087,21.25568
22.336968422,0.663074000000001,1.02464,0.1302944,0.9955364,-0.007743631,-0.01535769,-32.09891,-32.47087,21.25568
22.346828461,0.849421699999999,1.02464,0.1915974,0.9995678,-0.006698905,-0.005822342,-32.09891,-32.47087,21.25568
22.356687546,0.849421699999999,1.084149,-0.05361458,0.9974408,-0.003347209,-0.01534773,-32.09891,-32.47087,21.25568
22.366547585,0.973653600000002,1.322185,-0.05361458,1.000364,-0.006742284,-0.01925164,-32.09891,-32.47087,21.25568
22.37640667,0.973653600000002,1.381694,0.007688423,0.9984646,-0.003325602,-0.01200774,-32.09167,-33.20094,21.71132
22.386266708,0.911537699999999,1.441203,-0.05361458,1.003408,-0.01156739,-0.01550215,-32.09167,-33.20094,21.71132
22.396126747,1.594813,1.560221,0.0689914200000002,0.9988242,-0.002869998,-0.02111381,-32.09167,-33.20094,21.71132
22.405985832,1.532697,1.560221,0.0689914200000002,0.9980426,-0.01063415,-0.01350101,-32.09167,-33.20094,21.71132
22.415845871,1.097885,1.798256,-0.1149176,1.000597,-0.007163876,-0.002486545,-32.09167,-33.20094,21.71132
22.425705433,1.03577,2.214819,-0.1149176,0.9921571,5.048221e-05,-0.005180561,-32.10292,-31.73458,21.24813
22.435564995,0.973653600000002,1.679239,0.007688423,0.9957296,-0.01354729,-0.006304634,-32.10292,-31.73458,21.24813
22.445425034,0.600958099999998,1.917274,-0.2375236,1.001066,-0.00325952,-0.0005434779,-32.10292,-31.73458,21.24813
22.455284596,0.4767263,1.857765,-0.5440385,0.9971513,-0.009153319,-0.005808614,-32.10292,-31.73458,21.24813
22.465144158,0.787305800000002,1.738747,-0.4214326,0.9984863,-0.006248786,-0.01299112,-32.10292,-31.73458,21.24813
22.475003719,0.663074000000001,1.61973,-0.4214326,0.9980246,-0.005268794,-0.01010107,-32.47464,-32.09841,21.25384
22.484863281,0.725189899999998,1.857765,-0.4214326,0.9986577,-0.009129263,-0.002954685,-32.47464,-32.09841,21.25384
22.494722843,0.4767263,1.441203,-0.6053416,0.9941099,0.002019583,-0.003754177,-32.47464,-32.09841,21.25384
22.507047176,0.2282626,1.560221,-0.4827355,0.9980299,0.002544311,-0.002847219,-32.47464,-32.09841,21.25384
22.516907215,-0.2065488,1.381694,-0.4214326,1.004452,0.001641966,0.0008872347,-32.47464,-32.09841,21.25384
22.526767254,-0.579244300000001,1.679239,-0.4827355,1.003286,0.006462007,-0.008639455,-31.72793,-32.48054,20.86966
22.536626339,-0.5171283,1.917274,-0.3601296,0.9925472,0.003444125,-0.009470276,-31.72793,-32.48054,20.86966
22.546486378,-0.5171283,1.262676,0.007688423,0.9942719,-0.002816492,0.003869893,-31.72793,-32.48054,20.86966
22.55634594,-0.4550124,1.381694,-0.3601296,1.001006,0.0001409589,-0.001951523,-31.72793,-32.48054,20.86966
22.566205501,0.04191487,1.441203,-0.3601296,0.9918032,-0.00528576,5.06416e-05,-31.72793,-32.48054,20.86966
22.57606554,0.663074000000001,1.02464,-0.2375236,0.9957636,-0.008167082,0.000928279,-32.4754,-32.4719,20.87352
22.585925102,0.787305800000002,0.608077699999999,-0.2375236,0.9991655,-0.005213767,0.001863115,-32.4754,-32.4719,20.87352
22.595784664,0.849421699999999,0.4295509,-0.1762206,0.9932394,-0.00430526,-0.001399152,-32.4754,-32.4719,20.87352
22.605644226,0.5388422,0.2510241,-0.1762206,0.995768,-0.009630529,-4.253257e-05,-32.4754,-32.4719,20.87352
22.615504265,0.1661467,0.07249729,-0.2988266,0.9948138,-0.002308898,0.008179247,-32.4754,-32.4719,20.87352
22.625363827,0.3524944,-0.1060295,-0.5440385,0.998311,-0.009581156,0.00710963,-32.10413,-32.10897,20.80381
22.635223389,0.725189899999998,-0.4035742,-0.5440385,1.000328,-0.01247598,0.00897325,-32.10413,-32.10897,20.80381
22.645082951,0.787305800000002,-0.3440652,-0.850553500000001,1.00256,-0.002750743,0.001835518,-32.10413,-32.10897,20.80381
22.654942512,0.04191487,-0.5225921,-0.6053416,0.9940216,-0.0004467302,-0.01239932,-32.10413,-32.10897,20.80381
22.664802551,-0.3928965,-0.5225921,-0.6053416,0.9994284,0.004490541,-0.006205123,-32.10413,-32.10897,20.80381
22.677126884,-0.765591999999998,-0.4630831,-0.4827355,1.007859,-0.005167851,-0.006406785,-32.8536,-31.73219,20.8039
22.686986923,-0.1444329,-0.04652058,-0.4214326,1.001977,-0.004734783,-0.006798504,-32.8536,-31.73219,20.8039
22.696846008,1.408465,-0.04652058,-0.5440385,0.9926511,-0.0141024,-0.01728703,-32.8536,-31.73219,20.8039
22.706706047,2.712899,-0.2250474,-0.1762206,0.9917185,-0.009703957,-0.01004863,-32.8536,-31.73219,20.8039
22.716565609,2.961363,-0.2845563,-0.1762206,1.000884,0.001082551,-0.01008823,-32.8536,-31.73219,20.8039
22.726425171,2.775015,0.2510241,-0.05361458,0.9998451,0.003985986,-0.01196571,-32.09891,-32.47087,21.25568
22.73628521,2.215972,0.370042,-0.2375236,1.000428,0.001575966,-0.007202369,-32.09891,-32.47087,21.25568
22.746144772,1.408465,0.5485688,-0.1149176,1.0005,0.00159639,-0.001932023,-32.09891,-32.47087,21.25568
22.756004333,0.911537699999999,0.370042,0.007688423,1.002488,-0.003259603,-0.003918138,-32.09891,-32.47087,21.25568
22.765863895,0.663074000000001,0.4890598,0.007688423,0.9990622,-0.0003609805,-0.001448853,-32.09891,-32.47087,21.25568
22.775723457,0.663074000000001,0.4295509,0.0689914200000002,0.9931643,0.002020258,-0.001344698,-32.4774,-32.10376,20.86975
22.785583019,0.2282626,0.07249729,0.1302944,0.9975654,0.005964622,0.001980261,-32.4774,-32.10376,20.86975
22.795443058,0.1040308,0.1915152,0.2529004,0.9975777,0.00987396,0.006325873,-32.4774,-32.10376,20.86975
22.80530262,-0.579244300000001,-0.2250474,0.4981124,0.9956525,0.008889156,0.007782599,-32.4774,-32.10376,20.86975
22.815162182,-0.4550124,-0.04652058,0.4368094,0.9897349,0.002476706,-0.001291967,-32.4774,-32.10376,20.86975
22.825022221,-0.3928965,-0.4630831,0.4981124,0.9970516,-0.001858357,-0.006704027,-32.10091,-32.10273,21.2519
22.834881306,-0.2686647,-0.760627799999999,0.804627399999999,0.9976897,-0.002299784,0.003825542,-32.10091,-32.10273,21.2519
22.844741344,0.2282626,-0.760627799999999,0.8659304,1.000085,0.003077815,0.00479519,-32.10091,-32.10273,21.2519
22.857065678,0.1040308,-0.879645599999998,0.988536299999999,0.9976789,0.003555868,0.008187907,-32.10091,-32.10273,21.2519
22.866925716,-0.2686647,-0.641609900000002,0.8659304,1.00496,-0.003230653,-0.002036322,-32.10091,-32.10273,21.2519
22.876785278,-0.2686647,-0.582100999999999,0.804627399999999,0.9897811,-0.001415921,-0.001325477,-32.10213,-32.47711,20.80758
22.88664484,-0.2686647,-0.3440652,0.5594154,0.9966022,-0.005757145,-0.007209726,-32.10213,-32.47711,20.80758
22.896504402,0.2282626,-0.2250474,0.8659304,1.000432,-0.008675599,-0.01591454,-32.10213,-32.47711,20.80758
22.906364441,0.1661467,0.1915152,0.804627399999999,1.00885,-0.01394365,-0.01320376,-32.10213,-32.47711,20.80758
22.916224003,0.600958099999998,0.1320062,0.5594154,1.007343,-0.0139677,-0.01605769,-32.10213,-32.47711,20.80758
22.926083565,0.600958099999998,0.370042,0.5594154,0.998997,-0.004773606,-0.01011075,-32.84637,-32.46224,21.25954
22.935943127,0.4146104,0.667586600000001,0.682021400000003,1.000474,-0.002805096,-0.007719191,-32.84637,-32.46224,21.25954
22.945802689,0.2282626,1.203167,0.620718400000002,1.00634,-0.009101241,-0.01360633,-32.84637,-32.46224,21.25954
22.955662727,0.1661467,0.965131299999997,0.5594154,0.9976254,-0.001829915,-0.0004823711,-32.84637,-32.46224,21.25954
22.965522289,0.2903785,0.965131299999997,0.5594154,0.9976484,-0.008170288,-0.004369804,-32.84637,-32.46224,21.25954
22.975381851,0.3524944,1.02464,0.5594154,0.9986469,-0.007667672,-0.002462995,-31.72994,-32.11239,20.86589
22.98524189,0.973653600000002,1.02464,0.4981124,0.9961435,-0.00721747,-0.006257114,-31.72994,-32.11239,20.86589
22.995100975,1.346349,1.084149,0.5594154,0.9977402,-0.007655858,0.00282122,-31.72994,-32.11239,20.86589
23.004961014,1.284233,0.9056224,0.4981124,0.9947147,-0.00331362,2.579018e-05,-31.72994,-32.11239,20.86589
23.014821053,1.03577,0.846113400000001,0.4981124,0.999552,-0.0042623,-0.004843155,-31.72994,-32.11239,20.86589
23.027145386,0.663074000000001,0.5485688,0.4981124,1.002163,-0.01102874,0.001292123,-31.72518,-32.47519,21.25374
23.037004948,0.663074000000001,0.727095499999998,0.5594154,0.9962274,-0.007681768,-0.0005118335,-31.72518,-32.47519,21.25374
23.04686451,0.600958099999998,0.5485688,0.682021400000003,0.9962564,-0.005720601,0.003337898,-31.72518,-32.47519,21.25374
23.056724072,0.663074000000001,0.370042,0.804627399999999,0.9970697,-0.002829657,-0.006233283,-31.72518,-32.47519,21.25374
23.06658411,0.787305800000002,0.370042,0.8659304,0.997171,-0.0003596315,0.003370107,-31.7284,-32.48143,20.80565
23.076443672,0.663074000000001,0.310533,0.8659304,0.9933264,0.001578242,0.01015005,-31.7284,-32.48143,20.80565
23.086303234,0.1661467,0.01298836,0.927233400000001,0.9908939,0.001560433,0.01114297,-31.7284,-32.48143,20.80565
23.096162796,0.1040308,-0.2250474,0.620718400000002,0.9952059,-0.00184401,0.001468793,-31.7284,-32.48143,20.80565
23.106022358,-0.2065488,-0.1060295,0.620718400000002,0.9932756,-0.00624786,-0.0004576612,-31.7284,-32.48143,20.80565
23.115882397,-0.3928965,-0.2845563,0.804627399999999,1.000135,-0.006672319,-7.980969e-05,-31.7284,-32.48143,20.80565
23.125741959,-0.2065488,-0.3440652,0.804627399999999,0.9912967,-0.008224389,-0.003800535,-32.84837,-32.0941,21.25577
23.135601521,-0.4550124,-0.582100999999999,0.743324399999998,0.9897515,-0.003865523,-0.005658521,-32.84837,-32.0941,21.25577
23.145461559,-0.951939799999999,-0.4035742,0.682021400000003,0.9986787,-0.008146824,-0.0005506948,-32.84837,-32.0941,21.25577
23.155320644,-1.510983,-0.3440652,0.3755064,1.007929,-0.005635861,-0.001619751,-32.84837,-32.0941,21.25577
23.165180683,-1.448867,-0.1655384,0.3142034,1.000587,-0.01009634,-0.005865533,-32.84837,-32.0941,21.25577
23.175039768,-0.951939799999999,-0.1655384,0.4981124,0.9892983,-0.01460055,-0.01245145,-32.47464,-32.09841,21.25384
23.184899807,-0.1444329,-0.2250474,0.620718400000002,0.9963264,-0.01985922,-0.003970411,-32.47464,-32.09841,21.25384
23.194759846,0.4767263,-0.2845563,0.682021400000003,1.002045,-0.002762475,-7.403735e-05,-32.47464,-32.09841,21.25384
23.207084179,0.1040308,0.01298836,0.4368094,1.0015,-0.001318185,-0.002929269,-32.47464,-32.09841,21.25384
23.216943741,-0.3307806,0.370042,0.007688423,0.9995078,-0.003298427,-0.007230388,-32.47941,-31.73561,20.86598
23.22680378,-0.2686647,0.727095499999998,0.0689914200000002,0.9994838,-0.01062866,-0.0154383,-32.47941,-31.73561,20.86598
23.236662865,0.2903785,0.5485688,0.1302944,0.999122,-0.01694364,-0.01165284,-32.47941,-31.73561,20.86598
23.246522903,0.600958099999998,0.5485688,0.1302944,1.002562,-0.01495605,-0.008809892,-32.47941,-31.73561,20.86598
23.256382465,1.097885,0.667586600000001,0.0689914200000002,1.00311,-0.0144466,-0.004021416,-32.47941,-31.73561,20.86598
23.266242027,1.160001,0.786604499999998,0.007688423,0.9992732,-0.01592406,0.000333596,-32.84837,-32.0941,21.25577
23.276102066,1.160001,0.786604499999998,-0.05361458,0.9903417,-0.01017931,-0.003803422,-32.84837,-32.0941,21.25577
23.285961151,0.725189899999998,0.727095499999998,-0.1762206,0.9995564,-0.001331689,-0.001943287,-32.84837,-32.0941,21.25577
23.29582119,0.663074000000001,0.846113400000001,-0.05361458,1.004029,-0.006155019,-0.00108934,-32.84837,-32.0941,21.25577
23.305681229,0.787305800000002,0.9056224,-0.05361458,0.9991763,-0.01106942,-0.002499251,-32.84837,-32.0941,21.25577
23.315540314,1.222117,0.965131299999997,0.007688423,0.9982936,-0.01690954,-0.0006191591,-32.84314,-32.45601,21.70764
23.325400353,1.781161,0.4890598,0.0689914200000002,0.9992465,-0.01202586,0.001804472,-32.84314,-32.45601,21.70764
23.335259438,2.029624,0.786604499999998,0.2529004,0.9985436,0.005973232,0.001966392,-32.84314,-32.45601,21.70764
23.345119476,1.905392,0.4890598,0.2529004,0.9971117,0.003529283,0.002445374,-32.84314,-32.45601,21.70764
23.354979515,1.160001,0.2510241,0.1915974,0.9997473,-0.004206598,0.009530516,-32.84314,-32.45601,21.70764
23.3648386,0.725189899999998,0.4295509,0.2529004,0.9952513,-0.006225072,0.00095197,-32.84314,-32.45601,21.70764
23.37716341,1.222117,0.01298836,0.1302944,0.9974116,-0.01786717,0.005614921,-32.84716,-31.71971,21.7001
23.387022972,1.532697,-0.4035742,0.1915974,0.9954075,-0.01057457,0.008580226,-32.84716,-31.71971,21.7001
23.396882534,0.2282626,-0.701118900000002,0.4368094,1.00721,-0.01094113,0.01272171,-32.84716,-31.71971,21.7001
23.406742573,0.1040308,-0.939154599999998,0.1915974,1.003715,-0.02417386,-0.004112127,-32.84716,-31.71971,21.7001
23.416602135,2.837131,-1.534244,0.4981124,1.000418,-0.04369683,-0.01189709,-32.47021,-31.71779,22.14626
23.426461697,4.700608,-1.831789,0.988536299999999,1.003875,-0.01680463,0.01415735,-32.47021,-31.71779,22.14626
23.436321735,4.949072,-1.534244,1.049839,0.9926774,0.00348126,0.0001121704,-32.47021,-31.71779,22.14626
23.446180821,5.197536,-2.069824,1.417657,0.9872354,0.01855126,0.008942503,-32.47021,-31.71779,22.14626
23.456040859,4.079449,-2.129333,1.295051,1.007316,0.02020048,0.01202462,-32.47021,-31.71779,22.14626
23.465900898,3.830986,-1.534244,1.233748,1.000351,0.00204212,-0.01246853,-32.84637,-32.46224,21.25954
23.475759983,4.82484,-2.069824,1.785475,0.9981613,-0.009623861,-0.003910183,-32.84637,-32.46224,21.25954
23.485620022,5.94292600000003,-1.831789,2.214596,1.002105,-0.01055701,-0.002536669,-32.84637,-32.46224,21.25954
23.495479107,6.75043299999998,-1.891297,2.153293,0.998123,-0.009146566,-0.006301607,-32.84637,-32.46224,21.25954
23.505339146,7.06101299999998,-1.593753,2.09199,0.996684,-0.007686747,-0.00291438,-32.84637,-32.46224,21.25954
23.515199185,6.129274,-1.593753,2.337202,1.004962,-0.006159407,-0.004457066,-32.47142,-32.09217,21.70193
23.52505827,5.75657900000002,-1.831789,2.582414,1.002315,-0.005750053,-0.01879187,-32.47142,-32.09217,21.70193
23.534918308,5.94292600000003,-1.712771,2.582414,1.001168,-0.009089175,0.001801867,-32.47142,-32.09217,21.70193
23.544777393,5.508115,-1.593753,2.766323,0.9963728,-0.01496373,0.003737436,-32.47142,-32.09217,21.70193
23.557102203,6.00504300000001,-1.712771,2.827626,0.9977191,-0.01742642,-0.007324125,-32.47142,-32.09217,21.70193
23.566962242,6.31562199999998,-1.950806,2.888929,0.9962535,-0.007674341,0.001404657,-32.09769,-32.09649,21.7
23.576821804,6.19139099999999,-1.831789,2.827626,0.995546,-0.001393976,-0.009074647,-32.09769,-32.09649,21.7
23.586681366,5.445999,-2.069824,2.766323,0.9931324,-0.006288708,-0.01099835,-32.09769,-32.09649,21.7
23.596541405,5.13542,-2.129333,3.011535,1.000129,-0.006674176,-0.0005589314,-32.09769,-32.09649,21.7
23.60640049,4.452145,-1.831789,2.950232,1.00116,-0.005673843,0.0042268,-32.09769,-32.09649,21.7
23.616260528,3.893102,-1.891297,2.950232,0.9981034,-0.009152136,-0.007738973,-32.47744,-30.98773,21.69062
23.626120567,4.141565,-2.30786,3.011535,0.9997593,-0.02226755,-0.005477262,-32.47744,-30.98773,21.69062
23.635979652,4.700608,-2.664914,3.379353,1.003294,-0.02220586,0.002619276,-32.47744,-30.98773,21.69062
23.645839691,5.073304,-2.605405,3.685868,0.9997124,-0.01446931,-0.002056384,-32.47744,-30.98773,21.69062
23.655698776,5.259652,-2.962458,3.624565,0.9898193,-0.01068133,-0.00667541,-32.47744,-30.98773,21.69062
23.665558815,5.383883,-3.140985,3.685868,1.000264,-0.01591174,0.001277972,-32.47543,-31.35588,21.69439
23.675418854,5.445999,-3.260003,3.808474,1.003106,-0.01737721,-0.006921283,-32.47543,-31.35588,21.69439
23.685277939,5.321767,-3.736075,4.237596,1.001699,-0.01590811,-0.001138444,-32.47543,-31.35588,21.69439
23.695137978,5.445999,-3.97411,4.54411,1.012502,-0.02214821,-0.003741068,-32.47543,-31.35588,21.69439
23.704997063,6.00504300000001,-4.152637,4.605413,1.016597,-0.02645585,0.005748205,-32.47543,-31.35588,21.69439
23.714857101,6.37773799999999,-3.736075,4.54411,1.007134,-0.02268028,-0.003189857,-32.47221,-31.34965,22.14249
23.72471714,7.55793999999999,-3.855092,4.298898,0.9957814,-0.02671462,-0.01408369,-32.47221,-31.34965,22.14249
23.737041473,8.73814300000001,-4.271655,4.482807,0.996358,-0.03352055,-0.01367014,-32.47221,-31.34965,22.14249
23.746901035,9.17295499999997,-4.331164,4.482807,0.9991261,-0.03158926,-0.02423568,-32.47221,-31.34965,22.14249
23.756761074,8.80025999999999,-4.212146,4.911928,1.006575,-0.02563377,-0.01087401,-32.47221,-31.34965,22.14249
23.766620159,7.80640399999998,-4.450181,5.15714,1.006935,-0.0207841,-0.0161094,-32.47347,-30.608,22.51903
23.776480198,6.75043299999998,-4.390673,4.911928,1.008466,-0.02172949,-0.01230561,-32.47347,-30.608,22.51903
23.786340237,6.56408599999997,-4.093128,4.666717,0.9943914,-0.0359818,-0.01653808,-32.47347,-30.608,22.51903
23.796199322,6.93678100000001,-3.97411,4.54411,0.9944448,-0.0437782,-0.01947984,-32.47347,-30.608,22.51903
23.80605936,7.80640399999998,-4.033619,4.54411,1.003762,-0.04905991,-0.0225324,-32.47347,-30.608,22.51903
23.815918446,8.241216,-4.093128,4.973231,1.016387,-0.04457993,-0.02554973,-32.84799,-29.86115,22.96152
23.825778484,8.551796,-3.736075,5.034534,1.015831,-0.02849188,-0.01630124,-32.84799,-29.86115,22.96152
23.835638523,8.17909999999999,-3.498039,4.728019,1.001579,-0.02228933,-0.01556657,-32.84799,-29.86115,22.96152
23.845497608,7.185245,-3.379021,4.482807,1.00618,-0.02854083,-0.006580109,-32.84799,-29.86115,22.96152
23.855357647,6.56408599999997,-3.319512,3.93108,1.022052,-0.04542776,-0.005511251,-32.84799,-29.86115,22.96152
23.865216732,7.55793999999999,-2.783932,3.93108,1.045174,-0.064228,-0.01270825,-33.21771,-30.59313,22.97099
23.875076771,9.42141799999999,-2.188842,3.808474,1.035967,-0.06330878,-0.005381278,-33.21771,-30.59313,22.97099
23.88493681,11.59548,-1.474735,3.747171,0.9969395,-0.05008962,-0.02148546,-33.21771,-30.59313,22.97099
23.894795895,13.08626,-1.891297,3.563262,0.985164,-0.02788028,-0.04029817,-33.21771,-30.59313,22.97099
23.907120705,7.74428800000002,-2.545896,1.662869,1.042135,-0.007514252,0.06544402,-33.21771,-30.59313,22.97099
23.916980743,4.700608,0.4890598,0.988536299999999,1.061572,-0.03911263,0.02800195,-33.22051,-29.48246,23.40778
23.926839828,6.56408599999997,0.1320062,0.988536299999999,1.008449,-0.06309852,-0.01409209,-33.22051,-29.48246,23.40778
23.936699867,6.129274,-1.653262,1.172445,0.9822571,-0.06033909,0.004993276,-33.22051,-29.48246,23.40778
23.946559906,5.321767,-3.021967,0.0689914200000002,0.9678607,-0.06283055,0.02338701,-33.22051,-29.48246,23.40778
23.956418991,4.949072,-3.736075,1.417657,0.964753,-0.04009429,-0.005128781,-33.22051,-29.48246,23.40778
23.96627903,1.594813,-4.747726,2.398505,0.9732223,-0.003142104,-0.0332104,-33.21976,-29.10896,23.78809
23.976138115,-4.119852,-6.23544999999998,4.298898,0.95826,0.02371653,-0.1022544,-33.21976,-29.10896,23.78809
23.985998154,-14.61744,-9.32991399999999,4.237596,0.9615285,0.01212018,-0.08802287,-33.21976,-29.10896,23.78809
23.995858192,-24.92868,-10.40108,4.605413,0.9936633,-0.01812509,-0.05423376,-33.21976,-29.10896,23.78809
24.005717278,-29.83584,-9.56794999999997,4.666717,1.026095,-0.09369083,-0.03856174,-33.21976,-29.10896,23.78809
24.015577316,-32.38259,-7.60415499999998,5.89277599999998,1.043416,-0.1447461,-0.06894985,-33.58947,-29.84094,23.79756
24.025436401,-32.8174,-5.759378,7.30274499999998,1.035223,-0.2098015,-0.009482171,-33.58947,-29.84094,23.79756
24.03529644,-32.13413,-3.97411,9.14183399999998,1.039625,-0.2855204,0.03150641,-33.58947,-29.84094,23.79756
24.045156479,-28.71775,-1.236699,11.41005,1.034402,-0.3498338,0.0224125,-33.58947,-29.84094,23.79756
24.055015564,-23.4379,0.5485688,13.06523,1.038098,-0.3930429,0.04020474,-33.58947,-29.84094,23.79756
24.064875603,-14.43109,2.869417,15.21083,1.055566,-0.4201332,0.04164395,-32.85001,-29.49301,22.95775
24.074734688,-5.175822,5.547319,17.60165,1.068745,-0.4244185,0.03566955,-32.85001,-29.49301,22.95775
24.087059498,3.644638,7.57062300000002,20.6055,1.063307,-0.4244825,0.03143374,-32.85001,-29.49301,22.95775
24.096919537,8.36544800000002,8.87982000000001,23.05762,1.066115,-0.3961758,0.046967,-32.85001,-29.49301,22.95775
24.106779575,10.29104,10.42705,24.95801,1.067599,-0.3717467,0.06967437,-32.85001,-29.49301,22.95775
24.11663866,9.60776600000003,11.55772,26.9197,1.054961,-0.3636715,0.04692107,-34.34613,-29.85013,22.52115
24.126498699,8.80025999999999,11.91478,29.18792,1.040921,-0.3599848,0.02510912,-34.34613,-29.85013,22.52115
24.136357784,8.11698399999998,11.61723,31.08831,1.031129,-0.3405447,0.04170552,-34.34613,-29.85013,22.52115
24.146217823,3.955218,10.66509,32.55958,1.021912,-0.3207226,0.02906578,-34.34613,-29.85013,22.52115
24.156077862,-1.821563,9.83196299999999,34.58258,1.027796,-0.3065082,0.04251947,-34.34613,-29.85013,22.52115
24.165936947,-8.71642900000001,10.07,36.23776,1.05941,-0.3318845,0.07827389,-34.72066,-29.10328,22.96363
24.175796986,-14.0584,10.90312,38.44467,1.060209,-0.3684089,0.06884947,-34.72066,-29.10328,22.96363
24.185656071,-16.10822,10.96263,41.2033,1.050396,-0.3763155,0.05981782,-34.72066,-29.10328,22.96363
24.19551611,-16.35669,10.66509,43.47152,1.057052,-0.3606866,0.05937565,-34.72066,-29.10328,22.96363
24.205376148,-17.47477,10.42705,44.88148,1.072601,-0.3503251,0.06067909,-34.72066,-29.10328,22.96363
24.215235233,-19.46248,11.14116,45.73972,1.082279,-0.3750329,0.06704141,-36.59976,-28.35788,22.06956
24.225095272,-18.77921,11.73625,47.2723,1.084586,-0.4022566,0.06869559,-36.59976,-28.35788,22.06956
24.234954357,-16.35669,12.27183,49.3566,1.081228,-0.4061738,0.07014799,-36.59976,-28.35788,22.06956
24.244814396,-13.31301,12.7479,52.54436,1.072057,-0.378174,0.03217904,-36.59976,-28.35788,22.06956
24.257139206,-13.80993,12.39085,56.09993,1.090811,-0.3488039,0.03407641,-36.59976,-28.35788,22.06956
24.266999245,-14.12051,12.98594,58.5520500000002,1.085823,-0.3220221,0.05066631,-38.41812,-27.24415,21.2354
24.27685833,-15.92188,12.62888,59.22638,1.076814,-0.3158111,0.04126313,-38.41812,-27.24415,21.2354
24.286718369,-15.17648,11.91478,59.4716,1.079606,-0.3197318,0.02729346,-38.41812,-27.24415,21.2354
24.296577454,-11.51165,11.55772,59.6555099999999,1.093886,-0.3084856,0.008016881,-38.41812,-27.24415,21.2354
24.306437492,-9.58605199999997,10.42705,60.2685399999998,1.072976,-0.2721545,0.01341351,-38.41812,-27.24415,21.2354
24.316297531,-10.76625,10.30803,60.9428700000002,1.069364,-0.2453856,0.02327488,-40.30722,-25.77404,19.50161
24.326156616,-13.6857,10.78411,60.6976500000002,1.064818,-0.2502128,0.04438372,-40.30722,-25.77404,19.50161
24.336016655,-15.92188,12.21232,59.6555099999999,1.068958,-0.2852659,0.0301321,-40.30722,-25.77404,19.50161
24.34587574,-13.87205,13.75955,59.7168100000003,1.087428,-0.3094113,0.03589468,-40.30722,-25.77404,19.50161
24.355735779,-10.82837,15.66384,58.9198699999999,1.087799,-0.3224877,0.05159263,-40.30722,-25.77404,19.50161
24.365595818,-7.28776300000003,18.22272,58.9811699999998,1.07465,-0.3543225,0.02803058,-43.68881,-23.53789,18.66419
24.375454903,-4.119852,18.69879,59.6555099999999,1.047544,-0.3355771,0.0300127,-43.68881,-23.53789,18.66419
24.385314941,-3.498692,20.00799,59.7781100000001,1.049095,-0.3360285,0.03573718,-43.68881,-23.53789,18.66419
24.395174027,-2.132142,21.3767,60.5750499999999,1.064225,-0.3567628,0.05068095,-43.68881,-23.53789,18.66419
24.405034065,-0.02020105,22.56688,61.0654800000002,1.073993,-0.3654686,0.04184265,-43.68881,-23.53789,18.66419
24.414894104,3.396174,23.57853,61.3106899999999,1.053135,-0.3554869,0.0278482,-46.33415,-20.96004,16.53886
24.424753189,4.886956,24.41165,61.5559000000002,1.052584,-0.353556,0.02499715,-46.33415,-20.96004,16.53886
24.437077999,7.99275200000001,24.64969,62.1689300000001,1.050812,-0.3603556,0.0326322,-46.33415,-20.96004,16.53886
24.446938038,11.96817,25.78036,62.4141399999998,1.06019,-0.3641554,0.03534167,-46.33415,-20.96004,16.53886
24.456797123,17.5586,26.55397,62.7819600000001,1.046335,-0.3545573,0.03226576,-46.33415,-20.96004,16.53886
24.466657162,23.08692,27.03004,62.4141399999998,1.023158,-0.3207728,0.01275482,-48.97151,-18.73876,15.24948
24.476517201,27.06234,26.49446,62.0463200000001,1.000358,-0.2582109,0.01025337,-48.97151,-18.73876,15.24948
24.486376286,27.86984,25.54232,59.9007200000001,1.000556,-0.2056964,-0.0008070478,-48.97151,-18.73876,15.24948
24.496236324,26.37906,25.60183,58.1229300000001,0.9844901,-0.1786117,-0.007058284,-48.97151,-18.73876,15.24948
24.50609541,24.5777,24.76871,55.4869,0.9772015,-0.177198,-0.00215048,-48.97151,-18.73876,15.24948
24.515955448,24.14289,24.64969,53.58651,0.9659088,-0.1927975,0.0170468,-51.2484,-14.68729,13.49122
24.525815487,24.76405,24.7092,51.74742,0.9627494,-0.1821465,0.009993723,-51.2484,-14.68729,13.49122
24.535674572,25.01251,24.64969,49.84703,0.9521713,-0.1657248,0.002136686,-51.2484,-14.68729,13.49122
24.545534611,24.45347,24.7092,47.02709,0.9328384,-0.1342316,0.0113036,-51.2484,-14.68729,13.49122
24.555393696,23.89443,24.35214,44.69757,0.9079881,-0.1285658,0.02368558,-51.2484,-14.68729,13.49122
24.565253734,23.70808,24.0546,41.93894,0.8927565,-0.1101666,0.03507954,-52.77334,-11.37987,11.80065
24.575113773,22.96269,23.69754,39.24161,0.87635,-0.07962631,0.04275911,-52.77334,-11.37987,11.80065
24.584972858,21.22344,22.7454,35.99255,0.8584117,-0.0618113,0.03453952,-52.77334,-11.37987,11.80065
24.594832897,20.47805,21.91228,33.29522,0.8427262,-0.05902957,0.03478656,-52.77334,-11.37987,11.80065
24.607157707,21.65825,20.0675,29.12661,0.8293678,-0.07871847,0.006538018,-52.77334,-11.37987,11.80065
24.617016792,24.63982,18.57978,25.50974,0.8297076,-0.09522129,0.01693629,-54.658,-9.529128,10.95928
24.626876831,29.73332,17.21107,22.26068,0.8192411,-0.1123202,0.02364995,-54.658,-9.529128,10.95928
24.63673687,33.39816,15.90187,19.19553,0.8078641,-0.09780888,0.02728897,-54.658,-9.529128,10.95928
24.646595955,35.13741,14.11661,16.19168,0.790822,-0.0565738,0.03363025,-54.658,-9.529128,10.95928
24.656455994,32.34219,12.62888,12.88132,0.79714,-0.0311415,0.05292282,-54.658,-9.529128,10.95928
24.666315079,28.8637,12.0933,9.69356200000002,0.806273,-0.02036427,0.0504876,-55.43353,-5.482454,10.08948
24.676175117,25.19886,10.78411,6.32189799999997,0.794139,-0.02337464,0.05494794,-55.43353,-5.482454,10.08948
24.686035156,23.0248,9.593927,2.888929,0.7897783,-0.03511912,0.04772297,-55.43353,-5.482454,10.08948
24.695894241,20.91286,7.451605,0.620718400000002,0.7880611,-0.04483262,0.05677027,-55.43353,-5.482454,10.08948
24.70575428,18.86304,6.32093599999998,-2.505734,0.8032584,-0.04713022,0.05701348,-55.43353,-5.482454,10.08948
24.715613365,18.55246,5.071248,-5.08046,0.8008541,-0.05446341,0.05363146,-56.94614,-3.329243,9.243035
24.725473404,17.99341,3.404998,-8.206914,0.8057262,-0.05833156,0.04873738,-56.94614,-3.329243,9.243035
24.735333443,18.30399,2.393346,-11.57858,0.8122801,-0.07970177,0.04415082,-56.94614,-3.329243,9.243035
24.745192528,20.16747,0.727095499999998,-14.21461,0.8143238,-0.08649479,0.04454356,-56.94614,-3.329243,9.243035
24.755052566,21.16133,-2.30786,-16.97324,0.8193147,-0.07617047,0.06085235,-56.94614,-3.329243,9.243035
24.764912128,20.47805,-3.379021,-19.79318,0.8368525,-0.07457062,0.05678229,-56.19312,-4.44321,9.18647
24.77477169,20.2917,-4.866744,-21.63227,0.8244858,-0.05470068,0.06431422,-56.19312,-4.44321,9.18647
24.7870965,15.57089,-5.223798,-25.43305,0.829814,-0.041486,0.07201701,-56.19312,-4.44321,9.18647
24.796956539,12.21663,-5.64036,-27.94648,0.8420761,-0.03111568,0.08343054,-56.19312,-4.44321,9.18647
24.806815624,7.80640399999998,-5.521342,-30.15339,0.8570864,-0.006125902,0.0939699,-56.19312,-4.44321,9.18647
24.816675663,3.955218,-6.47348499999999,-32.91202,0.8767856,0.01947275,0.1260115,-56.56438,-4.80615,9.256186
24.826534748,-2.691185,-7.60415499999998,-38.79711,0.894899,0.00121943,0.1466841,-56.56438,-4.80615,9.256186
24.836394787,-7.59834299999997,-6.53299399999998,-44.31438,0.9090714,-0.1136101,0.1162819,-56.56438,-4.80615,9.256186
24.846254826,-5.175822,-8.67531599999998,-45.60174,0.9054193,-0.1388228,0.1491859,-56.56438,-4.80615,9.256186
24.856113911,-4.741011,-8.85384299999998,-46.95041,0.9522816,-0.1285356,0.1864616,-56.56438,-4.80615,9.256186
24.865973949,-7.84680700000002,-6.71152099999998,-48.54428,0.968364,-0.1103456,0.1978866,-55.4255,-6.955044,10.10457
24.875833034,-13.31301,-5.402325,-51.54813,0.990248,-0.09735851,0.2355411,-55.4255,-6.955044,10.10457
24.885693073,-23.06521,-3.379021,-55.22631,1.00254,-0.09270332,0.2799707,-55.4255,-6.955044,10.10457
24.895553112,-31.82355,-0.760627799999999,-57.8010399999998,1.024348,-0.1298901,0.3037852,-55.4255,-6.955044,10.10457
24.905412197,-37.41398,1.322185,-59.5175200000003,1.021983,-0.1317063,0.3440564,-55.4255,-6.955044,10.10457
24.915272236,-42.9423,5.606828,-62.70528,1.04064,-0.169957,0.3511348,-55.03575,-8.788517,10.95367
24.925131798,-45.92386,9.71294500000002,-63.6248200000001,1.048768,-0.1942133,0.3517727,-55.03575,-8.788517,10.95367
24.93499136,-45.86174,13.52152,-64.1152499999997,1.046993,-0.1645319,0.3554029,-55.03575,-8.788517,10.95367
24.944851398,-48.96754,16.79451,-65.5865199999999,1.02935,-0.1078452,0.3312144,-55.03575,-8.788517,10.95367
24.95471096,-54.24739,18.52027,-68.40646,1.005203,-0.06102019,0.2878674,-55.03575,-8.788517,10.95367
24.967035294,-60.3347500000001,18.1037,-71.1650899999999,0.9943526,-0.03930554,0.2647245,-53.52076,-12.48726,10.98365
24.976895332,-64.8071000000002,17.09205,-74.9658800000002,1.011257,-0.05142146,0.2380254,-53.52076,-12.48726,10.98365
24.986754417,-70.2111799999999,16.49696,-77.7858200000002,1.045869,-0.05687183,0.2600084,-53.52076,-12.48726,10.98365
24.996614456,-77.04394,18.1037,-78.8892700000002,1.085953,-0.06189537,0.2531651,-53.52076,-12.48726,10.98365
25.006474495,-81.6405100000002,20.0675,-80.4831499999998,1.072954,-0.0596468,0.2346806,-53.52076,-12.48726,10.98365
25.01633358,-85.2432300000002,21.3767,-83.11918,1.021167,-0.1516033,0.230809,-51.63404,-15.82217,11.00792
25.026193619,-85.8644000000001,21.49571,-84.2226299999999,0.9856206,-0.2679354,0.1766635,-51.63404,-15.82217,11.00792
25.036052704,-84.3114899999998,19.29388,-83.6095999999999,0.9598294,-0.3462426,0.1179079,-51.63404,-15.82217,11.00792
25.045912743,-84.1872599999999,14.35464,-79.4410000000003,0.993776,-0.3605355,0.1192203,-51.63404,-15.82217,11.00792
25.055772781,-84.6220799999998,11.26018,-74.3528500000002,1.059932,-0.3351532,0.1136996,-51.63404,-15.82217,11.00792
25.065631866,-79.5285700000002,9.17736400000001,-71.71682,1.079243,-0.3466353,0.1205155,-49.7513,-19.53681,10.20379
25.075491905,-70.02483,7.630132,-68.3451499999998,1.097832,-0.3730528,0.1689059,-49.7513,-19.53681,10.20379
25.085351944,-61.5770699999997,8.998837,-67.1190899999999,1.103047,-0.4046522,0.1647313,-49.7513,-19.53681,10.20379
25.095211029,-54.99279,11.79576,-66.62867,1.068979,-0.4185759,0.1655786,-49.7513,-19.53681,10.20379
25.105071068,-50.33409,12.0933,-65.0961,1.017895,-0.391257,0.1746836,-49.7513,-19.53681,10.20379
25.11493063,-47.84945,12.03379,-61.9696400000001,1.00881,-0.3754383,0.1322978,-48.23952,-23.24179,9.785676
25.124790192,-47.04195,10.78411,-59.8853399999999,1.009838,-0.3906857,0.08663057,-48.23952,-23.24179,9.785676
25.137115002,-45.3027,8.522766,-54.73589,1.02414,-0.4436611,-0.0592178,-48.23952,-23.24179,9.785676
25.14697504,-42.50748,0.310533,-50.01556,1.007073,-0.4378558,-0.1576406,-48.23952,-23.24179,9.785676
25.156834126,-47.22829,-9.74647699999998,-45.84695,1.017583,-0.4895321,-0.07820024,-48.23952,-23.24179,9.785676
25.166694164,-51.45218,-14.20965,-41.37183,1.04901,-0.6565775,0.07041071,-45.98185,-26.58636,9.423939
25.176553249,-43.37711,-13.31701,-35.11893,1.07949,-0.8060993,0.0931536,-45.98185,-26.58636,9.423939
25.186413288,-24.43176,-11.35322,-29.78557,1.054939,-0.8506879,-0.06021662,-45.98185,-26.58636,9.423939
25.196273327,-2.256374,-18.01822,-24.51351,1.035114,-0.8424693,-0.2870052,-45.98185,-26.58636,9.423939
25.206132412,14.20434,-29.2059,-20.89663,1.000062,-0.7940979,-0.4111685,-45.98185,-26.58636,9.423939
25.215992451,23.14903,-41.94081,-16.42151,0.9825258,-0.8009851,-0.5192757,-44.84061,-29.16476,10.27672
25.225851536,32.03161,-56.5205,-10.78164,0.9380792,-0.8137003,-0.5609191,-44.84061,-29.16476,10.27672
25.235711575,25.38521,-76.8725599999999,-0.05361458,0.9067112,-0.7382671,-0.3552173,-44.84061,-29.16476,10.27672
25.245571613,4.762724,-93.77309,13.37174,0.9820561,-0.4857024,0.118331,-44.84061,-29.16476,10.27672
25.255430698,5.13542,-87.4056400000002,18.45989,1.191478,-0.2435215,0.6205495,-44.84061,-29.16476,10.27672
25.265290737,8.36544800000002,-57.4726399999998,9.01922900000002,1.294746,-0.03506672,0.5556658,-43.7027,-29.51734,12.32314
25.275150299,-20.20787,-40.69112,1.233748,1.072576,-0.05536043,0.2107622,-43.7027,-29.51734,12.32314
25.285009861,-41.26517,-46.28496,4.053687,0.925889,-0.1309861,0.1144579,-43.7027,-29.51734,12.32314
25.2948699,-45.24059,-50.80764,7.67056300000001,0.9870857,-0.09931949,0.1095402,-43.7027,-29.51734,12.32314
25.30719471,-44.49519,-49.79599,4.605413,1.071746,0.02260168,0.1108001,-43.30534,-29.84793,15.33362
25.317053795,-47.16618,-44.20215,-0.2988266,1.103016,-0.0290189,0.02653805,-43.30534,-29.84793,15.33362
25.326913834,-43.12864,-38.66782,-1.463584,1.036701,-0.1092632,-0.06376269,-43.30534,-29.84793,15.33362
25.336772919,-34.68088,-35.57335,-1.340978,0.9450365,-0.1083088,-0.1118057,-43.30534,-29.84793,15.33362
25.346632958,-27.59967,-34.02612,-3.363976,0.8790405,-0.063258,-0.1401953,-43.30534,-29.84793,15.33362
25.356492996,-23.25155,-32.12184,-6.12261100000003,0.862507,-0.06546519,-0.170647,-43.30534,-29.84793,15.33362
25.366352081,-18.3444,-29.80099,-8.57473199999998,0.841747,-0.09779601,-0.1787704,-43.30058,-30.21074,15.72148
25.37621212,-14.74167,-27.30161,-9.31036799999998,0.8101214,-0.126834,-0.1915031,-43.30058,-30.21074,15.72148
25.386071205,-14.92802,-24.80224,-9.003853,0.8193379,-0.09566265,-0.2057474,-43.30058,-30.21074,15.72148
25.395931244,-19.33825,-21.35072,-9.24906400000001,0.8774367,-0.06016262,-0.2192142,-43.30058,-30.21074,15.72148
25.405791283,-25.61196,-16.17344,-11.33337,0.9362035,-0.1039179,-0.2175459,-43.30058,-30.21074,15.72148
25.415650368,-25.42561,-9.270405,-12.49812,0.9371614,-0.1900608,-0.2230785,-41.7972,-30.58368,16.61371
25.425510407,-20.39422,-4.628708,-13.04985,0.8957276,-0.2455567,-0.2608131,-41.7972,-30.58368,16.61371
25.435369969,-14.36898,-1.950806,-13.17246,0.8796595,-0.2715543,-0.2780547,-41.7972,-30.58368,16.61371
25.44522953,-8.77854399999999,0.2510241,-13.11115,0.9131027,-0.278044,-0.2709189,-41.7972,-30.58368,16.61371
25.455089569,-4.989474,3.762051,-13.72418,0.9832081,-0.2879871,-0.2331868,-41.7972,-30.58368,16.61371
25.464948654,3.955218,9.71294500000002,-13.60158,1.041941,-0.3151522,-0.219398,-41.41348,-31.31271,17.4515
25.474808693,15.1982,15.78286,-13.54027,1.067356,-0.3221219,-0.1915462,-41.41348,-31.31271,17.4515
25.487133503,27.06234,20.7221,-12.80464,1.11157,-0.3199435,-0.1044645,-41.41348,-31.31271,17.4515
25.496993542,33.70874,26.37545,-13.54027,1.161264,-0.3036659,-0.0336347,-41.41348,-31.31271,17.4515
25.506852627,40.04457,33.93308,-14.76633,1.147241,-0.3128859,0.006260896,-40.66723,-31.69572,17.00331
25.516712666,48.86502,39.28889,-12.37552,1.121903,-0.276601,0.009803444,-40.66723,-31.69572,17.00331
25.526571751,53.39949,40.95514,-8.45212599999999,1.170717,-0.1885871,0.007454507,-40.66723,-31.69572,17.00331
25.53643179,50.85273,43.45451,-6.00000499999998,1.230096,-0.07905233,0.00944942,-40.66723,-31.69572,17.00331
25.546291828,44.57903,47.79866,-5.264369,1.234912,-0.004114037,-0.001966774,-40.66723,-31.69572,17.00331
25.556150913,34.39202,48.98884,-3.547885,1.179198,0.03140079,-0.002310581,-39.54479,-32.45031,16.62098
25.566010952,24.70193,48.27473,-2.321826,1.131711,0.02440578,0.06108231,-39.54479,-32.45031,16.62098
25.575870037,19.23573,48.51277,-2.015311,1.102031,-0.04034138,0.123734,-39.54479,-32.45031,16.62098
25.585730076,19.79478,48.6913,-2.260523,1.071264,-0.1003812,0.1466674,-39.54479,-32.45031,16.62098
25.595590114,22.71422,48.0367,-2.383129,1.03954,-0.1381003,0.1549476,-39.54479,-32.45031,16.62098
25.6054492,26.31695,45.23978,-1.892705,1.037409,-0.1717198,0.1484647,-39.54479,-32.45031,16.62098
25.615309238,31.34834,41.19317,-1.034463,1.048073,-0.1959287,0.1557756,-40.30547,-31.7232,15.33702
25.625168323,37.4357,37.74165,-2.260523,1.017574,-0.2335685,0.1822486,-40.30547,-31.7232,15.33702
25.635028362,44.0821,33.69505,-2.873553,0.961272,-0.2539619,0.1972549,-40.30547,-31.7232,15.33702
25.644888401,47.68482,28.45826,-2.321826,0.9116344,-0.252865,0.2176188,-40.30547,-31.7232,15.33702
25.654747486,49.05137,22.86442,-0.911856500000002,0.9116921,-0.2192961,0.2155053,-40.30547,-31.7232,15.33702
25.667072296,49.11349,16.31844,0.2529004,0.926681,-0.1272075,0.211756,-40.30345,-32.09135,15.34079
25.676932335,44.76537,11.31969,0.927233400000001,0.9239822,-0.04932017,0.2258694,-40.30345,-32.09135,15.34079
25.68679142,37.12512,6.91602500000001,2.030687,0.9385647,0.01167641,0.2367187,-40.30345,-32.09135,15.34079
25.696651459,28.55312,2.809908,2.766323,0.972754,0.05821068,0.2375825,-40.30345,-32.09135,15.34079
25.706511497,21.96883,0.667586600000001,3.195444,0.9954191,0.09480298,0.2097747,-41.05091,-32.08272,15.34466
25.716370583,17.12379,-2.010315,2.766323,0.9898736,0.1399783,0.2016095,-41.05091,-32.08272,15.34466
25.726230621,10.60162,-3.855092,0.804627399999999,0.9769261,0.1681176,0.2096987,-41.05091,-32.08272,15.34466
25.736089706,3.644638,-4.450181,-1.463584,0.9850365,0.1578798,0.1855367,-41.05091,-32.08272,15.34466
25.745949745,-1.697331,-4.688217,-1.463584,0.9821508,0.1339448,0.1681246,-41.05091,-32.08272,15.34466
25.755809784,-6.35602500000002,-5.283307,-1.340978,0.9726896,0.09147443,0.1544835,-41.05293,-31.71457,15.34089
25.765668869,-12.00857,-6.05692300000003,-1.157069,0.9587975,0.04700413,0.137055,-41.05293,-31.71457,15.34089
25.775529385,-17.53689,-6.830539,-1.402281,0.9609274,-0.001616659,0.1428439,-41.05293,-31.71457,15.34089
25.785388946,-22.19558,-6.71152099999998,-1.892705,0.9789067,-0.03992553,0.1360348,-41.05293,-31.71457,15.34089
25.795248032,-26.23312,-6.53299399999998,-2.996159,0.9968426,-0.1108227,0.133264,-41.05293,-31.71457,15.34089
25.80510807,-27.22697,-6.05692300000003,-2.137917,1.007157,-0.1984656,0.09499979,-41.4259,-31.33676,15.72313
25.814967155,-20.58057,-6.23544999999998,-1.218372,0.9939687,-0.265464,0.03759759,-41.4259,-31.33676,15.72313
25.824827194,-11.3253,-8.13973500000002,0.4368094,0.9770809,-0.2899603,0.03331875,-41.4259,-31.33676,15.72313
25.837152004,1.222117,-9.15138699999998,1.417657,0.9853554,-0.2601167,0.05645426,-41.4259,-31.33676,15.72313
25.847012043,8.36544800000002,-9.32991399999999,1.049839,0.9917297,-0.2064864,0.06879601,-41.4259,-31.33676,15.72313
25.856871128,11.47124,-8.37777100000001,0.4981124,1.00278,-0.1440862,0.07299872,-41.04815,-32.07737,15.72874
25.866731167,11.90605,-7.00906600000001,-0.1762206,0.9957093,-0.09405801,0.06489611,-41.04815,-32.07737,15.72874
25.876590252,8.92449099999999,-6.05692300000003,-0.4214326,0.9932053,-0.04687341,0.06628841,-41.04815,-32.07737,15.72874
25.886450291,4.265797,-5.045271,-0.1762206,1.002062,-0.01176356,0.06502089,-41.04815,-32.07737,15.72874
25.896310329,-1.014056,-4.033619,0.1302944,1.017044,0.006871,0.06783982,-41.04815,-32.07737,15.72874
25.906169414,-6.85295199999998,-2.90295,-0.2375236,1.020134,0.01572951,0.08703851,-40.67597,-31.71265,15.78705
25.916029453,-13.00243,-0.701118900000002,-0.1762206,1.039809,-0.05277144,0.07036641,-40.67597,-31.71265,15.78705
25.925888538,-11.07683,0.608077699999999,0.1915974,1.020015,-0.1060908,0.04288416,-40.67597,-31.71265,15.78705
25.935748577,-4.430431,1.61973,1.111142,1.008783,-0.1636605,0.02962001,-40.67597,-31.71265,15.78705
25.945608616,6.68831799999999,2.036292,1.969384,0.9982108,-0.1690723,0.03882981,-40.67597,-31.71265,15.78705
25.955467701,15.57089,2.274328,2.09199,1.003777,-0.1193079,0.06025524,-41.05493,-31.34642,15.33712
25.96532774,20.35382,2.869417,1.540263,1.007867,-0.09250551,0.06090234,-41.05493,-31.34642,15.33712
25.975186825,21.90672,3.643033,1.295051,1.002837,-0.06378288,0.07607162,-41.05493,-31.34642,15.33712
25.985046864,20.78863,4.476159,0.927233400000001,0.9901143,-0.05950259,0.07964347,-41.05493,-31.34642,15.33712
25.994906902,18.11765,4.833212,0.620718400000002,0.9868288,-0.06291092,0.08684953,-41.05493,-31.34642,15.33712
26.004765987,15.50878,5.309284,1.111142,0.9908167,-0.06480794,0.09061027,-40.73751,-31.33844,16.16769
26.017090797,12.34087,5.487811,1.662869,0.9889154,-0.05846251,0.1002749,-40.73751,-31.33844,16.16769
26.026950836,9.60776600000003,5.547319,1.724172,0.9908213,-0.05308922,0.1012515,-40.73751,-31.33844,16.16769
26.036810875,7.68217200000001,5.547319,1.540263,0.9947413,-0.04377637,0.1098998,-40.73751,-31.33844,16.16769
26.04666996,4.452145,5.90437299999999,1.049839,0.9941791,-0.04477797,0.1036698,-40.73751,-31.33844,16.16769
26.056529999,2.588667,5.78535500000003,0.5594154,0.9968906,-0.05835093,0.1111838,-40.68246,-30.6091,15.71173
26.066389084,1.843277,5.96388199999997,0.3142034,1.004664,-0.09233756,0.1131821,-40.68246,-30.6091,15.71173
26.076249123,5.383883,5.606828,-0.2988266,0.9938498,-0.09830648,0.1041811,-40.68246,-30.6091,15.71173
26.086109161,7.930636,5.011739,-0.2988266,0.9871175,-0.1041927,0.1075818,-40.68246,-30.6091,15.71173
26.095968246,11.65759,4.595177,-0.1762206,0.9778465,-0.1028036,0.1106008,-40.68246,-30.6091,15.71173
26.105828285,13.6453,3.940578,-0.5440385,0.9759452,-0.09645815,0.1202655,-41.05096,-30.96669,16.16553
26.11568737,13.6453,2.928926,-0.5440385,0.9966156,-0.09721711,0.1285901,-41.05096,-30.96669,16.16553
26.125547409,14.26646,2.69089,-0.6053416,0.9909559,-0.08855618,0.1158054,-41.05096,-30.96669,16.16553
26.135407448,15.07397,1.917274,-1.218372,0.9810103,-0.10613,0.1244245,-41.05096,-30.96669,16.16553
26.145266533,16.3784,0.965131299999997,-1.340978,0.984486,-0.110479,0.1243382,-41.05096,-30.96669,16.16553
26.155126572,17.49649,0.1915152,-1.524887,0.9839782,-0.1012124,0.1311325,-40.67924,-30.60286,16.15982
26.164985657,17.68283,-0.2845563,-1.463584,0.9877341,-0.09292281,0.1268361,-40.67924,-30.60286,16.15982
26.174845696,17.24802,-0.939154599999998,-1.524887,0.9910263,-0.0719364,0.1355919,-40.67924,-30.60286,16.15982
26.187170506,14.94973,-2.367369,-1.831402,0.9919105,-0.06951346,0.1308077,-40.67924,-30.60286,16.15982
26.197030544,14.32858,-3.319512,-1.954008,0.9940295,-0.07823794,0.1350167,-40.67924,-30.60286,16.15982
26.206889629,14.76339,-4.271655,-2.015311,1.00494,-0.08640022,0.1386259,-40.3055,-30.60718,16.15789
26.216749668,16.31628,-5.283307,-2.689644,1.015754,-0.08091974,0.1471436,-40.3055,-30.60718,16.15789
26.226608753,18.36611,-5.759378,-3.486583,1.023128,-0.07693841,0.1533017,-40.3055,-30.60718,16.15789
26.236468792,20.91286,-7.00906600000001,-4.528733,1.035411,-0.07876783,0.1555072,-40.3055,-30.60718,16.15789
26.246328831,24.08077,-8.37777100000001,-5.448278,1.050754,-0.08395333,0.1638704,-40.3055,-30.60718,16.15789
26.256187916,28.92582,-9.62745900000001,-6.36782300000001,1.069756,-0.1051528,0.1754006,-40.67279,-30.59039,17.05602
26.266047955,36.06915,-10.87715,-6.61303499999999,1.057034,-0.1008725,0.1789725,-40.67279,-30.59039,17.05602
26.275907993,39.23706,-12.72192,-8.88124700000001,1.029629,-0.04971891,0.2593418,-40.67279,-30.59039,17.05602
26.285767078,31.03776,-11.71027,-10.84294,1.013674,0.01707879,0.3320129,-40.67279,-30.59039,17.05602
26.295627117,25.63367,-13.67407,-10.29121,0.9908484,0.02161722,0.1689695,-40.67279,-30.59039,17.05602
26.305486202,26.9381,-21.35072,-9.43297400000002,0.9591054,0.01655151,0.06108009,-41.41427,-30.57017,17.89206
26.315346241,29.42274,-29.68197,-7.83909500000001,1.006765,-0.026992,0.1453308,-41.41427,-30.57017,17.89206
26.32520628,29.67121,-34.44268,-5.203066,1.067684,-0.07208642,0.3036554,-41.41427,-30.57017,17.89206
26.335065365,31.53468,-34.97826,-2.321826,1.10981,-0.1402674,0.3192516,-41.41427,-30.57017,17.89206
26.344925404,36.69031,-38.13224,1.540263,1.119491,-0.2169969,0.2082502,-41.41427,-30.57017,17.89206
26.354784489,43.89575,-41.70277,7.30274499999998,1.142572,-0.2758432,0.1628591,-39.96847,-30.18917,19.99334
26.367109299,50.04523,-45.92791,11.90047,1.178211,-0.333594,0.2500364,-39.96847,-30.18917,19.99334
26.376969338,50.54216,-42.89295,15.27213,1.220183,-0.3398143,0.3088065,-39.96847,-30.18917,19.99334
26.386828899,50.79062,-33.96661,17.72425,1.182559,-0.3025418,0.345118,-39.96847,-30.18917,19.99334
26.396688461,51.28754,-25.57585,19.19553,1.081628,-0.2870978,0.4195252,-39.96847,-30.18917,19.99334
26.4065485,50.85273,-19.14889,21.09592,1.040168,-0.2715378,0.5141705,-41.01574,-29.41035,22.16774
26.416407585,40.9763,-4.926253,21.21853,1.073212,-0.2695712,0.5712201,-41.01574,-29.41035,22.16774
26.426267624,28.11831,17.74665,18.52119,1.084017,-0.2869048,0.5948798,-41.01574,-29.41035,22.16774
26.436127663,22.71422,38.51527,14.41389,1.081793,-0.3631093,0.6517723,-41.01574,-29.41035,22.16774
26.445986748,27.37292,56.78451,11.90047,1.115686,-0.4508692,0.6562991,-41.01574,-29.41035,22.16774
26.455846787,35.07529,73.1494700000002,11.83917,1.150906,-0.4988921,0.6137014,-40.27233,-27.56666,22.9772
26.465706825,42.03228,87.25309,13.31044,1.1613,-0.4785314,0.5686803,-40.27233,-27.56666,22.9772
26.47556591,46.4425,96.9530399999998,13.98477,1.151781,-0.4480547,0.5431964,-40.27233,-27.56666,22.9772
26.485425949,46.4425,105.2843,15.39474,1.171075,-0.4246598,0.5076581,-40.27233,-27.56666,22.9772
26.495285034,42.77766,112.6634,17.78556,1.182466,-0.4047733,0.4635773,-40.27233,-27.56666,22.9772
26.505145073,36.06915,118.3763,20.05377,1.2033,-0.3886679,0.4269971,-42.53993,-25.72943,20.85748
26.515005112,29.29851,122.9585,21.83156,1.236603,-0.4366969,0.3873019,-42.53993,-25.72943,20.85748
26.524864197,28.98793,126.8265,24.16107,1.271556,-0.489055,0.3571307,-42.53993,-25.72943,20.85748
26.534724236,33.83297,130.5756,27.71664,1.280548,-0.4763649,0.3460881,-42.53993,-25.72943,20.85748
26.547048569,37.80839,133.7296,32.31437,1.262445,-0.3662393,0.2993555,-42.53993,-25.72943,20.85748
26.556908131,37.24935,135.9909,32.9887,1.219348,-0.2472065,0.2214272,-45.94637,-23.54139,16.56332
26.566768169,29.11216,133.8486,31.45613,1.212366,-0.1915648,0.1529916,-45.94637,-23.54139,16.56332
26.576627731,17.12379,131.1112,31.82394,1.176631,-0.1657938,0.1024441,-45.94637,-23.54139,16.56332
26.586487293,3.520406,125.8149,33.35652,1.132945,-0.1376867,0.04484158,-45.94637,-23.54139,16.56332
26.596347332,-11.51165,118.4953,35.13431,1.090174,-0.1257004,-0.03159878,-45.94637,-23.54139,16.56332
26.606206417,-25.48773,110.164,37.52512,1.064789,-0.1810803,-0.0762699,-49.74126,-21.37755,10.22265
26.616066456,-33.31433,102.8444,42.79718,1.04327,-0.249351,-0.06408016,-49.74126,-21.37755,10.22265
26.625926495,-33.9976,95.7033500000003,48.80487,1.043627,-0.2800073,-0.06482319,-49.74126,-21.37755,10.22265
26.63578558,-29.77373,88.1457200000002,54.44475,1.019523,-0.2981869,-0.05456989,-49.74126,-21.37755,10.22265
26.645645618,-22.44405,81.65925,59.9007200000001,0.9908081,-0.2954713,-0.04119932,-49.74126,-21.37755,10.22265
26.655505657,-14.36898,75.23228,64.1919299999998,0.9495122,-0.2680645,-0.03175386,-53.53783,-19.58898,3.373631
26.665364742,-8.90277699999999,68.4482700000001,66.8279499999997,0.9055512,-0.1875252,0.008367549,-53.53783,-19.58898,3.373631
26.675224781,-4.554663,63.3304899999998,65.4792900000001,0.8893725,-0.06624496,0.0767096,-53.53783,-19.58898,3.373631
26.685083866,-4.803127,61.54523,57.8164099999997,0.8415036,0.04168472,0.03373715,-53.53783,-19.58898,3.373631
26.694943905,-10.33144,54.93974,52.42175,0.8065619,-0.007505252,-0.02464231,-53.53783,-19.58898,3.373631
26.704803944,-9.95874700000001,47.26308,50.39875,0.8370785,-0.1068643,0.009065785,-54.33615,-17.07458,-1.770003
26.717128277,3.023479,42.56188,48.49836,0.8433031,-0.177369,0.008861252,-54.33615,-17.07458,-1.770003
26.726987839,15.69513,36.90853,48.19184,0.8106256,-0.1991132,-0.002836507,-54.33615,-17.07458,-1.770003
26.736847401,26.31695,30.60058,47.64012,0.8081718,-0.179255,-0.02180192,-54.33615,-17.07458,-1.770003
26.746706963,33.70874,24.47116,47.2723,0.7981667,-0.1204645,-0.02212157,-54.33615,-17.07458,-1.770003
26.756567001,35.8828,18.40125,44.32976,0.7778102,-0.07643419,-0.04110702,-54.37061,-14.16504,-4.360722
26.766426563,37.00089,12.80741,41.142,0.7612233,-0.07084499,-0.06861702,-54.37061,-14.16504,-4.360722
26.776286125,39.23706,5.96388199999997,39.67073,0.7497696,-0.05977312,-0.07363153,-54.37061,-14.16504,-4.360722
26.786146164,38.2432,-1.236699,40.28376,0.7496566,-0.02221189,-0.04887375,-54.37061,-14.16504,-4.360722
26.796005249,31.9695,-7.60415499999998,40.95809,0.7505018,0.07087489,-0.01263944,-54.37061,-14.16504,-4.360722
