Time (s),Gyroscope X (deg/s),Gyroscope Y (deg/s),Gyroscope Z (deg/s),Accelerometer X (g),Accelerometer Y (g),Accelerometer Z (g),Magnetometer X (uT),Magnetometer Y (uT),Magnetometer Z (uT)
15.176146507,15.32243,-6.05692300000003,2.214596,0.9337553,0.2737596,-0.06481338,-9.914103,-15.15954,35.55836
15.186004162,15.50878,-10.16304,2.275899,0.9041243,0.2448849,-0.03875798,-9.914103,-15.15954,35.55836
15.195862293,17.37226,-14.09063,0.743324399999998,0.915288,0.202266,-0.011004,-9.914103,-15.15954,35.55836
15.205720425,23.95654,-15.04277,-1.463584,0.9046816,0.2121975,-0.06252256,-9.914103,-15.15954,35.55836
15.215578079,25.94425,-16.70902,-3.118764,0.8696194,0.3153826,-0.1033216,-9.914103,-15.15954,35.55836
15.225436211,20.54017,-17.54215,-3.8544,0.9032218,0.3096444,-0.1556024,-11.03253,-15.14125,35.94824
15.235293865,19.60843,-18.43478,-3.425279,0.9153671,0.2897114,-0.1794245,-11.03253,-15.14125,35.94824
15.245151997,22.71422,-18.43478,-3.547885,0.9395173,0.3083924,-0.1858407,-11.03253,-15.14125,35.94824
15.255010128,27.24869,-17.12559,-3.486583,0.9622808,0.2989015,-0.1752236,-11.03253,-15.14125,35.94824
15.264867783,31.34834,-16.41148,-3.425279,0.9317279,0.345439,-0.1504355,-11.03253,-15.14125,35.94824
15.277190685,28.67735,-17.83969,-4.835248,0.8766295,0.4055409,-0.08397181,-9.541292,-14.48358,35.93361
15.28704834,19.23573,-21.11268,-6.79694399999997,0.8684385,0.3116807,-0.04966564,-9.541292,-14.48358,35.93361
15.296906471,18.86304,-23.37402,-5.509581,0.9235143,0.1514032,-0.09828559,-9.541292,-14.48358,35.93361
15.306764126,28.18042,-25.75438,-5.632187,1.007608,0.1667818,-0.08881196,-9.541292,-14.48358,35.93361
15.316622257,31.9695,-25.2188,-5.87739899999999,1.097257,0.2458101,-0.1181747,-9.541292,-14.48358,35.93361
15.326480389,23.21115,-22.36237,-5.325672,1.040384,0.3577289,-0.2438866,-9.162376,-13.73378,37.20441
15.336338043,12.96203,-19.80349,-5.019157,0.9329705,0.3536353,-0.3032486,-9.162376,-13.73378,37.20441
15.346196175,9.17295499999997,-19.14889,-4.835248,0.8988292,0.2795561,-0.2530712,-9.162376,-13.73378,37.20441
15.356053829,14.08011,-19.08938,-4.651339,0.9285586,0.1470435,-0.2344869,-9.162376,-13.73378,37.20441
15.365911961,29.29851,-20.51759,-4.712642,0.9698998,0.160578,-0.09695247,-9.162376,-13.73378,37.20441
15.375770092,35.32376,-22.77893,-5.08046,0.9456385,0.2962276,-0.07054353,-8.788691,-12.62207,38.02334
15.385627747,22.34153,-24.74273,-3.609189,0.8776916,0.4466672,-0.1492902,-8.788691,-12.62207,38.02334
15.395485878,1.097885,-25.81389,-2.62834,0.8485324,0.4602151,-0.2307034,-8.788691,-12.62207,38.02334
15.405343533,-10.33144,-25.8734,-1.402281,0.8778898,0.3907955,-0.2556676,-8.788691,-12.62207,38.02334
15.415201664,-10.08298,-23.31451,-1.58619,0.927224,0.3311602,-0.3138987,-8.788691,-12.62207,38.02334
15.425059795,-0.703476100000001,-20.51759,-2.444432,0.9509884,0.2511619,-0.291911,-8.040476,-12.25721,38.3998
15.43491745,10.9122,-18.5538,-2.015311,0.9296142,0.2794664,-0.2199668,-8.040476,-12.25721,38.3998
15.447239399,11.53336,-17.06608,-1.340978,0.9629798,0.3937644,-0.184017,-8.040476,-12.25721,38.3998
15.45709753,-1.262519,-16.53049,0.3142034,0.9188091,0.4329626,-0.2673957,-8.040476,-12.25721,38.3998
15.466955185,-10.89049,-16.94706,1.47896,0.923266,0.3064836,-0.2670891,-8.040476,-12.25721,38.3998
15.476813316,-12.62973,-16.41148,1.295051,0.9239553,0.1588826,-0.3105141,-7.293018,-12.26584,38.39593
15.486670971,-5.300054,-15.04277,1.233748,0.9302482,0.1029091,-0.3288065,-7.293018,-12.26584,38.39593
15.496529102,3.334059,-13.73358,0.620718400000002,0.9166518,0.1801743,-0.3250855,-7.293018,-12.26584,38.39593
15.506387234,4.82484,-12.30536,-0.2375236,0.9065549,0.2856732,-0.3269265,-7.293018,-12.26584,38.39593
15.516244888,3.582522,-11.35322,-0.850553500000001,0.9146706,0.2970541,-0.2957981,-7.293018,-12.26584,38.39593
15.52610302,4.762724,-11.41273,0.2529004,0.9345168,0.3251357,-0.2507992,-6.611864,-11.53746,38.38485
15.535960674,4.452145,-11.59125,1.172445,0.9344999,0.3573538,-0.2236919,-6.611864,-11.53746,38.38485
15.545818806,2.712899,-14.15014,2.275899,0.9074856,0.3602842,-0.1571527,-6.611864,-11.53746,38.38485
15.555676937,-2.504838,-15.69737,3.011535,0.8543966,0.4284479,-0.1515079,-6.611864,-11.53746,38.38485
15.565534592,-12.44338,-15.63786,1.662869,0.7636224,0.4432741,-0.2655761,-6.611864,-11.53746,38.38485
15.575392723,-18.22017,-16.17344,0.1302944,0.7198246,0.3682508,-0.3144634,-5.854408,-12.27081,39.2207
15.585250378,-18.65498,-13.2575,-4.038309,0.740735,0.1637519,-0.3960344,-5.854408,-12.27081,39.2207
15.595108509,-2.00791,-14.15014,-3.547885,0.7543993,0.03684209,-0.4025714,-5.854408,-12.27081,39.2207
15.60496664,13.58318,-15.8759,-3.915704,0.9094294,0.07243171,-0.2319688,-5.854408,-12.27081,39.2207
15.617289066,24.63982,-13.31701,-5.203066,1.163469,0.3120842,-0.1195175,-5.85717,-12.27615,38.83662
15.627147198,12.89991,-11.11518,-5.754793,1.242436,0.3496234,-0.2870876,-5.85717,-12.27615,38.83662
15.637004852,2.09174,-10.63911,-0.727947499999999,1.1399,0.3127753,-0.268686,-5.85717,-12.27615,38.83662
15.646862984,-11.51165,-12.5434,2.030687,0.9429228,0.3459584,-0.2977048,-5.85717,-12.27615,38.83662
15.656720638,-20.02153,-13.37652,3.992383,0.8994911,0.367085,-0.2710308,-5.85717,-12.27615,38.83662
15.66657877,-25.61196,-12.12683,3.501959,0.8701765,0.3438889,-0.2885391,-5.85717,-12.27615,38.83662
15.676436424,-21.94712,-11.2342,3.072838,0.8379142,0.3068576,-0.3550005,-5.484695,-11.53883,39.21123
15.686294556,-13.87205,-9.32991399999999,2.70502,0.8653184,0.2619683,-0.322226,-5.484695,-11.53883,39.21123
15.696152687,-6.977184,-6.94955700000003,2.09199,0.8652218,0.3266045,-0.3442015,-5.484695,-11.53883,39.21123
15.706010342,-10.9526,-4.866744,3.011535,0.9033132,0.297142,-0.3751826,-5.484695,-11.53883,39.21123
15.715868473,-5.237938,-5.045271,2.582414,0.9899633,0.1808051,-0.3299586,-5.484695,-11.53883,39.21123
15.725726128,-0.2065488,-1.712771,1.662869,1.008277,0.09621001,-0.3529768,-4.736443,-12.28999,38.76682
15.735584259,10.78797,-0.1655384,1.601566,0.9505306,0.07700475,-0.4069446,-4.736443,-12.28999,38.76682
15.74544239,17.24802,0.5485688,1.172445,0.9209119,0.1761316,-0.3750171,-4.736443,-12.28999,38.76682
15.755300045,19.60843,2.631382,0.988536299999999,0.9626632,0.3126285,-0.2786203,-4.736443,-12.28999,38.76682
15.765157223,14.51492,1.679239,2.337202,0.9633884,0.4679038,-0.2682154,-4.736443,-12.28999,38.76682
15.775015831,2.215972,1.262676,5.15714,0.9537628,0.4590742,-0.2643192,-4.736443,-12.28999,38.76682
15.784873486,-7.78468999999998,2.393346,6.62841199999998,0.8465642,0.3397376,-0.3016552,-4.736443,-12.28999,38.76682
15.797195911,-4.430431,0.4295509,8.22229000000003,0.8707562,0.2665613,-0.2781784,-4.736443,-12.28999,38.76682
15.807054043,-3.125997,0.846113400000001,8.09968399999998,0.8920341,0.331751,-0.2031764,-4.736443,-12.28999,38.76682
15.816911697,-8.21950099999998,0.667586600000001,7.18013899999999,0.8587064,0.3278857,-0.2468203,-4.3615,-11.91992,39.20921
15.826769829,-8.03315400000002,0.01298836,7.54795700000002,0.9088317,0.2829876,-0.2699569,-4.3615,-11.91992,39.20921
15.836627483,-3.933504,-0.4035742,7.73186600000001,0.9270841,0.2693858,-0.3067509,-4.3615,-11.91992,39.20921
15.846485615,2.588667,-0.879645599999998,7.73186600000001,0.9106728,0.2712545,-0.2887709,-4.3615,-11.91992,39.20921
15.856343746,5.88081099999999,-2.248351,7.118836,0.8741775,0.2525673,-0.2548645,-4.3615,-11.91992,39.20921
15.866201401,5.570231,-3.97411,6.50580599999999,0.8758565,0.2803344,-0.2508205,-4.3615,-11.91992,39.20921
15.876059532,2.153856,-5.759378,5.83147299999998,0.8968995,0.2762641,-0.21809,-5.110172,-12.28568,38.76875
15.885917187,-0.641360199999998,-6.71152099999998,5.15714,0.9462608,0.2485064,-0.2104022,-5.110172,-12.28568,38.76875
15.895775318,1.097885,-6.47348499999999,3.93108,1.01768,0.2613438,-0.1998109,-5.110172,-12.28568,38.76875
15.90563345,-1.510983,-3.914601,1.47896,1.047709,0.2914437,-0.1597321,-5.110172,-12.28568,38.76875
15.915491104,0.4767263,-4.152637,0.682021400000003,0.9641728,0.250919,-0.2580779,-5.110172,-12.28568,38.76875
15.925349236,4.700608,-5.342815,1.969384,0.9584945,0.196999,-0.2196368,-5.484695,-11.53883,39.21123
15.93520689,11.59548,-4.5692,1.908081,0.9661217,0.28511,-0.2285859,-5.484695,-11.53883,39.21123
15.945065022,16.50263,-6.53299399999998,0.804627399999999,0.9435215,0.2819535,-0.2383536,-5.484695,-11.53883,39.21123
15.954923153,16.50263,-9.74647699999998,1.724172,0.9258717,0.2925274,-0.2317832,-5.484695,-11.53883,39.21123
15.967245579,12.71356,-8.85384299999998,1.417657,0.9047248,0.3091268,-0.2969921,-5.106951,-12.27944,39.21684
15.977103233,15.75724,-13.9121,1.969384,0.8721625,0.2468926,-0.3358684,-5.106951,-12.27944,39.21684
15.986961365,16.0057,-15.2213,3.685868,0.9536771,0.2186767,-0.266826,-5.106951,-12.27944,39.21684
15.996819496,16.44052,-15.34032,2.827626,0.9683568,0.2445487,-0.2797552,-5.106951,-12.27944,39.21684
16.006677151,16.62686,-16.11393,2.888929,0.9614961,0.2181204,-0.3038404,-5.106951,-12.27944,39.21684
16.016535282,17.62072,-17.12559,3.685868,0.9656825,0.2351856,-0.3047145,-4.360748,-11.54643,39.58952
16.026392937,16.50263,-18.73233,3.93108,0.9410582,0.2432218,-0.3095669,-4.360748,-11.54643,39.58952
16.036251068,15.44666,-20.51759,5.524958,0.9516955,0.2235346,-0.2643607,-4.360748,-11.54643,39.58952
16.0461092,13.2726,-21.05317,6.56710899999998,1.007594,0.2444362,-0.2726482,-4.360748,-11.54643,39.58952
16.055966854,10.78797,-20.33907,7.36404799999998,1.052808,0.2412064,-0.3322614,-4.360748,-11.54643,39.58952
16.065824986,9.54565000000002,-20.63661,8.34489499999999,1.041206,0.1884134,-0.3684815,-3.611324,-10.80719,40.41029
16.07568264,15.88147,-20.04152,9.08053200000002,0.9770239,0.1670944,-0.3222228,-3.611324,-10.80719,40.41029
16.085540772,17.31014,-19.80349,8.16098699999997,0.8993517,0.236606,-0.2884227,-3.611324,-10.80719,40.41029
16.095398903,16.31628,-17.8992,6.19929100000001,0.8429323,0.3012134,-0.314867,-3.611324,-10.80719,40.41029
16.105256557,17.31014,-18.85134,5.524958,0.8192465,0.3169233,-0.3517743,-3.611324,-10.80719,40.41029
16.115114689,18.55246,-22.71943,5.95407899999997,0.8670455,0.3131839,-0.2940248,-3.611324,-10.80719,40.41029
16.124972343,15.88147,-25.69487,6.99623000000001,0.894909,0.3136954,-0.2234961,-2.865871,-10.44767,40.40266
16.137294292,12.40298,-28.90835,6.44450299999999,0.9163121,0.3880619,-0.1671072,-2.865871,-10.44767,40.40266
16.147152424,2.09174,-30.09853,6.26059400000001,0.9059715,0.4518569,-0.2593862,-2.865871,-10.44767,40.40266
16.157010555,-8.53008099999998,-33.8476,5.279747,0.8662213,0.3974121,-0.2803638,-2.865871,-10.44767,40.40266
16.16686821,-11.57376,-35.93041,3.440656,0.859758,0.336433,-0.3057047,-2.490931,-10.0776,40.84505
16.176726341,-11.57376,-35.93041,1.540263,0.8946232,0.2568444,-0.3303541,-2.490931,-10.0776,40.84505
16.186583996,-2.939649,-36.28746,2.337202,0.9574897,0.194001,-0.3677204,-2.490931,-10.0776,40.84505
16.196442127,2.588667,-37.83469,2.950232,1.036988,0.1900268,-0.3176126,-2.490931,-10.0776,40.84505
16.206299782,1.346349,-40.33407,5.218443,1.076222,0.2402009,-0.266474,-2.490931,-10.0776,40.84505
16.216157913,-2.753301,-42.5359,8.28359300000002,1.096048,0.3363583,-0.2347972,-2.116449,-9.708426,41.22344
16.226016045,-15.54918,-46.523,9.08053200000002,1.111494,0.3987954,-0.231136,-2.116449,-9.708426,41.22344
16.235873699,-26.91639,-46.88005,8.528805,1.124137,0.2764766,-0.3085412,-2.116449,-9.708426,41.22344
16.245731831,-16.7915,-45.98742,6.62841199999998,1.135233,0.0894585,-0.3768864,-2.116449,-9.708426,41.22344
16.255589485,-0.889823900000002,-47.35612,6.44450299999999,1.154866,0.0466038,-0.3022935,-2.116449,-9.708426,41.22344
16.265447617,11.96817,-46.58251,6.93492700000001,1.149863,0.1581976,-0.2480893,-0.241024,-10.46096,41.6054
16.275305748,14.14223,-46.22545,6.81232100000002,1.118743,0.2550786,-0.2923521,-0.241024,-10.46096,41.6054
16.285163403,7.930636,-46.523,7.24144199999999,1.130382,0.3084529,-0.3605931,-0.241024,-10.46096,41.6054
16.295021534,4.949072,-43.25001,5.95407899999997,1.144261,0.241521,-0.3345205,-0.241024,-10.46096,41.6054
16.304879189,7.55793999999999,-38.31076,4.482807,1.121659,0.1631771,-0.4105731,-0.241024,-10.46096,41.6054
16.317202091,26.50329,-33.31202,3.685868,1.086146,0.1353588,-0.348485,0.1427002,-11.18999,42.44319
16.327059746,37.4357,-30.75313,2.214596,1.060459,0.1924552,-0.2446092,0.1427002,-11.18999,42.44319
16.336917877,45.94558,-29.44393,0.3755064,1.029688,0.2338305,-0.1685871,0.1427002,-11.18999,42.44319
16.346776009,47.56059,-31.11018,-1.279675,1.008997,0.2309481,-0.1098542,0.1427002,-11.18999,42.44319
16.356633663,46.69097,-32.00282,-1.402281,0.9829779,0.1997987,-0.1797094,0.1427002,-11.18999,42.44319
16.366491795,42.03228,-34.85925,-0.4214326,0.970869,0.1737137,-0.2295937,1.64682,-11.18943,43.71574
16.376349449,37.62204,-37.8942,1.47896,0.9608126,0.06103929,-0.2768836,1.64682,-11.18943,43.71574
16.386207581,40.35514,-38.48929,2.582414,0.9089629,0.02968779,-0.3396635,1.64682,-11.18943,43.71574
16.396065712,45.69711,-43.13099,1.969384,0.7986668,0.02495979,-0.4315753,1.64682,-11.18943,43.71574
16.405923367,48.67868,-51.70028,2.521111,0.8447247,0.05202281,-0.3308923,1.64682,-11.18943,43.71574
16.415781498,47.12578,-58.7223299999999,2.398505,0.9164957,0.09886624,-0.3363118,1.273048,-10.06909,44.53854
16.425639153,52.52987,-66.6370199999999,0.3755064,0.9820307,0.1415648,-0.2645265,1.273048,-10.06909,44.53854
16.435497284,57.00221,-74.4922,-2.689644,1.065846,0.1426228,-0.1804146,1.273048,-10.06909,44.53854
16.445355415,64.58035,-82.1093399999999,-7.04215600000001,1.106876,0.06528852,-0.3968126,1.273048,-10.06909,44.53854
16.45521307,81.7243399999999,-94.30867,-4.773945,1.092143,-0.003292112,-0.3535742,1.273048,-10.06909,44.53854
16.465071201,92.4082800000002,-105.5559,-3.915704,1.092945,0.06990007,-0.3021728,2.401682,-8.207446,46.94641
16.474928856,90.60692,-115.5534,-1.524887,1.140907,0.1517296,-0.2647882,2.401682,-8.207446,46.94641
16.484786987,73.5250500000002,-122.6944,7.67056300000001,1.163601,0.1480777,-0.2541209,2.401682,-8.207446,46.94641
16.497109413,62.4684099999999,-127.9312,19.07292,1.086476,0.2240702,-0.5691312,2.401682,-8.207446,46.94641
16.506967545,66.5059400000001,-133.406,21.15722,1.086641,0.2943169,-0.7822636,2.401682,-8.207446,46.94641
16.516825199,65.7605500000002,-124.6582,17.23383,1.214249,0.4074493,-0.7606052,4.21122,-7.106046,48.20604
16.526683331,61.2260899999997,-112.2209,11.34874,1.273055,0.5921127,-0.4474469,4.21122,-7.106046,48.20604
16.536541462,42.09439,-99.1289000000002,1.724172,1.322993,0.8035024,0.1358527,4.21122,-7.106046,48.20604
16.546399117,-17.66112,-72.4688899999998,-10.72034,1.230373,0.8089011,0.2368918,4.21122,-7.106046,48.20604
16.556257248,-75.3046900000001,-50.45059,-12.55943,0.9495227,0.5523853,-0.02674672,4.21122,-7.106046,48.20604
16.566114902,-103.6917,-31.70527,-7.40997399999998,0.833183,0.2967425,-0.3162033,7.573818,-5.348585,49.3867
16.575973034,-100.7101,-13.2575,-3.24137,0.8635195,0.06906369,-0.3727067,7.573818,-5.348585,49.3867
16.585831165,-80.8330099999999,13.16446,-0.5440385,0.9757129,-0.002942275,-0.2450504,7.573818,-5.348585,49.3867
16.59568882,-56.48357,42.32384,-2.567038,1.120573,-0.07637153,-0.05509651,7.573818,-5.348585,49.3867
16.605546951,-24.9908,75.9463900000002,-4.773945,1.255628,-0.2428443,-0.1279102,7.573818,-5.348585,49.3867
16.615404606,19.67054,97.6076400000001,-3.302674,1.190744,-0.4162021,-0.2669371,7.601468,-7.093218,51.90146
16.625262737,76.8793000000002,123.1965,6.19929100000001,0.9895225,-0.4939975,-0.8124508,7.601468,-7.093218,51.90146
16.635120869,147.9399,123.4345,6.26059400000001,0.734403,-0.2681594,-0.8457239,7.601468,-7.093218,51.90146
16.644978523,185.4579,132.1228,-4.712642,0.7816578,0.08318736,-0.6948804,7.601468,-7.093218,51.90146
16.654836655,165.5187,136.586,-15.13415,0.9502416,0.627642,0.05630047,7.601468,-7.093218,51.90146
16.667158604,50.04523,163.246,-26.10739,1.063204,1.20507,0.1300059,3.146711,-9.215563,54.4438
16.677016258,-67.3538499999999,188.2397,-24.08439,0.7776895,1.044538,0.03927653,3.146711,-9.215563,54.4438
16.68687439,-153.8192,203.593,-24.88133,0.6097523,0.5575175,0.06774947,3.146711,-9.215563,54.4438
16.696732521,-192.8901,229.5985,-21.57097,0.6819884,0.1039483,0.01497213,3.146711,-9.215563,54.4438
16.706590176,-183.0137,257.1511,-14.0307,0.7864848,-0.3209426,-0.1223621,3.146711,-9.215563,54.4438
16.716448307,-125.867,284.7632,-4.712642,0.9400365,-0.6407982,-0.2652594,-7.226885,-4.015019,53.6129
16.726305962,-51.01736,309.6975,2.888929,1.004363,-0.5850442,-0.3423776,-7.226885,-4.015019,53.6129
16.736164093,1.222117,329.752,2.521111,1.079005,-0.1820277,-0.3620833,-7.226885,-4.015019,53.6129
16.746021748,17.5586,343.4986,-0.05361458,1.185934,0.1828401,-0.3796961,-7.226885,-4.015019,53.6129
16.755879879,4.452145,349.5685,-3.180068,1.317979,0.4092377,-0.3993146,-7.226885,-4.015019,53.6129
16.76573801,-24.05906,355.1028,-4.099612,1.477468,0.5531113,-0.559947,-22.4923,-11.22679,47.55722
16.775595665,-56.66991,353.5556,-1.340978,1.577566,0.6130219,-0.5215735,-22.4923,-11.22679,47.55722
16.785453796,-96.7346800000001,349.628,-1.218372,1.545182,0.5779091,-0.5952051,-22.4923,-11.22679,47.55722
16.795311451,-125.308,335.2863,2.398505,1.469299,0.4801987,-0.6490977,-22.4923,-11.22679,47.55722
16.805169582,-135.8677,316.6005,7.42535099999997,1.426437,0.4190601,-0.7606562,-22.4923,-11.22679,47.55722
16.815027714,-131.9544,298.9859,15.27213,1.424443,0.3331043,-0.8389836,-38.53806,-11.98028,33.18006
16.824885368,-108.7231,282.5019,25.01931,1.346972,0.223359,-0.984003,-38.53806,-11.98028,33.18006
16.837208271,-54.62009,252.9855,25.01931,1.160318,0.0349622,-0.9532224,-38.53806,-11.98028,33.18006
16.847065926,-5.610633,228.4083,12.08438,0.9503694,-0.01880834,-1.041253,-38.53806,-11.98028,33.18006
16.856924057,30.23025,202.4029,-5.509581,0.720209,0.05684959,-0.9549114,-38.53806,-11.98028,33.18006
16.866781712,44.76537,174.7312,-18.50582,0.5376093,0.2459572,-0.8328298,-49.40611,-16.43675,17.1489
16.876639843,32.21796,144.5602,-20.34491,0.4800324,0.4194319,-0.6331151,-49.40611,-16.43675,17.1489
16.886497974,-3.063881,118.7928,-14.76633,0.5249668,0.5022378,-0.4581489,-49.40611,-16.43675,17.1489
16.896355629,-47.60099,97.4291200000001,-7.59388300000003,0.5870945,0.4447418,-0.3655965,-49.40611,-16.43675,17.1489
16.90621376,-84.8705400000001,81.8972900000002,-1.402281,0.64053,0.3310539,-0.3141263,-49.40611,-16.43675,17.1489
16.916071415,-106.549,68.3292500000003,3.072838,0.7105334,0.1984542,-0.2841368,-53.57275,-17.6131,8.603604
16.925929546,-109.0957,56.01089,5.095838,0.7651156,0.1215227,-0.2956272,-53.57275,-17.6131,8.603604
16.935787678,-99.4056600000002,47.73915,6.13798800000002,0.799096,0.04843436,-0.2718099,-53.57275,-17.6131,8.603604
16.945645332,-83.6903399999999,43.57353,6.50580599999999,0.8315427,0.03474262,-0.2364479,-53.57275,-17.6131,8.603604
16.955503464,-70.02483,44.0496,6.19929100000001,0.8347256,0.08632094,-0.2446836,-53.57275,-17.6131,8.603604
16.965361118,-57.8501199999999,40.41956,3.256747,0.7768986,0.1318089,-0.1759084,-54.30055,-18.05976,2.401577
16.97521925,-53.56412,37.3846,-1.58619,0.6783909,0.2049617,-0.1599903,-54.30055,-18.05976,2.401577
16.985077381,-60.0862899999998,32.98094,-5.386975,0.53523,0.1138247,-0.1189455,-54.30055,-18.05976,2.401577
16.994935036,-66.23576,25.54232,-4.344824,0.4475455,0.06592738,-0.09749442,-54.30055,-18.05976,2.401577
17.007257462,-78.28625,17.50862,4.360201,0.5320714,0.08275884,-0.09088988,-54.30055,-18.05976,2.401577
17.017115593,-84.6220799999998,10.60558,8.09968399999998,0.6848392,0.01628733,-0.1401105,-54.00505,-18.46625,-0.09280014
17.026973724,-74.7456399999998,5.368793,7.91577499999999,0.8000712,-0.03792154,-0.2045063,-54.00505,-18.46625,-0.09280014
17.036831379,-54.06105,-0.641609900000002,4.360201,0.8922638,-0.09234759,-0.2724091,-54.00505,-18.46625,-0.09280014
17.04668951,-23.37579,-11.05567,0.1915974,0.9915847,-0.08134603,-0.298171,-54.00505,-18.46625,-0.09280014
17.056547165,8.86237499999997,-21.41023,-5.386975,1.099529,0.004733507,-0.3071294,-54.00505,-18.46625,-0.09280014
17.066405296,23.70808,-30.21755,-10.16861,1.078228,0.1455687,-0.2026094,-55.08344,-18.11973,-2.523623
17.076263428,17.5586,-39.44144,-13.60158,0.9804814,0.2757082,-0.04485732,-55.08344,-18.11973,-2.523623
17.086121082,-7.10141600000002,-44.91626,-13.60158,0.898775,0.3566502,0.06193498,-55.08344,-18.11973,-2.523623
17.095979214,-40.58189,-47.8322,-12.74334,0.8269219,0.3092124,0.1684618,-55.08344,-18.11973,-2.523623
17.105836868,-63.37843,-51.10519,-12.31421,0.844811,0.160456,0.1655138,-55.08344,-18.11973,-2.523623
17.115695,-64.93133,-55.62786,-11.9464,0.8900374,-0.02775581,0.08756733,-55.8194,-18.08882,-0.9194145
17.125553131,-50.64467,-60.9241600000001,-10.78164,0.9338819,-0.1116108,0.07185877,-55.8194,-18.08882,-0.9194145
17.135410786,-31.45086,-67.8866999999997,-11.51728,0.9942885,-0.1326276,0.03440129,-55.8194,-18.08882,-0.9194145
17.145268917,-10.57991,-76.45599,-14.88894,1.008579,-0.08503168,-0.02386303,-55.8194,-18.08882,-0.9194145
17.155126572,5.94292600000003,-87.2271099999999,-19.54797,0.9842394,-0.02689717,-0.0354847,-55.8194,-18.08882,-0.9194145
17.164984703,12.65145,-101.6878,-22.12269,0.9348493,0.01585219,-0.06796395,-56.17995,-17.68696,1.191202
17.174842835,12.83779,-118.7073,-20.95794,0.9204607,0.08619142,-0.09256282,-56.17995,-17.68696,1.191202
17.18716526,23.95654,-14.20965,-2.750947,3.799231,-0.8143936,7.410991,-56.17995,-17.68696,1.191202
17.197023392,-49.65082,51.48822,5.524958,4.286356,0.5502077,3.577177,-56.17995,-17.68696,1.191202
17.206881046,36.00703,56.24893,-63.5635200000002,1.459027,-0.994849,-0.009209367,-56.17995,-17.68696,1.191202
17.216739178,113.6519,0.608077699999999,-23.34875,-0.09506726,-0.9313284,-1.588487,-57.26366,-19.08958,5.308963
17.226596832,113.2171,-89.9645200000001,0.988536299999999,-0.2614638,0.5995418,-1.070995,-57.26366,-19.08958,5.308963
17.236454964,20.54017,-121.5043,-9.61688199999998,1.144074,0.8148559,0.7303099,-57.26366,-19.08958,5.308963
17.246312618,-36.29589,-95.2608199999997,-17.09585,2.110669,0.2431661,0.9350157,-57.26366,-19.08958,5.308963
17.25617075,10.16681,-79.9075099999998,-26.2913,1.805636,-0.2738254,0.8214298,-57.26366,-19.08958,5.308963
17.266028881,61.5987900000001,-77.28912,-22.73572,0.7884974,-0.2670168,0.1085593,-56.50825,-18.33875,6.961918
17.275886536,82.2833900000002,-85.5608600000003,-22.3679,0.3477261,0.2374632,-0.05532973,-56.50825,-18.33875,6.961918
17.285744667,55.69778,-86.8105499999998,-20.65142,0.3643829,0.5754178,0.1001496,-56.50825,-18.33875,6.961918
17.295602322,4.762724,-82.9424699999999,-22.2453,0.6237127,0.6037949,0.3070616,-56.50825,-18.33875,6.961918
17.305460453,-18.46863,-75.1467999999997,-25.61696,0.8526899,0.3119428,0.4460533,-56.50825,-18.33875,6.961918
17.315318585,-5.175822,-66.10144,-25.80087,1.021374,0.05329309,0.4980118,-55.7221,-19.38857,11.51435
17.325176239,14.39069,-66.2204599999998,-25.55566,0.8654204,-0.000406326,0.1720089,-55.7221,-19.38857,11.51435
17.335034371,29.54697,-75.8609000000002,-24.3909,0.7223546,0.1679278,-0.018128,-55.7221,-19.38857,11.51435
17.344892025,19.4842,-79.8479999999999,-21.69357,0.9038829,0.1471929,0.2522535,-55.7221,-19.38857,11.51435
17.357214928,-2.566953,-68.42229,-22.06139,0.9644853,0.08136757,0.3332565,-55.7221,-19.38857,11.51435
17.367072582,-7.53622700000002,-55.50885,-21.44836,0.9574297,-0.04222097,0.3529196,-54.94515,-20.45621,14.7865
17.376930714,-6.16967699999999,-52.5334,-20.09969,0.7592816,-0.03725306,0.06970359,-54.94515,-20.45621,14.7865
17.386788845,3.271943,-51.64077,-25.55566,0.7472745,-0.05080284,-0.1410874,-54.94515,-20.45621,14.7865
17.3966465,21.34767,-53.60456,-30.33729,1.132849,-0.211602,0.187979,-54.94515,-20.45621,14.7865
17.406504631,48.11963,-41.28621,-33.58635,1.407208,-0.314327,0.3053976,-54.94515,-20.45621,14.7865
17.416362286,76.9414200000003,-45.74938,-31.37945,1.116732,-0.320041,-0.01301183,-54.16695,-22.26549,17.68211
17.426220417,94.9550299999999,-52.83094,-20.2836,0.8364938,0.09303698,-0.1449787,-54.16695,-22.26549,17.68211
17.436078549,80.5441400000003,-66.1609499999999,-21.57097,0.8023773,0.5614452,-0.118017,-54.16695,-22.26549,17.68211
17.445936203,57.25068,-70.3265700000001,-27.94648,0.8877158,0.772064,0.04690966,-54.16695,-22.26549,17.68211
17.455794335,31.03776,-66.4584900000002,-32.78941,1.041452,0.4309669,0.07825904,-54.16695,-22.26549,17.68211
17.465651989,38.98859,-61.9953199999999,-29.78557,0.9086472,0.2227701,0.02232845,-53.07442,-24.01077,21.02358
17.475510121,50.16946,-56.22295,-24.88133,0.8498119,0.2206125,-0.02477115,-53.07442,-24.01077,21.02358
17.485368252,48.18175,-49.2009,-23.04224,0.914279,0.2730415,0.04902841,-53.07442,-24.01077,21.02358
17.495225906,44.33056,-43.90461,-24.207,0.9578311,0.3458541,-0.1014464,-53.07442,-24.01077,21.02358
17.505084038,43.95787,-48.66532,-33.09593,0.887024,0.358016,-0.5833677,-53.07442,-24.01077,21.02358
17.514941692,55.94624,-62.94746,-35.73196,1.133456,0.1436854,-0.3160242,-51.55603,-23.9826,24.28056
17.524799824,54.08276,-62.4118800000001,-29.17254,1.350255,0.04307226,-0.1484099,-51.55603,-23.9826,24.28056
17.53712225,53.95853,-60.3885800000002,-25.73957,1.060964,0.1787109,-0.1479341,-51.55603,-23.9826,24.28056
17.546980381,50.91485,-62.1143399999997,-25.73957,0.9984736,0.1738811,-0.2501121,-51.55603,-23.9826,24.28056
17.556838035,56.50528,-60.98367,-26.53651,0.98627,0.3348425,-0.2500173,-51.55603,-23.9826,24.28056
17.566696167,58.9277999999997,-58.1272400000001,-28.68211,0.9983768,0.4789952,0.01123197,-50.40891,-24.31736,27.60725
17.576554298,45.13807,-47.8917,-28.55951,0.9251868,0.5878444,0.01367294,-50.40891,-24.31736,27.60725
17.586411953,35.75857,-41.64326,-27.02693,0.7940863,0.5266622,-0.2902249,-50.40891,-24.31736,27.60725
17.596270084,43.58517,-40.86965,-23.41006,0.8829167,0.4641416,-0.4324241,-50.40891,-24.31736,27.60725
17.606127739,48.98926,-38.01322,-19.36406,1.014064,0.454627,-0.2949265,-50.40891,-24.31736,27.60725
17.61598587,42.83978,-30.81264,-16.85064,1.019888,0.4187245,-0.1505943,-48.1406,-24.66508,30.92815
17.625844002,38.92648,-30.81264,-15.44067,0.9594466,0.3827442,-0.1299101,-48.1406,-24.66508,30.92815
17.635701656,40.10668,-27.65867,-16.48282,1.092426,0.1919965,-0.05338888,-48.1406,-24.66508,30.92815
17.645559788,44.88961,-25.09978,-11.27206,1.160462,0.3272556,-0.2190201,-48.1406,-24.66508,30.92815
17.655417442,29.98178,-22.5409,-6.00000499999998,1.13421,0.4110736,-0.3842207,-48.1406,-24.66508,30.92815
17.665275574,18.98727,-22.24335,0.1302944,1.078549,0.4400388,-0.3146575,-46.62695,-25.39013,32.97641
17.675133705,16.93744,-17.83969,-0.2375236,1.138596,0.3040206,-0.2644284,-46.62695,-25.39013,32.97641
17.68499136,26.44118,-10.93666,2.030687,1.076887,0.2049679,-0.3204513,-46.62695,-25.39013,32.97641
17.694849491,38.92648,-6.830539,4.973231,1.071374,0.2438579,-0.1882646,-46.62695,-25.39013,32.97641
17.70717144,35.13741,-5.580852,8.95792600000003,1.260343,0.491367,-0.03312924,-46.62695,-25.39013,32.97641
17.717029095,16.87533,-0.701118900000002,16.13038,1.346041,0.8089575,0.1087351,-45.87355,-24.27116,34.62559
17.726887703,-1.262519,-1.653262,17.60165,1.409122,0.6040183,0.06968729,-45.87355,-24.27116,34.62559
17.736745834,-10.51779,0.9056224,21.77025,1.357751,0.3188953,0.06992999,-45.87355,-24.27116,34.62559
17.746603489,-11.94646,3.82156,23.11892,1.226494,0.2072984,-0.1821584,-45.87355,-24.27116,34.62559
17.75646162,-8.46796500000002,5.130757,23.42543,1.245998,0.04332668,-0.2235938,-45.87355,-24.27116,34.62559
17.766319752,3.76887,9.11785500000002,21.52504,1.297215,-0.07080613,-0.155803,-46.6267,-23.21944,34.61877
17.776177406,28.42889,11.97428,17.60165,1.227979,-0.09598525,-0.08889921,-46.6267,-23.21944,34.61877
17.786035538,49.23772,12.62888,16.6821,1.173992,-0.0502134,0.04643239,-46.6267,-23.21944,34.61877
17.795893192,57.8097200000002,12.92643,17.96947,1.088923,0.1128207,0.1223383,-46.6267,-23.21944,34.61877
17.805751324,54.45546,13.10495,18.5825,1.018943,0.2307803,0.0812032,-46.6267,-23.21944,34.61877
17.815609455,48.49233,11.97428,19.68595,1.008317,0.2607761,0.1894277,-46.25819,-22.86184,34.16497
17.82546711,42.40497,14.41415,18.33729,1.022486,0.203286,0.1374662,-46.25819,-22.86184,34.16497
17.835325241,41.72169,16.13991,17.11123,1.02103,0.116154,0.1333972,-46.25819,-22.86184,34.16497
17.845182896,43.02613,18.22272,19.13422,0.9894102,0.01792464,0.09612053,-46.25819,-22.86184,34.16497
17.855041027,43.33671,17.3896,19.74725,0.9063442,-0.03594876,0.1998776,-46.25819,-22.86184,34.16497
17.864899158,35.57222,14.29513,19.68595,0.8013484,-0.0788165,0.176094,-47.02243,-21.39755,32.93749
17.877221107,20.78863,9.95097999999998,27.77795,0.6739104,0.005944162,-0.0178462,-47.02243,-21.39755,32.93749
17.887078762,8.48967900000002,3.464506,30.41397,0.5495283,0.1233413,-0.2101168,-47.02243,-21.39755,32.93749
17.896936893,3.334059,-5.164289,30.04616,0.4393394,0.2616418,-0.3118447,-47.02243,-21.39755,32.93749
17.906794548,3.706754,-18.91085,26.06146,0.3145743,0.4208345,-0.3877909,-47.02243,-21.39755,32.93749
17.916653156,3.830986,-37.77518,21.27983,0.1911572,0.6458339,-0.306982,-47.7839,-19.92791,32.09409
17.926511288,-13.6857,-55.8659,13.06523,0.2802607,0.8491217,-0.159422,-47.7839,-19.92791,32.09409
17.936369419,-47.10406,-59.9125100000001,7.54795700000002,0.4307168,0.8569599,-0.2410474,-47.7839,-19.92791,32.09409
17.946227074,-79.90127,-58.7818399999998,5.95407899999997,0.4627739,0.5546979,-0.5957875,-47.7839,-19.92791,32.09409
17.956085205,-81.4541599999998,-62.5904099999998,0.8659304,0.4491421,0.1193674,-0.9021213,-47.7839,-19.92791,32.09409
17.96594286,-56.29722,-68.89836,-5.325672,0.4774908,-0.2438468,-1.151899,-47.02849,-19.17708,33.74705
17.975800991,-18.65498,-78.30077,-8.39082200000002,0.4878373,-0.2577583,-1.122933,-47.02849,-19.17708,33.74705
17.985659122,22.83846,-93.0589799999998,-15.37936,0.4758869,0.1048304,-0.8192444,-47.02849,-19.17708,33.74705
17.995516777,46.38039,-106.8651,-22.98093,0.5652819,0.4620451,-0.3713692,-47.02849,-19.17708,33.74705
18.005374908,37.93262,-111.6853,-23.53266,0.6551811,0.7143824,-0.1222955,-47.02849,-19.17708,33.74705
18.015232563,12.0924,-117.2791,-26.4139,0.6707693,0.8185773,-0.1432023,-45.88179,-20.62876,36.18886
18.025090694,-11.57376,-128.4668,-29.29514,0.7351211,0.7894395,-0.1496366,-45.88179,-20.62876,36.18886
18.034948826,-43.19076,-130.6091,-28.74342,0.8191104,0.7375261,-0.5657793,-45.88179,-20.62876,36.18886
18.047271252,-94.3121600000003,-132.5134,-27.51736,0.8014624,0.2779604,-0.5780318,-45.88179,-20.62876,36.18886
18.057128906,-93.25619,-124.0036,-23.10354,0.7301109,-0.1470867,-0.7310706,-45.88179,-20.62876,36.18886
18.066987038,-68.1613599999999,-116.0889,-31.44075,0.7366428,-0.5029811,-0.9239303,-42.92434,-20.60466,40.33463
18.076845169,-15.85976,-110.7331,-35.60935,0.8381101,-0.7088765,-0.6601999,-42.92434,-20.60466,40.33463
18.086702824,37.24935,-105.1988,-36.71281,1.009206,-0.5890033,-0.2418481,-42.92434,-20.60466,40.33463
18.096560955,64.7666999999999,-95.8558999999999,-32.29899,1.044738,-0.09130978,-0.3555582,-42.92434,-20.60466,40.33463
18.10641861,64.0213099999999,-98.5933200000003,-30.15339,1.008789,0.3228408,-0.2595443,-42.92434,-20.60466,40.33463
18.116276741,51.1012,-96.8675499999998,-33.34114,1.14679,0.4682389,-0.09304354,-38.38843,-23.47168,45.27004
18.126134872,22.77634,-87.5246499999997,-32.85072,1.098433,0.5453317,-0.7012454,-38.38843,-23.47168,45.27004
18.135992527,12.21663,-83.1209899999999,-31.80857,0.9155012,0.7079803,-0.6268232,-38.38843,-23.47168,45.27004
18.145850658,7.86851999999999,-80.2050599999998,-38.49059,0.7861627,0.7074574,-0.461098,-38.38843,-23.47168,45.27004
18.155708313,7.49582399999998,-76.6940300000002,-41.43314,0.7638514,0.5395503,-0.4152355,-38.38843,-23.47168,45.27004
18.165566444,20.6644,-72.9449599999998,-37.57105,0.7213112,0.2802835,-0.6775017,-33.56309,-23.84265,49.02584
18.175424576,26.75176,-74.7302299999999,-35.48675,0.8609059,-0.01991553,-0.6067905,-33.56309,-23.84265,49.02584
18.18528223,49.17561,-75.8609000000002,-27.70127,1.110326,-0.1729585,-0.3533485,-33.56309,-23.84265,49.02584
18.195140362,57.4991399999999,-73.183,-25.31045,1.263565,-0.03483386,-0.475125,-33.56309,-23.84265,49.02584
18.204998016,50.29369,-71.8738,-20.52881,1.152982,0.201488,-0.5194745,-33.56309,-23.84265,49.02584
18.214856148,29.23639,-71.6952699999997,-23.04224,1.123491,0.1794885,-0.4770703,-30.18003,-24.21579,51.44475
18.227178574,16.75109,-69.0173700000001,-19.97709,1.01848,-0.01513954,-0.7431719,-30.18003,-24.21579,51.44475
18.237036705,15.32243,-63.8400999999999,-12.55943,0.8592157,-0.1473889,-0.9864098,-30.18003,-24.21579,51.44475
18.24689436,21.96883,-60.98367,-7.71648900000002,0.6096976,0.05078318,-0.8843827,-30.18003,-24.21579,51.44475
18.256752491,22.71422,-55.2113,-7.53257999999997,0.3398204,0.3370079,-0.8704536,-30.18003,-24.21579,51.44475
18.266610622,32.15585,-51.8788,-4.896551,0.06659635,0.6661582,-0.561886,-26.80099,-23.17057,54.36132
18.276468277,34.39202,-55.50885,-17.09585,0.05660799,0.9810545,-0.2638993,-26.80099,-23.17057,54.36132
18.286326408,26.31695,-51.64077,-30.5212,0.7964058,0.8068153,-0.5912269,-26.80099,-23.17057,54.36132
18.296184063,36.44184,-52.89045,-33.64766,1.363248,0.4365417,-0.7509825,-26.80099,-23.17057,54.36132
18.306042194,37.68416,-48.60581,-18.38321,1.506256,0.2515914,-0.5796738,-26.80099,-23.17057,54.36132
18.315900326,21.8446,-40.33407,-7.90039899999997,0.9407757,0.3684582,-0.6506544,-23.86198,-22.06608,56.7674
18.32575798,4.82484,-42.41688,-6.61303499999999,0.6469601,0.2197925,-0.8015444,-23.86198,-22.06608,56.7674
18.335616112,-4.803127,-41.10769,-0.4827355,0.4870356,0.09858407,-1.083495,-23.86198,-22.06608,56.7674
18.345473766,-10.20721,-36.82304,6.3832,0.3273095,-0.02769825,-1.032447,-23.86198,-22.06608,56.7674
18.355331898,-12.07069,-39.32242,9.325744,0.2168798,0.08443166,-0.4572839,-23.86198,-22.06608,56.7674
18.365190029,1.03577,-39.08438,1.417657,0.3977869,0.6081708,-0.327496,-20.87018,-21.35273,57.57659
18.375047684,-4.492547,-41.82179,-17.95409,1.0481,0.6562163,-0.5994396,-20.87018,-21.35273,57.57659
18.384905815,19.85689,-53.90211,-20.52881,1.780692,0.6309637,-0.4989197,-20.87018,-21.35273,57.57659
18.397228241,34.88894,-53.72358,-10.10731,2.434325,0.2637084,-0.3186968,-20.87018,-21.35273,57.57659
18.407086372,27.37292,-40.63161,-3.363976,1.785021,0.04355417,-0.2676934,-20.87018,-21.35273,57.57659
18.416944027,34.3299,-35.93041,3.134141,1.357248,-0.167409,-0.753598,-19.37129,-20.99027,58.39727
18.426802158,36.00703,-35.33532,17.35644,1.097948,-0.2002544,-0.8546451,-19.37129,-20.99027,58.39727
18.43666029,31.41045,-29.92001,26.30667,1.009958,-0.01917776,-0.7617732,-19.37129,-20.99027,58.39727
18.446517944,24.76405,-20.69612,30.41397,0.9006116,0.2220259,-0.6752777,-19.37129,-20.99027,58.39727
18.456376076,20.6644,-13.07898,30.53658,0.8206896,0.4079876,-0.5963765,-19.37129,-20.99027,58.39727
18.46623373,19.17362,-12.30536,23.85456,0.9506206,0.3865439,-0.5226958,-17.12419,-20.26294,59.5944
18.476091862,27.99408,-13.67407,19.25683,1.264961,0.2180907,-0.5089504,-17.12419,-20.26294,59.5944
18.485949993,57.87183,-15.69737,15.94647,1.591095,0.02531464,-0.261729,-17.12419,-20.26294,59.5944
18.495807648,81.7243399999999,-8.73482500000002,15.27213,1.791184,-0.05656242,-0.1191159,-17.12419,-20.26294,59.5944
18.505665779,110.484,-3.855092,10.61311,1.542818,0.1772561,-0.116478,-17.12419,-20.26294,59.5944
18.515523434,112.4096,-6.94955700000003,7.18013899999999,1.331592,0.3103823,-0.06202808,-16.38075,-19.53528,59.583
18.525381565,98.1850599999998,-20.5771,2.70502,1.165389,0.4078663,-0.1455717,-16.38075,-19.53528,59.583
18.535239697,75.5748700000002,-43.25001,5.15714,1.001672,0.445662,-0.7093331,-16.38075,-19.53528,59.583
18.545097351,70.6056000000001,-66.4584900000002,13.80086,0.7509819,0.7147588,-1.025511,-16.38075,-19.53528,59.583
18.554955483,55.26297,-106.627,11.90047,0.7153528,1.03629,-0.8440276,-16.38075,-19.53528,59.583
18.564813137,-10.02086,-135.0723,3.501959,1.028651,0.961955,-0.644502,-17.14105,-16.57523,60.00479
18.57713604,-77.9756700000002,-143.9986,8.467502,1.356389,0.5734518,-0.5594872,-17.14105,-16.57523,60.00479
18.586993694,-100.8964,-136.5005,10.18399,1.332294,0.1159233,-0.7915831,-17.14105,-16.57523,60.00479
18.596851826,-64.4965199999998,-127.5147,7.24144199999999,1.170801,0.03361819,-0.6879066,-17.14105,-16.57523,60.00479
18.60670948,-7.66045899999998,-118.5883,-6.429126,1.197986,0.1303571,-0.2595525,-17.14105,-16.57523,60.00479
18.616567612,15.94359,-95.4988500000002,-17.03454,1.360456,0.1043588,0.07958166,-14.59727,-14.76399,59.97274
18.626425743,22.03095,-69.2554100000002,-16.42151,1.290968,0.02551565,-0.2780553,-14.59727,-14.76399,59.97274
18.636283398,51.16331,-43.01197,-7.47127699999998,1.14828,0.0769485,-0.7586206,-14.59727,-14.76399,59.97274
18.646141529,89.7373000000001,-29.38443,-4.283521,1.025132,0.1630677,-0.6008781,-14.59727,-14.76399,59.97274
18.655999184,101.7878,-11.29371,-12.55943,1.11373,0.2553234,-0.08574363,-14.59727,-14.76399,59.97274
18.665857315,85.7618799999997,19.65094,-18.1993,1.247748,0.2429919,0.3315417,-9.352224,-17.77583,59.52776
18.675715446,60.97763,58.74831,-15.80848,1.246786,0.04397907,0.3370639,-9.352224,-17.77583,59.52776
18.685573101,50.85273,94.87023,-3.977006,1.177887,-0.2578456,0.07768933,-9.352224,-17.77583,59.52776
18.695431232,72.2827200000003,126.2909,12.32959,1.072065,-0.3587999,-0.3807275,-9.352224,-17.77583,59.52776
18.705288887,107.7509,151.2252,22.13807,0.8837932,-0.2547966,-0.7495044,-9.352224,-17.77583,59.52776
18.715147018,133.0321,172.5889,23.73195,0.7156579,0.06539094,-0.7429682,-9.753477,-15.96463,57.07832
18.72500515,112.6581,192.3459,16.4982,0.76877,0.442196,-0.1760483,-9.753477,-15.96463,57.07832
18.734862804,51.47389,221.3862,6.19929100000001,0.9677169,0.6463947,-0.04490143,-9.753477,-15.96463,57.07832
18.747185707,-31.88566,256.0204,3.869777,1.020108,0.6274559,-0.4171875,-9.753477,-15.96463,57.07832
18.757043362,-79.7770400000002,276.313,7.793169,0.8985957,0.616374,-0.6196882,-17.23337,-12.35157,50.42212
18.766901493,-119.1585,289.643,5.95407899999997,0.8734019,0.5756955,-0.6374028,-17.23337,-12.35157,50.42212
18.776759148,-147.2349,303.6276,6.3832,1.003241,0.4888033,-0.6280066,-17.23337,-12.35157,50.42212
18.786617279,-151.3967,321.8373,8.03838099999998,1.210296,0.2418644,-0.6579601,-17.23337,-12.35157,50.42212
18.796474934,-128.3517,337.1311,13.67826,1.266012,-0.04446339,-0.8423079,-17.23337,-12.35157,50.42212
18.806333065,-78.4104799999998,350.1041,18.33729,1.216592,-0.1572791,-0.8344094,-17.23337,-12.35157,50.42212
18.816191196,-24.24541,355.6384,14.5978,1.1282,-0.01551065,-0.841537,-27.35178,-12.78208,37.67496
18.826048851,7.12312899999999,359.9825,3.501959,1.152637,0.2103431,-0.7522857,-27.35178,-12.78208,37.67496
18.835906982,9.35930300000001,368.9089,-9.37167100000003,1.265418,0.4757121,-0.7152345,-27.35178,-12.78208,37.67496
18.845764637,-16.29457,376.7046,-20.71272,1.315106,0.6708443,-0.7027951,-27.35178,-12.78208,37.67496
18.855622768,-67.6023199999998,381.0487,-30.82772,1.403904,0.8630862,-0.5155505,-27.35178,-12.78208,37.67496
18.8654809,-129.9667,380.3941,-35.24154,1.484409,1.012327,-0.6155911,-34.53291,-16.14181,24.11002
18.875338554,-202.7044,378.7874,-29.96948,1.603406,0.967875,-0.6823542,-34.53291,-16.14181,24.11002
18.885196686,-254.447,363.3745,-18.38321,1.721701,0.8397884,-0.7306451,-34.53291,-16.14181,24.11002
18.89505434,-285.567,342.9035,-10.16861,1.813021,0.5632934,-0.8425791,-34.53291,-16.14181,24.11002
18.904912949,-270.9077,327.0741,11.47135,1.682376,0.2353686,-1.168382,-34.53291,-16.14181,24.11002
18.91477108,-193.5734,299.0454,42.36806,1.499676,0.07045303,-1.113979,-38.30019,-17.76619,10.18909
18.927093029,-93.6288800000001,270.4216,44.26845,1.22592,-0.005859133,-1.09347,-38.30019,-17.76619,10.18909
18.93695116,-15.05225,255.0683,21.27983,1.020466,-0.2568909,-1.240733,-38.30019,-17.76619,10.18909
18.946808815,53.8343,242.5714,-7.53257999999997,0.7772481,-0.2640353,-1.144362,-38.30019,-17.76619,10.18909
18.956666946,108.0615,221.7433,-34.99632,0.5199209,0.09087609,-1.010711,-39.12687,-19.77113,-2.206873
18.966524601,124.5843,192.1673,-43.21092,0.5541131,0.4636293,-0.8302696,-39.12687,-19.77113,-2.206873
18.976382732,89.05402,163.9006,-34.32199,0.7476113,0.6791255,-0.6582178,-39.12687,-19.77113,-2.206873
18.986241341,22.83846,140.097,-24.57481,0.7917941,0.7169354,-0.542083,-39.12687,-19.77113,-2.206873
18.996099472,-31.20239,117.4241,-21.44836,0.7246826,0.4956894,-0.5995392,-39.12687,-19.77113,-2.206873
19.005957127,-47.16618,97.8456800000003,-22.00009,0.6916589,0.224062,-0.6770744,-39.12687,-19.77113,-2.206873
19.015815258,-36.60647,83.0279500000002,-21.57097,0.7074944,0.149471,-0.6218633,-38.79179,-19.85029,-7.585965
19.025672913,-23.74848,72.1973300000001,-23.59397,0.7376003,0.119323,-0.5573757,-38.79179,-19.85029,-7.585965
19.035531044,-16.23246,66.36545,-24.3909,0.7219707,0.1383674,-0.5028426,-38.79179,-19.85029,-7.585965
19.045389175,-15.17648,60.4740700000002,-26.10739,0.6618011,0.1904279,-0.4924409,-38.79179,-19.85029,-7.585965
19.05524683,-19.64883,50.77411,-26.3526,0.6085655,0.2314795,-0.4496454,-38.79179,-19.85029,-7.585965
19.065104961,-30.58123,38.15821,-24.69742,0.5609593,0.2640793,-0.4678597,-36.93979,-21.76428,-11.28957
19.074962616,-43.74981,23.99509,-20.59012,0.4950266,0.2730193,-0.5233901,-36.93979,-21.76428,-11.28957
19.084820747,-59.4651300000003,5.428301,-17.89279,0.4605821,0.1913951,-0.537964,-36.93979,-21.76428,-11.28957
19.097143173,-61.0180300000003,-18.5538,-14.76633,0.479886,0.1019298,-0.5643918,-36.93979,-21.76428,-11.28957
19.107001305,-58.4091599999999,-30.27706,-14.95024,0.5324751,0.08808707,-0.4871486,-36.57602,-22.15991,-12.95209
19.116858959,-60.0241699999997,-37.41813,-16.48282,0.5255867,0.1053734,-0.4030446,-36.57602,-22.15991,-12.95209
19.126717091,-67.22962,-43.30952,-18.44451,0.4415285,0.1619093,-0.3108008,-36.57602,-22.15991,-12.95209
19.136575222,-81.8268600000002,-51.40273,-17.15715,0.3660753,0.194543,-0.254342,-36.57602,-22.15991,-12.95209
19.146432877,-97.1073799999999,-61.0431799999999,-13.54027,0.3723271,0.1937273,-0.2271236,-36.57602,-22.15991,-12.95209
19.156291008,-104.9961,-66.2799700000002,-10.72034,0.4847378,0.138954,-0.1759969,-36.58079,-21.79711,-13.33994
19.166148663,-101.0207,-65.8038899999999,-11.08815,0.5852463,0.04461938,-0.1355768,-36.58079,-21.79711,-13.33994
19.176006794,-83.44187,-62.5308999999999,-15.19546,0.6127892,-0.05415327,-0.06827739,-36.58079,-21.79711,-13.33994
19.185864925,-54.62009,-58.4842899999998,-20.89663,0.6150399,-0.1002984,-0.05144773,-36.58079,-21.79711,-13.33994
19.19572258,-26.60581,-56.22295,-25.49436,0.6076244,-0.06558631,0.009330039,-36.58079,-21.79711,-13.33994
19.205580711,-12.56762,-54.73523,-29.29514,0.6264766,0.05936902,0.06666144,-35.82861,-21.05252,-12.13509
19.215438366,-16.10822,-57.11559,-32.17638,0.6232154,0.1715422,0.1414513,-35.82861,-21.05252,-12.13509
19.225296497,-36.48224,-65.1492900000002,-33.15723,0.5958515,0.2520836,0.1430002,-35.82861,-21.05252,-12.13509
19.235154629,-70.2732999999999,-76.1584500000003,-28.13039,0.5595808,0.2567602,0.178059,-35.82861,-21.05252,-12.13509
19.245012283,-101.7661,-89.2504099999999,-19.73188,0.6247492,0.2203967,0.1892825,-35.82861,-21.05252,-12.13509
19.254870415,-119.5933,-94.4872000000002,-13.66288,0.8849811,0.1300691,0.1426417,-35.82861,-21.05252,-12.13509
19.267192841,-113.009,-87.8221999999998,-10.72034,1.194871,-0.1007946,0.1338806,-36.19438,-20.28874,-10.47634
19.277050972,-78.9074100000001,-81.09769,-13.66288,1.301749,-0.2329341,0.06990466,-36.19438,-20.28874,-10.47634
19.286908627,-27.59967,-77.5271499999999,-21.93878,1.300809,-0.2549019,0.05343987,-36.19438,-20.28874,-10.47634
19.296766758,15.13608,-78.3602799999999,-30.82772,1.12097,-0.09147591,0.06840381,-36.19438,-20.28874,-10.47634
19.306624413,28.491,-83.5375500000001,-35.30284,0.9760879,0.1291735,0.07808129,-35.87701,-19.16473,-8.824899
19.316482544,10.47739,-90.02403,-34.07678,0.9026263,0.2834856,0.1364969,-35.87701,-19.16473,-8.824899
19.326340675,-28.96622,-101.3307,-31.13423,0.8649979,0.3029101,0.08496442,-35.87701,-19.16473,-8.824899
19.33619833,-69.59003,-117.3981,-21.75488,1.059006,0.3096432,0.2542887,-35.87701,-19.16473,-8.824899
19.346056461,-63.6269,35.53982,5.647564,4.724061,-0.6208819,8.168077,-35.87701,-19.16473,-8.824899
19.355914116,-153.1359,69.7574599999998,-11.51728,5.572211,1.547813,3.927148,-36.16698,-18.74755,-5.562356
19.365772247,-79.4043399999998,29.70795,-71.6555200000002,1.315179,-1.30864,-1.075547,-36.16698,-18.74755,-5.562356
19.375630379,18.86304,-81.8713100000001,-10.22991,-0.1584859,-1.317105,-2.058059,-36.16698,-18.74755,-5.562356
19.385488033,12.40298,-163.9341,11.71656,0.7444353,0.002663363,-0.4099058,-36.16698,-18.74755,-5.562356
19.395346165,-42.07267,-135.9054,5.708868,2.844022,0.9580278,0.379038,-36.16698,-18.74755,-5.562356
19.405203819,-82.1995499999997,-109.3644,-18.99624,2.170425,0.7267234,0.1097091,-36.17376,-18.0166,-5.95398
19.415061951,-94.1879299999998,-87.1080900000001,-15.86979,0.9061075,0.03187753,-0.008956733,-36.17376,-18.0166,-5.95398
19.424920082,-66.7326899999997,-61.5192499999999,-9.003853,0.3099664,-0.09803814,-0.2852427,-36.17376,-18.0166,-5.95398
19.43477869,-22.56828,-52.94996,-12.13031,0.07883526,-0.1006381,-0.3030552,-36.17376,-18.0166,-5.95398
19.447100639,7.620056,-49.31992,-26.3526,0.5756994,-0.04811032,-0.05619699,-36.17376,-18.0166,-5.95398
19.456958294,33.70874,-42.59541,-30.5212,1.12378,-0.2976527,-0.1581208,-36.89374,-18.69882,-2.677873
19.466816425,70.1086699999998,-43.48804,-30.82772,1.23571,-0.2041422,-0.01181265,-36.89374,-18.69882,-2.677873
19.47667408,79.8608699999998,-45.45184,-26.78172,1.373718,-0.2623627,0.2272456,-36.89374,-18.69882,-2.677873
19.486532211,79.4260600000002,-44.38068,-22.00009,1.171422,-0.1019174,0.2789236,-36.89374,-18.69882,-2.677873
19.496390343,62.2199500000002,-42.65492,-15.62458,0.9971907,0.1033074,0.5265722,-36.89374,-18.69882,-2.677873
19.506248951,30.78929,-34.50219,-7.90039899999997,0.8562854,0.223893,0.7040266,-36.13632,-18.31614,-1.021147
19.516106606,12.34087,-25.63536,-10.16861,0.5884607,0.3265892,0.563513,-36.13632,-18.31614,-1.021147
19.525964737,16.93744,-34.97826,-21.87748,0.3571196,0.2311965,0.1975008,-36.13632,-18.31614,-1.021147
19.535822392,44.51691,-47.35612,-27.21084,0.5902827,0.1713423,0.165879,-36.13632,-18.31614,-1.021147
19.545680523,60.97763,-55.38983,-28.06908,1.104153,0.06127404,0.2251932,-36.13632,-18.31614,-1.021147
19.555538654,83.2772399999998,-54.37818,-25.80087,1.198037,0.3634433,0.1286486,-35.8069,-19.40102,0.652914
19.565396309,77.00353,-64.0186199999999,-32.17638,0.9675582,0.5316162,-0.1575213,-35.8069,-19.40102,0.652914
19.57525444,68.18307,-78.4197800000001,-36.77411,0.8102111,0.5460284,-0.09525715,-35.8069,-19.40102,0.652914
19.585112095,38.18109,-87.7626899999999,-33.27984,1.039337,0.2259542,0.1733573,-35.8069,-19.40102,0.652914
19.594970226,36.25549,-80.0265300000001,-29.96948,1.084883,0.07800331,0.1901483,-35.8069,-19.40102,0.652914
19.604827881,55.20085,-70.20756,-34.75111,0.9532762,0.06297549,-0.002657765,-35.78419,-19.72908,3.537307
19.617150783,71.7858000000003,-61.9953199999999,-34.4446,0.8985242,0.2325691,-0.06561727,-35.78419,-19.72908,3.537307
19.627008438,71.3509900000001,-51.93831,-33.58635,0.8486899,0.4871124,-0.1954971,-35.78419,-19.72908,3.537307
19.636866569,82.6560799999997,-47.53465,-42.04617,0.8401014,0.6753641,-0.1933067,-35.78419,-19.72908,3.537307
19.646724701,75.3885200000003,-57.29412,-47.31823,0.9025317,0.6546016,-0.2973996,-35.78419,-19.72908,3.537307
19.656582355,50.7285,-69.7314800000003,-30.33729,1.306302,0.08618595,-0.3558713,-35.00753,-21.16932,6.493161
19.666440487,67.43768,-69.1363899999999,-15.99239,1.49816,0.1052396,-0.01054623,-35.00753,-21.16932,6.493161
19.676298141,57.7476000000001,-64.6732299999999,-16.60542,1.394528,0.3570041,-0.1056596,-35.00753,-21.16932,6.493161
19.686156273,47.56059,-61.1622000000002,-12.86594,1.178872,0.429491,-0.2500468,-35.00753,-21.16932,6.493161
19.696014404,26.06848,-58.6033100000001,-6.91955000000002,1.051359,0.5701586,-0.3285062,-35.00753,-21.16932,6.493161
19.705872059,22.52788,-53.90211,-5.08046,1.048975,0.4392271,-0.331494,-33.49312,-21.52087,8.92173
19.71573019,27.3108,-43.13099,-0.1762206,1.175909,0.3410881,-0.3298185,-33.49312,-21.52087,8.92173
19.725587845,36.81454,-29.56295,4.176292,1.213986,0.3321269,-0.3438545,-33.49312,-21.52087,8.92173
19.735445976,42.5292,-18.25625,3.808474,1.302327,0.2128023,-0.320723,-33.49312,-21.52087,8.92173
19.745304108,52.90256,-10.5796,4.360201,1.366068,-0.0830291,-0.4630959,-33.49312,-21.52087,8.92173
19.755161762,53.71007,-4.866744,12.88132,1.319105,0.03239974,-0.3253598,-32.35876,-21.13627,11.02462
19.765019894,39.92033,-6.47348499999999,15.39474,1.27419,0.2995752,-0.08334434,-32.35876,-21.13627,11.02462
19.774877548,22.03095,-5.342815,16.4982,1.426409,0.3276329,0.1615107,-32.35876,-21.13627,11.02462
19.787200451,9.297187,3.28598,18.09207,1.386409,0.3505571,0.01084721,-32.35876,-21.13627,11.02462
19.797058105,11.71971,8.87982000000001,17.78556,1.225744,0.2563128,-0.08637337,-32.35876,-21.13627,11.02462
19.806916237,23.21115,12.15281,15.14953,1.105902,0.1008087,-0.006430566,-32.72219,-21.48407,12.18257
19.816773891,34.45413,15.90187,15.57865,0.9962559,0.05357259,-0.01628807,-32.72219,-21.48407,12.18257
19.826632023,42.5292,14.94973,16.13038,0.8893331,0.07744785,-0.01504186,-32.72219,-21.48407,12.18257
19.836490154,43.27459,10.01049,15.88517,0.8891662,0.1070994,0.1064482,-32.72219,-21.48407,12.18257
19.846347809,37.80839,5.309284,19.01162,0.9180025,0.1779226,0.2384148,-32.72219,-21.48407,12.18257
19.85620594,20.41593,2.69089,21.83156,0.9282828,0.2599854,0.1675601,-32.35524,-20.75743,11.78901
19.866063595,6.56408599999997,0.4890598,25.14192,0.8992196,0.2978368,0.07868347,-32.35524,-20.75743,11.78901
19.875922203,-4.368315,-1.415226,24.7128,0.9504237,0.1780594,0.06879645,-32.35524,-20.75743,11.78901
19.885780334,-1.883678,1.381694,23.54804,0.9782531,0.02588141,0.03836355,-32.35524,-20.75743,11.78901
19.895638466,10.60162,1.500712,21.03462,0.8898163,-0.1059351,0.002571588,-32.35524,-20.75743,11.78901
19.90549612,23.95654,-1.355717,19.68595,0.7627531,-0.1792833,-0.05182359,-33.10471,-20.38065,11.78911
19.915354252,37.00089,-4.093128,20.36028,0.6583608,-0.1718268,-0.02295845,-33.10471,-20.38065,11.78911
19.925211906,33.64663,-9.865495,25.57104,0.5880179,0.03518728,-0.1917622,-33.10471,-20.38065,11.78911
19.935070038,11.71971,-16.53049,28.14577,0.5460349,0.3194535,-0.3296494,-33.10471,-20.38065,11.78911
19.944928169,-16.85361,-22.65992,26.8584,0.5812534,0.3857579,-0.3794286,-33.10471,-20.38065,11.78911
19.954785824,-36.23378,-25.27831,29.00401,0.5870891,0.2436433,-0.3993999,-33.09718,-20.73811,12.56104
19.967108726,-29.46315,-30.63411,27.53273,0.5236726,0.204914,-0.4558477,-33.09718,-20.73811,12.56104
19.976966381,-10.76625,-37.8942,20.17637,0.4984933,0.293079,-0.5026647,-33.09718,-20.73811,12.56104
19.986824512,8.92449099999999,-44.49969,11.71656,0.5020818,0.3903132,-0.4050969,-33.09718,-20.73811,12.56104
19.996682167,17.62072,-45.74938,6.26059400000001,0.6203138,0.4153768,-0.3591297,-33.09718,-20.73811,12.56104
20.006540298,15.01185,-42.00032,2.643717,0.7230152,0.2918634,-0.5782341,-33.4697,-20.35941,13.0073
20.01639843,16.3784,-40.45309,1.049839,0.7301701,0.1513497,-0.8229552,-33.4697,-20.35941,13.0073
20.026256084,20.54017,-43.66657,0.682021400000003,0.7271249,0.1563098,-0.7907636,-33.4697,-20.35941,13.0073
20.036114216,18.36611,-49.37943,0.0689914200000002,0.6910138,0.3644349,-0.744406,-33.4697,-20.35941,13.0073
20.04597187,14.26646,-57.8296999999997,-1.463584,0.6260866,0.6620684,-0.5080779,-33.4697,-20.35941,13.0073
20.055830002,-1.510983,-66.8155399999999,-5.754793,0.5876622,0.9529378,-0.450926,-32.3378,-19.60755,15.04241
20.065688133,-20.39422,-75.8013899999997,-12.74334,0.5896437,1.086601,-0.3674039,-32.3378,-19.60755,15.04241
20.075545788,-33.62491,-79.8479999999999,-19.85448,0.6536874,0.9374594,-0.3226138,-32.3378,-19.60755,15.04241
20.085403919,-38.03514,-80.7406399999997,-23.53266,0.6989489,0.6479768,-0.4153122,-32.3378,-19.60755,15.04241
20.095261574,-27.10274,-79.9670200000002,-25.24915,0.7287486,0.2978401,-0.2960168,-32.3378,-19.60755,15.04241
20.105119705,-8.46796500000002,-75.97992,-26.78172,0.8023319,-0.0935581,-0.1235441,-31.94533,-20.31965,17.09646
20.11497736,0.4146104,-66.8155399999999,-22.49051,0.964544,-0.3611367,-0.2311421,-31.94533,-20.31965,17.09646
20.124835491,23.89443,-59.2579099999998,-14.58243,1.028159,-0.5004708,-0.4244253,-31.94533,-20.31965,17.09646
20.137157917,52.40563,-60.3290700000003,-13.29506,1.175145,-0.6235509,-0.3734094,-31.94533,-20.31965,17.09646
20.147016048,66.3195999999999,-62.7094300000001,-9.49427599999999,1.173544,-0.3993708,-0.1501045,-31.94533,-20.31965,17.09646
20.15687418,62.7168700000002,-64.4947000000002,-4.344824,1.111253,-0.09327863,1.572073e-06,-31.19068,-19.94232,18.3691
20.166731834,36.19338,-66.8750499999998,3.379353,1.054081,0.2151224,-0.1542375,-31.19068,-19.94232,18.3691
20.176589966,-0.579244300000001,-71.5167499999997,8.89662299999997,1.041598,0.3625519,-0.2582392,-31.19068,-19.94232,18.3691
20.18644762,-29.15257,-76.1584500000003,15.76256,1.045035,0.3757679,-0.2457175,-31.19068,-19.94232,18.3691
20.196305752,-38.71841,-75.2658200000001,17.04992,1.065925,0.2626967,-0.2124671,-31.19068,-19.94232,18.3691
20.206163883,-31.76143,-75.0872899999998,14.29129,1.099289,0.08828688,-0.2153729,-30.42929,-19.17991,20.85424
20.216021538,-10.45567,-75.7418799999999,13.18783,1.096274,0.05397959,-0.1437396,-30.42929,-19.17991,20.85424
20.225880146,-2.691185,-72.8854600000002,15.88517,1.014323,0.1923577,-0.2913932,-30.42929,-19.17991,20.85424
20.235738277,-9.52393499999999,-75.9204100000001,20.7281,0.8945457,0.3423447,-0.3684466,-30.42929,-19.17991,20.85424
20.245595932,-20.20787,-80.4430900000003,23.79325,0.9802309,0.3248427,-0.3070404,-30.42929,-19.17991,20.85424
20.255454063,-24.68022,-86.6320200000001,24.95801,1.132522,0.1670418,-0.1845132,-29.29739,-18.42805,22.88934
20.265312195,-21.20173,-87.4651500000001,28.20707,1.20467,0.01848394,-0.2625087,-29.29739,-18.42805,22.88934
20.275169849,-16.72938,-86.3344700000001,34.82779,1.079554,-0.05503701,-0.4971121,-29.29739,-18.42805,22.88934
20.285027981,-26.04677,-84.1326399999999,43.71672,0.9299377,0.006264614,-0.7953997,-29.29739,-18.42805,22.88934
20.294885635,-37.1034,-81.27621,49.90833,0.7904836,0.1798351,-0.8954543,-29.29739,-18.42805,22.88934
20.307208538,-43.31499,-76.99157,55.91602,0.5461129,0.1786263,-0.7707441,-28.16826,-17.68154,24.54036
20.317066193,-37.4761,-73.3020199999998,52.72827,0.4630311,0.1907115,-0.466604,-28.16826,-17.68154,24.54036
20.326924324,-26.35735,-75.2658200000001,47.08839,0.6880164,0.1999858,-0.211923,-28.16826,-17.68154,24.54036
20.336781979,-22.50616,-79.6099600000003,42.61327,0.9936941,0.2077753,-0.2837811,-28.16826,-17.68154,24.54036
20.34664011,-13.43724,-87.8817100000003,40.22245,1.314157,0.04978128,-0.350061,-28.16826,-17.68154,24.54036
20.356498242,0.2903785,-96.3319800000002,44.57497,1.513703,-0.05959112,-0.2714057,-26.66539,-16.93935,26.18946
20.366355896,13.45895,-104.6632,54.81257,1.640747,0.07225593,-0.05933915,-26.66539,-16.93935,26.18946
20.376214027,7.37159299999998,-111.2092,62.7206499999999,1.657025,0.3895143,0.1577877,-26.66539,-16.93935,26.18946
20.386071682,-30.27065,-114.1847,66.8279499999997,1.247362,0.4292572,-0.2146058,-26.66539,-16.93935,26.18946
20.395929813,-61.5770699999997,-121.3257,78.5368300000001,0.9586868,0.4401685,-0.3862656,-26.66539,-16.93935,26.18946
20.405787945,-101.4555,-121.8613,84.2993099999999,0.9538242,0.4902635,-0.7705706,-25.59303,-16.18143,28.60897
20.415645599,-121.8916,-118.1718,87.9161800000001,1.107511,0.5491229,-0.7497419,-25.59303,-16.18143,28.60897
20.425503731,-124.1278,-110.6141,81.2341499999999,1.209953,0.3729644,-0.6036577,-25.59303,-16.18143,28.60897
20.435361385,-91.3305999999998,-103.9491,74.4908300000001,1.255862,0.03196707,-0.5506442,-25.59303,-16.18143,28.60897
20.445219517,-41.26517,-101.6878,70.1383099999998,1.431263,-0.1579548,-0.4838254,-25.59303,-16.18143,28.60897
20.455077648,24.51558,-101.9853,66.2149199999998,1.760986,-0.3147949,-0.2646247,-23.3427,-15.44787,30.25419
20.464935303,97.2533300000002,-101.3307,64.92756,1.986654,-0.3395544,-0.1333949,-23.3427,-15.44787,30.25419
20.474793911,145.331,-105.3178,68.4218299999999,1.839041,-0.1522373,0.07730392,-23.3427,-15.44787,30.25419
20.48711586,160.0525,-116.8626,84.2993099999999,1.666491,0.1106501,-0.00331571,-23.3427,-15.44787,30.25419
20.496973992,146.8839,-119.6,106.3071,1.654953,0.3652184,-0.08725877,-23.3427,-15.44787,30.25419
20.506831646,114.0867,-114.4822,122.7976,1.562511,0.6725877,-0.1739159,-21.07364,-15.42209,33.95541
20.516689777,68.1209600000002,-104.8418,124.5141,1.472673,0.7919737,-0.3067622,-21.07364,-15.42209,33.95541
20.526548386,17.49649,-101.6283,124.1463,1.369452,0.7741886,-0.3936138,-21.07364,-15.42209,33.95541
20.536406517,-30.27065,-101.8068,121.5102,1.206366,0.7867162,-0.4309573,-21.07364,-15.42209,33.95541
20.546264172,-64.1859400000001,-103.7706,117.4029,1.041696,0.8036219,-0.7241337,-21.07364,-15.42209,33.95541
20.556122303,-87.7278700000001,-102.1638,116.5447,0.9713712,0.8195266,-0.9879945,-19.20759,-11.04627,36.84576
20.565979957,-110.5865,-119.0644,115.5025,0.9560425,0.9572656,-0.5558133,-19.20759,-11.04627,36.84576
20.575838089,-151.024,-119.5405,110.1692,1.32911,0.9693293,-0.1666475,-19.20759,-11.04627,36.84576
20.585695743,-199.5986,-95.2608199999997,110.6596,1.63454,0.7817273,-0.1773759,-19.20759,-11.04627,36.84576
20.595553875,-212.9536,-67.7081799999998,118.0773,1.508073,0.5580401,-0.3562026,-19.20759,-11.04627,36.84576
20.605412006,-195.2505,-46.82054,120.5294,1.304048,0.3749565,-0.5541868,-16.95974,-9.945455,38.42321
20.615269661,-158.4779,-27.77768,125.1884,1.132089,0.3377231,-0.6042829,-16.95974,-9.945455,38.42321
20.625127792,-119.6554,-9.15138699999998,125.6788,1.058675,0.3789677,-0.462483,-16.95974,-9.945455,38.42321
20.634985447,-94.0637,25.95888,125.4949,1.053128,0.4030659,-0.3816951,-16.95974,-9.945455,38.42321
20.644843578,-72.5094800000001,62.55688,130.9509,1.055696,0.2590653,-0.2482919,-16.95974,-9.945455,38.42321
20.657166004,-56.42145,117.9597,149.5257,1.080742,0.1096163,-0.1933647,-16.24558,-14.67169,38.91615
20.667024136,-46.4829,164.1981,171.7787,1.035093,0.1485279,-0.3495631,-16.24558,-14.67169,38.91615
20.676882267,-24.49387,207.8182,185.0814,0.9120119,0.4088885,-0.5717937,-16.24558,-14.67169,38.91615
20.686739921,-12.19492,241.0837,180.6063,1.005105,0.6043685,-0.5690747,-16.24558,-14.67169,38.91615
20.696598053,-26.41947,272.2664,175.9473,1.065234,0.7548054,-0.6913372,-16.24558,-14.67169,38.91615
20.706455707,-41.0167,294.7607,172.1465,1.080823,0.9010708,-0.7828105,-21.42737,-16.8672,35.63678
20.716313839,-64.4343999999998,314.2202,162.8898,1.098992,1.042649,-0.8326698,-21.42737,-16.8672,35.63678
20.72617197,-102.9463,336.0004,146.338,1.186105,1.089625,-0.9686491,-21.42737,-16.8672,35.63678
20.736029625,-139.7189,348.4378,126.2306,1.2167,1.131987,-1.163283,-21.42737,-16.8672,35.63678
20.745887756,-169.5966,355.7574,99.2572400000002,1.285649,1.061392,-1.335456,-21.42737,-16.8672,35.63678
20.755745411,-174.628,354.4482,74.3682200000002,1.295608,1.095299,-1.400483,-32.67104,-15.43245,23.70874
20.765603542,-175.2492,348.0212,45.12669,1.290911,1.126475,-1.251122,-32.67104,-15.43245,23.70874
20.775462151,-180.0321,345.1648,23.73195,1.239375,1.13023,-1.29588,-32.67104,-15.43245,23.70874
20.785320282,-195.6232,339.9875,13.80086,1.20309,1.145073,-1.145248,-32.67104,-15.43245,23.70874
20.795177937,-219.7863,345.6409,9.325744,1.218022,0.9863011,-1.086901,-32.67104,-15.43245,23.70874
20.805036068,-237.0545,347.6642,11.34874,1.15888,0.7880816,-0.8625069,-41.70846,-15.58171,5.638869
20.814893722,-254.3849,365.5169,9.87747100000001,1.18955,0.6640847,-0.910952,-41.70846,-15.58171,5.638869
20.827216625,-255.9378,368.1948,11.47135,1.172103,0.7897201,-0.7165257,-41.70846,-15.58171,5.638869
20.83707428,-267.9261,378.5493,5.708868,1.491506,0.91259,-0.7569394,-41.70846,-15.58171,5.638869
20.846932411,-280.8463,386.7616,8.65141099999999,1.970835,0.8216403,-1.097103,-41.70846,-15.58171,5.638869
20.856790066,-256.621,378.8469,20.91201,2.230237,0.5438372,-1.046599,-41.08892,-15.83802,-12.16083
20.866648197,-201.6485,376.8235,7.30274499999998,1.879056,0.1997947,-1.127399,-41.08892,-15.83802,-12.16083
20.876506329,-118.9722,358.3758,-12.43682,1.465945,0.2905164,-1.133684,-41.08892,-15.83802,-12.16083
20.886363983,-73.0064000000001,337.1906,-40.45229,1.296348,0.4666355,-1.002313,-41.08892,-15.83802,-12.16083
20.896222115,-69.1552100000001,308.7453,-51.67074,1.154588,0.6231586,-0.7124105,-41.08892,-15.83802,-12.16083
20.906079769,-114.4377,290.3571,-47.62474,1.140151,0.5032632,-0.728551,-34.1661,-12.85711,-25.86546
20.915937901,-130.4636,268.6958,-8.636034,0.9501874,0.4174268,-0.8502014,-34.1661,-12.85711,-25.86546
20.925796032,-137.11,248.5223,11.71656,0.7845465,0.3679492,-0.8065678,-34.1661,-12.85711,-25.86546
20.935653687,-118.4131,224.5402,10.00008,0.7627242,0.1843707,-0.918022,-34.1661,-12.85711,-25.86546
20.945511818,-70.02483,197.4041,-4.46743,0.7274513,-0.2208612,-1.062782,-34.1661,-12.85711,-25.86546
20.955369472,1.284233,175.5048,-22.55181,0.5778499,-0.3068424,-1.05898,-24.95183,-10.11712,-32.98512
20.965227604,70.8540599999998,157.6522,-37.93887,0.3608466,-0.03974954,-0.9515632,-24.95183,-10.11712,-32.98512
20.975085735,95.76254,138.9068,-46.7052,0.3722824,0.2497859,-0.719267,-24.95183,-10.11712,-32.98512
20.98494339,81.6622300000001,124.2676,-46.64389,0.5128769,0.4453999,-0.5336905,-24.95183,-10.11712,-32.98512
20.994801998,51.90871,109.7475,-46.64389,0.5137284,0.4434195,-0.544741,-24.95183,-10.11712,-32.98512
21.007123947,18.36611,89.4549200000002,-45.41783,0.3250046,0.3813716,-0.5545549,-18.63721,-6.91726,-35.93251
21.016982079,-0.641360199999998,70.8286200000002,-44.31438,0.2298034,0.278812,-0.5583763,-18.63721,-6.91726,-35.93251
21.026839733,-13.00243,54.46367,-42.59789,0.2504888,0.1631061,-0.5783364,-18.63721,-6.91726,-35.93251
21.036698341,-15.67341,38.69379,-40.94271,0.2724683,0.04115203,-0.5806372,-18.63721,-6.91726,-35.93251
21.046556473,-13.12666,27.08955,-39.04232,0.3383103,0.001292687,-0.5948505,-18.63721,-6.91726,-35.93251
21.056414604,-8.90277699999999,14.17612,-37.50975,0.427945,0.02457627,-0.5667003,-14.95413,-9.548319,-36.75729
21.066272259,-10.39356,3.524015,-35.79326,0.5085722,0.1028938,-0.5048925,-14.95413,-9.548319,-36.75729
21.07613039,-18.22017,-9.21089600000002,-34.81241,0.5368694,0.1601109,-0.4961874,-14.95413,-9.548319,-36.75729
21.085988045,-28.77987,-24.5642,-33.27984,0.5174957,0.1774338,-0.5024739,-14.95413,-9.548319,-36.75729
21.095846176,-40.14708,-42.35737,-31.74726,0.5005717,0.1511095,-0.4751405,-14.95413,-9.548319,-36.75729
21.105703831,-50.89314,-60.2695599999998,-29.47905,0.4739652,0.1344919,-0.4317735,-14.20317,-9.178113,-35.99676
21.115561962,-61.26649,-78.5983099999998,-28.3756,0.4475507,0.09400593,-0.3953196,-14.20317,-9.178113,-35.99676
21.125420094,-74.0002499999998,-93.5350600000002,-27.45605,0.484251,0.08630456,-0.3297781,-14.20317,-9.178113,-35.99676
21.135277748,-88.5975000000002,-104.1872,-24.45221,0.5239134,0.0411786,-0.2593235,-14.20317,-9.178113,-35.99676
21.14513588,-100.2753,-112.7564,-20.59012,0.5684149,0.008639606,-0.2175836,-14.20317,-9.178113,-35.99676
21.154993534,-104.8097,-119.3024,-18.1993,0.7046109,0.04114807,-0.1751641,-14.20275,-8.061196,-35.11187
21.164851666,-104.1265,-123.7656,-20.59012,0.8689844,0.01735298,-0.1609356,-14.20275,-8.061196,-35.11187
21.177174091,-87.9763299999998,-129.3594,-26.53651,0.883915,-0.09530743,-0.1338264,-14.20275,-8.061196,-35.11187
21.187032223,-68.0992399999998,-135.5484,-29.17254,0.8222125,-0.06777252,-0.04214597,-14.20275,-8.061196,-35.11187
21.196890354,-60.2726400000003,-142.5109,-30.33729,0.8476042,0.03545542,0.04509842,-14.20275,-8.061196,-35.11187
21.206748009,-74.49718,-145.0698,-27.02693,0.9097317,0.1448804,0.1409763,-17.18961,-4.734604,-32.24911
21.21660614,-103.319,-145.4864,-24.2683,0.9183931,0.2108279,0.188371,-17.18961,-4.734604,-32.24911
21.226463795,-134.439,-148.4618,-23.10354,0.8910305,0.1891125,0.1718057,-17.18961,-4.734604,-32.24911
21.236321926,-153.3844,-154.4127,-21.93878,0.9054582,0.1559723,0.1243589,-17.18961,-4.734604,-32.24911
21.246180534,-159.9687,-161.4943,-23.41006,1.036881,0.1053375,0.0664713,-17.18961,-4.734604,-32.24911
21.256038666,-152.1421,-164.7673,-27.08824,1.190296,0.1009201,0.08341545,-20.09975,-2.434887,-28.15971
21.26589632,-135.6814,-161.6133,-33.52505,1.309678,0.1488527,0.1262048,-20.09975,-2.434887,-28.15971
21.275754452,-120.4008,-153.4606,-41.61705,1.3147,0.1423684,0.201792,-20.09975,-2.434887,-28.15971
21.285612106,-105.3688,-143.106,-49.64774,1.212159,0.07698362,0.2664352,-20.09975,-2.434887,-28.15971
21.295470238,-89.5292400000001,-135.1913,-54.9811,1.096177,0.04434456,0.2711672,-20.09975,-2.434887,-28.15971
21.305328369,-78.7210600000001,-130.7876,-59.0270999999997,1.063491,0.05189156,0.2846351,-21.96534,2.057031,-24.41849
21.315186024,-81.8268600000002,-128.8239,-59.3336099999998,1.071918,0.1253136,0.2496739,-21.96534,2.057031,-24.41849
21.325044155,-101.8282,-130.3116,-56.39107,1.064311,0.1989767,0.1871497,-21.96534,2.057031,-24.41849
21.33490181,-129.2834,-135.0128,-52.65158,1.050755,0.2144663,0.06767374,-21.96534,2.057031,-24.41849
21.347224712,-153.198,-138.7023,-52.28377,1.116743,0.1828962,-0.07202183,-21.96534,2.057031,-24.41849
21.357082367,-130.0909,-105.9129,-48.9121,3.07403,-0.5779511,7.033732,-22.32409,4.26055,-20.72575
21.366940498,-207.5495,79.6359399999998,46.04624,6.662348,-2.306239,4.707141,-22.32409,4.26055,-20.72575
21.376798153,-140.8991,56.12991,-24.2683,2.493993,-1.311238,-0.2705428,-22.32409,4.26055,-20.72575
21.386656284,-99.71624,-48.90335,-60.4983699999999,0.6346222,-2.036856,-2.256574,-22.32409,4.26055,-20.72575
21.396514416,-84.99477,-170.3611,-1.892705,0.5313904,-1.460825,-1.785897,-22.32409,4.26055,-20.72575
21.40637207,-153.3223,-175.2408,10.79702,2.271757,0.6908498,0.943686,-21.94372,6.873358,-17.87346
21.416230202,-213.7611,-107.1031,-43.39483,2.100006,0.7189708,0.2845967,-21.94372,6.873358,-17.87346
21.426087856,-145.7441,-53.24751,-54.49068,1.101058,-0.5317529,0.01465601,-21.94372,6.873358,-17.87346
21.435945988,-21.26385,-25.63536,-42.84311,0.1020997,-0.328163,-0.9498303,-21.94372,6.873358,-17.87346
21.445804596,97.1290900000001,-45.03527,-50.8738,-0.1327215,-0.01785525,-1.214133,-21.94372,6.873358,-17.87346
21.455662727,175.0846,-54.97327,-56.26846,0.4742205,0.7151045,-0.7992151,-21.92234,9.518995,-12.97079
21.465520382,163.0341,-53.00947,-71.4103099999999,1.685795,1.284462,-0.2816835,-21.92234,9.518995,-12.97079
21.475378513,97.0048600000002,-43.13099,-50.9964,1.828776,1.03671,0.01177068,-21.92234,9.518995,-12.97079
21.485236168,-0.0823169599999999,-43.13099,-15.74718,1.328604,0.4276509,0.07318003,-21.92234,9.518995,-12.97079
21.495094299,-69.7142599999999,-59.9125100000001,4.850626,0.6532401,0.5438958,-0.1634802,-21.92234,9.518995,-12.97079
21.504952431,-111.4562,-72.3498800000003,-2.567038,0.5377138,0.6611896,0.1142167,-22.27883,8.068539,-11.6735
21.514810085,-177.7959,-81.09769,-14.88894,0.9204443,0.4197505,0.4867294,-22.27883,8.068539,-11.6735
21.527132988,-187.486,-76.6345199999997,-15.93109,1.166056,-0.1725359,0.146145,-22.27883,8.068539,-11.6735
21.536990643,-133.6315,-61.6977800000002,-20.34491,1.235901,-0.6864333,-0.02738641,-22.27883,8.068539,-11.6735
21.546848774,-54.93067,-42.41688,-27.08824,1.055385,-0.8611363,-0.2519909,-22.27883,8.068539,-11.6735
21.556706428,21.65825,-32.47889,-43.57874,0.7227896,-0.5746236,-0.5318731,-23.0068,7.742878,-9.23334
21.56656456,73.4629300000001,-36.04943,-53.75504,0.9494336,-0.8130528,-0.8040296,-23.0068,7.742878,-9.23334
21.576422214,120.6089,-30.51509,-62.3374599999998,1.142505,-0.5213495,-0.8115076,-23.0068,7.742878,-9.23334
21.586280346,148.4989,-32.89545,-72.2685500000001,0.999787,0.1174336,-0.3828662,-23.0068,7.742878,-9.23334
21.596138477,118.4349,-33.55005,-68.1612499999997,1.030521,0.4003657,-0.1403584,-23.0068,7.742878,-9.23334
21.605996132,88.5571,-35.63286,-53.75504,0.953851,0.8564109,-0.1953168,-23.37258,8.506655,-7.574592
21.615854263,39.98245,-36.28746,-48.7895,0.9641519,1.05476,-0.2699824,-23.37258,8.506655,-7.574592
21.625711918,14.39069,-34.50219,-49.21862,1.008941,0.4685412,-0.335468,-23.37258,8.506655,-7.574592
21.635570049,14.018,-33.13349,-42.6592,1.141371,0.003493528,-0.2176467,-23.37258,8.506655,-7.574592
21.645428657,31.09987,-27.65867,-34.5059,1.306915,-0.06675497,-0.2661229,-23.37258,8.506655,-7.574592
21.655286789,30.35448,-24.74273,-23.77787,1.337,0.3373203,-0.2875807,-22.60108,5.196277,-6.712338
21.665144443,25.94425,-20.81514,-15.86979,1.30013,0.5664932,-0.2065325,-22.60108,5.196277,-6.712338
21.675002575,15.13608,-19.68447,-10.84294,1.173888,0.5506368,-0.1142983,-22.60108,5.196277,-6.712338
21.684860229,10.16681,-15.63786,-8.39082200000002,1.196537,0.4970902,-0.04319312,-22.60108,5.196277,-6.712338
21.697183132,11.03643,-7.60415499999998,-6.36782300000001,1.216276,0.1976764,-0.2582867,-24.08599,4.488828,-5.86489
21.707040787,18.17976,-2.962458,-2.383129,1.187391,0.05051059,-0.2456994,-24.08599,4.488828,-5.86489
21.716898918,14.08011,3.226471,0.3755064,1.23035,0.1453945,-0.3485388,-24.08599,4.488828,-5.86489
21.726757049,8.36544800000002,9.53441800000002,1.172445,1.298461,0.1182003,-0.3645942,-24.08599,4.488828,-5.86489
21.736614704,3.76887,17.74665,2.521111,1.357278,0.00727185,-0.2389016,-24.08599,4.488828,-5.86489
21.746472835,15.07397,25.48281,3.379353,1.324062,-0.01555017,-0.1475729,-24.08599,4.488828,-5.86489
21.75633049,33.46028,30.7196,3.011535,1.344924,0.07949039,0.1025947,-24.82454,3.460612,-5.402247
21.766188621,38.6159,35.53982,3.31805,1.302786,0.2506315,0.03323891,-24.82454,3.460612,-5.402247
21.776046753,38.80225,36.78951,1.295051,1.119561,0.2669991,0.02927965,-24.82454,3.460612,-5.402247
21.785904407,36.50396,36.73,-1.892705,0.9327841,0.134443,0.028427,-24.82454,3.460612,-5.402247
21.795762539,42.46709,33.04045,-1.708796,0.7386977,0.07088796,0.01867687,-24.82454,3.460612,-5.402247
21.805620193,51.47389,24.53067,-1.402281,0.6435264,0.08781735,0.08630569,-24.82052,2.724317,-5.394706
21.815478325,56.44317,16.67549,-0.4214326,0.6707246,0.1488144,0.1971279,-24.82052,2.724317,-5.394706
21.825336933,46.93943,12.92643,0.0689914200000002,0.7806383,0.1934982,0.04499063,-24.82052,2.724317,-5.394706
21.835195065,39.11283,10.12951,-1.095766,0.8169991,0.1135252,-0.08558636,-24.82052,2.724317,-5.394706
21.845052719,32.09373,6.97553399999999,-0.5440385,0.8697358,-0.08748421,-0.09043039,-24.82052,2.724317,-5.394706
21.85491085,36.13126,5.84486400000001,2.766323,0.8538615,-0.2182601,-0.1497701,-26.99781,1.638816,-5.820224
21.867233276,41.59746,-3.021967,4.421504,0.7113885,-0.1443679,-0.09248721,-26.99781,1.638816,-5.820224
21.877091408,36.75242,-10.5796,9.325744,0.6422966,0.03633797,-0.01330552,-26.99781,1.638816,-5.820224
21.886949062,20.54017,-17.42313,12.5748,0.6004466,0.2753722,-0.1453468,-26.99781,1.638816,-5.820224
21.896807194,2.153856,-22.42188,10.24529,0.6508566,0.3808242,-0.3023528,-27.74004,1.285537,-5.364491
21.906664848,-3.622924,-22.83844,7.854472,0.7411395,0.3003831,-0.4255558,-27.74004,1.285537,-5.364491
21.91652298,4.203681,-23.73108,4.850626,0.728605,0.2179478,-0.4485953,-27.74004,1.285537,-5.364491
21.926381111,19.35996,-26.88505,1.662869,0.6322343,0.1919767,-0.3990417,-27.74004,1.285537,-5.364491
21.936238766,31.2241,-34.62121,2.582414,0.5212589,0.3535928,-0.2508987,-27.74004,1.285537,-5.364491
21.946096897,18.42822,-41.8813,-0.05361458,0.6371945,0.5167103,-0.108373,-27.74004,1.285537,-5.364491
21.955954552,0.5388422,-41.52425,0.8659304,0.8882226,0.3291691,-0.2338126,-27.71729,-0.1585436,-3.300969
21.965812683,2.09174,-35.2163,0.007688423,1.050958,-0.04957586,-0.4008186,-27.71729,-0.1585436,-3.300969
21.975670815,23.21115,-31.16969,-1.708796,1.130905,-0.3133765,-0.4746267,-27.71729,-0.1585436,-3.300969
21.985528469,46.25616,-27.00407,-1.463584,1.019253,-0.1949172,-0.4140525,-27.71729,-0.1585436,-3.300969
21.9953866,56.31894,-27.12309,-1.095766,0.8179836,0.1118308,-0.4095535,-27.71729,-0.1585436,-3.300969
22.005244255,51.66024,-30.69362,-1.340978,0.7294649,0.3761909,-0.4257081,-28.08428,0.2308478,-2.086545
22.015102863,42.09439,-36.82304,-3.609189,0.7495593,0.5452533,-0.4178589,-28.08428,0.2308478,-2.086545
22.024960995,37.93262,-42.17884,-6.429126,0.7915679,0.657277,-0.3600082,-28.08428,0.2308478,-2.086545
22.034819126,35.8828,-48.48679,-9.003853,0.7687641,0.7784252,-0.3112201,-28.08428,0.2308478,-2.086545
22.047141552,19.73266,-54.97327,-13.54027,0.742113,0.7798592,-0.255241,-28.4468,-0.1151643,-0.8005667
22.056999683,7.30947700000003,-56.75853,-14.58243,0.7232664,0.5455427,-0.4083769,-28.4468,-0.1151643,-0.8005667
22.066857338,2.278088,-61.8168,-15.01155,0.7675295,0.3449857,-0.5319378,-28.4468,-0.1151643,-0.8005667
22.076715469,3.271943,-62.1143399999997,-13.60158,0.8265628,0.2183079,-0.583685,-28.4468,-0.1151643,-0.8005667
22.086573124,7.620056,-62.76894,-15.37936,0.7916777,0.1380228,-0.6293893,-28.4468,-0.1151643,-0.8005667
22.096431255,19.29785,-65.6253699999999,-17.64757,0.7095745,0.1223704,-0.457277,-28.06433,-0.1025529,0.413764
22.10628891,26.50329,-69.1958999999998,-18.38321,0.6781693,0.1810582,-0.3049071,-28.06433,-0.1025529,0.413764
22.116147041,26.62753,-73.0639800000002,-17.64757,0.7212947,0.2442247,-0.1722504,-28.06433,-0.1025529,0.413764
22.126005173,26.06848,-74.4326900000001,-15.50197,0.7655092,0.2986736,-0.2903041,-28.06433,-0.1025529,0.413764
22.135862827,23.0248,-79.1934099999999,-14.1533,0.7340234,0.3642038,-0.3889758,-28.06433,-0.1025529,0.413764
22.145720959,16.93744,-88.4768000000001,-15.62458,0.7182646,0.2734127,-0.297032,-27.67864,-0.08370495,2.076191
22.155579567,4.265797,-89.3099199999998,-12.19161,0.7452155,0.1283602,-0.2420947,-27.67864,-0.08370495,2.076191
22.165436745,-1.635215,-85.8584099999997,-6.30652000000001,0.746186,0.03045082,-0.4005914,-27.67864,-0.08370495,2.076191
22.175294876,-8.46796500000002,-86.6320200000001,-5.264369,0.82637,-0.0984488,-0.4459501,-27.67864,-0.08370495,2.076191
22.185153484,-3.622924,-88.3577800000003,-3.180068,0.9411329,-0.288819,-0.4851323,-27.67864,-0.08370495,2.076191
22.195011139,8.551796,-91.33323,-2.567038,1.031056,-0.3029116,-0.4328625,-27.67864,-0.08370495,2.076191
22.20486927,20.47805,-92.7019300000002,-1.58619,1.075197,-0.1715091,-0.2732884,-27.28696,-0.05327463,4.570798
22.217191219,21.16133,-90.5596099999999,3.93108,1.010623,0.03167451,-0.3094685,-27.28696,-0.05327463,4.570798
22.227049828,-0.889823900000002,-91.2142100000002,13.31044,0.8801305,0.1445572,-0.5232542,-27.28696,-0.05327463,4.570798
22.236907482,-16.29457,-89.7860000000001,25.14192,0.7123625,0.1521141,-0.8365917,-27.28696,-0.05327463,4.570798
22.246765614,-37.04129,-96.451,31.70134,0.6024569,0.1857365,-0.4355684,-25.8476,0.3152552,5.775886
22.256623745,-50.33409,-91.3927399999998,35.31821,0.7519768,0.2962409,-0.3878885,-25.8476,0.3152552,5.775886
22.2664814,-67.9129000000002,-90.5596099999999,31.27222,1.002211,0.3967974,-0.2463673,-25.8476,0.3152552,5.775886
22.276339531,-66.6705799999999,-91.2142100000002,29.37182,1.258396,0.3965315,-0.4028854,-25.8476,0.3152552,5.775886
22.286197186,-65.5524900000001,-92.5234100000002,31.02701,1.422686,0.1874566,-0.4860593,-25.8476,0.3152552,5.775886
22.296055317,-60.7074499999999,-89.2504099999999,32.55958,1.210163,0.03012377,-0.6746003,-23.96703,1.432864,8.251454
22.305913448,-35.05358,-89.3694300000002,32.62088,0.9502016,-0.1187853,-0.7109671,-23.96703,1.432864,8.251454
22.315771103,0.725189899999998,-92.2258600000001,31.08831,0.8849083,-0.1345928,-0.4902173,-23.96703,1.432864,8.251454
22.325629234,28.18042,-87.1676,33.29522,0.896953,0.3510083,-0.3995557,-23.96703,1.432864,8.251454
22.335486889,17.9313,-78.30077,33.78564,0.9072483,0.6192026,-0.6643531,-23.96703,1.432864,8.251454
22.34534502,-6.04544500000002,-77.4081300000001,40.22245,1.1129,0.4776736,-0.7403585,-23.21485,2.177454,9.456312
22.355203152,-17.72324,-79.3719299999998,48.19184,1.388867,0.4616881,-0.4645742,-23.21485,2.177454,9.456312
22.36506176,-40.95459,-74.4922,53.77042,1.64042,0.3691478,-0.4320421,-23.21485,2.177454,9.456312
22.374919415,-39.33957,-69.8505000000001,49.78572,1.6279,0.1573063,-0.3167268,-23.21485,2.177454,9.456312
22.387241364,-36.29589,-79.9075099999998,47.14969,1.632525,0.1141442,-0.1590211,-23.21485,2.177454,9.456312
22.397099972,-36.66859,-79.5504600000001,49.72442,1.689032,0.323705,-0.2078947,-21.70571,3.303833,12.25388
22.406958103,-35.73685,-81.57376,42.24545,1.654086,0.3206774,-0.154231,-21.70571,3.303833,12.25388
22.416815758,-14.12051,-82.4663900000002,29.67834,1.638104,0.0713368,-0.03870367,-21.70571,3.303833,12.25388
22.426673889,32.83912,-82.88296,17.17253,1.630311,-0.161855,0.08163526,-21.70571,3.303833,12.25388
22.436531544,80.4820299999999,-76.3964800000002,11.77786,1.590901,-0.1692504,0.01935941,-21.70571,3.303833,12.25388
22.446389675,105.8253,-62.8284499999999,10.3679,1.361607,-0.04074422,-0.4660299,-20.56428,4.01215,15.56989
22.456247807,114.6458,-53.42603,15.39474,1.110902,-0.05911222,-0.749173,-20.56428,4.01215,15.56989
22.466105461,114.77,-54.02113,24.95801,0.8707567,-0.1539894,-0.8275357,-20.56428,4.01215,15.56989
22.475963593,111.4157,-60.8051399999997,35.19561,0.7220455,-0.09698904,-0.8479368,-20.56428,4.01215,15.56989
22.485821247,106.3844,-79.9075099999998,43.28761,0.6634036,0.1429035,-0.4526121,-20.56428,4.01215,15.56989
22.495679379,80.2335700000002,-92.9399600000001,50.39875,0.8040143,0.2681952,-0.7223897,-19.04146,4.420944,19.71929
22.50553751,44.57903,-117.6957,65.54059,0.9598732,0.4957894,-0.60912,-19.04146,4.420944,19.71929
22.515395165,8.92449099999999,-138.8809,70.2609199999998,1.281176,0.7068641,-0.3608175,-19.04146,4.420944,19.71929
22.525253773,-32.25836,-141.3207,68.97356,1.409986,0.8188747,-0.2519714,-19.04146,4.420944,19.71929
22.535111904,-69.59003,-145.4268,63.5175900000003,1.267377,0.6767442,-0.5741189,-19.04146,4.420944,19.71929
22.544969559,-70.1490700000001,-149.3544,58.7972599999999,1.134871,0.5153673,-0.6028233,-19.01209,6.710014,25.45791
22.55482769,-54.12316,-152.6274,46.35276,1.215382,0.5409455,-0.2012274,-19.01209,6.710014,25.45791
22.567150116,-41.20305,-129.657,28.69749,1.456773,0.7562593,-0.3202546,-19.01209,6.710014,25.45791
22.577008247,-52.07334,-107.8767,18.27598,1.360947,0.6565338,-0.4749911,-19.01209,6.710014,25.45791
22.586865902,-51.45218,-93.1184899999997,11.96177,1.293101,0.3566616,-0.4760756,-19.01209,6.710014,25.45791
22.596724033,-38.03514,-77.1105899999998,10.12268,1.313377,0.163804,-0.306918,-16.77144,7.174152,34.14875
22.606582165,-24.30752,-46.16594,8.03838099999998,1.368334,0.09004393,-0.2522574,-16.77144,7.174152,34.14875
22.616439819,-1.138287,-5.521342,6.56710899999998,1.303115,-0.01758128,-0.2503194,-16.77144,7.174152,34.14875
22.626297951,22.65211,33.81406,8.95792600000003,1.177518,-0.2360858,-0.2173086,-16.77144,7.174152,34.14875
22.636155605,44.20633,68.7458099999998,14.29129,1.134218,-0.416642,-0.2508008,-16.77144,7.174152,34.14875
22.646013737,65.9469000000001,100.9401,21.46374,1.106123,-0.3215793,-0.3976707,-16.3491,7.635985,41.18457
22.655871868,80.2335700000002,136.1694,19.37944,1.089465,-0.1812297,-0.5630103,-16.3491,7.635985,41.18457
22.665729523,81.84858,165.1503,15.51735,1.006107,0.03843859,-0.3117431,-16.3491,7.635985,41.18457
22.675587654,56.31894,195.1428,2.030687,0.9737977,0.3121239,-0.1800682,-16.3491,7.635985,41.18457
22.685446262,4.886956,223.0525,-9.55557899999999,1.006389,0.4897532,-0.2528303,-16.3491,7.635985,41.18457
22.695303917,-59.2787799999998,249.4149,-11.9464,0.9923479,0.5257455,-0.3539168,-23.36897,8.125515,44.09779
22.705162048,-115.68,278.0387,-13.90809,1.104766,0.3964935,-0.4395113,-23.36897,8.125515,44.09779
22.71502018,-148.7257,298.9264,-13.04985,1.128791,0.1548312,-0.5765483,-23.36897,8.125515,44.09779
22.724877834,-153.5086,322.4919,-9.67818499999998,1.203051,-0.1153985,-0.5348425,-23.36897,8.125515,44.09779
22.737200737,-126.8609,348.6758,-6.490429,1.219841,-0.2293164,-0.5877966,-23.36897,8.125515,44.09779
22.747058392,-98.5360399999998,369.1469,-7.226065,1.256117,-0.1015992,-0.6135918,-36.73528,7.836475,38.7933
22.756916523,-86.54767,384.4407,-12.25291,1.245151,0.1610786,-0.6126563,-36.73528,7.836475,38.7933
22.766774177,-98.1012300000002,397.9492,-19.11885,1.35186,0.384403,-0.483867,-36.73528,7.836475,38.7933
22.776632309,-127.8548,412.767,-23.53266,1.532288,0.5127294,-0.5577146,-36.73528,7.836475,38.7933
22.78649044,-159.6581,428.8939,-23.41006,1.772069,0.5205983,-0.5826297,-36.73528,7.836475,38.7933
22.796348095,-190.4676,442.7,-19.05754,1.984611,0.4550351,-0.6604882,-55.08185,1.970567,21.15149
22.806206226,-205.127,450.7932,-8.02300500000002,2.096229,0.3556898,-0.8143443,-55.08185,1.970567,21.15149
22.816063881,-207.86,449.6625,3.195444,2.18642,0.2766044,-0.8354653,-55.08185,1.970567,21.15149
22.825922012,-201.1515,439.0104,14.29129,2.230464,0.1775361,-0.8858075,-55.08185,1.970567,21.15149
22.835780144,-161.2731,418.4798,35.74734,2.146615,0.09111164,-1.155131,-55.08185,1.970567,21.15149
22.845638752,-99.0329700000001,393.129,60.5750499999999,1.972215,0.05439832,-1.060949,-66.7263,-2.716652,-7.614251
22.855496407,-31.69932,363.077,60.7589599999998,1.635872,-0.09157065,-1.170957,-66.7263,-2.716652,-7.614251
22.865354538,36.50396,342.3679,36.42167,1.348501,-0.3626481,-1.279844,-66.7263,-2.716652,-7.614251
22.875212193,110.4219,324.5747,3.685868,0.9142368,-0.3618449,-1.337861,-66.7263,-2.716652,-7.614251
22.885070324,161.1085,293.8086,-25.31045,0.5624698,0.0003874227,-1.234909,-66.7263,-2.716652,-7.614251
22.894927978,169.3699,253.8186,-29.78557,0.5904312,0.3711681,-1.046728,-63.99205,-2.008631,-33.69432
22.90478611,127.3795,214.3642,-18.99624,0.7922454,0.4976627,-0.8812963,-63.99205,-2.008631,-33.69432
22.917108536,54.14488,170.8036,-10.84294,0.8146553,0.4197718,-0.8132684,-63.99205,-2.008631,-33.69432
22.926966667,15.75724,145.1553,-9.18776100000002,0.7622074,0.3709963,-0.7199678,-63.99205,-2.008631,-33.69432
22.936824799,-13.74782,127.4216,-8.81994299999999,0.6926857,0.2776542,-0.6622608,-63.99205,-2.008631,-33.69432
22.946682453,-29.2768,111.3542,-6.61303499999999,0.6460254,0.1539906,-0.5691955,-54.43531,-4.541955,-49.02089
22.956540585,-32.56894,101.3567,-4.896551,0.6598842,0.1173231,-0.5179489,-54.43531,-4.541955,-49.02089
22.966398239,-28.53141,94.2751400000002,-2.260523,0.6890533,0.08739623,-0.5219716,-54.43531,-4.541955,-49.02089
22.976256371,-15.48706,89.4549200000002,-3.425279,0.7389845,0.04341925,-0.5585152,-54.43531,-4.541955,-49.02089
22.986114502,7.06101299999998,83.9205900000001,-7.04215600000001,0.7753031,0.08744375,-0.5831004,-54.43531,-4.541955,-49.02089
22.99597311,22.58999,76.9580400000002,-11.08815,0.7435489,0.1437562,-0.6736997,-45.96046,-3.265922,-56.1216
23.005830765,29.98178,65.9488899999998,-12.37552,0.6518402,0.2419903,-0.6035173,-45.96046,-3.265922,-56.1216
23.015688896,22.2173,49.88148,-15.13415,0.5642959,0.2671793,-0.6868753,-45.96046,-3.265922,-56.1216
23.025546551,12.40298,27.50612,-13.90809,0.5073465,0.258454,-0.6731989,-45.96046,-3.265922,-56.1216
23.035404682,-5.85909699999999,3.82156,-11.33337,0.5218722,0.3467751,-0.642471,-45.96046,-3.265922,-56.1216
23.045262814,-37.35186,-16.41148,-7.40997399999998,0.5499461,0.378458,-0.5649734,-40.75298,-2.630146,-59.0368
23.055120468,-70.08695,-29.97952,-3.118764,0.5561947,0.3681472,-0.4745808,-40.75298,-2.630146,-59.0368
23.0649786,-94.2500499999999,-40.5126,-0.789250600000002,0.5190283,0.2901106,-0.4344569,-40.75298,-2.630146,-59.0368
23.074836254,-104.6855,-49.55795,-0.4214326,0.5008935,0.2016238,-0.3712116,-40.75298,-2.630146,-59.0368
23.087159157,-100.0268,-60.6861199999999,-2.137917,0.4941115,0.120942,-0.3296264,-40.75298,-2.630146,-59.0368
23.097016811,-86.1128599999998,-69.1363899999999,-4.773945,0.5224736,0.07996129,-0.2949156,-39.25928,-3.021795,-59.48885
23.106874943,-70.89446,-72.2903699999998,-8.51342899999998,0.600572,0.06037036,-0.2535453,-39.25928,-3.021795,-59.48885
23.116732597,-59.5272499999997,-72.4688899999998,-13.90809,0.6075494,0.06673197,-0.130916,-39.25928,-3.021795,-59.48885
23.126590729,-53.06719,-73.0044699999997,-18.62842,0.5643358,0.1074498,-0.07101497,-39.25928,-3.021795,-59.48885
23.13644886,-53.68835,-76.2179600000002,-21.44836,0.5277824,0.09425186,-0.0006422643,-39.25928,-3.021795,-59.48885
23.146307468,-56.42145,-83.59706,-21.38706,0.5139294,0.09324486,0.02302745,-42.631,1.837717,-57.02395
23.156165123,-62.5088100000002,-91.2142100000002,-19.05754,0.5663643,0.105452,0.04011352,-42.631,1.837717,-57.02395
23.166023254,-70.9565699999998,-97.4626499999999,-17.03454,0.6583547,0.08248515,0.05681819,-42.631,1.837717,-57.02395
23.175880909,-73.93814,-100.9142,-16.97324,0.7515921,0.04349211,0.07912022,-42.631,1.837717,-57.02395
23.18573904,-68.5961700000001,-101.5688,-18.68973,0.7833233,0.02191984,0.09094509,-42.631,1.837717,-57.02395
23.195597172,-60.2726400000003,-100.4381,-21.75488,0.777074,0.00396573,0.1191554,-48.16766,4.457509,-54.14044
23.205454826,-49.52658,-99.0693900000003,-23.65527,0.7995844,0.003679012,0.1193114,-48.16766,4.457509,-54.14044
23.215312958,-36.66859,-100.4381,-25.67827,0.8279749,0.01014709,0.09020935,-48.16766,4.457509,-54.14044
23.225170612,-22.94098,-104.9013,-28.13039,0.8387115,0.03304657,0.07251921,-48.16766,4.457509,-54.14044
23.235028744,-11.26318,-114.4822,-31.01163,0.8449427,0.05197199,0.04383814,-48.16766,4.457509,-54.14044
23.244886875,-5.67275,-128.2883,-31.50205,0.8621639,0.1147278,-0.00140163,-54.87215,6.439196,-49.57955
23.257209301,-20.64268,-148.4618,-28.92733,0.9300882,0.2130373,-0.02837522,-54.87215,6.439196,-49.57955
23.267067432,-44.06038,-165.8979,-26.96563,1.007705,0.3040841,-0.06848663,-54.87215,6.439196,-49.57955
23.276925087,-71.63985,-180.3586,-24.207,1.099732,0.3805382,-0.1410329,-54.87215,6.439196,-49.57955
23.286783695,-100.7722,-189.761,-23.10354,1.136744,0.3788671,-0.1549921,-54.87215,6.439196,-49.57955
23.296641827,-124.6868,-192.6769,-21.63227,1.160993,0.3216834,-0.1491115,-62.59631,5.160767,-42.03461
23.306499481,-140.7128,-186.5475,-22.06139,1.164093,0.2935744,-0.1259122,-62.59631,5.160767,-42.03461
23.316357613,-142.6383,-178.1568,-26.2913,1.510937,0.10687,1.430238,-62.59631,5.160767,-42.03461
23.326215744,-121.2705,73.3875000000001,23.79325,7.153324,-1.705974,9.453117,-62.59631,5.160767,-42.03461
23.336073399,-122.3264,76.9580400000002,-77.0501799999998,4.715481,-0.2328041,3.718275,-62.59631,5.160767,-42.03461
23.34593153,-23.31367,20.66259,-59.76273,0.5920107,-1.360505,-2.167357,-72.92159,5.42969,-31.29054
23.355789185,29.48486,-105.1988,-48.05386,-0.05119938,-1.492872,-2.596816,-72.92159,5.42969,-31.29054
23.365647316,-39.21534,-206.0665,7.18013899999999,0.4149376,0.6609987,0.2233056,-72.92159,5.42969,-31.29054
23.375504971,-168.7891,-140.6661,-14.39852,2.269265,1.099596,1.335802,-72.92159,5.42969,-31.29054
23.385363102,-218.4198,-100.5571,-32.5442,2.374017,-0.6269171,0.1797226,-72.92159,5.42969,-31.29054
23.395221233,-95.36813,-42.5359,-25.49436,1.115993,-1.502422,-0.2462868,-76.20698,6.986736,-27.95984
23.405079842,-0.3928965,-12.06733,-14.21461,0.2778201,-1.144915,-0.5140513,-76.20698,6.986736,-27.95984
23.414937496,103.6513,11.73625,-20.03839,0.01818768,-0.1532468,-0.5633194,-76.20698,6.986736,-27.95984
23.424795628,172.9105,6.26142599999997,-40.14577,0.09835512,0.7391969,-0.1060036,-76.20698,6.986736,-27.95984
23.437118054,176.6375,5.071248,-65.7704299999997,0.5732276,1.406823,-0.3208603,-76.20698,6.986736,-27.95984
23.446976185,132.8457,-29.68197,-79.19579,0.595745,1.744834,-0.8119041,-79.93711,8.531889,-25.84315
23.45683384,59.5489599999999,-79.5504600000001,-81.464,0.9374928,1.316974,-1.133303,-79.93711,8.531889,-25.84315
23.466691971,-3.188113,-141.6183,-57.5558199999998,1.865687,0.1819951,-0.6524718,-79.93711,8.531889,-25.84315
23.476550102,18.67669,-102.8185,-7.65518600000002,2.713204,-0.7671702,1.035785,-79.93711,8.531889,-25.84315
23.486407757,73.58716,-53.90211,-48.60559,1.06074,-0.5515603,0.01841787,-79.93711,8.531889,-25.84315
23.496265888,72.84177,-64.5542100000001,-59.5175200000003,0.4635487,-0.07311415,-0.2301966,-81.01702,3.106256,-24.18108
23.506123543,27.80773,-92.1663500000003,-44.8661,0.6952018,0.677719,-0.5204318,-81.01702,3.106256,-24.18108
23.515981674,12.89991,-84.90626,-38.06147,1.419575,0.4279935,-0.1796933,-81.01702,3.106256,-24.18108
23.525839806,34.7026,-63.8996099999998,-43.76265,1.540712,0.04556259,-0.06388908,-81.01702,3.106256,-24.18108
23.53569746,67.3134500000002,-45.15429,-47.01171,1.14827,0.07870286,-0.2913862,-81.01702,3.106256,-24.18108
23.545556069,99.2410399999998,-42.05983,-39.28753,1.011412,0.2401019,-0.1400009,-83.5659,-1.941868,-18.67359
23.5554142,116.9441,-35.8709,-29.60166,1.07666,0.4337988,-0.02812194,-83.5659,-1.941868,-18.67359
23.565271854,96.3215899999997,-31.05067,-21.75488,0.9432588,0.7753709,-0.1105523,-83.5659,-1.941868,-18.67359
23.575129986,55.20085,-34.5617,-13.66288,0.9366094,0.8466482,-0.03318406,-83.5659,-1.941868,-18.67359
23.584988117,3.76887,-38.84634,-9.92339700000002,1.269508,0.5540403,0.04825378,-83.5659,-1.941868,-18.67359
23.594845772,-20.39422,-30.99117,-2.015311,1.514264,0.3574093,-0.1504906,-84.59034,-5.521247,-16.5826
23.607168198,-6.35602500000002,-24.08813,4.237596,1.379369,0.0489881,-0.1966949,-84.59034,-5.521247,-16.5826
23.617026329,17.68283,-20.04152,5.095838,1.284928,0.07163131,-0.03462594,-84.59034,-5.521247,-16.5826
23.62688446,37.62204,-14.62621,4.114989,1.309413,0.2271113,0.1038675,-84.59034,-5.521247,-16.5826
23.636742115,53.02679,-8.67531599999998,-0.1149176,1.32452,0.2775165,0.1438511,-84.59034,-5.521247,-16.5826
23.646600246,57.6233699999997,-1.891297,0.988536299999999,1.242066,0.2913059,-0.006763563,-84.57034,-6.970674,-14.90316
23.656457901,53.39949,3.464506,4.54411,1.029045,0.4511259,-0.09630179,-84.57034,-6.970674,-14.90316
23.666316032,31.47257,3.881069,8.467502,0.9206304,0.5106218,-0.06550255,-84.57034,-6.970674,-14.90316
23.676174641,10.9122,5.130757,8.34489499999999,1.016909,0.2677939,-0.03538011,-84.57034,-6.970674,-14.90316
23.686032772,12.52721,9.53441800000002,10.79702,1.047001,0.06535021,0.01998644,-84.57034,-6.970674,-14.90316
23.695890427,18.7388,13.46201,12.69741,1.093548,0.01869539,0.05582764,-83.89165,-5.875035,-14.98203
23.705748558,25.32309,18.57978,14.84301,1.119637,0.03445935,0.04552566,-83.89165,-5.875035,-14.98203
23.715606213,29.79544,23.87607,15.33344,1.086636,0.06961007,0.02424949,-83.89165,-5.875035,-14.98203
23.725464344,30.72718,28.99384,13.80086,1.011444,0.03787242,0.04326289,-83.89165,-5.875035,-14.98203
23.735322475,33.46028,33.27848,12.20698,0.9174939,-0.02413037,-0.04840685,-83.89165,-5.875035,-14.98203
23.74518013,40.54149,33.87357,12.26829,0.7868663,-0.1679362,-0.06740589,-82.03773,-5.925126,-17.04013
23.755038261,57.7476000000001,32.0883,11.65526,0.6114181,-0.3265168,-0.1572915,-82.03773,-5.925126,-17.04013
23.764895916,83.3393599999999,22.98344,12.63611,0.4254678,-0.2900155,-0.2357971,-82.03773,-5.925126,-17.04013
23.774754047,96.1973500000002,6.26142599999997,13.67826,0.3276808,0.007957418,-0.2203879,-82.03773,-5.925126,-17.04013
23.787076473,82.2212799999998,-12.36487,11.04223,0.3360834,0.4860074,-0.1882005,-82.03773,-5.925126,-17.04013
23.796934605,48.86502,-27.83719,5.95407899999997,0.347028,0.6714933,-0.1911039,-80.57042,-5.313783,-20.38348
23.806792736,16.68898,-41.52425,4.421504,0.3624914,0.663766,-0.2119951,-80.57042,-5.313783,-20.38348
23.816651344,-7.34987899999998,-52.5334,3.624565,0.4711912,0.5101761,-0.1611702,-80.57042,-5.313783,-20.38348
23.826508999,-17.90959,-55.92541,2.582414,0.613203,0.3723299,-0.2726566,-80.57042,-5.313783,-20.38348
23.83636713,-16.29457,-59.6149600000001,0.4981124,0.6778839,0.2872226,-0.4118269,-80.57042,-5.313783,-20.38348
23.846224785,-7.10141600000002,-66.1609499999999,-5.019157,0.7322699,0.2853697,-0.5151664,-79.811,-5.299251,-18.72299
23.856082916,1.781161,-74.7302299999999,-9.92339700000002,0.7186547,0.4305756,-0.5607085,-79.811,-5.299251,-18.72299
23.865940571,-2.132142,-81.09769,-12.0077,0.7475061,0.5607489,-0.3036494,-79.811,-5.299251,-18.72299
23.875798702,-21.76077,-84.0136299999998,-15.25676,0.7905985,0.4930613,-0.288542,-79.811,-5.299251,-18.72299
23.885656834,-35.17781,-89.1313900000001,-15.50197,0.8772696,0.1648098,-0.1770605,-79.811,-5.299251,-18.72299
23.895514488,-40.39555,-90.2620599999998,-14.70503,1.009474,-0.03934105,-0.1691668,-80.53256,-4.496412,-14.56577
23.90537262,-36.23378,-90.79765,-13.66288,1.091424,-0.02696231,-0.1759807,-80.53256,-4.496412,-14.56577
23.915230274,-38.15937,-92.1663500000003,-10.96555,1.109437,0.05541317,-0.1817719,-80.53256,-4.496412,-14.56577
23.925088882,-38.6563,-94.3681799999999,-9.55557899999999,1.029123,0.1105535,-0.2108306,-80.53256,-4.496412,-14.56577
23.934947014,-32.94164,-95.61787,-7.83909500000001,0.8421342,0.113424,-0.4309691,-80.53256,-4.496412,-14.56577
23.944805145,-32.0099,-102.997,-8.26821599999997,0.6746472,0.05533804,-0.6020631,-81.97486,-4.749291,-7.512753
23.957127571,-18.03382,-111.8043,-13.41767,0.6947966,-0.01807518,-0.3729542,-81.97486,-4.749291,-7.512753
23.966985703,5.75657900000002,-116.1485,-21.63227,0.8761992,-0.1612556,-0.1836306,-81.97486,-4.749291,-7.512753
23.976843357,35.13741,-114.9583,-22.91963,1.023234,-0.06399643,0.1006975,-81.97486,-4.749291,-7.512753
23.986701488,53.95853,-104.7822,-27.63996,1.053504,0.2010698,-0.1370967,-81.97486,-4.749291,-7.512753
23.996559143,51.22543,-92.9399600000001,-26.90433,0.9757731,0.4150877,-0.6263205,-83.78812,-4.992509,-0.07372189
24.006417274,48.24387,-90.0835399999999,-27.33345,0.78455,0.5266542,-0.9178404,-83.78812,-4.992509,-0.07372189
24.016275406,43.21248,-92.5829200000001,-38.6745,0.6375991,0.5143926,-0.7265657,-83.78812,-4.992509,-0.07372189
24.02613306,48.7408,-88.7743500000001,-44.8048,0.5280974,0.4486974,-0.5985715,-83.78812,-4.992509,-0.07372189
24.035991192,66.6922900000001,-89.7264900000002,-49.95425,0.4574115,0.3944345,-0.6277325,-83.78812,-4.992509,-0.07372189
24.0458498,85.8861100000002,-94.0706400000001,-54.73589,0.6571912,0.1184778,-0.4632721,-83.72781,-6.673886,6.986022
24.055707455,97.1912100000001,-92.64243,-47.99256,0.839316,-0.1066762,-0.7236605,-83.72781,-6.673886,6.986022
24.065565586,105.639,-92.2258600000001,-39.22623,0.751367,0.1855402,-0.7093984,-83.72781,-6.673886,6.986022
24.075423718,88.5571,-99.6644699999998,-38.18408,0.6637264,0.4791134,-0.2049084,-83.72781,-6.673886,6.986022
24.085281372,48.3681,-92.7614400000001,-37.44844,0.6283684,0.6143322,-0.5262436,-83.72781,-6.673886,6.986022
24.095139504,11.59548,-89.7860000000001,-28.31429,0.3026359,0.8230112,-0.9453692,-83.65682,-9.884757,14.38155
24.104997158,-15.98399,-89.4289400000001,-35.67065,0.3253031,0.8635623,-0.8260294,-83.65682,-9.884757,14.38155
24.114855289,-23.06521,-91.8688000000002,-44.7435,0.5353615,0.8072127,-0.6474029,-83.65682,-9.884757,14.38155
24.127177715,-0.2686647,-85.3228200000001,-47.56344,0.610019,0.8734621,-0.6752223,-83.65682,-9.884757,14.38155
24.137035847,4.141565,-77.2296100000001,-46.03086,0.4528773,0.7267657,-0.8831517,-83.65682,-9.884757,14.38155
24.146893501,-0.2065488,-77.1105899999998,-40.26838,0.2999623,0.2913728,-0.7480748,-83.21842,-12.3681,21.44753
24.156751633,9.297187,-74.1946600000002,-29.78557,0.351271,-0.3385494,-0.8044382,-83.21842,-12.3681,21.44753
24.166609764,32.90123,-65.8633999999998,-18.32191,0.5453997,-0.6703935,-0.995935,-83.21842,-12.3681,21.44753
24.176468372,70.9782900000002,-57.29412,-6.85824700000003,0.4190098,-0.5199417,-0.8040593,-83.21842,-12.3681,21.44753
24.186326027,68.3072999999999,-48.48679,-7.71648900000002,0.3185176,-0.0824316,-0.6848853,-83.21842,-12.3681,21.44753
24.196184158,5.011188,-56.10394,-4.406127,0.5536728,0.486743,-0.3757872,-83.1453,-15.88487,28.91021
24.206041813,-38.84265,-57.7106799999999,-5.69349,1.21442,0.8552545,-0.2105411,-83.1453,-15.88487,28.91021
24.215899944,-57.3531900000002,-70.9216599999999,-11.9464,2.228118,0.7738252,0.0766988,-83.1453,-15.88487,28.91021
24.225758076,-65.1797899999997,-69.4934499999998,-13.17246,2.98685,0.6614179,-0.02754916,-83.1453,-15.88487,28.91021
24.23561573,-59.2787799999998,-55.56836,-14.092,1.840288,0.1392749,-0.4358723,-83.1453,-15.88487,28.91021
24.245473862,-21.0775,-74.1946600000002,-23.59397,1.361233,-0.2392061,-0.7039447,-82.73092,-16.1825,34.28921
24.255331516,12.40298,-80.1455499999999,-20.161,1.36573,-0.4188075,-0.8550349,-82.73092,-16.1825,34.28921
24.265189648,45.20019,-77.1105899999998,-11.70118,1.281435,-0.2334169,-0.9179191,-82.73092,-16.1825,34.28921
24.275047779,58.9277999999997,-73.5995600000001,-1.034463,1.449019,0.1594626,-0.8757808,-82.73092,-16.1825,34.28921
24.284906387,43.46094,-66.8155399999999,9.264441,1.450369,0.6304237,-0.9005774,-82.73092,-16.1825,34.28921
24.297228336,27.62138,-50.33157,14.22998,1.313792,0.8294136,-0.5878679,-81.55301,-19.43394,39.69451
24.307086945,13.70742,-45.74938,10.61311,1.423116,0.631438,-0.5661784,-81.55301,-19.43394,39.69451
24.316944599,16.93744,-46.88005,1.049839,1.806521,0.4097505,-0.3780004,-81.55301,-19.43394,39.69451
24.326802731,34.26778,-46.93956,-1.58619,2.145389,0.05421154,-0.093519,-81.55301,-19.43394,39.69451
24.336660385,44.0821,-39.67947,3.440656,2.161648,-0.03796996,-0.05858874,-81.55301,-19.43394,39.69451
24.346518517,54.57969,-37.47764,-4.222218,1.918144,-0.08740141,0.05132612,-79.2975,-17.94626,42.61247
24.356376648,70.9161799999999,-35.2163,-14.64373,1.69047,-0.2998467,-0.005205011,-79.2975,-17.94626,42.61247
24.366234303,114.211,-47.8322,-23.83918,1.520314,-0.3318715,-0.09793162,-79.2975,-17.94626,42.61247
24.376092434,157.5679,-63.8400999999999,-29.11123,1.517672,-0.08864676,-0.1135717,-79.2975,-17.94626,42.61247
24.385950089,176.1405,-84.2516600000002,-28.06908,1.488388,0.2580542,0.01723867,-79.2975,-17.94626,42.61247
24.39580822,154.7727,-104.0681,-23.65527,1.434861,0.4763619,-0.1641686,-77.06241,-16.12608,42.96611
24.405666828,114.4594,-108.9479,-7.71648900000002,1.300889,0.5442593,-0.8162726,-77.06241,-16.12608,42.96611
24.415524483,81.9728099999998,-123.5276,11.83917,1.217554,0.5197682,-0.9216739,-77.06241,-16.12608,42.96611
24.425382614,40.54149,-140.7852,22.56719,1.324544,0.5570977,-0.4336211,-77.06241,-16.12608,42.96611
24.435240746,-13.99628,-131.5018,18.6438,1.707402,0.5316566,-0.07701766,-77.06241,-16.12608,42.96611
24.4450984,-29.77373,-100.3786,28.14577,1.727463,0.8222476,0.2864652,-73.76218,-12.13584,45.78882
24.454956532,-40.08496,-72.9449599999998,20.6055,1.570435,1.052007,0.4181093,-73.76218,-12.13584,45.78882
24.464814186,-73.0064000000001,-51.75978,17.35644,1.761234,0.8097747,0.3841145,-73.76218,-12.13584,45.78882
24.477137089,-91.2063600000003,-5.87839600000002,38.32206,1.751779,0.6644638,-0.5806472,-73.76218,-12.13584,45.78882
24.486994743,-72.3231300000002,13.46201,50.15354,1.543209,0.6313962,-0.08294056,-73.76218,-12.13584,45.78882
24.496852875,-69.7763700000002,51.25018,44.94279,1.556537,0.3393619,0.3864163,-68.17033,-8.507528,46.55432
24.506711006,-56.66991,99.5714300000001,50.46006,1.619988,-0.2482715,0.2890257,-68.17033,-8.507528,46.55432
24.516568661,-0.889823900000002,153.1295,68.85095,1.602862,-0.9073429,-0.111632,-68.17033,-8.507528,46.55432
24.526427269,130.0505,208.6513,94.353,1.594976,-1.5064,-0.7505561,-68.17033,-8.507528,46.55432
24.536285401,284.1601,248.4628,114.7669,1.27105,-1.286465,-1.02729,-68.17033,-8.507528,46.55432
24.546143055,359.5688,275.9559,99.5024499999999,1.081882,-0.3181204,-0.8448684,-66.36506,-7.907745,38.27934
24.556001186,352.2392,297.1411,74.8586400000001,1.083172,0.5468524,-0.7786454,-66.36506,-7.907745,38.27934
24.565859318,270.8052,322.9085,45.2493,1.122917,1.439206,-0.3796958,-66.36506,-7.907745,38.27934
24.575716972,90.60692,351.2347,26.55189,1.157868,2.255493,-0.3991817,-66.36506,-7.907745,38.27934
24.585575104,-112.8227,368.7899,14.5978,0.9161681,2.654859,-0.5155208,-66.36506,-7.907745,38.27934
24.595432758,-306.438,372.4794,-12.86594,1.100646,1.967642,-0.7228174,-70.67531,0.6208,17.15018
24.60529089,-418.433,388.8444,-10.046,1.641921,1.2867,-0.8781218,-70.67531,0.6208,17.15018
24.615149021,-433.7135,427.2871,23.73195,1.844662,0.01148116,-1.303885,-70.67531,0.6208,17.15018
24.625007629,-292.4619,438.0583,70.3222200000002,1.698289,-1.148061,-1.720821,-70.67531,0.6208,17.15018
24.634865284,-92.4486799999999,449.722,87.0579399999999,1.573093,-1.063097,-1.606666,-70.67531,0.6208,17.15018
24.647187233,67.2513399999998,454.6613,57.7551099999999,1.87588,0.1174902,-1.396879,-73.52047,6.84212,-9.789346
24.657045841,118.6212,465.4324,20.78941,1.975496,1.150713,-1.075704,-73.52047,6.84212,-9.789346
24.666903973,49.98311,467.3961,-34.07678,1.963182,1.979815,-1.069968,-73.52047,6.84212,-9.789346
24.676761627,-72.6958199999998,453.0545,-58.9044899999997,2.199748,2.066153,-0.795155,-73.52047,6.84212,-9.789346
24.686619759,-210.2205,430.5601,-52.9581,2.316567,1.891264,-0.9928509,-73.52047,6.84212,-9.789346
24.696477413,-290.6606,407.1731,-55.77804,2.124076,1.51334,-1.269795,-63.72423,12.97342,-37.17893
24.706335545,-316.3766,383.191,-57.12671,1.925635,0.9576496,-1.314305,-63.72423,12.97342,-37.17893
24.716193676,-322.4018,359.9825,-35.97717,1.834543,0.2253074,-1.355606,-63.72423,12.97342,-37.17893
24.726051331,-218.9788,321.3017,39.60942,1.484477,-0.07661702,-1.496925,-63.72423,12.97342,-37.17893
24.735909462,-129.9667,298.2122,62.5367499999998,1.181529,0.05652332,-1.352037,-63.72423,12.97342,-37.17893
24.74576807,-53.502,283.7516,34.15346,0.9752821,-0.03579049,-1.346043,-42.26475,14.71613,-48.51473
24.755625725,28.80158,257.3296,-6.36782300000001,0.9015011,-0.2737809,-1.440922,-42.26475,14.71613,-48.51473
24.765483856,98.9304499999998,225.5518,-38.18408,0.695008,-0.01127662,-1.284337,-42.26475,14.71613,-48.51473
24.775341988,136.3242,194.9643,-52.52898,0.4999222,0.420381,-1.075212,-42.26475,14.71613,-48.51473
24.785199642,119.1802,164.3767,-46.64389,0.5462201,0.6680557,-0.7987216,-42.26475,14.71613,-48.51473
24.795057774,50.29369,140.9301,-35.91587,0.7013795,0.7806869,-0.5867387,-24.14641,23.9818,-51.20269
24.804915428,-25.23926,123.9701,-30.64381,0.6807396,0.7653955,-0.4634193,-24.14641,23.9818,-51.20269
24.817238331,-80.0254999999999,101.7733,-29.47905,0.5197917,0.453862,-0.6290784,-24.14641,23.9818,-51.20269
24.827095985,-84.4978400000003,82.1948200000003,-27.33345,0.5275862,0.2363606,-0.6434842,-24.14641,23.9818,-51.20269
24.836954117,-67.22962,66.2464300000002,-27.94648,0.6627172,0.1338672,-0.6544215,-14.46548,18.0306,-51.96105
24.846812248,-47.72522,58.45076,-30.64381,0.6992261,0.09765898,-0.663873,-14.46548,18.0306,-51.96105
24.856669903,-36.17166,53.27348,-31.44075,0.54614,0.08326446,-0.6373735,-14.46548,18.0306,-51.96105
24.866528511,-31.94778,43.21648,-31.07293,0.4514882,0.08493656,-0.6168424,-14.46548,18.0306,-51.96105
24.876386642,-35.30204,31.3742,-29.78557,0.4330746,0.1983085,-0.5758497,-14.46548,18.0306,-51.96105
24.886244297,-53.43989,18.93683,-27.21084,0.452833,0.2962642,-0.5834509,-14.46548,18.0306,-51.96105
24.896102428,-82.6343700000002,7.80865900000001,-23.96178,0.464312,0.3413457,-0.5271677,-9.977251,19.47367,-50.39897
24.905960083,-110.2138,-7.00906600000001,-20.77403,0.4108505,0.2749229,-0.5954919,-9.977251,19.47367,-50.39897
24.915818214,-126.1155,-24.08813,-19.54797,0.3855673,0.2099427,-0.6052638,-9.977251,19.47367,-50.39897
24.925676346,-130.4636,-43.13099,-19.42536,0.432397,0.1679803,-0.6163487,-9.977251,19.47367,-50.39897
24.935534,-124.4384,-60.3290700000003,-19.30276,0.5218365,0.1571676,-0.5966298,-9.977251,19.47367,-50.39897
24.945392132,-117.1087,-71.2787199999999,-22.00009,0.5965237,0.1930727,-0.541325,-9.222639,20.96703,-48.30545
24.95525074,-111.5183,-75.5633599999999,-26.4139,0.6049219,0.1857636,-0.4341657,-9.222639,20.96703,-48.30545
24.965108395,-104.6234,-79.1339,-30.70511,0.589651,0.1581757,-0.3584673,-9.222639,20.96703,-48.30545
24.974966526,-100.0889,-83.2400099999997,-34.26068,0.5763046,0.1739129,-0.28291,-9.222639,20.96703,-48.30545
24.984824657,-101.5176,-90.5001,-36.89672,0.517059,0.2207312,-0.2452513,-9.222639,20.96703,-48.30545
24.997147083,-113.6923,-97.8792100000001,-37.50975,0.5360075,0.2678681,-0.1775565,-11.46531,25.39478,-45.07378
25.007005215,-128.7244,-104.1276,-38.49059,0.552578,0.2295631,-0.1800327,-11.46531,25.39478,-45.07378
25.016862869,-137.2964,-110.7331,-40.7588,0.5905036,0.1521243,-0.157746,-11.46531,25.39478,-45.07378
25.026721001,-136.7373,-117.9337,-43.76265,0.6859217,0.06794254,-0.122918,-11.46531,25.39478,-45.07378
25.036578655,-127.3578,-125.2533,-46.52129,0.7791234,0.09631455,-0.04398064,-15.5685,29.5498,-40.93311
25.046436787,-123.693,-129.657,-49.09601,0.802717,0.157583,0.01801689,-15.5685,29.5498,-40.93311
25.056294918,-134.2527,-131.2042,-49.15731,0.8677786,0.09460688,0.06974927,-15.5685,29.5498,-40.93311
25.066152573,-139.6568,-129.0619,-50.44468,0.91418,0.02132832,0.1432246,-15.5685,29.5498,-40.93311
25.076011181,-133.6936,-125.1343,-56.39107,0.9618647,-0.06614835,0.1906851,-15.5685,29.5498,-40.93311
25.085869312,-120.1524,-121.2067,-61.1113999999999,0.9678817,-0.1784294,0.2102573,-15.5685,29.5498,-40.93311
25.095726967,-106.549,-117.5767,-63.1344000000001,0.9066986,-0.2511859,0.2876664,-22.59544,35.17213,-35.19142
25.105585098,-100.2753,-116.0294,-61.9083400000002,0.9019666,-0.2139432,0.3680745,-22.59544,35.17213,-35.19142
25.11544323,-107.1702,-116.446,-57.24931,1.006852,-0.1277898,0.3859954,-22.59544,35.17213,-35.19142
25.125300884,-123.8793,-115.2558,-53.57113,1.146744,-0.0790623,0.4625224,-22.59544,35.17213,-35.19142
25.135159016,-139.4083,-110.7331,-53.08071,1.247092,-0.1040317,0.4445887,-22.59544,35.17213,-35.19142
25.14501667,-145.5578,-104.3062,-53.69374,1.215122,-0.2435898,0.4170313,-30.36569,40.12904,-29.37494
25.154874802,-141.2097,-102.0448,-54.61328,1.106848,-0.3414809,0.3913924,-30.36569,40.12904,-29.37494
25.167197228,-132.5756,-99.0098799999998,-53.38722,1.015587,-0.3656638,0.3867386,-30.36569,40.12904,-29.37494
25.177055359,-130.0288,-98.2362599999997,-52.09986,0.9746997,-0.362334,0.3331999,-30.36569,40.12904,-29.37494
25.186913967,-131.7059,-101.6878,-51.48683,0.9289569,-0.3664957,0.2398937,-37.04195,42.47543,-20.65629
25.196771622,-140.3401,-107.4601,-48.11516,0.923704,-0.3400598,0.1649573,-37.04195,42.47543,-20.65629
25.206629753,-158.7885,-119.0049,-41.31053,0.9409519,-0.2433909,0.07975066,-37.04195,42.47543,-20.65629
25.216487885,-186.5543,-136.0839,-36.03848,1.0092,-0.2000758,-0.07947152,-37.04195,42.47543,-20.65629
25.226345539,-204.3816,-157.5667,-31.56335,1.088784,-0.1857958,-0.2223283,-37.04195,42.47543,-20.65629
25.236203671,-209.5993,-178.9899,-30.15339,1.173984,-0.1172076,-0.3001149,-43.27103,44.90041,-10.34017
25.246061325,-207.4252,-186.131,-31.25684,1.345308,-0.1048366,-0.3901458,-43.27103,44.90041,-10.34017
25.255919457,-192.1447,-168.8139,-35.73196,1.391902,-0.1919486,-0.2429932,-43.27103,44.90041,-10.34017
25.265777588,-165.3107,-133.7631,-46.8891,1.265783,-0.4087315,-0.1390389,-43.27103,44.90041,-10.34017
25.275636196,-105.3688,-101.5093,-62.46006,1.533683,-0.7638659,1.327684,-43.27103,44.90041,-10.34017
25.285493851,-78.5347100000002,44.40665,-23.22615,5.178634,-3.677705,5.304692,-47.59511,47.3742,5.023373
25.295351982,15.69513,57.02255,-6.55173199999999,3.738091,-2.36109,1.530532,-47.59511,47.3742,5.023373
25.305209637,215.1493,2.274328,-42.41399,1.357499,-1.785861,-2.302615,-47.59511,47.3742,5.023373
25.315067768,197.8811,-117.6957,-44.8661,1.129549,-0.7824448,-2.278439,-47.59511,47.3742,5.023373
25.3249259,103.8997,-201.3652,-19.97709,1.59776,1.64861,-0.03104705,-47.59511,47.3742,5.023373
25.334783554,-35.67474,-137.5122,-50.32207,1.853324,2.012263,1.091623,-47.59511,47.3742,5.023373
25.34710598,-149.7817,-80.7406399999997,-37.57105,0.8446188,0.7663812,-0.06896953,-51.69257,45.95978,5.827869
25.356964111,-98.0391199999998,-52.83094,-39.47144,0.2465611,0.3178958,-0.9454784,-51.69257,45.95978,5.827869
25.366822243,-16.23246,-53.8426,-47.25692,-0.007684264,0.2125599,-1.313644,-51.69257,45.95978,5.827869
25.376679897,51.78447,-65.3278199999999,-44.6822,0.5921016,0.4476424,-0.6416622,-51.69257,45.95978,5.827869
25.386538506,50.79062,-51.34322,-46.39868,1.253681,0.567065,-0.2039488,-52.01962,44.56635,11.22204
25.396396637,14.20434,-44.49969,-36.28368,1.365961,0.2114762,-0.1759645,-52.01962,44.56635,11.22204
25.406254292,-28.22083,-46.10644,-25.00393,1.263037,0.05251308,-0.1499624,-52.01962,44.56635,11.22204
25.416112423,-58.9682,-61.8763000000002,-22.49051,1.035341,-0.2048553,-0.2476042,-52.01962,44.56635,11.22204
25.425970554,-76.23643,-64.3161699999999,-22.00009,1.062929,-0.4314778,-0.1459237,-52.01962,44.56635,11.22204
25.435828209,-76.4227799999999,-53.00947,-28.4369,1.053945,-0.5679048,-0.1713862,-53.48011,42.10803,14.13616
25.44568634,-33.9976,-47.53465,-43.76265,1.077859,-0.6459599,-0.2802057,-53.48011,42.10803,14.13616
25.455543995,24.14289,-39.14389,-48.23777,1.186406,-0.4336636,-0.2416251,-53.48011,42.10803,14.13616
25.465402126,71.5994499999998,-28.78934,-55.71674,1.114515,-0.1009409,-0.2339589,-53.48011,42.10803,14.13616
25.475260735,103.0922,-19.863,-61.9696400000001,1.051392,0.005063816,-0.105656,-53.48011,42.10803,14.13616
25.485118866,126.5099,-9.984512,-65.5252200000001,1.098908,0.06796512,0.2051981,-54.56177,39.22123,17.43682
25.494976521,126.572,3.881069,-64.6056700000003,1.105963,0.2324819,0.329161,-54.56177,39.22123,17.43682
25.504834652,114.3973,8.58227499999998,-61.8470300000001,0.8808318,0.5315377,0.1556729,-54.56177,39.22123,17.43682
25.517157078,95.8867699999998,0.9056224,-60.1305500000002,0.6890687,1.030768,-0.04966611,-54.56177,39.22123,17.43682
25.527015209,50.10735,-10.04402,-54.79719,0.785665,1.336971,-0.3743143,-54.56177,39.22123,17.43682
25.536872864,-20.45634,-26.23045,-38.73581,0.7112032,1.154421,-0.8650147,-55.71165,39.55066,13.72604
25.546730995,-55.55183,-40.75063,-15.25676,0.9145845,0.4460516,-0.5298264,-55.71165,39.55066,13.72604
25.556589126,-56.73203,-35.57335,-7.28736799999999,1.126625,0.4350489,-0.2018145,-55.71165,39.55066,13.72604
25.566446781,-42.88018,-25.93291,-11.63988,1.226141,-0.1280788,-0.4672322,-55.71165,39.55066,13.72604
25.576304912,-14.36898,-33.49054,-6.79694399999997,1.350902,-0.4406587,-0.4189364,-55.71165,39.55066,13.72604
25.586163521,-13.49935,-37.65617,4.54411,1.468644,-0.1404273,-0.3102609,-57.86848,37.01662,15.04398
25.596021175,-25.11503,-38.66782,4.54411,1.353166,0.1051263,-0.3467954,-57.86848,37.01662,15.04398
25.605879307,-38.59418,-43.42854,5.095838,1.336968,0.04363888,-0.2253668,-57.86848,37.01662,15.04398
25.615737438,-49.27812,-41.46474,9.01922900000002,1.354832,0.03450797,-0.1073363,-57.86848,37.01662,15.04398
25.625595093,-58.5333899999998,-38.13224,21.89286,1.395629,-0.04962292,-0.05974939,-57.86848,37.01662,15.04398
25.635453224,-87.35518,-25.15929,34.09216,1.235334,0.2087763,-0.7165793,-58.20866,34.10961,17.5086
25.645310879,-107.605,-20.5771,35.62473,1.059113,0.2227247,-0.6037341,-58.20866,34.10961,17.5086
25.65516901,-117.6056,-17.00657,35.80864,1.122198,0.1124727,-0.3079808,-58.20866,34.10961,17.5086
25.665027618,-131.5817,-14.62621,41.63242,1.201475,0.1448347,-0.170349,-58.20866,34.10961,17.5086
25.674885273,-156.9871,-17.78018,46.59797,1.272782,0.1684338,-0.01494711,-58.20866,34.10961,17.5086
25.684743404,-182.8273,-21.29121,49.05009,1.226849,0.1368467,0.1047616,-56.67982,33.41396,21.66932
25.69706583,-198.3563,-29.62246,47.08839,1.182314,-0.05860336,0.2546947,-56.67982,33.41396,21.66932
25.706923962,-206.742,-36.88255,49.11139,1.200183,-0.2178888,0.1692359,-56.67982,33.41396,21.66932
25.716782093,-213.5126,-44.73773,54.44475,1.214503,-0.3763463,0.1830289,-56.67982,33.41396,21.66932
25.726639748,-225.5631,-54.25916,64.5597399999998,1.105929,-0.4038829,0.2332223,-56.67982,33.41396,21.66932
25.736497879,-246.7446,-58.66282,73.5099799999999,1.006456,-0.2690528,0.08914287,-53.70769,34.5826,28.68439
25.746355534,-264.634,-60.9241600000001,81.2341499999999,0.8574841,-0.162245,-0.0142148,-53.70769,34.5826,28.68439
25.756213665,-275.4422,-59.3174199999997,84.2380100000001,0.7449674,-0.04102038,-0.1222832,-53.70769,34.5826,28.68439
25.766071796,-276.3118,-55.68737,82.7054299999998,0.6244254,0.1212246,-0.1728662,-53.70769,34.5826,28.68439
25.775930405,-259.5405,-52.89045,75.5942800000001,0.5684175,0.2688127,-0.1320073,-53.70769,34.5826,28.68439
25.785788059,-230.2218,-50.74813,61.9237199999998,0.6052507,0.4168411,-0.06323665,-49.51836,31.77246,37.39856
25.795646191,-184.6287,-48.12974,46.47536,0.6262326,0.4900284,0.06886181,-49.51836,31.77246,37.39856
25.805503845,-131.3954,-44.73773,32.55958,0.6248494,0.5883908,0.08983802,-49.51836,31.77246,37.39856
25.815361977,-90.5230899999998,-39.44144,22.13807,0.5184388,0.8119395,-0.1262321,-49.51836,31.77246,37.39856
25.825220108,-61.6391899999998,-36.34697,7.97707799999999,0.4100279,0.9110958,-0.419037,-49.51836,31.77246,37.39856
25.835077763,-27.91025,-31.64577,-7.90039899999997,0.3856469,0.7733871,-0.7495409,-45.39613,27.03155,44.02007
25.844935894,26.50329,-24.32617,-27.39475,0.3705854,0.4768459,-0.8951095,-45.39613,27.03155,44.02007
25.854793549,92.71886,-18.49429,-43.02702,0.3089299,0.3058211,-0.9388021,-45.39613,27.03155,44.02007
25.867116451,128.4355,-27.06358,-45.60174,0.3558445,0.2593235,-0.7323698,-45.39613,27.03155,44.02007
25.876974106,111.9748,-35.57335,-37.57105,0.549437,0.4099648,-0.4669435,-45.39613,27.03155,44.02007
25.886832714,73.4629300000001,-40.39358,-35.67065,0.7486268,0.5502751,-0.3741961,-43.88027,23.76855,44.49375
25.896690845,26.06848,-43.90461,-29.66296,0.8662947,0.4891147,-0.4813339,-43.88027,23.76855,44.49375
25.9065485,-11.76011,-50.03403,-25.12654,0.9391124,0.2135085,-0.4425282,-43.88027,23.76855,44.49375
25.916406631,-25.48773,-47.8322,-20.161,1.022048,-0.1620851,-0.3596657,-43.88027,23.76855,44.49375
25.926264763,-7.72257499999999,-38.42978,-17.40236,1.051155,-0.3632621,-0.4830158,-43.88027,23.76855,44.49375
25.936122417,27.6835,-33.78809,-19.05754,1.092528,-0.2935421,-0.5448338,-44.26173,26.30012,45.3021
25.945980549,52.09505,-29.56295,-19.30276,1.182375,0.0003624073,-0.370643,-44.26173,26.30012,45.3021
25.955838203,57.6233699999997,-25.57585,-19.73188,1.169055,0.2868852,-0.2343384,-44.26173,26.30012,45.3021
25.965696812,50.23158,-26.70652,-18.93494,1.036013,0.519873,-0.206516,-44.26173,26.30012,45.3021
25.975554943,35.69645,-33.13349,-19.60927,0.8906125,0.6635576,-0.0872648,-44.26173,26.30012,45.3021
25.985413074,15.26031,-40.69112,-18.99624,0.8383496,0.6426639,0.04412519,-43.50227,25.19863,46.14172
25.995270729,-10.70414,-42.05983,-15.25676,0.9284056,0.3838201,-0.2885528,-43.50227,25.19863,46.14172
26.00512886,-8.09526999999998,-42.17884,-12.55943,0.9341738,0.07346596,-0.53325,-43.50227,25.19863,46.14172
26.014986515,7.24736100000001,-42.05983,-14.092,0.9025278,-0.09773456,-0.5649125,-43.50227,25.19863,46.14172
26.024844646,24.76405,-40.69112,-16.1763,0.7737988,-0.04714265,-0.5247941,-43.50227,25.19863,46.14172
26.037167072,40.1688,-42.23835,-17.15715,0.6989653,0.1347423,-0.5068582,-43.13059,26.67848,46.95689
26.047025204,41.78381,-44.91626,-16.60542,0.7221705,0.2823988,-0.5049844,-43.13059,26.67848,46.95689
26.056883335,35.44799,-48.90335,-16.29891,0.7787477,0.4083275,-0.4069712,-43.13059,26.67848,46.95689
26.066741943,22.27941,-53.8426,-14.95024,0.783352,0.4567585,-0.3496034,-43.13059,26.67848,46.95689
26.076599598,13.70742,-58.3652800000002,-15.13415,0.7311134,0.4438486,-0.4246813,-43.13059,26.67848,46.95689
26.086457729,12.40298,-66.3394699999998,-18.38321,0.66255,0.4173441,-0.453159,-42.00187,26.30808,47.72303
26.096315384,10.35316,-73.3020199999998,-20.34491,0.6471272,0.3888715,-0.353506,-42.00187,26.30808,47.72303
26.106173515,-7.84680700000002,-73.7780899999998,-17.70888,0.7113023,0.1690571,-0.4688876,-42.00187,26.30808,47.72303
26.116031647,-5.548518,-71.5167499999997,-10.65903,0.7016079,-0.04929391,-0.7978854,-42.00187,26.30808,47.72303
26.125889301,9.98046100000001,-72.8854600000002,-12.37552,0.8558473,-0.1437456,-0.6561626,-42.00187,26.30808,47.72303
26.135747433,23.95654,-65.6848799999998,-8.57473199999998,0.9628964,0.132269,-0.4919519,-40.12206,27.05219,49.81829
26.145605087,19.54631,-63.78059,-13.54027,0.966259,0.2189682,-0.3484667,-40.12206,27.05219,49.81829
26.155463696,16.12994,-68.8388500000001,-13.54027,0.848662,0.1367453,-0.3263998,-40.12206,27.05219,49.81829
26.165321827,8.86237499999997,-74.01613,-10.96555,0.8323351,0.1733021,-0.2717091,-40.12206,27.05219,49.81829
26.175179482,-0.4550124,-79.3719299999998,-10.046,0.8594511,0.2376409,-0.3074925,-40.12206,27.05219,49.81829
26.185037613,-4.181968,-83.3590300000001,-11.70118,0.9060538,0.2502428,-0.4307254,-37.17175,25.5743,51.86668
26.194895744,-2.442722,-85.5013499999998,-12.62073,0.9569375,0.1722263,-0.463257,-37.17175,25.5743,51.86668
26.204753399,8.61391200000001,-87.1676,-13.84679,0.9976208,0.04013407,-0.3585694,-37.17175,25.5743,51.86668
26.217076302,26.1306,-87.4651500000001,-13.11115,1.061039,-0.06573383,-0.3215515,-37.17175,25.5743,51.86668
26.226933956,46.00769,-91.6902800000002,-12.74334,1.167718,-0.04817938,-0.304235,-37.17175,25.5743,51.86668
26.236792088,63.8970800000001,-99.3074299999999,-6.30652000000001,1.382861,0.1592418,-0.130643,-34.90546,25.59474,55.18381
26.246649742,65.8847899999997,-107.0436,0.5594154,1.66474,0.2169898,0.0694866,-34.90546,25.59474,55.18381
26.25650835,52.2814,-117.8742,8.03838099999998,1.830634,0.01862514,0.1133681,-34.90546,25.59474,55.18381
26.266366482,52.03294,-134.1797,15.33344,1.914616,-0.2311652,0.1325854,-34.90546,25.59474,55.18381
26.276224613,63.4622699999999,-148.6998,22.19937,2.180879,-0.3408715,0.2241837,-34.90546,25.59474,55.18381
26.286082268,69.98444,-162.863,27.10361,2.308368,-0.1077741,0.05565571,-31.91089,26.31343,56.37708
26.295940399,64.1455399999998,-175.2408,31.45613,2.329153,0.135726,-0.0714902,-31.91089,26.31343,56.37708
26.305798054,44.82749,-174.4672,38.62858,2.213109,0.7611243,-0.03053515,-31.91089,26.31343,56.37708
26.315656185,21.22344,-160.7802,44.08455,1.801554,1.297238,-0.3920038,-31.91089,26.31343,56.37708
26.325514317,-29.77373,-155.7219,36.72818,1.411961,0.9822131,-0.4298416,-31.91089,26.31343,56.37708
26.335372925,-74.9941099999997,-157.5667,42.73588,1.2376,0.3436103,-0.9699286,-25.26016,29.92951,57.1371
26.345230579,-90.9579,-162.5654,59.1037799999998,1.089372,0.1582347,-1.132308,-25.26016,29.92951,57.1371
26.355088711,-74.9319900000002,-160.6016,68.2992199999999,0.9642387,0.2033478,-1.263841,-25.26016,29.92951,57.1371
26.364946365,-53.75047,-153.5201,66.3988300000002,1.01629,0.3078252,-0.9066973,-25.26016,29.92951,57.1371
26.374804497,-18.40651,-138.9999,63.8240999999998,1.109442,0.6139014,-0.4794335,-25.26016,29.92951,57.1371
26.387126923,-9.83451600000002,-104.6037,49.234,1.373524,0.5222003,0.006249823,-17.7596,28.40534,59.61009
26.396985054,-8.28161699999999,-67.2321099999997,47.39491,1.260615,0.2760011,-0.2386104,-17.7596,28.40534,59.61009
26.406842709,14.76339,-45.33282,52.97348,1.018286,0.1292899,-0.3791962,-17.7596,28.40534,59.61009
26.41670084,40.72784,-24.26666,61.0654800000002,0.9333475,0.006230313,-0.2942059,-17.7596,28.40534,59.61009
26.426558972,65.0151600000002,-2.188842,72.7743500000003,0.9497709,-0.05088724,-0.2522732,-17.7596,28.40534,59.61009
26.43641758,87.8738199999998,26.19692,86.6901200000002,1.048139,0.02757105,-0.3244138,-11.46443,26.48037,58.76425
26.446275234,108.6827,57.26058,98.7668200000002,1.049836,0.129501,-0.3973745,-11.46443,26.48037,58.76425
26.456133366,117.0683,89.3954099999998,107.717,1.154719,0.2104184,-0.3483497,-11.46443,26.48037,58.76425
26.46599102,111.7884,119.0309,115.8704,1.261723,0.5090441,-0.3828153,-11.46443,26.48037,58.76425
26.475849152,90.1099900000003,153.308,116.2995,1.263938,0.7715608,-0.4558657,-11.46443,26.48037,58.76425
26.485707283,56.13259,183.4195,110.537,1.102496,0.9150267,-0.6162403,-10.01821,28.229,53.36051
26.495564938,19.98112,212.2814,101.7094,0.9333996,0.9566732,-0.5305772,-10.01821,28.229,53.36051
26.505423069,-26.29523,237.3941,91.9621800000001,0.975107,0.8944191,-0.361102,-10.01821,28.229,53.36051
26.515281677,-71.5777400000002,262.9235,88.2839999999998,1.177241,0.7527807,-0.5875268,-10.01821,28.229,53.36051
