Time (s),Gyroscope X (deg/s),Gyroscope Y (deg/s),Gyroscope Z (deg/s),Accelerometer X (g),Accelerometer Y (g),Accelerometer Z (g),Magnetometer X (uT),Magnetometer Y (uT),Magnetometer Z (uT)
170.041156292,-1.138287,1.500712,0.2529004,0.973468,0.1528377,-0.09323506,-44.19495,-29.25451,21.92685
170.0510149,0.2903785,0.310533,0.3142034,0.9684613,0.1499674,-0.06826955,-44.19495,-29.25451,21.92685
170.060873508,1.160001,-1.058172,0.3755064,0.9653357,0.1490459,-0.04714801,-44.19495,-29.25451,21.92685
170.070732117,2.153856,-2.724423,0.3755064,0.9556501,0.1524048,-0.03691843,-44.19495,-29.25451,21.92685
170.080590248,3.644638,-4.628708,-0.1762206,0.9453235,0.1454633,-0.04689302,-44.19495,-29.25451,21.92685
170.090448856,4.82484,-6.11643200000001,-0.1149176,0.9539716,0.1503787,-0.05416279,-44.57069,-28.88205,21.92501
170.100307465,5.88081099999999,-7.12808399999997,-0.2988266,0.9652121,0.1527812,-0.08880507,-44.57069,-28.88205,21.92501
170.110166073,7.37159299999998,-7.42562799999997,-0.2988266,0.9766363,0.1562126,-0.1090653,-44.57069,-28.88205,21.92501
170.120023727,9.11083900000002,-7.24710100000002,0.1302944,1.001007,0.1612862,-0.1112866,-44.57069,-28.88205,21.92501
170.129882336,9.04872300000001,-7.00906600000001,0.1915974,1.02196,0.1658431,-0.1134636,-44.57069,-28.88205,21.92501
170.139740944,6.93678100000001,-6.29495900000002,0.1302944,1.015778,0.1575375,-0.1076952,-44.1962,-28.51287,22.30339
170.149599075,4.017333,-5.93790500000001,0.3755064,1.008015,0.1599276,-0.1008556,-44.1962,-28.51287,22.30339
170.159457684,1.160001,-4.807235,0.3142034,1.005015,0.1637888,-0.1022178,-44.1962,-28.51287,22.30339
170.169316292,-1.138287,-3.617057,0.3755064,0.9938689,0.1670018,-0.1274295,-44.1962,-28.51287,22.30339
170.1791749,-3.436576,-3.081476,0.3755064,0.9746839,0.1755904,-0.1275627,-44.1962,-28.51287,22.30339
170.189032555,-6.72872000000001,-2.843441,1.049839,0.966447,0.1882333,-0.1105667,-44.94366,-28.50424,22.30725
170.201355934,-11.26318,-2.724423,0.927233400000001,0.9689934,0.1731486,-0.1164806,-44.94366,-28.50424,22.30725
170.211214542,-12.31915,-2.90295,0.8659304,0.9726107,0.1502872,-0.1224755,-44.94366,-28.50424,22.30725
170.221072674,-10.02086,-3.260003,0.743324399999998,0.9662023,0.1303348,-0.1076974,-44.94366,-28.50424,22.30725
170.230931282,-7.72257499999999,-3.43853,0.682021400000003,0.9595423,0.1293516,-0.09467239,-44.94044,-28.498,22.75535
170.24078989,-5.98332900000001,-4.093128,0.1302944,0.952518,0.1414465,-0.09686619,-44.94044,-28.498,22.75535
170.250648499,-3.871388,-5.045271,-0.4827355,0.9668016,0.1518526,-0.08068918,-44.94044,-28.498,22.75535
170.260506153,-3.622924,-6.59250300000002,-0.4827355,0.9905311,0.1560372,-0.05894889,-44.94044,-28.498,22.75535
170.270364761,-4.492547,-7.78268199999998,-0.727947499999999,0.9888694,0.1608511,-0.06894776,-44.94044,-28.498,22.75535
170.28022337,-5.175822,-8.73482500000002,-0.5440385,0.9770271,0.1651121,-0.07257662,-44.19218,-29.24917,22.31093
170.290081978,-5.79698099999998,-9.62745900000001,-0.4827355,0.9753672,0.1582092,-0.09273759,-44.19218,-29.24917,22.31093
170.299940109,-4.803127,-9.92500399999998,-0.4214326,0.977532,0.1488743,-0.1215992,-44.19218,-29.24917,22.31093
170.309798718,-2.877533,-9.50844099999999,-0.3601296,0.9804933,0.1531666,-0.1517947,-44.19218,-29.24917,22.31093
170.319657326,0.1661467,-8.49678899999997,-0.4827355,0.9831282,0.1443189,-0.1816173,-44.19218,-29.24917,22.31093
170.329515457,4.762724,-6.59250300000002,-0.3601296,0.9973897,0.1268898,-0.1915517,-44.19218,-29.24917,22.31093
170.339374065,9.42141799999999,-4.628708,-0.6666446,0.995737,0.1167064,-0.1781965,-44.19097,-28.87478,22.75526
170.349232674,13.14837,-2.962458,-0.911856500000002,0.9948567,0.1255138,-0.1632544,-44.19097,-28.87478,22.75526
170.359091282,14.45281,-1.534244,-1.402281,0.9794269,0.1550858,-0.1565553,-44.19097,-28.87478,22.75526
170.368948937,12.52721,-0.5225921,-1.218372,0.9718075,0.1832576,-0.1523754,-44.19097,-28.87478,22.75526
170.381272316,5.75657900000002,0.07249729,-0.5440385,0.9865093,0.1985301,-0.1371217,-43.81248,-29.2419,23.14118
170.391130924,0.3524944,0.4295509,-0.1762206,0.9808303,0.186327,-0.1337893,-43.81248,-29.2419,23.14118
170.400988579,-2.629069,0.5485688,-0.1149176,0.9698804,0.1687371,-0.1270729,-43.81248,-29.2419,23.14118
170.410847187,-3.747156,0.4890598,-0.2375236,0.9593271,0.1501487,-0.1280378,-43.81248,-29.2419,23.14118
170.420705795,-3.99562,-0.1060295,-0.2375236,0.9615099,0.1536482,-0.1083922,-43.81248,-29.2419,23.14118
170.430564404,-4.057736,-0.939154599999998,-0.1149176,0.9485027,0.1555414,-0.09189802,-43.81448,-28.87375,23.13741
170.440422535,-4.492547,-2.129333,-0.2375236,0.9467006,0.1628915,-0.07407993,-43.81448,-28.87375,23.13741
170.450281143,-5.73486500000002,-4.390673,-0.2988266,0.933933,0.1676472,-0.07337862,-43.81448,-28.87375,23.13741
170.460139752,-7.28776300000003,-6.47348499999999,-0.1149176,0.9444472,0.1818304,-0.07915917,-43.81448,-28.87375,23.13741
170.46999836,-8.03315400000002,-7.48513700000001,0.3142034,0.9685813,0.1853719,-0.1000788,-43.81448,-28.87375,23.13741
170.479856491,-6.72872000000001,-8.02071800000003,0.743324399999998,0.9781284,0.1678149,-0.1329486,-43.43874,-29.24622,23.13925
170.489715099,-2.629069,-7.78268199999998,0.8659304,0.9980549,0.1489145,-0.1592689,-43.43874,-29.24622,23.13925
170.499573708,3.271943,-6.11643200000001,0.804627399999999,1.010451,0.1271001,-0.1663385,-43.43874,-29.24622,23.13925
170.509431362,9.42141799999999,-4.450181,0.4368094,1.010534,0.1085712,-0.1765592,-43.43874,-29.24622,23.13925
170.519289971,14.76339,-2.545896,-0.05361458,1.022243,0.1111074,-0.1767047,-43.43874,-29.24622,23.13925
170.529148579,17.49649,-0.4630831,-0.6666446,1.014679,0.12416,-0.181758,-43.81248,-29.2419,23.14118
170.539007187,17.18591,1.738747,-1.279675,0.9904075,0.1453437,-0.1850668,-43.81248,-29.2419,23.14118
170.551329613,13.6453,3.28598,-1.279675,0.9734843,0.1661072,-0.1880048,-43.81248,-29.2419,23.14118
170.561188221,8.80025999999999,4.357141,-0.6666446,0.9955146,0.1848596,-0.1704302,-43.81248,-29.2419,23.14118
170.571046829,3.209827,5.547319,-0.05361458,0.9981865,0.1883633,-0.1507915,-43.81248,-29.2419,23.14118
170.580904961,-1.200403,6.49946299999999,0.1915974,0.9577843,0.1773198,-0.1455168,-43.81448,-28.87375,23.13741
170.590763569,-3.498692,6.32093599999998,0.0689914200000002,0.9297742,0.1591076,-0.1347289,-43.81448,-28.87375,23.13741
170.600622177,-4.678895,5.428301,-0.05361458,0.9463742,0.1535221,-0.1062607,-43.81448,-28.87375,23.13741
170.610480785,-5.98332900000001,4.41665,0.1302944,0.9557719,0.1629102,-0.09050184,-43.81448,-28.87375,23.13741
170.620338917,-8.03315400000002,2.750399,0.4368094,0.9588759,0.1717724,-0.07034492,-43.81448,-28.87375,23.13741
170.630197525,-10.02086,0.370042,0.620718400000002,0.9476046,0.1828963,-0.061944,-43.81327,-28.49937,23.58173
170.640056133,-11.51165,-2.069824,0.8659304,0.9383126,0.1833029,-0.06132894,-43.81327,-28.49937,23.58173
170.649914741,-12.31915,-3.914601,1.111142,0.9561462,0.1775285,-0.08607101,-43.81327,-28.49937,23.58173
170.659772396,-10.14509,-4.926253,1.172445,0.9721802,0.1590878,-0.1104151,-43.81327,-28.49937,23.58173
170.669631004,-4.430431,-4.866744,1.233748,0.9916414,0.1343312,-0.1401326,-43.81327,-28.49937,23.58173
170.679489613,1.843277,-3.914601,1.111142,0.9973959,0.1143329,-0.1662602,-43.81248,-29.2419,23.14118
170.689347744,8.36544800000002,-2.248351,0.682021400000003,1.010451,0.113918,-0.1779505,-43.81248,-29.2419,23.14118
170.699206352,13.95588,-0.4630831,0.0689914200000002,1.01632,0.1095756,-0.1819044,-43.81248,-29.2419,23.14118
170.70906496,17.06167,1.262676,-0.1762206,1.001066,0.1216214,-0.1777517,-43.81248,-29.2419,23.14118
170.72138834,17.24802,2.928926,-0.6053416,0.9726959,0.1413883,-0.1599294,-43.81248,-29.2419,23.14118
170.731245995,14.39069,3.643033,-0.727947499999999,0.9567713,0.1670485,-0.1570899,-44.1842,-29.60573,23.14688
170.741104603,9.42141799999999,3.583524,-0.3601296,0.9713915,0.1886447,-0.1422608,-44.1842,-29.60573,23.14688
170.750963211,3.209827,3.583524,0.4368094,0.9827289,0.1999981,-0.1260338,-44.1842,-29.60573,23.14688
170.760821342,-3.125997,3.881069,0.8659304,0.9784378,0.1955969,-0.121697,-44.1842,-29.60573,23.14688
170.770679951,-7.22564700000002,3.643033,1.111142,0.9659207,0.1677128,-0.1313379,-44.1842,-29.60573,23.14688
170.780538559,-8.03315400000002,3.107453,1.172445,0.963258,0.1536059,-0.1237518,-43.44552,-28.51527,22.74762
170.790397167,-7.59834299999997,2.750399,1.172445,0.9688014,0.1541882,-0.1113667,-43.44552,-28.51527,22.74762
170.800254822,-7.97103800000001,1.976783,1.049839,0.965446,0.1649185,-0.09685236,-43.44552,-28.51527,22.74762
170.81011343,-8.654313,0.846113400000001,1.356354,0.9629261,0.1761049,-0.09240925,-43.44552,-28.51527,22.74762
170.819972038,-9.83451600000002,-0.2250474,1.540263,0.9702842,0.1820344,-0.08575529,-43.44552,-28.51527,22.74762
170.829830646,-10.51779,-1.355717,1.785475,0.9698551,0.1698415,-0.09208167,-43.43954,-28.50368,23.5798
170.839688778,-10.39356,-2.129333,1.846778,0.971812,0.1527709,-0.1071088,-43.43954,-28.50368,23.5798
170.849547386,-7.90892299999997,-2.545896,1.846778,0.9765275,0.1356761,-0.1351139,-43.43954,-28.50368,23.5798
170.859405994,-3.312345,-2.426878,1.601566,0.9902542,0.1182296,-0.1483951,-43.43954,-28.50368,23.5798
170.869264603,2.215972,-1.534244,1.049839,0.9877596,0.115753,-0.1541308,-43.43954,-28.50368,23.5798
170.879122257,7.24736100000001,-0.5225921,0.927233400000001,0.9837746,0.1239978,-0.1520877,-44.19298,-28.50664,22.75149
170.888980865,10.78797,0.4295509,0.4981124,0.9900367,0.1337909,-0.1506567,-44.19298,-28.50664,22.75149
170.901304245,12.0924,1.61973,0.007688423,0.9817426,0.1429998,-0.1408768,-44.19298,-28.50664,22.75149
170.911162376,11.09855,2.333837,-0.05361458,0.9795644,0.1600073,-0.1421398,-44.19298,-28.50664,22.75149
170.921020985,8.05486800000002,2.750399,0.3755064,0.9760476,0.171668,-0.1386369,-44.19298,-28.50664,22.75149
170.930879593,4.017333,2.809908,0.5594154,0.9862478,0.1810145,-0.1358282,-44.56395,-28.49697,23.1375
170.940738201,-0.703476100000001,2.869417,0.988536299999999,0.981514,0.1858985,-0.1199059,-44.56395,-28.49697,23.1375
170.950595856,-5.424286,2.452855,1.47896,0.9644784,0.1930948,-0.1071432,-44.56395,-28.49697,23.1375
170.960454464,-10.08298,2.15531,1.724172,0.9611543,0.1769816,-0.1139406,-44.56395,-28.49697,23.1375
170.970313072,-12.19492,1.857765,2.09199,0.9759055,0.1556512,-0.1272692,-44.56395,-28.49697,23.1375
170.980171204,-10.9526,2.274328,2.214596,0.9760254,0.1400621,-0.1321945,-44.56194,-28.86512,23.14127
170.990029812,-8.28161699999999,2.214819,2.030687,0.9809749,0.1357278,-0.1318224,-44.56194,-28.86512,23.14127
170.99988842,-5.36217,2.571872,1.846778,0.9799556,0.1474249,-0.1245212,-44.56194,-28.86512,23.14127
171.009747028,-4.244083,2.452855,1.662869,0.9780305,0.1552282,-0.1153231,-44.56194,-28.86512,23.14127
171.01960516,-3.747156,2.393346,1.662869,0.9839668,0.1567637,-0.1091651,-44.56194,-28.86512,23.14127
171.029463291,-3.747156,1.857765,1.846778,0.9812211,0.1523977,-0.09909967,-44.19223,-28.13314,23.1318
171.039321899,-3.622924,1.500712,1.969384,0.9680034,0.1527662,-0.09938737,-44.19223,-28.13314,23.1318
171.049180508,-3.747156,0.5485688,1.969384,0.9722635,0.1581351,-0.1051532,-44.19223,-28.13314,23.1318
171.059038639,-3.747156,-0.4035742,1.662869,0.9714994,0.1576993,-0.08981158,-44.19223,-28.13314,23.1318
171.071362019,-3.622924,-1.058172,1.295051,0.9769458,0.1499539,-0.09187137,-44.19223,-28.13314,23.1318
171.081220627,-2.753301,-2.010315,1.47896,0.9706085,0.1420923,-0.09711858,-43.81725,-28.8791,22.75333
171.091078281,-2.00791,-3.379021,1.724172,0.9781597,0.1378241,-0.08528224,-43.81725,-28.8791,22.75333
171.10093689,-1.821563,-4.271655,1.540263,0.975508,0.1392085,-0.09912955,-43.81725,-28.8791,22.75333
171.110795498,-0.703476100000001,-5.10478,1.356354,0.9753489,0.1416042,-0.1086911,-43.81725,-28.8791,22.75333
171.120654106,0.5388422,-6.11643200000001,1.540263,0.9654739,0.1488149,-0.1089687,-43.81725,-28.8791,22.75333
171.130512238,0.2903785,-7.12808399999997,1.662869,0.9663807,0.1619853,-0.1026408,-44.56395,-28.49697,23.1375
171.140370846,-1.138287,-8.199244,1.601566,0.9619095,0.1677855,-0.1025282,-44.56395,-28.49697,23.1375
171.150229454,-1.883678,-9.03236999999999,1.908081,0.9651665,0.1527682,-0.09215893,-44.56395,-28.49697,23.1375
171.160088062,-2.691185,-9.03236999999999,1.969384,0.979513,0.1611042,-0.109065,-44.56395,-28.49697,23.1375
171.169946194,-3.250229,-9.56794999999997,2.153293,0.9753796,0.1614951,-0.1248164,-44.56395,-28.49697,23.1375
171.179804802,-2.939649,-9.865495,2.459808,0.9873767,0.1563018,-0.1106552,-44.19022,-28.50129,23.13557
171.18966341,-3.622924,-9.984512,2.643717,0.9876757,0.1640634,-0.117782,-44.19022,-28.50129,23.13557
171.199521065,-5.486402,-10.10353,2.766323,0.9813052,0.1600982,-0.1220375,-44.19022,-28.50129,23.13557
171.209379673,-5.98332900000001,-10.93666,2.950232,0.9745509,0.1395589,-0.1331361,-44.19022,-28.50129,23.13557
171.219238281,-5.237938,-11.47224,3.011535,0.9730221,0.1375755,-0.1393607,-44.19022,-28.50129,23.13557
171.22909689,-3.68504,-11.41273,3.072838,0.9735814,0.1366234,-0.1350639,-43.81649,-28.50561,23.13364
171.238955021,-2.31849,-11.47224,2.70502,0.977947,0.1342107,-0.1399384,-43.81649,-28.50561,23.13364
171.251277924,-1.262519,-11.71027,2.888929,0.9742957,0.1516918,-0.1411765,-43.81649,-28.50561,23.13364
171.261136532,-0.827707900000002,-11.53174,2.582414,0.9811416,0.1507752,-0.1422402,-43.81649,-28.50561,23.13364
171.27099514,-0.889823900000002,-10.87715,2.521111,0.9861482,0.1454807,-0.1385226,-43.81649,-28.50561,23.13364
171.280853272,-2.194258,-9.62745900000001,2.888929,0.9960805,0.1542627,-0.1558412,-44.18223,-28.85785,23.97152
171.29071188,-3.063881,-8.31826200000003,2.70502,0.9828447,0.146191,-0.2007655,-44.18223,-28.85785,23.97152
171.300570488,-1.573099,-7.30661099999998,2.643717,0.9804714,0.1334962,-0.2065892,-44.18223,-28.85785,23.97152
171.310428619,-0.2065488,-6.17594099999999,2.827626,0.9879915,0.1345896,-0.1923111,-44.18223,-28.85785,23.97152
171.320287228,-0.3307806,-4.866744,2.643717,0.9831505,0.1374901,-0.1859881,-44.18223,-28.85785,23.97152
171.330145836,-0.641360199999998,-3.260003,2.521111,0.980242,0.1330777,-0.1879006,-43.43356,-28.4921,24.41198
171.340004444,-0.1444329,-1.891297,2.582414,0.9777445,0.1286472,-0.1955696,-43.43356,-28.4921,24.41198
171.349862099,0.5388422,-0.879645599999998,2.398505,0.9826282,0.1369881,-0.1888601,-43.43356,-28.4921,24.41198
171.359720707,0.04191487,-0.04652058,2.214596,0.984809,0.1478103,-0.162923,-43.43356,-28.4921,24.41198
171.369579315,-1.200403,0.4890598,2.275899,0.9701523,0.1540327,-0.1559528,-43.43356,-28.4921,24.41198
171.379437924,-2.442722,0.667586600000001,2.459808,0.9677335,0.150113,-0.157389,-44.18423,-28.48971,23.96775
171.389296055,-2.939649,0.5485688,2.766323,0.9757115,0.1433902,-0.1522883,-44.18423,-28.48971,23.96775
171.399154663,-3.125997,0.4295509,2.643717,0.9773942,0.1307706,-0.1476268,-44.18423,-28.48971,23.96775
171.409013271,-2.504838,0.9056224,2.643717,0.9787803,0.1244134,-0.159201,-44.18423,-28.48971,23.96775
171.421335697,0.2903785,1.322185,2.398505,0.9763275,0.1195076,-0.1639994,-44.18423,-28.48971,23.96775
171.431194306,1.781161,1.560221,2.459808,0.9796197,0.1317059,-0.162985,-44.18901,-28.1269,23.5799
171.441052914,1.843277,2.036292,2.153293,0.9809629,0.1531654,-0.153239,-44.18901,-28.1269,23.5799
171.450911522,0.849421699999999,2.095801,1.846778,0.9742724,0.1404559,-0.1527718,-44.18901,-28.1269,23.5799
171.460769653,0.973653600000002,1.441203,1.846778,0.9690318,0.1248251,-0.1561834,-44.18901,-28.1269,23.5799
171.470628262,2.09174,0.9056224,1.662869,0.9697139,0.1146317,-0.1510079,-44.18901,-28.1269,23.5799
171.48048687,3.76887,1.203167,1.662869,0.9905404,0.09634104,-0.1466671,-44.18625,-28.12156,23.96398
171.490345478,7.06101299999998,2.274328,1.785475,0.9992638,0.09932499,-0.1501206,-44.18625,-28.12156,23.96398
171.500203133,9.297187,2.393346,1.295051,0.9944618,0.1362773,-0.1468652,-44.18625,-28.12156,23.96398
171.510061741,8.11698399999998,2.452855,0.1915974,0.9992846,0.129954,-0.1575297,-44.18625,-28.12156,23.96398
171.519920349,8.30333200000001,3.166962,0.743324399999998,0.9912754,0.1420385,-0.1601887,-44.18625,-28.12156,23.96398
171.529778481,7.930636,2.69089,0.988536299999999,0.9925095,0.1644433,-0.1576212,-44.93049,-28.10669,24.41594
171.539637089,5.197536,1.857765,0.804627399999999,1.0104,0.1583321,-0.1425934,-44.93049,-28.10669,24.41594
171.549495697,3.520406,1.560221,1.601566,0.9887629,0.1455505,-0.1261001,-44.93049,-28.10669,24.41594
171.559354305,1.222117,0.1915152,2.398505,0.9423516,0.1583386,-0.1099963,-44.93049,-28.10669,24.41594
171.56921196,-0.579244300000001,-1.415226,2.827626,0.9355224,0.1573071,-0.1094285,-44.93049,-28.10669,24.41594
171.579070568,-0.4550124,-3.140985,3.195444,0.9523394,0.1482307,-0.1039944,-43.81051,-28.49402,23.96582
171.588929176,-0.1444329,-4.926253,3.808474,0.9651484,0.1493455,-0.09650035,-43.81051,-28.49402,23.96582
171.601252079,1.03577,-6.53299399999998,4.237596,0.9724686,0.1386645,-0.1072372,-43.81051,-28.49402,23.96582
171.611110687,2.464436,-8.49678899999997,4.728019,0.9862556,0.1309997,-0.1074984,-43.81051,-28.49402,23.96582
171.620969295,2.40232,-10.04402,5.524958,1.008225,0.1350879,-0.1072978,-43.81051,-28.49402,23.96582
171.630827904,1.160001,-11.41273,6.13798800000002,0.9942563,0.1431891,-0.1199687,-44.18671,-27.44039,24.40516
171.640685558,0.04191487,-12.60291,6.3832,0.9753311,0.1507403,-0.1378449,-44.18671,-27.44039,24.40516
171.650544166,-0.765591999999998,-13.73358,6.87362400000002,0.9646543,0.1496928,-0.1324303,-44.18671,-27.44039,24.40516
171.660402775,-1.510983,-14.74523,6.81232100000002,0.9572895,0.1393674,-0.1434341,-44.18671,-27.44039,24.40516
171.670261383,-0.641360199999998,-15.63786,6.99623000000001,0.9469691,0.1148515,-0.1684123,-44.18671,-27.44039,24.40516
171.680119514,2.961363,-16.35197,6.99623000000001,0.9440922,0.1011718,-0.1761539,-43.80855,-27.74615,24.79045
171.689978123,6.37773799999999,-16.23295,6.99623000000001,0.950905,0.1129397,-0.1684845,-43.80855,-27.74615,24.79045
171.699836731,7.68217200000001,-16.64951,6.751019,0.9700979,0.1437644,-0.1689771,-43.80855,-27.74615,24.79045
171.709695339,6.81255000000002,-16.41148,6.81232100000002,0.9949135,0.1542002,-0.1697219,-43.80855,-27.74615,24.79045
171.719552994,5.073304,-15.51884,7.30274499999998,0.9927523,0.1433836,-0.1942216,-43.80855,-27.74615,24.79045
171.729411602,4.017333,-15.51884,7.60926000000002,0.9876981,0.1131591,-0.1968006,-44.18073,-27.4288,25.23734
171.73927021,3.76887,-15.28081,7.73186600000001,0.9868883,0.09513411,-0.2002956,-44.18073,-27.4288,25.23734
171.749128342,2.712899,-15.34032,7.73186600000001,0.9810306,0.08532117,-0.2079621,-44.18073,-27.4288,25.23734
171.75898695,3.271943,-15.75688,7.24144199999999,0.9882713,0.07364102,-0.2254151,-44.18073,-27.4288,25.23734
171.771310329,6.37773799999999,-16.76853,6.81232100000002,1.008941,0.08508737,-0.2064451,-44.18073,-27.4288,25.23734
171.781168938,7.99275200000001,-17.83969,4.360201,1.051473,0.09535623,-0.1638366,-44.55048,-27.04476,26.06768
171.791026592,6.93678100000001,-17.30411,1.111142,1.073282,0.04645262,-0.1501842,-44.55048,-27.04476,26.06768
171.8008852,10.53951,-18.61331,0.5594154,1.064877,-0.01795719,-0.1774432,-44.55048,-27.04476,26.06768
171.810743809,17.06167,-20.10103,-0.2375236,1.056212,-0.0466654,-0.1564772,-44.55048,-27.04476,26.06768
171.820602417,21.28556,-24.38568,0.2529004,0.9996701,-0.002463313,-0.1739871,-44.55048,-27.04476,26.06768
171.830460548,23.45961,-29.38443,0.988536299999999,1.0629,0.003636832,-0.1240416,-44.17278,-26.66934,26.89416
171.840319157,20.16747,-34.02612,2.459808,1.148147,0.02737382,-0.0943875,-44.17278,-26.66934,26.89416
171.850177765,14.8255,-36.5255,2.521111,1.182354,0.03574885,-0.01813246,-44.17278,-26.66934,26.89416
171.860035896,5.88081099999999,-40.09604,1.540263,1.114256,-0.06288069,-0.07597739,-44.17278,-26.66934,26.89416
171.869894505,-0.641360199999998,-51.22421,2.888929,1.07418,-0.1192885,-0.2301845,-44.17278,-26.66934,26.89416
171.879753113,-5.300054,-60.9241600000001,6.32189799999997,1.145295,-0.1359664,-0.3036979,-43.41536,-26.28666,28.55088
171.889611721,-15.36283,-66.1609499999999,10.67441,1.205466,-0.1580269,-0.3593704,-43.41536,-26.28666,28.55088
171.899469376,-24.24541,-75.0277799999999,15.76256,1.204378,-0.239954,-0.4036534,-43.41536,-26.28666,28.55088
171.909327984,-30.82969,-83.4780499999999,21.95416,1.185444,-0.2281988,-0.5978394,-43.41536,-26.28666,28.55088
171.919186592,-28.65564,-93.5945700000001,25.50974,1.20082,-0.2297393,-0.6555755,-43.41536,-26.28666,28.55088
171.9290452,-21.38808,-100.3191,27.16492,1.250434,-0.2627955,-0.6340392,-43.02644,-26.26158,30.66141
171.938903332,-5.73486500000002,-103.8896,20.6668,1.234074,-0.2413003,-0.7026293,-43.02644,-26.26158,30.66141
171.951226234,22.15518,-106.9246,16.13038,1.274124,-0.5155945,-0.6259679,-43.02644,-26.26158,30.66141
171.961084843,42.15651,-108.2338,22.19937,1.327971,-0.7281402,-0.5954643,-43.02644,-26.26158,30.66141
171.970942974,67.37556,-107.3411,31.08831,1.297975,-0.5989859,-0.6006556,-43.02644,-26.26158,30.66141
171.980801582,82.3455,-105.1988,35.80864,1.273965,-0.4444942,-0.6109896,-40.77135,-25.89082,32.69449
171.990660191,75.6369900000002,-110.1976,42.55197,1.308794,-0.3440724,-0.515757,-40.77135,-25.89082,32.69449
172.000518799,49.48618,-111.3877,52.48306,1.400681,-0.3104346,-0.4568828,-40.77135,-25.89082,32.69449
172.01037693,26.1306,-111.4472,65.6018899999998,1.379739,-0.3919104,-0.5933646,-40.77135,-25.89082,32.69449
172.020235538,15.94359,-112.1018,74.6134299999999,1.329345,-0.5124623,-0.6995668,-40.77135,-25.89082,32.69449
172.030094147,21.22344,-115.4343,81.7245800000001,1.275585,-0.5268652,-0.7799069,-37.76965,-23.67014,35.98513
172.039952755,27.3108,-119.4214,84.1767,1.280025,-0.5442566,-0.7566361,-37.76965,-23.67014,35.98513
172.04981041,30.10602,-118.2908,88.4066099999997,1.30228,-0.6262327,-0.7394356,-37.76965,-23.67014,35.98513
172.059669018,37.24935,-111.9828,95.0273299999998,1.276155,-0.7043647,-0.7507442,-37.76965,-23.67014,35.98513
172.069527626,51.97082,-107.6387,102.445,1.180287,-0.7833264,-0.8185698,-37.76965,-23.67014,35.98513
172.079386234,72.5311900000002,-104.4847,111.0887,1.164797,-0.8101356,-0.794136,-34.09476,-20.3645,38.42874
172.089244366,88.0601699999997,-98.9503699999999,124.1463,1.185643,-0.7515513,-0.7925012,-34.09476,-20.3645,38.42874
172.099102974,94.20964,-92.0473299999999,135.1808,1.202179,-0.6237864,-0.759073,-34.09476,-20.3645,38.42874
172.108961582,94.76868,-86.4534899999999,144.5602,1.183943,-0.5270988,-0.7556011,-34.09476,-20.3645,38.42874
172.121284008,88.8676799999998,-80.9191599999997,153.8169,1.1841,-0.3892913,-0.7304804,-34.09476,-20.3645,38.42874
172.131142616,78.5564300000001,-75.6823699999999,159.5181,1.178654,-0.3311759,-0.791729,-31.48845,-16.38329,40.03873
172.141001225,70.54348,-71.21921,163.6254,1.163368,-0.290251,-0.8721505,-31.48845,-16.38329,40.03873
172.150859833,67.5619099999999,-70.8026400000001,164.361,1.143421,-0.2894209,-0.8632336,-31.48845,-16.38329,40.03873
172.160717964,64.4561200000002,-69.1958999999998,162.2767,1.17509,-0.3343106,-0.840583,-31.48845,-16.38329,40.03873
172.170576572,68.43154,-65.3278199999999,160.8055,1.145682,-0.3734269,-0.9507099,-31.48845,-16.38329,40.03873
172.180435181,81.84858,-63.9591200000003,158.3533,1.067763,-0.3910252,-1.047505,-30.01922,-10.49772,40.86686
172.190293789,98.4335299999998,-64.61372,155.2269,1.010833,-0.4003683,-1.068815,-30.01922,-10.49772,40.86686
172.200151444,114.3973,-65.8633999999998,150.2613,1.006647,-0.3690989,-1.025364,-30.01922,-10.49772,40.86686
172.210010052,124.8949,-64.1971500000001,142.7211,1.063229,-0.3051736,-0.9815443,-30.01922,-10.49772,40.86686
172.21986866,131.6034,-59.6149600000001,137.1425,1.037004,-0.2613299,-1.036388,-30.01922,-10.49772,40.86686
172.229726791,135.7652,-58.0677300000002,132.1156,0.9644302,-0.2367683,-1.06294,-28.17591,-5.359885,41.1885
172.2395854,136.8833,-60.2695599999998,125.3723,0.9062408,-0.2333712,-1.057769,-28.17591,-5.359885,41.1885
172.249444008,138.871,-60.5076,118.5677,0.8609362,-0.1962616,-1.046747,-28.17591,-5.359885,41.1885
172.259302616,140.486,-60.98367,111.2113,0.8161476,-0.1542579,-1.029461,-28.17591,-5.359885,41.1885
172.269160271,138.871,-63.4830399999999,103.9776,0.7802143,-0.1291147,-0.9875255,-28.17591,-5.359885,41.1885
172.279018879,131.8519,-64.4947000000002,96.8051100000001,0.7541395,-0.1432747,-0.9388743,-26.7168,1.188149,41.11353
172.291342259,125.8266,-64.0186199999999,87.3031500000001,0.6690409,-0.1842753,-0.9011091,-26.7168,1.188149,41.11353
172.301200867,128.5597,-64.1376400000002,76.94295,0.5871204,-0.2276217,-0.8475955,-26.7168,1.188149,41.11353
172.311058998,133.7154,-63.2450100000001,69.7091900000002,0.5298703,-0.257021,-0.766522,-26.7168,1.188149,41.11353
172.320917606,135.5167,-60.4480900000001,63.7628,0.4954141,-0.2513911,-0.7410651,-26.7168,1.188149,41.11353
172.330776215,137.6287,-57.23461,59.1037799999998,0.45836,-0.234597,-0.7169145,-23.83105,7.708056,40.19898
172.340633869,140.7345,-53.72358,54.56736,0.4349752,-0.2071665,-0.613801,-23.83105,7.708056,40.19898
172.350492477,139.8648,-47.47514,50.70527,0.4321177,-0.1811592,-0.549328,-23.83105,7.708056,40.19898
172.360351086,137.6908,-41.58376,48.86618,0.3932554,-0.1262584,-0.4807437,-23.83105,7.708056,40.19898
172.370209694,130.6096,-35.81139,45.73972,0.3660547,-0.1087344,-0.415037,-23.83105,7.708056,40.19898
172.380067825,122.2239,-30.27706,45.3106,0.3260821,-0.08122058,-0.3802119,-22.37022,12.83327,39.30629
172.389926434,113.9625,-27.65867,44.26845,0.2512014,-0.041994,-0.3836057,-22.37022,12.83327,39.30629
172.399785042,104.583,-28.43228,43.71672,0.1607876,-0.01117142,-0.3854114,-22.37022,12.83327,39.30629
172.40964365,91.41443,-26.23045,43.2263,0.1234913,0.01775927,-0.3683428,-22.37022,12.83327,39.30629
172.419501305,79.4260600000002,-24.80224,40.52897,0.1322545,0.03190107,-0.2514237,-22.37022,12.83327,39.30629
172.429359913,67.0028800000001,-21.46974,36.60558,0.1699859,0.03349971,-0.1738385,-20.16591,17.57013,37.58132
172.439218521,56.07047,-17.95871,35.073,0.1550633,0.01048781,-0.176216,-20.16591,17.57013,37.58132
172.449077129,49.36195,-15.39983,34.58258,0.1166102,-0.001028693,-0.1719315,-20.16591,17.57013,37.58132
172.458935261,43.83364,-11.47224,35.31821,0.1036779,0.0241856,-0.1653049,-20.16591,17.57013,37.58132
172.47125864,36.06915,-6.77103000000002,32.49828,0.07217809,0.03570624,-0.1331315,-20.16591,17.57013,37.58132
172.481117249,32.15585,-3.736075,28.51358,0.04900659,0.004340045,-0.1378579,-19.44216,20.80189,36.71197
172.490974903,31.34834,-0.760627799999999,25.57104,0.01190666,0.003544896,-0.1325439,-19.44216,20.80189,36.71197
172.500833511,30.54083,1.857765,21.95416,-0.01935522,0.008163047,-0.1248714,-19.44216,20.80189,36.71197
172.51069212,28.80158,3.226471,18.82771,-0.0386169,0.06492915,-0.1241178,-19.44216,20.80189,36.71197
172.520550728,20.97498,6.0829,15.14953,-0.01776671,0.1220501,-0.1234537,-19.44216,20.80189,36.71197
172.530408859,12.03029,9.65343599999998,10.24529,0.001112125,0.1480381,-0.115357,-18.71195,22.24803,35.41275
172.540267468,2.215972,13.34299,4.176292,0.01541481,0.1327088,-0.08454229,-18.71195,22.24803,35.41275
172.550126076,-6.41814000000001,17.27058,-1.770099,0.01527296,0.09206288,-0.02306657,-18.71195,22.24803,35.41275
172.559984684,-18.65498,19.47241,-7.28736799999999,0.01381362,0.09365208,0.0148244,-18.71195,22.24803,35.41275
172.569842338,-35.23993,20.84112,-12.86594,0.01465749,0.1026284,-0.05890859,-18.71195,22.24803,35.41275
172.579700947,-47.16618,24.11411,-18.87363,0.02617678,0.07324047,-0.1369511,-18.34625,23.7163,35.39573
172.589559555,-53.00507,28.87482,-25.06524,0.0407182,0.003027524,-0.2086724,-18.34625,23.7163,35.39573
172.599418163,-51.57641,32.6834,-31.31814,0.06647003,-0.03571576,-0.2199088,-18.34625,23.7163,35.39573
172.609276295,-50.7689,37.86067,-38.49059,0.1418941,-0.03000572,-0.1730156,-18.34625,23.7163,35.39573
172.619134903,-52.94296,44.10911,-46.03086,0.1947734,0.004651469,-0.1394536,-18.34625,23.7163,35.39573
172.628993511,-59.3408999999998,49.88148,-54.12286,0.2307227,0.02868853,-0.1728279,-18.71596,22.98432,35.4052
172.641315937,-69.1552100000001,57.5581299999998,-63.8087299999999,0.2490973,0.004733694,-0.2456511,-18.71596,22.98432,35.4052
172.651174545,-75.6773800000002,63.2114800000003,-71.7781199999999,0.2585918,-0.04297318,-0.2730242,-18.71596,22.98432,35.4052
172.661033153,-78.8453000000003,68.0912100000001,-79.7475099999998,0.2806204,-0.08120862,-0.2698272,-18.71596,22.98432,35.4052
172.670891762,-79.7149200000001,74.8752299999998,-85.93912,0.3384183,-0.08458218,-0.2678043,-18.71596,22.98432,35.4052
172.680749893,-79.9633799999998,80.5285800000003,-91.2111700000002,0.3856796,-0.05687542,-0.2577017,-20.20163,21.90338,35.87234
172.690608501,-80.64666,85.2892899999997,-96.7284500000001,0.4422481,-0.02371222,-0.2419353,-20.20163,21.90338,35.87234
172.70046711,-87.7899900000002,89.75246,-99.48708,0.5142174,0.01510577,-0.3116381,-20.20163,21.90338,35.87234
172.710325718,-100.3995,95.7628600000002,-97.4027799999999,0.566571,0.09594212,-0.419522,-20.20163,21.90338,35.87234
172.720183849,-113.8787,100.3451,-97.70929,0.5891791,0.180094,-0.4814299,-20.20163,21.90338,35.87234
172.730042458,-132.265,102.1303,-105.127,0.6489759,0.1660088,-0.4857554,-22.79122,17.58253,36.31456
172.739901066,-148.353,109.0334,-112.6059,0.71666,0.08463485,-0.5449108,-22.79122,17.58253,36.31456
172.749759674,-154.6888,115.6984,-119.7171,0.7391237,-0.0375867,-0.6195799,-22.79122,17.58253,36.31456
172.759617329,-148.353,123.375,-124.0696,0.7315893,-0.1259416,-0.6758053,-22.79122,17.58253,36.31456
172.769475937,-134.5633,129.6234,-128.2382,0.726347,-0.1091321,-0.7225503,-22.79122,17.58253,36.31456
172.779334545,-119.9039,135.3363,-134.8589,0.7777966,-0.003601569,-0.7314978,-27.19435,13.57863,35.99482
172.789192676,-111.1456,138.7878,-145.2191,0.8956147,0.1511598,-0.7452885,-27.19435,13.57863,35.99482
172.799051285,-113.009,142.6559,-157.2345,1.051225,0.2643029,-0.7868042,-27.19435,13.57863,35.99482
172.808909893,-121.8916,143.251,-169.0047,1.19585,0.2767646,-0.7897187,-27.19435,13.57863,35.99482
172.821232796,-139.0977,145.0363,-180.7135,1.368652,0.1522826,-0.7841274,-32.02987,6.610539,33.97911
172.831090927,-150.9619,151.6418,-189.7251,1.453403,-0.04111238,-0.9101216,-32.02987,6.610539,33.97911
172.840949535,-143.2595,159.1994,-196.4684,1.434961,-0.2208499,-0.9137717,-32.02987,6.610539,33.97911
172.850808144,-125.867,158.6638,-210.3842,1.455617,-0.3402825,-0.7598134,-32.02987,6.610539,33.97911
172.860666752,-111.7046,161.4012,-223.0739,1.570802,-0.4290335,-0.822104,-32.02987,6.610539,33.97911
172.870524883,-87.4172899999998,157.7712,-217.9858,1.581757,-0.3506016,-0.9543364,-36.127,-0.3217578,30.74266
172.880383491,-76.8575900000001,149.8565,-210.6907,1.702158,-0.328795,-1.003309,-36.127,-0.3217578,30.74266
172.8902421,-59.6514800000002,143.7271,-199.2883,1.793646,-0.3781342,-1.01078,-36.127,-0.3217578,30.74266
172.900099754,-34.80511,138.2522,-196.0393,1.803382,-0.5002832,-0.9065256,-36.127,-0.3217578,30.74266
172.909958363,-2.629069,136.824,-193.2194,1.628392,-0.6313926,-0.938682,-36.127,-0.3217578,30.74266
172.919816971,37.49781,123.8511,-184.9435,1.386376,-0.5905354,-0.8912808,-36.127,-0.3217578,30.74266
172.929675579,61.3503200000001,107.5456,-173.0507,1.379736,-0.4511218,-0.6815578,-40.53353,-8.734631,26.69071
172.93953371,58.4929900000001,98.4407700000001,-158.3992,1.409087,-0.3060763,-0.4823634,-40.53353,-8.734631,26.69071
172.949392319,32.90123,94.0966099999999,-143.38,1.445163,-0.2144928,-0.4111831,-40.53353,-8.734631,26.69071
172.959250927,1.03577,90.22853,-128.0543,1.496317,-0.1571106,-0.4123864,-40.53353,-8.734631,26.69071
172.969109535,-27.3512,85.94389,-114.9967,1.567603,-0.1639752,-0.4647346,-40.53353,-8.734631,26.69071
172.97896719,-45.48905,82.9684399999998,-106.6595,1.625488,-0.230035,-0.4397612,-43.12948,-14.61794,25.1002
172.991290569,-56.54568,82.9089400000001,-101.5101,1.728983,-0.2745822,-0.4952825,-43.12948,-14.61794,25.1002
173.001149178,-33.56279,75.3512999999998,-109.2343,1.535314,0.2627569,-0.914475,-43.12948,-14.61794,25.1002
173.011007309,-23.25155,61.54523,-125.5409,2.054612,-0.2827947,0.3079374,-43.12948,-14.61794,25.1002
173.020865917,-77.04394,32.14781,-76.8049700000001,3.616015,-3.244562,1.487918,-46.09952,-19.31956,24.33187
173.030724525,-278.1132,8.16571199999999,159.6407,4.595247,-4.219093,1.942061,-46.09952,-19.31956,24.33187
173.040583134,-350.2918,44.40665,97.2955399999998,2.308035,-1.848165,-0.5311915,-46.09952,-19.31956,24.33187
173.050440788,-114.9968,41.19317,93.0043300000001,1.49728,-2.680841,-1.880402,-46.09952,-19.31956,24.33187
173.060299397,2.712899,4.119105,42.61327,0.8093398,-1.359184,-0.9024819,-46.09952,-19.31956,24.33187
173.070158005,-38.22149,-17.95871,-55.83934,0.9643295,-0.796569,0.0517474,-47.59151,-23.76105,21.4402
173.080016613,-130.153,-22.71943,-42.90441,1.212444,-0.3485939,0.4511649,-47.59151,-23.76105,21.4402
173.089874744,-193.3249,-10.04402,-34.32199,0.952292,-0.1026789,-0.1847,-47.59151,-23.76105,21.4402
173.099733353,-139.1599,18.52027,-20.89663,0.8735235,-0.3609146,-0.7349192,-47.59151,-23.76105,21.4402
173.109591961,25.69579,13.99759,35.50212,0.3855549,-0.09504513,-0.4439514,-47.59151,-23.76105,21.4402
173.119450569,8.551796,12.86692,27.34883,0.7085831,0.1403317,0.3110454,-48.3529,-24.52346,18.95507
173.129308224,-7.84680700000002,13.28348,34.09216,0.9379952,0.006609511,-0.2041794,-48.3529,-24.52346,18.95507
173.139166832,65.0772800000003,30.89812,48.92748,1.134183,0.08188812,-0.3170354,-48.3529,-24.52346,18.95507
173.14902544,107.9373,40.77661,35.44082,1.059158,0.2994115,-0.1382641,-48.3529,-24.52346,18.95507
173.16134882,99.0546899999999,45.89438,1.846778,0.7891654,0.7086365,-0.02458016,-48.3529,-24.52346,18.95507
173.171206951,64.08343,38.99134,-14.64373,0.7702748,0.878319,-0.1484292,-49.0448,-24.90062,17.74612
173.181065559,35.38587,33.63554,-16.91194,0.8987253,0.8380356,-0.1640175,-49.0448,-24.90062,17.74612
173.190924168,14.51492,32.80241,-12.31421,0.9908594,0.4856616,-0.1395524,-49.0448,-24.90062,17.74612
173.200781822,12.65145,27.86317,-3.793097,0.9854478,0.1006345,-0.1575799,-49.0448,-24.90062,17.74612
173.21064043,33.89509,22.44786,0.5594154,0.9398463,-0.0480322,-0.1164943,-49.0448,-24.90062,17.74612
173.220499039,60.6670500000002,20.42455,-3.180068,0.8901686,-0.01529484,0.03639628,-48.6891,-22.70763,16.88939
173.230357647,70.1707800000002,21.73375,-9.98470000000001,0.9013707,-0.04458552,0.1145781,-48.6891,-22.70763,16.88939
173.240215778,71.4752199999999,20.60308,-13.47897,0.9047843,-0.08543413,0.1137056,-48.6891,-22.70763,16.88939
173.250074387,64.3318899999997,13.10495,-13.04985,0.9172294,-0.04048274,0.1330755,-48.6891,-22.70763,16.88939
173.259932995,40.41726,3.047944,-8.697337,0.9742534,0.07407391,0.1821079,-48.6891,-22.70763,16.88939
173.269791603,0.4146104,-7.90170000000001,-4.160915,1.025758,0.2123314,0.2060214,-48.31538,-22.71195,16.88745
173.279649258,-42.07267,-15.99492,-1.954008,1.066262,0.2768384,0.1834662,-48.31538,-22.71195,16.88745
173.289507866,-75.5531499999998,-20.75563,-0.6666446,1.080534,0.2347306,0.08083791,-48.31538,-22.71195,16.88745
173.299366474,-92.3865700000001,-23.96911,0.1302944,1.087121,0.1302361,-0.03035372,-48.31538,-22.71195,16.88745
173.309225082,-91.4548300000002,-25.39733,0.8659304,1.089249,0.02338068,-0.1117913,-48.31538,-22.71195,16.88745
173.319083214,-75.6773800000002,-23.61206,0.988536299999999,1.046251,-0.06131416,-0.1463957,-48.68634,-22.70229,17.27347
173.328941822,-51.82487,-19.80349,0.620718400000002,0.9956265,-0.09684558,-0.1589124,-48.68634,-22.70229,17.27347
173.341265202,-19.27613,-15.51884,-1.892705,0.9457418,-0.07886648,-0.1776968,-48.68634,-22.70229,17.27347
173.35112381,3.706754,-12.72192,-4.773945,0.9543663,-0.05491696,-0.1699504,-48.68634,-22.70229,17.27347
173.360981464,19.98112,-9.80598499999999,-6.490429,0.9834072,-0.04875164,-0.1516235,-48.68634,-22.70229,17.27347
173.370840073,32.65277,-6.94955700000003,-7.77779200000001,0.9872975,-0.04628246,-0.1511789,-48.68107,-24.18022,16.90447
173.380698681,39.54764,-5.461833,-8.02300500000002,0.9775408,-0.01657958,-0.1229957,-48.68107,-24.18022,16.90447
173.390556812,38.2432,-4.5692,-8.206914,0.9809188,0.02688971,-0.08817458,-48.68107,-24.18022,16.90447
173.400415421,31.09987,-3.200494,-6.91955000000002,1.01689,0.09633824,-0.07995477,-48.68107,-24.18022,16.90447
173.410274029,16.75109,-2.783932,-5.754793,1.025576,0.1936218,-0.1108847,-48.68107,-24.18022,16.90447
173.420132637,-0.765591999999998,-2.90295,-4.528733,1.024213,0.2105914,-0.1241397,-48.3629,-23.79874,18.11535
173.429990292,-14.24475,-2.545896,-3.363976,1.031659,0.1416294,-0.1051806,-48.3629,-23.79874,18.11535
173.4398489,-19.71095,-2.545896,-2.321826,1.01731,0.06263494,-0.1147475,-48.3629,-23.79874,18.11535
173.449707508,-16.10822,-2.962458,-2.444432,1.01865,0.00527128,-0.1027916,-48.3629,-23.79874,18.11535
173.459566116,-5.610633,-3.260003,-3.547885,1.022603,-0.03214099,-0.09693406,-48.3629,-23.79874,18.11535
173.469424248,6.93678100000001,-3.855092,-6.06130799999997,1.036234,-0.00345103,-0.004879924,-48.66911,-24.15706,18.56883
173.479282856,11.2849,-5.759378,-6.67433799999998,1.016161,0.04323626,0.03509454,-48.66911,-24.15706,18.56883
173.489141464,5.508115,-9.38942300000003,-5.141763,0.9805703,0.1004299,0.05860686,-48.66911,-24.15706,18.56883
173.499000073,-3.37446,-15.2213,-3.302674,0.9864188,0.08680532,0.04499092,-48.66911,-24.15706,18.56883
173.511322498,-11.63588,-19.74398,-1.034463,1.072031,0.01921297,-0.01478283,-48.66911,-24.15706,18.56883
173.521181107,-10.39356,-20.16054,-1.58619,1.100087,-0.05323681,-0.06611007,-47.97992,-24.90127,18.57283
173.531039715,3.76887,-20.69612,-1.095766,1.106891,-0.094553,-0.06991012,-47.97992,-24.90127,18.57283
173.540897846,9.17295499999997,-22.00532,-1.892705,1.133555,-0.02869075,0.04191915,-47.97992,-24.90127,18.57283
173.550756455,2.588667,-24.20715,-1.279675,1.132324,-0.02402424,-0.008339868,-47.97992,-24.90127,18.57283
173.560615063,1.03577,-26.11143,0.620718400000002,1.163355,-0.0697192,-0.0690677,-47.97992,-24.90127,18.57283
173.570473671,5.81869499999997,-27.2421,0.5594154,1.173538,-0.1451939,-0.106269,-48.2886,-24.89232,18.95852
173.580331802,17.5586,-27.95621,-1.218372,1.201565,-0.244234,-0.1113378,-48.2886,-24.89232,18.95852
173.590190411,34.08144,-28.84884,-1.708796,1.227114,-0.2620414,-0.1190402,-48.2886,-24.89232,18.95852
173.600049019,46.69097,-30.09853,-1.463584,1.189205,-0.1859275,-0.1053984,-48.2886,-24.89232,18.95852
173.609907627,46.87732,-33.13349,-0.05361458,1.232485,-0.1172637,-0.06422462,-48.2886,-24.89232,18.95852
173.619765282,38.92648,-34.32367,2.70502,1.247768,-0.08389626,-0.02630409,-47.22452,-24.15044,20.22578
173.62962389,26.50329,-37.8942,6.44450299999999,1.204047,-0.09382828,0.02359276,-47.22452,-24.15044,20.22578
173.639482498,-2.256374,-50.5101,11.22614,1.160966,-0.170029,-0.08138099,-47.22452,-24.15044,20.22578
173.649341106,-20.26999,-59.5554500000002,19.99247,1.222798,-0.1892271,-0.156221,-47.22452,-24.15044,20.22578
173.659199238,-33.43856,-65.9824200000002,28.8814,1.233964,-0.2171986,-0.115405,-47.22452,-24.15044,20.22578
173.669057846,-49.83716,-73.5400500000002,33.35652,1.217185,-0.2978625,-0.3046513,-47.21457,-23.75913,21.88637
173.678916454,-46.97983,-84.3111700000001,35.62473,1.246813,-0.3016998,-0.3597346,-47.21457,-23.75913,21.88637
173.69123888,-38.09726,-95.2013099999999,31.64004,1.256887,-0.396434,-0.6012358,-47.21457,-23.75913,21.88637
173.701097488,-9.52393499999999,-102.878,30.65919,1.294285,-0.5941794,-0.8669974,-47.21457,-23.75913,21.88637
173.710956097,32.34219,-111.8638,35.56343,1.264069,-0.6799905,-0.9698396,-47.21457,-23.75913,21.88637
173.720814705,67.0649899999999,-118.4098,40.71288,1.32024,-0.6292597,-0.6807755,-45.3332,-23.38405,23.92138
173.730672836,76.44449,-119.838,48.19184,1.457147,-0.5937018,-0.4758918,-45.3332,-23.38405,23.92138
173.740531444,76.1960299999997,-119.1239,59.22638,1.503358,-0.5566126,-0.4268799,-45.3332,-23.38405,23.92138
173.750390053,72.2827200000003,-114.7797,67.9314000000002,1.494353,-0.5700648,-0.489161,-45.3332,-23.38405,23.92138
173.760248661,70.8540599999998,-113.9466,76.5138200000001,1.44444,-0.5402412,-0.4637587,-45.3332,-23.38405,23.92138
173.770106316,64.82882,-109.3049,83.07325,1.374031,-0.5623374,-0.4801929,-43.82394,-21.51336,27.28754
173.779964924,57.3127899999999,-107.5792,91.7169699999998,1.381763,-0.5537249,-0.4078712,-43.82394,-21.51336,27.28754
173.789823532,48.92714,-105.5559,100.6672,1.386504,-0.5361484,-0.4034777,-43.82394,-21.51336,27.28754
173.79968214,38.30532,-99.0098799999998,105.6328,1.388529,-0.5556408,-0.4156511,-43.82394,-21.51336,27.28754
173.809540272,36.19338,-91.2142100000002,110.537,1.337753,-0.6147854,-0.495932,-43.82394,-21.51336,27.28754
173.81939888,45.69711,-86.8700600000003,115.5638,1.273161,-0.7621838,-0.5906577,-40.83427,-17.08379,30.55555
173.829257488,64.3940000000001,-80.9786700000002,123.8397,1.301782,-0.8784125,-0.639008,-40.83427,-17.08379,30.55555
173.839116096,91.2901899999999,-74.1351499999998,131.0735,1.382679,-0.7640245,-0.5615654,-40.83427,-17.08379,30.55555
173.848973751,111.9127,-63.0069699999999,130.2766,1.440777,-0.5531688,-0.5285076,-40.83427,-17.08379,30.55555
173.861297131,121.6028,-49.2009,128.0697,1.422757,-0.437078,-0.67151,-40.83427,-17.08379,30.55555
173.871155739,124.398,-41.04818,129.9087,1.387043,-0.4624299,-0.7296773,-38.59967,-13.4664,32.17124
173.88101387,127.628,-36.64452,134.0773,1.349408,-0.4933774,-0.7183805,-38.59967,-13.4664,32.17124
173.890872478,129.8642,-31.16969,138.3073,1.337664,-0.4715123,-0.6993398,-38.59967,-13.4664,32.17124
173.900731087,131.5413,-24.02862,141.6176,1.288966,-0.3936836,-0.7219489,-38.59967,-13.4664,32.17124
173.910589695,129.243,-19.50594,143.8245,1.236319,-0.3694691,-0.7583717,-38.59967,-13.4664,32.17124
173.92044735,126.572,-18.25625,146.5832,1.189582,-0.3396861,-0.7512247,-37.88434,-7.584672,32.10705
173.930305958,121.2922,-16.11393,147.3188,1.186712,-0.3061411,-0.7528174,-37.88434,-7.584672,32.10705
173.940164566,117.1925,-13.97161,147.1962,1.181747,-0.2648411,-0.7576693,-37.88434,-7.584672,32.10705
173.950023174,111.2915,-11.65076,145.1732,1.174028,-0.2507212,-0.7373138,-37.88434,-7.584672,32.10705
173.959881306,104.7072,-9.56794999999997,142.2919,1.12647,-0.2677715,-0.7597814,-37.88434,-7.584672,32.10705
173.969739914,101.5393,-9.56794999999997,139.0429,1.054412,-0.3059086,-0.7677019,-36.49551,-0.6793528,31.19645
173.979598522,104.8315,-9.32991399999999,136.1617,0.9674984,-0.3489742,-0.7572426,-36.49551,-0.6793528,31.19645
173.98945713,110.5461,-8.55629800000001,133.6482,0.8833495,-0.3530043,-0.7249293,-36.49551,-0.6793528,31.19645
173.999314785,115.826,-7.24710100000002,130.767,0.8136035,-0.3117122,-0.7087316,-36.49551,-0.6793528,31.19645
174.009173393,120.112,-8.55629800000001,127.947,0.7547877,-0.261624,-0.708429,-36.49551,-0.6793528,31.19645
174.019032001,119.1802,-8.85384299999998,125.0658,0.7470299,-0.2388621,-0.719148,-35.41765,5.54839,29.84628
174.031355381,115.2048,-8.97285999999998,123.4719,0.7290969,-0.1609937,-0.6741489,-35.41765,5.54839,29.84628
174.041213512,109.2417,-9.56794999999997,118.6903,0.7299338,-0.1142383,-0.5357567,-35.41765,5.54839,29.84628
174.051072121,100.5455,-7.12808399999997,112.8052,0.7285071,-0.1032283,-0.4513044,-35.41765,5.54839,29.84628
174.060930729,90.9174999999997,-4.985762,107.717,0.6787269,-0.1054546,-0.4084441,-35.41765,5.54839,29.84628
174.070788384,82.2212799999998,-0.820136700000001,103.3645,0.6253321,-0.1136242,-0.3847505,-34.71394,11.3456,28.11836
174.080646992,75.9475599999997,2.452855,98.2150900000001,0.5583246,-0.1106618,-0.3449553,-34.71394,11.3456,28.11836
174.0905056,70.8540599999998,6.02339100000001,91.16525,0.5034904,-0.1349478,-0.3333572,-34.71394,11.3456,28.11836
174.100364208,69.0527000000001,7.57062300000002,84.85104,0.4382986,-0.1564196,-0.3254212,-34.71394,11.3456,28.11836
174.11022234,67.0028800000001,9.11785500000002,77.5559799999999,0.3952051,-0.1665782,-0.337352,-34.71394,11.3456,28.11836
174.120080948,69.0527000000001,10.54607,71.1804700000001,0.3318613,-0.1356056,-0.363023,-33.25587,16.46547,26.84158
174.129939556,72.84177,10.24853,64.6823499999998,0.2826426,-0.09071928,-0.3451706,-33.25587,16.46547,26.84158
174.139798164,70.54348,10.66509,57.9390200000003,0.2754509,-0.05133143,-0.335631,-33.25587,16.46547,26.84158
174.149655819,65.0772800000003,10.78411,53.15739,0.3046479,-0.006686838,-0.3078767,-33.25587,16.46547,26.84158
174.159514427,56.81586,9.95097999999998,47.45621,0.3380241,0.01232734,-0.2473336,-33.25587,16.46547,26.84158
174.169373035,49.05137,9.35589100000001,43.2263,0.3335884,0.01569651,-0.2467628,-32.54134,19.67941,24.69196
174.179231644,41.97016,6.85651600000003,39.30291,0.288427,0.0006065982,-0.2711648,-32.54134,19.67941,24.69196
174.189089775,37.31147,4.833212,34.8891,0.2205611,-0.02144016,-0.2804469,-32.54134,19.67941,24.69196
174.198948383,34.82683,1.738747,29.00401,0.1347607,-0.05664699,-0.2531651,-32.54134,19.67941,24.69196
174.211271763,33.58451,-1.534244,20.23768,0.03617759,-0.07977899,-0.2198489,-32.54134,19.67941,24.69196
174.221130371,33.02547,-4.093128,13.73956,-0.002822097,-0.06885777,-0.2000329,-31.44542,22.59382,23.37572
174.230988026,31.09987,-6.29495900000002,7.854472,0.0139765,-0.05108691,-0.1723288,-31.44542,22.59382,23.37572
174.240846634,25.82002,-9.50844099999999,2.398505,0.06374291,-0.00150657,-0.1745365,-31.44542,22.59382,23.37572
174.250705242,18.7388,-12.18634,-3.057462,0.1254033,0.02185729,-0.1886357,-31.44542,22.59382,23.37572
174.26056385,10.85008,-14.74523,-7.961701,0.1650189,0.02611157,-0.18581,-31.44542,22.59382,23.37572
174.270421982,1.781161,-17.95871,-12.25291,0.1627832,0.02273228,-0.1733475,-31.45541,23.31853,22.536
174.28028059,-8.34373400000002,-20.39858,-16.85064,0.160476,-0.01910215,-0.1640837,-31.45541,23.31853,22.536
174.290139198,-17.47477,-22.60041,-20.46751,0.1480347,-0.05659392,-0.140742,-31.45541,23.31853,22.536
174.299997807,-25.92254,-23.9096,-24.45221,0.1450318,-0.1183737,-0.1282822,-31.45541,23.31853,22.536
174.309855461,-31.20239,-24.02862,-28.62081,0.1334157,-0.1798236,-0.1372608,-31.45541,23.31853,22.536
174.319714069,-32.19624,-24.14764,-33.46375,0.1295015,-0.2280577,-0.1438417,-31.08248,24.05675,22.97462
174.329572678,-29.83584,-22.77893,-38.73581,0.1348926,-0.2503304,-0.1268553,-31.08248,24.05675,22.97462
174.339430809,-28.46929,-20.81514,-44.55959,0.1544175,-0.2710279,-0.1124531,-31.08248,24.05675,22.97462
174.349289417,-26.91639,-17.8992,-48.60559,0.1755039,-0.2815679,-0.1181138,-31.08248,24.05675,22.97462
174.359148026,-26.85428,-16.29246,-52.03856,0.2006069,-0.2667913,-0.1298476,-31.08248,24.05675,22.97462
174.369006634,-30.39488,-14.92375,-54.9811,0.2270556,-0.2593599,-0.156997,-31.43421,22.24349,24.65977
174.378864765,-35.11569,-15.2213,-58.78189,0.2368419,-0.2481784,-0.1829189,-31.43421,22.24349,24.65977
174.391187668,-42.01056,-13.73358,-62.6439699999999,0.2878582,-0.2264761,-0.2256324,-31.43421,22.24349,24.65977
174.401046276,-46.35867,-13.01947,-67.1190899999999,0.3556372,-0.158696,-0.2183592,-31.43421,22.24349,24.65977
174.410904884,-52.07334,-10.81764,-73.6785199999998,0.4255241,-0.0817143,-0.2278104,-31.43421,22.24349,24.65977
174.420763016,-63.8753600000003,-9.984512,-82.5674499999999,0.4810276,-0.05067254,-0.256133,-31.78472,20.80462,26.78923
174.430621624,-76.9818199999999,-7.96120899999999,-91.8242000000002,0.5126688,-0.1367164,-0.3076261,-31.78472,20.80462,26.78923
174.440480232,-79.90127,-7.54464599999999,-99.3031700000002,0.4869457,-0.2464685,-0.3172905,-31.78472,20.80462,26.78923
174.450338841,-74.49718,-6.94955700000003,-104.8204,0.4755226,-0.3137221,-0.3172161,-31.78472,20.80462,26.78923
174.460196972,-64.6828699999997,-3.676566,-107.8856,0.4586596,-0.3310231,-0.3492281,-31.78472,20.80462,26.78923
174.47005558,-53.06719,-0.998663500000001,-110.8281,0.4397119,-0.3204138,-0.3301798,-32.51139,18.62129,28.03199
174.479914188,-44.37096,-0.4630831,-112.5446,0.4467111,-0.2716227,-0.3121374,-32.51139,18.62129,28.03199
174.489772797,-42.25902,0.2510241,-112.7285,0.4857266,-0.1564943,-0.3275354,-32.51139,18.62129,28.03199
174.499630451,-49.40235,3.28598,-111.9316,0.5446762,0.004399875,-0.3835633,-32.51139,18.62129,28.03199
174.50948906,-62.6330400000001,7.57062300000002,-111.7477,0.6065221,0.1273624,-0.4399526,-32.51139,18.62129,28.03199
174.519347668,-82.94495,7.74915000000002,-115.1806,0.6547704,0.1691037,-0.4527471,-33.23112,14.65324,28.90887
174.529206276,-109.7169,10.66509,-124.3761,0.722127,0.0999772,-0.4892721,-33.23112,14.65324,28.90887
174.539064407,-124.8732,12.21232,-134.675,0.7066672,0.0144543,-0.5501526,-33.23112,14.65324,28.90887
174.548923016,-124.8732,11.61723,-146.0161,0.6609887,-0.08275273,-0.5412171,-33.23112,14.65324,28.90887
174.561245918,-116.3633,13.81906,-159.2575,0.6325527,-0.1333094,-0.5901169,-33.23112,14.65324,28.90887
174.57110405,-107.7913,18.87732,-166.9204,0.6520799,-0.1065654,-0.6414438,-34.70198,11.36876,29.78272
174.580962658,-99.3435499999998,24.35214,-173.112,0.7286975,-0.1569314,-0.6281057,-34.70198,11.36876,29.78272
174.590821266,-94.1879299999998,31.73125,-176.7289,0.8568301,-0.2554871,-0.6106373,-34.70198,11.36876,29.78272
174.600679874,-89.96404,40.00299,-174.3993,0.9933589,-0.3174646,-0.591063,-34.70198,11.36876,29.78272
174.610538006,-89.0944200000002,49.22688,-172.1924,1.15175,-0.3389026,-0.582959,-34.70198,11.36876,29.78272
174.620396614,-85.3674699999998,59.5219199999998,-171.0277,1.262048,-0.3312972,-0.6319076,-36.52161,4.106566,31.14744
174.630255222,-78.5347100000002,65.1752699999997,-168.9434,1.309049,-0.2741531,-0.686724,-36.52161,4.106566,31.14744
174.64011383,-75.3668100000001,66.6034900000001,-166.1847,1.285482,-0.1592165,-0.7352548,-36.52161,4.106566,31.14744
174.649971485,-86.2992100000003,58.8673200000001,-163.4874,1.264693,-0.0298697,-0.7108654,-36.52161,4.106566,31.14744
174.659830093,-115.3695,60.1765200000001,-161.4031,1.276407,0.06955434,-0.6972549,-36.52161,4.106566,31.14744
174.669688702,-155.6206,60.6525900000001,-162.5679,1.301988,0.04106756,-0.568476,-38.30103,-2.517048,29.94437
174.67954731,-192.2068,67.7341500000002,-156.4376,1.487367,-0.1472473,-0.4859723,-38.30103,-2.517048,29.94437
174.689405441,-205.8102,77.6126399999999,-138.9049,1.639842,-0.2805019,-0.4360789,-38.30103,-2.517048,29.94437
174.699264049,-209.1024,88.8003199999999,-122.2918,1.761431,-0.427065,-0.6177902,-38.30103,-2.517048,29.94437
174.709122658,-192.9522,94.3346500000001,-103.5331,1.671594,-0.5062518,-0.8893633,-38.30103,-2.517048,29.94437
174.718981266,-150.5271,93.7395600000003,-92.7437499999999,1.571308,-0.597868,-1.077033,-40.1406,-9.445841,28.80878
174.731303692,-85.6159300000001,91.0021500000001,-89.5559900000002,1.544039,-0.7265087,-0.9296569,-40.1406,-9.445841,28.80878
174.7411623,-48.09792,87.6101399999997,-89.9238099999999,1.515817,-0.5898783,-0.7622986,-40.1406,-9.445841,28.80878
174.751020908,-23.74848,91.1806799999998,-90.1690200000001,1.428565,-0.3106455,-0.7083825,-40.1406,-9.445841,28.80878
174.760879517,-20.51845,90.5260800000001,-90.47554,1.373077,-0.1815968,-0.6815842,-40.1406,-9.445841,28.80878
174.770737648,-32.63105,89.3358999999999,-87.5943000000001,1.42302,-0.1994243,-0.6225466,-42.73604,-17.12635,25.95622
174.780596256,-44.37096,91.9542900000002,-79.9314200000002,1.530382,-0.2579209,-0.5143545,-42.73604,-17.12635,25.95622
174.790454864,-37.22763,93.1444699999999,-73.372,1.473548,-0.1185073,-1.223021,-42.73604,-17.12635,25.95622
174.800312519,-1.014056,63.9850900000001,-82.4448500000002,1.419559,-0.04987187,-0.9600291,-42.73604,-17.12635,25.95622
174.810171127,-22.07135,46.25143,-82.4448500000002,1.97316,-0.8333579,0.05718496,-42.73604,-17.12635,25.95622
174.820029736,-19.27613,71.3642000000002,-48.54428,2.059635,-0.9983798,0.2261132,-45.34127,-20.79543,24.72717
174.829888344,40.47938,107.7837,-45.47913,1.876613,-0.8299586,0.8013489,-45.34127,-20.79543,24.72717
174.839746475,63.7107300000002,128.4928,-48.36037,2.050799,-0.889953,1.001061,-45.34127,-20.79543,24.72717
174.849605083,16.56475,116.4125,-21.69357,2.83953,-1.910348,0.5758057,-45.34127,-20.79543,24.72717
174.859463692,-99.77836,81.5997400000001,52.91217,2.959074,-2.103005,-0.08354805,-45.34127,-20.79543,24.72717
174.8693223,-108.9715,54.46367,48.00793,2.120419,-1.248913,-0.4161195,-46.45234,-24.85527,23.11008
174.879179955,-56.9805,40.0625,17.78556,1.677532,-0.8737183,-0.274861,-46.45234,-24.85527,23.11008
174.889038563,-84.1872599999999,27.86317,-3.057462,1.389018,-0.9223331,0.1586826,-46.45234,-24.85527,23.11008
174.898897171,-88.8459500000002,22.98344,-19.67057,1.061732,-0.806162,0.1183245,-46.45234,-24.85527,23.11008
174.911220551,-18.46863,21.13866,-6.490429,0.6623102,-0.2727096,-0.07322367,-46.45234,-24.85527,23.11008
174.921078682,34.01932,17.80616,9.75486500000002,0.4571417,0.4078847,-0.02574056,-48.28338,-25.25423,19.41039
174.93093729,37.18723,16.0804,9.75486500000002,0.4429332,0.9711441,0.07361781,-48.28338,-25.25423,19.41039
174.940795898,8.42756399999998,13.58103,2.766323,0.5782591,0.8373247,0.01353499,-48.28338,-25.25423,19.41039
174.950654507,-6.29390900000001,6.67798900000002,12.94262,0.8342716,0.1676426,-0.09879342,-48.28338,-25.25423,19.41039
174.960512161,16.3784,8.87982000000001,24.46758,0.9514836,0.2039148,-0.04600832,-48.28338,-25.25423,19.41039
174.970370769,39.05071,13.4025,11.77786,0.913383,0.5569642,-0.01804661,-48.34763,-26.00139,18.58607
174.980229378,40.47938,13.34299,-8.14561100000001,0.8441001,0.7777328,-0.02525919,-48.34763,-26.00139,18.58607
174.990087986,17.99341,6.558971,-16.29891,0.9130297,0.5011228,0.01455193,-48.34763,-26.00139,18.58607
174.999946117,-7.84680700000002,2.036292,-8.02300500000002,1.055185,0.092374,0.0699346,-48.34763,-26.00139,18.58607
175.009804726,-13.99628,3.226471,3.624565,1.089818,-0.1488315,0.02954862,-48.34763,-26.00139,18.58607
175.019663334,0.5388422,2.274328,4.850626,1.039413,-0.21617,-0.03068041,-48.66831,-24.89959,18.12827
175.029521942,22.40364,0.01298836,1.846778,1.072434,-0.2293449,0.01138651,-48.66831,-24.89959,18.12827
175.039379597,37.12512,0.4890598,-2.383129,1.071417,-0.1140605,0.002310755,-48.66831,-24.89959,18.12827
175.049238205,37.18723,-0.5225921,-6.429126,1.00002,0.06284086,-0.01913869,-48.66831,-24.89959,18.12827
175.059096813,21.40979,-5.283307,-6.00000499999998,0.9543337,0.1748933,-0.006041113,-48.66831,-24.89959,18.12827
175.068955421,-2.442722,-10.5796,-2.076613,0.9551202,0.2295287,0.02795273,-47.97716,-24.89592,18.95691
175.081278324,-27.84813,-14.32866,0.3142034,0.9405674,0.2138105,0.02323549,-47.97716,-24.89592,18.95691
175.091136932,-40.08496,-17.30411,0.3142034,0.9494277,0.1821694,-0.000638593,-47.97716,-24.89592,18.95691
175.100995541,-45.17847,-19.26791,0.804627399999999,0.9745107,0.1233533,-0.04270361,-47.97716,-24.89592,18.95691
175.110853195,-43.43922,-20.75563,0.620718400000002,1.004223,0.06024678,-0.07193244,-47.97716,-24.89592,18.95691
175.120711803,-36.85494,-20.51759,1.417657,1.036667,0.0005257711,-0.1131516,-48.35089,-24.8916,18.95884
175.130570412,-23.31367,-19.02987,1.172445,1.032938,-0.05511414,-0.1485496,-48.35089,-24.8916,18.95884
175.14042902,-7.03929899999998,-17.60166,0.4981124,1.020085,-0.06405317,-0.1661722,-48.35089,-24.8916,18.95884
175.150287151,7.06101299999998,-15.8759,-0.911856500000002,1.024988,-0.04363637,-0.183321,-48.35089,-24.8916,18.95884
175.16014576,18.61457,-14.38817,-1.770099,1.023594,0.005059278,-0.1709101,-48.35089,-24.8916,18.95884
175.170004368,25.26097,-13.01947,-2.444432,1.00001,0.05462106,-0.134695,-47.97193,-25.25783,19.40878
175.179862976,26.44118,-10.63911,-3.118764,1.006237,0.09773855,-0.07068633,-47.97193,-25.25783,19.40878
175.189720631,20.78863,-8.199244,-3.118764,1.03431,0.1270628,-0.1029453,-47.97193,-25.25783,19.40878
175.199579239,15.69513,-5.461833,-3.915704,1.006704,0.1246718,-0.1562424,-47.97193,-25.25783,19.40878
175.209437847,14.39069,-4.033619,-3.609189,0.9923776,0.1030243,-0.185452,-47.97193,-25.25783,19.40878
175.219296455,16.93744,-0.5225921,-4.038309,0.9937981,0.1290351,-0.1301448,-47.96716,-25.62063,19.79663
175.229154587,14.08011,1.679239,-5.141763,0.9813721,0.1308236,-0.142891,-47.96716,-25.62063,19.79663
175.239013195,9.297187,-0.760627799999999,-3.425279,0.9646716,0.1482331,-0.1324429,-47.96716,-25.62063,19.79663
175.248871803,4.327913,-2.010315,-2.015311,0.9805632,0.1402748,-0.08625422,-47.96716,-25.62063,19.79663
175.261195183,-1.697331,-3.914601,-0.4214326,0.987881,0.1111756,-0.07749929,-47.96716,-25.62063,19.79663
175.271052837,-3.250229,-5.521342,0.007688423,1.019961,0.06577959,-0.06108845,-47.59222,-25.25057,20.23903
175.280911446,-0.2686647,-7.90170000000001,-1.157069,1.073152,0.01047431,-0.01199737,-47.59222,-25.25057,20.23903
175.290770054,-0.02020105,-9.74647699999998,-2.137917,1.089732,-0.04722207,0.005009791,-47.59222,-25.25057,20.23903
175.300628662,1.781161,-12.78143,-0.3601296,1.081752,-0.05905238,-0.01654029,-47.59222,-25.25057,20.23903
175.310486794,6.00504300000001,-15.75688,2.337202,1.09836,-0.08562943,-0.0059797,-47.59222,-25.25057,20.23903
175.320345402,10.04258,-18.49429,3.256747,1.082603,-0.03955093,-0.008720655,-47.59423,-24.88242,20.23525
175.33020401,11.09855,-21.52925,2.888929,1.09469,0.05203274,-0.010516,-47.59423,-24.88242,20.23525
175.340062618,5.011188,-24.68322,2.153293,1.105545,0.09289537,-0.03955703,-47.59423,-24.88242,20.23525
175.34992075,-1.883678,-25.39733,1.969384,1.101171,0.02513623,-0.06115131,-47.59423,-24.88242,20.23525
175.359779358,-2.070026,-27.06358,3.379353,1.05752,-0.0605862,-0.1086934,-47.59423,-24.88242,20.23525
175.369637966,-1.386751,-31.94331,4.850626,1.049837,-0.07867888,-0.1140077,-46.83803,-24.87412,21.44765
175.379496574,-3.622924,-38.25126,5.83147299999998,1.060539,-0.07811247,-0.1179891,-46.83803,-24.87412,21.44765
175.389354229,-11.20107,-47.11809,7.91577499999999,1.043914,-0.08975716,-0.1993143,-46.83803,-24.87412,21.44765
175.399212837,-17.66112,-56.63952,11.41005,1.069677,-0.07457448,-0.2340557,-46.83803,-24.87412,21.44765
175.409071446,-25.98465,-64.1971500000001,16.37559,1.150876,-0.1261801,-0.1728734,-46.83803,-24.87412,21.44765
175.418930054,-37.72456,-68.89836,20.54419,1.250216,-0.233001,-0.08558047,-46.45832,-24.86686,22.2779
175.43125248,-38.90476,-74.6112100000001,18.88901,1.273797,-0.2095172,-0.2371454,-46.45832,-24.86686,22.2779
175.441111088,-26.91639,-80.0265300000001,16.25298,1.283556,-0.330165,-0.3811041,-46.45832,-24.86686,22.2779
175.450969696,-7.66045899999998,-85.9179200000002,17.96947,1.295885,-0.4530613,-0.4819905,-46.45832,-24.86686,22.2779
175.460828304,16.75109,-90.7381400000001,20.7281,1.316521,-0.4855649,-0.5041229,-46.07141,-24.47363,24.38465
175.470686436,37.49781,-91.7497900000001,24.34498,1.427079,-0.5784905,-0.3713486,-46.07141,-24.47363,24.38465
175.480545044,52.46775,-90.5001,31.57873,1.48173,-0.6423029,-0.2586166,-46.07141,-24.47363,24.38465
175.490403652,62.8411099999998,-89.6074699999998,38.9964,1.461883,-0.6136153,-0.2178388,-46.07141,-24.47363,24.38465
175.500261784,65.2015100000001,-86.9890699999998,46.04624,1.417452,-0.5272686,-0.3147127,-46.07141,-24.47363,24.38465
175.510120392,59.4868500000001,-88.7148400000002,54.32214,1.397108,-0.423453,-0.3518826,-46.07141,-24.47363,24.38465
175.519979,50.48004,-88.4172900000002,61.2493799999997,1.391176,-0.4402575,-0.4070478,-44.55856,-24.45614,26.87347
175.529837608,36.81454,-91.98782,67.3183700000003,1.380466,-0.5582186,-0.4352051,-44.55856,-24.45614,26.87347
175.539695263,29.23639,-89.6074699999998,75.2877699999999,1.420912,-0.6634431,-0.4318776,-44.55856,-24.45614,26.87347
175.549553871,32.34219,-83.7160799999997,82.4602099999998,1.366376,-0.7024263,-0.4472429,-44.55856,-24.45614,26.87347
175.559412479,41.65958,-74.9087600000001,88.52921,1.306971,-0.7671041,-0.5552411,-44.55856,-24.45614,26.87347
175.569271088,54.39334,-74.3136699999997,96.1307799999997,1.245046,-0.7412326,-0.5172418,-42.31232,-20.75423,30.15289
175.579129219,59.3005000000001,-72.3498800000003,101.832,1.319909,-0.6316902,-0.4201069,-42.31232,-20.75423,30.15289
175.588987827,55.20085,-66.10144,108.2075,1.406492,-0.5069672,-0.4547907,-42.31232,-20.75423,30.15289
175.60131073,48.18175,-58.0677300000002,115.3186,1.445345,-0.5002713,-0.5774838,-42.31232,-20.75423,30.15289
175.611169338,52.40563,-54.19965,118.8129,1.431501,-0.547169,-0.5934958,-40.07806,-17.07549,31.76795
175.62102747,62.9653400000002,-52.29536,122.062,1.41146,-0.5671417,-0.6815514,-40.07806,-17.07549,31.76795
175.630886078,76.0096799999998,-49.97452,125.1271,1.442946,-0.5286493,-0.7425337,-40.07806,-17.07549,31.76795
175.640744686,87.2526600000002,-49.79599,128.0697,1.428005,-0.4518502,-0.7301718,-40.07806,-17.07549,31.76795
175.650603294,90.5448100000002,-48.18925,130.0927,1.441317,-0.3948514,-0.7442564,-40.07806,-17.07549,31.76795
175.660461426,90.4826900000001,-44.85675,132.4835,1.398217,-0.3759887,-0.8029037,-39.35637,-12.35956,31.7157
175.670320034,93.52637,-44.08313,134.0161,1.310396,-0.4466537,-0.8832331,-39.35637,-12.35956,31.7157
175.680178642,104.2103,-46.58251,136.9586,1.257839,-0.4655956,-0.8792895,-39.35637,-12.35956,31.7157
175.69003725,112.1611,-47.65367,140.3916,1.257086,-0.3994116,-0.8763243,-39.35637,-12.35956,31.7157
175.699894905,111.7884,-49.02237,142.905,1.225826,-0.3378057,-0.854274,-39.35637,-12.35956,31.7157
175.709753513,103.8376,-48.01072,145.4797,1.203854,-0.334571,-0.8481832,-39.35637,-12.35956,31.7157
175.719612122,98.9925699999998,-46.64202,146.951,1.146021,-0.3551308,-0.8738884,-38.2653,-6.850297,31.65335
175.72947073,101.353,-46.16594,146.338,1.124249,-0.3747858,-0.8732648,-38.2653,-6.850297,31.65335
175.739328861,108.4342,-45.45184,144.8054,1.14069,-0.3345234,-0.8161346,-38.2653,-6.850297,31.65335
175.749187469,108.3721,-42.47639,140.9433,1.141041,-0.309659,-0.804429,-38.2653,-6.850297,31.65335
175.759046078,107.8751,-39.97702,138.4912,1.086594,-0.2808882,-0.7895133,-38.2653,-6.850297,31.65335
175.768904686,109.7386,-38.19175,134.6904,0.9965001,-0.3094028,-0.7841572,-37.16591,-1.758955,32.42757
175.781227112,118.7454,-35.57335,131.3187,0.924796,-0.3288865,-0.7497557,-37.16591,-1.758955,32.42757
175.79108572,123.2178,-34.62121,129.0505,0.8889945,-0.3033526,-0.7336956,-37.16591,-1.758955,32.42757
175.800944328,122.9072,-33.66907,128.0083,0.8617243,-0.2428017,-0.742859,-37.16591,-1.758955,32.42757
175.810802937,121.0437,-32.5384,125.2497,0.8110285,-0.1878136,-0.752694,-35.03271,5.193744,31.1284
175.820661068,119.1802,-34.38317,120.4681,0.7454973,-0.1614008,-0.6916372,-35.03271,5.193744,31.1284
175.830519676,114.211,-34.14514,115.5638,0.7018019,-0.1586316,-0.6286951,-35.03271,5.193744,31.1284
175.840378284,109.8629,-33.55005,111.8857,0.6419018,-0.1302821,-0.5835158,-35.03271,5.193744,31.1284
175.850236893,104.9557,-32.00282,108.0849,0.5810186,-0.09657215,-0.5339644,-35.03271,5.193744,31.1284
175.860094547,98.0608299999999,-29.62246,104.468,0.5178698,-0.08187327,-0.4878956,-33.19707,10.62678,30.61471
175.869953155,93.4021400000002,-28.31326,100.7898,0.4286371,-0.06633712,-0.4165296,-33.19707,10.62678,30.61471
175.879811764,88.4949799999999,-25.04027,97.0503300000001,0.3869279,-0.05733048,-0.381836,-33.19707,10.62678,30.61471
175.889670372,86.1345699999999,-22.12433,94.9047199999998,0.3356841,-0.01052806,-0.367293,-33.19707,10.62678,30.61471
175.899528503,82.40762,-20.81514,90.92003,0.3147514,0.01567906,-0.336584,-33.19707,10.62678,30.61471
175.909387112,76.3202600000001,-20.27956,86.1383999999998,0.2859583,0.04034271,-0.3096095,-30.9928,16.47966,29.71061
175.91924572,69.3632700000002,-19.62496,80.7437400000002,0.2494818,0.06337809,-0.3093744,-30.9928,16.47966,29.71061
175.929104328,64.82882,-19.62496,75.5942800000001,0.2057396,0.08211022,-0.2716945,-30.9928,16.47966,29.71061
175.938961983,60.6049300000002,-19.44643,69.2800799999998,0.155784,0.1061982,-0.2185465,-30.9928,16.47966,29.71061
175.951285362,52.46775,-20.22005,60.08463,0.1152062,0.1517389,-0.1763727,-30.9928,16.47966,29.71061
175.96114397,44.33056,-19.863,53.21869,0.1166345,0.1561348,-0.1753975,-28.77092,19.70039,29.28163
175.971002102,36.50396,-19.74398,47.64012,0.1074685,0.1624361,-0.1603585,-28.77092,19.70039,29.28163
175.98086071,29.48486,-19.38692,41.32591,0.09809864,0.1375679,-0.1518093,-28.77092,19.70039,29.28163
175.990719318,26.9381,-18.5538,34.76649,0.08418743,0.1150623,-0.1513217,-28.77092,19.70039,29.28163
176.000577927,28.11831,-17.72067,27.47143,0.06186556,0.09782665,-0.1530658,-28.77092,19.70039,29.28163
176.010435581,29.98178,-17.54215,20.48289,0.03852465,0.1054703,-0.1358967,-27.677,22.98295,27.96163
176.020294189,27.37292,-17.2446,13.06523,0.03461897,0.1405902,-0.1043967,-27.677,22.98295,27.96163
176.030152798,18.80092,-18.01822,5.095838,0.02305565,0.1696951,-0.1015902,-27.677,22.98295,27.96163
176.040011406,7.06101299999998,-18.97036,-3.180068,-0.001048796,0.1591918,-0.1205033,-27.677,22.98295,27.96163
176.049869537,-4.3062,-19.74398,-10.53643,-0.01010797,0.1499003,-0.1113478,-27.677,22.98295,27.96163
176.059728146,-15.98399,-20.45808,-19.42536,0.003994688,0.1146319,-0.07686489,-26.55862,24.08068,28.39262
176.069586754,-28.46929,-18.91085,-28.68211,0.06903788,0.07286216,-0.07958203,-26.55862,24.08068,28.39262
176.079445362,-37.16552,-15.81639,-38.18408,0.1149333,0.01612173,-0.1363021,-26.55862,24.08068,28.39262
176.089303017,-40.27131,-14.32866,-46.7665,0.1145768,-0.064267,-0.1614147,-26.55862,24.08068,28.39262
176.099161625,-41.51363,-13.97161,-54.67458,0.1121617,-0.1129674,-0.166104,-26.55862,24.08068,28.39262
176.109020233,-43.50134,-13.37652,-61.7857300000002,0.1129402,-0.1159451,-0.1833915,-26.17891,24.08795,29.22286
176.118878841,-46.73137,-12.5434,-68.4677700000001,0.1648931,-0.1038753,-0.2017604,-26.17891,24.08795,29.22286
176.131201744,-51.63853,-9.80598499999999,-76.2532399999999,0.2286875,-0.1053432,-0.2247252,-26.17891,24.08795,29.22286
176.141060352,-54.62009,-7.42562799999997,-82.1383299999998,0.2730726,-0.09082768,-0.2218809,-26.17891,24.08795,29.22286
176.150918961,-54.99279,-4.093128,-87.7782099999999,0.3089311,-0.03982888,-0.2023144,-26.17891,24.08795,29.22286
176.160777569,-59.5272499999997,-1.534244,-93.7245899999999,0.3470455,0.01504322,-0.1932898,-27.28332,22.64524,30.46
176.170635223,-70.08695,1.143658,-99.7935900000001,0.3853624,0.05665576,-0.2169655,-27.28332,22.64524,30.46
176.180493832,-81.0814700000002,3.643033,-107.8856,0.4131472,0.00694021,-0.3040369,-27.28332,22.64524,30.46
176.19035244,-86.4855499999999,7.98718600000001,-115.7937,0.4340102,-0.08763853,-0.400014,-27.28332,22.64524,30.46
176.200211048,-83.25552,10.07,-123.3952,0.4485492,-0.1668582,-0.4080777,-27.28332,22.64524,30.46
176.21006918,-76.3606599999998,11.97428,-130.5677,0.4704518,-0.2147589,-0.386751,-28.74695,18.6307,31.78948
176.219927788,-71.2050399999998,13.75955,-136.3302,0.4818186,-0.2229262,-0.3855443,-28.74695,18.6307,31.78948
176.229786396,-67.9129000000002,16.61598,-139.334,0.4932716,-0.187887,-0.4117678,-28.74695,18.6307,31.78948
176.239645004,-68.0992399999998,21.55522,-141.0505,0.5283504,-0.127346,-0.440988,-28.74695,18.6307,31.78948
176.249503136,-70.1490700000001,25.4233,-142.4605,0.5569873,-0.04442641,-0.4565099,-28.74695,18.6307,31.78948
176.259361744,-77.2302899999999,29.64844,-146.0773,0.6206583,0.01447547,-0.4712963,-30.20736,13.94033,33.06186
176.269219875,-85.4917000000002,35.59933,-150.6751,0.6994205,0.05249695,-0.5099548,-30.20736,13.94033,33.06186
176.279078484,-91.0821299999999,40.95514,-155.3341,0.7685715,0.08266936,-0.542792,-30.20736,13.94033,33.06186
176.288936615,-97.2316099999998,45.95389,-161.2805,0.8233204,0.06800812,-0.5590305,-30.20736,13.94033,33.06186
176.301259995,-100.2132,52.32134,-170.4146,0.8011406,0.0239605,-0.5739413,-30.20736,13.94033,33.06186
176.311118603,-95.8650600000003,55.71335,-180.4683,0.7312521,-0.02310467,-0.5024208,-32.0479,8.807842,33.12431
176.320977211,-91.5790600000001,58.6292900000002,-191.6255,0.6954002,-0.06029606,-0.4734718,-32.0479,8.807842,33.12431
176.330834866,-93.6288800000001,65.7703600000001,-199.4723,0.8184126,-0.1693482,-0.5178357,-32.0479,8.807842,33.12431
176.340693474,-89.3428900000002,78.2077299999997,-195.7941,0.951672,-0.2202177,-0.5129763,-32.0479,8.807842,33.12431
176.350552082,-86.7961300000002,86.12241,-189.0508,1.038552,-0.220967,-0.5285969,-32.0479,8.807842,33.12431
176.36041069,-87.7278700000001,90.6450999999999,-183.2883,1.15117,-0.2463574,-0.6875936,-34.6302,2.640905,33.2013
176.370268822,-80.64666,99.6904499999999,-173.112,1.243552,-0.2561353,-0.9175709,-34.6302,2.640905,33.2013
176.38012743,-65.4903700000001,98.1432200000001,-165.5717,1.281011,-0.243926,-0.9941945,-34.6302,2.640905,33.2013
176.389986038,-62.3224600000003,89.3358999999999,-162.9357,1.340322,-0.1592575,-0.8754839,-34.6302,2.640905,33.2013
176.399844647,-75.0562299999998,79.1003599999999,-159.8705,1.380014,0.06445028,-0.7457361,-34.6302,2.640905,33.2013
176.409702778,-112.0773,82.4328599999998,-159.3801,1.465704,0.2626409,-0.7812248,-37.16658,-4.364498,30.40552
176.419561386,-156.2417,90.8236199999999,-153.8628,1.49676,0.3218692,-0.8913834,-37.16658,-4.364498,30.40552
176.429419994,-192.7038,87.6101399999997,-142.7057,1.503919,0.1991731,-0.7971603,-37.16658,-4.364498,30.40552
176.439278603,-225.1283,91.4187100000003,-131.1807,1.575426,-0.02478459,-0.7372943,-37.16658,-4.364498,30.40552
176.449136257,-238.4211,95.4058099999999,-110.5216,1.720152,-0.1899561,-0.7455429,-37.16658,-4.364498,30.40552
176.458994866,-229.6006,102.6659,-90.2916300000002,1.804181,-0.3924802,-0.9684023,-39.38833,-10.9333,28.3719
176.471318245,-144.6261,100.3451,-71.6555200000002,1.769007,-0.7129201,-1.210684,-39.38833,-10.9333,28.3719
176.481176853,-67.4159699999999,93.2634900000002,-70.6133700000001,1.726493,-0.7155375,-1.029921,-39.38833,-10.9333,28.3719
176.491034508,-28.03448,83.4445099999998,-71.9007299999999,1.687433,-0.4365972,-0.7787853,-39.38833,-10.9333,28.3719
176.500893116,-12.44338,82.6113900000001,-75.4563099999999,1.615694,-0.1671655,-0.7798018,-39.38833,-10.9333,28.3719
176.510751724,-11.51165,64.5801799999999,-81.2187900000003,1.389702,0.2234395,-1.581694,-42.73726,-17.50074,25.51189
176.520610333,-26.73005,6.61847999999998,-96.17672,1.549668,0.1783843,-0.8689092,-42.73726,-17.50074,25.51189
176.530468464,-104.0022,-1.534244,-100.5292,2.287293,-0.5870956,0.4922952,-42.73726,-17.50074,25.51189
176.540327072,-155.869,62.1403199999998,-53.32592,2.624229,-1.801932,0.6684411,-42.73726,-17.50074,25.51189
176.550185681,-107.7292,81.2426800000002,-23.96178,2.016718,-2.021919,0.01730226,-42.73726,-17.50074,25.51189
176.560044289,-1.945794,95.5248299999997,-37.20323,2.008636,-2.438985,0.02635686,-44.22009,-20.80838,24.72137
176.56990242,77.0656500000001,100.2855,-43.33353,2.103965,-2.13201,0.04004804,-44.22009,-20.80838,24.72137
176.579761028,117.1304,103.023,-33.21854,2.505764,-2.452646,0.2702568,-44.22009,-20.80838,24.72137
176.589619636,103.2165,89.3954099999998,11.71656,2.592382,-2.457263,-0.1268355,-44.22009,-20.80838,24.72137
176.599478245,100.0485,74.9347400000003,15.08823,1.764801,-0.7928227,-0.1901246,-44.22009,-20.80838,24.72137
176.609335899,48.7408,53.51152,-20.46751,1.298329,0.4274503,0.220724,-45.33111,-25.98425,22.28342
176.619194508,-20.26999,53.57103,-32.23769,1.096905,0.8206531,0.1823477,-45.33111,-25.98425,22.28342
176.629053116,-76.3606599999998,34.52817,-5.141763,0.7565505,1.115603,0.0943271,-45.33111,-25.98425,22.28342
176.638911724,-129.9667,29.17237,10.4905,0.5113389,1.217689,-0.002906772,-45.33111,-25.98425,22.28342
176.651234627,-123.7551,29.35089,9.57095500000001,0.6074466,0.376892,-0.08085627,-45.33111,-25.98425,22.28342
176.661093235,-58.7197400000003,31.13616,5.83147299999998,0.7519091,-0.1555313,-0.1803733,-46.09454,-25.26249,20.61538
176.670951366,31.28622,33.69505,-1.708796,0.8197027,-0.02324863,0.02822868,-46.09454,-25.26249,20.61538
176.680809975,81.84858,35.06375,-13.9694,0.7703989,0.2672741,0.1483079,-46.09454,-25.26249,20.61538
176.690668106,88.30863,27.26808,-19.36406,0.7893066,0.2908293,0.1563836,-46.09454,-25.26249,20.61538
176.700526714,73.5250500000002,19.17487,-16.91194,0.9327301,0.1183686,0.1538424,-46.09454,-25.26249,20.61538
176.710385323,59.6731899999997,12.27183,-11.82379,1.008966,0.01272403,0.09052673,-46.84673,-26.00707,19.41052
176.720243931,45.38654,5.487811,-9.06515500000003,1.082471,-0.005765947,0.04715351,-46.84673,-26.00707,19.41052
176.730102062,28.36677,-0.998663500000001,-6.67433799999998,1.115483,0.08109061,0.03304002,-46.84673,-26.00707,19.41052
176.73996067,5.259652,-5.99741399999999,-5.632187,1.089609,0.2152212,0.04747916,-46.84673,-26.00707,19.41052
176.749819279,-23.50002,-9.80598499999999,-4.651339,1.070338,0.2228088,0.04015066,-46.84673,-26.00707,19.41052
176.759677887,-40.70612,-12.00782,-1.954008,1.035356,0.185813,-0.01045812,-46.46703,-25.99981,20.24077
176.769535541,-43.74981,-11.8888,-1.340978,0.98405,0.1608285,-0.06360808,-46.46703,-25.99981,20.24077
176.77939415,-38.22149,-10.93666,-1.647493,0.9712771,0.1445889,-0.08177266,-46.46703,-25.99981,20.24077
176.789252758,-30.457,-9.32991399999999,-2.015311,0.9749764,0.145539,-0.09667255,-46.46703,-25.99981,20.24077
176.799111366,-23.4379,-7.48513700000001,-2.750947,0.9736921,0.141049,-0.1230481,-46.46703,-25.99981,20.24077
176.808969498,-17.53689,-6.41397600000001,-3.180068,0.9773636,0.1240619,-0.1198894,-46.10128,-25.64756,19.40289
176.821292877,-12.94031,-4.331164,-3.118764,1.008227,0.07614823,-0.1231296,-46.10128,-25.64756,19.40289
176.831151485,-8.77854399999999,-2.724423,-2.750947,1.042312,0.04138932,-0.1296592,-46.10128,-25.64756,19.40289
176.841010094,-2.691185,-1.17719,-2.567038,1.043666,0.043811,-0.1358876,-46.10128,-25.64756,19.40289
176.850867748,3.147711,0.07249729,-2.383129,1.026149,0.06516389,-0.1100602,-46.10128,-25.64756,19.40289
176.860726356,8.05486800000002,0.727095499999998,-2.62834,1.001602,0.0810336,-0.1023884,-46.09927,-26.01571,19.40666
176.870584965,14.20434,1.262676,-2.689644,0.9886491,0.09758916,-0.06899932,-46.09927,-26.01571,19.40666
176.880443573,20.78863,1.02464,-2.934855,0.9772397,0.1215027,-0.02359015,-46.09927,-26.01571,19.40666
176.890301704,23.14903,0.667586600000001,-3.670491,0.9570889,0.1427802,-0.01162259,-46.09927,-26.01571,19.40666
176.900160313,22.96269,-0.1655384,-3.057462,0.9606172,0.164187,-0.02107621,-46.09927,-26.01571,19.40666
176.910018921,22.58999,-1.236699,-2.62834,0.9668036,0.1879819,-0.04875713,-46.09726,-26.38386,19.41043
176.919877529,19.54631,-2.605405,-2.62834,0.968378,0.1943723,-0.03530806,-46.09726,-26.38386,19.41043
176.929735184,13.33472,-3.260003,-2.015311,0.9723312,0.1910007,-0.03539285,-46.09726,-26.38386,19.41043
176.939593792,6.19139099999999,-4.033619,-1.095766,0.972671,0.1738745,-0.061419,-46.09726,-26.38386,19.41043
176.9494524,0.663074000000001,-4.926253,-0.05361458,0.9836286,0.1408262,-0.07623006,-46.09726,-26.38386,19.41043
176.959311008,-2.31849,-5.283307,0.682021400000003,0.996396,0.1228883,-0.0885434,-46.0945,-26.37851,19.79451
176.96916914,-3.498692,-5.93790500000001,1.295051,1.002341,0.1171029,-0.08819775,-46.0945,-26.37851,19.79451
176.979027748,-2.31849,-5.93790500000001,1.233748,1.00616,0.1333572,-0.04498706,-46.0945,-26.37851,19.79451
176.988886356,-3.063881,-6.53299399999998,1.111142,0.9851429,0.1424523,-0.03550597,-46.0945,-26.37851,19.79451
177.001209736,-6.666604,-8.08022700000001,2.521111,0.9753378,0.1789766,-0.004868416,-46.0945,-26.37851,19.79451
177.01106739,-10.9526,-8.97285999999998,3.869777,0.9950473,0.2057725,-0.04277994,-46.46823,-26.3742,19.79645
177.020925999,-13.99628,-8.31826200000003,4.482807,1.003219,0.2095755,-0.08599226,-46.46823,-26.3742,19.79645
177.030784607,-16.23246,-7.84219100000002,5.034534,0.987711,0.1578617,-0.08477007,-46.46823,-26.3742,19.79645
177.040643215,-13.43724,-8.37777100000001,6.13798800000002,0.9734393,0.08279524,-0.08520018,-46.46823,-26.3742,19.79645
177.050501347,-6.666604,-9.09187900000003,6.87362400000002,0.9975529,0.07767794,-0.07935745,-46.46823,-26.3742,19.79645
177.060359955,-0.827707900000002,-9.74647699999998,6.50580599999999,0.9943829,0.0985787,-0.07817748,-46.09128,-26.37227,20.24261
177.070218563,3.209827,-10.63911,6.751019,1.000844,0.1273341,-0.08138128,-46.09128,-26.37227,20.24261
177.080077171,3.45829,-11.29371,7.30274499999998,1.012595,0.1406233,-0.06897743,-46.09128,-26.37227,20.24261
177.089934826,2.837131,-12.95996,7.67056300000001,1.008912,0.128937,-0.06231477,-46.09128,-26.37227,20.24261
177.099793434,3.520406,-14.92375,8.590108,1.004474,0.1314642,-0.02676943,-46.09128,-26.37227,20.24261
177.109652042,3.830986,-17.12559,8.89662299999997,1.006592,0.1228747,0.01338064,-45.71555,-26.74474,20.24445
177.119510651,2.961363,-21.35072,9.44834999999999,0.9962491,0.07944664,0.005973561,-45.71555,-26.74474,20.24445
177.129368782,6.31562199999998,-26.23045,10.3679,1.00641,0.05034732,0.007979155,-45.71555,-26.74474,20.24445
177.13922739,9.98046100000001,-32.18135,11.10353,1.045917,0.06105279,0.04440479,-45.71555,-26.74474,20.24445
177.149085999,10.41527,-37.2396,11.28744,1.089828,0.06837981,0.07786395,-45.71555,-26.74474,20.24445
177.158944607,8.986607,-41.94081,12.14568,1.120416,0.04528721,0.07627471,-46.08133,-25.98096,21.9032
177.171267033,0.725189899999998,-50.98617,12.5135,1.073299,0.07398573,0.05466606,-46.08133,-25.98096,21.9032
177.181125641,-11.57376,-60.8051399999997,11.65526,1.062074,0.01956518,-0.02709714,-46.08133,-25.98096,21.9032
177.190984249,-15.73553,-69.5529600000003,13.55565,1.121549,-0.1212804,-0.09478378,-46.08133,-25.98096,21.9032
177.200842857,-17.10208,-81.3357199999999,15.08823,1.185111,-0.2718064,-0.1582976,-46.08133,-25.98096,21.9032
177.210700989,-18.71709,-88.7743500000001,18.82771,1.333797,-0.3256669,-0.2087912,-46.07739,-24.48521,23.55247
177.220559597,-23.74848,-91.2737200000001,23.42543,1.40613,-0.3465265,-0.2325206,-46.07739,-24.48521,23.55247
177.230418205,-37.28975,-93.3565299999999,30.8431,1.38086,-0.3818564,-0.2511473,-46.07739,-24.48521,23.55247
177.240276814,-49.40235,-93.4160399999998,42.36806,1.436006,-0.490985,-0.2854398,-46.07739,-24.48521,23.55247
177.250134468,-49.15389,-95.4988500000002,49.4179,1.464242,-0.6528642,-0.4381562,-46.07739,-24.48521,23.55247
177.259993076,-28.22083,-94.7252300000001,53.89302,1.451359,-0.8002501,-0.6515018,-44.56253,-24.83587,26.04506
177.269851685,15.63301,-91.1547000000003,54.26084,1.453587,-0.8966894,-0.6806202,-44.56253,-24.83587,26.04506
177.279710293,56.1947,-84.9657699999999,56.59035,1.544148,-1.065127,-0.3943752,-44.56253,-24.83587,26.04506
177.289568424,81.0410699999999,-78.8958599999998,66.9505599999997,1.567982,-1.077377,-0.3435439,-44.56253,-24.83587,26.04506
177.299427033,97.6260199999997,-72.8854600000002,77.9851,1.473714,-0.8468577,-0.4164476,-44.56253,-24.83587,26.04506
177.309285641,99.7379599999998,-65.8038899999999,83.56367,1.438683,-0.6407831,-0.4003125,-43.80315,-23.70531,28.52642
177.319144249,86.1345699999999,-61.4002300000001,87.8548800000003,1.476202,-0.6264684,-0.4347496,-43.80315,-23.70531,28.52642
177.32900238,71.2267499999999,-56.46099,96.4986,1.58369,-0.6819173,-0.4223735,-43.80315,-23.70531,28.52642
177.341325283,63.1516900000001,-51.34322,108.7592,1.551586,-0.6865454,-0.4128502,-43.80315,-23.70531,28.52642
177.351183891,65.5742000000002,-49.31992,117.0964,1.544694,-0.596702,-0.4445793,-43.80315,-23.70531,28.52642
177.3610425,62.8411099999998,-52.05733,122.9202,1.557634,-0.5498439,-0.5665641,-41.56888,-20.02657,30.14148
177.370900631,59.3626099999999,-57.23461,131.9317,1.603354,-0.5128122,-0.6613055,-41.56888,-20.02657,30.14148
177.380759239,57.06433,-61.9358100000001,135.7938,1.646292,-0.4833868,-0.5720589,-41.56888,-20.02657,30.14148
177.390617848,52.46775,-61.7572900000001,138.6138,1.628964,-0.4543037,-0.5615033,-41.56888,-20.02657,30.14148
177.400476456,51.66024,-58.7223299999999,143.3341,1.536287,-0.5202549,-0.6709549,-41.56888,-20.02657,30.14148
177.41033411,58.2445299999998,-57.65117,149.0353,1.446364,-0.5389562,-0.6444335,-40.8492,-14.9425,30.08546
177.420192719,67.7482599999998,-54.67572,152.5909,1.417696,-0.50121,-0.6326848,-40.8492,-14.9425,30.08546
177.430051327,75.6991,-50.74813,155.9012,1.437396,-0.4197354,-0.6231732,-40.8492,-14.9425,30.08546
177.439909935,78.4322000000002,-47.8917,157.8016,1.416017,-0.3709791,-0.6770858,-40.8492,-14.9425,30.08546
177.449768067,81.4137600000001,-44.79724,161.4798,1.38367,-0.3179829,-0.7423069,-40.8492,-14.9425,30.08546
177.459626675,84.5195600000001,-44.44019,163.9319,1.327311,-0.2694697,-0.7784719,-38.63297,-9.066448,30.84572
177.469485283,90.7311600000001,-43.1905,164.7901,1.296381,-0.2647569,-0.7463641,-38.63297,-9.066448,30.84572
177.479343891,92.7809800000001,-44.02362,163.6867,1.269254,-0.2638119,-0.6899031,-38.63297,-9.066448,30.84572
177.489202023,92.71886,-39.97702,164.4836,1.216879,-0.193762,-0.701983,-38.63297,-9.066448,30.84572
177.499060631,92.0976999999999,-37.1801,163.4415,1.116357,-0.1629834,-0.6916651,-38.63297,-9.066448,30.84572
177.508919239,89.3645999999997,-35.8709,161.9089,1.025462,-0.1355804,-0.6958887,-37.91207,-3.607988,31.23402
177.521242142,87.1284299999998,-32.47889,157.2499,0.9488914,-0.1132478,-0.6586689,-37.91207,-3.607988,31.23402
177.531100273,88.4949799999999,-30.63411,152.4682,0.918617,-0.1148301,-0.6199148,-37.91207,-3.607988,31.23402
177.540958882,90.66904,-28.67032,147.0736,0.9223596,-0.114709,-0.5964864,-37.91207,-3.607988,31.23402
177.55081749,91.7250099999998,-26.58751,143.3954,0.9150739,-0.06851278,-0.5878463,-37.91207,-3.607988,31.23402
177.560676098,90.5448100000002,-23.73108,137.8781,0.8744637,-0.06203938,-0.5824209,-36.833,2.994138,30.32818
177.570533752,92.4703999999998,-21.41023,131.7478,0.8060316,-0.06103061,-0.5411842,-36.833,2.994138,30.32818
177.580392361,94.02329,-18.43478,124.698,0.7406586,-0.05068417,-0.4826613,-36.833,2.994138,30.32818
177.590250969,92.9052099999999,-14.86425,118.0773,0.6640829,-0.03616464,-0.4526954,-36.833,2.994138,30.32818
177.600109577,91.1038500000002,-12.06733,113.173,0.5826446,-0.02021542,-0.4192937,-36.833,2.994138,30.32818
177.609967708,87.56324,-7.78268199999998,108.9431,0.5230725,0.02225101,-0.3735207,-34.30897,8.425501,30.25905
177.619826317,81.4137600000001,-4.688217,103.6097,0.4801071,0.06290448,-0.3313541,-34.30897,8.425501,30.25905
177.629684925,71.4130999999998,-2.010315,98.4602999999998,0.4843564,0.1119403,-0.3712536,-34.30897,8.425501,30.25905
177.639543533,63.02745,-3.140985,92.5139100000002,0.4685056,0.1428569,-0.3942476,-34.30897,8.425501,30.25905
177.649402141,52.52987,-5.93790500000001,84.05409,0.4599319,0.1267335,-0.3913862,-34.30897,8.425501,30.25905
177.659260273,45.20019,-8.55629800000001,76.1460100000001,0.4123079,0.1256405,-0.4405535,-33.6056,14.28407,28.53049
177.669118881,42.21862,-11.41273,66.6440399999999,0.3639345,0.09167519,-0.4300874,-33.6056,14.28407,28.53049
177.678977489,41.97016,-14.38817,56.22254,0.3428687,0.08185077,-0.4049518,-33.6056,14.28407,28.53049
177.691300392,43.08825,-18.61331,41.57112,0.3471217,0.05268865,-0.4057377,-33.6056,14.28407,28.53049
177.701158523,45.38654,-21.29121,31.27222,0.3274977,0.0295526,-0.4300924,-33.6056,14.28407,28.53049
177.711017132,48.61656,-24.86175,21.34113,0.2590061,0.01247999,-0.409134,-31.76222,17.18985,27.2104
177.72087574,50.66639,-28.49179,11.65526,0.1841036,0.01304776,-0.3404945,-31.76222,17.18985,27.2104
177.730734348,49.67253,-31.16969,3.808474,0.1497532,0.02847233,-0.2986636,-31.76222,17.18985,27.2104
177.74059248,45.51077,-32.30036,-2.199219,0.1256232,0.05311405,-0.2885277,-31.76222,17.18985,27.2104
177.750451088,41.65958,-34.38317,-7.59388300000003,0.1095824,0.05899416,-0.2398503,-31.76222,17.18985,27.2104
177.760309696,33.64663,-35.93041,-11.88509,0.1216887,0.05787295,-0.1782156,-31.02647,19.32874,27.18454
177.770167828,20.2917,-36.70403,-15.01155,0.1450013,0.04937998,-0.1623268,-31.02647,19.32874,27.18454
177.780025959,8.551796,-37.1801,-18.07669,0.1676341,0.00469951,-0.1922576,-31.02647,19.32874,27.18454
177.789884567,1.719045,-37.83469,-20.95794,0.1837205,-0.03897893,-0.1990851,-31.02647,19.32874,27.18454
177.799743175,-3.809272,-39.97702,-23.47136,0.1669214,-0.04405605,-0.2156605,-31.02647,19.32874,27.18454
177.809601784,-13.25089,-42.35737,-25.92348,0.168406,-0.04550288,-0.2156938,-30.28704,20.7927,27.16559
177.819459915,-25.61196,-43.72608,-27.21084,0.1691162,-0.02018292,-0.2130943,-30.28704,20.7927,27.16559
177.829318523,-37.78667,-44.5592,-30.76641,0.1635712,-0.0211186,-0.1900216,-30.28704,20.7927,27.16559
177.839177132,-49.89928,-44.73773,-35.97717,0.149527,-0.08027909,-0.2315318,-30.28704,20.7927,27.16559
177.84903574,-55.4276,-43.60706,-40.20708,0.1510701,-0.1383435,-0.2770886,-30.28704,20.7927,27.16559
177.858893394,-53.93681,-42.35737,-44.55959,0.1373917,-0.213376,-0.2698597,-30.27307,20.44771,28.83372
177.871216774,-44.93001,-40.92916,-50.19947,0.1341811,-0.2400627,-0.2417664,-30.27307,20.44771,28.83372
177.881075382,-36.85494,-39.38193,-54.24546,0.1801864,-0.1631329,-0.2087081,-30.27307,20.44771,28.83372
177.89093399,-38.40784,-36.22795,-58.0462500000001,0.2617305,-0.07484175,-0.2143964,-30.27307,20.44771,28.83372
177.900792122,-47.97369,-33.25251,-60.1305500000002,0.3011458,-0.02306872,-0.2562115,-30.27307,20.44771,28.83372
177.91065073,-61.08014,-31.8838,-64.0539499999999,0.3169736,-0.04387426,-0.2618839,-29.49562,18.26494,31.34902
177.920509338,-72.8821700000003,-30.5746,-67.4256099999998,0.3175959,-0.12816,-0.2903977,-29.49562,18.26494,31.34902
177.930367947,-78.28625,-28.61081,-70.55206,0.3077057,-0.1696411,-0.2987532,-29.49562,18.26494,31.34902
177.940225601,-80.0254999999999,-25.15929,-75.76282,0.3084253,-0.1423656,-0.2937412,-29.49562,18.26494,31.34902
177.950084209,-84.1251500000001,-21.35072,-81.0961800000003,0.3327152,-0.07948638,-0.3227879,-29.49562,18.26494,31.34902
177.959942818,-90.6473200000002,-16.17344,-85.93912,0.3724249,-0.03167037,-0.3823711,-29.47195,16.14058,33.03537
177.969801426,-99.2814299999998,-10.87715,-91.39508,0.411975,-0.05379901,-0.4075607,-29.47195,16.14058,33.03537
177.979659557,-106.0521,-5.87839600000002,-96.1154200000001,0.476733,-0.0600095,-0.3999105,-29.47195,16.14058,33.03537
177.989518166,-109.779,0.5485688,-100.0388,0.5406699,-0.01030804,-0.4032775,-29.47195,16.14058,33.03537
177.999376774,-111.5804,5.487811,-102.7974,0.538169,0.04699504,-0.428635,-29.47195,16.14058,33.03537
178.009235382,-118.9101,9.17736400000001,-106.4143,0.4965551,0.1295635,-0.501621,-29.43192,12.1257,35.57339
178.019093037,-133.3831,13.70004,-114.8741,0.4395771,0.1780352,-0.5473614,-29.43192,12.1257,35.57339
178.028951645,-154.6888,18.1037,-126.0926,0.3760432,0.09391981,-0.5088298,-29.43192,12.1257,35.57339
178.041275024,-173.3236,26.19692,-136.5754,0.3889356,-0.1162913,-0.5376227,-29.43192,12.1257,35.57339
178.051133633,-168.1059,37.68214,-142.3379,0.4781831,-0.1951575,-0.6277331,-29.43192,12.1257,35.57339
178.060991764,-156.6765,51.13116,-147.8551,0.6017507,-0.1973173,-0.7167268,-30.14809,8.102531,36.89901
178.070850372,-144.067,64.4611699999998,-153.0046,0.7053584,-0.1854685,-0.7861497,-30.14809,8.102531,36.89901
178.080708981,-129.4698,74.3396499999999,-158.8897,0.8175316,-0.2220273,-0.8081834,-30.14809,8.102531,36.89901
178.090567589,-114.8725,82.3733499999999,-161.6483,0.9469482,-0.3008754,-0.8586132,-30.14809,8.102531,36.89901
178.100425243,-97.66642,89.27639,-160.177,1.020417,-0.3387698,-0.8858569,-30.14809,8.102531,36.89901
178.110283852,-84.6841900000002,90.4665700000002,-159.1349,0.9862896,-0.2890229,-0.9050771,-31.59916,0.08190632,36.98906
178.12014246,-76.8575900000001,89.4549200000002,-159.9318,0.8682795,-0.07476182,-0.9753836,-31.59916,0.08190632,36.98906
178.130001068,-82.1374399999999,83.14697,-165.7556,0.7627584,0.1991625,-0.8666233,-31.59916,0.08190632,36.98906
178.1398592,-118.7237,80.7666100000002,-171.702,0.882547,0.344233,-0.7444312,-31.59916,0.08190632,36.98906
178.149717808,-174.5038,91.3591999999998,-168.7595,1.117406,0.317739,-0.8376124,-31.59916,0.08190632,36.98906
178.159576416,-221.8361,105.4033,-154.1693,1.311708,0.1267716,-0.9641892,-34.19465,-6.48258,34.95737
178.169435024,-236.9924,110.2235,-132.7133,1.325447,-0.03784547,-1.0343,-34.19465,-6.48258,34.95737
178.179293633,-224.9419,114.2106,-119.9623,1.417581,-0.2377274,-1.09097,-34.19465,-6.48258,34.95737
178.189151287,-186.1816,118.1977,-106.2917,1.576754,-0.5110327,-1.031812,-34.19465,-6.48258,34.95737
178.199009895,-125.4943,128.3143,-90.5368399999998,1.735915,-0.8164819,-1.109496,-34.19465,-6.48258,34.95737
178.208868504,-45.92386,136.1099,-77.1114899999999,1.600493,-0.8145634,-1.316002,-37.09676,-13.84023,32.99947
178.221191883,19.91901,134.1461,-72.8815800000001,1.454202,-0.6747156,-1.050135,-37.09676,-13.84023,32.99947
178.231050015,35.01318,131.2302,-71.2876999999999,1.541417,-0.2874994,-0.7716123,-37.09676,-13.84023,32.99947
178.240908623,12.03029,133.194,-68.89688,1.652442,0.101814,-0.8978554,-37.09676,-13.84023,32.99947
178.250767231,-16.91573,109.5689,-67.79343,1.372101,0.6887619,-1.637895,-40.0707,-21.15363,29.76099
178.260625839,-100.2753,62.4973700000001,-83.6095999999999,1.666744,0.2315644,-2.53343,-40.0707,-21.15363,29.76099
178.270483494,-79.6528,-9.56794999999997,-76.0080300000003,2.42522,-1.673837,-0.6459191,-40.0707,-21.15363,29.76099
178.280342102,15.57089,45.00174,-13.9694,4.021265,-3.275664,1.580115,-40.0707,-21.15363,29.76099
178.29020071,0.2282626,106.534,-21.08054,1.613366,-0.4167138,0.8033171,-40.0707,-21.15363,29.76099
178.300059319,-28.0966,109.688,-49.64774,0.978366,-1.034846,-0.456019,-40.0707,-21.15363,29.76099
178.30991745,-10.70414,79.9929999999998,-20.52881,1.480896,-1.858368,-0.7796941,-41.92927,-24.08881,28.96863
178.319776058,19.85689,80.8261200000001,10.79702,2.309281,-1.515162,-0.3621167,-41.92927,-24.08881,28.96863
178.329634667,54.57969,94.2156300000003,-8.08430800000001,1.959893,-1.046141,-0.2060646,-41.92927,-24.08881,28.96863
178.339493275,83.4014700000003,95.9413899999999,-13.72418,1.441045,-0.6588275,-0.02768124,-41.92927,-24.08881,28.96863
178.349350929,76.2581400000001,86.8365200000002,-12.069,1.244634,-0.04109764,0.104444,-41.92927,-24.08881,28.96863
178.359209538,48.11963,78.2672299999999,-10.96555,1.294819,0.3868726,0.1787413,-43.80106,-26.30551,26.88846
178.369068146,12.58933,73.26849,-8.45212599999999,1.280994,0.9615536,0.2087066,-43.80106,-26.30551,26.88846
178.378926754,-26.5437,74.28014,-15.56327,1.190035,1.117455,-0.04601135,-43.80106,-26.30551,26.88846
178.391249657,-45.42693,68.9243299999998,-11.82379,1.023078,0.3845122,-0.19789,-43.80106,-26.30551,26.88846
178.401108265,-21.32596,68.4482700000001,-4.835248,0.9339785,-0.05966578,-0.09063204,-44.9422,-25.95916,24.39394
178.410966873,14.76339,66.7225000000002,-5.08046,0.8523927,-0.2558145,-0.03937107,-44.9422,-25.95916,24.39394
178.420825482,58.4929900000001,60.7716099999999,-9.49427599999999,0.8024786,-0.2693081,-0.01625118,-44.9422,-25.95916,24.39394
178.430683136,89.7994200000002,50.53608,-12.0077,0.7969263,-0.04153792,0.1357396,-44.9422,-25.95916,24.39394
178.440541744,86.0103499999997,37.80116,-13.66288,0.8187876,0.2327267,0.2939617,-44.9422,-25.95916,24.39394
178.450400353,58.5551100000002,25.95888,-13.41767,0.8475433,0.4111023,0.29937,-45.33508,-26.36398,21.45501
178.460258961,23.58385,14.53317,-11.88509,0.8921956,0.4704232,0.1818304,-45.33508,-26.36398,21.45501
178.470117092,-5.05159,6.38044500000002,-9.739489,0.9488339,0.3711616,0.05032239,-45.33508,-26.36398,21.45501
178.4799757,-19.33825,1.02464,-7.28736799999999,0.9824617,0.193004,-0.04414592,-45.33508,-26.36398,21.45501
178.489834309,-19.89729,-0.998663500000001,-6.429126,1.004462,0.06590309,-0.1212456,-45.33508,-26.36398,21.45501
178.499692917,-10.64202,-1.534244,-6.18391400000002,1.022038,0.01540875,-0.1324647,-44.96537,-25.632,21.44554
178.509550572,-1.014056,-1.534244,-7.164762,1.043398,0.01861728,-0.1059069,-44.96537,-25.632,21.44554
178.51940918,4.762724,-1.058172,-8.08430800000001,1.03528,0.0531289,-0.09687431,-44.96537,-25.632,21.44554
178.529267788,5.632347,-1.534244,-7.28736799999999,1.010278,0.139662,-0.06032693,-44.96537,-25.632,21.44554
178.539126396,-1.262519,-2.605405,-6.98085300000002,0.9874803,0.2124774,-0.05363709,-44.96537,-25.632,21.44554
178.548985005,-11.26318,-3.379021,-5.509581,0.9668772,0.2235083,-0.04797916,-44.96537,-25.632,21.44554
178.561307907,-17.9717,-3.498039,-4.406127,0.9686491,0.174162,-0.1049664,-45.33307,-26.73212,21.45878
178.571166515,-13.37512,-2.188842,-4.528733,0.9848749,0.1098826,-0.1555769,-45.33307,-26.73212,21.45878
178.581025123,-3.498692,-0.879645599999998,-4.46743,0.9997174,0.09297222,-0.1583271,-45.33307,-26.73212,21.45878
178.590882778,5.88081099999999,1.143658,-4.896551,1.015914,0.09654817,-0.1513398,-45.33307,-26.73212,21.45878
178.600741386,15.1982,3.226471,-5.386975,1.012559,0.1072785,-0.1368254,-44.95412,-27.09835,21.90872
178.610599995,20.78863,3.82156,-5.019157,0.990005,0.1392874,-0.1122739,-44.95412,-27.09835,21.90872
178.620458603,19.73266,3.404998,-4.406127,0.9827582,0.1817242,-0.06820531,-44.95412,-27.09835,21.90872
178.630317211,14.32858,2.095801,-3.425279,0.9687958,0.2113091,-0.06152704,-44.95412,-27.09835,21.90872
178.640175342,7.74428800000002,0.5485688,-2.567038,0.9673755,0.212286,-0.05718576,-44.95412,-27.09835,21.90872
178.650033951,1.284233,-1.17719,-1.831402,0.9685545,0.1942875,-0.05831286,-44.95612,-26.7302,21.90495
178.659892559,-2.753301,-2.486387,-1.218372,0.9737061,0.1597408,-0.06969942,-44.95612,-26.7302,21.90495
178.669751167,-3.871388,-3.557548,-0.05361458,0.9752904,0.146605,-0.07270806,-44.95612,-26.7302,21.90495
178.679608822,-3.99562,-4.807235,0.0689914200000002,0.9700907,0.153309,-0.08934935,-44.95612,-26.7302,21.90495
178.68946743,-4.741011,-5.342815,0.1915974,0.9738443,0.1601333,-0.09509565,-44.95612,-26.7302,21.90495
178.699326038,-6.35602500000002,-6.05692300000003,0.988536299999999,0.9731935,0.1825413,-0.08723007,-44.95612,-26.7302,21.90495
178.709184647,-9.399704,-6.17594099999999,1.724172,0.9796647,0.1884882,-0.07385453,-44.95612,-26.7302,21.90495
178.719042778,-13.49935,-5.99741399999999,1.846778,1.001422,0.1812866,-0.09914377,-44.95612,-26.7302,21.90495
178.728901386,-16.60515,-5.283307,2.09199,0.9968504,0.1548353,-0.1347626,-44.95612,-26.7302,21.90495
178.741224766,-16.35669,-4.807235,3.31805,0.9841082,0.124446,-0.1631102,-44.95612,-26.7302,21.90495
178.751083374,-12.56762,-2.486387,3.134141,0.9833751,0.1142545,-0.154081,-44.20988,-27.11322,21.45676
178.760941029,-7.78468999999998,-1.712771,3.195444,0.9806609,0.1390558,-0.1519162,-44.20988,-27.11322,21.45676
178.770799637,-5.113706,-0.760627799999999,3.501959,0.9816539,0.1620154,-0.1306518,-44.20988,-27.11322,21.45676
178.780658245,-2.629069,-0.582100999999999,3.747171,0.9789089,0.1625318,-0.1162324,-44.20988,-27.11322,21.45676
178.790516853,-0.827707900000002,-0.2250474,3.992383,0.9776521,0.1508614,-0.1110417,-44.20988,-27.11322,21.45676
178.800374985,1.160001,-0.582100999999999,4.176292,0.9766986,0.1246309,-0.09639435,-44.95135,-27.09301,22.2928
178.810233593,4.452145,-0.820136700000001,3.747171,0.9826755,0.1227603,-0.09026573,-44.95135,-27.09301,22.2928
178.820092201,6.129274,-1.296208,4.237596,0.983627,0.1266671,-0.08880872,-44.95135,-27.09301,22.2928
178.829950809,6.874665,-2.664914,4.54411,0.9659391,0.1465064,-0.0768884,-44.95135,-27.09301,22.2928
178.839808941,5.383883,-4.747726,4.789322,0.964349,0.1601289,-0.07387558,-44.95135,-27.09301,22.2928
178.849667549,3.334059,-6.41397600000001,5.586261,0.9622445,0.1654399,-0.08003035,-44.95612,-26.7302,21.90495
178.859526157,1.346349,-8.02071800000003,6.32189799999997,0.9689325,0.1635018,-0.09355962,-44.95612,-26.7302,21.90495
178.869384766,-0.579244300000001,-9.68696799999999,7.24144199999999,0.9774069,0.1660617,-0.07976201,-44.95612,-26.7302,21.90495
178.879242897,-3.37446,-10.81764,7.793169,1.000647,0.1735243,-0.09105184,-44.95612,-26.7302,21.90495
178.889101028,-2.815417,-11.05567,8.09968399999998,0.9958293,0.1529967,-0.1036156,-44.95612,-26.7302,21.90495
178.898959637,-2.070026,-11.65076,9.69356200000002,1.008795,0.1162098,-0.08206769,-44.57964,-26.72918,22.2871
178.911283016,0.1040308,-10.69862,10.18399,0.9893869,0.1226467,-0.1363655,-44.57964,-26.72918,22.2871
178.921141624,3.830986,-10.5796,10.06138,1.004051,0.1300967,-0.1307612,-44.57964,-26.72918,22.2871
178.930999279,4.700608,-10.40108,10.4905,1.009032,0.137977,-0.1173481,-44.57964,-26.72918,22.2871
178.940857887,4.638493,-10.22255,10.4292,1.012451,0.1532762,-0.0683894,-44.57964,-26.72918,22.2871
178.950716496,1.470581,-11.17469,10.06138,0.9953177,0.1478858,-0.03800113,-44.20469,-26.35911,22.72949
178.960575104,-0.765591999999998,-13.13849,10.61311,0.9650479,0.1189641,-0.02295861,-44.20469,-26.35911,22.72949
178.970433235,-0.5171283,-18.97036,11.77786,0.9408668,0.07098062,-0.04458289,-44.20469,-26.35911,22.72949
178.980291843,1.346349,-25.27831,12.02308,0.9776573,0.04022312,-0.02859484,-44.20469,-26.35911,22.72949
178.990150452,7.930636,-30.33657,12.26829,1.031728,0.02563868,-0.02277977,-44.20469,-26.35911,22.72949
179.00000906,12.77568,-34.97826,12.26829,1.076194,0.04213018,-0.01225276,-45.70287,-25.23206,23.10999
179.009867191,14.94973,-39.44144,11.77786,1.105516,0.06958729,-0.02633573,-45.70287,-25.23206,23.10999
179.0197258,16.56475,-43.30952,11.83917,1.134456,0.02215412,-0.02666931,-45.70287,-25.23206,23.10999
179.029584408,15.38455,-48.48679,12.5748,1.165169,-0.00933783,-0.06235437,-45.70287,-25.23206,23.10999
179.039443016,17.43437,-53.24751,12.39089,1.201449,-0.04108208,-0.04876338,-45.70287,-25.23206,23.10999
179.049300671,23.0248,-57.5321500000003,11.04223,1.208711,-0.1027733,-0.03692833,-44.94345,-25.21752,24.77048
179.059159279,31.16199,-61.5192499999999,9.264441,1.245381,-0.06947212,0.06250356,-44.94345,-25.21752,24.77048
179.069017887,35.19952,-65.0302699999998,6.56710899999998,1.295717,-0.06171709,0.065206,-44.94345,-25.21752,24.77048
179.078876495,30.91352,-74.7302299999999,4.360201,1.269611,-0.09449083,-0.0482688,-44.94345,-25.21752,24.77048
179.091198921,34.82683,-84.0136299999998,3.992383,1.308632,-0.1439761,-0.1005169,-44.94345,-25.21752,24.77048
179.101057529,27.49715,-88.0602300000002,5.95407899999997,1.401642,-0.1863164,-0.0619471,-44.54935,-24.43832,28.15374
179.110916138,16.68898,-89.5479599999999,9.57095500000001,1.419223,-0.157904,-0.1827162,-44.54935,-24.43832,28.15374
179.120774746,2.40232,-89.5479599999999,15.33344,1.42701,-0.1904749,-0.3220699,-44.54935,-24.43832,28.15374
179.130633354,-11.76011,-91.9283100000001,23.05762,1.374684,-0.1935621,-0.5024875,-44.54935,-24.43832,28.15374
179.140491486,-19.64883,-95.5583600000001,28.39098,1.385872,-0.2690207,-0.5377862,-44.54935,-24.43832,28.15374
179.150350094,-17.35054,-98.7123299999998,29.31052,1.350384,-0.2762962,-0.7069784,-43.41624,-23.31208,30.63317
179.160208702,5.88081099999999,-102.5804,25.69365,1.277807,-0.2436231,-0.9059736,-43.41624,-23.31208,30.63317
179.17006731,27.00022,-112.3994,19.19553,1.376285,-0.3490374,-0.7012526,-43.41624,-23.31208,30.63317
179.179925442,34.82683,-113.1135,25.14192,1.567344,-0.546496,-0.6050103,-43.41624,-23.31208,30.63317
179.18978405,47.74694,-109.662,35.56343,1.586953,-0.5790744,-0.7742429,-43.41624,-23.31208,30.63317
179.199642658,73.4629300000001,-104.9608,42.36806,1.501915,-0.5265059,-0.8291327,-40.78742,-22.94564,32.66433
179.209501267,95.01715,-107.2221,45.49451,1.388548,-0.4337361,-0.7376029,-40.78742,-22.94564,32.66433
179.219358921,96.8806299999998,-108.6503,49.05009,1.395073,-0.3312401,-0.6711807,-40.78742,-22.94564,32.66433
179.229217529,89.6751800000001,-106.508,56.89687,1.380129,-0.3136524,-0.7470119,-40.78742,-22.94564,32.66433
179.239076138,82.3455,-107.1031,64.9888599999999,1.33088,-0.4100904,-0.7840223,-40.78742,-22.94564,32.66433
179.248934746,79.9851000000002,-104.8418,74.4295300000003,1.290958,-0.4994661,-0.7765403,-36.7248,-21.10533,35.95326
179.261257649,81.4758800000001,-101.3902,86.0771,1.266716,-0.4695686,-0.6623722,-36.7248,-21.10533,35.95326
179.27111578,79.4260600000002,-94.60622,95.0273299999998,1.251796,-0.4181514,-0.6708305,-36.7248,-21.10533,35.95326
179.280974388,77.6246900000002,-88.6553299999998,103.855,1.204952,-0.3646108,-0.6864829,-36.7248,-21.10533,35.95326
179.290832996,72.2206099999999,-84.8467599999998,110.4757,1.160884,-0.3629244,-0.6518174,-36.7248,-21.10533,35.95326
179.300691128,65.0772800000003,-78.9553700000003,115.7477,1.136927,-0.3874091,-0.6363483,-34.49455,-16.69029,37.56079
179.310549736,64.5182299999999,-70.9811699999998,120.9585,1.085673,-0.3897851,-0.6298875,-34.49455,-16.69029,37.56079
179.320408344,67.5619099999999,-61.6977800000002,123.5945,1.085144,-0.3870067,-0.6662756,-34.49455,-16.69029,37.56079
179.330266953,75.9475599999997,-53.78309,127.0888,1.077381,-0.4028163,-0.7113432,-34.49455,-16.69029,37.56079
179.340125084,82.9045499999997,-47.8322,128.9279,1.072683,-0.4169627,-0.7094788,-34.49455,-16.69029,37.56079
179.349983692,88.5571,-41.2267,129.357,1.058572,-0.4600309,-0.7417476,-31.51727,-12.71874,38.78476
179.3598423,98.7440999999998,-34.32367,130.8283,1.028854,-0.4965243,-0.8005735,-31.51727,-12.71874,38.78476
179.369700909,113.7762,-29.44393,133.2191,0.9823581,-0.5096362,-0.8134391,-31.51727,-12.71874,38.78476
179.379559517,127.6901,-25.04027,135.7325,0.9570764,-0.483588,-0.8147756,-31.51727,-12.71874,38.78476
179.389417172,137.1317,-19.98201,138.9816,0.9337981,-0.4005217,-0.7984084,-31.51727,-12.71874,38.78476
179.39927578,139.2437,-12.48389,140.6981,0.9169705,-0.3383668,-0.7938105,-30.79068,-8.303363,39.18375
179.409134388,136.2,-7.42562799999997,140.4529,0.8863483,-0.2772023,-0.7612306,-30.79068,-8.303363,39.18375
179.418992996,128.3113,-2.545896,136.836,0.8709958,-0.2612786,-0.7608774,-30.79068,-8.303363,39.18375
179.428851128,123.4041,2.15531,133.4643,0.8352535,-0.2824624,-0.7456917,-30.79068,-8.303363,39.18375
179.441174507,120.9195,7.630132,129.4183,0.7962247,-0.32889,-0.7067121,-30.79068,-8.303363,39.18375
179.451033115,122.4724,11.61723,127.7631,0.7689486,-0.3182227,-0.652563,-29.34278,-1.404999,37.82473
179.460891724,122.6587,17.86567,126.9049,0.7440978,-0.2614284,-0.6311239,-29.34278,-1.404999,37.82473
179.470749378,118.3106,23.22147,124.3302,0.6992943,-0.1951527,-0.6294468,-29.34278,-1.404999,37.82473
179.480607987,109.8629,27.44661,119.7937,0.6587446,-0.2003794,-0.6298714,-29.34278,-1.404999,37.82473
179.490466595,103.5891,29.64844,116.6673,0.6248869,-0.2341253,-0.5951712,-29.34278,-1.404999,37.82473
179.500325203,100.297,32.0288,113.5408,0.5926305,-0.2528201,-0.5733054,-29.76461,5.20281,36.09443
179.510183334,101.912,35.36129,110.6596,0.5345114,-0.2503794,-0.5638308,-29.76461,5.20281,36.09443
179.520041943,102.7195,37.02755,106.8588,0.4821933,-0.244842,-0.5208689,-29.76461,5.20281,36.09443
179.529900551,100.2349,40.00299,102.8741,0.4259303,-0.2129839,-0.457023,-29.76461,5.20281,36.09443
179.539759159,98.2471799999999,42.7404,99.3185400000001,0.3630123,-0.158455,-0.4307477,-29.76461,5.20281,36.09443
179.549616814,96.1352399999998,46.01339,96.3760000000003,0.3242921,-0.08816071,-0.4099554,-29.80836,11.00865,34.37037
179.559475422,89.1782499999998,47.67965,92.2686999999999,0.2925019,-0.006688586,-0.4092939,-29.80836,11.00865,34.37037
179.56933403,79.1154799999998,47.91768,87.11925,0.2960863,0.04731023,-0.4218277,-29.80836,11.00865,34.37037
179.579192638,63.1516900000001,43.81157,80.1307,0.2858948,0.03943086,-0.4227073,-29.80836,11.00865,34.37037
179.58905077,50.16946,41.13366,71.3643700000002,0.2749155,-0.01966667,-0.4546768,-29.80836,11.00865,34.37037
179.598909378,49.42407,37.62263,62.23023,0.2619073,-0.07804349,-0.4195233,-30.60786,16.12502,30.99273
179.611232757,57.4991399999999,34.88522,50.46006,0.2370238,-0.1150808,-0.3753948,-30.60786,16.12502,30.99273
179.621091366,63.7107300000002,33.33799,42.67458,0.2044455,-0.08797409,-0.336845,-30.60786,16.12502,30.99273
179.63094902,65.4499699999998,30.95763,36.9734,0.1543835,-0.0225524,-0.2910138,-30.60786,16.12502,30.99273
179.640807629,58.1203,28.0417,31.08831,0.1456977,0.02134413,-0.243558,-30.60786,16.12502,30.99273
179.650666237,46.13192,26.19692,26.61319,0.1536134,0.05499122,-0.2433869,-29.8893,18.60266,28.85064
179.660524845,32.96335,22.92393,22.62849,0.1760632,0.0620106,-0.2412516,-29.8893,18.60266,28.85064
179.670383453,19.85689,19.4129,18.5825,0.184377,0.0565779,-0.2821479,-29.8893,18.60266,28.85064
179.680241585,12.58933,15.54482,14.35259,0.1570126,0.05976146,-0.276939,-29.8893,18.60266,28.85064
179.690100193,4.265797,9.71294500000002,7.54795700000002,0.1289606,0.04899588,-0.2267933,-29.8893,18.60266,28.85064
179.699958801,-6.29390900000001,5.90437299999999,-1.095766,0.109028,0.05080656,-0.2159516,-29.91532,21.15653,27.15989
179.709817409,-11.51165,2.988435,-10.29121,0.07530271,0.01292233,-0.2469386,-29.91532,21.15653,27.15989
179.719676018,-11.82222,-0.998663500000001,-18.68973,0.0474263,-0.05882151,-0.2375627,-29.91532,21.15653,27.15989
179.729533672,-10.45567,-4.212146,-24.88133,0.03171426,-0.08178818,-0.2260319,-29.91532,21.15653,27.15989
179.739392281,-8.15738599999999,-6.35446700000003,-29.78557,0.05660017,-0.06791475,-0.2186023,-29.91532,21.15653,27.15989
179.749250889,-9.27547199999997,-7.84219100000002,-34.93502,0.1251837,-0.04970433,-0.1959453,-30.28905,21.16085,27.16182
179.75910902,-13.12666,-9.80598499999999,-38.98102,0.1875219,-0.03507044,-0.2038983,-30.28905,21.16085,27.16182
179.768967628,-21.20173,-12.30536,-42.7205,0.215008,-0.0315193,-0.2301368,-30.28905,21.16085,27.16182
179.781291008,-33.31433,-15.51884,-47.80865,0.2402203,-0.1039689,-0.2747147,-30.28905,21.16085,27.16182
179.791149616,-38.71841,-16.11393,-50.75119,0.292999,-0.2135852,-0.3037064,-30.28905,21.16085,27.16182
179.801007271,-37.28975,-16.59,-53.63243,0.3154309,-0.2302237,-0.2519338,-31.02927,20.43942,27.62132
179.810865879,-38.03514,-17.78018,-58.9044899999997,0.2936366,-0.1484692,-0.1996589,-31.02927,20.43942,27.62132
179.820724487,-43.99827,-18.07773,-67.67082,0.2764031,-0.03126046,-0.1763809,-31.02927,20.43942,27.62132
179.830583096,-58.47128,-19.02987,-77.2340900000002,0.2755633,0.06796312,-0.1865532,-31.02927,20.43942,27.62132
179.840441704,-80.1497299999997,-18.73233,-87.4103900000002,0.3184784,0.0458479,-0.2161034,-31.02927,20.43942,27.62132
179.850299835,-93.25619,-14.32866,-94.0311100000003,0.3798108,-0.001539505,-0.2806318,-32.13369,18.99671,28.85846
179.860158443,-94.0637,-9.38942300000003,-99.3031700000002,0.40092,0.01060327,-0.3364173,-32.13369,18.99671,28.85846
179.870017052,-88.9701899999998,-4.866744,-105.0043,0.4161098,0.08468481,-0.3412798,-32.13369,18.99671,28.85846
179.87987566,-89.2807700000001,-2.367369,-113.4642,0.4547135,0.1527434,-0.32065,-32.13369,18.99671,28.85846
179.889733314,-95.7408200000001,2.274328,-124.9278,0.4953529,0.1992247,-0.3491098,-32.13369,18.99671,28.85846
179.899591923,-100.9586,3.881069,-137.2497,0.4903284,0.2136552,-0.3819811,-31.73026,15.76358,30.5542
179.909450531,-106.7353,4.357141,-150.1846,0.4953213,0.1644164,-0.4179286,-31.73026,15.76358,30.5542
179.919309139,-109.4684,6.43995299999998,-161.0353,0.5026342,0.09723415,-0.4430389,-31.73026,15.76358,30.5542
179.929167271,-104.934,11.20067,-170.7212,0.4873202,0.0351877,-0.4725755,-31.73026,15.76358,30.5542
179.939025879,-96.17564,16.61598,-179.4262,0.4801701,0.007347314,-0.4832509,-31.73026,15.76358,30.5542
179.948884487,-86.36132,24.88772,-186.3534,0.5148109,0.01139946,-0.5225256,-33.18787,10.6446,31.89499
179.961207867,-73.19275,33.87357,-192.6063,0.5441822,0.04508243,-0.5633919,-33.18787,10.6446,31.89499
179.971065521,-67.22962,40.83612,-192.2998,0.5830321,0.07694727,-0.5924287,-33.18787,10.6446,31.89499
179.980924129,-69.2173300000002,46.25143,-189.8477,0.6450441,0.1432402,-0.5788562,-33.18787,10.6446,31.89499
179.990782738,-79.7770400000002,50.23853,-189.6638,0.7395136,0.1849682,-0.5745793,-33.18787,10.6446,31.89499
180.000641346,-95.6787099999998,55.59433,-190.8898,0.8453913,0.1337246,-0.6047935,-34.63698,3.371855,32.80968
180.010499954,-111.891,63.1519699999998,-188.8668,0.9667029,-0.009582929,-0.6963838,-34.63698,3.371855,32.80968
180.020358086,-118.1026,68.7458099999998,-183.227,1.052504,-0.1337558,-0.7920986,-34.63698,3.371855,32.80968
180.030216694,-109.1579,71.8997800000001,-176.361,1.150043,-0.1716793,-0.8838983,-34.63698,3.371855,32.80968
180.040075302,-94.2500499999999,72.7924100000003,-172.9894,1.282861,-0.1542403,-0.9589616,-34.63698,3.371855,32.80968
180.04993391,-82.8828299999999,71.0666599999998,-169.1273,1.369926,-0.1271079,-0.9364927,-36.85518,-3.25207,31.22478
180.059791565,-85.5538200000003,68.2697399999998,-161.4031,1.400013,-0.103286,-0.7541455,-36.85518,-3.25207,31.22478
180.069650173,-107.4186,73.3875000000001,-147.3034,1.420455,-0.08186971,-0.6713547,-36.85518,-3.25207,31.22478
180.079508781,-130.4636,74.28014,-128.4221,1.342879,-0.008259352,-0.8421396,-36.85518,-3.25207,31.22478
180.08936739,-157.484,88.5027800000002,-107.0887,1.376659,0.06766959,-0.9172145,-36.85518,-3.25207,31.22478
180.099225521,-183.9454,87.1340700000003,-86.9199700000002,1.41,0.03798635,-0.8661867,-38.26794,-10.20372,28.80666
180.109084129,-205.3754,88.5622900000001,-71.1037900000001,1.553712,-0.05369941,-0.7405833,-38.26794,-10.20372,28.80666
180.118942738,-214.0716,95.7628600000002,-55.34892,1.729282,-0.1805092,-0.713487,-38.26794,-10.20372,28.80666
180.131266117,-205.4996,114.1511,-36.5289,1.922679,-0.2815481,-0.8632519,-38.26794,-10.20372,28.80666
180.141123772,-172.2055,127.0646,-22.49051,1.898517,-0.3057522,-1.938915,-38.26794,-10.20372,28.80666
180.15098238,-109.22,93.4420199999999,-23.10354,1.783437,-0.5848603,-3.55597,-40.87309,-16.10485,25.93587
180.160840988,6.31562199999998,6.85651600000003,-40.45229,2.161245,-1.221559,-4.502125,-40.87309,-16.10485,25.93587
180.170699596,47.93329,-212.4934,-121.127,2.646952,-1.210028,-0.373459,-40.87309,-16.10485,25.93587
180.180558205,129.7399,51.60723,-88.5138400000001,4.424123,-1.017642,3.905567,-40.87309,-16.10485,25.93587
180.190416336,-61.8876500000001,56.90353,-67.9773399999999,1.857799,-0.06411537,2.248075,-40.87309,-16.10485,25.93587
180.200274944,-90.5230899999998,121.5897,-57.49452,1.099862,-2.004872,-0.1491862,-44.57541,-20.76843,27.28386
180.210133553,-26.35735,57.26058,-31.13423,1.192896,-2.373559,-0.3242186,-44.57541,-20.76843,27.28386
180.219992161,-16.35669,40.30054,-8.88124700000001,2.20411,-1.513516,-0.3237055,-44.57541,-20.76843,27.28386
180.229849815,-6.04544500000002,47.32259,0.0689914200000002,2.034725,-0.8961147,0.1755778,-44.57541,-20.76843,27.28386
180.239708424,-21.69866,51.42871,3.134141,1.541709,-0.9036044,0.2505876,-44.57541,-20.76843,27.28386
180.249567032,-51.51429,42.26433,2.582414,1.245842,-0.5211986,0.02178633,-44.19286,-22.98787,26.85645
180.25942564,-46.97983,33.87357,1.356354,1.324808,-0.3177152,-0.1434249,-44.19286,-22.98787,26.85645
180.269283772,-28.65564,31.79076,3.31805,1.452042,-0.04690922,-0.1180345,-44.19286,-22.98787,26.85645
180.27914238,-15.05225,32.44536,-6.24521700000002,1.347539,0.4700669,-0.07959649,-44.19286,-22.98787,26.85645
180.289000988,-2.753301,37.3846,-13.66288,1.122948,0.4492403,-0.171932,-44.19286,-22.98787,26.85645
180.301324368,20.22959,42.32384,-11.63988,0.9965916,0.2054846,-0.2526937,-44.95023,-24.48657,24.37886
180.311182022,38.98859,45.95389,-11.70118,0.9859647,0.1085411,-0.2562356,-44.95023,-24.48657,24.37886
180.32104063,53.4616,48.7508,-12.74334,0.9853005,0.01954684,-0.239726,-44.95023,-24.48657,24.37886
180.330899239,62.6547599999999,48.6913,-14.39852,0.9526842,-0.01216238,-0.1839416,-44.95023,-24.48657,24.37886
180.340757847,65.2636300000002,46.01339,-14.82764,0.91267,-0.006848516,-0.09994578,-44.95023,-24.48657,24.37886
180.350615978,59.42473,39.28889,-14.0307,0.8894196,0.0663785,0.01744905,-44.58047,-24.87062,23.54852
180.360474587,40.60361,31.85027,-11.14946,0.8694483,0.2236521,0.0904617,-44.58047,-24.87062,23.54852
180.370333195,15.94359,25.12576,-9.92339700000002,0.867582,0.3340825,0.08662827,-44.58047,-24.87062,23.54852
180.380191803,-9.27547199999997,18.22272,-9.18776100000002,0.9083952,0.3400905,0.03530214,-44.58047,-24.87062,23.54852
180.390050411,-27.7239,12.56937,-7.961701,0.9472997,0.2619021,-0.01479055,-44.58047,-24.87062,23.54852
180.399908066,-37.22763,8.82031100000003,-6.24521700000002,1.00025,0.1790519,-0.04355879,-45.71367,-23.76481,22.71082
180.409766674,-37.04129,7.57062300000002,-5.386975,1.043586,0.09895774,-0.09325153,-45.71367,-23.76481,22.71082
180.419625282,-30.33277,6.61847999999998,-5.570884,1.05291,0.02936725,-0.1164941,-45.71367,-23.76481,22.71082
180.429483891,-19.58672,6.97553399999999,-5.93870199999998,1.052822,-0.007139717,-0.1191969,-45.71367,-23.76481,22.71082
180.439342022,-8.28161699999999,6.97553399999999,-6.18391400000002,1.023195,0.02620935,-0.1098676,-45.71367,-23.76481,22.71082
180.44920063,-3.312345,6.02339100000001,-7.226065,0.9954893,0.06249509,-0.1005409,-45.71684,-24.88707,21.44186
180.459059239,0.3524944,5.666337,-6.67433799999998,0.985872,0.07661448,-0.07584554,-45.71684,-24.88707,21.44186
180.468917847,3.209827,4.059596,-5.325672,0.966098,0.1315519,-0.04251452,-45.71684,-24.88707,21.44186
180.481240273,-1.945794,1.084149,-5.93870199999998,0.9410034,0.1522831,-0.03479391,-45.71684,-24.88707,21.44186
180.491098881,-3.250229,-1.117681,-5.754793,0.9529963,0.1479298,-0.05608635,-45.71684,-24.88707,21.44186
180.500957489,-3.188113,-2.426878,-5.509581,0.9808744,0.1481751,-0.05648161,-45.71283,-25.62337,21.4494
180.510816097,-3.933504,-2.843441,-6.12261100000003,0.9929733,0.1277407,-0.08414087,-45.71283,-25.62337,21.4494
180.520674706,-0.1444329,-2.545896,-6.24521700000002,1.0067,0.0795358,-0.1245169,-45.71283,-25.62337,21.4494
180.530532837,7.80640399999998,-1.712771,-5.69349,1.004569,0.0716572,-0.1442002,-45.71283,-25.62337,21.4494
180.540391445,14.76339,-0.939154599999998,-6.00000499999998,1.001579,0.07405684,-0.1460541,-45.71283,-25.62337,21.4494
180.550250054,21.34767,1.500712,-7.226065,1.000968,0.1019819,-0.0945354,-45.71484,-25.25522,21.44563
180.560108662,22.83846,1.500712,-7.164762,0.9712393,0.1279784,-0.09916349,-45.71484,-25.25522,21.44563
180.569966793,21.09921,-1.117681,-6.24521700000002,0.9502535,0.1448941,-0.08051205,-45.71484,-25.25522,21.44563
180.579825401,19.67054,-3.379021,-4.835248,0.9570428,0.141032,-0.0883086,-45.71484,-25.25522,21.44563
180.589684009,18.98727,-5.402325,-3.609189,0.9727729,0.1680449,-0.05907365,-45.71484,-25.25522,21.44563
180.599542618,13.45895,-6.89004799999999,-2.750947,0.9827085,0.1919627,-0.062847,-44.96336,-26.00014,21.44931
180.609400272,7.68217200000001,-8.199244,-1.279675,0.9930049,0.1997369,-0.09024251,-44.96336,-26.00014,21.44931
180.619258881,1.967508,-8.85384299999998,-0.2988266,0.9927335,0.1923361,-0.1166571,-44.96336,-26.00014,21.44931
180.629117489,-1.510983,-8.08022700000001,0.4368094,0.9853923,0.1629765,-0.142677,-44.96336,-26.00014,21.44931
180.638976097,-2.194258,-7.78268199999998,1.908081,0.9714581,0.1461879,-0.1747264,-44.96336,-26.00014,21.44931
180.651298523,-3.250229,-7.42562799999997,3.134141,0.9754869,0.1672492,-0.1477709,-44.95939,-25.62042,22.27772
180.661157131,-5.113706,-5.87839600000002,3.440656,0.9787036,0.1638027,-0.1660555,-44.95939,-25.62042,22.27772
180.671015739,-3.871388,-3.736075,3.685868,0.9894205,0.1444913,-0.1505576,-44.95939,-25.62042,22.27772
180.680874348,-3.99562,-2.724423,4.421504,0.9886205,0.1119575,-0.1302152,-44.95939,-25.62042,22.27772
180.690732479,-4.181968,-2.605405,5.77016999999999,1.007039,0.1179321,-0.1376153,-44.95939,-25.62042,22.27772
180.700591087,-2.629069,-2.545896,6.26059400000001,1.013042,0.1330219,-0.1505118,-44.20992,-25.9972,22.27762
180.710449696,-0.889823900000002,-2.545896,7.36404799999998,1.008755,0.1403394,-0.1355338,-44.20992,-25.9972,22.27762
180.720308304,0.2282626,-2.248351,8.09968399999998,0.9967965,0.1412847,-0.1147498,-44.20992,-25.9972,22.27762
180.730166912,0.725189899999998,-3.736075,8.71271399999999,0.9676327,0.136196,-0.1052723,-44.20992,-25.9972,22.27762
180.740025043,2.526551,-5.461833,8.528805,0.969844,0.1115215,-0.07244731,-44.20992,-25.9972,22.27762
180.749883652,5.13542,-6.77103000000002,8.590108,0.9731339,0.07063762,-0.08242323,-44.58767,-25.25659,22.27201
180.75974226,7.55793999999999,-9.44893200000001,9.14183399999998,0.9710118,0.0730143,-0.09243611,-44.58767,-25.25659,22.27201
180.769600868,8.86237499999997,-12.95996,10.00008,0.9942659,0.06450462,-0.08085937,-44.58767,-25.25659,22.27201
180.779458523,10.29104,-15.39983,10.4905,1.021914,0.06384306,-0.06304944,-44.58767,-25.25659,22.27201
180.789317131,12.34087,-19.56545,10.67441,1.037324,0.04318859,-0.02750341,-44.58767,-25.25659,22.27201
180.799175739,15.75724,-23.55255,12.02308,1.056197,0.0575929,0.005893122,-44.95939,-25.62042,22.27772
180.809034347,17.18591,-27.18259,12.69741,1.084313,0.07241763,-0.0001328792,-44.95939,-25.62042,22.27772
180.818892956,17.31014,-31.2292,13.73956,1.128648,0.06690169,-0.0185417,-44.95939,-25.62042,22.27772
180.831215382,18.61457,-35.51385,14.84301,1.178189,0.002578223,-0.02985382,-44.95939,-25.62042,22.27772
180.84107399,24.14289,-39.56045,15.14953,1.188027,-0.06735402,-0.01572904,-44.95023,-24.48657,24.37886
180.850932598,28.92582,-43.96412,14.29129,1.2352,-0.09310707,0.01261246,-44.95023,-24.48657,24.37886
180.860791206,30.35448,-46.16594,12.75871,1.297159,-0.09539878,0.03375322,-44.95023,-24.48657,24.37886
180.870649338,33.1497,-47.47514,12.5748,1.312867,-0.1363911,-0.03438373,-44.95023,-24.48657,24.37886
180.880507946,37.31147,-51.28371,12.26829,1.282706,-0.1541878,-0.03745845,-44.95023,-24.48657,24.37886
180.890366554,34.45413,-54.97327,12.88132,1.255232,-0.1714058,-0.022357,-44.95023,-24.48657,24.37886
180.900225162,28.98793,-56.69903,15.14953,1.275507,-0.1058787,0.01528459,-44.19281,-24.10389,26.03559
180.910083294,16.68898,-59.8530000000002,16.4982,1.270656,-0.1022749,-0.05026618,-44.19281,-24.10389,26.03559
180.919941902,3.582522,-63.2450100000001,20.29898,1.266929,-0.1109619,-0.1518766,-44.19281,-24.10389,26.03559
180.92980051,-13.31301,-67.2916200000002,29.18792,1.285858,-0.0965941,-0.2579283,-44.19281,-24.10389,26.03559
180.939659119,-31.69932,-67.76768,37.21861,1.279719,-0.07844052,-0.3334011,-44.19281,-24.10389,26.03559
180.949516773,-46.54502,-65.0897799999997,41.38721,1.277028,-0.1539367,-0.3459798,-44.19411,-22.24623,27.23299
180.959375381,-55.73817,-63.42353,44.69757,1.312218,-0.3308904,-0.2530933,-44.19411,-22.24623,27.23299
180.96923399,-53.62624,-54.4972,48.00793,1.262262,-0.3563839,-0.3153715,-44.19411,-22.24623,27.23299
180.979092598,-39.65015,-45.80889,47.2723,1.137133,-0.4581431,-0.6834306,-44.19411,-22.24623,27.23299
180.988951206,-2.691185,-45.57085,47.57882,1.098795,-0.7387223,-0.7997807,-44.19411,-22.24623,27.23299
181.001273632,46.93943,-44.73773,56.16124,1.35317,-0.9625274,-0.3529307,-42.694,-21.50938,28.498
181.01113224,73.5250500000002,-33.72858,66.5214400000002,1.45129,-0.9345098,-0.3799694,-42.694,-21.50938,28.498
181.020990849,105.5769,-22.12433,74.91994,1.377663,-0.779674,-0.4408677,-42.694,-21.50938,28.498
181.030849457,131.0444,-17.18509,77.73988,1.316683,-0.7075571,-0.4005748,-42.694,-21.50938,28.498
181.040707588,130.2369,-11.47224,80.37592,1.407662,-0.5700504,-0.2809111,-41.57561,-20.41165,28.92899
181.050566196,111.1052,-6.23544999999998,88.52921,1.416147,-0.4378069,-0.3316695,-41.57561,-20.41165,28.92899
181.060424805,82.7181999999998,-3.379021,96.1920899999999,1.415262,-0.4292713,-0.3890888,-41.57561,-20.41165,28.92899
181.070283413,56.81586,-7.42562799999997,105.7554,1.410891,-0.4226013,-0.4167638,-41.57561,-20.41165,28.92899
181.080141544,33.95721,-9.92500399999998,116.3608,1.427921,-0.4079641,-0.4465933,-41.57561,-20.41165,28.92899
181.090000153,17.68283,-12.30536,127.0888,1.41016,-0.3778101,-0.5385712,-41.97311,-16.05092,28.8863
181.099858761,10.41527,-16.41148,134.8743,1.388457,-0.4044158,-0.5749056,-41.97311,-16.05092,28.8863
181.109717369,6.99889700000002,-18.97036,141.1885,1.419852,-0.5014888,-0.5824019,-41.97311,-16.05092,28.8863
181.119575977,10.22893,-18.31576,148.4223,1.423315,-0.5783169,-0.5754324,-41.97311,-16.05092,28.8863
181.129433632,20.6644,-16.53049,155.1043,1.370712,-0.5762783,-0.5564559,-41.97311,-16.05092,28.8863
181.13929224,32.15585,-12.72192,158.1081,1.316451,-0.5153669,-0.5355214,-41.97311,-16.05092,28.8863
181.149150848,40.23092,-8.43728100000002,156.6982,1.266496,-0.474461,-0.5392561,-41.26371,-11.29679,27.16906
