Time (s),Gyroscope X (deg/s),Gyroscope Y (deg/s),Gyroscope Z (deg/s),Accelerometer X (g),Accelerometer Y (g),Accelerometer Z (g),Magnetometer X (uT),Magnetometer Y (uT),Magnetometer Z (uT)
97.790623188,-0.4333048,-2.887662,-0.2077667,1.007035,-0.08031933,-0.06117881,-26.2946,-25.01279,28.38326
97.800481796,0.3120862,-2.530608,-0.2077667,1.006447,-0.08132836,-0.06932534,-26.2946,-25.01279,28.38326
97.810339451,0.933245400000001,-2.590117,-0.1464637,0.9990552,-0.07896747,-0.07111686,-26.2946,-25.01279,28.38326
97.820197582,1.554404,-2.411591,-0.3303727,1.002183,-0.08035123,-0.05823474,-26.2946,-25.01279,28.38326
97.83005619,1.554404,-2.233064,-0.2690697,1.006859,-0.07158136,-0.06637376,-26.2946,-25.01279,28.38326
97.839913845,1.864984,-2.054537,-0.4529787,1.00636,-0.07402969,-0.0692625,-26.2946,-25.01279,28.38326
97.849771976,1.9271,-1.756992,-0.3916757,1.004483,-0.07304775,-0.06251868,-26.2946,-25.01279,28.38326
97.859630585,1.740752,-1.756992,-0.3916757,1.007484,-0.07642055,-0.06067311,-26.2946,-25.01279,28.38326
97.869488716,2.051332,-1.637974,-0.3916757,1.001547,-0.07405045,-0.06344369,-26.2946,-25.01279,28.38326
97.879346371,2.361911,-1.518956,-0.3916757,1.002095,-0.07793505,-0.0625259,-26.29184,-25.00745,28.76734
97.89166975,2.796723,-1.280921,-0.3916757,1.003024,-0.076476,-0.06492281,-26.29184,-25.00745,28.76734
97.901527405,3.045186,-1.221412,-0.4529787,1.000104,-0.07503281,-0.06247303,-26.29184,-25.00745,28.76734
97.911385536,3.479998,-1.042885,-0.636887700000001,1.000562,-0.07845497,-0.06777962,-26.29184,-25.00745,28.76734
97.921244144,3.976925,-0.804849199999997,-0.5755847,1.000578,-0.08089158,-0.06875882,-26.29184,-25.00745,28.76734
97.931102276,4.473852,-0.7453403,-0.3303727,0.9990855,-0.08042348,-0.07017118,-25.54116,-25.00984,29.21157
97.94095993,5.032896,-0.626322399999998,-0.3916757,1.005396,-0.07305771,-0.06732377,-25.54116,-25.00984,29.21157
97.950818539,5.281359,-0.5073045,-0.5755847,1.002031,-0.07307113,-0.06296313,-25.54116,-25.00984,29.21157
97.96067667,5.095011,-0.5668135,-0.4529787,0.9966324,-0.07263562,-0.0638409,-25.54116,-25.00984,29.21157
97.970534325,5.157127,-0.2692688,-0.5142817,0.9985938,-0.07359341,-0.06435614,-25.54116,-25.00984,29.21157
97.980392933,5.032896,-0.2097598,-0.3916757,1.003011,-0.07208566,-0.06201037,-25.91213,-25.00018,29.59759
97.990251064,5.219243,-0.2692688,-0.4529787,0.9991276,-0.07406455,-0.06149253,-25.91213,-25.00018,29.59759
98.000109673,5.095011,-0.2097598,-0.3303727,0.9961115,-0.07216077,-0.06574627,-25.91213,-25.00018,29.59759
98.009967804,4.598084,-0.2692688,-0.4529787,1.001047,-0.06429348,-0.05568702,-25.91213,-25.00018,29.59759
98.019825459,3.914809,-0.2692688,-0.3916757,0.9986843,-0.06966179,-0.05426106,-25.91213,-25.00018,29.59759
98.029684067,3.29365,-0.2692688,-0.636887700000001,0.9966614,-0.06628039,-0.05612049,-25.53472,-25.67944,29.60257
98.039542198,2.796723,-0.4477956,-0.698190700000002,1.002587,-0.07207139,-0.05721222,-25.53472,-25.67944,29.60257
98.049399853,2.486143,-0.5073045,-0.4529787,1.003473,-0.06818315,-0.06054643,-25.53472,-25.67944,29.60257
98.061722755,2.175564,-0.5073045,-0.4529787,1.001224,-0.07205459,-0.04952545,-25.53472,-25.67944,29.60257
98.071581364,1.678636,-1.042885,-0.5755847,0.9996392,-0.07210093,-0.05812886,-25.53472,-25.67944,29.60257
98.081439018,1.305941,-0.923867000000003,-0.3916757,1.002449,-0.06429914,-0.06049905,-26.28787,-24.62772,29.59575
98.09129715,0.7468976,-1.102394,-0.5755847,1.003071,-0.06669801,-0.05286098,-26.28787,-24.62772,29.59575
98.101155758,0.1878543,-1.042885,-0.4529787,0.995762,-0.07017234,-0.05374452,-26.28787,-24.62772,29.59575
98.111013889,-0.2469571,-1.34043,-0.5142817,1.005942,-0.07010794,-0.06059786,-26.28787,-24.62772,29.59575
98.120871544,-0.3711889,-1.280921,-0.5142817,1.000534,-0.07113958,-0.06340469,-26.28787,-24.62772,29.59575
98.130730152,-0.4954207,-1.34043,-0.636887700000001,1.003548,-0.07011461,-0.05673021,-25.91414,-24.63203,29.59381
98.140588284,-0.619652599999999,-1.518956,-0.5142817,1.00291,-0.07016162,-0.06774309,-25.91414,-24.63203,29.59381
98.150446892,-0.5575366,-1.578465,-0.5142817,0.998562,-0.0687202,-0.06239777,-25.91414,-24.63203,29.59381
98.160304546,-0.806000300000003,-1.697483,-0.5755847,0.9980931,-0.07262456,-0.06434083,-25.91414,-24.63203,29.59381
98.170162678,-1.054464,-1.756992,-0.5142817,0.9990171,-0.065308,-0.06189625,-25.91414,-24.63203,29.59381
98.180021286,-1.240812,-1.637974,-0.5755847,0.9975889,-0.06970382,-0.0628714,-26.28816,-25.68238,28.77425
98.189878941,-1.551391,-1.935519,-0.698190700000002,1.001477,-0.06430589,-0.06000606,-26.28816,-25.68238,28.77425
98.199737072,-2.048319,-1.816501,-0.759493700000002,1.001425,-0.06432074,-0.06383904,-26.28816,-25.68238,28.77425
98.20959568,-2.48313,-1.87601,-0.698190700000002,1.001942,-0.07163182,-0.06822091,-26.28816,-25.68238,28.77425
98.219453812,-2.17255,-2.054537,-0.759493700000002,1.000473,-0.07262161,-0.06916672,-26.28816,-25.68238,28.77425
98.231776238,-2.296782,-1.816501,-0.698190700000002,1.002825,-0.0657917,-0.070101,-25.91213,-25.00018,29.59759
98.241634846,-2.17255,-1.816501,-0.636887700000001,1.005776,-0.06771404,-0.07063848,-25.91213,-25.00018,29.59759
98.251492977,-2.110435,-1.87601,-0.698190700000002,1.001465,-0.07260928,-0.06822234,-25.91213,-25.00018,29.59759
98.261350632,-2.110435,-1.756992,-0.5755847,1.001067,-0.07209916,-0.06102439,-25.91213,-25.00018,29.59759
98.27120924,-2.358898,-1.816501,-0.5142817,1.000931,-0.06774409,-0.06721528,-25.91213,-25.00018,29.59759
98.281067371,-2.669478,-1.756992,-0.636887700000001,0.999415,-0.06972374,-0.07248158,-25.54438,-25.01608,28.76347
98.290925026,-3.104289,-1.995028,-0.820796699999998,1.001399,-0.06432816,-0.06575552,-25.54438,-25.01608,28.76347
98.300783634,-3.476985,-1.637974,-0.820796699999998,1.005756,-0.06771961,-0.07207584,-25.54438,-25.01608,28.76347
98.310641766,-3.290637,-1.578465,-0.5755847,1.008669,-0.06965309,-0.07548807,-25.54438,-25.01608,28.76347
98.320499897,-3.042173,-1.578465,-0.636887700000001,1.008685,-0.07160127,-0.07598394,-25.54438,-25.01608,28.76347
98.330358505,-2.669478,-1.518956,-0.5142817,1.002885,-0.07358623,-0.07256363,-25.91012,-25.36833,29.60136
98.34021616,-2.17255,-1.34043,-0.636887700000001,1.000824,-0.07363316,-0.08020185,-25.91012,-25.36833,29.60136
98.350074291,-1.924087,-1.280921,-0.636887700000001,0.996029,-0.07511366,-0.0743956,-25.91012,-25.36833,29.60136
98.3599329,-1.427159,-1.280921,-0.5755847,1.003961,-0.07354977,-0.06539066,-25.91012,-25.36833,29.60136
98.369790554,-1.11658,-1.161903,-0.5142817,1.004298,-0.06626536,-0.07012599,-25.91012,-25.36833,29.60136
98.379648686,-1.054464,-1.102394,-0.3303727,1.002326,-0.06824004,-0.07298975,-25.91213,-25.00018,29.59759
98.389507294,-1.178696,-0.923867000000003,-0.4529787,1.00227,-0.07069706,-0.07923926,-25.91213,-25.00018,29.59759
98.399365425,-1.178696,-1.042885,-0.2690697,1.003731,-0.06580351,-0.07538521,-25.91213,-25.00018,29.59759
98.411687851,-0.992348000000001,-0.804849199999997,-0.3303727,1.002277,-0.06581271,-0.07440616,-25.91213,-25.00018,29.59759
98.421546459,-0.930232099999998,-0.626322399999998,-0.2690697,1.000379,-0.07020728,-0.073937,-25.91213,-25.00018,29.59759
98.431404114,-0.930232099999998,-0.5073045,-0.3303727,1.001383,-0.06628563,-0.06864702,-26.28385,-25.36401,29.60329
98.441262245,-0.930232099999998,-0.3882866,-0.2690697,0.9989555,-0.07167251,-0.07201228,-26.28385,-25.36401,29.60329
98.451120854,-0.930232099999998,-0.1502509,-0.2690697,1.000851,-0.06434918,-0.07006069,-26.28385,-25.36401,29.60329
98.460978985,-1.11658,-0.0907419500000001,-0.1464637,1.003262,-0.06580225,-0.07394091,-26.28385,-25.36401,29.60329
98.47083664,-1.240812,-0.0907419500000001,-0.08516069,1.001261,-0.06973809,-0.08065439,-26.28385,-25.36401,29.60329
98.480695248,-1.11658,0.1472938,-0.1464637,1.003204,-0.06533053,-0.0777697,-25.54438,-25.01608,28.76347
98.490553379,-0.8681162,0.2663116,-0.02385769,1.00338,-0.07797413,-0.07596212,-25.54438,-25.01608,28.76347
98.500411034,-0.7438844,0.3853295,0.0374453,0.9988239,-0.06829245,-0.07869066,-25.54438,-25.01608,28.76347
98.510269642,-0.2469571,0.3853295,-0.08516069,0.9998759,-0.06679811,-0.07198425,-25.54438,-25.01608,28.76347
98.520127773,-0.309073,0.5043474,0.0374453,0.9993528,-0.06778856,-0.07533956,-25.54438,-25.01608,28.76347
98.529986382,-0.4333048,0.742383099999999,0.2213543,0.9978494,-0.06585888,-0.07626024,-25.5384,-25.0045,29.59565
98.539844513,-0.0606093299999997,0.682874099999999,0.1600513,1.001321,-0.06825607,-0.07489236,-25.5384,-25.0045,29.59565
98.549702168,-0.309073,0.742383099999999,0.0987483000000002,1.00129,-0.06777692,-0.07680465,-25.5384,-25.0045,29.59565
98.559560776,-0.1227252,0.861401000000002,0.2213543,1.004778,-0.06772822,-0.07206198,-25.5384,-25.0045,29.59565
98.569418907,0.001506584,0.920909899999998,0.0987483000000002,1.005701,-0.06578258,-0.07445471,-25.5384,-25.0045,29.59565
98.581741333,0.0636224999999999,0.861401000000002,0.2213543,1.001732,-0.06387999,-0.07677808,-25.53748,-25.68478,29.21848
98.591599464,0.0636224999999999,1.158946,0.2826573,1.003747,-0.06824012,-0.0763644,-25.53748,-25.68478,29.21848
98.601458073,0.436318,1.099437,0.4665663,0.9993774,-0.06875801,-0.07438969,-25.53748,-25.68478,29.21848
98.611315727,0.809013499999997,1.218455,0.4052633,1.000914,-0.07018998,-0.07059008,-25.53748,-25.68478,29.21848
98.621174335,1.181709,1.45649,0.5278693,1.002753,-0.06630056,-0.07585466,-25.53748,-25.68478,29.21848
98.631032467,1.430173,1.45649,0.5278693,0.9985077,-0.07020035,-0.06768068,-25.91489,-25.00553,29.2135
98.640890121,1.430173,1.635017,0.650475300000002,1.000931,-0.07164972,-0.07060265,-25.91489,-25.00553,29.2135
98.65074873,1.430173,1.515999,0.589172199999998,1.005334,-0.07112253,-0.07018175,-25.91489,-25.00553,29.2135
98.660606861,1.368057,1.635017,0.589172199999998,0.9993557,-0.06583483,-0.07340632,-25.91489,-25.00553,29.2135
98.670464992,1.181709,1.813544,0.4665663,1.003756,-0.07116701,-0.07830601,-25.91489,-25.00553,29.2135
98.680323601,1.181709,1.754035,0.5278693,1.000432,-0.07019242,-0.07010403,-25.5384,-25.0045,29.59565
98.690181255,1.492289,1.754035,0.7117782,1.000374,-0.07411476,-0.07780349,-25.5384,-25.0045,29.59565
98.700039387,1.61652,1.992071,0.4665663,1.000008,-0.07457222,-0.06917655,-25.5384,-25.0045,29.59565
98.709897995,1.740752,1.873053,0.589172199999998,1.00189,-0.06725261,-0.06818321,-25.5384,-25.0045,29.59565
98.71975565,1.554404,1.932562,0.5278693,1.00139,-0.06579532,-0.06768458,-25.5384,-25.0045,29.59565
98.729613781,1.305941,1.754035,0.5278693,1.005351,-0.06867665,-0.06680694,-25.91322,-25.31232,29.21664
98.739472389,1.243825,1.754035,0.589172199999998,1.001979,-0.07308599,-0.0667961,-25.91322,-25.31232,29.21664
98.751794815,1.492289,2.05158,0.650475300000002,0.9969413,-0.06682394,-0.07194265,-25.91322,-25.31232,29.21664
98.761652946,1.430173,1.992071,0.4052633,1.007249,-0.06428208,-0.06727611,-25.91322,-25.31232,29.21664
98.771511555,1.368057,2.170598,0.5278693,1.00339,-0.07162448,-0.06967907,-25.91322,-25.31232,29.21664
98.781369686,1.61652,2.170598,0.4052633,0.9990387,-0.07262524,-0.0667503,-25.91288,-25.37368,29.21727
98.791227341,1.864984,2.230106,0.7117782,1.001975,-0.0711341,-0.06534198,-25.91288,-25.37368,29.21727
98.801085949,1.864984,2.349124,0.650475300000002,1.00294,-0.07161765,-0.06679741,-25.91288,-25.37368,29.21727
98.81094408,1.9271,2.349124,0.650475300000002,1.007369,-0.07059461,-0.06397671,-25.91288,-25.37368,29.21727
98.820801735,1.678636,2.468142,0.5278693,1.001495,-0.06967124,-0.06340599,-25.91288,-25.37368,29.21727
98.830660343,1.554404,2.289615,0.650475300000002,1.000576,-0.0691747,-0.05859671,-25.90891,-24.99394,30.04568
98.840518475,1.678636,2.349124,0.4052633,1.004445,-0.07257047,-0.0649101,-25.90891,-24.99394,30.04568
98.850377083,1.61652,2.289615,0.7117782,1.003019,-0.07110693,-0.06056463,-25.90891,-24.99394,30.04568
98.860234737,1.678636,2.408633,0.3439603,1.001137,-0.07354404,-0.05720398,-25.90891,-24.99394,30.04568
98.870092869,1.802868,2.349124,0.589172199999998,0.9962416,-0.07651769,-0.0600345,-25.90891,-24.99394,30.04568
98.879951477,1.802868,2.230106,0.650475300000002,0.9956325,-0.0741151,-0.06671433,-26.28661,-25.36936,29.2192
98.889809608,1.989216,2.408633,0.7117782,1.000615,-0.07355762,-0.05959266,-26.28661,-25.36936,29.2192
98.899667263,2.113448,2.289615,0.589172199999998,1.003019,-0.07110693,-0.06056463,-26.28661,-25.36936,29.2192
98.909525871,1.9271,2.170598,0.5278693,1.003589,-0.07352065,-0.05675953,-26.28661,-25.36936,29.2192
98.919384003,1.740752,2.408633,0.589172199999998,1.003545,-0.07255679,-0.05914676,-26.28661,-25.36936,29.2192
98.931706429,1.9271,2.289615,0.650475300000002,0.9993055,-0.07694317,-0.05097697,-25.91213,-25.00018,29.59759
98.941565037,2.175564,2.468142,0.7117782,0.9987696,-0.07354327,-0.05141984,-25.91213,-25.00018,29.59759
98.951423168,2.237679,2.527651,0.7117782,1.005023,-0.06961141,-0.05578858,-25.91213,-25.00018,29.59759
98.961280823,2.175564,2.408633,0.834384299999999,1.000598,-0.06770383,-0.05570941,-25.91213,-25.00018,29.59759
98.971139431,2.051332,2.408633,0.834384299999999,0.9992601,-0.07256211,-0.05046014,-25.91213,-25.00018,29.59759
98.980997562,1.989216,2.289615,0.895687200000003,0.9996211,-0.07112963,-0.0585996,-26.28586,-24.99586,29.59952
98.990855694,1.989216,2.527651,0.895687200000003,1.002654,-0.07498159,-0.05484173,-26.28586,-24.99586,29.59952
99.000714302,2.051332,2.289615,1.018293,1.001688,-0.0754749,-0.05435293,-26.28586,-24.99586,29.59952
99.010571957,1.802868,2.289615,0.956990100000001,1.004059,-0.06863943,-0.05384984,-26.28586,-24.99586,29.59952
99.020430088,1.989216,2.170598,0.895687200000003,1.002712,-0.06666518,-0.04327159,-26.28586,-24.99586,29.59952
99.030288696,1.305941,2.349124,1.079596,0.9992673,-0.06767776,-0.04562704,-26.29063,-24.63306,29.21167
99.040146351,0.933245400000001,2.230106,0.956990100000001,0.996283,-0.06625313,-0.04796848,-26.29063,-24.63306,29.21167
99.050004959,0.436318,2.111089,0.895687200000003,0.9992138,-0.06866948,-0.05042664,-26.29063,-24.63306,29.21167
99.059863091,0.3120862,1.992071,1.079596,1.00074,-0.07693953,-0.05339339,-26.29063,-24.63306,29.21167
99.069721222,0.5605499,1.813544,1.324808,1.000817,-0.07350006,-0.04473986,-26.29063,-24.63306,29.21167
99.07957983,0.684781700000003,1.575508,1.508717,1.002744,-0.0715384,-0.04522997,-25.92212,-24.27547,28.75787
99.089437485,0.5605499,1.277964,1.386111,1.000418,-0.07006118,-0.03512116,-25.92212,-24.27547,28.75787
99.101759911,0.4984339,0.801892000000002,1.508717,0.9959689,-0.06669573,-0.03550855,-25.92212,-24.27547,28.75787
99.111618519,0.0636224999999999,0.682874099999999,1.692626,0.9968243,-0.06183991,-0.04027176,-25.92212,-24.27547,28.75787
99.12147665,-0.0606093299999997,0.3853295,1.753929,0.9973609,-0.06914543,-0.04321626,-25.92212,-24.27547,28.75787
99.131334782,-0.309073,0.0877848699999997,1.815232,0.9934649,-0.07112803,-0.04365666,-27.03809,-24.62443,29.21553
99.14119339,-0.1227252,-0.2692688,2.18305,0.9904479,-0.06971269,-0.04839371,-27.03809,-24.62443,29.21553
99.151051044,-0.1227252,-0.626322399999998,2.366959,0.9954464,-0.07159182,-0.04225121,-27.03809,-24.62443,29.21553
99.160909176,0.0636224999999999,-0.923867000000003,2.734777,0.9945992,-0.07546892,-0.03604227,-27.03809,-24.62443,29.21553
99.170767784,0.2499703,-1.399938,2.612171,0.9975055,-0.07691582,-0.0394503,-27.03809,-24.62443,29.21553
99.180625439,0.933245400000001,-1.697483,2.612171,0.9975178,-0.07300649,-0.03510468,-26.29184,-25.00745,28.76734
99.19048357,1.802868,-2.233064,2.673474,0.990669,-0.08283174,-0.04371559,-26.29184,-25.00745,28.76734
99.200342178,2.237679,-2.768644,2.979989,0.9872217,-0.07700992,-0.04026292,-26.29184,-25.00745,28.76734
99.21020031,2.424027,-3.125698,3.041292,0.9966648,-0.076397,-0.02889155,-26.29184,-25.00745,28.76734
99.220058918,1.430173,-3.423242,3.225201,1.001431,-0.06857799,-0.03128948,-26.29184,-25.00745,28.76734
99.229916573,0.5605499,-3.601769,3.286504,1.007165,-0.06758846,-0.04046764,-26.66436,-24.62875,29.2136
99.239774704,-0.5575366,-4.018332,3.531716,1.013108,-0.06556264,-0.03334727,-26.66436,-24.62875,29.2136
99.249633312,-1.675623,-4.07784,3.654322,1.014959,-0.066552,-0.04200758,-26.66436,-24.62875,29.2136
99.259490967,-2.669478,-4.196858,3.899534,1.006222,-0.06563404,-0.03612492,-26.66436,-24.62875,29.2136
99.269349098,-3.539101,-4.256367,3.899534,1.005364,-0.07634924,-0.03668233,-26.66436,-24.62875,29.2136
99.281672478,-4.036028,-4.375385,4.267352,1.011648,-0.07826744,-0.04397606,-26.29063,-24.63306,29.21167
99.291530132,-3.228521,-4.732439,4.389958,1.016575,-0.09774324,-0.05858663,-26.29063,-24.63306,29.21167
99.301388264,-0.806000300000003,-5.029984,4.819079,1.006919,-0.1090225,-0.05902341,-26.29063,-24.63306,29.21167
99.311246872,1.740752,-5.506055,5.370806,1.005371,-0.09782925,-0.05507328,-26.29063,-24.63306,29.21167
99.321104527,2.548259,-5.625073,5.002988,0.9961138,-0.1003421,-0.05448335,-26.29063,-24.63306,29.21167
99.330962658,2.796723,-5.74409100000002,4.880382,0.9905915,-0.09554776,-0.06059377,-26.28787,-24.62772,29.59575
99.340821266,3.355766,-6.16065299999999,4.941685,0.9890332,-0.08679855,-0.05953933,-26.28787,-24.62772,29.59575
99.350679398,3.479998,-6.517707,5.2482,0.9911017,-0.08577289,-0.05045536,-26.28787,-24.62772,29.59575
99.360537052,2.920954,-6.45819800000001,5.493412,0.9968126,-0.06965487,-0.04800474,-26.28787,-24.62772,29.59575
99.37039566,1.554404,-6.63672399999999,5.554715,1.003056,-0.07207265,-0.05865652,-26.28787,-24.62772,29.59575
99.380253792,-0.2469571,-6.696234,5.98383599999998,1.007891,-0.07497507,-0.06545871,-26.66636,-24.2606,29.20982
99.3901124,-1.302927,-6.815251,5.79992699999999,1.00159,-0.08868493,-0.0731518,-26.66636,-24.2606,29.20982
99.399970055,-1.11658,-6.63672399999999,6.04513899999997,0.9982489,-0.1033384,-0.07993664,-26.66636,-24.2606,29.20982
99.409828186,-0.4954207,-6.45819800000001,5.92253299999998,0.9947803,-0.1116812,-0.09049999,-26.66636,-24.2606,29.20982
99.419686794,0.1878543,-6.10114400000001,5.616018,0.9859767,-0.1117587,-0.09037517,-26.66636,-24.2606,29.20982
99.429544926,1.430173,-5.922617,5.493412,0.9801308,-0.1093626,-0.08643804,-26.6636,-24.25525,29.59391
99.43940258,1.430173,-5.387037,4.819079,0.9820894,-0.1078801,-0.08501584,-26.6636,-24.25525,29.59391
99.45172596,1.181709,-4.256367,3.593019,0.9963561,-0.1131021,-0.08382565,-26.6636,-24.25525,29.59391
99.461584091,0.3120862,-3.066189,2.673474,1.019616,-0.1095395,-0.09706548,-26.6636,-24.25525,29.59391
99.471441746,-0.4954207,-1.935519,2.428262,1.023256,-0.100795,-0.1095027,-26.6636,-24.25525,29.59391
99.481300354,-1.240812,-0.804849199999997,1.999141,1.016418,-0.09450555,-0.1031226,-26.28987,-24.25957,29.59198
99.491158486,-2.421014,0.5043474,1.692626,1.000242,-0.08831093,-0.09996459,-26.28987,-24.25957,29.59198
99.50101614,-3.84968,0.682874099999999,1.140899,0.9875745,-0.0947558,-0.1017552,-26.28987,-24.25957,29.59198
99.510874748,-6.70701299999998,0.5638563,-0.820796699999998,1.00559,-0.09923141,-0.04023306,-26.28987,-24.25957,29.59198
99.52073288,-8.63260600000002,4.074883,-1.740342,1.01213,-0.09961191,-0.02739109,-26.28987,-24.25957,29.59198
99.530591488,-9.93703900000001,3.836848,-1.556433,0.974094,-0.1040916,-0.09397471,-26.2959,-23.15513,29.58067
99.540449619,-9.37799599999999,0.980418899999998,-1.004706,0.9910362,-0.1121558,-0.07847065,-26.2959,-23.15513,29.58067
99.550307274,-8.818954,0.5638563,-0.636887700000001,0.9942067,-0.09351004,-0.04481452,-26.2959,-23.15513,29.58067
99.560165882,-9.62645999999998,-0.1502509,-1.311221,0.98662,-0.09999298,-0.06872108,-26.2959,-23.15513,29.58067
99.570024013,-8.57049000000001,-1.042885,-1.862948,0.9759429,-0.1274048,-0.08653062,-26.2959,-23.15513,29.58067
99.579881668,-6.83124400000003,-2.649626,-2.292068,0.9889184,-0.153448,-0.05482898,-26.6636,-24.25525,29.59391
99.589740276,-2.421014,-3.720787,-2.598583,0.996274,-0.1709541,-0.06897834,-26.6636,-24.25525,29.59391
99.599598408,3.542114,-5.149001,-2.782493,1.003657,-0.165994,-0.06137451,-26.6636,-24.25525,29.59391
99.609456062,9.31889399999997,-5.387037,-2.721189,1.003493,-0.140653,-0.05109512,-26.6636,-24.25525,29.59391
99.621779442,13.17008,-3.899314,-3.579432,1.0066,-0.1096019,-0.08298371,-26.6636,-24.25525,29.59391
99.631637573,13.48066,-3.839805,-3.702038,0.9998626,-0.08877212,-0.09229589,-26.6636,-24.25525,29.59391
99.641495228,11.6793,-4.732439,-3.824643,0.9840085,-0.08053278,-0.06372763,-26.6636,-24.25525,29.59391
99.651353836,9.62947399999998,-5.74409100000002,-4.437674,0.9761242,-0.09317716,-0.04311639,-26.6636,-24.25525,29.59391
99.661211967,7.89022700000002,-6.27967100000001,-5.541127,0.9782186,-0.1009322,-0.03985729,-26.6636,-24.25525,29.59391
99.671070099,5.90251800000002,-6.45819800000001,-6.64458099999998,0.9844944,-0.1000585,-0.08115052,-26.6636,-24.25525,29.59391
99.680928707,5.095011,-6.57721599999998,-6.399369,0.9933661,-0.094238,-0.1071046,-26.27987,-24.98428,30.4317
99.690786362,3.976925,-7.64837600000001,-6.21546000000001,0.9834846,-0.08640574,-0.07143692,-26.27987,-24.98428,30.4317
99.70064497,-0.681768500000002,-9.1361,-7.870641,0.9727035,-0.0862361,-0.00083951,-26.27987,-24.98428,30.4317
99.710503101,-5.340462,-9.79069800000001,-8.91279199999997,0.9801627,-0.1004303,-0.04035997,-26.27987,-24.98428,30.4317
99.720360756,-8.13567799999999,-10.68333,-9.46452000000002,0.979946,-0.08123331,-0.1111164,-26.27987,-24.98428,30.4317
99.730219364,-10.12339,-11.63547,-9.77103400000002,0.9900761,-0.06715967,-0.1451651,-25.53919,-24.26196,30.03621
99.740077496,-11.17936,-11.69498,-9.03539800000002,0.9988614,-0.07427562,-0.1170776,-25.53919,-24.26196,30.03621
99.749935627,-12.85649,-11.99253,-9.15800400000001,0.9926205,-0.07367477,-0.07193889,-25.53919,-24.26196,30.03621
99.759794235,-16.0244,-13.59927,-10.69058,0.9909443,-0.1032588,-0.0414959,-25.53919,-24.26196,30.03621
99.76965189,-15.90017,-13.24222,-11.73273,0.9954123,-0.1248182,-0.09157827,-25.53919,-24.26196,30.03621
99.779510498,-12.85649,-13.89681,-12.77488,0.989807,-0.1109065,-0.1316337,-25.53321,-24.25038,30.86839
99.791832924,-8.38414199999998,-14.55141,-13.2653,0.9971567,-0.1323201,-0.1496496,-25.53321,-24.25038,30.86839
99.801691055,-2.545246,-14.90847,-12.16185,0.9855533,-0.1250616,-0.1331302,-25.53321,-24.25038,30.86839
99.811549187,-0.5575366,-18.479,-12.46837,0.9763731,-0.1071821,-0.1448284,-25.53321,-24.25038,30.86839
99.821407795,2.920954,-20.4428,-12.16185,0.9874122,-0.1219249,-0.2093229,-25.53321,-24.25038,30.86839
99.831265449,7.45541600000002,-22.82315,-11.24231,0.9918777,-0.1090389,-0.1575242,-25.15346,-25.35914,30.87777
99.841124058,10.62333,-23.29923,-10.62928,1.010391,-0.0780024,-0.1000222,-25.15346,-25.35914,30.87777
99.850982189,11.3066,-22.82315,-11.91664,1.010021,-0.03744988,-0.05558839,-25.15346,-25.35914,30.87777
99.860839844,9.31889399999997,-24.13235,-13.75573,0.9751027,-0.04451063,-0.03933672,-25.15346,-25.35914,30.87777
99.870698452,8.75985100000001,-24.90597,-14.36876,0.9718547,-0.05327875,-0.03409323,-25.15346,-25.35914,30.87777
99.880556583,8.20080799999999,-24.66793,-14.61397,0.9746484,-0.04428712,-0.1083331,-24.77375,-25.35188,31.70802
99.890414715,7.51753199999998,-24.60842,-14.06224,0.9763619,-0.03763917,-0.1562213,-24.77375,-25.35188,31.70802
99.900273323,7.89022700000002,-25.44155,-12.71358,0.9799669,-0.04621022,-0.1146547,-24.77375,-25.35188,31.70802
99.910130978,9.50524099999998,-26.39369,-10.81318,0.9795759,-0.01041082,-0.0400711,-24.77375,-25.35188,31.70802
99.919989586,7.02060499999997,-27.64338,-11.79403,0.9781164,0.01580753,-0.05228821,-24.77375,-25.35188,31.70802
99.929847717,3.107302,-28.00043,-13.51052,0.9606462,0.01759208,-0.183804,-23.6498,-25.35948,32.0863
99.939705372,0.871129400000001,-31.57097,-14.06224,0.9517271,-0.0546407,-0.2197472,-23.6498,-25.35948,32.0863
99.94956398,3.479998,-32.93967,-11.61012,0.9840026,-0.09509854,-0.1846087,-23.6498,-25.35948,32.0863
99.959422112,6.088866,-33.41574,-8.91279199999997,1.007599,-0.07581697,-0.1593847,-23.6498,-25.35948,32.0863
99.971744537,10.43698,-33.35624,-7.25761099999999,1.011807,-0.02324017,-0.1633138,-22.14568,-25.35893,33.35885
99.981603146,11.18237,-34.36789,-7.74803500000001,0.99638,0.01769705,-0.1105157,-22.14568,-25.35893,33.35885
99.991461277,7.45541600000002,-32.99918,-8.23846,0.9857329,0.02349328,-0.09689745,-22.14568,-25.35893,33.35885
100.001319408,0.809013499999997,-30.85686,-8.72888299999999,0.9791442,0.03397739,-0.1403222,-22.14568,-25.35893,33.35885
100.011178017,-3.84968,-29.48816,-8.17715599999997,0.9782039,0.03552696,-0.2438028,-22.14568,-25.35893,33.35885
100.021035671,-5.83739000000001,-29.7857,-7.19630799999999,0.9735917,0.008710962,-0.2468386,-22.14568,-25.35893,33.35885
100.030893803,-7.762983,-29.01208,-6.21546000000001,0.9783388,-0.02519254,-0.2155652,-21.7643,-25.65845,34.19225
100.040752411,-8.197794,-28.11945,-6.03155100000003,0.9910039,-0.05927109,-0.2495773,-21.7643,-25.65845,34.19225
100.050610065,-4.532956,-28.23847,-5.541127,1.008892,-0.09760594,-0.2630941,-21.7643,-25.65845,34.19225
100.060468674,2.299795,-27.70289,-3.947249,1.015387,-0.1062991,-0.260864,-21.7643,-25.65845,34.19225
100.070326805,9.00831399999997,-27.16731,-3.395523,1.006435,-0.07077839,-0.2403103,-21.7643,-25.65845,34.19225
100.08018446,12.8595,-26.09615,-3.027704,0.987596,-0.02707379,-0.2200258,-20.26462,-26.03852,34.57237
100.090043068,12.05199,-25.62008,-4.008553,0.9784774,-0.002829773,-0.2216081,-20.26462,-26.03852,34.57237
100.099901199,10.80968,-24.37039,-4.682886,0.975799,-0.002564653,-0.2742796,-20.26462,-26.03852,34.57237
100.109759331,8.88408299999998,-23.23972,-4.682886,0.9796137,-0.02892242,-0.3047459,-20.26462,-26.03852,34.57237
100.119617939,9.31889399999997,-22.28757,-3.947249,0.981821,-0.03518059,-0.2918918,-20.26462,-26.03852,34.57237
100.129475594,10.25063,-21.63298,-3.702038,0.9838346,-0.02733542,-0.2808327,-19.94719,-26.03053,35.40294
100.139334202,10.06429,-20.68083,-4.008553,0.9842665,-0.03076501,-0.2880558,-19.94719,-26.03053,35.40294
100.151657105,11.43083,-20.14525,-4.008553,0.9726451,-0.01437048,-0.3006902,-19.94719,-26.03053,35.40294
100.161514759,10.87179,-20.26427,-3.947249,0.9622298,0.007115088,-0.2562741,-19.94719,-26.03053,35.40294
100.171373367,8.076575,-18.95507,-3.885947,0.9768637,0.02982676,-0.2035791,-18.81479,-26.39381,36.68119
100.181231499,2.672491,-16.69374,-4.682886,0.9867002,0.04772248,-0.255801,-18.81479,-26.39381,36.68119
100.191089153,-2.855826,-15.02748,-4.560279,0.9824569,0.005741447,-0.2810132,-18.81479,-26.39381,36.68119
100.200947762,-5.278347,-13.00418,-3.76334,0.9815508,-0.00694048,-0.2868577,-18.81479,-26.39381,36.68119
100.210805893,-6.33431700000002,-11.57597,-3.456825,0.9782219,-0.018308,-0.3257213,-18.81479,-26.39381,36.68119
100.220664024,-4.222376,-10.62382,-2.966402,0.9737373,-0.03385843,-0.3094958,-18.81479,-26.39381,36.68119
100.230522633,-1.861971,-10.62382,-2.659887,0.9545103,-0.02785802,-0.3508615,-18.44031,-26.02463,37.05957
100.240380287,-0.5575366,-12.40909,-3.211613,0.9391766,-0.06026345,-0.3916484,-18.44031,-26.02463,37.05957
100.250238895,3.914809,-13.83731,-2.292068,0.9460312,-0.08371865,-0.3042505,-18.44031,-26.02463,37.05957
100.260097027,7.57964799999999,-12.76614,-2.475978,0.9861845,-0.02964711,-0.2540506,-18.44031,-26.02463,37.05957
100.269954681,7.39330000000001,-11.57597,-4.069855,0.9802225,-0.009843154,-0.279196,-18.44031,-26.02463,37.05957
100.27981329,6.52367699999999,-11.33793,-4.866795,0.9670492,-0.03631444,-0.2998373,-18.06734,-26.40244,36.67733
100.289671421,6.52367699999999,-10.14775,-3.947249,0.9723735,-0.03433007,-0.3022924,-18.06734,-26.40244,36.67733
100.299529076,7.14483600000002,-8.064939,-3.027704,0.9650351,0.01575695,-0.2940979,-18.06734,-26.40244,36.67733
100.309387684,4.473852,-8.24346499999998,-2.966402,0.9444401,0.0309139,-0.3559724,-18.06734,-26.40244,36.67733
100.321710587,1.61652,-10.08824,-2.10816,0.9371904,-0.02304878,-0.3251765,-17.69285,-26.03326,37.05571
100.331568241,1.368057,-9.31462599999998,-0.759493700000002,0.9717977,0.01579307,-0.3004236,-17.69285,-26.03326,37.05571
100.341426849,-0.7438844,-8.66002800000003,-1.617736,0.9680862,0.02788655,-0.310811,-17.69285,-26.03326,37.05571
100.351284981,-3.104289,-8.89806400000002,-1.49513,0.9585536,-0.005816149,-0.3219812,-17.69285,-26.03326,37.05571
100.361143589,-3.352753,-9.1361,-0.2077667,0.9606602,-0.01343252,-0.2818227,-17.69285,-26.03326,37.05571
100.371001721,-2.545246,-8.66002800000003,0.1600513,0.9648635,0.01486675,-0.2715806,-16.94142,-25.66217,37.88026
100.380859375,-2.79371,-8.42199199999999,0.2826573,0.9532945,0.001006159,-0.3069935,-16.94142,-25.66217,37.88026
100.390717983,-3.042173,-8.183956,0.3439603,0.950231,-0.01565617,-0.3310504,-16.94142,-25.66217,37.88026
100.400576115,-3.104289,-8.362483,1.263505,0.9483098,-0.0312866,-0.3421765,-16.94142,-25.66217,37.88026
100.410433769,-1.986203,-8.89806400000002,2.060444,0.9363726,-0.0426759,-0.3665417,-16.94142,-25.66217,37.88026
100.420292378,-0.1227252,-9.90971599999998,2.79608,0.9458587,-0.06548558,-0.3726197,-16.56368,-26.40278,37.88586
100.430150509,2.424027,-10.68333,3.225201,0.9621216,-0.06517331,-0.3278041,-16.56368,-26.40278,37.88586
100.440009117,4.722316,-10.56431,2.366959,0.9655864,-0.02900269,-0.2930459,-16.56368,-26.40278,37.88586
100.449867249,5.157127,-10.02873,1.018293,0.9675164,-0.00311698,-0.2722494,-16.56368,-26.40278,37.88586
100.459724903,3.231534,-9.01708100000001,-0.698190700000002,0.9559086,0.00498158,-0.2911836,-16.56368,-26.40278,37.88586
100.469583511,0.1257384,-9.49315299999999,-1.311221,0.943624,-0.01236549,-0.3462628,-16.56368,-26.40278,37.88586
100.479441643,-0.4954207,-10.20726,-0.636887700000001,0.9419047,-0.0235443,-0.3386655,-16.18719,-26.40175,38.26802
100.491764069,-1.11658,-9.61217100000001,0.2213543,0.9602447,0.01330144,-0.2887792,-16.18719,-26.40175,38.26802
100.501622677,-3.476985,-8.957573,-0.759493700000002,0.9615681,0.02157318,-0.2920826,-16.18719,-26.40175,38.26802
100.511480808,-6.210085,-7.94592099999998,-1.617736,0.97544,-0.01131994,-0.2724316,-16.18719,-26.40175,38.26802
100.521338463,-6.89335999999998,-6.75574299999998,-1.679039,0.979607,0.005739757,-0.274743,-16.56293,-26.02929,38.26618
100.531197071,-7.63875099999998,-7.29132300000003,-2.10816,0.958733,-0.002700455,-0.2702039,-16.56293,-26.02929,38.26618
100.541055203,-6.520665,-6.87475999999998,-2.10816,0.9501065,-0.01053905,-0.2639175,-16.56293,-26.02929,38.26618
100.550913811,-3.663332,-4.256367,-1.49513,0.9826266,0.03717152,-0.2050368,-16.56293,-26.02929,38.26618
100.560771465,-7.45240399999997,-3.185207,-2.843796,0.9417313,0.07546381,-0.4077905,-16.56293,-26.02929,38.26618
100.570629597,-10.49608,-7.886412,-2.905098,0.857437,-0.08239913,-0.5214916,-15.815,-26.03703,38.32633
100.580488205,-5.154115,-12.88516,2.060444,0.903569,-0.1641371,-0.3675784,-15.815,-26.03703,38.32633
100.590346336,2.610375,-11.21891,3.531716,0.9672049,-0.02859359,-0.3175047,-15.815,-26.03703,38.32633
100.600203991,5.219243,-10.38579,1.631323,0.971229,-0.02866254,-0.3453562,-15.815,-26.03703,38.32633
100.610062599,7.08272099999998,-10.02873,1.386111,0.949161,-0.01240853,-0.3707813,-15.815,-26.03703,38.32633
100.619920731,5.157127,-10.4453,0.1600513,0.933717,0.0243476,-0.3946901,-16.55891,-26.76558,38.27372
100.629779339,1.802868,-11.39744,0.5278693,0.9264032,-0.007174928,-0.3488488,-16.55891,-26.76558,38.27372
100.639636993,0.1257384,-10.5048,1.631323,0.9587535,0.005334897,-0.3333907,-16.55891,-26.76558,38.27372
100.649495125,-1.302927,-9.61217100000001,1.753929,0.9480031,0.01536053,-0.3595088,-16.55891,-26.76558,38.27372
100.661818504,-2.980057,-8.83855400000001,1.079596,0.9383705,-0.01983533,-0.3793158,-16.55891,-26.76558,38.27372
100.671676159,-3.228521,-8.183956,0.895687200000003,0.9453682,-0.02363798,-0.3717804,-15.81224,-26.03168,38.71041
100.68153429,-3.104289,-7.17230500000001,1.018293,0.9446959,-0.03297083,-0.3934135,-15.81224,-26.03168,38.71041
100.691392898,-2.048319,-7.23181399999999,1.508717,0.9398323,-0.04521175,-0.4020731,-15.81224,-26.03168,38.71041
100.70125103,-0.1848412,-6.57721599999998,1.815232,0.9526857,-0.02748461,-0.3767091,-15.81224,-26.03168,38.71041
100.711108684,-0.4333048,-5.98212599999998,1.386111,0.9501354,-0.02363022,-0.3809531,-15.81224,-26.03168,38.71041
100.720967293,0.1878543,-5.74409100000002,0.956990100000001,0.9467261,-0.02707382,-0.3828503,-15.43973,-26.41038,38.26415
100.730825424,0.622665799999999,-4.910965,1.140899,0.9570659,-0.02012863,-0.3719175,-15.43973,-26.41038,38.26415
100.740684032,0.5605499,-3.720787,1.018293,0.9550322,-0.01528564,-0.3732852,-15.43973,-26.41038,38.26415
100.750541687,-0.0606093299999997,-3.066189,1.202202,0.9516652,-0.003582183,-0.3587625,-15.43973,-26.41038,38.26415
100.760399818,-1.054464,-1.87601,1.202202,0.9478211,-0.009943994,-0.3592406,-15.43973,-26.41038,38.26415
100.770258427,-1.427159,-1.042885,1.263505,0.9333006,0.003993675,-0.3713752,-14.69105,-26.04463,38.70462
100.780116081,-2.48313,-1.87601,1.140899,0.9165294,-0.01718695,-0.4000669,-14.69105,-26.04463,38.70462
100.789974689,-1.924087,-2.292573,1.937838,0.9277429,-0.02282164,-0.3720015,-14.69105,-26.04463,38.70462
100.799832821,-2.545246,-1.756992,2.428262,0.9497435,-0.00651887,-0.3587599,-14.69105,-26.04463,38.70462
100.809690952,-3.663332,-1.578465,2.366959,0.9542983,-0.02596555,-0.3647393,-14.69105,-26.04463,38.70462
100.819549561,-3.725448,-1.459447,2.305656,0.9531,-0.04201327,-0.3591073,-15.06278,-26.40846,38.71032
100.829407215,-2.421014,-1.280921,2.121747,0.9533265,-0.03853109,-0.3394339,-15.06278,-26.40846,38.71032
100.841730118,-1.240812,-1.102394,1.692626,0.9468027,-0.03179909,-0.3455138,-15.06278,-26.40846,38.71032
100.851588726,-0.4333048,-1.221412,1.631323,0.9472884,-0.02105478,-0.3363252,-15.06278,-26.40846,38.71032
100.861446381,-0.309073,-0.5668135,1.692626,0.9548255,-0.004956676,-0.3434848,-15.06278,-26.40846,38.71032
100.871304512,-1.178696,-1.221412,1.202202,0.944066,-0.008333611,-0.3102951,-15.06646,-25.73353,38.70341
100.88116312,-1.737739,0.3853295,0.5278693,0.9598619,0.0097747,-0.3199514,-15.06646,-25.73353,38.70341
100.891020775,-2.234666,1.277964,-0.5755847,0.9130304,0.01937842,-0.3733525,-15.06646,-25.73353,38.70341
100.900879383,-3.84968,-2.114046,-1.066009,0.8647932,-0.04655313,-0.4527685,-15.06646,-25.73353,38.70341
100.910737514,-1.551391,-5.089492,0.834384299999999,0.8811516,-0.09490114,-0.4078857,-15.06646,-25.73353,38.70341
100.920595646,1.9271,-4.851457,2.734777,0.9505524,-0.04876392,-0.3366056,-15.43529,-26.02976,39.15658
100.930454254,2.486143,-3.482751,1.937838,0.9513995,-0.006452112,-0.3448862,-15.43529,-26.02976,39.15658
100.940311909,0.7468976,-3.423242,0.834384299999999,0.9570458,-0.007440458,-0.3622262,-15.43529,-26.02976,39.15658
100.95017004,-1.489275,-3.661278,0.7117782,0.9520782,-0.006528913,-0.3669397,-15.43529,-26.02976,39.15658
100.960028648,-2.855826,-3.839805,0.589172199999998,0.9542537,-0.007913872,-0.3521271,-15.43529,-26.02976,39.15658
100.969886303,-3.725448,-3.185207,0.773081200000001,0.9470564,-0.002080082,-0.336641,-14.68507,-26.03305,39.5368
100.979744911,-4.47084,-2.947171,0.589172199999998,0.9477198,-0.008019961,-0.3649733,-14.68507,-26.03305,39.5368
100.989603043,-4.905651,-2.471099,0.650475300000002,0.9494459,-0.02209182,-0.3584079,-14.68507,-26.03305,39.5368
100.999461174,-4.967767,-2.114046,0.773081200000001,0.9505962,-0.02447526,-0.347902,-14.68507,-26.03305,39.5368
101.011784077,-3.973912,-0.5668135,0.2826573,0.9538794,-0.03132036,-0.3642993,-14.68507,-26.03305,39.5368
101.021642208,-2.296782,-0.0907419500000001,0.2826573,0.951001,-0.04597696,-0.3730076,-15.05956,-26.40223,39.15842
101.031499863,0.0636224999999999,-0.2692688,1.324808,0.9416829,-0.05436584,-0.3820504,-15.05956,-26.40223,39.15842
101.041358471,2.98307,-0.2692688,2.244353,0.9419474,-0.02610843,-0.3736693,-15.05956,-26.40223,39.15842
101.051216602,3.542114,0.920909899999998,2.428262,0.9481933,0.006979741,-0.3888134,-15.05956,-26.40223,39.15842
101.061075211,2.734607,1.813544,2.121747,0.9342614,0.0004445743,-0.4116716,-15.05956,-26.40223,39.15842
101.070933342,0.995361299999998,2.05158,2.244353,0.9298376,-0.01424722,-0.4261085,-14.68583,-26.40654,39.15649
101.080790997,0.3742021,2.706178,2.428262,0.9273852,-0.04440562,-0.4172233,-14.68583,-26.40654,39.15649
101.090649605,0.7468976,3.360776,2.550868,0.9296141,-0.05798104,-0.4092233,-14.68583,-26.40654,39.15649
101.100507736,2.237679,4.312919,2.244353,0.9350693,-0.05986514,-0.4054833,-14.68583,-26.40654,39.15649
101.110366344,3.852693,4.431937,1.815232,0.9359736,-0.06071888,-0.375793,-14.68583,-26.40654,39.15649
101.120223999,3.914809,4.491446,1.386111,0.9445084,-0.03958915,-0.341234,-15.05755,-26.77037,39.16219
101.13008213,1.305941,5.503098,0.773081200000001,0.9752939,-0.01393792,-0.3213299,-15.05755,-26.77037,39.16219
101.139940739,-1.799855,6.395732,0.0374453,0.9713939,0.0112839,-0.3339998,-15.05755,-26.77037,39.16219
101.14979887,-4.781419,6.45524099999998,-0.3303727,0.9490398,0.01099179,-0.3590813,-15.05755,-26.77037,39.16219
101.159656525,-7.57663500000003,5.265062,-0.2690697,0.936057,-0.005660668,-0.35712,-15.05755,-26.77037,39.16219
101.169515133,-9.19164800000001,3.955866,0.7117782,0.9383307,-0.01971152,-0.3462494,-15.43651,-26.40415,38.71225
101.179373264,-8.57049000000001,3.003723,1.447414,0.9317278,-0.03044308,-0.3376202,-15.43651,-26.40415,38.71225
101.19169569,-6.27220100000001,1.754035,2.612171,0.9240217,-0.03340729,-0.3313058,-15.43651,-26.40415,38.71225
101.201554298,-3.911796,1.099437,3.470413,0.9244739,-0.03194881,-0.3327376,-15.43651,-26.40415,38.71225
101.21141243,-1.799855,-0.03123301,4.451261,0.929695,-0.01192947,-0.3268926,-15.43651,-26.40415,38.71225
101.221271038,-0.7438844,-0.5073045,4.819079,0.9464351,0.00959535,-0.3360544,-15.4345,-26.77229,38.71602
101.231128693,0.3742021,0.0877848699999997,4.880382,0.9497703,-0.006023008,-0.3563601,-15.4345,-26.77229,38.71602
101.240986824,1.119593,-0.2692688,4.880382,0.9507712,-0.02993101,-0.3757441,-15.4345,-26.77229,38.71602
101.250845432,1.740752,-0.3882866,5.493412,0.9507002,-0.03825112,-0.3882725,-15.4345,-26.77229,38.71602
101.260703087,2.734607,0.1472938,5.79992699999999,0.9422194,-0.02763071,-0.3909372,-15.4345,-26.77229,38.71602
101.270561695,2.920954,0.5043474,6.22904800000001,0.9360399,-0.03007685,-0.3798482,-15.05755,-26.77037,39.16219
101.280419827,0.995361299999998,1.099437,6.16774500000002,0.9430176,-0.02119134,-0.3626215,-15.05755,-26.77037,39.16219
101.290277958,-2.048319,1.992071,6.29035100000001,0.964533,-0.02770323,-0.3332727,-15.05755,-26.77037,39.16219
101.300136566,-4.47084,3.420285,7.209896,1.026025,-0.01206394,-0.3306627,-15.05755,-26.77037,39.16219
101.309994221,-6.76912800000002,5.503098,7.76162199999998,1.037403,0.004048178,-0.3431481,-15.05755,-26.77037,39.16219
101.319852829,-8.57049000000001,6.09818699999998,7.76162199999998,1.021051,-0.007383578,-0.3684091,-15.81024,-26.39983,38.71418
101.32971096,-10.1855,5.38408,7.63901700000002,0.9812223,-0.02279262,-0.3607835,-15.81024,-26.39983,38.71418
101.339568615,-10.74455,4.550955,7.57771400000002,0.9551635,-0.03561854,-0.3456652,-15.81024,-26.39983,38.71418
101.349427223,-9.93703900000001,3.896357,8.00683499999999,0.9894747,-0.05420154,-0.3213926,-15.81024,-26.39983,38.71418
101.361750126,-5.464694,4.669973,9.66201599999998,1.084347,-0.05629894,-0.3261169,-15.81024,-26.39983,38.71418
101.371607781,-1.861971,5.443589,10.76547,1.101282,-0.05717715,-0.3407416,-16.18271,-27.13715,38.33957
101.381466389,0.1257384,5.443589,11.68501,1.07391,-0.07645417,-0.3558486,-16.18271,-27.13715,38.33957
101.39132452,2.424027,5.086535,12.05283,1.017082,-0.07844478,-0.3632019,-16.18271,-27.13715,38.33957
101.401182652,4.970779,4.193902,11.86892,0.9653497,-0.0827751,-0.3577091,-16.18271,-27.13715,38.33957
101.41104126,6.46156200000001,3.539303,11.3785,0.9298955,-0.05630094,-0.35123,-16.18271,-27.13715,38.33957
101.420898914,5.84040200000001,3.360776,10.15244,0.8945958,-0.04394126,-0.3458305,-16.93418,-26.39223,38.3359
101.430757523,3.852693,3.479794,8.92637999999998,0.8632087,-0.04472931,-0.3520986,-16.93418,-26.39223,38.3359
101.440615654,1.989216,3.71783,7.82292600000001,0.834379,-0.05766959,-0.3609017,-16.93418,-26.39223,38.3359
101.450473309,0.3120862,3.955866,7.209896,0.8207718,-0.06899441,-0.3641578,-16.93418,-26.39223,38.3359
101.460331917,0.1257384,4.015375,6.412957,0.8136874,-0.06228714,-0.375501,-16.93418,-26.39223,38.3359
101.470190048,0.1257384,4.015375,5.125594,0.8165531,-0.06472205,-0.3827504,-17.68486,-26.38983,37.89166
101.480048657,-0.309073,3.836848,3.838231,0.8282935,-0.06315345,-0.3814669,-17.68486,-26.38983,37.89166
101.489906311,-0.2469571,4.074883,2.428262,0.8436823,-0.07662564,-0.3770079,-17.68486,-26.38983,37.89166
101.499764443,1.119593,4.074883,1.324808,0.8530284,-0.08434024,-0.3800814,-17.68486,-26.38983,37.89166
101.509623051,2.299795,4.491446,0.589172199999998,0.8721616,-0.0797616,-0.372169,-17.68486,-26.38983,37.89166
101.519481182,3.542114,4.908009,-0.1464637,0.8813121,-0.05726194,-0.3630048,-18.06135,-26.39086,37.50951
101.531803608,3.914809,5.146044,-0.820796699999998,0.8870779,-0.04356937,-0.3586586,-18.06135,-26.39086,37.50951
101.541662216,3.852693,5.205554,-1.556433,0.8933653,-0.03865135,-0.3596652,-18.06135,-26.39086,37.50951
101.551520347,3.231534,5.265062,-2.414675,0.9019221,-0.04192666,-0.3449596,-18.06135,-26.39086,37.50951
101.561378956,3.60423,4.788991,-3.089008,0.8881749,-0.03438574,-0.3777648,-18.06135,-26.39086,37.50951
101.57123661,4.225389,2.884705,-4.805491,0.8816379,-0.03582219,-0.3561197,-18.05934,-26.75901,37.51328
101.581094742,3.479998,2.944214,-5.173309,0.8806862,-0.0610759,-0.3405057,-18.05934,-26.75901,37.51328
101.59095335,2.796723,2.825196,-4.621583,0.8542339,-0.07157291,-0.3521973,-18.05934,-26.75901,37.51328
101.600811005,2.920954,1.932562,-4.253765,0.8400437,-0.08048771,-0.3602166,-18.05934,-26.75901,37.51328
101.610669136,3.852693,1.099437,-4.069855,0.8322516,-0.0756648,-0.3533561,-18.05934,-26.75901,37.51328
101.620527744,4.225389,0.3258206,-4.560279,0.8375096,-0.05709963,-0.3460864,-18.0606,-26.01737,37.88982
101.630385876,4.039041,0.3258206,-4.9894,0.8331841,-0.04162854,-0.3626661,-18.0606,-26.01737,37.88982
101.640244484,4.535968,-0.2097598,-5.234612,0.8211688,-0.03985795,-0.3811687,-18.0606,-26.01737,37.88982
101.650102138,5.281359,-1.280921,-6.21546000000001,0.7917978,-0.02317079,-0.4036109,-18.0606,-26.01737,37.88982
101.65996027,2.734607,-5.029984,-7.93194399999999,0.7576914,-0.04038782,-0.3726013,-18.0606,-26.01737,37.88982
101.669818878,0.933245400000001,-5.74409100000002,-8.23846,0.7499373,-0.0580125,-0.3827027,-17.68963,-26.02703,37.50381
101.679676533,0.684781700000003,-7.29132300000003,-8.29976299999999,0.752874,-0.05652137,-0.3812944,-17.68963,-26.02703,37.50381
101.689535141,1.554404,-8.54101000000001,-8.66758100000002,0.7866685,-0.03765826,-0.3619696,-17.68963,-26.02703,37.50381
101.699393272,1.492289,-9.85020600000002,-9.95494399999998,1.053739,-0.0192714,-0.2419875,-17.68963,-26.02703,37.50381
101.711715698,-5.340462,-5.327528,-9.09670199999999,1.512871,-0.03612328,-0.2400478,-17.68963,-26.02703,37.50381
101.721574306,-12.35956,-1.816501,-5.357218,1.547401,-0.0830962,-0.2605836,-17.68486,-26.38983,37.89166
101.731432438,-12.98072,0.5043474,-5.050704,1.250705,-0.1554735,-0.3044065,-17.68486,-26.38983,37.89166
101.741290092,-4.595071,-1.578465,-7.19630799999999,1.00246,-0.1607994,-0.3598549,-17.68486,-26.38983,37.89166
101.751148701,3.60423,-5.86310899999999,-10.69058,0.9379063,-0.08387293,-0.3261792,-17.68486,-26.38983,37.89166
101.761006832,9.19466200000001,-6.10114400000001,-11.91664,0.890139,-0.04594859,-0.3515343,-17.68486,-26.38983,37.89166
101.77086544,10.80968,-6.16065299999999,-9.64842799999997,0.8751746,-0.05836659,-0.3835322,-16.19195,-26.03895,37.88017
101.780723572,10.93391,-4.13735,-4.437674,0.9111392,-0.06126033,-0.3318365,-16.19195,-26.03895,37.88017
101.790581226,10.80968,-0.685831300000001,-0.4529787,0.9039652,0.007426212,-0.2952146,-16.19195,-26.03895,37.88017
101.800439835,8.57350299999998,0.861401000000002,-0.2077667,0.9126266,0.06897967,-0.2516907,-16.19195,-26.03895,37.88017
101.810297966,4.163273,1.873053,-1.740342,0.9480419,0.1035228,-0.2073383,-16.19195,-26.03895,37.88017
101.820156574,-2.731594,2.706178,-4.069855,0.9818207,0.08012354,-0.2981068,-16.18673,-26.40086,38.33203
101.830014229,-7.82509900000001,1.813544,-4.192461,0.9873587,0.007470187,-0.3505524,-16.18673,-26.40086,38.33203
101.83987236,-8.63260600000002,0.861401000000002,-2.10816,1.02866,-0.01163509,-0.3522606,-16.18673,-26.40086,38.33203
101.849730968,-8.25991000000001,0.0877848699999997,-0.636887700000001,1.006745,0.006615364,-0.3647327,-16.18673,-26.40086,38.33203
101.8595891,-9.440112,-1.34043,0.0987483000000002,0.9880961,-0.03102461,-0.3662221,-16.18673,-26.40086,38.33203
101.869447708,-9.50222800000001,-2.530608,0.956990100000001,0.969087,-0.06082052,-0.3513474,-15.81024,-26.39983,38.71418
101.881770134,-7.017592,-2.828153,1.876535,0.9511911,-0.05750503,-0.333334,-15.81024,-26.39983,38.71418
101.891627789,-4.036028,-1.995028,2.305656,0.9290268,-0.040302,-0.3649793,-15.81024,-26.39983,38.71418
101.901486397,-2.545246,-2.947171,2.366959,0.9053744,-0.06252905,-0.3969361,-15.81024,-26.39983,38.71418
101.911344528,-0.806000300000003,-4.07784,2.918686,0.9276531,-0.07348765,-0.387283,-15.81024,-26.39983,38.71418
101.92120266,1.678636,-4.494403,3.654322,0.9531335,-0.06676808,-0.3425447,-16.56046,-26.39654,38.33396
101.931061268,2.734607,-4.375385,3.531716,0.9753355,-0.037714,-0.3033216,-16.56046,-26.39654,38.33396
101.940918922,0.684781700000003,-3.482751,2.366959,0.9771572,0.002164239,-0.3140326,-16.56046,-26.39654,38.33396
101.950777531,-2.855826,-2.649626,1.263505,0.9649945,0.01414555,-0.3343637,-16.56046,-26.39654,38.33396
101.960635662,-8.13567799999999,-3.125698,0.2826573,0.9327587,0.003486081,-0.3756846,-16.56046,-26.39654,38.33396
101.970493317,-10.93089,-3.482751,-0.5142817,0.9194534,-0.04032868,-0.3495087,-15.80898,-27.14147,38.33764
101.980351925,-11.7384,-3.125698,-0.820796699999998,0.9477224,-0.06584784,-0.3438974,-15.80898,-27.14147,38.33764
101.990210056,-9.93703900000001,-2.530608,-1.49513,0.957384,-0.07653704,-0.3623349,-15.80898,-27.14147,38.33764
102.000068665,-6.95547599999999,-2.471099,-2.046857,0.9489131,-0.08544289,-0.3814573,-15.80898,-27.14147,38.33764
102.009926796,-4.036028,-3.066189,-2.353372,0.929854,-0.07535361,-0.3710373,-15.80898,-27.14147,38.33764
102.019784451,-1.613507,-2.828153,-2.966402,0.9330158,-0.06319246,-0.3796054,-16.55443,-27.50099,38.34528
102.029643059,0.2499703,-3.066189,-3.150311,0.9412197,-0.06315085,-0.3878683,-16.55443,-27.50099,38.34528
102.03950119,1.740752,-2.530608,-3.272917,0.9558049,-0.05998214,-0.3559431,-16.55443,-27.50099,38.34528
102.051823616,2.734607,-2.114046,-3.640734,0.945758,-0.02903246,-0.3838115,-16.55443,-27.50099,38.34528
102.061682224,2.424027,-1.756992,-3.640734,0.9345372,-0.02765873,-0.3802855,-16.55443,-27.50099,38.34528
102.071540356,1.119593,-1.697483,-3.640734,0.9422356,-0.01249108,-0.3764336,-15.81099,-26.77332,38.33387
102.081398964,-0.1848412,-1.578465,-3.579432,0.9468898,-0.01775086,-0.3626476,-15.81099,-26.77332,38.33387
102.091256619,-0.619652599999999,-0.5668135,-3.150311,0.9597546,-0.005390925,-0.3411627,-15.81099,-26.77332,38.33387
102.10111475,-1.551391,0.623365200000003,-3.150311,0.9544061,0.01494105,-0.3567284,-15.81099,-26.77332,38.33387
102.110973358,-3.911796,0.5043474,-3.272917,0.9301056,0.003893579,-0.3904985,-15.81099,-26.77332,38.33387
102.12083149,-5.402578,0.02827592,-3.027704,0.9319115,-0.03003761,-0.3596626,-15.06675,-26.78819,37.88191
102.130690098,-5.89950600000002,0.801892000000002,-3.027704,0.9554281,-0.05018989,-0.3390831,-15.06675,-26.78819,37.88191
102.140547752,-4.036028,2.349124,-2.353372,0.9627448,-0.05891902,-0.3483658,-15.06675,-26.78819,37.88191
102.150405884,-0.681768500000002,2.468142,-1.924251,0.9507517,-0.03433064,-0.3810522,-15.06675,-26.78819,37.88191
102.160264492,1.243825,2.111089,-1.127312,0.9404644,-0.01489663,-0.3649279,-15.06675,-26.78819,37.88191
102.170122147,0.3120862,3.122741,-0.5755847,0.9459838,0.01679005,-0.3628224,-15.43525,-27.14579,38.33571
102.179980755,-1.489275,3.182249,-0.2077667,0.9437969,0.03233034,-0.3660145,-15.43525,-27.14579,38.33571
102.189838886,-3.663332,3.539303,0.2826573,0.9469618,0.004239867,-0.3380238,-15.43525,-27.14579,38.33571
102.199696541,-4.408724,4.491446,0.4052633,0.9524356,-0.006915228,-0.3410712,-15.43525,-27.14579,38.33571
102.209555149,-3.663332,4.908009,1.079596,0.9509777,-0.01438405,-0.3828039,-15.43525,-27.14579,38.33571
102.219413281,-2.855826,5.205554,2.121747,0.948373,-0.02519199,-0.4039427,-15.44048,-26.78388,37.88384
102.23173666,-1.11658,4.610464,3.899534,0.9299024,-0.02616406,-0.3600805,-15.44048,-26.78388,37.88384
102.241594315,-0.4954207,5.146044,4.02214,0.9492781,-0.02053984,-0.333474,-15.44048,-26.78388,37.88384
102.251452446,-0.1227252,5.74113399999999,3.960838,0.9625022,-0.02090649,-0.3327072,-15.44048,-26.78388,37.88384
102.261311054,0.5605499,6.03867900000002,3.654322,0.9514229,-0.0386684,-0.3715144,-15.44048,-26.78388,37.88384
102.271169186,1.430173,5.919661,3.593019,0.9331761,-0.04375287,-0.3866316,-16.18794,-26.77524,37.88771
102.281027794,1.492289,5.443589,3.715625,0.9376565,-0.05576221,-0.3556488,-16.18794,-26.77524,37.88771
102.290885449,2.175564,5.74113399999999,3.470413,0.9450507,-0.05994003,-0.3193703,-16.18794,-26.77524,37.88771
102.30074358,3.790577,6.395732,2.79608,0.9542798,-0.04509438,-0.2752902,-16.18794,-26.77524,37.88771
102.310602188,3.728462,8.00247400000002,0.5278693,0.9643969,-0.03102446,-0.3102972,-16.18794,-26.77524,37.88771
102.320459843,2.424027,7.94296499999998,-1.49513,0.9351497,-0.04958944,-0.3905425,-15.81496,-27.15305,37.50546
102.330318451,2.858839,6.63376799999999,-1.740342,0.9244051,-0.08225577,-0.3820395,-15.81496,-27.15305,37.50546
102.340176582,4.722316,6.75278600000001,-0.882099699999998,0.9461012,-0.06004595,-0.3500549,-15.81496,-27.15305,37.50546
102.350034714,5.71617,6.99082100000003,-1.372524,0.9588556,-0.03014135,-0.3212323,-15.81496,-27.15305,37.50546
102.359893322,4.908664,7.58591100000003,-2.353372,0.9780495,-0.02785137,-0.2750042,-15.81496,-27.15305,37.50546
102.369750977,3.29365,10.56136,-3.089008,0.9750143,0.0123466,-0.3187081,-16.56242,-27.14442,37.50932
102.379609585,0.5605499,10.2043,-4.621583,0.9355781,-0.004467713,-0.4270662,-16.56242,-27.14442,37.50932
102.389467716,-0.992348000000001,8.65707200000003,-3.76334,0.9131688,-0.05709853,-0.3946054,-16.56242,-27.14442,37.50932
102.399325371,0.4984339,8.59756299999999,-1.740342,0.9441088,-0.04493839,-0.3393567,-16.56242,-27.14442,37.50932
102.41164875,2.672491,8.954617,-1.49513,0.9721813,-0.01924985,-0.3031208,-16.56242,-27.14442,37.50932
102.421506882,4.039041,10.79939,-1.617736,0.9807963,-0.00604404,-0.3055281,-16.19472,-26.04429,37.49608
102.431364536,4.225389,11.45399,-2.046857,0.955408,0.004703661,-0.3640171,-16.19472,-26.04429,37.49608
102.441223145,3.355766,10.91841,-1.372524,0.9345816,-0.01104637,-0.3624156,-16.19472,-26.04429,37.49608
102.451081276,3.29365,10.91841,0.4052633,0.9432724,-0.007448312,-0.3318403,-16.19472,-26.04429,37.49608
102.460939884,2.734607,11.15645,1.018293,0.9635559,-0.005253104,-0.3134221,-16.19472,-26.04429,37.49608
102.470797539,2.548259,11.98957,1.508717,0.9723579,-0.01494061,-0.3222549,-17.31711,-26.40573,37.05755
102.48065567,2.98307,13.12024,1.692626,0.9663253,-0.01113306,-0.3307624,-17.31711,-26.40573,37.05755
102.490514279,2.98307,13.53681,1.876535,0.9494778,-0.01817692,-0.3526249,-17.31711,-26.40573,37.05755
102.50037241,2.672491,13.35828,2.612171,0.9503117,-0.0400445,-0.3465917,-17.31711,-26.40573,37.05755
102.510231018,3.666346,13.71533,3.470413,0.9676439,-0.04032101,-0.3315067,-17.31711,-26.40573,37.05755
102.520088673,4.34962,14.78649,3.470413,0.9777279,-0.05137794,-0.3192846,-16.93937,-27.14634,37.06316
102.529946804,5.71617,16.03618,3.041292,0.9796265,-0.04210089,-0.3153997,-16.93937,-27.14634,37.06316
102.539805412,7.641764,17.99997,2.734777,0.9900638,-0.0395219,-0.3011507,-16.93937,-27.14634,37.06316
102.549663067,7.14483600000002,19.60671,3.041292,0.9737851,-0.03300351,-0.3411165,-16.93937,-27.14634,37.06316
102.559521675,6.83425699999999,19.54721,3.347807,0.9578239,-0.03176507,-0.3624425,-16.93937,-27.14634,37.06316
102.569379806,7.08272099999998,19.60671,4.573867,0.9575859,-0.02925664,-0.3418124,-17.69084,-26.40141,37.05948
102.581702232,6.02674999999999,21.57051,4.757776,0.9838588,-0.01184044,-0.3013079,-17.69084,-26.40141,37.05948
102.591560841,4.473852,23.53431,4.02214,0.9812116,-0.003131406,-0.3083846,-17.69084,-26.40141,37.05948
102.601418972,3.107302,25.08154,4.02214,0.9787414,-0.01536566,-0.3209119,-17.69084,-26.40141,37.05948
102.61127758,1.305941,25.14105,4.144746,0.9575241,-0.04880333,-0.3635404,-17.69084,-26.40141,37.05948
102.621135235,2.920954,25.02203,5.186897,0.9531022,-0.08337673,-0.3594564,-17.69285,-26.03326,37.05571
102.630993366,6.46156200000001,25.26006,6.84207800000002,0.9648054,-0.08789529,-0.2944902,-17.69285,-26.03326,37.05571
102.640851974,9.62947399999998,26.8073,7.57771400000002,0.9889016,-0.05688883,-0.2581528,-17.69285,-26.03326,37.05571
102.650710106,11.61718,28.47355,7.02598700000001,0.9955879,-0.0251397,-0.2421666,-17.69285,-26.03326,37.05571
102.660568714,12.11411,31.09194,6.16774500000002,0.9958405,-0.01725604,-0.2167061,-17.69285,-26.03326,37.05571
102.670426369,11.24449,33.4723,5.616018,0.9965173,0.003172145,-0.2208561,-19.20141,-25.73237,35.39594
102.6802845,8.94619800000002,35.07904,5.2482,0.9917076,0.009499181,-0.2092334,-19.20141,-25.73237,35.39594
102.690143108,5.591938,37.28087,5.677321,0.9932827,0.01198398,-0.1991717,-19.20141,-25.73237,35.39594
102.700000763,2.548259,38.47105,6.10644200000002,0.9935192,0.004104621,-0.2246391,-19.20141,-25.73237,35.39594
102.709859371,-0.4333048,38.64957,6.53556299999999,0.9654422,0.005132064,-0.2735878,-19.20141,-25.73237,35.39594
102.719717503,-3.104289,36.26922,7.209896,0.9526663,-0.05149594,-0.291614,-19.57346,-26.03485,35.40101
102.729575634,-2.421014,35.07904,9.47810600000002,0.9567675,-0.07714863,-0.2645746,-19.57346,-26.03485,35.40101
102.739434242,-1.11658,34.60297,10.58156,0.9724286,-0.06515535,-0.217735,-19.57346,-26.03485,35.40101
102.751756668,-3.166405,33.71033,9.47810600000002,0.9718851,-0.06162237,-0.1827159,-19.57346,-26.03485,35.40101
102.761614799,-2.731594,33.35328,8.31335000000002,0.9772409,-0.08146405,-0.1661877,-19.57346,-26.03485,35.40101
102.771473408,0.1878543,33.76984,8.37465300000002,0.9874805,-0.09296487,-0.1429499,-21.38748,-25.71878,34.57502
102.781331062,3.914809,35.31707,8.25204699999997,0.9913661,-0.06755038,-0.1226645,-21.38748,-25.71878,34.57502
102.791189671,6.52367699999999,37.10234,7.884229,1.003351,-0.04212397,-0.1183079,-21.38748,-25.71878,34.57502
102.801047802,5.90251800000002,39.4827,7.884229,1.002633,-0.02119984,-0.1166835,-21.38748,-25.71878,34.57502
102.81090641,1.554404,39.89927,8.43595600000002,0.9982775,-0.004896121,-0.1706333,-21.38748,-25.71878,34.57502
102.820764065,-3.787564,37.99498,8.25204699999997,0.9812979,-0.02613616,-0.2146569,-22.51941,-25.35461,33.36079
102.830622196,-4.843535,36.20971,8.55856200000001,0.9655418,-0.04813895,-0.2055133,-22.51941,-25.35461,33.36079
102.840480804,-5.278347,33.59132,8.68116799999999,0.9570667,-0.08460456,-0.1774275,-22.51941,-25.35461,33.36079
102.850338936,-4.532956,31.03243,8.55856200000001,0.9679105,-0.1315736,-0.1410801,-22.51941,-25.35461,33.36079
102.860197544,-0.2469571,29.24716,8.49725900000001,0.9841449,-0.1503103,-0.1151136,-22.51941,-25.35461,33.36079
102.870055199,6.088866,29.00913,7.63901700000002,0.9905704,-0.1443764,-0.1050919,-23.28209,-24.25935,32.07306
102.87991333,12.30046,28.89011,6.90338100000002,0.9811203,-0.1235093,-0.09807232,-23.28209,-24.25935,32.07306
102.889771938,15.9653,28.59256,5.98383599999998,0.976332,-0.09045888,-0.09724595,-23.28209,-24.25935,32.07306
102.899629593,15.28202,28.47355,5.125594,0.9730711,-0.04321977,-0.07954963,-23.28209,-24.25935,32.07306
102.909488201,10.00217,28.35453,4.083443,0.9754347,-0.01099867,-0.05726821,-23.28209,-24.25935,32.07306
102.921811104,-1.799855,27.93797,3.347807,0.9865491,-0.009473355,-0.06603934,-24.41127,-23.88984,31.2429
102.931668758,-10.80666,26.56926,2.428262,0.9964102,-0.03035841,-0.07881531,-24.41127,-23.88984,31.2429
102.941527367,-17.2046,25.97417,1.263505,0.997498,-0.05717103,-0.09439149,-24.41127,-23.88984,31.2429
102.951385498,-18.69538,26.09319,0.4052633,1.006161,-0.1024035,-0.1087935,-24.41127,-23.88984,31.2429
102.961244106,-15.52747,25.73614,0.2213543,0.9977869,-0.1331168,-0.1041413,-24.41127,-23.88984,31.2429
102.971101761,-10.93089,25.08154,0.3439603,0.9930373,-0.1554428,-0.07742689,-25.53597,-24.25573,30.48431
102.980959892,-5.091999,24.72448,0.4665663,0.9854614,-0.1627639,-0.06540071,-25.53597,-24.25573,30.48431
102.990818501,0.7468976,23.59381,0.4665663,0.9855057,-0.1505456,-0.05140145,-25.53597,-24.25573,30.48431
103.000676632,4.598084,22.40364,-0.5142817,0.9853142,-0.134977,-0.05174652,-25.53597,-24.25573,30.48431
103.01053524,7.76599600000002,20.91591,-0.820796699999998,0.9854887,-0.1315097,-0.03590617,-25.53597,-24.25573,30.48431
103.020392895,11.24449,19.54721,-1.004706,0.9845525,-0.1251594,-0.02721364,-25.54396,-23.89916,29.64835
103.030251026,13.85336,17.99997,-1.066009,0.9843864,-0.1056776,-0.02225487,-25.54396,-23.89916,29.64835
103.040109634,16.83492,16.8098,-1.066009,0.9901718,-0.0919795,-0.01647133,-25.54396,-23.89916,29.64835
103.049967289,19.44379,15.67913,-1.433827,0.9885421,-0.07006853,-0.009075195,-25.54396,-23.89916,29.64835
103.059825897,19.38167,14.1914,-1.924251,0.993242,-0.0665272,0.01580608,-25.54396,-23.89916,29.64835
103.069684029,18.07724,12.88221,-2.537281,0.9913508,-0.06213179,0.02449571,-25.91769,-23.89485,29.65029
103.07954216,15.03356,11.21596,-2.414675,0.9841623,-0.04227205,0.01709858,-25.91769,-23.89485,29.65029
103.089400768,9.940053,10.02578,-2.353372,0.9796869,-0.0350084,0.01818207,-25.91769,-23.89485,29.65029
103.101723194,4.722316,9.07363399999999,-1.679039,0.9816295,-0.03987739,0.0128421,-25.91769,-23.89485,29.65029
103.111581802,2.299795,8.00247400000002,-0.820796699999998,0.9810529,-0.02867739,0.01629923,-26.66916,-23.14992,29.64661
103.121439457,-1.551391,6.51475000000002,-0.5755847,0.9798645,-0.008240428,0.01888464,-26.66916,-23.14992,29.64661
103.131297588,-6.58278100000001,5.027027,-0.636887700000001,0.981154,-0.005348894,0.008348279,-26.66916,-23.14992,29.64661
103.141156197,-11.30359,3.598812,-0.759493700000002,0.9783219,-0.02389812,-0.0003934912,-26.66916,-23.14992,29.64661
103.151014328,-14.8442,2.468142,-0.698190700000002,0.9854646,-0.04816492,-0.0002208911,-26.66916,-23.14992,29.64661
103.160872936,-15.90017,1.873053,-0.5142817,0.9861963,-0.07738502,-0.008145111,-26.66916,-23.14992,29.64661
103.170730591,-13.85034,1.45649,-0.3303727,0.9915921,-0.08856239,-0.01694193,-26.29665,-23.52862,29.20035
103.180588722,-10.43397,0.861401000000002,-0.3916757,1.002647,-0.1088891,-0.01343744,-26.29665,-23.52862,29.20035
103.190447331,-5.96162199999998,0.623365200000003,-0.4529787,1.011374,-0.1205508,-0.02947383,-26.29665,-23.52862,29.20035
103.200304985,-2.110435,-0.0907419500000001,-0.3303727,1.007347,-0.1191534,-0.03659262,-26.29665,-23.52862,29.20035
103.210163593,1.802868,-0.626322399999998,-0.3916757,1.00269,-0.1065708,-0.04408726,-26.29665,-23.52862,29.20035
103.220021725,4.6602,-1.518956,-0.2690697,0.9895099,-0.09008019,-0.02746745,-26.2974,-23.90211,28.82004
103.229879856,6.52367699999999,-2.292573,-0.2690697,0.9826634,-0.08525796,-0.02301638,-26.2974,-23.90211,28.82004
103.239738464,8.01446000000001,-2.768644,-0.5142817,0.9709773,-0.08534642,-0.01901698,-26.2974,-23.90211,28.82004
103.249596119,8.44927100000001,-3.601769,-0.759493700000002,0.9758394,-0.07847642,-0.0151947,-26.2974,-23.90211,28.82004
103.259454727,8.57350299999998,-3.839805,-0.759493700000002,0.9943959,-0.07587997,-0.01543726,-26.2974,-23.90211,28.82004
103.27177763,7.08272099999998,-3.601769,-0.698190700000002,1.00993,-0.06649908,-0.0160587,-26.30263,-23.5402,28.36817
103.281635284,4.846548,-3.185207,-0.698190700000002,1.021489,-0.06009997,-0.02383663,-26.30263,-23.5402,28.36817
103.291493893,2.486143,-2.530608,-0.882099699999998,1.024499,-0.0543293,-0.04922839,-26.30263,-23.5402,28.36817
103.301352024,0.995361299999998,-2.411591,-0.698190700000002,1.017017,-0.05590003,-0.061115,-26.30263,-23.5402,28.36817
103.311210632,0.622665799999999,-1.816501,-0.2690697,1.008302,-0.070599,-0.06734443,-26.66636,-24.2606,29.20982
103.321068287,0.995361299999998,-1.102394,0.1600513,0.9996926,-0.07989732,-0.06107061,-26.66636,-24.2606,29.20982
103.330926418,0.995361299999998,-0.5073045,0.1600513,1.000661,-0.07305619,-0.05575549,-26.66636,-24.2606,29.20982
103.340785027,1.057477,0.2663116,0.3439603,1.005003,-0.0613173,-0.0499679,-26.66636,-24.2606,29.20982
103.350642681,0.684781700000003,0.861401000000002,0.4052633,1.002652,-0.05887064,-0.04080896,-26.66636,-24.2606,29.20982
103.360501289,-0.930232099999998,1.635017,0.650475300000002,1.000756,-0.05789428,-0.0355025,-26.66636,-24.2606,29.20982
103.370359421,-2.48313,2.230106,1.018293,1.007476,-0.05152336,-0.03937811,-26.29263,-24.26492,29.20789
103.380218029,-4.098144,2.646669,1.140899,1.015172,-0.05490881,-0.05197556,-26.29263,-24.26492,29.20789
103.390076161,-5.52681,3.539303,1.692626,1.02592,-0.0631175,-0.0603444,-26.29263,-24.26492,29.20789
103.399933815,-5.52681,4.193902,1.815232,1.018218,-0.08072734,-0.06661284,-26.29263,-24.26492,29.20789
103.409792423,-4.16026,5.027027,2.244353,1.013061,-0.09242842,-0.0604085,-26.29263,-24.26492,29.20789
103.419650555,-2.421014,5.86015200000001,2.305656,1.003371,-0.09200009,-0.05307879,-26.29263,-24.26492,29.20789
103.429509163,-0.930232099999998,6.33622300000002,2.121747,0.9985501,-0.08909395,-0.04531835,-26.29263,-24.26492,29.20789
103.439366818,0.1257384,6.87180399999998,1.876535,0.99418,-0.08961185,-0.04334364,-26.29263,-24.26492,29.20789
103.45168972,0.995361299999998,6.99082100000003,1.999141,1.003489,-0.08708417,-0.0401006,-26.29263,-24.26492,29.20789
103.461548329,1.9271,7.34787499999998,2.244353,1.006535,-0.08653834,-0.03151381,-25.92166,-24.27458,28.82188
103.471405983,2.98307,7.40738400000002,2.428262,1.009217,-0.08986717,-0.01720414,-25.92166,-24.27458,28.82188
103.481264591,3.542114,7.52640199999998,2.305656,1.000899,-0.08750002,-0.01514882,-25.92166,-24.27458,28.82188
103.491122723,3.976925,7.58591100000003,2.060444,0.9929885,-0.07929336,-0.01400841,-25.92166,-24.27458,28.82188
103.500980854,4.225389,7.05033000000001,1.815232,0.9949783,-0.07438435,-0.007286552,-25.92166,-24.27458,28.82188
103.510839462,4.287505,6.57425900000001,1.876535,0.9921436,-0.07291702,0.001391822,-27.0521,-23.16342,28.36826
103.520697117,3.976925,5.681625,2.305656,0.9893364,-0.0704654,0.01295331,-27.0521,-23.16342,28.36826
103.530555725,3.417882,4.610464,2.428262,0.9915743,-0.06499741,0.03836513,-27.0521,-23.16342,28.36826
103.540413857,1.057477,3.896357,2.428262,0.9918646,-0.05430881,0.03318,-27.0521,-23.16342,28.36826
103.550271511,-2.234666,3.241758,1.631323,0.9970984,-0.05625605,0.02062979,-27.0521,-23.16342,28.36826
103.560130119,-4.532956,2.58716,1.386111,1.004903,-0.07425742,0.003115452,-26.67314,-23.52965,28.8182
103.569988251,-5.154115,2.170598,1.263505,1.01368,-0.09225203,-0.01489188,-26.67314,-23.52965,28.8182
103.579846859,-3.042173,1.635017,1.999141,1.009357,-0.1049623,-0.02020873,-26.67314,-23.52965,28.8182
103.589704513,-1.489275,1.277964,2.121747,1.012277,-0.09712888,-0.01443384,-26.67314,-23.52965,28.8182
103.599563122,-1.240812,1.575508,1.815232,1.010394,-0.08736068,-0.0004277825,-26.67314,-23.52965,28.8182
103.609421253,-1.675623,1.813544,1.508717,0.9965091,-0.07972381,-0.007353432,-26.67314,-23.52965,28.8182
103.621743679,-2.17255,2.05158,1.386111,0.9978316,-0.08072861,-0.01888155,-27.80031,-23.52828,27.99182
103.631602287,-1.178696,2.408633,1.753929,1.003212,-0.08458689,-0.02234519,-27.80031,-23.52828,27.99182
103.641460419,0.622665799999999,2.884705,1.876535,1.002344,-0.09384049,-0.02241091,-27.80031,-23.52828,27.99182
103.651319027,1.430173,3.182249,2.121747,1.009838,-0.09714855,-0.01392005,-27.80031,-23.52828,27.99182
103.661177158,1.989216,3.71783,1.876535,1.015533,-0.1005642,-0.02984362,-27.05009,-23.53157,28.37204
103.671034813,3.542114,3.777339,1.876535,1.013003,-0.1001214,-0.03555423,-27.05009,-23.53157,28.37204
103.680893421,5.778286,3.955866,1.876535,1.001341,-0.1016678,-0.03108827,-27.05009,-23.53157,28.37204
103.690751553,7.57964799999999,4.015375,2.121747,0.9966896,-0.107013,-0.01812869,-27.05009,-23.53157,28.37204
103.700610161,9.31889399999997,3.658321,2.305656,0.9992537,-0.1059812,-0.008572545,-27.05009,-23.53157,28.37204
103.710467815,9.81582200000001,3.658321,2.244353,0.999732,-0.1001213,-0.004217112,-27.79554,-23.89108,28.37967
103.720325947,10.4991,3.479794,2.305656,1.002464,-0.08745926,-0.007982789,-27.79554,-23.89108,28.37967
103.730184555,10.99602,3.301267,2.550868,1.003932,-0.0781698,0.0002210736,-27.79554,-23.89108,28.37967
103.740042686,9.81582200000001,3.479794,2.979989,1.005297,-0.0684216,0.001242291,-27.79554,-23.89108,28.37967
103.749901295,8.01446000000001,3.420285,3.225201,1.002785,-0.05625638,0.007131152,-27.79554,-23.89108,28.37967
103.759758949,5.654055,3.122741,3.40911,1.00088,-0.05674719,0.01050856,-27.42382,-23.52725,28.37397
103.769617557,3.976925,3.360776,3.715625,0.9998953,-0.06115171,0.006172627,-27.42382,-23.52725,28.37397
103.779475689,3.107302,3.360776,3.899534,0.9979505,-0.06653614,0.002321309,-27.42382,-23.52725,28.37397
103.789333343,2.98307,3.241758,3.838231,1.000762,-0.07484528,-0.01408167,-27.42382,-23.52725,28.37397
103.801656723,4.846548,3.420285,3.715625,1.021495,-0.08570413,0.02578395,-27.42382,-23.52725,28.37397
103.811514854,5.84040200000001,5.324571,4.206049,1.007817,-0.09167845,0.02209487,-27.79834,-22.78041,28.81646
103.821373463,6.83425699999999,3.539303,4.573867,0.9780647,-0.094494,-0.009611201,-27.79834,-22.78041,28.81646
103.831231117,8.51138700000002,1.873053,5.2482,0.9851974,-0.1124167,-0.004592923,-27.79834,-22.78041,28.81646
103.841089249,10.68544,1.873053,6.10644200000002,0.9960594,-0.1093636,0.005341223,-27.79834,-22.78041,28.81646
103.850947857,13.04585,1.218455,6.47426,0.9984975,-0.1098323,0.004344117,-27.79834,-22.78041,28.81646
103.860805511,16.08953,0.742383099999999,6.71947199999998,1.000037,-0.1093106,0.01007697,-28.17407,-22.40794,28.81462
103.87066412,18.38782,-0.03123301,7.08729000000001,0.999205,-0.1161127,0.01482342,-28.17407,-22.40794,28.81462
103.880522251,21.30726,-0.983376000000002,7.33250199999999,0.9976754,-0.1273726,0.000374211,-28.17407,-22.40794,28.81462
103.890380383,23.72979,-1.87601,7.70032000000001,1.003941,-0.1239255,-0.003519595,-28.17407,-22.40794,28.81462
103.900238991,27.20828,-2.352082,8.12944099999998,1.015863,-0.1315814,0.00295467,-28.17407,-22.40794,28.81462
103.910096645,30.68677,-3.00668,8.619865,1.007126,-0.1262694,0.01270801,-28.5458,-22.77177,28.82032
103.919955254,35.097,-3.720787,8.92637999999998,0.9868599,-0.1123481,0.009759944,-28.5458,-22.77177,28.82032
103.929813385,38.01645,-5.327528,9.17159200000001,0.9772765,-0.1016366,0.0339469,-28.5458,-22.77177,28.82032
103.939671993,39.32088,-7.05328699999998,8.98768300000003,0.9671388,-0.09534209,0.0494789,-28.5458,-22.77177,28.82032
103.949529648,38.82396,-9.1361,8.92637999999998,0.9726287,-0.1001457,0.05319371,-28.5458,-22.77177,28.82032
103.959387779,38.26491,-10.62382,9.11028900000002,0.9953233,-0.1208854,0.04886163,-28.17412,-21.29192,29.63548
103.971711159,39.383,-10.38579,9.17159200000001,1.032848,-0.1459804,0.01600866,-28.17412,-21.29192,29.63548
103.981568813,41.86764,-9.255117,9.11028900000002,1.039386,-0.1567493,-0.01628177,-28.17412,-21.29192,29.63548
103.991427422,46.0294,-8.54101000000001,9.04898499999999,1.040545,-0.1538949,-0.03640058,-28.17412,-21.29192,29.63548
104.001285553,49.57001,-8.957573,8.619865,1.011874,-0.143355,-0.01290142,-28.17412,-21.29192,29.63548
104.011143208,49.01097,-9.19560800000002,8.37465300000002,0.9976549,-0.1410488,-0.0131585,-28.17813,-20.55562,29.62794
104.021001816,47.64442,-9.55266200000002,7.82292600000001,0.9802913,-0.1101581,-0.0394855,-28.17813,-20.55562,29.62794
104.030859947,44.47651,-8.89806400000002,7.57771400000002,0.97769,-0.0882539,-0.03159637,-28.17813,-20.55562,29.62794
104.040718555,39.13454,-7.767395,7.70032000000001,0.9837399,-0.09352119,-0.02310146,-28.17813,-20.55562,29.62794
104.050576687,35.40758,-6.815251,7.70032000000001,1.001042,-0.1138235,-0.0278322,-28.17813,-20.55562,29.62794
104.060434341,34.16526,-5.565564,7.45510799999998,1.016361,-0.134639,-0.034935,-28.54793,-19.05555,31.27915
104.07029295,34.72431,-4.732439,6.96468400000001,1.02536,-0.1564761,-0.04003953,-28.54793,-19.05555,31.27915
104.080151081,36.58778,-3.363734,6.04513899999997,1.006863,-0.1761436,-0.05048427,-28.54793,-19.05555,31.27915
104.090009689,40.62532,-2.411591,5.616018,1.004118,-0.1630684,-0.06087719,-28.54793,-19.05555,31.27915
104.099867344,44.29016,-1.399938,5.738624,1.007621,-0.153251,-0.04646829,-28.54793,-19.05555,31.27915
104.109725952,45.78094,-1.280921,4.941685,0.9991871,-0.1541995,-0.02000012,-27.80374,-17.9544,31.64806
104.119584084,46.83691,-0.4477956,4.63517,0.9924747,-0.181562,-0.03403215,-27.80374,-17.9544,31.64806
104.129442215,49.01097,-0.5668135,4.083443,0.9875335,-0.2015015,-0.01927482,-27.80374,-17.9544,31.64806
104.141765118,51.24714,-1.578465,2.428262,0.9938885,-0.2253696,-0.0406516,-27.80374,-17.9544,31.64806
104.151623249,56.27853,-2.173555,2.244353,0.999305,-0.2443526,-0.05478579,-27.80374,-17.9544,31.64806
104.161481857,63.23551,-2.828153,2.366959,0.9999653,-0.2169588,-0.01814486,-27.05833,-16.47886,32.46129
104.171339989,68.0184300000002,-2.828153,2.060444,0.9947515,-0.1798535,0.02680814,-27.05833,-16.47886,32.46129
104.181197643,68.2047800000001,-2.173555,0.4665663,0.9894701,-0.1189796,0.05183633,-27.05833,-16.47886,32.46129
104.191056252,60.4403000000001,-1.756992,-1.311221,0.9932004,-0.0849565,0.03242312,-27.05833,-16.47886,32.46129
104.200914383,52.98639,-1.34043,-3.150311,0.9816824,-0.06902069,0.02697137,-27.05833,-16.47886,32.46129
104.210772991,45.03555,-1.518956,-4.008553,0.9769129,-0.08807,0.0192114,-27.81072,-15.05364,32.83479
104.220630646,41.30859,-0.983376000000002,-3.272917,0.9750283,-0.1183368,-0.002101954,-27.81072,-15.05364,32.83479
104.230489254,39.7557,-1.459447,-2.843796,0.9630097,-0.1008087,0.02888603,-27.81072,-15.05364,32.83479
104.240347385,36.2772,-2.768644,-3.089008,0.9752601,-0.09825338,0.0325666,-27.81072,-15.05364,32.83479
104.250205517,32.55025,-3.244716,-3.824643,0.9786755,-0.07394944,0.01738864,-27.81072,-15.05364,32.83479
104.260064125,25.53115,-4.732439,-4.9894,0.9675885,-0.07449046,0.02904288,-27.44381,-13.21099,33.2621
104.26992178,18.82263,-6.10114400000001,-5.663733,0.9701142,-0.1245982,0.02666721,-27.44381,-13.21099,33.2621
104.279780388,16.7728,-6.33917999999999,-5.173309,0.9873786,-0.1608877,0.04097007,-27.44381,-13.21099,33.2621
104.289638519,17.58031,-7.11279600000002,-5.725037,0.9846758,-0.1502416,0.03151445,-27.44381,-13.21099,33.2621
104.299497128,19.75437,-7.64837600000001,-6.399369,0.9890916,-0.1327579,0.01195189,-27.44381,-13.21099,33.2621
104.309354782,19.8786,-8.24346499999998,-7.135005,0.992405,-0.1020009,0.03085301,-27.43507,-13.19406,34.47836
104.321677685,16.71069,-8.957573,-7.99324800000002,1.006141,-0.08016885,-0.01899525,-27.43507,-13.19406,34.47836
104.331536293,13.10796,-10.80235,-8.79018599999998,1.005597,-0.0634537,0.02763591,-27.43507,-13.19406,34.47836
104.341393948,8.94619800000002,-10.20726,-8.85148899999998,1.007493,-0.05941262,0.06262455,-27.43507,-13.19406,34.47836
104.351252556,6.83425699999999,-9.90971599999998,-9.83233700000002,0.9836244,-0.02213784,0.06711292,-27.43507,-13.19406,34.47836
104.361110687,2.299795,-10.98088,-12.22315,0.9666436,-0.02615513,0.07402982,-27.81436,-12.08441,34.53299
104.370968342,-5.402578,-11.27842,-13.75573,0.959913,-0.09914577,0.09028174,-27.81436,-12.08441,34.53299
104.38082695,-10.1855,-12.4686,-14.18485,0.9657602,-0.1622168,-0.00281938,-27.81436,-12.08441,34.53299
104.390685082,-7.07970800000002,-15.1465,-13.69443,0.9693469,-0.1930336,-0.05392572,-27.81436,-12.08441,34.53299
104.40054369,0.622665799999999,-16.69374,-11.61012,0.987968,-0.2243243,-0.007493639,-27.81436,-12.08441,34.53299
104.410401821,9.69158900000001,-16.81275,-10.99709,1.004104,-0.1662194,0.007142726,-26.31267,-12.83262,34.91689
104.420260429,14.47451,-18.30048,-13.81703,1.001298,-0.08640989,0.01504426,-26.31267,-12.83262,34.91689
104.430118084,12.67315,-19.37164,-17.37261,0.9889966,-0.05773326,0.03510877,-26.31267,-12.83262,34.91689
104.439976215,4.970779,-20.14525,-19.3343,0.9852382,-0.08945841,0.01860182,-26.31267,-12.83262,34.91689
104.449834824,-0.0606093299999997,-20.85936,-19.3343,0.9866517,-0.1036194,0.002169386,-26.31267,-12.83262,34.91689
104.459692478,-1.613507,-22.40659,-19.76342,0.9826103,-0.09894343,-0.03894471,-25.93295,-12.82536,35.74714
104.469551087,-1.551391,-25.44155,-20.13124,0.9588967,-0.101794,-0.09421792,-25.93295,-12.82536,35.74714
104.479409218,0.684781700000003,-29.54766,-20.25385,0.9603529,-0.1172724,-0.07280533,-25.93295,-12.82536,35.74714
104.491731644,3.914809,-32.04704,-19.94733,0.9735934,-0.1265051,0.02899752,-25.93295,-12.82536,35.74714
104.501590252,6.399446,-31.51146,-19.88603,0.9922714,-0.0862806,0.07076114,-25.93295,-12.82536,35.74714
104.511448383,4.722316,-30.55932,-20.56036,0.9888315,-0.02520433,0.01573848,-24.43206,-12.83104,36.57159
104.521306992,0.684781700000003,-30.26177,-21.2347,0.9807974,-0.005097529,-0.05346125,-24.43206,-12.83104,36.57159
104.531164646,-1.551391,-31.15441,-20.43776,0.9609641,0.01090005,-0.022854,-24.43206,-12.83104,36.57159
104.541023255,-4.967767,-31.33293,-19.02779,0.9818774,0.03191019,-0.04933072,-24.43206,-12.83104,36.57159
104.550881386,-10.86878,-31.92802,-19.08909,0.9895793,0.04574935,-0.01050854,-24.43206,-12.83104,36.57159
104.560739517,-15.83805,-32.28507,-18.90518,1.005082,0.03852157,-0.02804168,-23.6746,-13.56438,37.40745
104.570598125,-21.8633,-32.58262,-19.2117,1.005857,-0.0398621,-0.04021501,-23.6746,-13.56438,37.40745
104.58045578,-23.85101,-30.55932,-17.43391,1.008069,-0.1307174,-0.1373324,-23.6746,-13.56438,37.40745
104.590314388,-15.83805,-28.77405,-15.59482,1.008701,-0.1193602,-0.2244598,-23.6746,-13.56438,37.40745
104.60017252,-6.83124400000003,-29.25012,-14.55267,1.000598,-0.09167923,-0.2202772,-23.6746,-13.56438,37.40745
104.610031128,-0.619652599999999,-29.7857,-14.18485,1.006223,-0.0632451,-0.1774686,-21.79521,-13.93719,38.61782
104.619888782,0.4984339,-29.72619,-15.84003,1.007023,-0.01251165,-0.1459039,-21.79521,-13.93719,38.61782
104.629746914,-3.414869,-28.83356,-17.12739,1.023685,-0.004814667,-0.2088515,-21.79521,-13.93719,38.61782
104.639605522,-6.085854,-29.66668,-16.94349,1.000695,-0.01513545,-0.1817758,-21.79521,-13.93719,38.61782
104.649463653,-7.20393999999998,-28.53601,-15.65612,1.002303,0.02864037,-0.06115022,-21.79521,-13.93719,38.61782
104.661786556,-13.85034,-26.69124,-16.02394,1.002995,0.1526595,-0.08071901,-21.78797,-14.66724,39.07346
104.671644688,-25.21756,-26.03664,-16.63697,0.986212,0.1577046,-0.123086,-21.78797,-14.66724,39.07346
104.681502819,-35.34245,-24.90597,-14.73658,0.9956703,0.1081697,-0.1188468,-21.78797,-14.66724,39.07346
104.691361427,-40.93288,-24.07284,-12.16185,0.998798,0.1061625,-0.1423891,-21.78797,-14.66724,39.07346
104.701219082,-44.28714,-23.47775,-11.0584,0.9833782,0.08216755,-0.1462055,-21.78797,-14.66724,39.07346
104.71107769,-45.09465,-24.4894,-9.70973100000003,0.992826,0.0170064,-0.156474,-20.72108,-15.03604,39.90394
104.720935821,-40.68441,-25.44155,-7.870641,0.9960915,-0.01913737,-0.1999535,-20.72108,-15.03604,39.90394
104.73079443,-32.54723,-26.39369,-5.663733,1.000313,-0.05110258,-0.1696147,-20.72108,-15.03604,39.90394
104.740652084,-23.78889,-27.34583,-4.131158,1.008447,-0.0319049,-0.1302743,-20.72108,-15.03604,39.90394
104.750510216,-17.32883,-26.03664,-3.395523,0.9995906,0.005949039,-0.1365374,-20.72108,-15.03604,39.90394
104.760368824,-14.65785,-23.89432,-3.027704,1.010623,0.03780378,-0.2322657,-18.84395,-17.21138,39.46818
104.770226479,-14.09881,-24.01333,-1.740342,0.97747,0.02484704,-0.2352569,-18.84395,-17.21138,39.46818
104.780085087,-14.71996,-23.1207,-0.4529787,0.9824408,0.04346548,-0.2131274,-18.84395,-17.21138,39.46818
104.789943218,-17.94999,-22.10905,0.1600513,0.9768338,0.06141781,-0.2138544,-18.84395,-17.21138,39.46818
104.799801826,-19.9377,-22.28757,0.3439603,0.9971268,0.06556862,-0.1930238,-18.84395,-17.21138,39.46818
104.809659958,-22.91927,-22.04954,-0.5142817,0.9944894,0.05537478,-0.1801339,-18.09448,-17.58816,39.46809
104.819518566,-24.41005,-19.72869,-0.636887700000001,0.9991369,0.08477718,-0.1363448,-18.09448,-17.58816,39.46809
104.829376221,-31.6155,-17.34833,-1.617736,0.9926556,0.06697476,-0.1967818,-18.09448,-17.58816,39.46809
104.841699123,-37.45439,-15.97963,-1.127312,0.9924836,-0.02193157,-0.2876192,-18.09448,-17.58816,39.46809
104.851557732,-33.29262,-15.02748,0.773081200000001,0.9848912,-0.05255706,-0.2614135,-18.09448,-17.58816,39.46809
104.861415386,-28.82028,-13.00418,1.57002,1.014698,-0.05767285,-0.2685903,-18.08846,-18.69261,39.4794
104.871273994,-23.85101,-10.98088,1.508717,1.007693,-0.08072483,-0.3003121,-18.08846,-18.69261,39.4794
104.881132126,-16.21075,-9.433644,1.386111,1.009596,-0.07792866,-0.3376932,-18.08846,-18.69261,39.4794
104.89098978,-8.943185,-8.42199199999999,0.895687200000003,0.9877491,-0.05220003,-0.3026623,-18.08846,-18.69261,39.4794
104.900848389,-3.663332,-6.517707,-0.2077667,0.9970176,-0.02416106,-0.2440955,-18.08846,-18.69261,39.4794
104.91070652,-2.17255,-4.613421,-2.292068,1.008859,0.004506725,-0.2833166,-17.70272,-19.78979,40.32096
104.920565128,-0.930232099999998,-3.661278,-3.702038,0.995536,-0.01761321,-0.311107,-17.70272,-19.78979,40.32096
104.93042326,0.809013499999997,-2.173555,-3.702038,1.010186,-0.01819662,-0.2418368,-17.70272,-19.78979,40.32096
104.940281868,-0.619652599999999,0.742383099999999,-3.824643,1.018105,0.02556894,-0.2684155,-17.70272,-19.78979,40.32096
104.950139523,-2.980057,2.884705,-4.253765,1.009826,0.01867067,-0.2717101,-17.70272,-19.78979,40.32096
104.959998131,-6.83124400000003,5.086535,-5.173309,1.011118,0.002169034,-0.2632422,-17.32698,-20.16225,40.3228
104.969856262,-9.56434400000003,7.34787499999998,-6.03155100000003,1.027591,-0.03944612,-0.2398682,-17.32698,-20.16225,40.3228
104.979713917,-7.63875099999998,10.38283,-6.88979300000002,1.06845,-0.06559561,-0.1726249,-17.32698,-20.16225,40.3228
104.989572525,-1.178696,15.79814,-8.17715599999997,1.112329,-0.06861303,-0.04293355,-17.32698,-20.16225,40.3228
104.999430656,5.095011,22.70118,-11.73273,1.129017,-0.01634465,-0.0288335,-17.32698,-20.16225,40.3228
105.011754036,11.3066,26.09319,-17.98564,1.059515,-0.02572849,-0.2905234,-17.32376,-20.15601,40.77089
105.021611691,21.80419,25.20056,-20.13124,0.9895262,-0.08996254,-0.3849495,-17.32376,-20.15601,40.77089
105.031469822,30.25196,23.77234,-19.45691,0.9672025,-0.08731661,-0.4052145,-17.32376,-20.15601,40.77089
105.04132843,36.96048,22.87971,-17.74042,0.9619241,-0.0767292,-0.4242179,-17.32376,-20.15601,40.77089
105.051186085,44.66285,21.57051,-15.90133,0.957436,-0.08091624,-0.3623726,-17.32376,-20.15601,40.77089
105.061044693,48.82462,22.76069,-15.2883,0.9772848,-0.0734745,-0.3712183,-18.08118,-20.53869,39.11417
105.070902824,53.91813,23.83185,-13.57182,0.9384085,-0.09012912,-0.4383719,-18.08118,-20.53869,39.11417
105.080761433,60.5024099999999,22.76069,-10.38406,0.9315578,-0.0694145,-0.3484891,-18.08118,-20.53869,39.11417
105.090619564,62.8628199999999,24.36743,-7.68673200000001,0.9721389,0.05313079,-0.2066694,-18.08118,-20.53869,39.11417
105.100477219,58.26624,26.86681,-7.68673200000001,0.9774123,0.1814162,-0.1376157,-18.08118,-20.53869,39.11417
105.110335827,48.07923,28.176,-10.38406,0.9624853,0.2461487,-0.09899983,-18.82989,-19.78842,39.49457
105.120193958,35.22123,28.35453,-12.89749,0.9555508,0.2667042,-0.05128678,-18.82989,-19.78842,39.49457
105.130052567,21.49361,27.87846,-14.49137,0.9638855,0.2722888,-0.00918889,-18.82989,-19.78842,39.49457
105.139910221,9.31889399999997,26.92631,-15.04309,0.9701408,0.2607332,0.008834015,-18.82989,-19.78842,39.49457
105.149768829,0.436318,25.31957,-15.10439,0.9707931,0.2436961,0.005805737,-18.82989,-19.78842,39.49457
105.159626961,-6.02373700000002,23.11774,-14.98179,0.967648,0.1993168,-0.01273355,-18.8347,-18.30959,39.92759
105.169485569,-8.32202600000002,20.73738,-14.18485,0.9565254,0.1445725,-0.05137299,-18.8347,-18.30959,39.92759
105.1793437,-8.197794,18.11899,-12.22315,0.9549406,0.075333,-0.08499949,-18.8347,-18.30959,39.92759
105.191666126,-5.588926,14.13189,-8.85148899999998,0.9525606,0.002231295,-0.1085841,-18.8347,-18.30959,39.92759
105.201524735,-1.302927,11.5135,-5.663733,0.9534139,-0.06685355,-0.1067833,-18.8347,-18.30959,39.92759
105.211382389,5.343475,7.88345500000002,-2.905098,0.9584908,-0.1033744,-0.1253734,-19.21441,-18.31686,39.09734
105.221240997,12.92162,4.788991,-1.249918,0.9619932,-0.1160158,-0.1308012,-19.21441,-18.31686,39.09734
105.231099129,20.62399,1.873053,-0.3303727,0.9720221,-0.08621252,-0.1225463,-19.21441,-18.31686,39.09734
105.24095726,25.53115,0.0877848699999997,-0.3916757,0.9857978,-0.03249909,-0.1055173,-19.21441,-18.31686,39.09734
105.250815868,25.71749,-0.2097598,-1.066009,0.9883031,0.04099137,-0.1082872,-19.21441,-18.31686,39.09734
105.260673523,22.11477,0.1472938,-2.475978,0.9981726,0.102837,-0.1194067,-19.95785,-19.04452,39.10875
105.270532131,13.72912,0.742383099999999,-4.37637,0.991698,0.1460648,-0.1256584,-19.95785,-19.04452,39.10875
105.280390263,3.417882,1.992071,-6.46067199999999,0.9896441,0.1460197,-0.1328175,-19.95785,-19.04452,39.10875
105.290248871,-6.520665,3.301267,-8.91279199999997,0.9825823,0.1244163,-0.1674015,-19.95785,-19.04452,39.10875
105.300106525,-13.2913,3.539303,-11.24231,0.9845098,0.08403766,-0.1692074,-19.95785,-19.04452,39.10875
105.309965134,-16.45921,3.479794,-12.95879,0.9915436,0.03106957,-0.1664003,-19.9579,-17.9285,39.92961
105.319823265,-16.08652,3.777339,-14.30746,0.9905331,0.001405088,-0.158969,-19.9579,-17.9285,39.92961
105.329681397,-13.35341,3.955866,-15.1657,0.9930291,-0.003929466,-0.160008,-19.9579,-17.9285,39.92961
105.339540005,-9.440112,4.431937,-14.85918,0.9879699,0.009649828,-0.1603005,-19.9579,-17.9285,39.92961
105.349397659,-5.89950600000002,4.788991,-14.49137,0.9892068,0.03400837,-0.1557997,-19.9579,-17.9285,39.92961
105.361721039,-2.421014,5.205554,-13.44921,0.9861147,0.05053735,-0.152741,-19.95986,-18.67637,39.10497
105.37157917,-0.619652599999999,5.562607,-12.16185,0.9829505,0.07095153,-0.1515652,-19.95986,-18.67637,39.10497
105.381436825,0.1257384,5.74113399999999,-10.93579,0.9827374,0.08944337,-0.1509269,-19.95986,-18.67637,39.10497
105.391295433,-0.1227252,5.74113399999999,-10.13885,0.9867406,0.09780348,-0.1370166,-19.95986,-18.67637,39.10497
105.401153565,0.001506584,5.86015200000001,-9.40321599999999,0.9925086,0.1129613,-0.1312205,-19.95986,-18.67637,39.10497
105.411012173,0.3120862,5.97916900000001,-9.03539800000002,0.994614,0.1125328,-0.1207118,-19.96785,-18.31981,38.26902
105.420869827,0.871129400000001,5.86015200000001,-8.79018599999998,0.9932612,0.1193877,-0.1062586,-19.96785,-18.31981,38.26902
105.430728436,0.684781700000003,5.800642,-8.36106500000002,0.9873589,0.1276264,-0.101313,-19.96785,-18.31981,38.26902
105.440586567,0.001506584,5.681625,-8.05454999999998,0.982309,0.1387673,-0.1030638,-19.96785,-18.31981,38.26902
105.450445175,-0.619652599999999,5.562607,-7.19630799999999,0.9733094,0.1425397,-0.1139253,-19.96785,-18.31981,38.26902
105.46030283,-0.992348000000001,5.146044,-6.399369,0.9731676,0.1434757,-0.1234993,-19.58412,-19.04884,39.10681
105.470160961,-2.48313,4.729482,-5.418521,0.9723371,0.1464386,-0.1100449,-19.58412,-19.04884,39.10681
105.48001957,-4.098144,4.431937,-4.192461,0.9752339,0.1430361,-0.1158653,-19.58412,-19.04884,39.10681
105.489877701,-5.340462,4.074883,-3.089008,0.9757107,0.1435251,-0.1163472,-19.58412,-19.04884,39.10681
105.499736309,-6.210085,3.539303,-2.046857,0.9773211,0.1391848,-0.109698,-19.58412,-19.04884,39.10681
105.509593964,-6.70701299999998,2.944214,-0.882099699999998,0.9848404,0.1266076,-0.1075153,-20.3348,-19.04644,38.66258
105.519452572,-7.20393999999998,2.289615,0.1600513,0.9928156,0.1267192,-0.09660643,-20.3348,-19.04644,38.66258
105.531775475,-7.762983,1.873053,1.57002,0.9913699,0.1237831,-0.097569,-20.3348,-19.04644,38.66258
105.541633129,-7.88721500000003,1.635017,2.734777,0.9979662,0.1301188,-0.1105479,-20.3348,-19.04644,38.66258
105.551491737,-8.32202600000002,1.45649,4.02214,1.002372,0.1286941,-0.1115812,-20.3348,-19.04644,38.66258
105.561349869,-8.75683700000002,0.920909899999998,5.002988,0.9995564,0.1208904,-0.1096901,-19.95907,-19.4189,38.66442
105.571208477,-9.25376400000003,0.2068027,5.92253299999998,0.9954467,0.1116587,-0.09629183,-19.95907,-19.4189,38.66442
105.581066131,-9.99915599999999,-0.3882866,6.47426,0.9970462,0.1043859,-0.09302162,-19.95907,-19.4189,38.66442
105.59092474,-10.06127,-1.102394,7.33250199999999,0.999525,0.1005111,-0.09404804,-19.95907,-19.4189,38.66442
105.600782871,-9.12953299999997,-1.637974,7.82292600000001,0.9862493,0.09695725,-0.1020352,-19.95907,-19.4189,38.66442
105.610641003,-7.26605599999999,-2.173555,8.12944099999998,0.9788731,0.09199905,-0.1091599,-19.58534,-19.42322,38.66249
105.620499611,-5.651042,-2.649626,8.31335000000002,0.9759861,0.08466341,-0.1120559,-19.58534,-19.42322,38.66249
105.630357265,-4.346608,-2.709135,8.12944099999998,0.9819297,0.08229516,-0.1088062,-19.58534,-19.42322,38.66249
105.640215874,-3.166405,-2.709135,7.884229,0.9838672,0.07840119,-0.1136586,-19.58534,-19.42322,38.66249
105.650074005,-2.17255,-2.590117,7.70032000000001,0.9838655,0.06424214,-0.1262373,-19.58534,-19.42322,38.66249
105.659932613,-0.806000300000003,-2.649626,7.08729000000001,0.9859492,0.0579487,-0.1224865,-19.95384,-19.78082,39.11628
105.669790268,0.4984339,-2.590117,6.90338100000002,0.9942781,0.0546084,-0.1245502,-19.95384,-19.78082,39.11628
105.679648876,1.61652,-2.411591,6.71947199999998,0.9992202,0.0497838,-0.1251406,-19.95384,-19.78082,39.11628
105.689507008,2.113448,-2.530608,6.22904800000001,1.002724,0.05130151,-0.1179897,-19.95384,-19.78082,39.11628
105.699365616,2.299795,-2.352082,5.677321,1.00066,0.04881242,-0.1280445,-19.95384,-19.78082,39.11628
105.711688042,2.548259,-1.935519,5.002988,0.9986197,0.0492595,-0.133762,-20.33355,-19.78808,38.28604
105.721546173,2.672491,-1.399938,4.389958,1.009916,0.04156024,-0.1373424,-20.33355,-19.78808,38.28604
105.731404781,2.98307,-0.983376000000002,3.960838,1.008986,0.03473026,-0.1397828,-20.33355,-19.78808,38.28604
105.741262436,3.355766,-0.4477956,3.838231,1.001105,0.03220435,-0.1459214,-20.33355,-19.78808,38.28604
105.751121044,4.101157,-0.0907419500000001,3.593019,0.999115,0.03168942,-0.1487725,-20.33355,-19.78808,38.28604
105.760979176,4.784432,0.4448385,3.654322,0.9965222,0.05066674,-0.142825,-20.33154,-20.15623,38.28981
105.770837307,4.784432,1.158946,3.531716,0.992986,0.05792785,-0.1446302,-20.33154,-20.15623,38.28981
105.780695915,3.60423,1.575508,2.979989,0.9860073,0.07442982,-0.1395994,-20.33154,-20.15623,38.28981
105.79055357,2.237679,2.05158,2.550868,0.9811057,0.08024243,-0.1351677,-20.33154,-20.15623,38.28981
105.800412178,0.871129400000001,2.706178,1.692626,0.9792463,0.08415869,-0.1245658,-20.33154,-20.15623,38.28981
105.810270309,-0.1227252,3.122741,0.956990100000001,0.9778571,0.08416805,-0.1187955,-20.71129,-19.04747,38.28043
105.820128918,-0.930232099999998,3.896357,0.1600513,0.9883045,0.08040295,-0.1093922,-20.71129,-19.04747,38.28043
105.829986572,-1.551391,4.431937,-0.08516069,1.000066,0.082954,-0.1057047,-20.71129,-19.04747,38.28043
105.83984518,-1.861971,4.550955,0.2826573,0.9961025,0.08827564,-0.1046449,-20.71129,-19.04747,38.28043
105.849703312,-1.986203,4.729482,0.7117782,0.9930154,0.09064743,-0.1136857,-20.71129,-19.04747,38.28043
105.859561443,-2.17255,4.610464,1.202202,0.9910691,0.09307425,-0.1107623,-19.96505,-19.43049,37.83224
105.869420052,-2.731594,4.431937,1.202202,0.9879016,0.09018778,-0.0944487,-19.96505,-19.43049,37.83224
105.881742477,-3.973912,3.955866,1.079596,0.9905106,0.09074415,-0.082022,-19.96505,-19.43049,37.83224
105.891601086,-5.029883,3.539303,1.079596,0.995832,0.09516885,-0.08253971,-19.96505,-19.43049,37.83224
105.90145874,-6.14796899999999,3.063231,0.956990100000001,0.9898878,0.1014427,-0.08240204,-19.96505,-19.43049,37.83224
105.911317348,-7.14182399999997,3.063231,0.7117782,0.9849173,0.1047946,-0.0851781,-20.649,-19.04819,38.28011
105.92117548,-8.69472100000001,2.468142,0.3439603,0.9801703,0.09649271,-0.08182611,-20.649,-19.04819,38.28011
105.931033611,-10.06127,2.05158,0.0987483000000002,0.9831704,0.08384334,-0.08820522,-20.649,-19.04819,38.28011
105.94089222,-10.86878,1.218455,-0.1464637,0.9778669,0.06965923,-0.09495813,-20.649,-19.04819,38.28011
105.950749874,-10.5582,0.682874099999999,0.0987483000000002,0.9823807,0.05313017,-0.1013915,-20.649,-19.04819,38.28011
105.960608482,-9.87492400000003,-0.2692688,0.5278693,0.9809487,0.04629217,-0.1047832,-20.33878,-19.42617,37.83417
105.970466614,-8.38414199999998,-1.34043,1.018293,0.9883002,0.03903763,-0.1102204,-20.33878,-19.42617,37.83417
105.980325222,-6.89335999999998,-1.995028,1.447414,0.9864857,0.03808439,-0.1006186,-20.33878,-19.42617,37.83417
105.990182877,-6.27220100000001,-3.066189,1.508717,0.9924588,0.03816575,-0.09303589,-20.33878,-19.42617,37.83417
106.000041485,-5.588926,-3.839805,1.631323,0.9972174,0.04549448,-0.09639625,-20.33878,-19.42617,37.83417
106.009899616,-5.21623,-4.018332,1.202202,0.9957308,0.05426411,-0.09007147,-21.39567,-19.78209,37.84341
106.019758224,-5.091999,-4.256367,0.834384299999999,0.9974326,0.06690265,-0.09765625,-21.39567,-19.78209,37.84341
106.029616356,-4.843535,-4.613421,0.589172199999998,0.9927944,0.07851394,-0.1046801,-21.39567,-19.78209,37.84341
106.03947401,-5.464694,-4.851457,0.4052633,0.9885121,0.07557987,-0.09841427,-21.39567,-19.78209,37.84341
106.049332619,-6.02373700000002,-5.446546,-0.1464637,0.9860146,0.07993755,-0.0983419,-21.39567,-19.78209,37.84341
106.061655521,-6.45854899999999,-6.04163599999999,-0.3916757,0.9790675,0.08277819,-0.1030109,-20.71251,-19.42185,37.8361
106.07151413,-6.70701299999998,-6.517707,-0.636887700000001,0.9820099,0.07938869,-0.1054775,-20.71251,-19.42185,37.8361
106.081371784,-6.64489700000002,-6.75574299999998,-0.5755847,0.9783911,0.07930285,-0.1198026,-20.71251,-19.42185,37.8361
106.091230392,-6.95547599999999,-7.46984999999998,-0.5755847,0.9739242,0.08803367,-0.11679,-20.71251,-19.42185,37.8361
106.101088524,-7.57663500000003,-8.12444799999999,-0.3916757,0.9724403,0.08557486,-0.120144,-20.71251,-19.42185,37.8361
106.110946178,-7.70086699999999,-8.957573,0.895687200000003,0.9695048,0.07187843,-0.1321978,-21.01671,-20.14832,38.29335
106.120804787,-7.20393999999998,-9.73118899999997,2.244353,0.9714106,0.07285766,-0.1350919,-21.01671,-20.14832,38.29335
106.130662918,-6.70701299999998,-10.4453,2.857383,0.9698329,0.09478348,-0.1238628,-21.01671,-20.14832,38.29335
106.140521526,-7.70086699999999,-10.14775,3.163898,0.9703668,0.09431235,-0.1209991,-21.01671,-20.14832,38.29335
106.150379181,-7.82509900000001,-11.04039,4.02214,0.9632888,0.09223336,-0.1396046,-21.01671,-20.14832,38.29335
106.160237789,-8.88106899999998,-11.99253,5.186897,0.9742138,0.09383978,-0.1263292,-20.70849,-20.15815,37.84364
106.170095921,-9.99915599999999,-12.52811,5.98383599999998,0.9655375,0.09561637,-0.1511089,-20.70849,-20.15815,37.84364
106.179954529,-10.86878,-13.83731,6.65816899999998,0.9653509,0.1020453,-0.1232584,-20.70849,-20.15815,37.84364
106.18981266,-12.79437,-14.37289,6.96468400000001,0.9676654,0.1021646,-0.0969344,-20.70849,-20.15815,37.84364
106.199670315,-13.91246,-15.20601,7.209896,0.9461529,0.1150243,-0.1204792,-20.70849,-20.15815,37.84364
106.209528923,-16.83191,-17.70539,6.47426,0.9317518,0.1304607,-0.1225397,-19.95505,-20.1552,38.67196
106.219387054,-21.42848,-20.4428,6.96468400000001,0.9023978,0.08465972,-0.1987006,-19.95505,-20.1552,38.67196
106.231710434,-22.11176,-24.84646,8.19074399999998,0.880191,0.02316339,-0.1950695,-19.95505,-20.1552,38.67196
106.241568089,-19.56501,-25.44155,10.02983,0.9306695,0.001936065,-0.1355889,-19.95505,-20.1552,38.67196
106.251426697,-13.97457,-24.13235,11.13329,0.9550317,0.0237421,-0.08783219,-19.58408,-20.16486,38.28595
106.261284828,-12.1111,-24.72744,11.07199,1.063535,0.1196627,0.06046191,-19.58408,-20.16486,38.28595
106.271143436,-18.19846,-19.25262,9.84592500000002,1.120064,0.1164155,-0.03046067,-19.58408,-20.16486,38.28595
106.281001091,-20.55886,-18.12195,10.64286,1.072049,0.07943537,-0.1757651,-19.58408,-20.16486,38.28595
106.290859222,-20.80733,-20.79985,13.52411,1.029816,0.02970539,-0.23117,-19.58408,-20.16486,38.28595
106.300717831,-18.32269,-22.34708,17.26359,1.009622,0.01085323,-0.1500565,-19.58408,-20.16486,38.28595
106.310575962,-15.09266,-23.65628,20.63525,1.038413,0.06568749,0.0004645027,-19.20157,-21.26827,38.67941
106.32043457,-13.35341,-21.57347,21.24828,1.042282,0.1637903,-0.06010023,-19.20157,-21.26827,38.67941
106.330292225,-16.83191,-23.53726,19.04137,0.9776399,0.1973222,-0.1786958,-19.20157,-21.26827,38.67941
106.340150833,-23.91312,-25.56057,17.4475,0.9515798,0.1444613,-0.1988969,-19.20157,-21.26827,38.67941
106.350008965,-30.43529,-25.91762,16.77316,0.9548011,0.08088161,-0.1621018,-19.20157,-21.26827,38.67941
106.359867573,-32.48512,-24.90597,17.75401,0.9778445,0.01923032,-0.1768473,-18.8286,-21.64608,38.29716
106.369725227,-29.31721,-25.20351,18.30574,0.9864861,-0.0280964,-0.230561,-18.8286,-21.64608,38.29716
106.379583359,-20.86944,-25.38204,18.73486,0.9872587,-0.08659847,-0.2612553,-18.8286,-21.64608,38.29716
106.389441967,-11.17936,-26.15565,18.98007,1.000652,-0.09570495,-0.2557727,-18.8286,-21.64608,38.29716
106.401764393,-2.980057,-25.50106,17.69271,1.020182,-0.05257834,-0.2207055,-19.1991,-21.63553,38.74719
106.411623001,-0.7438844,-24.4299,16.03753,1.022783,-0.01896004,-0.2156668,-19.1991,-21.63553,38.74719
106.421481133,-1.551391,-23.23972,13.83062,1.001546,0.00751329,-0.2429343,-19.1991,-21.63553,38.74719
106.431339741,-4.967767,-22.22807,11.3785,0.9839745,-0.007766448,-0.2533552,-19.1991,-21.63553,38.74719
106.441197395,-8.25991000000001,-20.85936,9.04898499999999,0.9814448,-0.02427652,-0.2381241,-19.1991,-21.63553,38.74719
106.451055527,-10.06127,-19.07409,7.209896,0.9953411,-0.03288656,-0.2312068,-18.06993,-22.00504,39.57735
106.460914135,-10.5582,-17.52686,5.616018,0.992399,-0.04658485,-0.2437397,-18.06993,-22.00504,39.57735
106.470772266,-10.1855,-16.75324,4.144746,0.9886256,-0.02816214,-0.2531144,-18.06993,-22.00504,39.57735
106.480630875,-10.1855,-16.4557,2.918686,0.9790288,-0.0009899682,-0.2513107,-18.06993,-22.00504,39.57735
106.490488529,-11.92475,-15.38454,1.57002,0.9697322,0.03115011,-0.2231134,-18.06993,-22.00504,39.57735
106.500347138,-15.52747,-13.7778,-0.08516069,0.9861413,0.0322102,-0.2386727,-18.06993,-22.00504,39.57735
106.510205269,-17.14249,-12.88516,-0.882099699999998,0.98152,0.01160334,-0.272804,-17.69143,-22.37216,39.96327
106.520063877,-17.01826,-11.57597,-0.636887700000001,0.9848404,-0.02194845,-0.2740928,-17.69143,-22.37216,39.96327
106.529921532,-14.78208,-10.86186,0.5278693,0.992537,-0.0253339,-0.2866903,-17.69143,-22.37216,39.96327
106.53978014,-11.05513,-10.02873,1.508717,0.9839047,-0.02829186,-0.276529,-17.69143,-22.37216,39.96327
106.549638271,-6.520665,-8.71953700000001,2.305656,0.9917585,-0.01356808,-0.2616615,-17.69143,-22.37216,39.96327
106.559496879,-3.414869,-7.17230500000001,2.366959,0.9924865,0.027245,-0.2800162,-17.32171,-21.64018,39.9538
106.569355011,-3.601217,-7.29132300000003,2.121747,0.969546,0.005438878,-0.3311476,-17.32171,-21.64018,39.9538
106.581677437,-0.992348000000001,-7.29132300000003,4.02214,0.971264,-0.01338239,-0.2934742,-17.32171,-21.64018,39.9538
106.591536045,1.554404,-5.74409100000002,5.2482,0.9921111,0.03362006,-0.2660603,-17.32171,-21.64018,39.9538
106.6013937,1.181709,-4.256367,5.064291,0.9849638,0.05056219,-0.2730035,-17.32046,-22.38183,39.57726
106.611252308,-0.4333048,-2.471099,5.125594,0.9799557,0.05048573,-0.2815583,-17.32046,-22.38183,39.57726
106.621110439,-3.663332,-1.459447,5.493412,0.9717304,0.05713797,-0.3048657,-17.32046,-22.38183,39.57726
106.630969047,-7.82509900000001,-0.923867000000003,5.98383599999998,0.9595019,0.02138945,-0.3361411,-17.32046,-22.38183,39.57726
106.640827179,-8.50837300000003,-0.626322399999998,7.33250199999999,0.9738666,-0.0002690763,-0.306339,-17.32046,-22.38183,39.57726
106.650684833,-7.82509900000001,1.158946,8.619865,0.9983242,0.01508206,-0.2931405,-17.32092,-22.38272,39.51324
106.660543442,-8.25991000000001,2.646669,8.37465300000002,0.9948375,0.007710553,-0.3041745,-17.32092,-22.38272,39.51324
106.670401573,-7.70086699999999,3.836848,8.37465300000002,0.986553,-0.01955961,-0.2899107,-17.32092,-22.38272,39.51324
106.680260181,-5.52681,5.622116,8.00683499999999,0.9925401,-0.01459205,-0.2770157,-17.32092,-22.38272,39.51324
106.690117836,-3.973912,7.22885700000001,7.45510799999998,0.9921573,-0.008707277,-0.2640222,-17.32092,-22.38272,39.51324
106.699976444,-2.48313,8.89510800000001,7.08729000000001,0.999377,-0.02514055,-0.2513254,-17.3177,-22.37648,39.96134
106.709834576,-0.309073,11.93006,7.08729000000001,1.018571,-0.01029177,-0.2299096,-17.3177,-22.37648,39.96134
106.719693184,1.305941,15.97667,6.22904800000001,1.030718,0.01859823,-0.210671,-17.3177,-22.37648,39.96134
106.729551315,1.119593,19.54721,5.2482,1.023898,0.04916887,-0.2175038,-17.3177,-22.37648,39.96134
106.739409923,-0.7438844,21.80855,4.328655,0.9893208,0.05547043,-0.2720657,-17.3177,-22.37648,39.96134
106.751732349,-3.476985,21.86806,5.309503,0.9558924,0.02765328,-0.3441831,-16.95196,-22.02423,39.12346
106.761590481,-4.222376,20.73738,7.51641100000003,0.960913,-0.003024961,-0.3617648,-16.95196,-22.02423,39.12346
106.771449089,-2.296782,20.1423,10.27505,0.9653727,-0.00283456,-0.321574,-16.95196,-22.02423,39.12346
106.781306744,-4.346608,17.99997,10.88808,0.9726176,-0.01912545,-0.2710196,-16.95196,-22.02423,39.12346
106.791165352,-3.601217,17.70243,11.50111,0.9825543,-0.04961826,-0.250813,-16.95196,-22.02423,39.12346
106.801023483,-0.4333048,17.58341,11.74632,0.9759157,-0.03204287,-0.2199013,-18.44684,-23.12299,38.31031
106.810882091,0.1257384,17.82145,11.13329,0.9893672,-0.02404485,-0.1951071,-18.44684,-23.12299,38.31031
106.820739746,-0.619652599999999,19.66622,11.19459,1.003269,-0.003494871,-0.198007,-18.44684,-23.12299,38.31031
106.830598354,-2.421014,20.73738,11.56241,0.9982224,0.03094661,-0.2148956,-18.44684,-23.12299,38.31031
106.840456486,-6.45854899999999,21.68953,11.3172,0.9769666,0.04143839,-0.2216921,-18.44684,-23.12299,38.31031
106.85031414,-11.42782,21.74904,10.58156,0.9682126,0.01856355,-0.2021132,-18.45286,-22.01855,38.299
106.860172749,-15.46536,21.27296,10.39765,0.9865458,-0.005620956,-0.2064122,-18.45286,-22.01855,38.299
106.87003088,-18.19846,21.15395,9.78462200000002,0.9985845,-0.02642567,-0.2029258,-18.45286,-22.01855,38.299
106.879889488,-19.50289,20.67788,8.68116799999999,0.991504,-0.05131687,-0.2059101,-18.45286,-22.01855,38.299
106.88974762,-16.58344,20.79689,8.43595600000002,0.9829779,-0.06596199,-0.198245,-18.45286,-22.01855,38.299
106.899606228,-13.47765,20.38033,8.00683499999999,0.9750012,-0.07521516,-0.1814374,-19.57802,-22.38533,37.47639
106.909463882,-10.93089,21.57051,7.39380499999998,0.9827962,-0.07369028,-0.1824941,-19.57802,-22.38533,37.47639
106.921787262,-8.63260600000002,23.29627,6.84207800000002,0.997682,-0.04483015,-0.1776707,-19.57802,-22.38533,37.47639
106.931645393,-8.38414199999998,23.89136,7.209896,1.006621,-0.01164989,-0.1746428,-19.57802,-22.38533,37.47639
106.941503048,-9.25376400000003,24.66497,7.148593,1.009555,-0.003947772,-0.2038508,-19.57802,-22.38533,37.47639
106.951361656,-9.68857599999999,24.30792,7.209896,0.9893869,-0.01525116,-0.1859284,-20.70197,-22.37773,37.0981
106.961219788,-9.750692,23.35578,7.57771400000002,0.9885096,-0.03413665,-0.1592401,-20.70197,-22.37773,37.0981
106.971078396,-10.24762,24.54596,8.12944099999998,1.021709,-0.03825472,-0.1678944,-20.70197,-22.37773,37.0981
106.98093605,-10.24762,26.33122,8.619865,1.017803,-0.03012257,-0.1960429,-20.70197,-22.37773,37.0981
106.990794659,-9.37799599999999,25.97417,8.43595600000002,1.004335,-0.03554903,-0.1839167,-20.70197,-22.37773,37.0981
107.00065279,-6.085854,25.02203,8.00683499999999,0.9817969,-0.08284605,-0.1562011,-21.76806,-22.75146,35.82707
107.010511398,-1.675623,23.77234,8.00683499999999,0.9756359,-0.09833387,-0.1193457,-21.76806,-22.75146,35.82707
107.02036953,1.740752,22.46314,7.57771400000002,0.9759599,-0.103612,-0.1002268,-21.76806,-22.75146,35.82707
107.030228138,5.157127,22.10609,7.33250199999999,0.9815718,-0.07971053,-0.09818832,-21.76806,-22.75146,35.82707
107.040085793,5.96463399999997,21.33247,7.08729000000001,0.9755385,-0.03356265,-0.1053801,-21.76806,-22.75146,35.82707
107.049944401,6.58579300000001,20.49935,7.08729000000001,0.9675038,-0.003909389,-0.0944729,-22.15254,-22.39593,34.60897
107.059802532,4.970779,18.59506,6.22904800000001,0.967869,-0.007711035,-0.07102942,-22.15254,-22.39593,34.60897
107.069660187,1.554404,17.40488,6.29035100000001,0.9782263,-0.02747811,-0.04642549,-22.15254,-22.39593,34.60897
107.079518795,-1.302927,16.33372,6.47426,0.9905125,-0.006006878,-0.05935778,-22.15254,-22.39593,34.60897
107.089376926,-4.595071,15.26256,6.59686599999999,0.9968168,0.01391583,-0.08180187,-22.15254,-22.39593,34.60897
107.101700306,-7.017592,13.4773,6.84207800000002,0.9857131,0.01030554,-0.1099468,-22.89799,-22.75544,34.6166
107.111557961,-7.39028699999999,12.22761,7.45510799999998,0.9588547,-0.02249541,-0.09929848,-22.89799,-22.75544,34.6166
107.121416569,-7.39028699999999,10.44234,7.45510799999998,0.9386972,-0.05660731,-0.06479671,-22.89799,-22.75544,34.6166
107.1312747,-6.210085,10.62087,9.11028900000002,0.8749871,-0.08210307,-0.09525181,-22.89799,-22.75544,34.6166
107.141133308,-2.731594,7.52640199999998,6.78077500000003,0.9937441,-0.06776595,-0.05609145,-22.89799,-22.75544,34.6166
107.150990963,-1.11658,7.58591100000003,7.33250199999999,1.00418,-0.01956439,-0.07356378,-23.64867,-22.75305,34.17237
107.160849571,-1.11658,5.86015200000001,7.39380499999998,1.022695,-0.02332687,-0.082485,-23.64867,-22.75305,34.17237
107.170707703,-3.725448,4.908009,7.94553100000002,1.006772,-0.0263364,-0.06886587,-23.64867,-22.75305,34.17237
107.180565834,-7.82509900000001,4.193902,7.63901700000002,0.9868352,-0.04015007,-0.0720527,-23.64867,-22.75305,34.17237
107.190424442,-11.11724,3.658321,7.209896,0.9627187,-0.03698651,-0.07982866,-23.64867,-22.75305,34.17237
107.200282097,-14.4715,2.349124,6.22904800000001,0.9562678,-0.03804532,-0.08741286,-24.77864,-21.641,33.78277
107.210140705,-16.33498,1.515999,5.493412,0.9632574,-0.04722077,-0.08519392,-24.77864,-21.641,33.78277
107.219998837,-17.32883,0.920909899999998,4.512564,0.9730704,-0.08653697,-0.08183198,-24.77864,-21.641,33.78277
107.229857445,-15.58959,-0.4477956,3.776928,0.9865103,-0.1291827,-0.06656986,-24.77864,-21.641,33.78277
107.239715099,-11.67628,-1.935519,4.144746,1.003347,-0.1382535,-0.05969838,-24.77864,-21.641,33.78277
107.249573708,-7.82509900000001,-2.352082,4.389958,1.015261,-0.1002887,-0.08542455,-25.15359,-22.01107,33.34037
107.259431839,-5.091999,-2.411591,3.776928,0.9972145,-0.05090493,-0.1096689,-25.15359,-22.01107,33.34037
107.271754265,-5.278347,-3.066189,3.347807,0.9971052,-0.04995961,-0.1168474,-25.15359,-22.01107,33.34037
107.281612873,-5.402578,-3.304224,3.163898,0.9923917,-0.08741037,-0.1008035,-25.15359,-22.01107,33.34037
107.291471005,-5.154115,-4.13735,2.366959,0.9891282,-0.1189944,-0.08089717,-25.15359,-22.01107,33.34037
107.301329613,-1.924087,-5.327528,1.876535,1.00689,-0.1499068,-0.06128482,-25.15233,-22.75271,32.96383
107.311187267,3.355766,-5.98212599999998,2.18305,0.9998345,-0.1242855,-0.08972,-25.15233,-22.75271,32.96383
107.321045876,8.20080799999999,-6.993778,2.489565,0.9799592,-0.06804743,-0.0985461,-25.15233,-22.75271,32.96383
107.330904007,9.62947399999998,-7.94592099999998,2.857383,0.9757116,-0.02228408,-0.08276497,-25.15233,-22.75271,32.96383
107.340762615,6.399446,-8.54101000000001,2.857383,0.9841564,-0.01777971,-0.06942973,-25.15233,-22.75271,32.96383
107.350620747,1.61652,-9.90971599999998,2.79608,0.9867746,-0.02405585,-0.06233203,-24.40286,-23.12949,32.96374
107.360479355,-3.166405,-12.11155,1.937838,0.9949768,-0.03315584,-0.04287855,-24.40286,-23.12949,32.96374
107.37033701,-6.39643299999998,-13.83731,0.0374453,0.9826514,-0.07221445,-0.0483037,-24.40286,-23.12949,32.96374
107.380195618,-5.588926,-15.08699,-1.066009,0.9765821,-0.1482162,-0.0579634,-24.40286,-23.12949,32.96374
107.390053749,0.684781700000003,-16.39619,-0.5755847,0.9769622,-0.1775366,-0.09176022,-24.40286,-23.12949,32.96374
107.399912357,8.57350299999998,-17.46735,0.7117782,0.9929589,-0.1346066,-0.1007307,-24.02315,-23.12222,33.79399
107.409770012,12.8595,-17.7649,1.447414,1.01101,-0.05710249,-0.1080011,-24.02315,-23.12222,33.79399
107.419628143,12.30046,-17.28882,1.876535,1.0205,0.02074634,-0.1328769,-24.02315,-23.12222,33.79399
107.429486752,5.778286,-17.82441,0.5278693,1.000996,0.0507259,-0.1376171,-24.02315,-23.12222,33.79399
107.439344883,-3.290637,-17.94342,-1.556433,0.9867422,-0.02531191,-0.1375765,-24.02315,-23.12222,33.79399
107.451667786,-5.029883,-17.7649,-0.759493700000002,0.9787327,-0.1334141,-0.1383746,-24.40014,-22.00812,34.16869
107.461525917,-0.992348000000001,-17.16981,1.202202,0.9890798,-0.1222079,-0.1590331,-24.40014,-22.00812,34.16869
107.471384525,4.784432,-14.96797,2.857383,0.9859402,-0.04737563,-0.1799208,-24.40014,-22.00812,34.16869
107.481242657,4.908664,-14.4919,2.244353,0.9661933,0.02501052,-0.1651317,-24.40014,-22.00812,34.16869
107.491101265,-2.980057,-14.19436,-0.698190700000002,0.9543738,-0.04124449,-0.157376,-24.40014,-22.00812,34.16869
107.50095892,-7.63875099999998,-15.38454,-1.740342,0.9585401,-0.1443714,-0.1578265,-23.64746,-22.37866,34.61669
107.510817528,-5.96162199999998,-17.70539,-1.433827,0.9894823,-0.191151,-0.1184095,-23.64746,-22.37866,34.61669
107.520675659,0.2499703,-19.7882,-0.3916757,1.010001,-0.1455717,-0.08046056,-23.64746,-22.37866,34.61669
107.530533314,3.728462,-21.27592,-0.943402600000003,0.9999628,-0.06530867,-0.06430574,-23.64746,-22.37866,34.61669
107.540391922,0.809013499999997,-22.04954,-3.947249,0.9747709,-0.03204653,-0.08858434,-23.64746,-22.37866,34.61669
107.550250054,-4.781419,-22.76365,-6.76718699999997,0.9373804,-0.06172991,-0.1299923,-22.89803,-21.63942,35.43747
107.560108662,-7.14182399999997,-24.96548,-7.31891399999998,0.932959,-0.1133911,-0.1409076,-22.89803,-21.63942,35.43747
107.569966316,-4.843535,-27.88141,-6.09285400000002,0.9651634,-0.1237344,-0.1203692,-22.89803,-21.63942,35.43747
107.579824924,-1.861971,-29.36914,-6.09285400000002,1.004852,-0.08444211,-0.1172488,-22.89803,-21.63942,35.43747
107.589683056,-1.737739,-30.20226,-9.15800400000001,0.9925601,-0.05443327,-0.1311964,-22.89803,-21.63942,35.43747
107.599541664,-1.302927,-31.51146,-11.1197,0.9707322,-0.08582183,-0.1450469,-22.13857,-22.74091,36.2771
107.609399795,0.7468976,-34.07034,-10.26146,0.9659393,-0.1117129,-0.1605315,-22.13857,-22.74091,36.2771
107.621722698,5.157127,-34.18936,-7.56412600000002,0.9703983,-0.0666583,-0.2244276,-22.13857,-22.74091,36.2771
107.63158083,8.57350299999998,-32.99918,-6.15415700000002,0.9409964,0.01077806,-0.2674414,-22.13857,-22.74091,36.2771
107.641438961,7.76599600000002,-33.23722,-5.725037,0.9069988,0.04249742,-0.2930451,-22.13857,-22.74091,36.2771
107.651297569,3.666346,-35.49856,-6.52197600000002,0.9088444,-0.004116378,-0.2704632,-21.76484,-22.74523,36.27516
107.661155224,-0.4333048,-36.74825,-7.38021800000001,0.9521364,-0.06881772,-0.2380823,-21.76484,-22.74523,36.27516
107.671013832,1.181709,-35.67708,-7.19630799999999,0.9799047,-0.1021562,-0.240197,-21.76484,-22.74523,36.27516
107.680871963,6.71002500000003,-33.83231,-6.70588399999998,0.9674248,-0.07610677,-0.2714265,-21.76484,-22.74523,36.27516
107.690730572,11.61718,-32.76115,-6.27676300000001,0.9340549,-0.04287882,-0.2855256,-21.76484,-22.74523,36.27516
107.700588226,13.60489,-33.29673,-6.33806699999997,0.9198988,-0.04641341,-0.2863121,-20.69197,-23.10244,37.93782
107.710446834,12.8595,-33.83231,-6.33806699999997,0.9544776,-0.06882591,-0.2457829,-20.69197,-23.10244,37.93782
107.720304966,11.43083,-32.52311,-5.97024799999998,1.002327,-0.06208042,-0.2468872,-20.69197,-23.10244,37.93782
107.730163574,10.4991,-31.809,-5.78633899999999,1.016176,-0.01238713,-0.2639163,-20.69197,-23.10244,37.93782
107.740021706,8.63561899999999,-29.25012,-6.52197600000002,1.020556,0.003133587,-0.2878078,-20.69197,-23.10244,37.93782
107.749880314,7.331184,-28.4765,-6.03155100000003,0.9901369,0.003680779,-0.3295391,-19.19308,-22.73997,38.7585
107.759737968,1.989216,-30.49981,-6.58327799999999,0.9997443,-0.03688839,-0.2705978,-19.19308,-22.73997,38.7585
107.769596577,-2.669478,-28.4765,-5.295916,1.004519,-0.05285475,-0.2573829,-19.19308,-22.73997,38.7585
107.779454708,-4.905651,-28.4765,-4.437674,0.9659328,-0.03294486,-0.3069809,-19.19308,-22.73997,38.7585
107.791777134,-4.843535,-28.53601,-3.518128,0.9486693,-0.03460167,-0.3187288,-19.19308,-22.73997,38.7585
107.801635742,-5.588926,-28.35749,-2.659887,0.9704232,-0.02165169,-0.2906568,-18.06591,-22.74134,39.58489
107.811493874,-9.68857599999999,-27.88141,-2.721189,0.9670488,-0.01483259,-0.2809672,-18.06591,-22.74134,39.58489
107.821352482,-12.42168,-26.86976,-2.169462,0.9571794,-0.02129061,-0.292861,-18.06591,-22.74134,39.58489
107.831210136,-13.91246,-26.27467,-2.598583,0.9469651,-0.005876751,-0.3107949,-18.06591,-22.74134,39.58489
107.841068745,-15.6517,-27.04829,-4.560279,0.9521415,-0.02821074,-0.3096196,-18.06591,-22.74134,39.58489
107.850926876,-15.83805,-27.40534,-4.9894,0.9602188,-0.0641988,-0.3229768,-16.94196,-22.74894,39.96318
107.860785484,-14.28515,-28.35749,-4.866795,0.967887,-0.08161577,-0.3141283,-16.94196,-22.74894,39.96318
107.870643139,-9.00530100000001,-26.33418,-4.008553,0.9710945,-0.06504755,-0.3154718,-16.94196,-22.74894,39.96318
107.880501747,-6.085854,-25.97713,-4.37637,0.948789,-0.02116754,-0.3698915,-16.94196,-22.74894,39.96318
107.890359879,-3.166405,-25.0845,-4.131158,0.9405822,-0.02818033,-0.4038569,-16.94196,-22.74894,39.96318
107.900218487,-1.861971,-25.32253,-2.169462,0.9503332,-0.00515636,-0.3860711,-16.18974,-23.12038,40.34716
107.910076618,-5.029883,-24.25137,-0.5755847,0.9710736,0.01461011,-0.3545728,-16.18974,-23.12038,40.34716
107.919935226,-8.32202600000002,-22.64463,0.7117782,0.975671,-0.006777314,-0.3591316,-16.18974,-23.12038,40.34716
107.929792881,-8.44625799999999,-22.28757,2.918686,0.9619473,-0.02643524,-0.3782699,-16.18974,-23.12038,40.34716
107.939651489,-6.76912800000002,-22.4661,4.328655,0.9519252,-0.02987227,-0.3628217,-16.18974,-23.12038,40.34716
107.949509621,-5.154115,-22.64463,5.432109,0.9492232,-0.01372032,-0.3314989,-15.06453,-23.86962,40.34891
107.959367275,-5.154115,-21.752,6.53556299999999,0.9520822,0.0134895,-0.3490404,-15.06453,-23.86962,40.34891
107.971690655,-5.89950600000002,-21.57347,7.27119899999999,0.9481882,0.008578139,-0.3519015,-15.06453,-23.86962,40.34891
107.981548786,-8.13567799999999,-21.33543,7.45510799999998,0.9394879,0.003647873,-0.3484648,-15.06453,-23.86962,40.34891
107.991407394,-9.99915599999999,-20.38329,6.90338100000002,0.943035,-0.01825701,-0.3587633,-15.06453,-23.86962,40.34891
108.001265049,-11.48994,-20.97838,6.04513899999997,0.9285955,-0.04956615,-0.368885,-14.68959,-23.49956,40.79131
108.011123657,-10.12339,-21.1569,6.04513899999997,0.9263335,-0.07115249,-0.410246,-14.68959,-23.49956,40.79131
108.020981789,-7.26605599999999,-22.34708,6.47426,0.9086794,-0.05911515,-0.4027049,-14.68959,-23.49956,40.79131
108.030840397,-6.76912800000002,-22.10905,6.47426,0.9153013,-0.04007833,-0.4026386,-14.68959,-23.49956,40.79131
108.040698051,-8.44625799999999,-21.752,5.493412,0.9122383,-0.01719413,-0.3918594,-14.68959,-23.49956,40.79131
108.05055666,-11.11724,-20.79985,4.02214,0.9359046,-0.03353303,-0.3928138,-14.3131,-23.49853,41.17346
108.060414791,-12.48379,-20.62132,2.060444,0.9356385,-0.06276731,-0.4021615,-14.3131,-23.49853,41.17346
108.070273399,-10.06127,-20.20476,2.366959,0.9310809,-0.08370909,-0.3960437,-14.3131,-23.49853,41.17346
108.080131531,-7.94933000000001,-20.85936,2.673474,0.9074047,-0.05286137,-0.4189267,-14.3131,-23.49853,41.17346
108.089989185,-6.27220100000001,-20.97838,2.673474,0.8992788,-0.0232341,-0.4147272,-14.3131,-23.49853,41.17346
108.099847794,-8.57049000000001,-20.74034,1.692626,0.9105966,-0.02067436,-0.407679,-13.55962,-24.6116,41.18091
108.109705925,-10.74455,-20.20476,1.324808,0.9153374,-0.04202093,-0.4016971,-13.55962,-24.6116,41.18091
108.119564533,-10.06127,-20.32378,0.834384299999999,0.9085965,-0.04560362,-0.4327792,-13.55962,-24.6116,41.18091
108.129422188,-7.70086699999999,-20.38329,0.895687200000003,0.9072292,-0.0403527,-0.4566754,-13.55962,-24.6116,41.18091
108.139280796,-6.83124400000003,-21.21641,1.324808,0.9116692,-0.04957938,-0.4620877,-13.55962,-24.6116,41.18091
108.151603699,-6.210085,-20.97838,1.631323,0.9096678,-0.06167995,-0.4401182,-12.81371,-24.25119,41.23729
108.161462307,-4.843535,-20.79985,0.7117782,0.9093607,-0.07920849,-0.4421785,-12.81371,-24.25119,41.23729
108.171319962,-0.2469571,-20.08574,-0.3916757,0.9241893,-0.1010051,-0.450241,-12.81371,-24.25119,41.23729
108.18117857,5.529823,-19.72869,-0.02385769,0.9264606,-0.08687466,-0.4506333,-12.81371,-24.25119,41.23729
108.191036701,8.57350299999998,-19.49066,-0.08516069,0.9037635,-0.04674178,-0.4653055,-12.81371,-24.25119,41.23729
108.200895309,8.94619800000002,-19.60967,-0.1464637,0.8915589,-0.02731384,-0.4462788,-12.06148,-24.62263,41.62128
108.210752964,6.64790900000002,-19.49066,-0.820796699999998,0.8998112,-0.02907616,-0.416701,-12.06148,-24.62263,41.62128
108.220611095,4.101157,-19.1336,-2.292068,0.8978959,-0.04079911,-0.4239605,-12.06148,-24.62263,41.62128
108.230469704,4.163273,-18.71704,-3.211613,0.9023454,-0.04367613,-0.4230899,-12.06148,-24.62263,41.62128
108.240327835,4.225389,-18.24097,-4.192461,0.9004138,-0.03649805,-0.4507954,-12.06148,-24.62263,41.62128
108.250186443,4.163273,-18.71704,-4.621583,0.8851933,-0.04104226,-0.4587631,-10.62488,-24.25944,42.44228
108.260044098,4.101157,-18.71704,-4.008553,0.8860537,-0.03716145,-0.4640138,-10.62488,-24.25944,42.44228
108.269902706,4.163273,-18.35999,-3.395523,0.890987,-0.01380662,-0.4763462,-10.62488,-24.25944,42.44228
108.279760838,3.045186,-17.58637,-3.824643,0.900943,-0.02343539,-0.4722566,-10.62488,-24.25944,42.44228
108.289619446,1.989216,-16.75324,-4.192461,0.8920249,-0.03477473,-0.4904347,-10.62488,-24.25944,42.44228
108.2994771,2.734607,-17.05079,-4.560279,0.8860279,-0.06304481,-0.4886711,-9.869434,-24.62464,43.27437
108.309335709,6.52367699999999,-16.87226,-4.131158,0.8917993,-0.063021,-0.4959411,-9.869434,-24.62464,43.27437
108.321658611,10.62333,-15.86061,-3.211613,0.9003142,-0.02543242,-0.4842445,-9.869434,-24.62464,43.27437
108.33151722,10.06429,-15.1465,-2.905098,0.8882284,-0.005617585,-0.4920514,-9.869434,-24.62464,43.27437
108.341374874,9.00831399999997,-14.43239,-2.046857,0.8860167,-0.002290026,-0.5078053,-9.869434,-24.62464,43.27437
108.351233482,7.57964799999999,-13.65878,-1.188615,0.8867893,-0.008551825,-0.4925348,-9.498465,-24.6343,42.88835
108.361091614,7.26906799999999,-12.34958,-0.2077667,0.8977621,-0.001696428,-0.5070093,-9.498465,-24.6343,42.88835
108.370950222,6.33732999999999,-11.27842,0.650475300000002,0.8850894,0.00929814,-0.5297375,-9.498465,-24.6343,42.88835
108.380808354,3.790577,-11.33793,2.060444,0.8720762,-0.005898296,-0.5287219,-9.498465,-24.6343,42.88835
108.390666008,1.740752,-10.26677,2.305656,0.8735654,-0.02966704,-0.5121717,-9.498465,-24.6343,42.88835
108.400524616,0.995361299999998,-9.433644,2.489565,0.8850667,-0.04804873,-0.5100948,-8.750254,-24.26944,43.2648
108.410382748,1.430173,-8.24346499999998,2.428262,0.9056834,-0.06675225,-0.4856281,-8.750254,-24.26944,43.2648
108.420241356,2.796723,-7.35083200000001,2.428262,0.8975744,-0.06557247,-0.5410897,-8.750254,-24.26944,43.2648
108.430099011,6.088866,-6.75574299999998,2.489565,0.8886256,-0.05836798,-0.5452141,-8.750254,-24.26944,43.2648
108.439957619,7.26906799999999,-6.04163599999999,2.550868,0.8766167,-0.0603662,-0.5306839,-8.750254,-24.26944,43.2648
108.44981575,8.26292299999998,-5.625073,1.937838,0.8592271,-0.07168833,-0.524302,-8.377319,-23.53123,43.70343
108.459674358,9.87793699999999,-5.20851,0.956990100000001,0.8697849,-0.09299809,-0.5222363,-8.377319,-23.53123,43.70343
108.469532013,12.48681,-4.375385,0.7117782,0.8854402,-0.08553569,-0.5156877,-8.377319,-23.53123,43.70343
108.479390621,13.91547,-3.54226,0.2213543,0.8875374,-0.05290227,-0.512567,-8.377319,-23.53123,43.70343
108.491713524,11.80353,-3.185207,-1.49513,0.8820897,-0.03295163,-0.4998618,-8.377319,-23.53123,43.70343
108.501572132,9.25677800000002,-2.292573,-3.211613,0.8750592,-0.04611111,-0.488851,-8.370544,-24.26218,44.09505
108.511429787,8.51138700000002,-1.399938,-4.131158,0.8687411,-0.07593748,-0.5120143,-8.370544,-24.26218,44.09505
108.521288395,10.06429,-0.7453403,-4.315067,0.8656395,-0.07015222,-0.5191092,-8.370544,-24.26218,44.09505
108.531146526,10.93391,-0.5668135,-3.885947,0.8726724,-0.04234525,-0.517058,-8.370544,-24.26218,44.09505
108.541005135,9.75370500000003,-0.3287777,-4.131158,0.8634184,-0.02093404,-0.4951814,-8.370544,-24.26218,44.09505
108.550863266,6.83425699999999,-0.0907419500000001,-5.173309,0.8752722,-0.0305623,-0.4954316,-8.749039,-23.89506,43.70913
108.560721874,4.908664,0.5638563,-5.295916,0.8771248,-0.04766259,-0.5181247,-8.749039,-23.89506,43.70913
108.570579529,5.467707,1.337473,-4.744188,0.8860976,-0.05632496,-0.5135337,-8.749039,-23.89506,43.70913
108.58043766,6.21309800000002,1.575508,-3.885947,0.8704666,-0.03511021,-0.5289456,-8.749039,-23.89506,43.70913
108.590296268,6.088866,1.813544,-3.640734,0.8638299,-0.0292517,-0.5081959,-8.749039,-23.89506,43.70913
108.600153923,6.088866,2.706178,-3.027704,0.8713276,-0.02572352,-0.4934178,-8.371338,-23.51965,44.53561
108.610012531,5.71617,3.420285,-2.966402,0.869558,-0.02777559,-0.5173699,-8.371338,-23.51965,44.53561
108.619870663,5.90251800000002,3.360776,-2.598583,0.8672708,-0.03946942,-0.5159984,-8.371338,-23.51965,44.53561
108.629729271,5.529823,3.479794,-2.046857,0.8891487,-0.05236008,-0.5015638,-8.371338,-23.51965,44.53561
108.639587402,5.90251800000002,3.360776,-1.617736,0.8946674,-0.0552025,-0.4939992,-8.371338,-23.51965,44.53561
108.649446011,6.399446,3.063231,-1.433827,0.8973972,-0.06095864,-0.4782731,-8.00083,-23.5302,44.08558
108.659303665,6.71002500000003,3.063231,-1.372524,0.8943834,-0.04001332,-0.4655942,-8.00083,-23.5302,44.08558
108.671627045,5.654055,3.182249,-1.924251,0.8653538,-0.0175052,-0.4937425,-8.00083,-23.5302,44.08558
108.681484699,4.287505,2.706178,-2.10816,0.853251,-0.02148316,-0.4878532,-8.00083,-23.5302,44.08558
108.691343307,1.802868,2.408633,-1.862948,0.863622,-0.05016958,-0.5059735,-8.00083,-23.5302,44.08558
108.701201439,1.740752,2.468142,-1.066009,0.8883922,-0.07378741,-0.5041298,-7.627893,-22.79198,44.5242
108.711060047,3.231534,2.646669,-0.1464637,0.9016772,-0.07706611,-0.5014716,-7.627893,-22.79198,44.5242
108.720918178,4.287505,3.063231,0.4665663,0.9093291,-0.06679395,-0.5053276,-7.627893,-22.79198,44.5242
108.730776787,5.157127,3.003723,0.834384299999999,0.9083669,-0.06484509,-0.5024222,-7.627893,-22.79198,44.5242
108.740634441,6.21309800000002,3.360776,1.018293,0.929892,-0.06123666,-0.4993442,-7.627893,-22.79198,44.5242
108.75049305,7.08272099999998,4.015375,1.202202,0.9340245,-0.07090408,-0.4918175,-8.752302,-22.78527,44.0819
108.760351181,8.38715600000003,5.443589,1.999141,0.9521236,-0.07757919,-0.4978822,-8.752302,-22.78527,44.0819
108.770208836,9.56735800000002,6.87180399999998,2.979989,0.9530048,-0.07711001,-0.5045996,-8.752302,-22.78527,44.0819
108.780067444,10.87179,7.70492800000002,3.838231,0.9286938,-0.06472559,-0.5185245,-8.752302,-22.78527,44.0819
108.789925575,11.24449,8.18100100000002,4.144746,0.890456,-0.05922797,-0.5193707,-8.752302,-22.78527,44.0819
