Time (s),Gyroscope X (deg/s),Gyroscope Y (deg/s),Gyroscope Z (deg/s),Accelerometer X (g),Accelerometer Y (g),Accelerometer Z (g),Magnetometer X (uT),Magnetometer Y (uT),Magnetometer Z (uT)
14.502901554,-46.12111,29.73973,7.14440499999997,1.424943,0.01737815,0.7541962,-41.77051,-20.45744,34.39826
14.512897968,-40.89079,58.22887,8.97352800000002,1.390747,-0.05407731,0.8255821,-41.77051,-20.45744,34.39826
14.522895336,-28.95334,88.0237599999998,10.19294,1.398571,-0.1570852,0.9160459,-41.77051,-20.45744,34.39826
14.532892227,-11.97016,119.065,10.01003,1.425465,-0.2907868,0.9567124,-41.00331,-21.21634,33.95638
14.542888641,13.01233,149.5128,8.91255800000001,1.417911,-0.3563461,0.9246777,-41.00331,-21.21634,33.95638
14.552886009,38.11789,177.5271,6.71760999999998,1.468677,-0.2843352,0.8781489,-41.00331,-21.21634,33.95638
14.5628829,55.40872,203.8202,2.937423,1.555609,-0.1665707,0.814795,-41.00331,-21.21634,33.95638
14.572879315,61.2543799999997,226.9083,-1.940238,1.622175,-0.02684556,0.80555,-41.00331,-21.21634,33.95638
14.582876682,54.97799,246.5539,-7.61051899999998,1.681582,0.07935732,0.8125978,-42.47721,-21.64118,30.01276
14.592873573,42.17908,263.5287,-10.84197,1.691915,0.1520106,0.8173468,-42.47721,-21.64118,30.01276
14.602870464,25.56511,278.2481,-12.2443,1.707892,0.1570015,0.7972174,-42.47721,-21.64118,30.01276
14.612867355,7.720469,291.365,-12.54915,1.705387,0.1337662,0.7594203,-42.47721,-21.64118,30.01276
14.622863769,-8.52430299999999,303.0574,-11.8175,1.722637,0.04418055,0.7034199,-42.47721,-21.64118,30.01276
14.632861137,-19.53875,315.1059,-9.25672899999999,1.767998,-0.06257074,0.6756108,-45.82895,-20.97661,21.59864
14.642858028,-24.03068,327.5106,-4.927805,1.818916,-0.1279072,0.6477816,-45.82895,-20.97661,21.59864
14.652855396,-20.64635,338.372,1.1083,1.829856,-0.1415177,0.5707152,-45.82895,-20.97661,21.59864
14.66285181,-16.95436,346.8001,6.77858100000002,1.840996,-0.1650527,0.5238014,-45.82895,-20.97661,21.59864
14.672848701,-14.18536,353.7443,11.04653,1.879285,-0.1805472,0.5002884,-45.82895,-20.97661,21.59864
14.682846069,-12.64703,357.0087,14.52187,1.887002,-0.2030507,0.467259,-48.80314,-19.64514,9.249063
14.692842483,-10.5549,355.4062,16.71681,1.853771,-0.2249931,0.4247293,-48.80314,-19.64514,9.249063
14.702839851,-7.04750599999997,350.4206,17.87526,1.790917,-0.2516487,0.4090528,-48.80314,-19.64514,9.249063
14.712836265,-0.586516899999998,342.1706,19.76535,1.681702,-0.1972451,0.3771646,-48.80314,-19.64514,9.249063
14.722833157,1.813279,333.4458,20.86283,1.518273,-0.1097038,0.3664197,-48.80314,-19.64514,9.249063
14.732830524,-2.063314,324.5429,22.14321,1.406055,0.0003525459,0.3158579,-49.77831,-20.855,-5.45914
14.742826939,-14.55456,313.8595,22.38709,1.288053,0.1075896,0.2882786,-49.77831,-20.855,-5.45914
14.752824306,-32.2146,299.9117,21.65545,1.177299,0.1664677,0.2707492,-49.77831,-20.855,-5.45914
14.762821197,-49.38237,283.8866,23.72845,1.079755,0.1963846,0.2460256,-49.77831,-20.855,-5.45914
14.772817612,-70.1805999999999,268.9298,27.20378,0.9738879,0.1758306,0.1935721,-49.77831,-20.855,-5.45914
14.78281498,-88.2098399999997,254.0323,31.59368,0.8376543,0.08491074,0.1110393,-46.09149,-18.33557,-18.15222
14.792811871,-96.4552899999999,236.3453,35.9226,0.6567621,-0.04079334,0.04103633,-46.09149,-18.33557,-18.15222
14.802808762,-94.7323600000003,215.8094,39.8857,0.5282463,-0.1277653,-0.05156099,-46.09149,-18.33557,-18.15222
14.812805653,-93.0709700000002,195.867,42.01968,0.4300183,-0.08782829,-0.09495046,-46.09149,-18.33557,-18.15222
14.822802067,-96.0245600000002,176.3994,40.67832,0.2975529,0.0106909,-0.1411668,-40.09317,-16.46943,-27.66391
14.832799435,-107.7774,153.4301,39.21502,0.1889941,0.05573412,-0.1883682,-40.09317,-16.46943,-27.66391
14.842796326,-120.0225,129.0956,36.28843,0.08488058,0.09738462,-0.2441908,-40.09317,-16.46943,-27.66391
14.85279274,-124.576,103.8708,33.36183,0.0333036,0.01425808,-0.2952871,-40.09317,-16.46943,-27.66391
14.862790108,-120.1456,81.7324100000001,29.27679,-0.02597223,-0.07376593,-0.3339258,-40.09317,-16.46943,-27.66391
14.872786999,-106.7929,61.0184299999998,23.78942,-0.06124278,-0.1678293,-0.3410187,-35.32571,-13.43135,-32.48197
14.882784367,-86.2407800000003,41.4915,17.44846,-0.0449143,-0.2588637,-0.3410237,-35.32571,-13.43135,-32.48197
14.892780781,-59.7199599999998,24.63543,9.76614900000002,-0.03377254,-0.3064623,-0.3094448,-35.32571,-13.43135,-32.48197
14.902777672,-33.99906,10.56892,2.266744,0.01396794,-0.3038542,-0.2339137,-35.32571,-13.43135,-32.48197
14.912774563,-12.0317,-1.95443,-3.891303,0.00532242,-0.2830364,-0.170732,-35.32571,-13.43135,-32.48197
14.922771454,4.951474,-13.58749,-9.31770000000002,0.04316671,-0.1425682,-0.08995479,-32.78393,-9.237552,-33.64583
14.932768822,8.76653499999999,-24.80509,-13.70759,0.03226685,-0.05307983,-0.005250868,-32.78393,-9.237552,-33.64583
14.942765236,4.951474,-36.43816,-17.48778,0.02993249,-0.05613181,0.09094778,-32.78393,-9.237552,-33.64583
14.952762127,3.16701,-48.13057,-20.96312,0.05984518,-0.1680853,0.1651037,-32.78393,-9.237552,-33.64583
14.962759495,13.44306,-59.0514099999997,-24.7433,0.1020033,-0.2582059,0.2090825,-32.78393,-9.237552,-33.64583
14.972755909,30.7339,-69.0226099999998,-29.01126,0.1427934,-0.3267307,0.2793797,-32.04716,-8.537877,-34.03098
14.982753277,53.25506,-79.29057,-32.85241,0.1584831,-0.3045217,0.3358186,-32.04716,-8.537877,-34.03098
14.992750168,72.3303600000002,-90.3894700000001,-36.75454,0.1526916,-0.228338,0.3894096,-32.04716,-8.537877,-34.03098
15.002746582,82.5448800000002,-102.5567,-40.77861,0.1658591,-0.1755294,0.4496736,-32.04716,-8.537877,-34.03098
15.01274395,88.3289999999999,-115.4362,-42.72968,0.2264726,-0.158251,0.5074711,-32.04716,-8.537877,-34.03098
15.022740364,92.7593899999998,-128.553,-43.5223,0.2719586,-0.1918664,0.5590867,-33.93132,-8.531781,-31.65837
15.032737732,96.9436499999999,-143.7472,-43.15648,0.2893362,-0.2074617,0.6227111,-33.93132,-8.531781,-31.65837
15.042734623,95.3437899999998,-160.0098,-41.63221,0.3402665,-0.1154562,0.6895993,-33.93132,-8.531781,-31.65837
15.052731037,85.3138699999997,-173.1267,-38.15687,0.4280655,-0.0920497,0.7741481,-33.93132,-8.531781,-31.65837
15.062728405,71.3458300000002,-184.1068,-34.19377,0.4568305,-0.1971106,0.7545034,-33.93132,-8.531781,-31.65837
15.072725296,61.6235800000002,-195.5025,-30.10873,0.4774551,-0.2069351,0.6984766,-37.56154,-12.25602,-26.50575
15.082722664,50.79373,-206.3046,-27.6699,0.515651,-0.1135016,0.6835501,-37.56154,-12.25602,-26.50575
15.092719078,33.31829,-215.4449,-28.27961,0.5755994,-0.06150294,0.7135825,-37.56154,-12.25602,-26.50575
15.102715969,14.11993,-223.1013,-30.71844,0.65633,-0.183688,0.6751871,-37.56154,-12.25602,-26.50575
15.11271286,8.08966899999999,-228.9179,-31.14523,0.7792747,-0.2962921,0.6367157,-37.56154,-12.25602,-26.50575
15.122709751,21.01165,-227.5528,-28.03572,0.9223253,-0.3132861,0.5417126,-42.01392,-15.6623,-20.52234
15.132707119,38.67168,-219.1841,-25.10913,0.9292488,-0.2935108,0.510588,-42.01392,-15.6623,-20.52234
15.142703533,46.3018,-212.1805,-24.56039,0.8732876,-0.1669532,0.5484605,-42.01392,-15.6623,-20.52234
15.152700424,39.41008,-212.6553,-23.7068,0.9010395,-0.00909928,0.586179,-42.01392,-15.6623,-20.52234
15.162697792,26.42657,-217.5816,-21.32894,1.016621,0.09076735,0.6290237,-42.01392,-15.6623,-20.52234
15.172694206,10.79713,-218.6499,-19.19496,1.178071,0.08380155,0.6871303,-46.52283,-17.13357,-10.61454
15.182691574,4.397675,-216.2165,-16.14643,1.272049,-0.01565787,0.7137923,-46.52283,-17.13357,-10.61454
15.192688465,3.782343,-213.783,-13.40274,1.29198,-0.09114993,0.7051626,-46.52283,-17.13357,-10.61454
15.202684879,6.55133799999999,-213.4863,-13.34177,1.298463,-0.1522558,0.6515666,-46.52283,-17.13357,-10.61454
15.212682247,11.1048,-214.3766,-13.95148,1.310993,-0.2246689,0.570684,-46.52283,-17.13357,-10.61454
15.222678661,20.64245,-214.1391,-15.17089,1.321095,-0.2720101,0.4735277,-48.78437,-18.22069,-2.240104
15.232676029,34.36436,-212.9521,-16.45128,1.295704,-0.2457079,0.3759356,-48.78437,-18.22069,-2.240104
15.24267292,46.42487,-211.6463,-17.54875,1.246708,-0.1819468,0.280768,-48.78437,-18.22069,-2.240104
15.252669334,52.57819,-210.3406,-17.73167,1.211673,-0.08123507,0.2635744,-48.78437,-18.22069,-2.240104
15.262666702,49.74767,-206.8388,-16.93905,1.21084,-0.03632559,0.2874931,-48.78437,-18.22069,-2.240104
15.272663593,42.67134,-199.8352,-14.92701,1.230704,-0.003628512,0.3128146,-49.84492,-20.05689,6.469699
15.282660961,33.68749,-190.9324,-13.46371,1.218164,0.01564913,0.322403,-49.84492,-20.05689,6.469699
15.292657375,23.84218,-184.2849,-12.06138,1.213932,0.03284448,0.2989557,-49.84492,-20.05689,6.469699
15.302654266,14.24299,-180.7238,-10.65906,1.250357,0.03865946,0.2716119,-49.84492,-20.05689,6.469699
15.312651157,2.428612,-179.2399,-9.07381699999998,1.319479,0.0159771,0.2456541,-49.84492,-20.05689,6.469699
15.322648048,-9.508835,-178.5277,-6.39110400000002,1.382419,-0.01444455,0.2369379,-48.79895,-21.05304,15.19087
15.332645416,-19.90795,-177.4,-3.525478,1.432386,-0.02854786,0.2339829,-48.79895,-21.05304,15.19087
15.342641831,-27.415,-176.3317,-0.7817937,1.449189,-0.04148104,0.218164,-48.79895,-21.05304,15.19087
15.352638722,-31.96847,-174.6105,1.352183,1.412364,-0.05307038,0.1995667,-48.79895,-21.05304,15.19087
15.362636089,-34.2452,-172.2364,1.778978,1.343274,-0.08532606,0.1695451,-48.79895,-21.05304,15.19087
15.372632504,-33.1376,-169.6249,1.352183,1.273402,-0.1277713,0.1428776,-47.35188,-19.90691,21.96877
15.382629871,-28.46107,-166.3605,0.864416900000002,1.217858,-0.1549306,0.1094811,-47.35188,-19.90691,21.96877
15.392626762,-20.89248,-162.6213,0.803446099999999,1.179612,-0.1691488,0.07222252,-47.35188,-19.90691,21.96877
15.402623177,-12.52396,-158.6447,0.803446099999999,1.136037,-0.1328159,0.04788174,-47.35188,-19.90691,21.96877
15.412620545,-5.87837500000002,-154.4307,1.90092,1.124944,-0.08753639,0.0282678,-45.47427,-21.30021,27.98898
15.422616959,-2.617113,-151.1663,3.425189,1.10666,-0.02242713,0.01392563,-45.47427,-21.30021,27.98898
15.432614327,-5.263042,-147.7238,4.827517,1.10227,0.02935468,4.124304e-05,-45.47427,-21.30021,27.98898
15.442611218,-11.60097,-144.1033,5.620136,1.113665,0.04503784,-0.01003276,-45.47427,-21.30021,27.98898
15.452607632,-18.92342,-140.7203,5.80304899999998,1.117704,0.03720659,-0.02487364,-45.47427,-21.30021,27.98898
15.462605,-24.39988,-137.2185,5.193341,1.111979,0.004412573,-0.03825534,-42.8405,-22.76163,32.78958
15.472601891,-28.09187,-132.9451,2.75451,1.097729,-0.06741204,-0.05017641,-42.8405,-22.76163,32.78958
15.482599259,-29.01487,-128.6124,0.01082622,1.146187,-0.1832999,-0.07415985,-42.8405,-22.76163,32.78958
15.492595673,-22.12315,-123.2707,-3.037712,1.187233,-0.2941337,-0.1139247,-42.8405,-22.76163,32.78958
15.502593041,-6.001441,-117.7509,-5.049747,1.231091,-0.3470629,-0.1513164,-42.8405,-22.76163,32.78958
15.512589455,13.81226,-112.1124,-6.39110400000002,1.241006,-0.3312652,-0.1987168,-40.2331,-22.71144,36.42106
15.522586346,30.98003,-107.7204,-7.244694,1.232263,-0.2552372,-0.2087712,-40.2331,-22.71144,36.42106
15.532583714,40.45615,-103.3283,-8.03731400000003,1.222171,-0.1329793,-0.2087851,-40.2331,-22.71144,36.42106
15.542580128,40.33308,-98.4020300000002,-8.28119799999998,1.209626,0.01669287,-0.181523,-40.2331,-22.71144,36.42106
15.552577496,30.42623,-92.82291,-8.58605100000002,1.197067,0.1410081,-0.1638258,-40.2331,-22.71144,36.42106
15.562574387,13.87379,-86.1160899999998,-8.28119799999998,1.17695,0.2268723,-0.136534,-36.55579,-23.03417,39.99795
15.572570801,-6.55523999999999,-79.76539,-6.87886999999998,1.145498,0.2414993,-0.1163827,-36.55579,-23.03417,39.99795
15.582568169,-26.18434,-73.7707999999998,-4.988776,1.091082,0.181192,-0.1105294,-36.55579,-23.03417,39.99795
15.59256506,-38.79866,-67.4794500000001,-4.50101,1.050715,0.07283907,-0.1281385,-36.55579,-23.03417,39.99795
15.602561951,-39.90625,-60.2384599999998,-4.927805,1.025095,-0.04259495,-0.1548643,-36.55579,-23.03417,39.99795
15.612558842,-30.184,-51.98848,-5.598484,1.011177,-0.1325946,-0.1887958,-35.45353,-22.61814,43.22928
15.622555256,-15.10836,-43.08562,-5.659454,1.044084,-0.1473683,-0.2280926,-35.45353,-22.61814,43.22928
15.632552624,-3.540112,-34.53888,-4.561981,1.065085,-0.09779437,-0.2195276,-35.45353,-22.61814,43.22928
15.642549515,-0.3403839,-27.83206,-5.049747,1.061215,-0.04652677,-0.184598,-35.45353,-22.61814,43.22928
15.652546883,-1.324916,-21.60007,-5.90333699999997,1.069063,-0.07494577,-0.1740757,-35.45353,-22.61814,43.22928
15.662543297,0.8287475,-16.02094,-6.63498599999997,1.042751,-0.1277728,-0.2079951,-33.18149,-23.74233,43.25204
15.672540188,8.45886800000002,-11.03534,-7.61051899999998,1.017658,-0.1937444,-0.2471776,-33.18149,-23.74233,43.25204
15.682537556,17.81192,-5.396868,-7.61051899999998,0.9988456,-0.2045358,-0.2705923,-33.18149,-23.74233,43.25204
15.69253397,24.51904,-0.3519166,-6.33013299999999,0.9782313,-0.1710631,-0.2854008,-33.18149,-23.74233,43.25204
15.702531338,24.76517,3.624692,-4.866835,0.9653104,-0.1056724,-0.2806094,-33.18149,-23.74233,43.25204
15.712527752,20.45785,7.12648200000003,-3.525478,0.9469714,-0.0632763,-0.2810669,-32.42136,-24.48761,44.42267
15.722524643,13.99686,10.27216,-1.879267,0.9281517,-0.02146332,-0.291095,-32.42136,-24.48761,44.42267
15.732522011,6.05907200000001,12.82431,-0.3549984,0.9033882,-0.0007816879,-0.3140288,-32.42136,-24.48761,44.42267
15.742518425,-2.92478,15.43581,1.230241,0.8832984,0.004376356,-0.3441454,-32.42136,-24.48761,44.42267
15.752515793,-11.1087,16.68221,2.75451,0.8682071,0.00281681,-0.3757047,-32.42136,-24.48761,44.42267
15.762512684,-16.89282,16.97897,4.33975,0.8948101,-0.03839593,-0.3699975,-32.07189,-23.34046,44.80637
15.772509098,-17.50816,17.03833,5.437224,0.8484486,-0.06302843,-0.4656256,-32.07189,-23.34046,44.80637
15.782506466,-14.98529,16.38545,6.10790299999999,0.8480386,-0.06756353,-0.4823738,-32.07189,-23.34046,44.80637
15.792503357,-12.4009,16.80092,5.193341,0.8697022,-0.05278442,-0.4541794,-32.07189,-23.34046,44.80637
15.802500248,-11.78556,17.5725,3.973926,0.8866278,-0.04550209,-0.4384178,-32.07189,-23.34046,44.80637
15.812497139,-10.5549,18.8189,3.120335,0.8919541,-0.04330833,-0.4226347,-32.80058,-24.1166,43.64386
15.822493553,-8.27817099999997,20.24335,2.510627,0.899187,-0.03930422,-0.4255198,-32.80058,-24.1166,43.64386
15.832490921,-5.632242,21.19299,1.718008,0.9045113,-0.03717192,-0.4164366,-32.80058,-24.1166,43.64386
15.842487812,-3.601645,21.13364,0.681504599999997,0.9102976,-0.03427354,-0.4308048,-32.80058,-24.1166,43.64386
15.85248518,-2.55558,20.59947,-0.7817937,0.9168384,-0.01972398,-0.4480487,-32.80058,-24.1166,43.64386
15.862481594,-3.478579,19.53113,-3.281595,0.9157701,-0.0149734,-0.4576195,-32.81461,-23.35916,43.2528
15.872478962,-4.83231,17.86926,-6.08625000000001,0.9050775,-0.01675653,-0.4700434,-32.81461,-23.35916,43.2528
15.882475853,-6.370641,16.38545,-8.95187600000001,0.8913443,-0.01226055,-0.4800707,-32.81461,-23.35916,43.2528
15.892472267,-8.58583600000001,14.72359,-11.57362,0.882992,-0.008489782,-0.4747927,-32.81461,-23.35916,43.2528
15.902469635,-10.86257,13.12107,-14.07342,0.882333,-0.02563796,-0.4886659,-32.81461,-23.35916,43.2528
15.912466049,-12.7701,11.75597,-15.84157,0.8839708,-0.03474199,-0.4781377,-33.54022,-24.5064,43.18882
15.922463417,-14.24689,10.27216,-17.60972,0.8826299,-0.0410287,-0.4719124,-33.54022,-24.5064,43.18882
15.932460308,-13.81616,8.78834800000002,-18.58526,0.8765121,-0.02653624,-0.4680768,-33.54022,-24.5064,43.18882
15.942456722,-13.6931,7.54194799999998,-19.56079,0.873426,-0.01782394,-0.4652022,-33.54022,-24.5064,43.18882
15.95245409,-13.63156,6.117492,-20.29244,0.8683116,-0.004712452,-0.4551465,-33.54022,-24.5064,43.18882
15.962450981,-14.00076,4.811739,-20.10953,0.8767353,0.01399871,-0.4465517,-34.28802,-24.51529,42.79626
15.972448349,-14.73916,3.862102,-19.98759,0.8769748,0.02708439,-0.4508626,-34.28802,-24.51529,42.79626
15.982444763,-15.53909,3.149873,-19.25594,0.8843947,0.04716336,-0.4499236,-34.28802,-24.51529,42.79626
15.992441654,-17.32355,2.437645,-18.2804,0.903317,0.05136333,-0.4566577,-34.28802,-24.51529,42.79626
16.002438545,-19.04649,2.140883,-17.42681,0.9213427,0.05180281,-0.4475963,-33.87227,-26.41753,42.42218
16.012435436,-20.76942,2.081531,-16.45128,0.9379783,0.04827465,-0.4442744,-33.87227,-26.41753,42.42218
16.022432804,-21.81548,1.725416,-15.47575,0.9366376,0.04199672,-0.4370918,-33.87227,-26.41753,42.42218
16.032429218,-22.30775,0.953835399999999,-14.13439,0.9260259,0.0365733,-0.4227146,-33.87227,-26.41753,42.42218
16.042426586,-22.06161,0.2416071,-12.67109,0.9144035,0.03307806,-0.4078576,-33.87227,-26.41753,42.42218
16.052423477,-20.89248,-0.1145072,-11.45168,0.9100229,0.03309679,-0.3963641,-33.4801,-27.1787,42.04202
16.062419891,-19.96948,-0.2925643,-9.98837900000002,0.9097496,0.02204194,-0.3824821,-33.4801,-27.1787,42.04202
16.072417259,-18.98495,-0.4706214,-9.13478800000001,0.9055128,0.01421826,-0.3786441,-33.4801,-27.1787,42.04202
16.08241415,-17.87736,-0.2925643,-8.28119799999998,0.9082953,-0.004183777,-0.377687,-33.4801,-27.1787,42.04202
16.092411041,-15.53909,-0.2332119,-7.67149000000001,0.9051941,-0.0208197,-0.3834203,-33.4801,-27.1787,42.04202
16.102407932,-12.70856,0.1229023,-7.366636,0.9023029,-0.02220744,-0.3695362,-33.46268,-27.94268,41.65907
16.112404346,-10.12417,0.8351307,-7.54954800000001,0.9080329,-0.01567172,-0.358062,-33.46268,-27.94268,41.65907
16.122401714,-7.84743800000001,2.140883,-7.366636,0.9074869,-0.01212739,-0.3413118,-33.46268,-27.94268,41.65907
16.132398605,-6.61677399999998,3.387283,-7.48857699999998,0.9112532,-0.004566466,-0.3197844,-33.46268,-27.94268,41.65907
16.142395973,-6.73984000000002,5.523968,-7.91537200000002,0.9401512,-0.01214687,-0.3078684,-33.46268,-27.94268,41.65907
16.152392387,-6.80137299999998,8.13547199999999,-9.13478800000001,0.9606827,-0.04126962,-0.2954538,-33.06069,-29.08801,40.82943
16.162389278,-4.955376,11.4592,-10.41517,0.9667737,-0.07993687,-0.2858829,-33.06069,-29.08801,40.82943
16.172386646,0.0903486900000002,14.84229,-12.00041,0.9667056,-0.1023135,-0.2882699,-33.06069,-29.08801,40.82943
16.18238306,7.04360400000002,18.46278,-13.46371,0.9743235,-0.1186499,-0.2844504,-33.06069,-29.08801,40.82943
16.192380428,14.48913,21.90522,-15.29283,0.9767989,-0.1204395,-0.2729684,-33.06069,-29.08801,40.82943
16.202376843,21.68851,24.93219,-17.06099,0.9730821,-0.10389,-0.2619589,-33.41999,-29.85099,40.8952
16.212373734,26.98037,28.25592,-19.01205,0.987272,-0.08059933,-0.2433252,-33.41999,-29.85099,40.8952
16.222371101,30.79543,31.46095,-19.92661,1.00891,-0.03866502,-0.2213592,-33.41999,-29.85099,40.8952
16.232367516,32.02609,35.61562,-20.1705,1.023746,0.002149866,-0.2008168,-33.41999,-29.85099,40.8952
16.242364883,29.8109,39.41417,-19.25594,1.043102,0.03571667,-0.1855448,-33.41999,-29.85099,40.8952
16.252361775,25.74971,43.15337,-17.18293,1.054936,0.05451714,-0.174563,-33.41801,-29.8548,40.4437
16.262359142,21.25778,47.07063,-14.50021,1.065482,0.06404611,-0.1650123,-33.41801,-29.8548,40.4437
16.272355557,16.58125,50.75047,-11.39071,1.08355,0.06197339,-0.1650433,-33.41801,-29.8548,40.4437
16.282352448,12.82773,54.60838,-8.28119799999998,1.101007,0.04035879,-0.1751182,-33.41801,-29.8548,40.4437
16.292349339,10.05873,57.99146,-5.049747,1.110836,0.03557076,-0.1885343,-33.41801,-29.8548,40.4437
16.30234623,7.96660199999998,61.37454,-2.428004,1.103748,0.02374179,-0.1913903,-34.17367,-29.48335,40.04911
16.312343597,5.62834,64.1641100000001,-0.1111153,1.108632,0.02348833,-0.1765629,-34.17367,-29.48335,40.04911
16.322340012,3.35161,67.3097800000001,2.144803,1.107239,0.02018203,-0.1631595,-34.17367,-29.48335,40.04911
16.332336903,0.951813900000003,70.6928600000001,4.217809,1.102007,0.01399829,-0.1373057,-34.17367,-29.48335,40.04911
16.342334271,-0.894183000000003,74.66947,6.53469799999998,1.100935,0.01941459,-0.1272551,-34.17367,-29.48335,40.04911
16.352330685,-2.494047,78.52737,8.79061600000001,1.104928,0.01477442,-0.1119464,-34.93969,-28.36152,38.42496
16.362328053,-3.417045,82.4446299999998,11.29042,1.10549,0.01096379,-0.1047678,-34.93969,-28.36152,38.42496
16.372324944,-4.093911,86.2431900000001,13.18051,1.112934,0.003834894,-0.1033432,-34.93969,-28.36152,38.42496
16.382321835,-3.170913,90.3978500000002,14.70478,1.1291,-0.0006875808,-0.1014559,-34.93969,-28.36152,38.42496
16.392318726,-2.55558,94.73058,15.92419,1.136999,0.0199175,-0.0971678,-34.93969,-28.36152,38.42496
16.40231514,-3.047846,98.7071800000002,16.9607,1.124332,0.04602214,-0.08470947,-36.81083,-28.01539,36.02251
16.412312508,-5.93990799999998,101.8529,17.87526,1.105084,0.05939297,-0.06888634,-36.81083,-28.01539,36.02251
16.422309399,-10.24723,104.7611,19.27759,1.098732,0.06096655,-0.042554,-36.81083,-28.01539,36.02251
16.432306767,-14.55456,107.5507,20.497,1.094898,0.03180887,-0.03440401,-36.81083,-28.01539,36.02251
16.442303181,-16.95436,109.9248,21.65545,1.121644,-0.01725944,-0.03778804,-36.81083,-28.01539,36.02251
16.452300549,-15.10836,111.646,23.66748,1.200578,-0.06939478,-0.0642339,-38.983,-28.05849,32.84578
16.46229744,-10.24723,111.8834,25.9234,1.271925,-0.107264,-0.1083775,-38.983,-28.05849,32.84578
16.472293854,-4.46311,109.628,25.86243,1.281884,-0.1188044,-0.1165277,-38.983,-28.05849,32.84578
16.482291222,2.859344,105.1172,22.26515,1.298161,-0.1034757,-0.1227815,-38.983,-28.05849,32.84578
16.492287636,15.28906,100.4878,17.69235,1.321547,-0.1292808,-0.1256871,-38.983,-28.05849,32.84578
16.502285004,30.42623,95.7395599999999,13.48536,1.281853,-0.1182148,-0.1581639,-41.60809,-27.34416,29.66174
16.512281895,40.02541,90.7539700000001,9.52226500000001,1.191742,-0.06937042,-0.2015698,-41.60809,-27.34416,29.66174
16.522278309,40.76381,85.7683599999998,6.16887299999999,1.106429,-0.01577706,-0.2143565,-41.60809,-27.34416,29.66174
16.532275677,34.73355,80.07054,4.095867,1.010265,0.04498317,-0.2170759,-41.60809,-27.34416,29.66174
16.542272568,25.93431,73.8385399999998,2.815481,0.9283226,0.07488903,-0.2236408,-41.60809,-27.34416,29.66174
16.552269936,16.58125,67.3691300000001,1.90092,0.8616239,0.07158364,-0.2283095,-43.50701,-25.48368,26.41268
16.56226635,9.25880099999997,61.7306599999998,2.022861,0.8226134,0.04694474,-0.2344566,-43.50701,-25.48368,26.41268
16.572263241,4.459208,55.73607,2.571598,0.7978029,0.01872519,-0.2377561,-43.50701,-25.48368,26.41268
16.582260132,2.613211,50.2163,3.364218,0.7719916,-0.008029999,-0.2381828,-43.50701,-25.48368,26.41268
16.592257023,4.336142,44.63718,5.376253,0.7487191,-0.01434741,-0.2410121,-44.26965,-24.3684,24.01453
16.602254391,5.566806,38.16777,7.14440499999997,0.7292667,-0.01681586,-0.256292,-44.26965,-24.3684,24.01453
16.612250805,7.41280299999999,30.63002,8.668674,0.7370988,-0.01931893,-0.2811909,-44.26965,-24.3684,24.01453
16.622248173,8.58193500000002,22.61745,9.70517700000002,0.7605785,-0.02425741,-0.2874521,-44.26965,-24.3684,24.01453
16.632245064,8.52040099999998,13.65524,9.70517700000002,0.7951148,-0.02046205,-0.2659773,-44.26965,-24.3684,24.01453
16.642241478,8.82806800000001,5.167854,9.70517700000002,0.8287912,0.004054864,-0.2086132,-44.64101,-24.37775,23.23774
16.652238846,8.88960099999997,-2.013783,10.31489,0.8524018,0.04524488,-0.1660717,-44.64101,-24.37775,23.23774
16.662235737,6.12060500000003,-8.00837199999998,11.59527,0.8733695,0.07045093,-0.1651576,-44.64101,-24.37775,23.23774
16.672232628,0.3980148,-15.30871,14.33895,0.8864846,0.07264504,-0.1661382,-44.64101,-24.37775,23.23774
16.682229519,-6.73984000000002,-23.32128,16.47293,0.8873771,0.07704931,-0.1647052,-44.64101,-24.37775,23.23774
16.692226887,-12.09323,-31.74932,18.30205,0.8909507,0.0683598,-0.1661449,-45.3669,-25.52444,23.23827
16.702223301,-15.72369,-40.05865,19.0337,0.9002138,0.04238093,-0.15754,-45.3669,-25.52444,23.23827
16.712220192,-17.13896,-47.35899,19.0337,0.9114459,0.01553925,-0.141281,-45.3669,-25.52444,23.23827
16.72221756,-16.21596,-53.11617,18.54594,0.9058053,0.0048643,-0.1273898,-45.3669,-25.52444,23.23827
16.732213974,-13.6931,-57.6862999999997,17.32652,0.8999149,-0.01845445,-0.1139734,-45.3669,-25.52444,23.23827
16.742211342,-10.30877,-61.95968,14.82672,0.8982371,-0.03239129,-0.09338807,-45.41916,-23.2325,24.3871
16.752208233,-5.816842,-65.6395299999998,11.90012,0.9038389,-0.04471332,-0.07138018,-45.41916,-23.2325,24.3871
16.762204647,-0.832649800000001,-68.7258499999997,8.30284999999999,0.918816,-0.03747387,-0.05609372,-45.41916,-23.2325,24.3871
16.772202015,4.397675,-71.3373500000002,4.583633,0.9432599,-0.01552178,-0.04657046,-45.41916,-23.2325,24.3871
16.782198429,7.843536,-73.2959799999998,0.986358399999998,0.967026,0.0166524,-0.03369862,-45.41916,-23.2325,24.3871
16.792195797,8.64346799999999,-73.9488500000001,-2.184121,1.00815,0.03259487,-0.02659577,-44.67225,-23.58707,26.7812
16.802192688,7.47433699999998,-73.8895,-4.866835,1.04821,0.05345031,-0.01135655,-44.67225,-23.58707,26.7812
16.812190056,5.074541,-73.2366299999997,-6.93983999999998,1.07971,0.06289418,-0.003278098,-44.67225,-23.58707,26.7812
16.82218647,2.059412,-72.3463399999997,-8.52507999999999,1.107254,0.07580183,0.02012079,-44.67225,-23.58707,26.7812
16.832183361,-0.832649800000001,-71.2780000000001,-9.56158399999997,1.127817,0.07097678,0.03252916,-44.67225,-23.58707,26.7812
16.842180729,-3.293979,-69.5567799999999,-9.98837900000002,1.145095,0.05922225,0.03824498,-43.57249,-22.80104,28.785
16.852177143,-4.64771,-67.6574999999998,-9.86643700000001,1.161504,0.04146133,0.02673512,-43.57249,-22.80104,28.785
16.862174511,-4.524643,-65.6988799999999,-9.50061200000003,1.171551,0.02498869,0.01045026,-43.57249,-22.80104,28.785
16.872170925,-4.709243,-64.0370099999998,-9.56158399999997,1.163866,0.01897484,0.007115177,-43.57249,-22.80104,28.785
16.882168293,-4.46311,-62.5532000000002,-9.43964200000003,1.145242,-0.00136059,0.00236712,-43.57249,-22.80104,28.785
16.892165184,-3.724712,-60.1791,-9.86643700000001,1.12645,-0.01305327,-0.01339012,-42.81773,-23.53596,31.18113
16.902161598,-2.124848,-57.15213,-9.92740700000002,1.098917,-0.02561419,0.001018394,-42.81773,-23.53596,31.18113
16.912158966,-0.709583300000001,-52.99747,-10.04935,1.078035,-0.02942834,0.001055779,-42.81773,-23.53596,31.18113
16.922155857,0.705681,-48.48669,-9.74449500000001,1.05854,-0.02938459,-0.005131736,-42.81773,-23.53596,31.18113
16.932153225,1.505613,-43.73849,-9.43964200000003,1.049483,-0.04034197,-0.01468465,-42.81773,-23.53596,31.18113
16.942149639,1.813279,-39.88059,-9.43964200000003,1.04091,-0.05135557,-0.03141703,-40.93703,-24.26572,33.1986
16.95214653,1.690213,-37.15038,-9.43964200000003,1.040096,-0.06026775,-0.0476849,-40.93703,-24.26572,33.1986
16.962143898,1.813279,-34.65759,-9.56158399999997,1.0452,-0.07291982,-0.06061209,-40.93703,-24.26572,33.1986
16.972140312,1.997879,-32.10543,-9.378671,1.042484,-0.08427297,-0.07400456,-40.93703,-24.26572,33.1986
16.98213768,3.228544,-30.08745,-8.76896300000003,1.046018,-0.09110282,-0.08453763,-40.93703,-24.26572,33.1986
16.992134094,4.274609,-28.48494,-7.91537200000002,1.049784,-0.08430856,-0.0936389,-40.18504,-24.6301,34.43169
17.002131462,5.25914,-27.11983,-6.93983999999998,1.043898,-0.08261707,-0.1084649,-40.18504,-24.6301,34.43169
17.012128353,5.382206,-25.75473,-6.08625000000001,1.036333,-0.06925668,-0.1189839,-40.18504,-24.6301,34.43169
17.022124767,4.090009,-24.50833,-5.3546,1.02738,-0.05979807,-0.1280636,-40.18504,-24.6301,34.43169
17.032122135,2.613211,-22.78711,-4.561981,1.018419,-0.04982298,-0.1337935,-40.18504,-24.6301,34.43169
17.042119026,1.382547,-21.24395,-3.098683,1.008861,-0.03402399,-0.1390452,-39.05803,-24.99221,35.60307
17.052116394,-0.4634504,-19.81949,-1.635384,0.9989166,-0.02358239,-0.1447735,-39.05803,-24.99221,35.60307
17.062112808,-2.863246,-18.27633,-0.05014454,0.9988769,-0.02174029,-0.1557811,-39.05803,-24.99221,35.60307
17.072110176,-4.46311,-16.55511,1.778978,1.004309,-0.02549418,-0.1529182,-39.05803,-24.99221,35.60307
17.08210659,-5.078443,-15.19001,3.181306,1.00232,-0.0237257,-0.167751,-39.05803,-24.99221,35.60307
17.092103481,-4.83231,-13.88426,4.705575,0.9921095,-0.0248686,-0.1643829,-38.68498,-24.98613,35.99285
17.102100849,-4.586177,-11.92563,5.92499000000001,0.994872,-0.01593987,-0.1505113,-38.68498,-24.98613,35.99285
17.112097263,-4.770776,-10.0857,7.08343500000003,0.9990653,-0.005625931,-0.1476498,-38.68498,-24.98613,35.99285
17.122094631,-5.632242,-8.12707699999999,7.57120099999999,0.9995772,-0.007152593,-0.1562647,-38.68498,-24.98613,35.99285
17.132091522,-5.324575,-6.287153,7.754113,1.002174,-0.01594035,-0.166317,-38.68498,-24.98613,35.99285
17.14208889,-4.46311,-5.337515,7.26634699999998,1.001328,-0.02274709,-0.1648781,-38.29818,-25.73695,36.83819
17.152085304,-2.986313,-4.506582,6.59566799999998,1.007669,-0.02312091,-0.1663248,-38.29818,-25.73695,36.83819
17.162082195,-1.571049,-3.675649,5.620136,1.013385,-0.01626183,-0.172558,-38.29818,-25.73695,36.83819
17.172079086,-1.324916,-2.963421,4.461692,1.009461,-0.01486397,-0.1706372,-38.29818,-25.73695,36.83819
17.182075977,-1.940248,-2.666659,3.608101,1.006441,-0.00949056,-0.1610618,-37.99376,-25.35425,36.83848
17.192073345,-2.247914,-2.073135,2.571598,1.001245,-0.01839279,-0.1667934,-37.99376,-25.35425,36.83848
17.202069759,-1.447982,-1.360907,1.839949,1.001576,-0.03656787,-0.1888038,-37.99376,-25.35425,36.83848
17.212067127,-0.3403839,-1.242202,0.986358399999998,0.9903072,-0.03344594,-0.1950064,-37.99376,-25.35425,36.83848
17.222064018,0.5826145,-0.9454404,0.3766508,0.9915767,-0.02322486,-0.1959684,-37.99376,-25.35425,36.83848
17.232060432,0.705681,-0.886087999999999,-0.4159691,0.992377,-0.01399371,-0.1978865,-39.05553,-25.36222,36.8306
17.2420578,0.3980148,-0.4706214,-0.903735200000002,0.9804481,-0.001629997,-0.2016975,-39.05553,-25.36222,36.8306
17.252054691,-0.709583300000001,-0.2925643,-1.086647,0.9784526,0.0007164212,-0.2064804,-39.05553,-25.36222,36.8306
17.262051582,-1.386449,0.004197581,-1.147618,0.9770278,-0.001255496,-0.2064774,-39.05553,-25.36222,36.8306
17.272048473,-1.632582,-0.05515479,-0.903735200000002,0.9751765,-0.006738318,-0.21748,-39.05553,-25.36222,36.8306
17.282044888,-1.447982,0.2416071,-0.659852100000001,0.9753473,-0.01604678,-0.2260923,-38.31391,-24.97624,36.83414
17.292042255,-0.586516899999998,0.5383689,-0.5379106,0.982672,-0.01687834,-0.2265834,-38.31391,-24.97624,36.83414
17.302039146,0.2749484,1.013188,-0.2940276,0.9894529,-0.0148664,-0.2337744,-38.31391,-24.97624,36.83414
17.312036514,0.705681,1.488007,0.1327677,0.9942141,-0.008954194,-0.2352199,-38.31391,-24.97624,36.83414
17.322032929,0.705681,1.844121,0.803446099999999,0.9990032,-0.004481714,-0.2347509,-38.31391,-24.97624,36.83414
17.332030296,-0.5249836,1.903473,1.596066,0.997992,-0.002575471,-0.2366639,-38.00163,-24.9739,36.83645
17.342027187,-2.124848,1.725416,2.327715,1.01073,-0.006198178,-0.2352494,-38.00163,-24.9739,36.83645
17.352023602,-3.663178,1.30995,2.937423,1.014358,-0.01782858,-0.2395599,-38.00163,-24.9739,36.83645
17.362020969,-4.093911,0.953835399999999,3.242276,1.019693,-0.04254128,-0.2433915,-38.00163,-24.9739,36.83645
17.372017384,-3.170913,0.5383689,3.608101,1.013489,-0.04945388,-0.2419432,-38.00163,-24.9739,36.83645
17.382014752,-1.694115,0.3009594,3.48616,1.007183,-0.05106701,-0.2452818,-39.06339,-24.98186,36.82858
17.392011643,-0.709583300000001,-0.2925643,3.364218,0.9943986,-0.04501988,-0.2471754,-39.06339,-24.98186,36.82858
17.40200901,-0.6480501,-1.301555,3.059364,0.9899619,-0.04213048,-0.2404683,-39.06339,-24.98186,36.82858
17.412005425,-1.386449,-1.776374,2.75451,0.9805985,-0.03644909,-0.2366249,-39.06339,-24.98186,36.82858
17.422002316,-1.940248,-2.726011,2.571598,0.9743195,-0.03953265,-0.2413989,-39.06339,-24.98186,36.82858
17.431999683,-1.755648,-3.319535,2.266744,0.9665996,-0.043542,-0.2380344,-37.63305,-24.594,36.4502
17.441996098,-0.4634504,-3.913059,2.266744,0.9632901,-0.04895713,-0.2385058,-37.63305,-24.594,36.4502
17.451993466,0.705681,-4.506582,2.022861,0.9625626,-0.03643791,-0.249515,-37.63305,-24.594,36.4502
17.46198988,0.705681,-5.278163,2.327715,0.967714,-0.02506298,-0.2389982,-37.63305,-24.594,36.4502
17.471987248,-0.2788507,-5.931039,2.327715,0.9704427,-0.01487886,-0.2471414,-37.63305,-24.594,36.4502
17.481984139,-0.832649800000001,-6.58391499999997,2.632569,0.9698193,-0.007584511,-0.2452279,-37.99993,-24.97717,36.44945
17.491980553,-1.632582,-7.29614399999999,2.815481,0.9703242,-0.008559576,-0.2466642,-37.99993,-24.97717,36.44945
17.501977921,-2.986313,-8.18642900000001,3.242276,0.9731935,-0.005543376,-0.2418842,-37.99993,-24.97717,36.44945
17.511974812,-4.093911,-8.95800999999999,3.608101,0.9750694,-0.001605623,-0.2404528,-37.99993,-24.97717,36.44945
17.52197218,-5.263042,-9.43282899999999,3.730042,0.9795807,-0.008332833,-0.2418946,-37.99993,-24.97717,36.44945
17.531968594,-6.12450699999998,-9.96700000000001,3.851984,0.9791773,-0.01266164,-0.2361499,-38.32177,-24.59588,36.83211
17.541965962,-6.18604100000003,-10.61988,3.791013,0.9797904,-0.01950973,-0.2423707,-38.32177,-24.59588,36.83211
17.551962376,-6.001441,-10.97599,3.48616,0.9763795,-0.01961221,-0.2461934,-38.32177,-24.59588,36.83211
17.561959267,-5.139976,-11.86628,2.876452,0.9755612,-0.02786307,-0.2433183,-38.32177,-24.59588,36.83211
17.571956635,-3.847778,-11.98498,2.205774,0.9764989,-0.02590077,-0.2433205,-38.32177,-24.59588,36.83211
17.581953049,-2.92478,-12.10369,1.352183,0.9765726,-0.02976492,-0.2409267,-38.31391,-24.97624,36.83414
17.591950417,-2.063314,-11.92563,0.3766508,0.9785207,-0.02973959,-0.2423659,-38.31391,-24.97624,36.83414
17.601947308,-1.386449,-11.80692,-0.1111153,0.9883074,-0.03200665,-0.2457324,-38.31391,-24.97624,36.83414
17.611944676,-0.832649800000001,-11.3321,-0.720822899999998,0.9848516,-0.02965838,-0.2471627,-38.31391,-24.97624,36.83414
17.62194109,-0.7711166,-11.0947,-1.147618,0.987788,-0.03071261,-0.262482,-38.31391,-24.97624,36.83414
17.631938457,-1.017249,-10.91664,-1.391501,0.9922624,-0.03550994,-0.26536,-38.32177,-24.59588,36.83211
17.641934872,-1.386449,-10.85729,-1.208589,0.9926376,-0.0297458,-0.2734979,-38.32177,-24.59588,36.83211
17.651931763,-2.55558,-10.61988,-1.26956,0.9939476,-0.02134048,-0.2605808,-38.32177,-24.59588,36.83211
17.66192913,-3.417045,-10.20441,-0.903735200000002,0.9992523,-0.01828493,-0.2567622,-38.32177,-24.59588,36.83211
17.671925545,-4.093911,-9.78894299999998,-0.659852100000001,1.004144,-0.01908999,-0.2491133,-38.32177,-24.59588,36.83211
17.681922913,-4.709243,-8.95800999999999,-0.2940276,1.003315,-0.02691653,-0.2529385,-38.005,-24.96736,37.61046
17.691919804,-4.955376,-8.30513400000001,0.0717969800000001,1.00044,-0.02933724,-0.2457542,-38.005,-24.96736,37.61046
17.701917171,-4.83231,-8.18642900000001,0.4985923,0.9942257,-0.03577725,-0.2457417,-38.005,-24.96736,37.61046
17.711913586,-4.093911,-8.245782,0.7424754,0.9962443,-0.03971263,-0.2553158,-38.005,-24.96736,37.61046
17.721910477,-2.186381,-8.245782,0.803446099999999,0.9960497,-0.05524906,-0.2533971,-38.005,-24.96736,37.61046
17.731907368,-0.586516899999998,-8.42383900000002,0.803446099999999,0.9953797,-0.04555663,-0.2548342,-38.0067,-24.96409,37.99746
17.741904259,0.5210813,-8.542543,0.803446099999999,0.9932043,-0.03341598,-0.2510049,-38.0067,-24.96409,37.99746
17.751901627,0.5210813,-8.60189500000002,0.7424754,0.9877671,-0.02905342,-0.2404679,-38.0067,-24.96409,37.99746
17.761898041,0.2749484,-8.66124800000001,0.620533899999998,0.9848494,-0.0297286,-0.2548199,-38.0067,-24.96409,37.99746
17.771895409,0.3980148,-8.48319099999998,0.4985923,0.9858603,-0.03164362,-0.253864,-37.24766,-25.34209,37.61805
17.7818923,0.0903486900000002,-8.42383900000002,0.2547093,0.9892229,-0.02919573,-0.2591349,-37.24766,-25.34209,37.61805
17.791888714,-0.2173175,-7.65225799999999,-0.05014454,0.9897633,-0.03214896,-0.2643993,-37.24766,-25.34209,37.61805
17.801886082,-0.586516899999998,-6.88067700000001,-0.2330568,0.9844398,-0.03425053,-0.2701325,-37.24766,-25.34209,37.61805
17.811882973,-1.078783,-6.04974400000001,-0.3549984,0.9818777,-0.02746288,-0.2663011,-37.24766,-25.34209,37.61805
17.821879864,-1.386449,-5.337515,-0.3549984,0.9740837,-0.02762564,-0.2672446,-37.24935,-25.33882,38.00505
17.831876755,-2.063314,-4.565935,-0.1111153,0.9765728,-0.03053159,-0.2715554,-37.24935,-25.33882,38.00505
17.841874123,-2.494047,-3.913059,-0.4159691,0.9725569,-0.02430685,-0.2729857,-37.24935,-25.33882,38.00505
17.851870537,-2.494047,-3.43824,-0.2330568,0.978952,-0.02761718,-0.2768246,-37.24935,-25.33882,38.00505
17.861867428,-2.309447,-3.022773,-0.2330568,0.9726933,-0.03160643,-0.2744198,-37.24935,-25.33882,38.00505
17.871864796,-0.894183000000003,-2.547954,-0.2330568,0.9790458,-0.03239579,-0.2682092,-37.63196,-24.96128,38.00024
17.88186121,0.3364816,-1.895078,-0.1111153,0.9746792,-0.03348026,-0.2710728,-37.63196,-24.96128,38.00024
17.891858578,1.07488,-1.895078,-0.2330568,0.9760125,-0.02665951,-0.272034,-37.63196,-24.96128,38.00024
17.901855469,1.321013,-1.895078,-0.2940276,0.974983,-0.02378174,-0.2739472,-37.63196,-24.96128,38.00024
17.91185236,1.197947,-1.895078,-0.3549984,0.9715546,-0.02289076,-0.2753772,-37.63196,-24.96128,38.00024
17.921849251,0.705681,-2.310545,-0.4769399,0.9751096,-0.03061752,-0.2777743,-36.86872,-25.71255,38.46136
17.931845665,0.3364816,-2.547954,-0.4769399,0.9662964,-0.02834877,-0.2763238,-36.86872,-25.71255,38.46136
17.941843033,0.2134152,-2.904068,-0.4769399,0.9644597,-0.03414618,-0.2686619,-36.86872,-25.71255,38.46136
17.951839924,0.4595481,-3.141478,-0.659852100000001,0.9707523,-0.03218336,-0.2801592,-36.86872,-25.71255,38.46136
17.961837292,0.767214200000001,-2.904068,-0.659852100000001,0.9704548,-0.04245542,-0.2868561,-36.86872,-25.71255,38.46136
17.971833706,0.8287475,-3.022773,-0.598881400000002,0.9723473,-0.03954187,-0.2911673,-37.25722,-24.95847,38.00302
17.981831074,0.2749484,-2.963421,-0.598881400000002,0.9751295,-0.03230743,-0.3031385,-37.25722,-24.95847,38.00302
17.991827965,-0.2788507,-3.022773,-0.2940276,0.9760311,-0.02839331,-0.3021839,-37.25722,-24.95847,38.00302
18.001824856,-1.017249,-2.963421,0.01082622,0.9832548,-0.02389905,-0.3045905,-37.25722,-24.95847,38.00302
18.011821747,-1.878715,-2.666659,0.1937385,0.9880735,-0.02081363,-0.2964639,-37.25722,-24.95847,38.00302
18.021818161,-2.309447,-2.607306,0.5595631,0.9876763,-0.02572476,-0.3012477,-37.25133,-25.33501,38.45655
18.031815529,-2.432514,-2.488602,0.925387699999998,0.9857351,-0.02631046,-0.3079442,-37.25133,-25.33501,38.45655
18.04181242,-2.186381,-2.547954,1.230241,0.9736023,-0.02900181,-0.3103153,-37.25133,-25.33501,38.45655
18.051809788,-1.817181,-2.42925,1.291212,0.9716991,-0.03148228,-0.311747,-37.25133,-25.33501,38.45655
18.061806202,-1.447982,-2.369897,1.169271,0.9776354,-0.0362288,-0.3122348,-37.25133,-25.33501,38.45655
18.07180357,-1.201849,-2.073135,0.7424754,0.9849436,-0.03603616,-0.3069832,-37.25133,-25.33501,38.45655
18.081800461,-1.078783,-2.310545,0.31568,0.9829863,-0.03558011,-0.3060228,-37.25133,-25.33501,38.45655
18.091796875,-0.586516899999998,-2.488602,-0.1720861,0.9810858,-0.03797719,-0.2983616,-37.25133,-25.33501,38.45655
18.101794243,-0.2173175,-2.904068,-0.4159691,0.973927,-0.04583228,-0.291647,-37.25133,-25.33501,38.45655
18.111790657,0.2134152,-3.497592,-0.7817937,0.9698123,-0.03421589,-0.2878143,-37.25133,-25.33501,38.45655
18.121788025,0.3980148,-4.031764,-1.025677,0.9610261,-0.03341759,-0.2877991,-36.88445,-24.95184,38.4573
18.131784916,0.4595481,-4.922049,-1.330531,0.9596114,-0.03584454,-0.284446,-36.88445,-24.95184,38.4573
18.141782284,0.644147799999998,-5.278163,-1.452472,0.9566432,-0.03347348,-0.2844415,-36.88445,-24.95184,38.4573
18.151778698,1.197947,-5.574925,-1.208589,0.9516349,-0.02629207,-0.2853917,-36.88445,-24.95184,38.4573
18.161776066,0.951813900000003,-5.99039199999999,-1.208589,0.9500174,-0.01809812,-0.2892196,-36.88445,-24.95184,38.4573
18.17427206,0.951813900000003,-5.81233500000002,-0.720822899999998,0.9500073,-0.01764308,-0.2925698,-36.86674,-25.71637,38.00986
18.181769371,0.5210813,-5.574925,-0.659852100000001,0.9500256,-0.0186146,-0.2925695,-36.86674,-25.71637,38.00986
18.191766739,0.1518819,-5.337515,-0.2940276,0.9557884,-0.01413605,-0.2935379,-36.86674,-25.71637,38.00986
18.201763153,-0.4019172,-5.040754,-0.05014454,0.9593589,-0.02292211,-0.3055063,-36.86674,-25.71637,38.00986
18.214260101,-0.2173175,-4.150468,0.4376215,0.9798724,-0.02542809,-0.3050628,-36.87828,-25.32893,38.84633
18.224256516,-0.2788507,-3.43824,0.803446099999999,0.9847869,-0.0278265,-0.3122494,-36.87828,-25.32893,38.84633
18.23175478,-0.4019172,-2.963421,0.925387699999998,0.9934735,-0.02325947,-0.3098728,-36.87828,-25.32893,38.84633
18.244250774,-0.586516899999998,-2.251192,1.291212,0.9973309,-0.02133161,-0.3199302,-36.87828,-25.32893,38.84633
18.254247189,-1.017249,-2.19184,1.230241,0.9979741,-0.0295492,-0.3165791,-36.87828,-25.32893,38.84633
18.264244556,-1.017249,-2.013783,1.352183,0.9925534,-0.02621084,-0.3117847,-36.12879,-25.3233,38.85189
18.274241448,-1.263382,-1.835726,0.986358399999998,0.9907418,-0.03353576,-0.3117797,-36.12879,-25.3233,38.85189
18.284238339,-1.201849,-1.479612,1.047329,0.9815971,-0.03952141,-0.3088908,-36.12879,-25.3233,38.85189
18.29423523,-0.709583300000001,-1.301555,0.803446099999999,0.9796681,-0.04049631,-0.3050585,-36.12879,-25.3233,38.85189
18.304232597,0.1518819,-1.538964,0.620533899999998,0.9729212,-0.0445303,-0.3064815,-36.12879,-25.3233,38.85189
18.314229012,0.8287475,-1.657669,0.3766508,0.9640998,-0.04174507,-0.3016811,-36.87828,-25.32893,38.84633
18.324225903,1.321013,-1.657669,0.4376215,0.9547724,-0.03802428,-0.2997515,-36.87828,-25.32893,38.84633
18.33422327,0.8287475,-2.073135,0.3766508,0.9562438,-0.03845045,-0.2964039,-36.87828,-25.32893,38.84633
18.344219685,-0.2173175,-2.607306,0.1937385,0.9527695,-0.03513943,-0.2987916,-36.87828,-25.32893,38.84633
18.354217053,-1.017249,-3.43824,0.31568,0.9518875,-0.03998557,-0.2954388,-36.87828,-25.32893,38.84633
18.364213944,-0.955716300000001,-3.972411,0.31568,0.9520037,-0.04637508,-0.3035731,-37.25641,-25.3252,39.61755
18.374210835,0.1518819,-4.44723,0.2547093,0.9505786,-0.04835577,-0.3045273,-37.25641,-25.3252,39.61755
18.384207726,0.644147799999998,-4.684639,0.31568,0.952372,-0.04005934,-0.3045325,-37.25641,-25.3252,39.61755
18.39420414,0.767214200000001,-4.803344,0.0717969800000001,0.9483296,-0.03234658,-0.3026132,-37.25641,-25.3252,39.61755
18.404201508,0.5826145,-4.684639,0.0717969800000001,0.9513507,-0.03769367,-0.3093171,-37.25641,-25.3252,39.61755
18.414198399,0.3980148,-4.625287,0.01082622,0.9562665,-0.04005257,-0.3121965,-36.50523,-25.32284,39.23611
18.424195767,0.705681,-4.387877,0.1327677,0.9634612,-0.0341537,-0.3203464,-36.50523,-25.32284,39.23611
18.434192181,0.8287475,-3.853706,0.31568,0.9725778,-0.02673709,-0.3261071,-36.50523,-25.32284,39.23611
18.444189549,0.8287475,-3.260183,0.5595631,0.9739948,-0.02423991,-0.321803,-36.50523,-25.32284,39.23611
18.45418644,0.5210813,-2.488602,0.864416900000002,0.9793534,-0.02412088,-0.3203767,-36.50523,-25.32284,39.23611
18.464183807,0.1518819,-1.598316,1.230241,0.9777645,-0.01734471,-0.3198971,-36.12431,-25.69712,39.62792
18.474180222,0.02881546,-1.301555,1.596066,0.9787104,-0.0158989,-0.3232491,-36.12431,-25.69712,39.62792
18.484176636,-0.709583300000001,-0.9454404,1.839949,0.9879925,-0.01718211,-0.3242221,-36.12431,-25.69712,39.62792
18.494174004,-1.324916,-0.648678499999998,2.205774,0.9851803,-0.02303826,-0.3208657,-36.12431,-25.69712,39.62792
18.504170895,-1.632582,-0.589326100000003,2.449656,0.9823978,-0.03027709,-0.3093731,-36.12431,-25.69712,39.62792
18.514168263,-1.694115,-0.4706214,2.266744,0.9838848,-0.03175817,-0.3151183,-35.75744,-25.31395,39.62868
18.524164677,-1.386449,-0.2925643,2.144803,0.9867812,-0.03020803,-0.3112951,-35.75744,-25.31395,39.62868
18.534162045,-1.571049,-0.4706214,1.90092,0.9813516,-0.02637952,-0.3060223,-35.75744,-25.31395,39.62868
18.544158936,-2.124848,-0.886087999999999,1.90092,0.9795475,-0.03424287,-0.31176,-35.75744,-25.31395,39.62868
18.554156304,-2.617113,-1.301555,1.291212,0.9704037,-0.04019779,-0.3055211,-35.75744,-25.31395,39.62868
18.564152718,-2.124848,-1.360907,0.803446099999999,0.9660739,-0.04322091,-0.3079056,-36.13835,-24.93967,39.23687
18.574149609,-1.078783,-1.301555,0.2547093,0.9608439,-0.05010989,-0.3059804,-36.13835,-24.93967,39.23687
18.5841465,-0.0942510000000003,-1.242202,-0.05014454,0.9519564,-0.04399894,-0.3093165,-36.13835,-24.93967,39.23687
18.594143391,0.4595481,-1.360907,-0.659852100000001,0.9523877,-0.04110986,-0.3131466,-36.13835,-24.93967,39.23687
18.604140759,0.890280700000001,-0.9454404,-0.964705900000002,0.9503382,-0.03582254,-0.3150587,-36.13835,-24.93967,39.23687
18.614137173,1.197947,-1.360907,-1.086647,0.9484369,-0.03824595,-0.3102691,-36.87997,-25.32566,39.23333
18.62413454,1.44408,-1.538964,-1.025677,0.9404784,-0.02967378,-0.3121717,-36.87997,-25.32566,39.23333
18.634131431,1.628679,-1.242202,-0.964705900000002,0.9477839,-0.02956454,-0.316013,-36.87997,-25.32566,39.23333
18.644128799,1.197947,-1.360907,-0.659852100000001,0.9549899,-0.02408559,-0.3169842,-36.87997,-25.32566,39.23333
18.654125214,0.4595481,-1.123497,-0.659852100000001,0.9593809,-0.02455057,-0.3241703,-36.87997,-25.32566,39.23333
18.664122105,0.2749484,-0.589326100000003,-0.4769399,0.9638358,-0.0284115,-0.3308772,-36.49905,-25.69993,39.62514
18.674118996,0.02881546,-0.2332119,-0.4159691,0.9708278,-0.03753256,-0.3337585,-36.49905,-25.69993,39.62514
18.684115887,0.1518819,0.06354995,-0.1720861,0.9746391,-0.03319345,-0.3457306,-36.49905,-25.69993,39.62514
18.694113254,0.3364816,0.657073599999999,-0.05014454,0.9780132,-0.03115671,-0.3428656,-36.49905,-25.69993,39.62514
18.704109669,-0.1557842,0.953835399999999,0.01082622,0.9779228,-0.02627276,-0.3399952,-36.49905,-25.69993,39.62514
18.714107037,-1.201849,0.953835399999999,-0.1111153,0.988452,-0.01572398,-0.3251804,-36.49736,-25.7032,39.23814
18.724103928,-2.124848,1.131893,0.1937385,0.9852239,-0.02552852,-0.3275652,-36.49736,-25.7032,39.23814
18.734101295,-2.370981,0.8351307,0.4376215,0.9756174,-0.03304692,-0.3318537,-36.49736,-25.7032,39.23814
18.74409771,-1.817181,0.657073599999999,0.4376215,0.9752507,-0.03931438,-0.3256299,-36.49736,-25.7032,39.23814
18.754094601,-0.955716300000001,0.4790165,0.4376215,0.9718068,-0.03736408,-0.3174886,-36.49736,-25.7032,39.23814
18.764091492,-0.4019172,0.4196641,0.3766508,0.9654559,-0.03652645,-0.318435,-35.74171,-26.07466,39.63274
18.774088383,-0.586516899999998,0.1229023,0.31568,0.9555246,-0.02644332,-0.3102844,-35.74171,-26.07466,39.63274
18.784085751,-1.078783,-0.3519166,0.2547093,0.9565188,-0.02733854,-0.3040645,-35.74171,-26.07466,39.63274
18.794082165,-1.447982,-0.9454404,-0.05014454,0.9488796,-0.03576801,-0.3059632,-35.74171,-26.07466,39.63274
18.804079533,-1.140316,-1.004793,-0.05014454,0.9421874,-0.04271658,-0.3073855,-36.12262,-25.70039,39.24092
18.814076424,-0.586516899999998,-1.18285,-0.1111153,0.9383177,-0.04425962,-0.3083355,-36.12262,-25.70039,39.24092
18.824073791,-0.0942510000000003,-1.479612,-0.2940276,0.9392728,-0.0432952,-0.3112089,-36.12262,-25.70039,39.24092
18.834070206,0.0903486900000002,-1.835726,-0.5379106,0.9400934,-0.03496972,-0.3059481,-36.12262,-25.70039,39.24092
18.844067097,-0.0942510000000003,-2.013783,-0.7817937,0.9502479,-0.03093859,-0.3121884,-36.12262,-25.70039,39.24092
18.854063988,-0.1557842,-2.073135,-0.964705900000002,0.9551997,-0.03525809,-0.3169817,-36.12431,-25.69712,39.62792
18.864060879,-0.1557842,-1.538964,-1.513443,0.9600511,-0.03423423,-0.3217762,-36.12431,-25.69712,39.62792
18.874058247,0.0903486900000002,-0.9454404,-1.513443,0.9707039,-0.0306134,-0.3208385,-36.12431,-25.69712,39.62792
18.884054661,0.1518819,-0.3519166,-1.757326,0.9790088,-0.03201241,-0.3323385,-36.12431,-25.69712,39.62792
18.894052029,-0.0942510000000003,0.3603118,-1.879267,0.9813985,-0.02953988,-0.3328218,-36.12431,-25.69712,39.62792
18.90404892,-0.3403839,0.894483100000001,-1.818297,0.9832815,-0.02614934,-0.3380903,-36.50075,-25.69666,40.01215
18.914046288,-0.6480501,1.30995,-1.513443,0.9960029,-0.02876101,-0.3323689,-36.50075,-25.69666,40.01215
18.924042702,-0.7711166,1.428654,-1.330531,0.9963984,-0.02390255,-0.333328,-36.50075,-25.69666,40.01215
18.934039593,-1.078783,1.666064,-1.086647,0.9920255,-0.02441349,-0.3266202,-36.50075,-25.69666,40.01215
18.944036484,-1.078783,1.725416,-0.903735200000002,0.9882025,-0.02834584,-0.3232625,-36.50075,-25.69666,40.01215
18.954033375,-1.017249,1.903473,-0.4159691,0.9876974,-0.02737955,-0.3227833,-36.12262,-25.70039,39.24092
18.964030743,-1.386449,1.428654,0.0717969800000001,0.9773052,-0.01879844,-0.3184602,-36.12262,-25.70039,39.24092
18.974027157,-1.755648,1.250597,0.1327677,0.9696855,-0.02815995,-0.3160516,-36.12262,-25.70039,39.24092
18.984024525,-1.755648,0.657073599999999,0.2547093,0.9585031,-0.02926503,-0.3064603,-36.12262,-25.70039,39.24092
18.994021416,-1.817181,-0.1145072,0.31568,0.9503762,-0.03772169,-0.3102726,-36.12262,-25.70039,39.24092
19.004018784,-1.263382,-0.3519166,0.0717969800000001,0.9392471,-0.04178524,-0.3054664,-36.50523,-25.32284,39.23611
19.014015198,-0.6480501,-0.767383199999997,0.0717969800000001,0.9320133,-0.04582008,-0.3059313,-36.50523,-25.32284,39.23611
19.024012089,0.02881546,-1.064145,-0.1111153,0.9353417,-0.04135891,-0.3035453,-36.50523,-25.32284,39.23611
19.03400898,0.705681,-1.18285,-0.5379106,0.9368656,-0.04476987,-0.3078543,-36.50523,-25.32284,39.23611
19.044005871,1.321013,-1.064145,-0.598881400000002,0.9484712,-0.04025483,-0.3174472,-36.50523,-25.32284,39.23611
19.054003239,1.628679,-0.708030899999999,-0.903735200000002,0.9532852,-0.03731864,-0.3255922,-36.49288,-26.07702,40.01418
19.063999653,1.25948,-0.2925643,-0.903735200000002,0.9619046,-0.02945224,-0.3342236,-36.49288,-26.07702,40.01418
19.073997021,0.8287475,0.06354995,-0.903735200000002,0.9726546,-0.03127573,-0.344292,-36.49288,-26.07702,40.01418
19.083993912,0.3980148,0.8351307,-1.025677,0.9848411,-0.03152968,-0.3452703,-36.49288,-26.07702,40.01418
19.09399128,0.2134152,1.30995,-0.7817937,0.9856969,-0.02519115,-0.3447948,-36.49288,-26.07702,40.01418
19.103987694,0.1518819,1.547359,-0.4769399,0.9921194,-0.02995876,-0.3486334,-36.88335,-25.31912,40.00734
19.113985062,-0.2173175,1.428654,-0.4159691,0.9896575,-0.02851448,-0.3448009,-36.88335,-25.31912,40.00734
19.123981476,-0.894183000000003,1.250597,0.0717969800000001,0.9779581,-0.02825091,-0.3438234,-36.88335,-25.31912,40.00734
19.133978367,-0.832649800000001,0.8351307,0.4376215,0.9754985,-0.0267408,-0.3328122,-36.88335,-25.31912,40.00734
19.143975735,-0.6480501,0.3603118,0.620533899999998,0.9754549,-0.02425054,-0.3261127,-36.88335,-25.31912,40.00734
19.153972149,-0.894183000000003,-0.05515479,0.681504599999997,0.9653627,-0.03173029,-0.3251361,-36.4895,-26.08355,39.24017
19.163969517,-1.386449,-0.767383199999997,0.986358399999998,0.9609067,-0.02790008,-0.3217793,-36.4895,-26.08355,39.24017
19.173966408,-2.247914,-1.242202,1.1083,0.9434172,-0.0306534,-0.3193552,-36.4895,-26.08355,39.24017
19.183963776,-2.309447,-1.95443,1.169271,0.9401612,-0.03901821,-0.3236546,-36.4895,-26.08355,39.24017
19.19396019,-1.694115,-2.726011,0.864416900000002,0.9349658,-0.04791167,-0.328429,-36.4895,-26.08355,39.24017
19.203957558,-0.894183000000003,-3.141478,0.620533899999998,0.9354615,-0.04840536,-0.330344,-36.49736,-25.7032,39.23814
19.213953972,-0.586516899999998,-3.675649,0.3766508,0.9412096,-0.04284995,-0.3198268,-36.49736,-25.7032,39.23814
19.223950863,-0.2788507,-3.794354,0.01082622,0.9400637,-0.03358706,-0.3140842,-36.49736,-25.7032,39.23814
19.233948231,-0.2173175,-3.972411,-0.1111153,0.9498495,-0.03588483,-0.3208008,-36.49736,-25.7032,39.23814
19.243944645,0.0903486900000002,-4.031764,-0.05014454,0.9484068,-0.03687645,-0.3198409,-36.49736,-25.7032,39.23814
19.253942013,0.3364816,-4.328525,-0.05014454,0.9555016,-0.02562103,-0.3265562,-36.12431,-25.69712,39.62792
19.263938904,0.1518819,-4.20982,-0.1720861,0.9628164,-0.02598877,-0.3294403,-36.12431,-25.69712,39.62792
19.273936272,-0.0942510000000003,-4.20982,-0.1720861,0.9701152,-0.02531915,-0.325146,-36.12431,-25.69712,39.62792
19.283932686,-0.3403839,-4.150468,-0.05014454,0.9739843,-0.02379804,-0.3265889,-36.12431,-25.69712,39.62792
19.293930054,-0.6480501,-3.853706,-0.05014454,0.9764103,-0.02327733,-0.328029,-36.12431,-25.69712,39.62792
19.303926468,-0.3403839,-3.556944,0.1937385,0.9725341,-0.02425122,-0.3198862,-36.50075,-25.69666,40.01215
19.313923836,-0.2173175,-3.260183,0.0717969800000001,0.9807006,-0.01840772,-0.3361735,-36.50075,-25.69666,40.01215
19.323920727,-1.017249,-2.904068,0.0717969800000001,0.9781563,-0.01260475,-0.3337777,-36.50075,-25.69666,40.01215
19.333917141,-2.001781,-3.022773,-0.1111153,0.9784123,-0.02618852,-0.3318603,-36.50075,-25.69666,40.01215
19.343914509,-2.617113,-3.20083,-0.2330568,0.980929,-0.03054297,-0.3352136,-36.50075,-25.69666,40.01215
19.3539114,-2.247914,-2.963421,-0.1111153,0.9761053,-0.03301096,-0.3289831,-36.13835,-24.93967,39.23687
19.363908768,-1.632582,-2.666659,-0.4159691,0.9731517,-0.03172554,-0.3414212,-36.13835,-24.93967,39.23687
19.373905182,-1.140316,-2.369897,-0.5379106,0.9669122,-0.03665559,-0.3356662,-36.13835,-24.93967,39.23687
19.38390255,-0.6480501,-1.835726,-0.7817937,0.9619228,-0.03042815,-0.3347019,-36.13835,-24.93967,39.23687
19.393898964,-0.955716300000001,-1.657669,-0.8427644,0.9541475,-0.03154927,-0.3342095,-36.13835,-24.93967,39.23687
19.403896332,-1.201849,-1.420259,-1.025677,0.9502965,-0.03404628,-0.333245,-35.74171,-26.07466,39.63274
19.413893223,-1.263382,-1.657669,-0.964705900000002,0.9420061,-0.03373729,-0.3346664,-35.74171,-26.07466,39.63274
19.423890591,-1.017249,-1.301555,-0.903735200000002,0.9400876,-0.03514968,-0.3255697,-35.74171,-26.07466,39.63274
19.433887005,-0.4634504,-1.064145,-0.8427644,0.9434979,-0.03506915,-0.3241399,-35.74171,-26.07466,39.63274
19.443883896,-0.586516899999998,-0.767383199999997,-0.7817937,0.9531584,-0.03049165,-0.3227223,-36.11646,-26.07748,39.62995
19.453881264,-1.017249,-1.064145,-0.4769399,0.9575062,-0.02844882,-0.3212946,-36.11646,-26.07748,39.62995
19.463877678,-1.386449,-1.123497,-0.4159691,0.958101,-0.03432539,-0.3275156,-36.11646,-26.07748,39.62995
19.473875046,-1.140316,-1.242202,-0.3549984,0.9669226,-0.03710184,-0.3313589,-36.11646,-26.07748,39.62995
19.483871937,-1.017249,-1.242202,-0.4159691,0.9673462,-0.03367873,-0.3299248,-36.11646,-26.07748,39.62995
19.493868828,-1.632582,-1.242202,-0.4769399,0.9702774,-0.0341243,-0.3318441,-36.12431,-25.69712,39.62792
19.503865719,-1.571049,-1.004793,-0.598881400000002,0.9707199,-0.03165515,-0.3284955,-36.12431,-25.69712,39.62792
19.513863087,-1.878715,-0.767383199999997,-0.5379106,0.9693215,-0.03511068,-0.3313636,-36.12431,-25.69712,39.62792
19.523859501,-1.940248,-0.767383199999997,-0.5379106,0.9648376,-0.02984514,-0.3304,-36.12431,-25.69712,39.62792
19.533856869,-1.940248,-0.4706214,-0.2330568,0.9627979,-0.02502603,-0.3303977,-36.12431,-25.69712,39.62792
19.54385376,-2.001781,-0.411269,-0.1111153,0.9645728,-0.01576245,-0.3308817,-35.7434,-26.07139,40.01974
19.553850174,-2.55558,-0.1738595,0.1327677,0.9636556,-0.01862605,-0.3232222,-35.7434,-26.07139,40.01974
19.563847542,-2.92478,0.004197581,0.4376215,0.9616695,-0.01675661,-0.3270478,-35.7434,-26.07139,40.01974
19.573844433,-3.293979,0.1229023,0.925387699999998,0.9613369,-0.02504612,-0.329438,-35.7434,-26.07139,40.01974
19.583841324,-2.92478,0.3603118,1.1083,0.9638979,-0.03186889,-0.3370979,-35.7434,-26.07139,40.01974
19.593838215,-2.063314,0.657073599999999,1.413154,0.9633273,-0.02754616,-0.3414052,-35.7434,-26.07139,40.01974
19.603835583,-1.878715,1.131893,1.596066,0.9618037,-0.02412642,-0.3361391,-35.7434,-26.07139,40.01974
19.613831997,-2.309447,1.30995,1.291212,0.9669909,-0.01471648,-0.3280148,-35.7434,-26.07139,40.01974
19.623829365,-3.293979,1.606712,1.230241,0.9718534,-0.01411692,-0.3261091,-35.7434,-26.07139,40.01974
19.633826256,-4.155444,1.784769,1.047329,0.971871,-0.01511039,-0.3285017,-35.7434,-26.07139,40.01974
19.643823624,-4.955376,1.784769,0.986358399999998,0.9709507,-0.01807055,-0.3313708,-36.49736,-25.7032,39.23814
19.653820038,-5.201509,1.844121,1.047329,0.972558,-0.02581385,-0.3313716,-36.49736,-25.7032,39.23814
19.663816929,-5.201509,1.784769,1.047329,0.9731441,-0.0311915,-0.336157,-36.49736,-25.7032,39.23814
19.67381382,-4.893843,1.547359,0.681504599999997,0.9633394,-0.02793975,-0.331355,-36.49736,-25.7032,39.23814
19.683810711,-4.46311,1.606712,0.681504599999997,0.9634104,-0.03188729,-0.3380542,-36.49736,-25.7032,39.23814
19.693808079,-3.970845,1.725416,0.5595631,0.958622,-0.03633782,-0.3361304,-35.74957,-25.69431,39.63071
19.703804493,-3.909311,2.259588,0.1327677,0.9575661,-0.03197205,-0.3346939,-35.74957,-25.69431,39.63071
19.713801861,-3.663178,1.606712,-0.05014454,0.9503301,-0.03607711,-0.3428161,-35.74957,-25.69431,39.63071
19.723798752,-3.109379,1.962826,-0.2330568,0.9488684,-0.03611915,-0.3442492,-35.74957,-25.69431,39.63071
19.73379612,-2.124848,1.784769,-0.4769399,0.9518833,-0.04088829,-0.3409032,-35.74957,-25.69431,39.63071
19.743792534,-0.955716300000001,1.784769,-0.598881400000002,0.9499621,-0.04238847,-0.3413781,-35.73215,-26.45829,39.24776
19.753789902,-0.1557842,1.725416,-0.903735200000002,0.9519396,-0.04375458,-0.3356383,-35.73215,-26.45829,39.24776
19.763786316,0.951813900000003,1.606712,-1.086647,0.9528484,-0.04038329,-0.340905,-35.73215,-26.45829,39.24776
19.773783207,1.813279,1.131893,-1.025677,0.9595237,-0.03241931,-0.3346972,-35.73215,-26.45829,39.24776
19.783780575,2.059412,0.8351307,-1.025677,0.9594854,-0.03053333,-0.3409191,-35.73215,-26.45829,39.24776
19.793776989,1.813279,0.3009594,-0.720822899999998,0.9643485,-0.02991621,-0.3370992,-35.73215,-26.45829,39.24776
19.803774357,1.567146,-0.1738595,-0.4769399,0.9659003,-0.03476691,-0.3394935,-35.73215,-26.45829,39.24776
19.813771248,1.813279,-0.5299737,-0.1720861,0.9571167,-0.0338896,-0.3308641,-35.73215,-26.45829,39.24776
19.823768616,1.874812,-0.767383199999997,0.1327677,0.9560398,-0.0286357,-0.3385207,-35.73215,-26.45829,39.24776
19.83376503,1.44408,-0.9454404,0.4376215,0.9584587,-0.02756778,-0.3332609,-35.73215,-26.45829,39.24776
19.843762398,0.5826145,-1.420259,0.925387699999998,0.9538828,-0.01746657,-0.3346913,-36.09734,-26.84472,38.86
19.853758812,-0.2788507,-1.479612,1.291212,0.9554816,-0.02470218,-0.3322993,-36.09734,-26.84472,38.86
19.86375618,-0.7711166,-1.776374,1.657037,0.9521347,-0.0282006,-0.3356426,-36.09734,-26.84472,38.86
19.873753071,-0.894183000000003,-1.420259,1.90092,0.9478336,-0.03263712,-0.3332411,-36.09734,-26.84472,38.86
19.883750439,-0.586516899999998,-1.18285,2.205774,0.9443498,-0.02884912,-0.336586,-36.09734,-26.84472,38.86
19.893746853,-0.2788507,-0.767383199999997,2.205774,0.9524931,-0.02142104,-0.338995,-35.35572,-26.45874,38.86354
19.903743744,-0.7711166,-0.5299737,2.449656,0.9555081,-0.0261858,-0.3351704,-35.35572,-26.45874,38.86354
19.913741112,-1.324916,-0.2332119,2.510627,0.9676208,-0.02257998,-0.3390211,-35.35572,-26.45874,38.86354
19.923737526,-1.632582,0.06354995,2.449656,0.9701102,-0.02547277,-0.3418961,-35.35572,-26.45874,38.86354
19.933734894,-2.124848,-0.05515479,2.571598,0.9710973,-0.02582517,-0.3294548,-35.35572,-26.45874,38.86354
19.943731308,-2.001781,0.06354995,2.69354,0.9754975,-0.02677152,-0.3361623,-36.4895,-26.08355,39.24017
19.953728676,-1.878715,0.004197581,2.388686,0.9784938,-0.03058231,-0.3342522,-36.4895,-26.08355,39.24017
19.963725567,-1.694115,-0.1145072,1.96189,0.9696888,-0.02882567,-0.3356731,-36.4895,-26.08355,39.24017
19.973722935,-1.324916,-0.1738595,1.718008,0.9716935,-0.03165784,-0.3308901,-36.4895,-26.08355,39.24017
19.983719349,-1.078783,-0.2925643,1.230241,0.9663066,-0.03034592,-0.3351882,-36.4895,-26.08355,39.24017
19.993716717,-1.201849,-0.3519166,0.986358399999998,0.9686787,-0.02688431,-0.3337575,-36.1069,-26.4611,39.24498
20.003713608,-1.140316,-0.5299737,0.4985923,0.9667874,-0.02976275,-0.3256176,-36.1069,-26.4611,39.24498
20.013710022,-1.078783,-0.648678499999998,0.31568,0.9580634,-0.03241746,-0.3313447,-36.1069,-26.4611,39.24498
20.02370739,-0.832649800000001,-0.589326100000003,0.0717969800000001,0.9609582,-0.0309156,-0.3327858,-36.1069,-26.4611,39.24498
20.033703804,-0.2788507,-0.589326100000003,-0.1111153,0.9531469,-0.0300805,-0.3308581,-36.85638,-26.46672,39.23942
20.043701172,0.0903486900000002,-0.1738595,-0.2330568,0.9584974,-0.0294406,-0.3256033,-36.85638,-26.46672,39.23942
20.053698063,-0.0942510000000003,0.06354995,-0.3549984,0.957377,-0.02169206,-0.3260819,-36.85638,-26.46672,39.23942
20.063695431,-0.4634504,0.597721199999998,-0.4769399,0.9583693,-0.02265311,-0.3270405,-36.85638,-26.46672,39.23942
20.073691845,-0.894183000000003,0.657073599999999,-0.3549984,0.96029,-0.02116611,-0.3280014,-36.85638,-26.46672,39.23942
20.083689213,-1.017249,0.597721199999998,-0.2940276,0.9599563,-0.02948635,-0.3337416,-35.37144,-25.69803,38.85948
20.093686104,-0.955716300000001,0.657073599999999,-0.2940276,0.9580433,-0.031503,-0.3375663,-35.37144,-25.69803,38.85948
20.103683472,-0.586516899999998,0.597721199999998,-0.4159691,0.9658098,-0.02988734,-0.3371017,-35.37144,-25.69803,38.85948
20.113679886,-0.2788507,0.8351307,-0.4159691,0.9638978,-0.03187327,-0.3375765,-35.37144,-25.69803,38.85948
20.123677254,-0.2173175,1.013188,-0.3549984,0.9627414,-0.02216413,-0.3361412,-35.37144,-25.69803,38.85948
20.133673668,-0.6480501,0.775778400000001,-0.1111153,0.963762,-0.02455174,-0.3337495,-36.87041,-25.70928,38.84836
20.143670559,-1.017249,0.597721199999998,0.01082622,0.9578531,-0.02125812,-0.3327829,-36.87041,-25.70928,38.84836
20.153667927,-1.386449,0.597721199999998,0.31568,0.9535065,-0.02326144,-0.3299033,-36.87041,-25.70928,38.84836
20.163664341,-1.571049,0.4196641,0.4985923,0.9486067,-0.0219399,-0.3342023,-36.87041,-25.70928,38.84836
20.173661709,-1.571049,0.3009594,0.5595631,0.9452693,-0.0259153,-0.3365884,-36.87041,-25.70928,38.84836
20.1836586,-1.817181,0.3603118,0.620533899999998,0.947697,-0.02534192,-0.3322856,-35.74788,-25.69757,39.2437
20.193655968,-2.309447,0.4790165,0.620533899999998,0.9427008,-0.01855411,-0.3231857,-35.74788,-25.69757,39.2437
20.203652382,-2.863246,0.5383689,0.864416900000002,0.9442714,-0.02436315,-0.324144,-35.74788,-25.69757,39.2437
20.21364975,-3.047846,0.8351307,0.7424754,0.9453278,-0.02871136,-0.3236662,-35.74788,-25.69757,39.2437
20.223646164,-2.617113,0.894483100000001,0.620533899999998,0.9435163,-0.03603628,-0.3236612,-35.74788,-25.69757,39.2437
20.233643532,-2.001781,0.953835399999999,0.5595631,0.9425431,-0.03602041,-0.3198309,-36.1052,-26.46437,38.85798
20.243640423,-1.263382,1.30995,0.31568,0.9425732,-0.0373943,-0.3107376,-36.1052,-26.46437,38.85798
20.253637791,-0.832649800000001,1.784769,0.3766508,0.9557753,-0.03942281,-0.2954457,-36.1052,-26.46437,38.85798
20.263634205,-0.3403839,2.31894,0.3766508,0.96255,-0.03606188,-0.2614794,-36.1052,-26.46437,38.85798
20.273631096,0.5210813,3.624692,0.4985923,0.9566848,-0.03448306,-0.2356265,-36.1052,-26.46437,38.85798
20.283628464,2.244012,5.167854,0.4376215,0.9539617,-0.044496,-0.2088189,-35.73832,-26.0812,38.85873
20.293624878,6.24367199999998,7.95741500000002,0.3766508,0.9536821,-0.05497731,-0.1853655,-35.73832,-26.0812,38.85873
20.303622246,10.7356,12.46819,0.31568,0.9756926,-0.05864835,-0.1562098,-35.73832,-26.0812,38.85873
20.31361866,15.96592,18.70019,0.864416900000002,1.005387,-0.05635382,-0.1289833,-35.73832,-26.0812,38.85873
20.323616028,20.02711,26.59406,1.657037,1.033662,-0.05660916,-0.1118038,-35.73832,-26.0812,38.85873
20.333612919,23.16531,35.02209,2.388686,1.046259,-0.05231045,-0.09411956,-36.11307,-26.08401,38.85595
20.343610287,26.11891,43.33143,3.242276,1.057159,-0.03538009,-0.07308558,-36.11307,-26.08401,38.85595
20.353606701,26.79577,52.35299,3.912955,1.08278,-0.02402528,-0.05590444,-36.11307,-26.08401,38.85595
20.363604069,24.33444,61.3151899999999,4.705575,1.12755,-0.0198698,-0.01721889,-36.11307,-26.08401,38.85595
20.37360096,18.67338,71.10833,6.10790299999999,1.193798,-0.0169969,0.04727265,-36.11307,-26.08401,38.85595
20.383597851,12.15086,81.43565,7.44925899999998,1.236658,-0.01475712,0.09314065,-36.11755,-25.71019,38.07992
20.393594742,8.21273500000003,92.0597199999998,8.668674,1.265706,-0.05564522,0.1289937,-36.11755,-25.71019,38.07992
20.403591156,6.12060500000003,102.0903,11.35139,1.272542,-0.05575484,0.1553036,-36.11755,-25.71019,38.07992
20.413588524,3.290077,111.5273,13.54634,1.292197,-0.06391609,0.1768073,-36.11755,-25.71019,38.07992
20.423585415,-1.201849,121.3204,15.86322,1.313991,-0.03023094,0.1997323,-36.11755,-25.71019,38.07992
20.433582783,-7.97050500000002,131.1136,17.26555,1.312874,-0.0223595,0.2126538,-38.0044,-24.60335,35.67342
20.443579197,-15.72369,140.5506,18.18011,1.315007,-0.03197917,0.218874,-38.0044,-24.60335,35.67342
20.453576565,-21.50782,149.8689,18.54594,1.320472,-0.06343108,0.221744,-38.0044,-24.60335,35.67342
20.463573456,-24.03068,159.4247,19.09467,1.342437,-0.09108523,0.2322415,-38.0044,-24.60335,35.67342
20.473570347,-23.59995,169.1584,19.27759,1.360283,-0.1072327,0.2346075,-38.0044,-24.60335,35.67342
20.483567238,-22.61541,178.2987,19.15564,1.361781,-0.1091425,0.2350839,-40.56168,-23.8989,31.26434
20.493564606,-21.01555,186.1332,19.09467,1.344588,-0.1272997,0.2528259,-40.56168,-23.8989,31.26434
20.50356102,-17.50816,193.849,18.97273,1.33401,-0.1347583,0.2571534,-40.56168,-23.8989,31.26434
20.513558388,-13.1393,201.3868,18.85079,1.315885,-0.1298325,0.2504837,-40.56168,-23.8989,31.26434
20.523555279,-9.13963599999997,208.3904,18.424,1.302238,-0.1295855,0.2538575,-40.56168,-23.8989,31.26434
20.533552647,-5.816842,214.1476,18.18011,1.303585,-0.1238679,0.2385392,-43.92216,-23.21744,24.84973
20.543549061,-2.247914,219.2518,17.9972,1.301101,-0.1215838,0.2280143,-43.92216,-23.21744,24.84973
20.553545952,0.3980148,223.1691,17.50943,1.327725,-0.1380482,0.2298864,-43.92216,-23.21744,24.84973
20.563542843,2.982411,226.2554,16.9607,1.361356,-0.1382547,0.2408351,-43.92216,-23.21744,24.84973
20.573539734,7.16667,228.5108,16.9607,1.391781,-0.1491627,0.257535,-43.92216,-23.21744,24.84973
20.583537102,11.1048,229.9353,17.02167,1.411732,-0.147087,0.2819071,-46.89297,-22.92714,16.82742
20.593533516,17.01199,231.0036,16.65584,1.412155,-0.1429279,0.3106198,-46.89297,-22.92714,16.82742
20.603530884,20.64245,231.4191,15.98516,1.404529,-0.1509229,0.3560999,-46.89297,-22.92714,16.82742
20.613527775,24.39598,231.4191,15.25352,1.397347,-0.1564399,0.4058858,-46.89297,-22.92714,16.82742
20.623525143,29.38017,231.5378,14.94866,1.361862,-0.1602224,0.4408846,-48.72691,-23.01802,7.71897
20.633521557,35.28735,231.4784,14.27798,1.324075,-0.1722333,0.4313821,-48.72691,-23.01802,7.71897
20.643518925,42.05601,232.9622,13.97313,1.292488,-0.1510163,0.4285602,-48.72691,-23.01802,7.71897
20.653515339,42.97901,234.0306,13.18051,1.250355,-0.1378345,0.4731379,-48.72691,-23.01802,7.71897
20.663512707,43.10207,233.5558,12.81469,1.197,-0.09900629,0.4770495,-48.72691,-23.01802,7.71897
20.673509598,40.27155,232.7248,13.05857,1.122839,-0.09422883,0.4690418,-49.87605,-20.11783,-0.690299
20.683506966,32.51836,231.0036,12.9976,1.064822,-0.09232344,0.4839782,-49.87605,-20.11783,-0.690299
20.69350338,24.14984,226.4928,14.09507,1.023683,-0.05592488,0.4615475,-49.87605,-20.11783,-0.690299
20.703500748,14.79679,220.7357,15.4974,0.9973339,-0.05401137,0.4620715,-49.87605,-20.11783,-0.690299
20.713497639,4.643808,214.6224,16.04613,0.9603989,-0.05902246,0.4721873,-49.87605,-20.11783,-0.690299
20.723494053,-4.893843,207.8562,17.26555,0.9342306,-0.06686807,0.4679278,-47.97631,-19.42369,-10.2265
20.733491421,-12.4009,201.4461,18.91176,0.8830824,-0.06870668,0.4306885,-47.97631,-19.42369,-10.2265
20.743487835,-20.89248,196.1638,20.497,0.7977879,-0.06734899,0.4447155,-47.97631,-19.42369,-10.2265
20.753485203,-29.0764,187.8544,23.85039,0.7251512,-0.04031531,0.4228207,-47.97631,-19.42369,-10.2265
20.763482094,-38.55252,177.7052,27.26476,0.6524778,-0.0369882,0.4124178,-47.97631,-19.42369,-10.2265
20.773479462,-47.04411,166.4876,29.4597,0.6014186,-0.0429836,0.3986297,-44.96081,-18.70477,-17.81935
20.783475876,-51.41297,155.27,31.22786,0.5484116,-0.07541624,0.367623,-44.96081,-18.70477,-17.81935
20.793473244,-51.2899,145.1207,32.02047,0.4995137,-0.09245348,0.363884,-44.96081,-18.70477,-17.81935
20.803470135,-47.53637,136.2179,30.923,0.4521354,-0.08738811,0.3295078,-44.96081,-18.70477,-17.81935
20.813467503,-42.98291,127.315,28.84999,0.3897868,-0.08858485,0.3334455,-44.96081,-18.70477,-17.81935
20.823463917,-39.22939,116.7503,26.22825,0.3212609,-0.07251938,0.325425,-41.21888,-17.20534,-23.73368
20.833461285,-34.2452,105.2953,23.78942,0.27165,-0.07812305,0.2982341,-41.21888,-17.20534,-23.73368
20.843457699,-29.13794,93.9589900000002,21.59447,0.2176629,-0.08357193,0.2973724,-41.21888,-17.20534,-23.73368
20.853455067,-23.96914,82.1478699999998,19.52147,0.1692242,-0.07351457,0.279747,-41.21888,-17.20534,-23.73368
20.863451958,-20.46175,70.2773999999998,17.20458,0.141169,-0.05845731,0.286492,-41.21888,-17.20534,-23.73368
20.873448372,-19.41569,58.9411,14.52187,0.1247517,-0.04019307,0.2999161,-38.67827,-15.32139,-28.11084
20.88344574,-18.49269,47.48609,11.77818,0.1198332,-0.03791756,0.2937026,-38.67827,-15.32139,-28.11084
20.893442631,-16.89282,35.91238,8.72964499999998,0.1061227,-0.0598979,0.3109609,-38.67827,-15.32139,-28.11084
20.903439999,-14.36996,24.93219,5.437224,0.1132164,-0.0735474,0.3439738,-38.67827,-15.32139,-28.11084
20.913436413,-10.3703,14.48618,2.388686,0.1256368,-0.08576541,0.3626198,-38.67827,-15.32139,-28.11084
20.923433781,-5.693775,5.108501,-0.7817937,0.1358582,-0.1099122,0.4099872,-36.45252,-13.79998,-30.10177
20.933430195,-0.4019172,-4.862697,-3.70839,0.1448296,-0.1195669,0.450653,-36.45252,-13.79998,-30.10177
20.943427563,5.197607,-15.24936,-6.513045,0.1398844,-0.1406864,0.4899103,-36.45252,-13.79998,-30.10177
20.953424454,10.61253,-25.99214,-9.19575899999999,0.1396202,-0.1514603,0.5344211,-36.45252,-13.79998,-30.10177
20.963421822,15.78132,-36.43816,-12.12236,0.1649596,-0.1506526,0.5678771,-36.45252,-13.79998,-30.10177
20.973418236,20.33478,-45.45972,-14.62216,0.2125319,-0.1401947,0.5988988,-36.44466,-14.18034,-30.09975
20.983415604,22.67304,-52.16653,-16.63419,0.2517332,-0.1250121,0.6332841,-36.44466,-14.18034,-30.09975
20.993412495,23.16531,-57.8050100000001,-17.60972,0.2838511,-0.1222671,0.6514133,-36.44466,-14.18034,-30.09975
21.003409386,22.24231,-61.95968,-18.2804,0.308404,-0.1318025,0.6714731,-36.44466,-14.18034,-30.09975
21.013406277,21.50391,-65.75823,-18.2804,0.3253253,-0.1503015,0.6843699,-36.44466,-14.18034,-30.09975
21.023403645,20.76551,-70.6844799999999,-18.2804,0.3263924,-0.1543162,0.7212195,-36.82028,-14.54662,-28.10099
21.033400059,19.65792,-77.4506500000002,-17.97555,0.3352717,-0.1591396,0.7590127,-36.82028,-14.54662,-28.10099
21.04339695,19.28872,-84.0981100000001,-18.03652,0.3623218,-0.1720975,0.7714119,-36.82028,-14.54662,-28.10099
21.053394318,21.68851,-88.9650000000003,-18.46332,0.407958,-0.1892502,0.763201,-36.82028,-14.54662,-28.10099
21.063390732,25.25744,-92.4074400000001,-18.82914,0.4225652,-0.1883792,0.7737039,-36.82028,-14.54662,-28.10099
21.0733881,27.0419,-96.62146,-19.13399,0.4063519,-0.1558265,0.7550594,-38.68871,-15.30123,-25.72433
21.083384991,25.19591,-103.0315,-18.64623,0.4214607,-0.1303907,0.7406692,-38.68871,-15.30123,-25.72433
21.093381882,22.18078,-109.6196,-17.54875,0.4524312,-0.1199732,0.6970621,-38.68871,-15.30123,-25.72433
21.103378773,19.10412,-114.6052,-16.2074,0.4906348,-0.131188,0.663498,-38.68871,-15.30123,-25.72433
21.113376141,16.95045,-118.7599,-15.04895,0.5233287,-0.1341367,0.6423845,-38.68871,-15.30123,-25.72433
21.123372555,14.79679,-122.6771,-13.89051,0.550359,-0.1212972,0.6064408,-40.84921,-17.19272,-22.56989
21.133369923,12.27393,-125.6448,-12.67109,0.5735138,-0.1094096,0.5810329,-40.84921,-17.19272,-22.56989
21.143366814,9.19726699999998,-129.0872,-12.48818,0.5827451,-0.1084264,0.5623521,-40.84921,-17.19272,-22.56989
21.153364182,6.305205,-133.3012,-11.8175,0.5937684,-0.09919064,0.5388802,-40.84921,-17.19272,-22.56989
21.163360596,3.35161,-137.9307,-11.02488,0.6227275,-0.08461391,0.5292545,-40.84921,-17.19272,-22.56989
21.173357964,-0.832649800000001,-141.9073,-10.17129,0.6680213,-0.08317608,0.5353966,-43.12053,-17.16547,-17.36205
21.183354378,-5.201509,-145.8246,-10.11032,0.7160144,-0.09579915,0.5391448,-43.12053,-17.16547,-17.36205
21.193351746,-8.03203799999998,-151.285,-10.04935,0.7492784,-0.1030837,0.5209028,-43.12053,-17.16547,-17.36205
21.203348637,-9.324236,-157.9324,-10.04935,0.7856929,-0.1224589,0.5021799,-43.12053,-17.16547,-17.36205
21.213345051,-9.75496900000002,-165.1141,-10.3542,0.8335778,-0.1299844,0.4791268,-45.73484,-18.66299,-12.21338
21.223342419,-7.90897099999997,-171.5835,-10.72003,0.8815063,-0.1400045,0.4488955,-45.73484,-18.66299,-12.21338
21.23333931,-6.370641,-176.391,-11.26876,0.920795,-0.1305691,0.439253,-45.73484,-18.66299,-12.21338
21.243336678,-4.770776,-179.7148,-11.75653,0.9433258,-0.1114047,0.4138443,-45.73484,-18.66299,-12.21338
21.253333092,-5.201509,-182.1482,-11.63459,0.9532321,-0.09431509,0.4013796,-45.73484,-18.66299,-12.21338
21.26333046,-7.84743800000001,-183.6914,-11.8175,0.9758147,-0.07738639,0.3970287,-48.02526,-17.86849,-6.23559
21.273326874,-10.30877,-184.1662,-11.93944,1.001436,-0.06681141,0.3821455,-48.02526,-17.86849,-6.23559
21.283324242,-13.26236,-184.463,-12.67109,1.036646,-0.07413208,0.3557643,-48.02526,-17.86849,-6.23559
21.293321133,-16.27749,-184.9971,-13.89051,1.079605,-0.07882607,0.3341547,-48.02526,-17.86849,-6.23559
21.303318501,-19.53875,-186.9558,-15.96351,1.136176,-0.08181087,0.3106066,-48.02526,-17.86849,-6.23559
21.313314915,-22.67695,-191.2291,-18.34137,1.166302,-0.07738078,0.3048101,-49.90839,-18.95987,1.303127
21.323312283,-24.64601,-195.6806,-20.65826,1.203462,-0.08461906,0.2832112,-49.90839,-18.95987,1.303127
21.333309174,-24.15374,-199.4198,-23.03612,1.226754,-0.07998717,0.2611549,-49.90839,-18.95987,1.303127
21.343306065,-23.59995,-201.4971,-25.29204,1.249978,-0.09696519,0.2673403,-49.90839,-18.95987,1.303127
21.353302956,-20.64635,-202.15,-27.6699,1.275947,-0.1048228,0.2553327,-49.90839,-18.95987,1.303127
21.363300324,-14.92376,-201.3784,-29.25514,1.275372,-0.1006405,0.235711,-49.55263,-19.65076,9.243502
21.373296738,-8.89350299999999,-199.8352,-30.65747,1.270068,-0.07880872,0.1902498,-49.55263,-19.65076,9.243502
21.383294106,-4.709243,-198.6482,-31.81591,1.247699,-0.05628516,0.1510398,-49.55263,-19.65076,9.243502
21.393290997,-3.478579,-198.1734,-33.03533,1.241237,-0.05043773,0.1137206,-49.55263,-19.65076,9.243502
21.403288365,-2.863246,-198.3514,-34.43765,1.243919,-0.03860025,0.0739911,-49.55263,-19.65076,9.243502
21.413284779,-2.617113,-198.2327,-35.53513,1.253083,-0.03434401,0.04143086,-48.42957,-21.03988,16.41915
21.423282147,-2.309447,-198.0547,-35.96192,1.256906,-0.03116516,0.008880198,-48.42957,-21.03988,16.41915
21.433278561,-1.817181,-196.9863,-36.69357,1.268867,-0.01997151,-0.01507234,-48.42957,-21.03988,16.41915
21.443275452,-2.001781,-196.3928,-37.42522,1.284445,-0.01920851,-0.01844972,-48.42957,-21.03988,16.41915
21.45327282,-0.832649800000001,-195.1464,-38.15687,1.312871,-0.02785785,-0.01610417,-48.42957,-21.03988,16.41915
21.463269234,2.120945,-192.8316,-38.0959,1.3368,-0.03088317,-0.02667378,-46.92429,-22.86666,23.98695
21.473266602,5.93600600000003,-190.2795,-37.85202,1.345814,-0.01820221,-0.04105004,-46.92429,-22.86666,23.98695
21.483263493,8.45886800000002,-187.3712,-37.66911,1.348982,-0.00561916,-0.05350178,-46.92429,-22.86666,23.98695
21.493260861,10.05873,-184.9378,-37.0594,1.34212,-0.00402592,-0.07694045,-46.92429,-22.86666,23.98695
21.503257275,10.551,-181.8515,-36.44969,1.326029,-0.004068422,-0.09988404,-46.92429,-22.86666,23.98695
21.513254643,10.7356,-178.1123,-36.08387,1.302663,-0.005602842,-0.1108502,-42.41769,-24.67749,30.80299
21.523251534,11.53553,-174.0169,-35.10833,1.292937,-0.006841457,-0.1189687,-42.41769,-24.67749,30.80299
21.533248425,12.58159,-169.2094,-34.49863,1.286145,-0.008411529,-0.1165636,-42.41769,-24.67749,30.80299
21.543245316,14.42759,-162.9774,-33.64503,1.294666,-0.02079432,-0.1074823,-42.41769,-24.67749,30.80299
21.553242684,17.50425,-155.499,-32.79144,1.315143,-0.0205862,-0.075932,-42.41769,-24.67749,30.80299
21.563239098,20.33478,-146.4181,-31.38912,1.328635,-0.01179105,-0.04676465,-39.03194,-26.50329,36.83669
21.573236466,23.10378,-136.0314,-29.43805,1.315189,0.004181134,-0.02473083,-39.03194,-26.50329,36.83669
21.583233357,24.70364,-125.1106,-26.38951,1.267284,0.0126167,-0.008377904,-39.03194,-26.50329,36.83669
21.593230724,23.78064,-113.8336,-23.15806,1.206863,0.03878044,0.007513698,-39.03194,-26.50329,36.83669
21.603227139,20.08865,-101.7851,-20.04856,1.165371,0.04292976,0.01954936,-39.03194,-26.50329,36.83669
21.613224507,14.18146,-89.3211200000001,-17.48778,1.122729,0.03057383,0.03589847,-34.96613,-27.58011,40.87191
21.62322092,8.52040099999998,-76.7977700000002,-15.53672,1.082416,-0.002250928,0.04076296,-34.96613,-27.58011,40.87191
21.633218288,5.013007,-64.0370099999998,-13.52468,1.044094,-0.03753183,0.03844597,-34.96613,-27.58011,40.87191
21.643215179,3.966942,-51.57301,-11.51265,1.007458,-0.05865644,0.03947242,-34.96613,-27.58011,40.87191
21.653212547,4.459208,-38.45613,-9.68352500000001,1.016267,-0.06028141,0.0552505,-34.96613,-27.58011,40.87191
21.663208961,4.705341,-25.10185,-7.61051899999998,1.027805,-0.05171349,0.06384255,-31.59603,-27.91499,43.28548
21.673205852,3.474676,-11.51016,-5.110718,1.039655,-0.0339372,0.06908165,-31.59603,-27.91499,43.28548
21.68320322,0.4595481,1.784769,-3.464507,1.048997,-0.03877875,0.05088072,-31.59603,-27.91499,43.28548
21.693199634,-3.663178,15.25776,-1.818297,1.059418,-0.0487557,0.053258,-31.59603,-27.91499,43.28548
21.703197002,-7.232106,29.68038,-0.5379106,1.100449,-0.05364476,0.06754501,-31.59603,-27.91499,43.28548
21.713193417,-10.0011,43.8656,1.596066,1.129532,-0.04521615,0.07610652,-30.48305,-27.51966,44.0658
21.723190784,-12.27783,58.3475799999998,3.425189,1.154026,-0.05196431,0.08228704,-30.48305,-27.51966,44.0658
21.733187675,-13.1393,72.23603,5.376253,1.17264,-0.05684103,0.0932631,-30.48305,-27.51966,44.0658
21.743185043,-13.1393,86.7773600000002,7.81508400000003,1.2103,-0.06442378,0.08602076,-30.48305,-27.51966,44.0658
21.753181457,-12.27783,101.0219,10.37586,1.232709,-0.06392841,0.09172448,-30.48305,-27.51966,44.0658
21.763178825,-10.86257,114.851,12.9976,1.24141,-0.06044703,0.08165832,-30.84485,-27.91264,42.90404
21.773175716,-9.75496900000002,127.9086,15.13157,1.235974,-0.05679847,0.06730957,-30.84485,-27.91264,42.90404
21.783172607,-9.13963599999997,140.2538,17.38749,1.235698,-0.04230025,0.05917053,-30.84485,-27.91264,42.90404
21.793169498,-9.01656900000002,152.065,19.21662,1.241569,-0.04369912,0.05293916,-30.84485,-27.91264,42.90404
21.803166866,-8.58583600000001,163.2232,20.9238,1.256523,-0.03563737,0.05195386,-30.84485,-27.91264,42.90404
21.81316328,-8.77043599999998,174.144,22.63098,1.286742,-0.03601222,0.05190128,-33.06544,-28.71365,40.1179
21.823160648,-8.093571,184.412,24.39913,1.33236,-0.02578156,0.0623478,-33.06544,-28.71365,40.1179
21.833157539,-8.15510499999999,194.7987,25.9234,1.373089,-0.01467121,0.07328119,-33.06544,-28.71365,40.1179
21.843154907,-9.38576900000002,203.9983,27.81349,1.403147,-0.006170683,0.08758388,-33.06544,-28.71365,40.1179
21.853151321,-10.49337,211.5954,29.58164,1.426006,-0.003735817,0.09185059,-36.81361,-27.64484,34.85948
21.863148689,-11.78556,218.6583,30.923,1.45619,-0.002145669,0.09419044,-36.81361,-27.64484,34.85948
21.873145103,-11.60097,225.3058,32.08144,1.479483,-0.02312391,0.08793375,-36.81361,-27.64484,34.85948
21.883142471,-10.98563,230.7069,33.72766,1.487876,-0.02871483,0.09605635,-36.81361,-27.64484,34.85948
21.893139362,-10.1857,235.7518,34.82513,1.498559,-0.02645472,0.107523,-36.81361,-27.64484,34.85948
21.90313673,-8.52430299999999,239.7878,36.16648,1.49025,-0.02517421,0.1061014,-40.87345,-26.21436,27.66171
21.913133144,-7.41670600000002,243.4676,36.41037,1.496168,-0.02897553,0.102742,-40.87345,-26.21436,27.66171
21.923130035,-6.30910700000001,246.3165,36.47134,1.509266,-0.05141125,0.118518,-40.87345,-26.21436,27.66171
21.933127403,-4.278511,248.6313,36.28843,1.508616,-0.06826536,0.1367093,-40.87345,-26.21436,27.66171
21.943123817,0.5210813,250.2931,35.67872,1.50392,-0.07755595,0.1405485,-40.87345,-26.21436,27.66171
21.953121185,7.65893599999998,251.1241,34.76416,1.474237,-0.07949495,0.1520866,-45.71461,-25.94466,18.85149
21.963117599,14.36606,251.0054,32.87407,1.456594,-0.09956972,0.1736584,-45.71461,-25.94466,18.85149
21.973114967,23.10378,251.5989,30.61815,1.430529,-0.08626779,0.1966721,-45.71461,-25.94466,18.85149
21.983111858,29.56477,252.4298,27.69155,1.395043,-0.09009413,0.2268853,-45.71461,-25.94466,18.85149
21.993109226,34.79509,252.4298,24.70398,1.357097,-0.06676953,0.25566,-45.71461,-25.94466,18.85149
22.00310564,38.67168,253.4388,22.44806,1.33286,-0.04638702,0.3049903,-48.35725,-23.0054,8.882756
22.013103008,39.04088,255.7536,19.94827,1.321867,-0.0313558,0.3251058,-48.35725,-23.0054,8.882756
22.023099899,36.94875,257.2374,17.32652,1.300315,-0.0246933,0.3562491,-48.35725,-23.0054,8.882756
22.033097267,33.62596,257.2967,15.25352,1.291162,-0.02940018,0.392638,-48.35725,-23.0054,8.882756
22.043093681,30.1801,256.2284,13.79022,1.266312,-0.00294504,0.4166034,-48.35725,-23.0054,8.882756
22.053091049,22.61151,252.4892,12.38789,1.230259,-0.002338939,0.4544736,-49.07285,-22.7113,-0.6708794
22.063087463,14.30453,245.6043,12.32692,1.181992,-2.160389e-05,0.4933217,-49.07285,-22.7113,-0.6708794
22.073084831,5.320673,238.3633,12.75372,1.131991,-0.01030377,0.4867115,-49.07285,-22.7113,-0.6708794
22.083081722,-0.832649800000001,233.1403,13.79022,1.069755,-0.04365376,0.4815643,-49.07285,-22.7113,-0.6708794
22.09307909,-5.693775,227.5612,15.25352,0.9839417,-0.04096692,0.4826703,-49.07285,-22.7113,-0.6708794
22.103075504,-10.43183,221.3292,16.9607,0.8879761,-0.01661769,0.4833099,-48.33533,-20.18721,-10.22522
22.113072872,-16.95436,215.3346,19.0337,0.8459771,-0.03797545,0.4704671,-48.33533,-20.18721,-10.22522
22.123069763,-20.03102,210.349,21.10671,0.8031047,-0.06468266,0.4590628,-48.33533,-20.18721,-10.22522
22.133066654,-20.52328,204.6512,22.9968,0.7338136,-0.0598309,0.4486537,-48.33533,-20.18721,-10.22522
22.143063545,-22.98461,197.2321,24.27719,0.6506554,-0.0423379,0.4688944,-48.33533,-20.18721,-10.22522
22.153060913,-27.10734,186.43,25.86243,0.5850975,-0.003007049,0.4479412,-44.56079,-19.84629,-18.19748
22.163057327,-33.19913,175.2124,26.83796,0.5232106,-0.003442096,0.427949,-44.56079,-19.84629,-18.19748
22.173054695,-38.79866,163.5793,27.87446,0.4379219,-0.003446567,0.3993831,-44.56079,-19.84629,-18.19748
22.183051586,-43.41365,150.2251,28.54514,0.362957,-0.00800121,0.3822862,-44.56079,-19.84629,-18.19748
22.193048954,-47.41331,135.2682,28.54514,0.2934354,-0.01750073,0.3441238,-44.56079,-19.84629,-18.19748
22.203045368,-47.96711,120.0147,27.50864,0.2497322,-0.05284943,0.2930014,-40.06401,-18.35159,-25.33176
22.213042736,-43.65978,105.6514,25.13078,0.2242489,-0.09787624,0.2600357,-40.06401,-18.35159,-25.33176
22.22303915,-34.30673,93.1874199999998,22.14321,0.1997213,-0.1162802,0.2136613,-40.06401,-18.35159,-25.33176
22.233036518,-23.10768,80.9608200000003,19.0337,0.161574,-0.1094737,0.1902758,-40.06401,-18.35159,-25.33176
22.243033409,-12.4009,68.3781199999997,15.92419,0.1250359,-0.08470832,0.16114,-40.06401,-18.35159,-25.33176
22.253029823,-4.216978,55.67672,12.75372,0.08079059,-0.06433263,0.1468546,-36.77731,-16.45548,-28.92936
22.263027191,2.305545,42.44114,9.40032399999997,0.04097524,-0.04628598,0.1339978,-36.77731,-16.45548,-28.92936
22.273024082,6.92053700000001,28.67139,6.10790299999999,0.03615235,-0.02308678,0.1306503,-36.77731,-16.45548,-28.92936
22.28302145,8.705001,15.79193,2.937423,0.03070185,0.008046166,0.1459661,-36.77731,-16.45548,-28.92936
22.293017864,7.65893599999998,1.844121,-0.1111153,0.01444354,0.01817536,0.1727922,-36.77731,-16.45548,-28.92936
22.303015232,4.397675,-12.34109,-3.220624,0.02364703,-0.004271511,0.1957535,-34.92629,-14.93688,-30.92307
22.313011646,3.597743,-25.0425,-6.02527899999998,0.06765414,-0.03769336,0.2186571,-34.92629,-14.93688,-30.92307
22.323009014,5.93600600000003,-35.48852,-8.46410900000001,0.1014892,-0.07415288,0.2501935,-34.92629,-14.93688,-30.92307
22.333005905,8.028135,-44.92554,-10.781,0.1236055,-0.08222945,0.3286435,-34.92629,-14.93688,-30.92307
22.343003273,9.01266799999998,-54.18451,-12.61012,0.1533742,-0.08300168,0.3922424,-34.92629,-14.93688,-30.92307
22.352999687,9.75106599999998,-62.6125500000003,-14.25633,0.1982824,-0.08533522,0.4649083,-34.54566,-15.31061,-30.46676
22.362997055,11.1048,-69.5567799999999,-15.53672,0.2301965,-0.09610317,0.546692,-34.54566,-15.31061,-30.46676
22.372993946,11.96626,-76.2636000000001,-16.51225,0.2496879,-0.09395225,0.6332797,-34.54566,-15.31061,-30.46676
22.382990837,10.67406,-84.3355200000001,-17.91458,0.2563753,-0.08483975,0.7117521,-34.54566,-15.31061,-30.46676
22.392987728,8.028135,-94.7815400000002,-18.82914,0.2574387,-0.08820184,0.7667874,-34.54566,-15.31061,-30.46676
22.402985096,6.18213799999999,-106.2959,-19.98759,0.2766644,-0.1248272,0.8117495,-36.42812,-15.30778,-28.48116
22.41298151,8.52040099999998,-118.2851,-20.96312,0.3114809,-0.1625857,0.805477,-36.42812,-15.30778,-28.48116
22.422978878,14.24299,-129.2653,-21.69477,0.369248,-0.1778796,0.7618298,-36.42812,-15.30778,-28.48116
22.432975769,21.01165,-138.1088,-22.18253,0.4363904,-0.1736077,0.7119397,-36.42812,-15.30778,-28.48116
22.442973137,27.2265,-145.5278,-22.42641,0.4945663,-0.1587564,0.6692412,-38.2859,-16.8133,-24.93943
22.452969551,32.76449,-150.6321,-21.38991,0.5600137,-0.1161285,0.6193443,-38.2859,-16.8133,-24.93943
22.462966919,34.79509,-151.6411,-19.98759,0.6132804,-0.09871207,0.6020182,-38.2859,-16.8133,-24.93943
22.472963333,33.87209,-148.7328,-18.7072,0.6501248,-0.08882581,0.5938156,-38.2859,-16.8133,-24.93943
22.482960701,32.94909,-143.1537,-17.06099,0.6623625,-0.06569215,0.5995312,-38.2859,-16.8133,-24.93943
22.492957592,28.58023,-138.5242,-16.08545,0.6465683,-0.05395998,0.6411919,-41.60297,-17.55527,-19.79991
22.50295496,22.54998,-140.7203,-14.7441,0.6187185,-0.02379939,0.6517612,-41.60297,-17.55527,-19.79991
22.512951374,13.87379,-150.1573,-13.82954,0.6483418,-0.018324,0.6550583,-41.60297,-17.55527,-19.79991
22.522948742,5.505273,-163.927,-12.91498,0.7375795,-0.0476568,0.6553888,-41.60297,-17.55527,-19.79991
22.532945633,0.3980148,-177.8155,-11.63459,0.8365332,-0.1017166,0.640873,-41.60297,-17.55527,-19.79991
22.542942524,0.5826145,-188.0835,-9.74449500000001,0.9502202,-0.1368846,0.5880405,-44.2333,-18.29154,-14.5908
22.552939415,4.213075,-194.0187,-8.03731400000003,1.0011,-0.1490402,0.5305258,-44.2333,-18.29154,-14.5908
22.562936783,8.58193500000002,-196.3928,-6.02527899999998,0.9951979,-0.1214284,0.4807571,-44.2333,-18.29154,-14.5908
22.572933197,11.2894,-196.4521,-3.464507,0.9527385,-0.0416984,0.41716,-44.2333,-18.29154,-14.5908
22.582930565,7.90506900000002,-194.6716,-1.757326,0.9133881,0.002851743,0.378931,-44.2333,-18.29154,-14.5908
22.592927456,-0.6480501,-193.7219,-0.8427644,0.9030011,0.03646505,0.3574045,-47.24065,-19.39137,-7.060421
22.602924824,-13.44696,-194.8496,-1.696355,0.9127675,0.03510807,0.3473377,-47.24065,-19.39137,-7.060421
22.612921238,-26.06128,-196.9863,-3.464507,0.9711796,-0.01322058,0.3563413,-47.24065,-19.39137,-7.060421
22.622918606,-33.6914,-197.4611,-5.84236700000003,1.051681,-0.0689308,0.4136444,-47.24065,-19.39137,-7.060421
22.632915497,-33.26067,-195.9773,-8.70799300000002,1.120234,-0.137744,0.4456073,-47.24065,-19.39137,-7.060421
22.642912388,-23.16921,-193.2471,-10.90294,1.177382,-0.1704905,0.4608305,-48.75719,-20.09904,0.5435495
22.652909279,-12.15476,-190.6356,-12.91498,1.247655,-0.1486565,0.5176529,-48.75719,-20.09904,0.5435495
22.662906647,-2.863246,-189.3892,-14.13439,1.30845,-0.06494622,0.5065181,-48.75719,-20.09904,0.5435495
22.672903061,0.5210813,-189.0924,-14.92701,1.335533,-0.02869711,0.4796613,-48.75719,-20.09904,0.5435495
22.682900429,-3.540112,-190.0421,-14.68313,1.330302,-0.01150489,0.4050082,-48.75719,-20.09904,0.5435495
22.69289732,-10.43183,-193.3658,-14.3173,1.280461,-0.007352307,0.2763571,-49.16663,-20.03484,8.474307
22.702894688,-18.73882,-198.0547,-14.07342,1.213291,-0.06685046,0.1329166,-49.16663,-20.03484,8.474307
22.712891102,-22.61541,-203.159,-14.25633,1.163416,-0.1383607,0.02007803,-49.16663,-20.03484,8.474307
22.722887993,-20.70788,-206.3046,-16.26837,1.136321,-0.1750311,0.0009916626,-49.16663,-20.03484,8.474307
22.732884884,-16.64669,-207.1949,-19.31691,1.154078,-0.1847174,0.07227103,-49.16663,-20.03484,8.474307
22.742881775,-8.955036,-203.5744,-20.65826,1.226643,-0.1285898,0.1544452,-48.79476,-21.42632,16.0314
22.752879143,-1.940248,-196.2741,-20.29244,1.265483,-0.04178351,0.2103485,-48.79476,-21.42632,16.0314
22.762875557,0.2134152,-188.4989,-19.13399,1.275425,-0.0002645166,0.2122348,-48.79476,-21.42632,16.0314
22.772872925,-1.017249,-183.1572,-16.93905,1.286738,0.01899749,0.1686597,-48.79476,-21.42632,16.0314
22.782869816,-5.509175,-179.4774,-14.7441,1.307103,0.04983433,0.1489946,-48.79476,-21.42632,16.0314
22.792867184,-12.4009,-175.1446,-14.01245,1.317391,0.04570703,0.1006416,-46.17929,-22.48722,23.21648
22.802863598,-19.66182,-171.999,-15.10992,1.321159,0.0253622,0.04656114,-46.17929,-22.48722,23.21648
22.812860966,-25.07674,-169.3875,-17.42681,1.329253,-0.01771007,-0.004649517,-46.17929,-22.48722,23.21648
22.82285738,-26.18434,-167.5475,-19.62176,1.321963,-0.07171562,-0.04913048,-46.17929,-22.48722,23.21648
22.832854748,-22.36928,-164.4019,-21.93865,1.302501,-0.1257686,-0.07253285,-46.17929,-22.48722,23.21648
22.842851639,-13.6931,-160.4252,-23.76777,1.281384,-0.1433166,-0.08589165,-44.30992,-23.56029,29.622
22.852849007,-3.170913,-156.4486,-25.65787,1.25001,-0.1331975,-0.08057523,-44.30992,-23.56029,29.622
22.862845421,6.24367199999998,-152.0566,-27.42602,1.234199,-0.0955582,-0.07529302,-44.30992,-23.56029,29.622
22.872842789,12.0278,-147.0116,-28.58446,1.227031,-0.05089669,-0.06476335,-44.30992,-23.56029,29.622
22.88283968,14.48913,-141.3731,-28.46252,1.216164,-0.017056,-0.06044594,-44.30992,-23.56029,29.622
22.892836571,13.81226,-135.2598,-27.2431,1.198566,0.01170017,-0.06616557,-40.93283,-24.639,34.03913
22.902833462,11.59706,-129.0278,-26.02369,1.165167,0.02555715,-0.07281099,-40.93283,-24.639,34.03913
22.91283083,8.88960099999997,-122.9146,-24.31651,1.144163,0.02794377,-0.08521795,-40.93283,-24.639,34.03913
22.922827244,6.612871,-116.6826,-22.79224,1.128697,0.02064203,-0.1062465,-40.93283,-24.639,34.03913
22.932824612,4.520741,-110.3912,-21.38991,1.123032,0.0107367,-0.1143698,-40.93283,-24.639,34.03913
22.942821503,3.290077,-102.9128,-20.04856,1.134439,0.000367859,-0.1038584,-37.2356,-26.09572,38.4606
22.952818871,2.736278,-94.6628299999998,-19.01205,1.133153,-0.008837808,-0.09811085,-37.2356,-26.09572,38.4606
22.962815285,3.043944,-85.7006199999998,-17.97555,1.130415,-0.01855372,-0.09188208,-37.2356,-26.09572,38.4606
22.972812653,4.274609,-76.7384200000002,-16.57322,1.116301,-0.01921761,-0.08085006,-37.2356,-26.09572,38.4606
22.982809067,5.382206,-67.9542700000002,-15.23186,1.093954,-0.02317476,-0.09325306,-37.2356,-26.09572,38.4606
22.992806435,6.12060500000003,-59.2888199999997,-13.64662,1.081224,-0.02005976,-0.09706028,-34.24023,-26.43342,40.87139
23.002803326,6.79747099999997,-50.74208,-11.8175,1.062641,-0.01653937,-0.09702878,-34.24023,-26.43342,40.87139
23.012800694,6.73593800000001,-42.13598,-10.17129,1.049827,-0.009131533,-0.1094513,-34.24023,-26.43342,40.87139
23.022797108,5.320673,-33.29248,-8.46410900000001,1.035954,0.003329745,-0.09842311,-34.24023,-26.43342,40.87139
23.032794476,2.244012,-24.33027,-6.75692799999998,1.031456,0.00969848,-0.08310248,-31.97695,-27.54072,42.89367
23.042791367,-1.201849,-15.01195,-5.232659,1.029634,0.00283738,-0.08549042,-31.97695,-27.54072,42.89367
23.052788258,-3.478579,-5.396868,-3.952273,1.024062,-0.01187728,-0.08834837,-31.97695,-27.54072,42.89367
23.062785149,-4.709243,4.277568,-2.732858,1.026061,-0.04052149,-0.08978021,-31.97695,-27.54072,42.89367
23.072782516,-3.724712,13.89265,-1.330531,1.026378,-0.05761093,-0.09934788,-31.97695,-27.54072,42.89367
23.082778931,-2.186381,23.44838,-0.2330568,1.036163,-0.05991748,-0.1070216,-31.23701,-27.15147,43.2842
23.092776299,-0.4019172,32.82606,0.925387699999998,1.051597,-0.05131646,-0.1032221,-31.23701,-27.15147,43.2842
23.10277319,0.5826145,41.78827,2.266744,1.053987,-0.04882199,-0.1013126,-31.23701,-27.15147,43.2842
23.112770557,1.321013,50.57241,3.54713,1.066255,-0.05346972,-0.1046828,-31.23701,-27.15147,43.2842
23.122766972,2.428612,59.0004500000001,4.583633,1.091406,-0.06953869,-0.1095083,-31.23701,-27.15147,43.2842
23.132764339,5.136074,67.9626499999998,6.16887299999999,1.124975,-0.06632733,-0.09664606,-31.6022,-27.53791,42.89645
23.142761231,8.08966899999999,77.2809800000002,7.99799599999998,1.147213,-0.05653227,-0.08328722,-31.6022,-27.53791,42.89645
23.152758122,10.48946,86.3618900000002,9.82711900000002,1.156263,-0.04501012,-0.06512008,-31.6022,-27.53791,42.89645
23.162755013,11.2894,95.6802099999998,11.59527,1.180977,-0.0369827,-0.03788639,-31.6022,-27.53791,42.89645
23.17275238,10.3664,106.3043,12.93663,1.210877,-0.04598359,-0.02405749,-31.6022,-27.53791,42.89645
23.182748795,10.1818,116.9877,14.4609,1.220222,-0.0499268,0.002727491,-32.72555,-27.18288,40.88657
23.192746162,10.48946,127.6711,16.35099,1.221922,-0.03604997,0.02856406,-32.72555,-27.18288,40.88657
23.202743053,9.75106599999998,138.5326,18.11914,1.216644,-0.01341933,0.07020356,-32.72555,-27.18288,40.88657
23.212740421,6.73593800000001,149.216,19.39953,1.212067,-0.002582178,0.09605186,-32.72555,-27.18288,40.88657
23.222736836,3.228544,159.1279,21.28962,1.221215,0.003500038,0.1036916,-32.72555,-27.18288,40.88657
23.232734203,0.02881546,168.5056,22.81389,1.224299,-0.005256152,0.09603122,-35.71922,-26.84845,38.08878
23.242730618,-1.324916,176.9336,24.21622,1.254993,-0.0316397,0.06726994,-35.71922,-26.84845,38.08878
23.252727985,-0.4634504,185.0055,25.25272,1.298861,-0.03220451,0.07006507,-35.71922,-26.84845,38.08878
23.262724876,-0.832649800000001,193.2555,25.19175,1.36387,-0.04243358,0.08622596,-35.71922,-26.84845,38.08878
23.272722244,-0.832649800000001,201.0307,25.13078,1.451303,-0.02682785,0.1157412,-35.71922,-26.84845,38.08878
23.282718659,-0.832649800000001,208.9839,25.74049,1.509246,0.002344591,0.1515259,-39.05207,-24.63856,32.44053
23.292716026,-3.601645,216.8184,26.41117,1.514899,0.01341018,0.1802278,-39.05207,-24.63856,32.44053
23.302712917,-7.78590499999999,223.9407,27.02087,1.509019,0.01604391,0.2151734,-39.05207,-24.63856,32.44053
23.312709808,-11.04717,231.8345,27.93543,1.490787,0.001258983,0.2319591,-39.05207,-24.63856,32.44053
23.322706699,-12.89316,238.4227,28.05737,1.472219,-0.02192957,0.2339118,-39.05207,-24.63856,32.44053
23.332704067,-12.2163,244.1798,27.75252,1.454898,-0.06047349,0.2014087,-43.16034,-23.96599,25.63335
23.342700481,-9.26270200000001,248.2752,27.3867,1.44999,-0.0850781,0.178452,-43.16034,-23.96599,25.63335
23.352697849,-6.24757399999999,252.0144,25.9234,1.463595,-0.1084274,0.1994916,-43.16034,-23.96599,25.63335
23.36269474,-1.694115,254.8039,25.06981,1.511849,-0.1080556,0.2420007,-43.16034,-23.96599,25.63335
23.372692108,4.336142,258.187,24.27719,1.541697,-0.1140673,0.2639647,-43.16034,-23.96599,25.63335
23.382688522,9.935666,260.5611,23.78942,1.526863,-0.1020013,0.2869591,-46.89746,-22.55332,16.05138
23.39268589,14.85832,261.8669,22.63098,1.47645,-0.08969263,0.307144,-46.89746,-22.55332,16.05138
23.402682304,15.84286,263.5287,21.5335,1.431989,-0.08240997,0.3493343,-46.89746,-22.55332,16.05138
23.412679672,15.59672,265.428,20.86283,1.390342,-0.06925359,0.3900825,-46.89746,-22.55332,16.05138
23.422676563,14.85832,267.3273,20.55797,1.340179,-0.0707306,0.3901703,-46.89746,-22.55332,16.05138
23.432673931,13.87379,266.9712,20.25312,1.295452,-0.07660967,0.375414,-49.48338,-22.27982,5.709843
23.442670345,13.87379,264.3596,20.61894,1.270424,-0.06745988,0.3673195,-49.48338,-22.27982,5.709843
23.452667713,9.812599,259.9676,19.76535,1.249557,-0.09722069,0.3994281,-49.48338,-22.27982,5.709843
23.462664604,8.27426799999999,253.7949,19.88729,1.240158,-0.1152371,0.4157207,-49.48338,-22.27982,5.709843
23.472661495,9.32033300000002,247.919,20.497,1.192683,-0.1303683,0.4048001,-49.48338,-22.27982,5.709843
23.482658386,11.16633,242.3399,20.67991,1.097331,-0.1392483,0.3839113,-49.49954,-19.38808,-4.690593
23.492655754,13.56613,236.286,21.65545,0.9885648,-0.08217813,0.3769075,-49.49954,-19.38808,-4.690593
23.502652168,8.45886800000002,228.7482,21.16768,0.87067,-0.03059763,0.4268717,-49.49954,-19.38808,-4.690593
23.512649536,-1.447982,218.5396,22.44806,0.8213758,-0.0004537259,0.4288642,-49.49954,-19.38808,-4.690593
23.522646427,-10.30877,209.2807,24.15525,0.7703887,-0.011137,0.3806196,-49.49954,-19.38808,-4.690593
23.532643795,-16.09289,201.7429,25.00884,0.6969015,-0.04233659,0.36927,-47.20148,-19.8322,-14.21793
23.542640209,-20.83095,193.0775,26.04534,0.6265411,-0.03199832,0.3765686,-47.20148,-19.8322,-14.21793
23.552637577,-26.24587,183.0469,26.28922,0.5689363,-0.0006353508,0.3704394,-47.20148,-19.8322,-14.21793
23.562633991,-34.36826,172.2448,25.98437,0.512823,-0.02267456,0.3667143,-47.20148,-19.8322,-14.21793
23.572631359,-35.78353,160.3743,26.35019,0.4735413,-0.05984897,0.3189348,-47.20148,-19.8322,-14.21793
23.58262825,-30.98393,150.5218,26.16728,0.4205717,-0.09419393,0.2912785,-43.06174,-19.10484,-21.80243
23.592625618,-26.43047,140.4913,25.74049,0.3486936,-0.08102263,0.2928362,-43.06174,-19.10484,-21.80243
23.602622032,-24.76908,127.3744,25.86243,0.2925678,-0.02420795,0.3034481,-43.06174,-19.10484,-21.80243
23.6126194,-26.98427,114.5543,25.19175,0.2581294,-0.007009401,0.2924964,-43.06174,-19.10484,-21.80243
23.622616291,-29.01487,101.7935,23.85039,0.2194975,-0.0001379545,0.2772476,-39.7277,-16.08353,-27.34065
23.632613659,-31.2916,88.37987,21.41156,0.1712046,0.002913887,0.2902525,-39.7277,-16.08353,-27.34065
23.642610073,-33.75293,74.2540099999997,18.424,0.1304782,0.01751902,0.2750053,-39.7277,-16.08353,-27.34065
23.652607441,-36.27579,61.5525999999999,15.00963,0.1314014,-0.005844958,0.2687882,-39.7277,-16.08353,-27.34065
23.662603855,-35.72199,50.63177,11.35139,0.1271152,-0.06264444,0.2841248,-39.7277,-16.08353,-27.34065
23.672601223,-29.56867,38.58324,8.42479100000002,0.114398,-0.111967,0.2851168,-36.8017,-14.94767,-30.54997
23.682598114,-19.66182,27.36564,5.193341,0.1042331,-0.1411971,0.2990207,-36.8017,-14.94767,-30.54997
23.692595482,-8.33970399999999,16.08869,2.266744,0.09238891,-0.1323508,0.3354109,-36.8017,-14.94767,-30.54997
23.702591896,1.567146,5.227206,-0.903735200000002,0.08710107,-0.1092388,0.3765717,-36.8017,-14.94767,-30.54997
23.712589264,8.08966899999999,-4.44723,-4.379068,0.09141786,-0.07866985,0.4153209,-36.8017,-14.94767,-30.54997
23.722586155,11.6586,-13.35009,-7.73246000000002,0.0981033,-0.07038986,0.4559861,-34.57175,-13.79954,-31.70038
23.732583046,13.75073,-21.95618,-10.17129,0.113917,-0.08074088,0.5119546,-34.57175,-13.79954,-31.70038
23.742579937,15.90439,-29.61263,-12.00041,0.1412794,-0.1093778,0.5626433,-34.57175,-13.79954,-31.70038
23.752577305,18.98105,-36.20074,-13.2808,0.1680722,-0.1336612,0.6123748,-34.57175,-13.79954,-31.70038
23.762573719,21.81158,-41.2457,-14.68313,0.1912196,-0.1453339,0.6673737,-34.57175,-13.79954,-31.70038
23.772571087,22.67304,-45.75648,-15.53672,0.2041452,-0.1313308,0.7357839,-35.33616,-13.41119,-30.09546
23.782567978,21.31931,-50.56402,-15.84157,0.2107456,-0.1180001,0.7975053,-35.33616,-13.41119,-30.09546
23.792565346,18.24265,-55.78703,-16.26837,0.2325867,-0.1123188,0.840059,-35.33616,-13.41119,-30.09546
23.80256176,13.68919,-61.4255099999999,-16.75613,0.2370653,-0.1162134,0.8826455,-35.33616,-13.41119,-30.09546
23.812559128,10.48946,-69.0819599999999,-17.54875,0.2363551,-0.1303373,0.8807361,-35.33616,-13.41119,-30.09546
23.822555542,8.33580199999998,-77.6286999999999,-18.34137,0.2462871,-0.1411695,0.8438712,-36.43401,-14.93124,-28.93469
23.83255291,8.64346799999999,-87.4811900000001,-19.49982,0.2543222,-0.1550602,0.7955246,-36.43401,-14.93124,-28.93469
23.842549801,10.3664,-98.9361999999998,-20.71923,0.2799687,-0.1731781,0.7251339,-36.43401,-14.93124,-28.93469
23.852547169,15.10446,-108.5513,-21.45088,0.3441508,-0.1678314,0.639834,-36.43401,-14.93124,-28.93469
23.862543583,21.50391,-112.884,-21.87768,0.4304403,-0.1716045,0.5722054,-36.43401,-14.93124,-28.93469
23.872540951,29.4417,-111.2815,-21.99962,0.4802501,-0.1526415,0.5189917,-37.92181,-16.05959,-26.10171
23.882537842,34.36436,-106.8301,-21.75574,0.4647011,-0.103545,0.5012988,-37.92181,-16.05959,-26.10171
23.892534733,32.51836,-104.634,-21.08506,0.4366499,-0.03630767,0.5281307,-37.92181,-16.05959,-26.10171
23.902531624,24.39598,-107.3642,-20.04856,0.4299497,-0.01631905,0.5496731,-37.92181,-16.05959,-26.10171
23.912528992,15.16599,-115.5549,-18.95108,0.4590471,-0.03462571,0.5572844,-37.92181,-16.05959,-26.10171
23.922525406,8.58193500000002,-128.2563,-17.79264,0.503889,-0.08646614,0.5835412,-40.86664,-16.42874,-22.18695
23.932522774,5.566806,-143.5098,-17.06099,0.5655821,-0.1279575,0.5891873,-40.86664,-16.42874,-22.18695
23.942519665,5.87447300000001,-159.2382,-16.57322,0.6435259,-0.1533987,0.5613005,-40.86664,-16.42874,-22.18695
23.952517033,8.45886800000002,-172.2957,-16.02448,0.7255474,-0.1628857,0.5156953,-40.86664,-16.42874,-22.18695
23.962513447,12.27393,-181.2579,-15.23186,0.7660556,-0.1417075,0.4591472,-40.86664,-16.42874,-22.18695
23.972510815,15.90439,-185.3532,-13.52468,0.7802738,-0.09574021,0.4069459,-43.11266,-17.54582,-17.36002
23.982507229,14.42759,-184.7597,-11.32973,0.7737195,-0.05865838,0.3844547,-43.11266,-17.54582,-17.36002
23.992504597,7.78200200000001,-182.2669,-9.31770000000002,0.7606391,-0.01079104,0.3863794,-43.11266,-17.54582,-17.36002
24.002501488,-4.709243,-181.9702,-8.15925599999997,0.7659733,-0.009122556,0.3978556,-43.11266,-17.54582,-17.36002
24.012498856,-16.15442,-185.3532,-7.976343,0.8175759,-0.03239573,0.3982502,-43.11266,-17.54582,-17.36002
24.02249527,-22.61541,-190.2795,-9.01284600000001,0.8979201,-0.1070924,0.3990865,-46.49137,-18.65499,-10.60643
24.032492638,-21.50782,-195.7399,-11.08585,0.9892024,-0.1675026,0.3975072,-46.49137,-18.65499,-10.60643
24.042489529,-14.55456,-201.4377,-13.40274,1.071686,-0.2003178,0.4035933,-46.49137,-18.65499,-10.60643
24.052486897,-6.80137299999998,-207.1949,-16.02448,1.136955,-0.1983669,0.4226221,-46.49137,-18.65499,-10.60643
24.062483311,-1.078783,-211.0528,-17.54875,1.198947,-0.177472,0.4478732,-46.49137,-18.65499,-10.60643
24.072480679,4.705341,-211.8244,-17.67069,1.229334,-0.1087828,0.454024,-48.36834,-20.12347,-2.678685
24.082477093,5.566806,-210.4593,-16.8171,1.219682,-0.06181962,0.455943,-48.36834,-20.12347,-2.678685
24.092474461,1.567146,-209.3909,-15.7806,1.220424,0.001502474,0.4176393,-48.36834,-20.12347,-2.678685
24.102471352,-7.29363900000002,-209.7471,-15.10992,1.237633,0.01786006,0.3625689,-48.36834,-20.12347,-2.678685
24.11246872,-20.27715,-211.2902,-16.02448,1.25173,-0.006092704,0.3697291,-48.36834,-20.12347,-2.678685
24.122465134,-28.83027,-212.774,-17.91458,1.271639,-0.05511284,0.3333353,-49.13053,-21.13921,5.319538
24.132462502,-27.04581,-212.0618,-18.76817,1.286273,-0.1093027,0.2744588,-49.13053,-21.13921,5.319538
24.142459393,-22.06161,-208.56,-19.37788,1.309309,-0.1424039,0.2715558,-49.13053,-21.13921,5.319538
24.152456284,-16.03136,-204.0492,-20.23147,1.338366,-0.1324566,0.286817,-49.13053,-21.13921,5.319538
24.162453175,-9.13963599999997,-199.6572,-20.35341,1.357329,-0.1036648,0.312141,-49.13053,-21.13921,5.319538
24.172450542,-3.047846,-194.7903,-19.37788,1.370351,-0.07101616,0.293924,-49.18134,-20.37161,13.63636
24.182446957,-0.0942510000000003,-189.3298,-17.91458,1.366774,-0.03679114,0.2714284,-49.18134,-20.37161,13.63636
24.192444325,-1.817181,-184.5223,-16.51225,1.353253,0.007884264,0.2441616,-49.18134,-20.37161,13.63636
24.202441216,-7.60130500000002,-180.427,-16.14643,1.334584,0.01489133,0.2006419,-49.18134,-20.37161,13.63636
24.212438583,-14.92376,-177.0439,-16.75613,1.293404,0.001039704,0.1566883,-47.30263,-22.13219,21.2066
24.222434998,-19.84642,-173.7202,-17.97555,1.246277,-0.03329511,0.117536,-47.30263,-22.13219,21.2066
24.232432365,-20.95402,-170.8119,-19.68273,1.215205,-0.06635398,0.07691976,-47.30263,-22.13219,21.2066
24.24242878,-18.80035,-167.6069,-21.93865,1.194156,-0.08792413,0.04872601,-47.30263,-22.13219,21.2066
24.252426148,-13.63156,-163.927,-24.43845,1.190547,-0.1036859,0.03342193,-47.30263,-22.13219,21.2066
24.262423515,-6.43217400000002,-160.3659,-26.75534,1.204819,-0.1111615,0.03531328,-45.4254,-23.58562,27.61415
24.272420406,2.736278,-155.8551,-28.27961,1.247835,-0.09231423,0.03714775,-45.4254,-23.58562,27.61415
24.282417774,11.35093,-150.6321,-28.64543,1.267048,-0.05164974,0.03183945,-45.4254,-23.58562,27.61415
24.292414188,15.71979,-144.7562,-28.46252,1.269221,-0.01179907,0.02751821,-45.4254,-23.58562,27.61415
24.302411556,15.65826,-138.5836,-27.6699,1.259632,0.005356252,0.01125892,-45.4254,-23.58562,27.61415
24.312407971,13.19693,-131.58,-26.32854,1.248886,0.006522807,0.002662986,-41.30222,-24.65216,32.81084
24.322405338,10.24333,-124.5764,-24.86525,1.227931,0.006581577,0.001263773,-41.30222,-24.65216,32.81084
24.332402229,8.08966899999999,-116.92,-23.21903,1.204005,0.008936795,-0.008266645,-41.30222,-24.65216,32.81084
24.342399597,6.73593800000001,-109.5009,-21.51185,1.166711,-0.003664411,-0.03021288,-41.30222,-24.65216,32.81084
24.352396011,5.382206,-103.0315,-20.23147,1.145895,-0.01157972,-0.05362479,-41.30222,-24.65216,32.81084
24.362393379,4.766874,-97.0369299999999,-18.58526,1.127238,-0.03060272,-0.07416613,-39.10056,-26.12667,36.44719
24.37239027,4.766874,-91.0423399999998,-17.30487,1.118066,-0.03590653,-0.1028633,-39.10056,-26.12667,36.44719
24.382387161,4.459208,-85.2851600000002,-16.26837,1.130243,-0.03569666,-0.1062347,-39.10056,-26.12667,36.44719
24.392384052,3.474676,-78.5189899999999,-15.65866,1.131884,-0.01903694,-0.09475598,-39.10056,-26.12667,36.44719
24.40238142,1.751746,-71.5154100000001,-15.04895,1.112772,-0.01299203,-0.08323839,-39.10056,-26.12667,36.44719
24.412377834,-0.5249836,-64.3337699999999,-14.62216,1.082041,-0.01110808,-0.07648524,-35.72429,-26.83864,39.24979
24.422375202,-2.801713,-57.09278,-14.01245,1.052237,-0.006802402,-0.07260578,-35.72429,-26.83864,39.24979
24.432372093,-4.524643,-50.14855,-12.97595,1.031299,-0.007737101,-0.07639765,-35.72429,-26.83864,39.24979
24.442369461,-5.632242,-43.14497,-12.06138,1.015402,-0.01792353,-0.09311748,-35.72429,-26.83864,39.24979
24.452365875,-5.632242,-35.60722,-11.02488,1.001049,-0.03242661,-0.1069674,-35.72429,-26.83864,39.24979
24.462363243,-5.201509,-27.65401,-9.92740700000002,1.004062,-0.03727916,-0.1127143,-34.59139,-27.5773,40.87469
24.472359657,-4.524643,-19.58208,-9.19575899999999,1.006569,-0.04116979,-0.1184606,-34.59139,-27.5773,40.87469
24.482357025,-3.232446,-11.98498,-8.098285,1.007824,-0.05627059,-0.125159,-34.59139,-27.5773,40.87469
24.492353916,-1.078783,-4.506582,-6.45207400000002,1.011159,-0.05236981,-0.1309087,-34.59139,-27.5773,40.87469
24.502351284,0.767214200000001,2.912464,-4.927805,1.024616,-0.04235878,-0.1280633,-34.59139,-27.5773,40.87469
24.512347698,1.690213,10.39086,-3.098683,1.037016,-0.02803026,-0.1290458,-33.47055,-27.56232,41.65704
24.522345066,1.690213,17.63185,-1.26956,1.050998,-0.01991754,-0.1223722,-33.47055,-27.56232,41.65704
24.532341957,1.013347,24.51673,0.681504599999997,1.057185,-0.0119983,-0.1199921,-33.47055,-27.56232,41.65704
24.542339325,0.02881546,31.4016,2.449656,1.053728,-0.009698314,-0.1266867,-33.47055,-27.56232,41.65704
24.552335739,-0.894183000000003,38.16777,3.851984,1.053774,-0.01210956,-0.1247719,-33.47055,-27.56232,41.65704
24.562333107,-1.447982,44.69653,5.315282,1.052835,-0.01412892,-0.1309912,-32.70982,-27.94359,40.89063
24.572329521,-1.755648,51.04723,6.59566799999998,1.052521,-0.02334606,-0.1285954,-32.70982,-27.94359,40.89063
24.582326889,-1.263382,57.5760000000003,7.81508400000003,1.082374,-0.02997959,-0.1214671,-32.70982,-27.94359,40.89063
24.59232378,-0.1557842,64.8763400000001,8.91255800000001,1.15054,-0.02645658,-0.09622233,-32.70982,-27.94359,40.89063
24.602321148,1.25948,73.5417800000003,10.13197,1.198688,-0.02092129,-0.07333604,-32.70982,-27.94359,40.89063
24.612317562,2.920877,82.1478699999998,11.41236,1.173261,-0.01600813,-0.06563575,-34.5897,-27.58056,40.48769
24.62231493,3.782343,90.3978500000002,12.44886,1.139574,-0.0121072,-0.04452069,-34.5897,-27.58056,40.48769
24.632311821,3.35161,98.7071800000002,13.48536,1.130183,-0.004219409,-0.01196317,-34.5897,-27.58056,40.48769
24.642308712,2.367078,107.61,14.58284,1.151715,-0.008390223,0.01671493,-34.5897,-27.58056,40.48769
24.652305603,1.382547,116.2161,15.68031,1.164586,-0.01866436,0.03440245,-34.5897,-27.58056,40.48769
24.662302971,1.505613,124.7035,16.47293,1.1605,-0.03487765,0.02388508,-34.96017,-27.22645,37.70937
24.672300339,2.736278,132.4787,17.63138,1.159004,-0.03289764,0.03106581,-34.96017,-27.22645,37.70937
24.682296753,3.53621,140.1945,18.91176,1.175215,-0.01346334,0.04873986,-34.96017,-27.22645,37.70937
24.692294121,2.059412,147.4355,20.31409,1.216226,0.008973973,0.07546286,-34.96017,-27.22645,37.70937
24.702291012,-1.571049,154.8545,21.5335,1.248112,0.02375328,0.08162495,-34.96017,-27.22645,37.70937
24.712287903,-6.370641,161.502,22.81389,1.266154,0.02316856,0.08494368,-37.95187,-26.89583,34.46008
24.722284794,-11.04717,167.734,23.78942,1.269337,0.009765445,0.100256,-37.95187,-26.89583,34.46008
24.732282162,-14.73916,173.966,24.82593,1.279805,-0.002622749,0.1045481,-37.95187,-26.89583,34.46008
24.742278576,-17.20049,179.3077,25.43563,1.304631,-0.02675299,0.1222184,-37.95187,-26.89583,34.46008
24.752275944,-16.89282,183.8778,26.10631,1.334178,-0.04312014,0.1283926,-37.95187,-26.89583,34.46008
24.762272835,-14.98529,188.3293,26.89893,1.345473,-0.04775202,0.1288527,-41.28053,-25.05922,29.65236
24.772270203,-12.83163,192.5433,27.20378,1.360265,-0.05653038,0.1465365,-41.28053,-25.05922,29.65236
24.782266617,-10.9241,196.3418,27.3867,1.373084,-0.06380653,0.1733162,-41.28053,-25.05922,29.65236
24.792263985,-8.27817099999997,199.7249,27.63058,1.381599,-0.07556312,0.1977118,-41.28053,-25.05922,29.65236
24.802260399,-4.46311,202.8706,27.87446,1.375052,-0.09033214,0.191027,-45.00281,-24.77073,22.07598
24.812257767,-0.5249836,205.5415,27.26476,1.363113,-0.1031455,0.1972726,-45.00281,-24.77073,22.07598
24.822254658,3.16701,207.0846,26.53311,1.343743,-0.1092191,0.2126223,-45.00281,-24.77073,22.07598
24.832252026,8.21273500000003,208.5684,25.74049,1.324152,-0.1036784,0.2231837,-45.00281,-24.77073,22.07598
24.84224844,13.07386,210.1709,24.94787,1.297601,-0.09035532,0.2495483,-45.00281,-24.77073,22.07598
24.852245808,16.64279,211.2986,23.17971,1.272139,-0.08342011,0.2658625,-46.87468,-23.32765,14.44293
24.862242699,18.55032,212.367,21.22865,1.252035,-0.0763922,0.2807316,-46.87468,-23.32765,14.44293
24.87223959,20.15018,212.3076,19.94827,1.226177,-0.07357073,0.3262406,-46.87468,-23.32765,14.44293
24.882236481,22.42691,212.7231,18.54594,1.21452,-0.07505269,0.3487544,-46.87468,-23.32765,14.44293
24.892233849,23.78064,214.5037,17.38749,1.218435,-0.07442266,0.409048,-46.87468,-23.32765,14.44293
24.902230263,25.93431,217.768,16.35099,1.24563,-0.06875399,0.4386708,-48.75131,-21.51022,6.09835
24.912227631,27.5957,222.1601,15.4974,1.243008,-0.05768083,0.4860516,-48.75131,-21.51022,6.09835
24.922224522,25.87277,224.7716,14.64381,1.231971,-0.06577827,0.527709,-48.75131,-21.51022,6.09835
24.932221889,23.34991,224.0594,14.15604,1.202217,-0.06378727,0.5440319,-48.75131,-21.51022,6.09835
24.942218304,22.73458,221.4479,13.91216,1.162001,-0.07562249,0.5589409,-48.75131,-21.51022,6.09835
24.952215672,21.93465,218.9551,13.48536,1.114817,-0.1055752,0.5738668,-49.87687,-19.75109,-2.304833
24.962212563,23.71911,216.4029,13.85119,1.061119,-0.1002312,0.5835305,-49.87687,-19.75109,-2.304833
24.972209454,24.08831,215.394,13.79022,1.009801,-0.09196394,0.5888822,-49.87687,-19.75109,-2.304833
24.982206345,23.28838,214.8598,13.30245,0.9467887,-0.05838776,0.5707976,-49.87687,-19.75109,-2.304833
24.992203712,19.04258,213.6134,12.69274,0.9049466,-0.03588924,0.5708647,-49.87687,-19.75109,-2.304833
25.00220108,10.30486,211.536,13.24148,0.8457739,0.002132829,0.6054155,-47.94486,-20.94511,-10.21839
25.012197495,-0.4634504,206.6691,14.33895,0.8087763,-0.000205094,0.589209,-47.94486,-20.94511,-10.21839
25.022194862,-9.26270200000001,201.9803,15.80225,0.776965,-0.01880466,0.5902265,-47.94486,-20.94511,-10.21839
25.032191753,-15.41603,196.876,17.08264,0.7348031,-0.056249,0.6252456,-47.94486,-20.94511,-10.21839
25.042188644,-16.46209,191.0001,19.27759,0.6906819,-0.0427881,0.5985188,-47.94486,-20.94511,-10.21839
25.052185535,-20.95402,185.1836,20.98477,0.629253,-0.04181329,0.5723039,-44.93384,-19.85237,-18.58727
25.062182903,-27.47654,177.3491,22.9968,0.5606806,0.003070935,0.5805477,-44.93384,-19.85237,-18.58727
25.072179317,-36.82959,167.3779,25.13078,0.5055457,0.03246874,0.5667576,-44.93384,-19.85237,-18.58727
25.082176685,-47.84404,156.5757,27.14281,0.4511607,0.02132013,0.5280905,-44.93384,-19.85237,-18.58727
25.092173576,-55.84336,144.9427,28.91097,0.3985289,-0.005348364,0.488946,-44.93384,-19.85237,-18.58727
25.102170944,-58.4892899999998,133.547,29.70359,0.3628347,-0.02590356,0.4440274,-41.18993,-18.35676,-24.9531
25.112167358,-59.4738199999998,121.4985,28.60611,0.2910027,-0.04233086,0.3972564,-41.18993,-18.35676,-24.9531
25.122164726,-56.95096,108.441,27.02087,0.2302,-0.04933368,0.3475923,-41.18993,-18.35676,-24.9531
25.13216114,-52.3975,96.6298499999998,25.13078,0.1998739,-0.07101351,0.2744286,-41.18993,-18.35676,-24.9531
25.142158508,-46.36724,86.2431900000001,23.36263,0.1675966,-0.09127748,0.2539113,-41.18993,-18.35676,-24.9531
25.152155399,-38.61406,74.5507699999998,20.74088,0.1271195,-0.08969574,0.2487171,-37.14697,-16.4681,-30.09314
25.162152767,-29.261,61.9087100000001,16.41196,0.09413781,-0.0982584,0.2339409,-37.14697,-16.4681,-30.09314
25.172149181,-16.76976,50.27565,11.41236,0.0887327,-0.1223912,0.2105063,-37.14697,-16.4681,-30.09314
25.182146549,-4.83231,39.35482,6.77858100000002,0.07674538,-0.106456,0.225359,-37.14697,-16.4681,-30.09314
25.19214344,3.905409,27.5437,3.059364,0.04478275,-0.06462199,0.2459827,-37.14697,-16.4681,-30.09314
25.202140331,7.65893599999998,15.73257,0.2547093,0.03270294,-0.04386867,0.2565271,-34.55434,-14.56352,-32.08333
25.212137222,8.64346799999999,4.693035,-2.06218,0.03568804,-0.04648409,0.2828443,-34.55434,-14.56352,-32.08333
25.22213459,9.074201,-5.99039199999999,-4.196156,0.02741786,-0.04631412,0.3192304,-34.55434,-14.56352,-32.08333
25.232131004,7.96660199999998,-16.199,-6.45207400000002,0.04407411,-0.04919707,0.3929029,-34.55434,-14.56352,-32.08333
25.242128372,5.320673,-25.45797,-8.95187600000001,0.06867498,-0.06031565,0.4522063,-34.55434,-14.56352,-32.08333
25.25212574,2.244012,-34.00471,-10.96391,0.09806478,-0.09261139,0.5234711,-34.18576,-14.18362,-32.46957
25.262122631,1.936346,-41.77987,-12.2443,0.1348489,-0.1297301,0.58276,-34.18576,-14.18362,-32.46957
25.272119522,1.936346,-47.4777,-12.91498,0.1603726,-0.1634548,0.6655179,-34.18576,-14.18362,-32.46957
25.282116413,2.182479,-52.7007,-13.34177,0.1831808,-0.1820768,0.7583266,-34.18576,-14.18362,-32.46957
25.292113781,2.490145,-56.26184,-13.82954,0.2145734,-0.1908455,0.8472893,-34.18576,-14.18362,-32.46957
25.302110195,3.105477,-57.4488899999997,-13.95148,0.2634387,-0.1958454,0.9386135,-34.18915,-14.17708,-31.69557
25.312107563,4.028476,-57.9830700000001,-14.13439,0.2710836,-0.2113391,1.034319,-34.18915,-14.17708,-31.69557
25.322104454,5.44374,-58.6952899999999,-14.07342,0.2637845,-0.2104754,1.091282,-34.18915,-14.17708,-31.69557
25.332101822,5.99753899999999,-60.59457,-14.25633,0.2644705,-0.2204385,1.11617,-34.18915,-14.17708,-31.69557
25.342098236,7.720469,-62.3157900000002,-14.43924,0.2875715,-0.2312509,1.106082,-34.18915,-14.17708,-31.69557
25.352095604,11.78166,-63.9776600000003,-14.86604,0.3131481,-0.2446151,1.077327,-36.06374,-14.55461,-29.70794
25.362092495,17.19659,-65.1647000000001,-15.04895,0.3431313,-0.2338584,1.019842,-36.06374,-14.55461,-29.70794
25.372089386,21.50391,-66.3517500000001,-15.29283,0.3593706,-0.2173928,0.9786522,-36.06374,-14.55461,-29.70794
25.382086277,25.38051,-67.1826900000001,-15.10992,0.3981906,-0.1848353,0.8948253,-36.06374,-14.55461,-29.70794
25.392083645,28.21103,-64.6898899999997,-14.80507,0.4294172,-0.1623564,0.8411645,-37.55404,-15.31295,-28.1025
25.402080059,27.71877,-62.9686700000001,-14.62216,0.4106022,-0.1468105,0.8282718,-37.55404,-15.31295,-28.1025
25.412077427,26.8573,-62.8499600000003,-13.64662,0.3970864,-0.103506,0.7574549,-37.55404,-15.31295,-28.1025
25.422074318,22.61151,-63.5028400000002,-13.21983,0.3875582,-0.08909845,0.7593821,-37.55404,-15.31295,-28.1025
25.432071686,16.51972,-67.7762100000002,-13.34177,0.3828622,-0.09914254,0.7340283,-37.55404,-15.31295,-28.1025
25.4420681,13.44306,-77.0945299999998,-12.97595,0.3752727,-0.1114156,0.6837943,-39.41013,-16.82174,-24.94777
25.452065468,11.96626,-89.6772299999997,-13.15886,0.3747395,-0.136197,0.6321154,-39.41013,-16.82174,-24.94777
25.462061882,12.82773,-105.1682,-13.2808,0.3835976,-0.1688749,0.5469218,-39.41013,-16.82174,-24.94777
25.47205925,15.59672,-120.0063,-12.79303,0.4197401,-0.1487504,0.4908602,-39.41013,-16.82174,-24.94777
25.482056141,17.44272,-130.9865,-12.54915,0.5041782,-0.1051825,0.4495443,-39.41013,-16.82174,-24.94777
25.492053509,21.75005,-132.8858,-11.87847,0.584548,-0.05317173,0.3838259,-40.47617,-17.18664,-22.18011
25.502050877,20.76551,-124.1016,-11.75653,0.601163,-0.05503191,0.4101191,-40.47617,-17.18664,-22.18011
25.512047291,16.08899,-114.9613,-11.32973,0.5485922,-0.03081819,0.4614121,-40.47617,-17.18664,-22.18011
25.522044659,8.58193500000002,-113.0621,-10.17129,0.4913121,0.01012621,0.4926089,-40.47617,-17.18664,-22.18011
25.532041073,-1.940248,-117.6322,-9.56158399999997,0.514547,0.01912262,0.5227163,-40.47617,-17.18664,-22.18011
25.542038441,-11.53943,-127.6627,-10.84197,0.5736179,-0.0377031,0.557564,-43.10283,-17.92999,-17.8095
25.552035332,-14.12383,-142.7383,-11.51265,0.6461068,-0.1347241,0.5785199,-43.10283,-17.92999,-17.8095
25.5620327,-8.52430299999999,-160.1285,-11.87847,0.7299128,-0.1867105,0.5578085,-43.10283,-17.92999,-17.8095
25.572029114,0.02881546,-175.204,-12.06138,0.8299238,-0.2186759,0.5657782,-43.10283,-17.92999,-17.8095
25.582026482,10.85866,-182.8604,-12.12236,0.9299862,-0.1767299,0.5258711,-43.10283,-17.92999,-17.8095
25.592023373,19.28872,-181.3173,-11.87847,0.9380441,-0.1122027,0.5502478,-45.3584,-18.66345,-12.5976
25.602020264,22.98071,-174.7292,-11.69556,0.8756514,-0.03321996,0.5541649,-45.3584,-18.66345,-12.5976
25.612017155,18.91952,-168.5565,-10.781,0.8250397,0.04111421,0.5556697,-45.3584,-18.66345,-12.5976
25.622014522,7.47433699999998,-166.5385,-10.59809,0.8229859,0.04703652,0.570029,-45.3584,-18.66345,-12.5976
25.632010937,-3.478579,-166.6572,-11.8175,0.9029251,0.02001551,0.5775538,-45.3584,-18.66345,-12.5976
25.642008305,-8.89350299999999,-168.0817,-13.34177,1.028614,-0.0298689,0.5897906,-47.63032,-19.00021,-5.452722
25.652005196,-8.093571,-170.0403,-15.17089,1.137637,-0.1012544,0.5719115,-47.63032,-19.00021,-5.452722
25.662002563,-1.817181,-173.3047,-15.84157,1.199486,-0.1260944,0.5383098,-47.63032,-19.00021,-5.452722
25.671998978,4.766874,-177.5187,-15.90254,1.228481,-0.1142537,0.4951844,-47.63032,-19.00021,-5.452722
25.681996345,8.397335,-181.1392,-15.84157,1.254247,-0.05941131,0.4850753,-47.63032,-19.00021,-5.452722
25.69199276,7.90506900000002,-181.6734,-15.29283,1.233633,0.02612728,0.4779106,-48.73829,-21.17018,1.323299
25.701990127,1.874812,-178.6464,-15.29283,1.189881,0.04671448,0.4856387,-48.73829,-21.17018,1.323299
25.711987495,-6.61677399999998,-175.204,-15.90254,1.158852,0.01188374,0.4636873,-48.73829,-21.17018,1.323299
25.721984386,-11.60097,-171.9396,-17.00002,1.15995,-0.04707333,0.444079,-48.73829,-21.17018,1.323299
25.731981754,-9.38576900000002,-168.3785,-17.67069,1.167718,-0.09824637,0.4110568,-48.73829,-21.17018,1.323299
25.741978168,-3.293979,-164.0457,-16.51225,1.187942,-0.112312,0.3703462,-49.54137,-20.03765,8.471526
25.751975536,1.44408,-159.6537,-14.01245,1.217792,-0.06772963,0.3453968,-49.54137,-20.03765,8.471526
25.761972427,0.4595481,-156.3893,-10.65906,1.205729,0.003276827,0.3248208,-49.54137,-20.03765,8.471526
