Time (s),Gyroscope X (deg/s),Gyroscope Y (deg/s),Gyroscope Z (deg/s),Accelerometer X (g),Accelerometer Y (g),Accelerometer Z (g),Magnetometer X (uT),Magnetometer Y (uT),Magnetometer Z (uT)
13.798727512,2.367078,4.693035,4.034896,0.9948305,-0.03902463,-0.1241836,-28.36212,-26.2821,53.55748
13.80872488,3.843876,13.29913,5.0714,1.012462,-0.01775009,-0.1208698,-28.36212,-26.2821,53.55748
13.818722248,3.53621,22.02393,5.98596099999998,1.023583,-0.01318322,-0.1237618,-28.36212,-26.2821,53.55748
13.828719616,2.182479,30.68937,6.77858100000002,1.045385,-0.006417699,-0.1218873,-28.36212,-26.2821,53.55748
13.838716507,0.705681,39.05806,7.57120099999999,1.059206,-0.01587224,-0.1228661,-28.35256,-26.66573,53.1725
13.848713875,0.02881546,47.42674,8.36382100000002,1.084854,-0.03238222,-0.1238637,-28.35256,-26.66573,53.1725
13.858711243,0.5210813,56.09219,8.72964499999998,1.117704,-0.06922968,-0.1325258,-28.35256,-26.66573,53.1725
13.868708611,2.736278,65.0543899999998,9.27838200000003,1.142755,-0.07993771,-0.1354382,-28.35256,-26.66573,53.1725
13.878705978,5.136074,73.8979000000001,10.37586,1.168182,-0.0848816,-0.1464885,-28.35256,-26.66573,53.1725
13.888703346,7.22820399999999,82.1478699999998,11.22945,1.19823,-0.0759392,-0.1369717,-29.84278,-26.69387,51.16187
13.898700714,8.58193500000002,90.1604400000002,12.50983,1.215395,-0.05559313,-0.1279139,-29.84278,-26.69387,51.16187
13.908698082,7.28973700000001,97.87625,13.11954,1.216486,-0.03552515,-0.1145208,-29.84278,-26.69387,51.16187
13.91869545,5.62834,104.8205,13.66828,1.224679,-0.03038981,-0.1020935,-29.84278,-26.69387,51.16187
13.928692341,4.582274,112.3582,14.0341,1.23631,-0.02660928,-0.08584313,-29.84278,-26.69387,51.16187
13.938689709,4.274609,119.8366,14.27798,1.231129,-0.03584804,-0.07530304,-31.34337,-25.97165,47.92168
13.948687077,4.828408,127.4931,14.70478,1.233705,-0.04295467,-0.06094842,-31.34337,-25.97165,47.92168
13.958684444,6.48980500000002,134.7341,15.25352,1.232417,-0.05221739,-0.06142237,-31.34337,-25.97165,47.92168
13.968681812,8.397335,142.0938,15.74128,1.240558,-0.07051357,-0.0604747,-31.34337,-25.97165,47.92168
13.97867918,11.90473,149.216,16.5339,1.24304,-0.07285474,-0.05617124,-31.34337,-25.97165,47.92168
13.988676548,15.47366,156.1603,17.50943,1.248691,-0.06263044,-0.06623381,-35.11092,-24.13504,43.4977
13.998673916,18.11959,162.2142,18.05817,1.240319,-0.0315377,-0.04899849,-35.11092,-24.13504,43.4977
14.008671284,17.56579,166.725,18.54594,1.244379,-0.01380567,-0.0317814,-35.11092,-24.13504,43.4977
14.018668175,16.27359,170.5236,19.64341,1.255542,-0.01101067,-0.01600857,-35.11092,-24.13504,43.4977
14.028665543,14.91986,175.0937,20.497,1.269357,-0.01986972,-0.005023122,-35.11092,-24.13504,43.4977
14.03866291,13.50459,179.3671,21.35059,1.276996,-0.03710743,0.006453827,-38.80737,-22.37552,37.39754
14.048661232,12.27393,183.1063,22.69195,1.27711,-0.0428005,0.02129095,-38.80737,-22.37552,37.39754
14.058658123,11.35093,186.1926,23.91136,1.2663,-0.03743184,0.04715152,-38.80737,-22.37552,37.39754
14.068655491,9.99719900000002,188.9821,24.70398,1.270757,-0.04047342,0.07681625,-38.80737,-22.37552,37.39754
14.078652859,7.22820399999999,191.4156,24.8869,1.27264,-0.0363206,0.1016979,-38.80737,-22.37552,37.39754
14.088650227,4.028476,194.2052,25.25272,1.269952,-0.04830729,0.1251559,-42.9252,-21.31933,30.97533
14.098647594,1.136414,196.4012,25.86243,1.262309,-0.0560974,0.140007,-42.9252,-21.31933,30.97533
14.108644962,-1.509515,198.1224,26.83796,1.257249,-0.07154133,0.1625129,-42.9252,-21.31933,30.97533
14.11864233,-3.109379,200.081,27.26476,1.241868,-0.08235609,0.1821641,-42.9252,-21.31933,30.97533
14.128639698,-3.786245,201.5055,28.24029,1.228778,-0.08531543,0.2056379,-42.9252,-21.31933,30.97533
14.138637066,-5.816842,202.6332,28.54514,1.223671,-0.09837443,0.2233575,-47.81324,-18.76804,22.08845
14.148633957,-8.52430299999999,202.4551,29.33776,1.214524,-0.1036637,0.2492179,-47.81324,-18.76804,22.08845
14.158631325,-10.24723,202.8112,29.70359,1.199904,-0.1290416,0.2688715,-47.81324,-18.76804,22.08845
14.168628693,-10.61643,203.2267,29.58164,1.179652,-0.1399307,0.2909242,-47.81324,-18.76804,22.08845
14.178626061,-10.30877,203.3454,29.15485,1.191654,-0.1561805,0.294736,-47.81324,-18.76804,22.08845
14.188623428,-10.3703,201.7429,30.06941,1.152004,-0.1453134,0.3464886,-50.39779,-18.86237,13.23244
14.198620796,-10.9241,200.7933,30.25232,1.134032,-0.1479272,0.3651851,-50.39779,-18.86237,13.23244
14.208618164,-10.67797,199.7249,30.86203,1.104897,-0.1525824,0.3973016,-50.39779,-18.86237,13.23244
14.218615532,-10.67797,199.2501,30.98397,1.084525,-0.1572267,0.4116956,-50.39779,-18.86237,13.23244
14.2286129,-10.0011,198.2411,31.65465,1.073241,-0.178682,0.4279924,-50.39779,-18.86237,13.23244
14.238609791,-8.46277000000003,197.7069,31.10591,1.049845,-0.2037035,0.452447,-51.5117,-17.43001,3.669941
14.248607159,-4.709243,196.5199,30.61815,1.017169,-0.2017352,0.4726037,-51.5117,-17.43001,3.669941
14.258604527,-2.494047,194.858,29.82553,1.001589,-0.2017929,0.4999096,-51.5117,-17.43001,3.669941
14.268601894,-0.1557842,193.0775,29.09388,0.9729378,-0.2065439,0.5205396,-51.5117,-17.43001,3.669941
14.278599262,1.505613,190.2285,29.21582,0.942212,-0.2044843,0.5464357,-51.5117,-17.43001,3.669941
14.28859663,3.720809,187.2016,29.64261,0.912688,-0.1889175,0.5589262,-51.13593,-15.60333,-5.560963
14.298593998,4.397675,184.6494,28.4232,0.8782687,-0.1718975,0.5814749,-51.13593,-15.60333,-5.560963
14.308591366,1.013347,181.385,27.14281,0.8234304,-0.1314829,0.6026174,-51.13593,-15.60333,-5.560963
14.318588734,-7.97050500000002,177.2897,24.94787,0.7923673,-0.08502515,0.6486029,-51.13593,-15.60333,-5.560963
14.328585625,-20.46175,171.5919,23.72845,0.7542566,-0.07938629,0.6568037,-51.13593,-15.60333,-5.560963
14.338582993,-30.12247,167.0218,22.02127,0.7040915,-0.08015808,0.6808201,-49.27074,-13.38177,-14.39577
14.348581314,-38.36792,162.4516,20.497,0.6600869,-0.1507759,0.652679,-49.27074,-13.38177,-14.39577
14.358578682,-42.30605,156.9912,21.5335,0.6275496,-0.2088695,0.6407863,-49.27074,-13.38177,-14.39577
14.368575573,-42.49065,153.3707,21.59447,0.6015218,-0.2503037,0.6298351,-49.27074,-13.38177,-14.39577
14.378572941,-38.92172,149.6909,21.77739,0.5556819,-0.2489727,0.6088573,-46.27435,-11.8956,-21.21867
14.388570309,-37.32186,145.1207,22.14321,0.5058576,-0.2683878,0.6127778,-46.27435,-11.8956,-21.21867
14.398567677,-33.99906,139.8384,23.24068,0.4662261,-0.2336005,0.6233666,-46.27435,-11.8956,-21.21867
14.408565044,-32.46073,135.8024,23.91136,0.47949,-0.2134456,0.6199883,-46.27435,-11.8956,-21.21867
14.418562412,-32.7684,131.9445,24.82593,0.4496741,-0.2079796,0.6444463,-46.27435,-11.8956,-21.21867
14.42855978,-35.22973,125.8906,25.4966,0.3943592,-0.24649,0.6445526,-42.15462,-10.76445,-26.03169
14.438557148,-33.3222,118.0561,26.28922,0.3289389,-0.2657097,0.6504145,-42.15462,-10.76445,-26.03169
14.448554516,-30.9224,110.3402,26.41117,0.2812854,-0.2453531,0.6413993,-42.15462,-10.76445,-26.03169
14.458551407,-31.4762,101.2,26.04534,0.2160677,-0.223141,0.6606503,-42.15462,-10.76445,-26.03169
14.468548775,-32.64533,90.0417400000001,24.58204,0.1779672,-0.2187282,0.641094,-42.15462,-10.76445,-26.03169
14.478546143,-32.27613,78.8834899999999,23.85039,0.1719297,-0.2086603,0.6391877,-38.79222,-9.25858,-30.8523
14.488543511,-31.4762,70.0399899999998,22.38709,0.1680407,-0.2092625,0.6348874,-38.79222,-9.25858,-30.8523
14.498540878,-28.09187,62.8583500000001,20.74088,0.1720541,-0.189921,0.6157324,-38.79222,-9.25858,-30.8523
14.508538246,-23.90761,58.8223999999999,18.60691,0.1876607,-0.164913,0.6066058,-38.79222,-9.25858,-30.8523
14.518535614,-20.76942,53.9555,16.47293,0.1501257,-0.1385647,0.5932643,-38.79222,-9.25858,-30.8523
14.528532982,-18.67729,48.25768,14.0341,0.133896,-0.1313954,0.5621833,-35.5017,-7.795864,-33.22202
14.53853035,-18.73882,42.44114,12.32692,0.1212576,-0.1595499,0.5397195,-35.5017,-7.795864,-33.22202
14.548527241,-17.01589,36.50591,10.61974,0.1011215,-0.1776302,0.5191805,-35.5017,-7.795864,-33.22202
14.558524609,-15.72369,30.0365,8.18090799999998,0.07890761,-0.2146419,0.5053501,-35.5017,-7.795864,-33.22202
14.568521977,-12.52396,22.02393,5.498195,0.05143008,-0.2308709,0.4905663,-35.5017,-7.795864,-33.22202
14.578519344,-8.40123700000001,12.46819,2.69354,0.02618188,-0.2357652,0.4882187,-34.39767,-6.652897,-33.99377
14.588516712,-4.586177,1.725416,-0.3549984,0.005510657,-0.2507299,0.4906515,-34.39767,-6.652897,-33.99377
14.59851408,-1.017249,-9.07671499999999,-3.159653,0.01574694,-0.2510794,0.4834551,-34.39767,-6.652897,-33.99377
14.608511448,2.490145,-18.63245,-5.720425,0.03602426,-0.2409205,0.4877243,-34.39767,-6.652897,-33.99377
14.618508816,5.44374,-26.58566,-8.58605100000002,0.05813688,-0.225008,0.4795459,-34.39767,-6.652897,-33.99377
14.62850666,7.53587,-32.10543,-10.72003,0.09308273,-0.2174574,0.4857045,-33.67008,-5.509474,-34.38129
14.638504028,7.59740300000001,-36.79427,-12.36624,0.1154107,-0.2125463,0.4961929,-33.67008,-5.509474,-34.38129
14.648501396,7.28973700000001,-41.2457,-13.76857,0.1222522,-0.2132646,0.5091027,-33.67008,-5.509474,-34.38129
14.658498764,6.18213799999999,-45.40036,-14.98798,0.1348757,-0.2360947,0.5358869,-33.67008,-5.509474,-34.38129
14.668495655,6.79747099999997,-50.32661,-16.08545,0.1545676,-0.2461814,0.5593054,-33.67008,-5.509474,-34.38129
14.678493023,8.58193500000002,-56.14314,-17.54875,0.1537652,-0.2547074,0.585152,-34.03418,-6.263191,-33.21901
14.688490391,11.53553,-64.0963599999998,-19.62176,0.1505042,-0.2616881,0.6258385,-34.03418,-6.263191,-33.21901
14.698487759,14.79679,-73.0585699999998,-21.75574,0.1524237,-0.2594695,0.6516777,-34.03418,-6.263191,-33.21901
14.708485126,18.24265,-82.85171,-24.43845,0.1768383,-0.2874077,0.6789212,-34.03418,-6.263191,-33.21901
14.718482494,22.85765,-92.8822600000001,-26.87728,0.2155355,-0.3232808,0.7109275,-34.03418,-6.263191,-33.21901
14.728479862,29.6263,-103.0909,-28.76737,0.2655979,-0.3677553,0.7343019,-36.27566,-7.023889,-31.23213
14.73847723,40.76381,-111.6376,-29.49902,0.3098807,-0.3395283,0.69641,-36.27566,-7.023889,-31.23213
14.748474598,46.671,-116.5639,-28.95029,0.3652416,-0.3034336,0.6977399,-36.27566,-7.023889,-31.23213
14.758471489,45.93261,-120.1843,-27.12116,0.3983666,-0.225024,0.6981406,-36.27566,-7.023889,-31.23213
14.768468857,39.16395,-124.8732,-25.53592,0.4130644,-0.176971,0.713417,-36.27566,-7.023889,-31.23213
14.778466225,30.7339,-131.2239,-24.1336,0.4273732,-0.1607575,0.701902,-38.45834,-7.777034,-28.40628
14.788463592,24.64211,-137.6933,-24.07262,0.4629306,-0.1600989,0.6970541,-38.45834,-7.777034,-28.40628
14.79846096,20.70398,-144.5782,-24.62136,0.5067043,-0.1559026,0.6893196,-38.45834,-7.777034,-28.40628
14.808458328,16.64279,-151.5224,-26.51146,0.5421628,-0.09779519,0.6964214,-38.45834,-7.777034,-28.40628
14.818455696,6.79747099999997,-158.8227,-29.74291,0.5787287,-0.07271867,0.7025726,-38.45834,-7.777034,-28.40628
14.828453064,-6.678307,-165.7076,-31.93785,0.6192021,-0.1264761,0.6881587,-42.19062,-9.599416,-23.19976
14.838450432,-10.67797,-170.5745,-33.70601,0.6700011,-0.1854976,0.6603279,-42.19062,-9.599416,-23.19976
14.848447323,-6.30910700000001,-171.4648,-35.41319,0.7249836,-0.2601578,0.6138294,-42.19062,-9.599416,-23.19976
14.858444691,2.428612,-171.2274,-36.14484,0.749149,-0.2766103,0.569284,-42.19062,-9.599416,-23.19976
14.868443012,9.812599,-171.7022,-36.69357,0.7678183,-0.2330848,0.5591901,-42.19062,-9.599416,-23.19976
14.87844038,10.67406,-173.2454,-38.58367,0.7827908,-0.2003493,0.546234,-45.56595,-10.71513,-17.22017
14.888437271,8.33580199999998,-176.9252,-40.41279,0.81258,-0.1779197,0.5433049,-45.56595,-10.71513,-17.22017
14.898434639,4.705341,-181.436,-41.93706,0.8584141,-0.1794351,0.5441825,-45.56595,-10.71513,-17.22017
14.908432007,3.966942,-185.472,-42.18094,0.9147769,-0.2232387,0.5211238,-45.56595,-10.71513,-17.22017
14.918429375,9.50493299999999,-186.5403,-42.11997,0.9645345,-0.2261563,0.5196022,-45.56595,-10.71513,-17.22017
14.928426743,16.39665,-184.463,-41.93706,0.9960598,-0.2190154,0.4884379,-48.94833,-11.81722,-9.628078
14.93842411,21.44238,-182.8011,-41.38832,1.006591,-0.1835354,0.4663959,-48.94833,-11.81722,-9.628078
14.948421478,21.68851,-181.7921,-41.99803,1.011988,-0.1340075,0.4505808,-48.94833,-11.81722,-9.628078
14.958418846,17.38119,-183.0979,-41.99803,1.029314,-0.09683449,0.4395337,-48.94833,-11.81722,-9.628078
14.968416214,11.72013,-184.7004,-41.87609,1.06176,-0.0859536,0.443303,-50.81969,-13.66169,-1.182302
14.978413105,6.85900399999999,-184.8784,-41.44929,1.102995,-0.127836,0.4504205,-50.81969,-13.66169,-1.182302
14.988410473,6.305205,-182.3263,-40.10794,1.14554,-0.1356546,0.4599199,-50.81969,-13.66169,-1.182302
14.998407841,7.65893599999998,-177.8748,-39.1324,1.173834,-0.1376657,0.4445567,-50.81969,-13.66169,-1.182302
15.008405209,8.88960099999997,-173.3641,-38.03493,1.189684,-0.1258566,0.4263401,-50.81969,-13.66169,-1.182302
15.018402576,8.82806800000001,-170.2777,-36.81551,1.202798,-0.0980524,0.4095599,-51.93539,-15.87762,7.658067
15.028399944,5.99753899999999,-168.8533,-34.92542,1.220606,-0.0866906,0.39134,-51.93539,-15.87762,7.658067
15.038397312,3.228544,-168.2598,-33.0963,1.229636,-0.07503821,0.3707425,-51.93539,-15.87762,7.658067
15.04839468,-0.832649800000001,-167.7849,-31.51106,1.235842,-0.09449802,0.3549437,-51.93539,-15.87762,7.658067
15.058392048,-3.417045,-167.3101,-30.04776,1.248695,-0.105312,0.3137666,-51.93539,-15.87762,7.658067
15.068388939,-4.709243,-166.5385,-29.01126,1.254395,-0.1238231,0.2965327,-51.14198,-19.60854,15.61745
15.078386307,-4.340044,-165.3515,-28.40155,1.266079,-0.1237852,0.2754549,-51.14198,-19.60854,15.61745
15.088383675,-2.494047,-163.3335,-27.48699,1.27604,-0.1096234,0.2615552,-51.14198,-19.60854,15.61745
15.098381043,-1.509515,-160.722,-26.6334,1.273391,-0.09860869,0.2495926,-51.14198,-19.60854,15.61745
15.108378887,-1.017249,-157.6357,-26.38951,1.249274,-0.08603932,0.2414956,-51.14198,-19.60854,15.61745
15.118376255,-1.632582,-153.8965,-26.45049,1.239026,-0.05965538,0.2261923,-49.27825,-20.67072,23.31297
15.128373623,-3.232446,-150.6321,-26.38951,1.222009,-0.06207572,0.2109081,-49.27825,-20.67072,23.31297
15.138370991,-4.83231,-147.7238,-26.51146,1.202323,-0.07821216,0.1894106,-49.27825,-20.67072,23.31297
15.148368359,-5.263042,-144.7562,-25.96272,1.189203,-0.1069674,0.155462,-49.27825,-20.67072,23.31297
15.158365727,-4.524643,-141.5512,-25.41398,1.174442,-0.1259749,0.1282138,-49.27825,-20.67072,23.31297
15.168363094,-2.186381,-137.8714,-24.98719,1.173788,-0.1437448,0.09950497,-47.04987,-20.98026,29.71721
15.178360462,0.1518819,-134.2509,-24.19457,1.176774,-0.1478673,0.06743622,-47.04987,-20.98026,29.71721
15.18835783,2.367078,-131.3426,-22.79224,1.180149,-0.1465665,0.04302262,-47.04987,-20.98026,29.71721
15.198354721,4.643808,-126.7725,-22.36544,1.17231,-0.118642,0.03154327,-47.04987,-20.98026,29.71721
15.208352089,5.62834,-121.7275,-21.45088,1.174293,-0.09495401,0.0138264,-47.04987,-20.98026,29.71721
15.218349457,4.582274,-116.5045,-20.71923,1.173222,-0.06386612,0.01477742,-43.29553,-22.42616,35.36466
15.228346825,3.659276,-111.2221,-19.56079,1.170067,-0.05191151,0.0004225543,-43.29553,-22.42616,35.36466
15.238344193,1.628679,-105.5243,-17.97555,1.169089,3.496578e-06,-0.006289173,-43.29553,-22.42616,35.36466
15.24834156,-2.92478,-100.1826,-17.06099,1.151175,0.01944158,-0.02062023,-43.29553,-22.42616,35.36466
15.258338928,-8.40123700000001,-95.4344099999999,-15.90254,1.143703,0.02799264,-0.02587374,-43.29553,-22.42616,35.36466
15.268336296,-12.9547,-90.4488099999999,-14.80507,1.140951,0.01863521,-0.03352375,-40.29281,-23.44756,39.39167
15.278333664,-15.90829,-84.5729300000001,-13.70759,1.137462,-0.003393213,-0.0435621,-40.29281,-23.44756,39.39167
15.288331509,-17.69275,-78.3409299999999,-12.42721,1.12683,-0.0343097,-0.0535857,-40.29281,-23.44756,39.39167
15.298327923,-16.21596,-73.1179199999999,-11.32973,1.12363,-0.07196148,-0.07223489,-40.29281,-23.44756,39.39167
15.308326244,-11.23177,-66.7672200000001,-10.3542,1.11336,-0.0960194,-0.07699655,-40.29281,-23.44756,39.39167
15.318323135,-5.139976,-60.1791,-9.13478800000001,1.098343,-0.1014255,-0.1042478,-37.71223,-25.29253,43.87133
15.328320503,0.02881546,-54.12516,-8.15925599999997,1.075355,-0.09709925,-0.1128232,-37.71223,-25.29253,43.87133
15.338317871,3.228544,-48.30863,-7.12275300000002,1.054062,-0.07908048,-0.1156622,-37.71223,-25.29253,43.87133
15.348315239,4.213075,-42.78886,-6.33013299999999,1.043299,-0.07688534,-0.1180369,-37.71223,-25.29253,43.87133
15.358312607,4.766874,-37.5065,-5.537513,1.026813,-0.05536561,-0.1204066,-37.71223,-25.29253,43.87133
15.368309975,4.951474,-32.58025,-4.561981,1.020353,-0.04869007,-0.120397,-35.46296,-25.64238,45.50255
15.378307343,4.520741,-27.4166,-3.769361,1.010896,-0.03823445,-0.1256476,-35.46296,-25.64238,45.50255
15.38830471,3.043944,-22.49035,-2.488975,1.001706,-0.01611094,-0.1309016,-35.46296,-25.64238,45.50255
15.398302078,-0.7711166,-17.80151,-1.574414,0.9876489,0.006004116,-0.1265756,-35.46296,-25.64238,45.50255
15.408298969,-7.10903899999999,-13.40944,-1.147618,0.97334,0.01543147,-0.1275102,-35.46296,-25.64238,45.50255
15.418296337,-12.9547,-9.49218100000001,-1.208589,0.9674909,-0.01044776,-0.1284505,-34.3222,-26.76139,47.12949
15.428293705,-15.47756,-5.218811,-1.452472,0.9616026,-0.03446735,-0.1384842,-34.3222,-26.76139,47.12949
15.438291073,-15.10836,-1.242202,-1.757326,0.9499421,-0.06248851,-0.1485067,-34.3222,-26.76139,47.12949
15.448288441,-12.64703,2.140883,-2.245092,0.94581,-0.07628617,-0.1604604,-34.3222,-26.76139,47.12949
15.458285809,-8.89350299999999,4.989797,-2.245092,0.9454658,-0.08416454,-0.1709864,-34.3222,-26.76139,47.12949
15.468283177,-6.370641,7.66065299999999,-2.001209,0.9443166,-0.07500699,-0.1767297,-33.95532,-26.37823,47.13023
15.478280544,-5.139976,9.44122399999999,-2.001209,0.94958,-0.07015324,-0.1887045,-33.95532,-26.37823,47.13023
15.488277912,-3.601645,11.10309,-1.940238,0.9564037,-0.07066228,-0.205945,-33.95532,-26.37823,47.13023
15.498274803,-1.571049,12.94301,-1.452472,0.9636434,-0.06720977,-0.2160086,-33.95532,-26.37823,47.13023
15.508272171,0.2749484,14.72359,-1.025677,0.9725561,-0.04920298,-0.2323004,-33.95532,-26.37823,47.13023
15.518269539,0.5826145,15.85128,-0.4769399,0.9754878,-0.02399014,-0.2447549,-34.3205,-26.76466,46.74249
15.528267861,-0.709583300000001,17.21638,0.31568,0.9913368,0.01419572,-0.2481424,-34.3205,-26.76466,46.74249
15.538264752,-3.847778,17.92861,1.596066,0.9923874,0.03607946,-0.2486285,-34.3205,-26.76466,46.74249
15.548262119,-7.78590499999999,18.34408,2.75451,0.9901378,0.0520667,-0.2491072,-34.3205,-26.76466,46.74249
15.558259487,-10.98563,18.16602,4.217809,0.994889,0.05843833,-0.2534244,-33.94548,-26.76239,46.68076
15.568256855,-12.64703,18.10667,5.80304899999998,1.00714,0.05478406,-0.254402,-33.94548,-26.76239,46.68076
15.578254223,-13.44696,18.40343,7.26634699999998,1.008204,0.04991936,-0.257274,-33.94548,-26.76239,46.68076
15.588251591,-14.43149,18.16602,8.72964499999998,1.011285,0.04105783,-0.2764201,-33.94548,-26.76239,46.68076
15.598248959,-14.86223,17.86926,9.88808900000002,1.008074,0.0302291,-0.2845475,-33.94548,-26.76239,46.68076
15.608246327,-14.67763,17.21638,10.92459,1.002092,0.01099251,-0.302718,-34.68989,-26.77783,45.5142
15.618243694,-13.1393,16.86027,12.14401,1.000432,-0.004717628,-0.3165898,-34.68989,-26.77783,45.5142
15.628240585,-11.6625,16.3261,12.69274,0.9835833,-0.01574121,-0.3165576,-34.68989,-26.77783,45.5142
15.638237953,-9.63190200000001,15.43581,13.05857,0.9787654,-0.01880469,-0.3222913,-34.68989,-26.77783,45.5142
15.648235321,-7.90897099999997,14.66423,13.48536,0.9722927,-0.01174872,-0.3337677,-34.68989,-26.77783,45.5142
15.658232689,-7.29363900000002,14.01136,13.72925,0.9649153,-0.007936761,-0.3260986,-35.80706,-26.79988,43.89335
15.668230057,-7.66283799999999,12.94301,13.91216,0.9666803,0.001786238,-0.3294542,-35.80706,-26.79988,43.89335
15.678227425,-8.83197000000002,12.17143,13.60731,0.9626015,0.01144203,-0.3275352,-35.80706,-26.79988,43.89335
15.688224792,-10.24723,11.3405,13.36342,0.9524009,0.00982215,-0.3232099,-35.80706,-26.79988,43.89335
15.69822216,-11.53943,10.27216,12.81469,0.9483479,0.01796799,-0.3270335,-35.80706,-26.79988,43.89335
15.708219528,-12.4009,9.02575799999998,12.63177,0.9448501,0.02285919,-0.3160214,-35.80537,-26.80315,43.50634
15.718216419,-13.57003,7.779358,12.44886,0.9432849,0.02806396,-0.3279845,-35.80537,-26.80315,43.50634
15.728214741,-14.92376,6.05813900000001,11.65624,0.952327,0.01367752,-0.3265608,-35.80537,-26.80315,43.50634
15.738212109,-15.72369,4.693035,11.04653,0.9676079,0.004199179,-0.333285,-35.80537,-26.80315,43.50634
15.748209,-15.72369,3.446635,9.82711900000002,0.9843967,-0.007643981,-0.3361827,-35.80537,-26.80315,43.50634
15.758206367,-14.86223,1.784769,8.42479100000002,1.000726,-0.02094088,-0.3376435,-35.45252,-25.66254,43.11604
15.768203735,-12.7701,0.8351307,7.08343500000003,1.014971,-0.02698546,-0.3386239,-35.45252,-25.66254,43.11604
15.778201103,-10.80103,-0.1738595,5.80304899999998,1.023558,-0.01704873,-0.3333771,-35.45252,-25.66254,43.11604
15.788198471,-9.878035,-1.18285,4.461692,1.033714,-0.01295615,-0.3329173,-35.45252,-25.66254,43.11604
15.798195839,-9.81650199999998,-2.073135,3.242276,1.034039,-0.004158927,-0.3281344,-35.45252,-25.66254,43.11604
15.808193207,-10.1857,-3.378887,2.083832,1.035465,-0.002147509,-0.3238302,-36.54333,-27.19622,42.66431
15.818190575,-10.24723,-4.387877,1.1083,1.035972,-0.003043569,-0.3166522,-36.54333,-27.19622,42.66431
15.828187942,-10.30877,-5.040754,0.4376215,1.036178,0.01209049,-0.3094778,-36.54333,-27.19622,42.66431
15.838184833,-11.23177,-6.16844799999999,-0.05014454,1.031124,0.02168754,-0.3118643,-36.54333,-27.19622,42.66431
15.848182201,-12.83163,-6.761972,-0.3549984,1.022358,0.02156698,-0.3061061,-36.54333,-27.19622,42.66431
15.858179569,-14.55456,-7.53355299999998,-0.659852100000001,1.01563,0.0165878,-0.3046574,-36.55288,-26.81259,43.04928
15.868176937,-15.47756,-7.889668,-0.8427644,1.003203,0.00373412,-0.3017609,-36.55288,-26.81259,43.04928
15.878174305,-15.60063,-8.542543,-0.659852100000001,0.996612,-0.008540256,-0.3012677,-36.55288,-26.81259,43.04928
15.888171673,-14.61609,-8.83930499999998,-0.720822899999998,0.9947193,-0.0114626,-0.2979136,-36.55288,-26.81259,43.04928
15.898169041,-13.8777,-9.373476,-0.4159691,0.9903271,-0.01103712,-0.2950346,-36.55288,-26.81259,43.04928
15.908166409,-13.75463,-9.90764799999999,-0.05014454,0.987663,0.001045629,-0.2964688,-36.16072,-27.57376,42.66911
15.918163776,-14.43149,-10.44182,0.4376215,0.9796528,0.01262454,-0.2883221,-36.16072,-27.57376,42.66911
15.928161621,-16.46209,-11.03534,1.047329,0.9819962,0.01750394,-0.2911988,-36.16072,-27.57376,42.66911
15.938158989,-18.86189,-11.74757,1.535095,0.9826046,0.01128206,-0.2821054,-36.16072,-27.57376,42.66911
15.948156357,-20.09255,-12.10369,2.083832,0.9856901,0.002556592,-0.2864157,-36.16072,-27.57376,42.66911
15.958153725,-20.89248,-12.10369,2.205774,0.9795751,-0.009279459,-0.2921449,-36.52509,-28.32693,43.8959
15.968150616,-21.01555,-12.04433,2.632569,0.9796845,-0.01511298,-0.2926222,-36.52509,-28.32693,43.8959
15.978147984,-21.13862,-11.98498,2.998394,0.977809,-0.01903757,-0.2926179,-36.52509,-28.32693,43.8959
15.988145351,-21.01555,-11.92563,3.120335,0.9793896,-0.02530165,-0.2902261,-36.52509,-28.32693,43.8959
15.998142719,-20.52328,-11.39146,3.48616,0.9736451,-0.03074734,-0.288779,-36.52509,-28.32693,43.8959
16.008140087,-20.09255,-11.15405,3.669072,0.9804542,-0.03016635,-0.2930982,-36.15035,-28.32412,43.89868
16.018137455,-20.03102,-10.85729,4.034896,0.9823659,-0.0281892,-0.2935806,-36.15035,-28.32412,43.89868
16.028134823,-20.52328,-10.56052,4.27878,0.9891299,-0.02516623,-0.2964647,-36.15035,-28.32412,43.89868
16.038132191,-21.26168,-10.02635,4.27878,1.001004,-0.03460659,-0.2916971,-36.15035,-28.32412,43.89868
16.048129559,-21.01555,-9.43282899999999,4.217809,1.002123,-0.04239463,-0.2955257,-36.15035,-28.32412,43.89868
16.05812645,-20.70788,-8.48319099999998,4.095867,1.003215,-0.04874296,-0.3012689,-35.75372,-29.45911,44.29454
16.068123817,-20.33868,-7.17743899999998,3.791013,1.006706,-0.05307378,-0.3041453,-35.75372,-29.45911,44.29454
16.078121185,-19.60028,-6.10909600000003,3.608101,1.010107,-0.05248993,-0.3008013,-35.75372,-29.45911,44.29454
16.088118553,-19.29262,-4.922049,3.48616,1.000843,-0.05218701,-0.3007853,-35.75372,-29.45911,44.29454
16.098115921,-19.23109,-3.675649,3.303247,1.003308,-0.05353473,-0.2940892,-35.75372,-29.45911,44.29454
16.108113766,-18.61575,-2.904068,3.242276,0.9931786,-0.05909338,-0.2955058,-35.74166,-30.21273,45.13711
16.118111134,-17.87736,-1.895078,2.876452,0.9967015,-0.06474103,-0.2830675,-35.74166,-30.21273,45.13711
16.128108501,-16.58516,-0.9454404,2.815481,0.997811,-0.07205648,-0.2883319,-35.74166,-30.21273,45.13711
16.138105869,-15.41603,0.004197581,2.937423,0.9933189,-0.06627007,-0.2835398,-35.74166,-30.21273,45.13711
16.148103237,-13.8777,0.894483100000001,2.937423,0.9874458,-0.06494144,-0.2849656,-36.47711,-30.9758,45.5226
16.158100605,-13.01623,1.784769,3.059364,0.991208,-0.05751218,-0.2777955,-36.47711,-30.9758,45.5226
16.168097973,-12.70856,2.55635,3.242276,0.9889593,-0.04149423,-0.2749242,-36.47711,-30.9758,45.5226
16.178095341,-13.07776,3.209226,3.303247,0.9890952,-0.04881137,-0.2782726,-36.47711,-30.9758,45.5226
16.188092232,-13.01623,4.158864,3.181306,0.9859313,-0.06200746,-0.2796994,-36.47711,-30.9758,45.5226
16.1980896,-11.35483,4.989797,2.937423,0.976441,-0.07591537,-0.2921222,-35.34502,-31.34772,45.53297
16.208086968,-8.70890300000002,5.93943499999998,2.876452,0.9676746,-0.07604031,-0.2868426,-35.34502,-31.34772,45.53297
16.218084335,-6.61677399999998,6.88907200000001,2.815481,0.9621985,-0.06980933,-0.2844418,-35.34502,-31.34772,45.53297
16.228081703,-5.509175,7.423244,2.815481,0.9624119,-0.05522688,-0.2844459,-35.34502,-31.34772,45.53297
16.238079071,-5.570708,8.254177,2.69354,0.9487281,-0.0530412,-0.2815512,-35.34502,-31.34772,45.53297
16.248076439,-6.30910700000001,8.610291,2.632569,0.9340506,-0.04994275,-0.2829621,-36.45969,-31.73978,45.13966
16.258073807,-6.862906,8.66964300000001,2.510627,0.9321935,-0.05483447,-0.282479,-36.45969,-31.73978,45.13966
16.268071175,-6.92443900000002,8.90705299999997,2.022861,0.9375158,-0.05276801,-0.2805745,-36.45969,-31.73978,45.13966
16.278068066,-6.73984000000002,9.02575799999998,1.596066,0.9321234,-0.05086059,-0.2729084,-36.45969,-31.73978,45.13966
16.288066387,-6.80137299999998,8.72899499999998,1.1083,0.9210678,-0.05879267,-0.266187,-36.45969,-31.73978,45.13966
16.298063755,-6.24757399999999,8.37288200000001,0.3766508,0.9079056,-0.05860187,-0.2699928,-36.81673,-32.50712,44.68943
16.308060646,-5.078443,8.076119,-0.2940276,0.8949271,-0.06809118,-0.2699677,-36.81673,-32.50712,44.68943
16.318058014,-3.601645,7.72000599999998,-1.025677,0.891543,-0.06966851,-0.2757043,-36.81673,-32.50712,44.68943
16.328055382,-2.247914,7.423244,-1.208589,0.8766812,-0.05691188,-0.2833389,-36.81673,-32.50712,44.68943
16.33805275,-2.55558,6.82971999999999,-1.574414,0.8715854,-0.04476314,-0.2723258,-36.81673,-32.50712,44.68943
16.348050118,-3.293979,5.642673,-2.245092,0.8725054,-0.04180738,-0.2699354,-37.17773,-33.26683,45.1422
16.358047485,-3.170913,5.049149,-2.91577,0.8697113,-0.04863945,-0.2670573,-37.17773,-33.26683,45.1422
16.368044853,-2.063314,4.218216,-3.830332,0.8835226,-0.05763456,-0.2709076,-37.17773,-33.26683,45.1422
16.378042221,-0.894183000000003,3.387283,-4.744893,0.8991185,-0.05783431,-0.2733276,-37.17773,-33.26683,45.1422
16.388039589,0.2134152,2.55635,-5.598484,0.9166797,-0.05901096,-0.2805366,-37.17773,-33.26683,45.1422
16.39803648,1.44408,1.784769,-6.26916200000001,0.9342252,-0.05913271,-0.2786529,-37.18362,-32.89029,44.68867
16.408033848,2.182479,0.5383689,-6.87886999999998,0.9457686,-0.05116906,-0.2829822,-37.18362,-32.89029,44.68867
16.418031216,2.551678,-0.767383199999997,-7.30566500000003,0.9709881,-0.04485705,-0.2849421,-37.18362,-32.89029,44.68867
16.428028584,2.428612,-1.95443,-7.85440200000002,1.010352,-0.03924624,-0.2878836,-37.18362,-32.89029,44.68867
16.438025951,1.813279,-3.082125,-8.40313799999999,1.04192,-0.03385964,-0.2984687,-37.18362,-32.89029,44.68867
16.448023796,0.3364816,-3.972411,-8.890904,1.072659,-0.03625131,-0.3076147,-37.17773,-33.26683,45.1422
16.458021164,-0.6480501,-5.159458,-9.31770000000002,1.102383,-0.03611051,-0.3033593,-37.17773,-33.26683,45.1422
16.468018532,-1.447982,-5.99039199999999,-9.56158399999997,1.113963,-0.03008991,-0.3076882,-37.17773,-33.26683,45.1422
16.4780159,-1.817181,-6.58391499999997,-9.50061200000003,1.116439,-0.0318751,-0.2957277,-37.17773,-33.26683,45.1422
16.488013268,-2.494047,-7.236791,-9.43964200000003,1.106603,-0.02728019,-0.3033689,-37.17773,-33.26683,45.1422
16.498010635,-2.92478,-7.236791,-9.31770000000002,1.095392,-0.02697189,-0.2985637,-37.16987,-33.64719,45.14423
16.508008003,-3.047846,-7.29614399999999,-9.01284600000001,1.084289,-0.03253661,-0.2985429,-37.16987,-33.64719,45.14423
16.518005371,-2.063314,-6.761972,-8.40313799999999,1.064905,-0.03827371,-0.2994648,-37.16987,-33.64719,45.14423
16.528002262,-0.955716300000001,-6.10909600000003,-7.85440200000002,1.049206,-0.0328096,-0.3056603,-37.16987,-33.64719,45.14423
16.53799963,0.2749484,-5.218811,-7.12275300000002,1.036147,-0.03785683,-0.2979791,-37.16987,-33.64719,45.14423
16.547996998,1.628679,-4.328525,-6.20819099999998,1.016481,-0.02852216,-0.2974686,-36.79681,-33.64111,45.53402
16.557994366,2.490145,-3.378887,-5.29363,1.005072,-0.01743933,-0.2830943,-36.79681,-33.64111,45.53402
16.567991734,3.53621,-2.666659,-4.196156,0.9898818,-0.01282299,-0.2768475,-36.79681,-33.64111,45.53402
16.577989102,4.274609,-1.657669,-3.098683,0.9764394,0.002505415,-0.2720423,-36.79681,-33.64111,45.53402
16.587986469,3.843876,-1.064145,-1.696355,0.965598,0.009182133,-0.2624536,-36.79681,-33.64111,45.53402
16.597983837,3.659276,-0.648678499999998,-0.4159691,0.9594119,0.001293621,-0.2614836,-36.78109,-34.40182,45.53807
16.607981205,3.843876,0.3009594,1.047329,0.9555568,-0.001330684,-0.2743978,-36.78109,-34.40182,45.53807
16.61797905,4.151542,1.30995,2.083832,0.9503542,-0.009681321,-0.2729508,-36.78109,-34.40182,45.53807
16.627976417,4.828408,2.140883,3.120335,0.9479898,-0.01367259,-0.2791671,-36.78109,-34.40182,45.53807
16.637973785,5.505273,2.793759,3.669072,0.9475486,-0.01610224,-0.2782086,-36.78109,-34.40182,45.53807
16.647971153,6.18213799999999,3.56534,4.095867,0.9574339,-0.02376973,-0.2877954,-36.40018,-34.77609,45.92988
16.657968044,6.98206999999997,4.336921,4.583633,0.9536186,-0.02823613,-0.2897019,-36.40018,-34.77609,45.92988
16.667965412,7.65893599999998,5.167854,4.705575,0.9554031,-0.01944515,-0.2887501,-36.40018,-34.77609,45.92988
16.67796278,8.028135,5.76137699999998,4.644604,0.9567211,-0.0115607,-0.2796615,-36.40018,-34.77609,45.92988
16.687960148,7.53587,6.59230999999998,4.400721,0.9580377,-0.003720149,-0.2753586,-36.40018,-34.77609,45.92988
16.697957516,6.428272,6.71101499999999,4.27878,0.9504292,0.01213928,-0.2782209,-36.41759,-34.01211,46.31283
16.707954884,4.828408,7.00777700000002,3.973926,0.9557249,0.01568936,-0.2734452,-36.41759,-34.01211,46.31283
16.717952251,2.797811,7.48259600000002,3.669072,0.9657984,0.02412746,-0.2758579,-36.41759,-34.01211,46.31283
16.727949619,0.951813900000003,7.36389100000001,3.425189,0.9635356,0.01483232,-0.2777658,-36.41759,-34.01211,46.31283
16.737946987,0.02881546,7.304539,3.303247,0.9708886,0.01256982,-0.2753852,-36.79064,-34.01819,45.92304
16.747943878,0.1518819,7.423244,3.059364,0.9715919,0.0008377738,-0.2844764,-36.79064,-34.01819,45.92304
16.757941246,0.5826145,7.423244,2.632569,0.9754887,0.000910375,-0.2849618,-36.79064,-34.01819,45.92304
16.767938614,1.136414,7.54194799999998,2.449656,0.9795137,-0.005800124,-0.2835313,-36.79064,-34.01819,45.92304
16.777936459,1.997879,7.304539,1.778978,0.9848261,-0.003269844,-0.2840198,-36.79064,-34.01819,45.92304
16.787933826,3.043944,7.60130100000003,0.986358399999998,0.994504,0.0003097926,-0.2854733,-37.17156,-33.64392,45.53123
16.797931194,3.720809,7.36389100000001,0.620533899999998,0.9875773,0.006074422,-0.2778055,-37.17156,-33.64392,45.53123
16.807928562,3.16701,7.00777700000002,0.2547093,0.9805644,0.01608801,-0.2835388,-37.17156,-33.64392,45.53123
16.81792593,2.182479,6.41425300000001,-0.1111153,0.9776254,0.01705885,-0.2773124,-37.17156,-33.64392,45.53123
16.827923298,1.44408,5.998787,-0.2940276,0.9757975,0.0107669,-0.2706076,-37.17156,-33.64392,45.53123
16.837920666,1.321013,5.642673,-0.659852100000001,0.9718184,0.01505737,-0.2710803,-37.17942,-33.26356,45.52921
16.847918034,1.321013,5.405263,-0.7817937,0.9722409,0.01844099,-0.2739533,-37.17942,-33.26356,45.52921
16.857915401,0.5826145,4.930444,-0.7817937,0.9647254,0.02950426,-0.2701145,-37.17942,-33.26356,45.52921
16.867912292,-0.7711166,4.277568,-0.598881400000002,0.9602709,0.03337835,-0.2619719,-37.17942,-33.26356,45.52921
16.87790966,-2.063314,3.624692,-0.4159691,0.9579887,0.02501962,-0.2677087,-37.17942,-33.26356,45.52921
16.887907028,-2.432514,3.149873,-0.2330568,0.9645492,0.0129963,-0.2681956,-37.93507,-32.8921,45.13462
16.897904396,-2.186381,2.496997,0.01082622,0.9592885,0.007459286,-0.2777565,-37.93507,-32.8921,45.13462
16.907901764,-2.124848,2.081531,0.1937385,0.9558341,0.00985145,-0.2744011,-37.93507,-32.8921,45.13462
16.917899132,-1.878715,1.30995,0.31568,0.9535022,0.004560909,-0.2633884,-37.93507,-32.8921,45.13462
16.9278965,-1.447982,0.953835399999999,0.31568,0.9486917,0.0009633903,-0.2743864,-37.93507,-32.8921,45.13462
16.937894344,-1.201849,0.1822547,0.31568,0.9458138,-0.001553883,-0.2777307,-38.2395,-33.2748,45.13433
16.947891712,-1.017249,-0.05515479,0.0717969800000001,0.9430197,-0.008385949,-0.2748526,-38.2395,-33.2748,45.13433
16.95788908,-0.955716300000001,-0.886087999999999,-0.1111153,0.9362384,-0.01040667,-0.2686189,-38.2395,-33.2748,45.13433
16.967886448,-1.140316,-1.776374,-0.2940276,0.929836,-0.006553516,-0.2585586,-38.2395,-33.2748,45.13433
16.977883816,-1.509515,-2.42925,-0.2940276,0.915323,-0.01218999,-0.2590104,-38.2395,-33.2748,45.13433
16.987881184,-2.063314,-3.913059,-0.3549984,0.9055554,-0.01086374,-0.2522936,-37.91318,-34.0299,45.5277
16.997878075,-2.001781,-5.040754,-0.3549984,0.8997294,-0.01192002,-0.2489332,-37.91318,-34.0299,45.5277
17.007875443,-2.370981,-6.405858,-0.4769399,0.8929286,-0.01300872,-0.2470067,-37.91318,-34.0299,45.5277
17.01787281,-2.74018,-8.542543,-0.903735200000002,0.8814504,-0.0243332,-0.2383694,-37.91318,-34.0299,45.5277
17.027870178,-1.447982,-10.67923,-1.330531,0.8887064,-0.0475589,-0.2431619,-37.91318,-34.0299,45.5277
17.037867546,1.44408,-12.51915,-2.06218,0.914637,-0.07915821,-0.2475061,-38.30196,-33.27527,45.13387
17.047864914,6.48980500000002,-13.7062,-3.159653,0.9226826,-0.09271966,-0.2599596,-38.30196,-33.27527,45.13387
17.057862282,12.52006,-14.71519,-3.891303,0.9338361,-0.09020119,-0.274337,-38.30196,-33.27527,45.13387
17.06785965,17.56579,-15.66483,-4.440039,0.9441745,-0.07019614,-0.2877603,-38.30196,-33.27527,45.13387
17.077857018,20.45785,-16.49576,-4.805864,0.9617592,-0.0465367,-0.2892328,-38.30196,-33.27527,45.13387
17.087854862,21.62698,-17.50475,-5.171688,0.9758145,-0.01666042,-0.2940508,-37.53844,-34.02709,45.53048
17.09785223,20.64245,-18.09828,-5.232659,0.9925417,0.0006078284,-0.3017415,-37.53844,-34.02709,45.53048
17.107849598,18.11959,-19.04791,-4.988776,1.018663,0.01084713,-0.3013112,-37.53844,-34.02709,45.53048
17.117846489,15.35059,-19.70079,-4.561981,1.056149,0.01246751,-0.311427,-37.53844,-34.02709,45.53048
17.127843857,12.15086,-19.9382,-3.769361,1.078805,0.02552329,-0.3143413,-37.53844,-34.02709,45.53048
17.137841225,7.843536,-19.46338,-3.037712,1.087776,0.04072963,-0.3181895,-37.18898,-32.87994,45.91418
17.147838593,2.182479,-19.40403,-2.245092,1.09594,0.04725641,-0.3129411,-37.18898,-32.87994,45.91418
17.15783596,-3.478579,-19.34468,-1.330531,1.094229,0.03460129,-0.3114991,-37.18898,-32.87994,45.91418
17.167833328,-7.539772,-18.98856,-1.025677,1.076138,0.01186423,-0.3143332,-37.18898,-32.87994,45.91418
17.177830696,-9.508835,-17.86087,-1.025677,1.060355,-0.004006495,-0.3152587,-37.18898,-32.87994,45.91418
17.187828064,-10.43183,-16.79252,-1.025677,1.039692,-0.01948331,-0.3156973,-36.82378,-32.4935,46.30193
17.197825432,-10.3703,-15.78353,-1.452472,1.025758,-0.02995022,-0.3142346,-36.82378,-32.4935,46.30193
17.207822323,-8.89350299999999,-14.35908,-1.757326,1.009757,-0.03414072,-0.3127699,-36.82378,-32.4935,46.30193
17.217819691,-7.10903899999999,-12.63786,-2.245092,0.998427,-0.0275263,-0.3089232,-36.82378,-32.4935,46.30193
17.227817059,-5.201509,-11.03534,-2.732858,0.9876019,-0.02188256,-0.3060343,-36.82378,-32.4935,46.30193
17.23781538,-3.478579,-9.07671499999999,-3.037712,0.9779911,-0.003120718,-0.3060224,-36.07011,-32.86115,47.14803
17.247812271,-2.432514,-7.47420100000002,-3.281595,0.9724855,0.004501707,-0.3108006,-36.07011,-32.86115,47.14803
17.257809639,-2.186381,-5.75298199999998,-2.976741,0.9659355,0.01607876,-0.3060063,-36.07011,-32.86115,47.14803
17.267807007,-2.309447,-4.387877,-2.610917,0.9702362,0.02050211,-0.3098436,-36.07011,-32.86115,47.14803
17.277804375,-2.863246,-2.547954,-2.184121,0.9692624,0.02049603,-0.3084062,-35.69537,-32.85834,47.15081
17.287801743,-3.170913,-1.004793,-1.574414,0.9678367,0.0184934,-0.3117532,-35.69537,-32.85834,47.15081
17.29779911,-3.293979,0.3009594,-0.903735200000002,0.9654105,0.01796829,-0.3107917,-35.69537,-32.85834,47.15081
17.307796478,-3.909311,1.488007,0.0717969800000001,0.9621462,0.01011119,-0.3126983,-35.69537,-32.85834,47.15081
17.317793846,-4.64771,2.55635,0.803446099999999,0.9646998,0.003826852,-0.3146154,-35.69537,-32.85834,47.15081
17.327791214,-4.770776,3.56534,1.1083,0.9638628,-0.003465646,-0.3131763,-34.94588,-32.85271,47.15637
17.337788105,-4.340044,4.752387,1.596066,0.9689779,-0.01655958,-0.3213177,-34.94588,-32.85271,47.15637
17.347785473,-3.970845,5.642673,1.474125,0.965679,-0.02241219,-0.3165247,-34.94588,-32.85271,47.15637
17.357782841,-3.847778,6.71101499999999,1.413154,0.9679773,-0.01508643,-0.3174877,-34.94588,-32.85271,47.15637
17.367780209,-4.155444,7.18583399999999,1.291212,0.9679135,-0.0116861,-0.3174885,-34.94588,-32.85271,47.15637
17.377778053,-4.64771,7.779358,0.986358399999998,0.9718105,-0.01160472,-0.3170167,-34.93633,-33.23634,46.7714
17.387775421,-5.386109,8.13547199999999,1.047329,0.9781257,-0.01047736,-0.313678,-34.93633,-33.23634,46.7714
17.397772789,-6.06297400000002,8.076119,0.681504599999997,0.9790539,-0.008042478,-0.315116,-34.93633,-33.23634,46.7714
17.407770157,-6.30910700000001,8.31352900000002,0.3766508,0.9825643,-0.01330532,-0.313685,-34.93633,-33.23634,46.7714
17.417767525,-6.55523999999999,8.43223400000003,0.3766508,0.9840529,-0.01473812,-0.3141658,-34.93633,-33.23634,46.7714
17.427764893,-6.43217400000002,8.254177,0.2547093,0.984954,-0.01083717,-0.3146469,-35.67259,-33.63267,45.54236
17.437762261,-6.18604100000003,8.01676800000001,0.2547093,0.9845762,-0.01668032,-0.3151233,-35.67259,-33.63267,45.54236
17.447759628,-5.386109,7.66065299999999,0.31568,0.9856497,-0.02203956,-0.3189524,-35.67259,-33.63267,45.54236
17.457756996,-4.46311,7.60130100000003,0.3766508,0.9876151,-0.02301209,-0.3232628,-35.67259,-33.63267,45.54236
17.467753887,-3.417045,7.18583399999999,0.31568,0.9891418,-0.02633527,-0.3180003,-35.67259,-33.63267,45.54236
17.477751255,-1.817181,6.948425,0.01082622,1.002274,-0.02515657,-0.3237664,-35.67625,-33.62558,46.38086
17.487748623,-0.4019172,6.59230999999998,-0.1111153,1.00367,-0.02177565,-0.329034,-35.67625,-33.62558,46.38086
17.497745991,0.767214200000001,6.473606,-0.05014454,1.003129,-0.01884876,-0.326641,-35.67625,-33.62558,46.38086
17.507743359,1.751746,6.29554899999997,-0.1720861,0.99221,-0.008422019,-0.3318889,-35.67625,-33.62558,46.38086
17.517740727,1.997879,6.23619700000001,-0.2940276,0.9844081,-0.008059513,-0.3285254,-35.67625,-33.62558,46.38086
17.527738571,1.690213,6.23619700000001,-0.1720861,0.9779297,-0.000412442,-0.3285161,-36.04733,-33.63548,45.53957
17.537735939,1.690213,6.05813900000001,-0.05014454,0.9700278,0.005302216,-0.3241966,-36.04733,-33.63548,45.53957
17.547733307,1.013347,5.88008199999999,0.1937385,0.9608455,0.001228882,-0.3246581,-36.04733,-33.63548,45.53957
17.557730675,0.705681,5.58332,0.4985923,0.9579219,0.001140416,-0.328003,-36.04733,-33.63548,45.53957
17.567728043,0.644147799999998,5.58332,0.925387699999998,0.9495573,0.005295994,-0.3337325,-36.04733,-33.63548,45.53957
17.577725411,0.0903486900000002,5.523968,1.413154,0.9451224,0.008242454,-0.3208039,-36.42038,-33.64156,45.1498
17.587722302,-0.5249836,5.405263,1.839949,0.9411052,0.01442769,-0.3265414,-36.42038,-33.64156,45.1498
17.597719669,-1.140316,5.108501,2.144803,0.939086,0.01834551,-0.3188817,-36.42038,-33.64156,45.1498
17.607717037,-1.694115,4.930444,2.632569,0.9371389,0.01834652,-0.3145711,-36.42038,-33.64156,45.1498
17.617714405,-2.124848,4.514977,2.571598,0.9460066,0.01315882,-0.3164995,-36.42038,-33.64156,45.1498
17.627711773,-2.309447,3.862102,2.632569,0.9543625,0.00949778,-0.3098131,-35.66134,-34.01956,44.77039
17.637709141,-2.370981,3.56534,2.510627,0.9579549,-0.0001413003,-0.3088597,-35.66134,-34.01956,44.77039
17.647706509,-1.632582,3.209226,2.083832,0.9720624,0.001096146,-0.3103203,-35.66134,-34.01956,44.77039
17.657704353,-1.263382,2.853111,1.718008,0.9750407,-0.001734346,-0.3074534,-35.66134,-34.01956,44.77039
17.667701721,-0.832649800000001,2.200235,1.413154,0.9861166,0.005296439,-0.3065173,-35.66134,-34.01956,44.77039
17.677699089,-0.3403839,1.725416,0.864416900000002,0.9939915,0.001047842,-0.30988,-36.41869,-33.64483,44.76279
17.687696457,0.3980148,0.953835399999999,0.620533899999998,1.003708,0.002763444,-0.3027187,-36.41869,-33.64483,44.76279
17.697693825,0.5826145,0.894483100000001,0.31568,1.006051,0.007625283,-0.3075098,-36.41869,-33.64483,44.76279
17.707691193,0.705681,0.004197581,0.2547093,0.9996392,0.01194225,-0.2998425,-36.41869,-33.64483,44.76279
17.717688084,0.2134152,-0.411269,0.2547093,0.9972039,0.0119073,-0.2984025,-36.41869,-33.64483,44.76279
17.727685451,0.02881546,-0.886087999999999,-0.05014454,0.9953105,0.008963015,-0.2974414,-36.41672,-33.64864,44.31129
17.737682819,-0.4019172,-1.18285,-0.1111153,0.9836913,0.004797671,-0.3026844,-36.41672,-33.64864,44.31129
17.747680187,-0.5249836,-1.420259,-0.2330568,0.9837563,0.001432456,-0.298855,-36.41672,-33.64864,44.31129
17.757677555,-0.03271778,-1.301555,-0.4769399,0.9769188,0.002273635,-0.2983647,-36.41672,-33.64864,44.31129
17.767674923,-0.3403839,-0.767383199999997,-0.4769399,0.973022,0.002201033,-0.2978793,-36.41672,-33.64864,44.31129
17.777672291,-0.4634504,-0.4706214,-0.720822899999998,0.9554664,0.002782206,-0.3026346,-36.43441,-32.88412,44.75874
17.787669659,-0.6480501,0.004197581,-0.720822899999998,0.9530578,0.001259248,-0.3045444,-36.43441,-32.88412,44.75874
17.797667503,-0.586516899999998,0.657073599999999,-0.7817937,0.9588574,0.003803539,-0.3045551,-36.43441,-32.88412,44.75874
17.807664871,-0.5249836,0.894483100000001,-0.720822899999998,0.9599047,-5.891314e-05,-0.3040774,-36.43441,-32.88412,44.75874
17.817662239,-0.4019172,1.30995,-0.3549984,0.964126,0.008819685,-0.2988227,-36.43441,-32.88412,44.75874
17.827659607,-0.7711166,1.725416,-0.3549984,0.9640545,0.01274967,-0.2940378,-36.05769,-32.88512,44.31001
17.837656975,-1.324916,1.903473,-0.1720861,0.9718218,0.01439166,-0.2907017,-36.05769,-32.88512,44.31001
17.847653866,-1.571049,2.378292,0.01082622,0.9773517,0.005215384,-0.2964519,-36.05769,-32.88512,44.31001
17.857651234,-1.263382,2.259588,-0.1720861,0.9745024,0.001284717,-0.2950102,-36.05769,-32.88512,44.31001
17.867648602,-0.832649800000001,2.31894,-0.1720861,0.9813586,-0.0005148165,-0.2940646,-36.43244,-32.88793,44.30724
17.877645969,-0.6480501,2.31894,-0.1111153,0.9856889,0.002517089,-0.2907228,-36.43244,-32.88793,44.30724
17.887643337,-0.7711166,2.259588,-0.2940276,0.9871948,8.64286e-05,-0.2940749,-36.43244,-32.88793,44.30724
17.897640705,-0.709583300000001,2.022178,-0.4769399,0.9924724,0.004608036,-0.2892995,-36.43244,-32.88793,44.30724
17.907638073,-0.7711166,2.140883,-0.4769399,0.9904858,0.006464305,-0.2945608,-36.43244,-32.88793,44.30724
17.917635441,-1.078783,1.903473,-0.4769399,0.9894942,0.007442915,-0.2916879,-36.79762,-33.27437,43.91948
17.927633286,-1.324916,1.666064,-0.659852100000001,0.985139,0.005938519,-0.2873727,-36.79762,-33.27437,43.91948
17.937630653,-1.509515,1.369302,-0.720822899999998,0.9889975,0.007905885,-0.2931229,-36.79762,-33.27437,43.91948
17.947628021,-1.263382,1.488007,-0.720822899999998,0.9926011,-0.002161897,-0.2859479,-36.79762,-33.27437,43.91948
17.957625389,-1.078783,0.775778400000001,-0.659852100000001,0.9950715,-0.004105107,-0.2912161,-36.79762,-33.27437,43.91948
17.96762228,-0.4019172,0.716426,-0.7817937,0.9891715,-0.001306024,-0.2912065,-36.79762,-33.27437,43.91948
17.977619648,-0.03271778,0.657073599999999,-0.5379106,0.9882175,-0.002235345,-0.2845046,-36.79762,-33.27437,43.91948
17.987617016,0.0903486900000002,0.5383689,-0.659852100000001,0.9866374,0.004046292,-0.284982,-36.79762,-33.27437,43.91948
17.997614384,-0.2173175,0.3009594,-0.5379106,0.9891827,-0.001725948,-0.2840278,-36.79762,-33.27437,43.91948
18.007611752,-0.2788507,0.06354995,-0.4159691,0.9960664,-0.004982765,-0.2830818,-36.79762,-33.27437,43.91948
18.017609119,-0.4019172,0.4196641,-0.4159691,0.996524,-0.003581693,-0.2902616,-36.79146,-33.65146,44.30851
18.027606487,-0.4634504,0.4790165,-0.4769399,0.9935401,-0.0001557129,-0.2811643,-36.79146,-33.65146,44.30851
18.037603855,-0.586516899999998,0.3603118,-0.3549984,0.990137,-0.0007878472,-0.2897726,-36.79146,-33.65146,44.30851
18.047601223,-0.586516899999998,0.5383689,-0.5379106,1.000999,-0.008361469,-0.2912253,-36.79146,-33.65146,44.30851
18.057598114,-0.2173175,1.013188,-0.4159691,0.9991495,-0.01378723,-0.2960065,-36.79146,-33.65146,44.30851
18.067596436,0.2749484,1.844121,-0.720822899999998,0.9947756,-0.01432888,-0.2926487,-36.79762,-33.27437,43.91948
18.077593803,0.705681,2.378292,-0.659852100000001,0.9908971,-0.01537301,-0.292163,-36.79762,-33.27437,43.91948
18.087591171,1.013347,2.615702,-0.5379106,0.9918,-0.011415,-0.2864227,-36.79762,-33.27437,43.91948
18.097588062,1.197947,2.675054,-0.5379106,0.9870595,-0.01822411,-0.2768412,-36.79762,-33.27437,43.91948
18.10758543,3.228544,2.853111,-0.2330568,0.9920677,-0.02540552,-0.2758909,-36.79762,-33.27437,43.91948
18.117582798,4.951474,3.149873,-0.3549984,0.9900196,-0.02007869,-0.2734958,-37.17435,-33.27337,44.3682
18.127580166,6.305205,3.387283,-0.2330568,0.9913357,-0.01225569,-0.2711073,-37.17435,-33.27337,44.3682
18.137577534,7.47433699999998,3.090521,-0.05014454,0.9864464,-0.01137602,-0.2706204,-37.17435,-33.27337,44.3682
18.147574902,8.21273500000003,3.149873,-0.1111153,0.9904349,-0.01614786,-0.269669,-37.17435,-33.27337,44.3682
18.157572269,9.75106599999998,3.387283,-0.1111153,0.9929686,-0.02151334,-0.2773292,-37.17435,-33.27337,44.3682
18.167569637,11.53553,3.862102,-0.4159691,0.9944617,-0.02357236,-0.2931243,-36.42655,-33.26447,44.76077
18.177567005,12.82773,4.57433,-0.5379106,1.00017,-0.01618801,-0.2950505,-36.42655,-33.26447,44.76077
18.18756485,12.52006,4.989797,-0.659852100000001,0.9926338,-0.004223451,-0.298869,-36.42655,-33.26447,44.76077
18.197562218,11.04326,4.752387,-0.8427644,0.9885659,0.005003639,-0.2907285,-36.42655,-33.26447,44.76077
18.207559586,9.50493299999999,4.811739,-0.7817937,0.9831353,0.008801424,-0.2888057,-36.42655,-33.26447,44.76077
18.217556477,8.33580199999998,5.167854,-0.720822899999998,0.9733397,0.01156302,-0.2844822,-36.79174,-33.65091,44.37301
18.227553845,6.73593800000001,5.523968,-0.5379106,0.9690269,0.007533255,-0.2906951,-36.79174,-33.65091,44.37301
18.237551212,4.705341,5.702025,-0.4769399,0.9644972,0.0152276,-0.289732,-36.79174,-33.65091,44.37301
18.24754858,2.920877,6.05813900000001,-0.4159691,0.9465559,0.0104865,-0.2911353,-36.79174,-33.65091,44.37301
18.257545948,1.690213,6.23619700000001,-0.2940276,0.938878,0.003929838,-0.3006917,-36.79174,-33.65091,44.37301
18.267543316,1.07488,6.117492,-0.2940276,0.936036,-0.0005436465,-0.3054714,-36.05967,-32.88131,44.76152
18.277540684,1.07488,6.17684400000002,-0.4159691,0.9288026,-0.004569705,-0.3049791,-36.05967,-32.88131,44.76152
18.287538052,1.321013,6.23619700000001,-0.4159691,0.9269013,-0.006988727,-0.2997109,-36.05967,-32.88131,44.76152
18.29753542,2.182479,6.17684400000002,-0.659852100000001,0.9265521,-0.01424966,-0.2958798,-36.05967,-32.88131,44.76152
18.307532311,2.551678,5.93943499999998,-0.7817937,0.929779,-0.004480232,-0.2973237,-36.05967,-32.88131,44.76152
18.317530632,2.551678,5.286559,-0.7817937,0.9297822,-0.00437928,-0.2863164,-37.1839,-32.88974,44.75317
18.327528,2.305545,4.930444,-0.598881400000002,0.9419498,-0.003683648,-0.2896879,-37.1839,-32.88974,44.75317
18.337525368,2.367078,3.862102,-0.598881400000002,0.9482273,-0.0006483619,-0.2901781,-37.1839,-32.88974,44.75317
18.347522259,1.936346,3.209226,-0.3549984,0.9613159,0.003029367,-0.2882876,-37.1839,-32.88974,44.75317
18.357519627,1.25948,1.962826,-0.1720861,0.9642389,0.003095889,-0.2873356,-37.1839,-32.88974,44.75317
18.367516995,0.5826145,0.716426,-0.2330568,0.9769936,-0.001555397,-0.2921424,-36.83274,-31.74586,44.74987
18.377514362,0.2134152,-0.1738595,0.1327677,0.9872124,-0.0009070395,-0.2964675,-36.83274,-31.74586,44.74987
18.38751173,0.4595481,-1.598316,0.3766508,1.000384,-0.001574825,-0.2917046,-36.83274,-31.74586,44.74987
18.397509098,0.951813900000003,-2.547954,0.7424754,1.01007,0.001501493,-0.2950723,-36.83274,-31.74586,44.74987
18.407506466,1.197947,-3.43824,0.7424754,1.009428,0.009727868,-0.2974662,-36.83274,-31.74586,44.74987
18.417503834,1.567146,-4.328525,0.986358399999998,1.009899,0.01078802,-0.2888529,-37.56481,-32.51547,44.36137
18.427501202,1.505613,-5.040754,1.352183,1.011285,0.01463276,-0.2965135,-37.56481,-32.51547,44.36137
18.437499046,1.567146,-5.75298199999998,1.535095,1.000157,0.01059115,-0.2893144,-37.56481,-32.51547,44.36137
18.447496414,1.567146,-6.22780099999998,1.839949,0.9860085,0.01116947,-0.3017329,-37.56481,-32.51547,44.36137
18.457493782,1.25948,-6.46521000000002,1.839949,0.9709755,0.00757614,-0.2902199,-37.5665,-32.5122,44.74837
18.46749115,0.8287475,-6.16844799999999,2.083832,0.9554139,0.005767001,-0.2949781,-37.5665,-32.5122,44.74837
18.477488041,0.4595481,-5.99039199999999,2.205774,0.9378223,0.008304389,-0.2982981,-37.5665,-32.5122,44.74837
18.487485409,-0.3403839,-5.75298199999998,2.388686,0.9211814,0.01243682,-0.2886986,-37.5665,-32.5122,44.74837
18.497482777,-1.324916,-5.75298199999998,2.388686,0.9285063,0.01160965,-0.2887112,-37.5665,-32.5122,44.74837
18.507480145,-2.063314,-5.99039199999999,2.083832,0.9320192,0.006425815,-0.2786659,-36.83274,-31.74586,44.74987
18.517477512,-2.678647,-6.16844799999999,1.90092,0.9446377,0.009078505,-0.28156,-36.83274,-31.74586,44.74987
18.52747488,-2.617113,-6.16844799999999,1.291212,0.9497099,-0.001498839,-0.2801304,-36.83274,-31.74586,44.74987
18.537472248,-2.370981,-6.10909600000003,0.4985923,0.9643527,-0.002597181,-0.2724984,-36.83274,-31.74586,44.74987
18.547469616,-1.817181,-6.10909600000003,-0.2330568,0.9737599,-0.01076444,-0.2825629,-36.83274,-31.74586,44.74987
18.557466984,-1.263382,-6.16844799999999,-0.964705900000002,0.9855048,-0.01346121,-0.2840184,-36.83274,-31.74586,44.74987
18.567464829,-0.5249836,-6.10909600000003,-1.757326,0.9952471,-0.01326435,-0.2835568,-36.83274,-31.74586,44.74987
18.577462196,0.2134152,-6.58391499999997,-2.610917,1.002993,-0.01076056,-0.2921853,-36.83274,-31.74586,44.74987
18.587459564,0.767214200000001,-6.52456300000001,-3.281595,1.0078,-0.007250823,-0.2907589,-36.83274,-31.74586,44.74987
18.597456455,0.705681,-6.88067700000001,-4.074214,1.018545,-0.008465661,-0.2874273,-36.83274,-31.74586,44.74987
18.607453823,1.013347,-6.99938200000001,-4.622952,1.02281,-0.002072928,-0.2883935,-37.19345,-32.50612,45.13815
18.617451191,1.013347,-6.88067700000001,-5.110718,1.018924,-0.002596176,-0.2840794,-37.19345,-32.50612,45.13815
18.627448559,1.321013,-6.99938200000001,-5.415571,1.015901,0.002685065,-0.2845541,-37.19345,-32.50612,45.13815
18.637445927,1.321013,-6.70261999999998,-5.90333699999997,1.00522,0.0005083501,-0.2869278,-37.19345,-32.50612,45.13815
18.647443294,1.25948,-6.70261999999998,-6.20819099999998,0.9998609,0.0003717642,-0.2902684,-37.19345,-32.50612,45.13815
18.657440662,1.874812,-6.46521000000002,-6.45207400000002,0.9916793,-0.005165941,-0.2936028,-36.44228,-32.50376,44.75671
18.66743803,2.674744,-5.81233500000002,-6.57401600000003,0.9892801,-0.007161496,-0.2940767,-36.44228,-32.50376,44.75671
18.677435875,3.659276,-5.278163,-6.63498599999997,0.9819099,-0.003896743,-0.2931075,-36.44228,-32.50376,44.75671
18.687433243,4.090009,-4.565935,-6.63498599999997,0.9740432,-0.0001646338,-0.2930948,-36.44228,-32.50376,44.75671
18.697430611,4.028476,-4.269173,-6.45207400000002,0.9739432,0.00518752,-0.2921388,-36.44228,-32.50376,44.75671
18.707427978,3.659276,-3.43824,-6.20819099999998,0.9680337,0.008463586,-0.2930865,-36.07092,-32.49441,45.53349
18.717425346,3.043944,-2.844716,-5.90333699999997,0.9651759,0.005036236,-0.2897306,-36.07092,-32.49441,45.53349
18.727422237,2.859344,-1.95443,-5.598484,0.9642283,0.003537759,-0.2921214,-36.07092,-32.49441,45.53349
18.737419605,2.120945,-1.479612,-5.29363,0.9599447,-0.00189223,-0.2921126,-36.07092,-32.49441,45.53349
18.747416973,1.628679,-0.886087999999999,-4.927805,0.9663694,-0.006594009,-0.2887725,-36.07092,-32.49441,45.53349
18.757414341,1.874812,-0.3519166,-4.622952,0.9732526,-0.009863995,-0.2892622,-36.05519,-33.25512,45.53755
18.767411709,2.490145,0.3603118,-4.622952,0.9826981,-0.01991724,-0.2931047,-36.05519,-33.25512,45.53755
18.777409077,3.413143,1.07254,-4.379068,0.9870374,-0.01737549,-0.2902415,-36.05519,-33.25512,45.53755
18.787406445,4.459208,1.725416,-4.440039,0.9908879,-0.01489163,-0.2926418,-36.05519,-33.25512,45.53755
18.797404289,5.25914,2.378292,-4.135185,0.9907886,-0.009513148,-0.2888143,-36.05519,-33.25512,45.53755
18.807401657,5.25914,2.912464,-4.074214,0.9986101,-0.01080767,-0.2878705,-36.07092,-32.49441,45.53349
18.817399025,5.382206,3.446635,-3.952273,1.001985,-0.008753368,-0.2830912,-36.07092,-32.49441,45.53349
18.827396393,5.689873,4.396273,-3.70839,1.006325,-0.006180888,-0.2768779,-36.07092,-32.49441,45.53349
18.837393761,5.751406,5.464615,-3.220624,1.011813,-0.01281423,-0.2701857,-36.07092,-32.49441,45.53349
18.847390652,6.55133799999999,6.65166300000002,-2.793829,1.016199,-0.01264862,-0.261579,-36.07092,-32.49441,45.53349
18.85738802,7.22820399999999,8.254177,-2.184121,1.019487,-0.005600638,-0.2419649,-35.31358,-32.86914,45.54108
18.867385387,7.04360400000002,10.15345,-1.208589,1.032505,0.002046578,-0.2309823,-35.31358,-32.86914,45.54108
18.877382755,5.689873,12.46819,-0.3549984,1.045818,-0.005758398,-0.2099462,-35.31358,-32.86914,45.54108
18.887380123,4.766874,15.79193,0.31568,1.047456,-0.0148756,-0.2008538,-35.31358,-32.86914,45.54108
18.897377491,4.766874,19.29372,1.291212,1.034895,-0.02035507,-0.1883875,-35.31358,-32.86914,45.54108
18.907374859,4.397675,23.09227,2.388686,1.031964,-0.01912089,-0.1534466,-36.06136,-32.87804,45.14852
18.917372704,4.028476,27.36564,3.303247,1.037447,-0.02514557,-0.1333545,-36.06136,-32.87804,45.14852
18.927370071,4.090009,32.17318,4.217809,1.046087,-0.04383449,-0.1233146,-36.06136,-32.87804,45.14852
18.937367439,6.18213799999999,37.45554,5.010429,1.063653,-0.04483558,-0.1113806,-36.06136,-32.87804,45.14852
18.947364807,8.33580199999998,43.15337,5.559165,1.086935,-0.03899954,-0.1080726,-36.06136,-32.87804,45.14852
18.957362175,9.32033300000002,48.79184,5.98596099999998,1.102808,-0.02727243,-0.08226019,-36.44228,-32.50376,44.75671
18.967359543,8.76653499999999,54.72708,7.08343500000003,1.120271,-0.02224688,-0.04879161,-36.44228,-32.50376,44.75671
18.977356434,7.843536,61.3151899999999,8.48576300000002,1.13853,-0.03377587,-0.02058448,-36.44228,-32.50376,44.75671
18.987353802,8.08966899999999,68.4374800000001,9.70517700000002,1.158172,-0.06723266,-0.001945644,-36.44228,-32.50376,44.75671
18.99735117,10.24333,75.9158700000001,10.98556,1.175555,-0.08420766,0.01717147,-36.44228,-32.50376,44.75671
19.007348537,13.93533,83.5723299999999,12.38789,1.180442,-0.08438651,0.04013464,-37.20213,-31.75903,43.52158
19.017345905,16.58125,91.7036100000002,13.66828,1.186443,-0.06609072,0.0616554,-37.20213,-31.75903,43.52158
19.027343273,17.31965,99.7755300000001,14.76575,1.190568,-0.05171951,0.08318044,-37.20213,-31.75903,43.52158
19.037341118,16.64279,107.4913,15.86322,1.191347,-0.04084234,0.1018407,-37.20213,-31.75903,43.52158
19.047338486,15.04292,115.2665,17.32652,1.203521,-0.03995797,0.119048,-38.70441,-31.03354,40.66839
19.057335854,13.25846,123.1604,18.78982,1.197614,-0.03660729,0.1262361,-38.70441,-31.03354,40.66839
19.067333221,10.79713,130.2827,20.07021,1.196786,-0.04439433,0.1267181,-38.70441,-31.03354,40.66839
19.077330589,9.19726699999998,137.3456,21.89933,1.200424,-0.05645783,0.1281506,-38.70441,-31.03354,40.66839
19.087327957,8.45886800000002,144.5272,23.4236,1.205472,-0.0654901,0.1391514,-38.70441,-31.03354,40.66839
19.097325325,8.33580199999998,151.5901,24.94787,1.207953,-0.06787079,0.1391477,-41.6836,-28.04977,36.24437
19.107322216,7.843536,157.9409,26.28922,1.205919,-0.06287611,0.158293,-41.6836,-28.04977,36.24437
19.117319584,6.24367199999998,164.1135,27.63058,1.216066,-0.05752671,0.1898599,-41.6836,-28.04977,36.24437
19.127316952,4.336142,170.2268,29.09388,1.221321,-0.05140737,0.2099494,-41.6836,-28.04977,36.24437
19.137314796,2.551678,176.2807,30.25232,1.22167,-0.04335782,0.2391399,-41.6836,-28.04977,36.24437
19.147312164,0.2749484,182.9875,30.49621,1.22651,-0.0411737,0.2549239,-45.42838,-26.9875,30.21195
19.157309532,-2.801713,188.6854,30.98397,1.233171,-0.05851404,0.2573096,-45.42838,-26.9875,30.21195
19.1673069,-4.032378,194.0271,31.22786,1.235568,-0.08224273,0.2611401,-45.42838,-26.9875,30.21195
19.177304268,-3.047846,199.1314,31.59368,1.238249,-0.09531896,0.2601817,-45.42838,-26.9875,30.21195
19.187301636,-1.447982,202.6332,31.89853,1.246563,-0.09643267,0.2797891,-45.42838,-26.9875,30.21195
19.197299004,-0.0942510000000003,205.6602,32.63018,1.254699,-0.08770828,0.3127944,-48.7877,-25.94311,21.7313
19.207296372,0.1518819,207.6781,33.11795,1.260087,-0.06255124,0.3419717,-48.7877,-25.94311,21.7313
19.217293739,-0.6480501,208.5091,33.30086,1.274884,-0.07117596,0.3764056,-48.7877,-25.94311,21.7313
19.22729063,-1.817181,209.1619,32.50824,1.261871,-0.07790289,0.4128018,-48.7877,-25.94311,21.7313
19.237287998,-1.755648,210.0522,31.59368,1.259888,-0.1015602,0.4338687,-48.7877,-25.94311,21.7313
19.247285366,-0.586516899999998,211.1799,29.8865,1.231608,-0.09991195,0.4626321,-50.6554,-24.20378,11.64554
19.257283688,1.690213,211.4173,28.91097,1.231711,-0.1315795,0.4535471,-50.6554,-24.20378,11.64554
19.267280579,3.905409,210.8832,27.63058,1.174526,-0.1217817,0.4794874,-50.6554,-24.20378,11.64554
19.277277947,4.951474,209.5774,26.28922,1.145033,-0.1075844,0.5015496,-50.6554,-24.20378,11.64554
19.287275314,5.320673,208.7465,24.52107,1.11664,-0.1001948,0.5207402,-50.6554,-24.20378,11.64554
19.297272682,4.213075,207.2033,23.17971,1.07978,-0.109013,0.5394713,-51.77718,-22.39107,2.081017
19.30727005,5.136074,205.0666,22.50904,1.049415,-0.12652,0.550536,-51.77718,-22.39107,2.081017
19.317267418,8.52040099999998,203.2267,21.65545,1.026307,-0.1415811,0.5477087,-51.77718,-22.39107,2.081017
19.327264786,11.90473,201.09,20.19215,0.9977558,-0.1260345,0.5558903,-51.77718,-22.39107,2.081017
19.337262154,13.25846,196.1638,19.70438,0.9475667,-0.09959846,0.5794212,-51.77718,-22.39107,2.081017
19.347259522,11.8432,190.8814,18.85079,0.9146386,-0.0582826,0.5986109,-50.64995,-20.56258,-7.595827
19.357257366,7.96660199999998,186.1926,18.11914,0.878581,-0.058588,0.5900596,-50.64995,-20.56258,-7.595827
19.367254734,4.274609,182.9282,17.50943,0.8506913,-0.05223494,0.6011137,-50.64995,-20.56258,-7.595827
19.377252102,0.4595481,180.7322,17.14361,0.8288155,-0.05514511,0.5958883,-50.64995,-20.56258,-7.595827
19.387248993,-4.093911,178.7142,15.86322,0.7885747,-0.09186473,0.5997965,-50.64995,-20.56258,-7.595827
19.397246361,-6.001441,174.8563,16.35099,0.7295208,-0.08656509,0.6161697,-48.03696,-18.33212,-16.03807
19.407243729,-7.724371,171.5919,16.83875,0.6693088,-0.04674355,0.5841998,-48.03696,-18.33212,-16.03807
19.417241097,-13.8777,169.6333,16.83875,0.6163154,-0.02668889,0.6067801,-48.03696,-18.33212,-16.03807
19.427238464,-22.30775,165.1818,18.24108,0.5667952,-0.03639667,0.6087832,-48.03696,-18.33212,-16.03807
19.437235832,-28.03034,158.297,18.91176,0.5208174,-0.05268412,0.627532,-48.03696,-18.33212,-16.03807
19.4472332,-32.27613,150.4624,19.64341,0.4904748,-0.1495,0.6276098,-44.27536,-17.60104,-22.85135
19.457230568,-27.04581,143.0434,20.19215,0.4599069,-0.1827936,0.6133144,-44.27536,-17.60104,-22.85135
19.467227936,-22.36928,138.1765,19.88729,0.4270868,-0.1994123,0.6205546,-44.27536,-17.60104,-22.85135
19.477225781,-18.92342,131.8258,20.86283,0.3829091,-0.1559022,0.6383277,-44.27536,-17.60104,-22.85135
19.487223148,-20.40022,125.5938,20.9238,0.3521839,-0.1281798,0.6541671,-44.27536,-17.60104,-22.85135
19.497220516,-23.78455,118.7683,22.08224,0.3211959,-0.1135008,0.6259813,-39.84164,-16.47082,-28.04906
19.507217884,-27.66114,111.7647,22.93583,0.2799122,-0.09493137,0.6203057,-39.84164,-16.47082,-28.04906
19.517214775,-33.3222,103.2773,23.78942,0.2246536,-0.136308,0.625677,-39.84164,-16.47082,-28.04906
19.527212143,-35.84506,93.12806,23.97233,0.1879545,-0.1804003,0.6128308,-39.84164,-16.47082,-28.04906
19.537209511,-33.01453,82.9788100000002,22.9968,0.1533293,-0.231325,0.5923254,-39.84164,-16.47082,-28.04906
19.547206879,-24.27681,74.2540099999997,20.86283,0.1346929,-0.2512624,0.5780058,-36.4672,-15.71857,-32.02711
19.557204247,-15.66216,67.25043,18.424,0.1219617,-0.2225461,0.5574418,-36.4672,-15.71857,-32.02711
19.567201615,-10.80103,60.6623200000002,16.71681,0.08732748,-0.1688663,0.5507883,-36.4672,-15.71857,-32.02711
19.577199459,-10.12417,53.71809,15.4974,0.04937116,-0.1458665,0.5441485,-36.4672,-15.71857,-32.02711
19.587196827,-11.04717,47.90156,14.39993,0.04393821,-0.1164981,0.5259645,-36.4672,-15.71857,-32.02711
19.597194195,-16.27749,42.5005,13.05857,0.05536117,-0.1535627,0.5398328,-32.75652,-13.42847,-34.39798
19.607191563,-15.60063,36.26849,12.44886,0.08057383,-0.173111,0.5263938,-32.75652,-13.42847,-34.39798
19.617188931,-13.63156,29.79909,11.59527,0.0499002,-0.1748161,0.512569,-32.75652,-13.42847,-34.39798
19.627186298,-12.15476,22.20198,10.4978,0.008445079,-0.172601,0.5255622,-32.75652,-13.42847,-34.39798
19.637183666,-10.24723,13.71459,8.668674,-0.01073001,-0.1895326,0.52225,-30.90103,-12.28369,-35.61567
19.647180557,-6.12450699999998,5.58332,6.35178600000003,-0.01569897,-0.2106228,0.5117354,-30.90103,-12.28369,-35.61567
19.657177925,-0.0942510000000003,-2.547954,3.791013,-0.01210248,-0.1944937,0.5141179,-30.90103,-12.28369,-35.61567
19.667175293,4.889941,-10.26376,1.230241,0.01438386,-0.178044,0.5021031,-30.90103,-12.28369,-35.61567
19.677172661,7.78200200000001,-16.79252,-1.147618,0.03456844,-0.1366594,0.5202431,-30.90103,-12.28369,-35.61567
19.687170505,7.47433699999998,-24.68639,-3.281595,0.03368368,-0.1151771,0.5331607,-30.15771,-11.90098,-35.99914
19.697167873,6.67440499999999,-32.34284,-5.3546,0.05250566,-0.1312746,0.5388749,-30.15771,-11.90098,-35.99914
19.707165241,7.47433699999998,-39.9993,-7.244694,0.08192606,-0.1664688,0.5589329,-30.15771,-11.90098,-35.99914
19.717162609,11.35093,-47.35899,-9.19575899999999,0.1045847,-0.1789748,0.5770825,-30.15771,-11.90098,-35.99914
19.727159977,15.71979,-54.00646,-11.14682,0.1162002,-0.1741526,0.6009898,-30.15771,-11.90098,-35.99914
19.737157345,19.10412,-61.0100399999999,-13.03692,0.1290032,-0.154733,0.6244128,-31.2679,-12.66686,-35.61642
19.747154713,21.50391,-68.2510300000003,-15.23186,0.1325675,-0.1365248,0.6416305,-31.2679,-12.66686,-35.61642
19.75715208,22.11925,-75.3139600000001,-16.93905,0.145361,-0.1166282,0.6640962,-31.2679,-12.66686,-35.61642
19.767148972,21.44238,-82.3175399999998,-18.34137,0.1694607,-0.1017834,0.6942007,-31.2679,-12.66686,-35.61642
19.777146339,20.15018,-88.9056500000002,-20.10953,0.2043367,-0.115891,0.7233366,-31.2679,-12.66686,-35.61642
19.787144661,20.51938,-94.4847699999998,-21.93865,0.2489704,-0.1565062,0.7553339,-32.77562,-12.66122,-33.62804
19.797142029,24.94977,-99.8858399999998,-23.76777,0.3103916,-0.1833677,0.7671981,-32.77562,-12.66122,-33.62804
19.80713892,30.61083,-105.2869,-25.04816,0.3349581,-0.1932485,0.8025725,-32.77562,-12.66122,-33.62804
19.817136288,36.76415,-111.697,-25.71884,0.3418719,-0.1722295,0.8011193,-32.77562,-12.66122,-33.62804
19.827133656,40.33308,-118.1664,-26.26757,0.3693455,-0.1297115,0.8211607,-32.77562,-12.66122,-33.62804
19.837131023,39.96388,-124.4577,-25.96272,0.391151,-0.09718665,0.8235071,-35.38148,-14.17509,-30.41437
19.847128391,37.87175,-129.9775,-25.90175,0.4297941,-0.07883716,0.8334851,-35.38148,-14.17509,-30.41437
19.857125759,34.79509,-134.3696,-25.10913,0.4690895,-0.06996208,0.815707,-35.38148,-14.17509,-30.41437
19.867123127,30.24163,-138.5242,-24.49942,0.5098503,-0.0865761,0.8237761,-35.38148,-14.17509,-30.41437
19.877120495,28.3341,-141.6699,-23.21903,0.5494771,-0.09509626,0.816052,-35.38148,-14.17509,-30.41437
19.887117863,26.48811,-143.3318,-22.73127,0.5914874,-0.1269866,0.7982796,-39.49335,-15.68659,-25.59932
19.897115707,27.34957,-143.7472,-21.99962,0.635528,-0.08551677,0.7742634,-39.49335,-15.68659,-25.59932
19.907113075,23.96524,-144.2814,-21.57282,0.6507119,-0.03748485,0.7861889,-39.49335,-15.68659,-25.59932
19.917110443,15.53519,-147.6051,-19.98759,0.6515272,-0.0285551,0.8043711,-39.49335,-15.68659,-25.59932
19.927107811,7.78200200000001,-152.294,-18.46332,0.6823858,-0.03802833,0.7645979,-39.49335,-15.68659,-25.59932
19.937104702,3.782343,-153.5997,-18.2804,0.7364537,-0.06418256,0.7104313,-42.79668,-17.18546,-20.00425
19.94710207,0.02881546,-152.4127,-18.52429,0.764852,-0.09780847,0.691726,-42.79668,-17.18546,-20.00425
19.957099438,-0.955716300000001,-152.8281,-18.21943,0.7730551,-0.093908,0.6754391,-42.79668,-17.18546,-20.00425
19.967096806,-4.093911,-154.1339,-18.34137,0.8021934,-0.08914746,0.6548083,-42.79668,-17.18546,-20.00425
19.977094173,-8.15510499999999,-158.2886,-18.40234,0.8100171,-0.1167837,0.6447517,-42.79668,-17.18546,-20.00425
19.987091541,-11.17023,-164.4612,-18.21943,0.8448868,-0.1575051,0.6332155,-46.54703,-18.30344,-13.96294
19.997089386,-8.093571,-169.3875,-19.01205,0.8876767,-0.1792674,0.6053892,-46.54703,-18.30344,-13.96294
20.007086754,-2.678647,-170.7526,-21.26797,0.9304898,-0.1762067,0.5818635,-46.54703,-18.30344,-13.96294
20.017084122,2.859344,-170.159,-22.97515,0.9472491,-0.1610176,0.5593373,-46.54703,-18.30344,-13.96294
20.02708149,6.428272,-169.7436,-23.52389,0.9455526,-0.12271,0.5540661,-46.54703,-18.30344,-13.96294
20.037078857,7.04360400000002,-170.8119,-24.07262,0.9487966,-0.08830196,0.5368229,-48.77007,-20.9256,-7.192896
20.047076225,6.05907200000001,-170.4558,-23.46292,0.9571924,-0.04328127,0.4999462,-48.77007,-20.9256,-7.192896
20.057073116,2.551678,-169.2094,-23.15806,0.9655036,-0.01960859,0.4669039,-48.77007,-20.9256,-7.192896
20.067070484,-2.678647,-169.15,-22.42641,0.9697476,-0.01233212,0.456366,-48.77007,-20.9256,-7.192896
20.077067852,-7.724371,-170.0997,-21.75574,0.9964669,-0.008643884,0.4299968,-48.77007,-20.9256,-7.192896
20.08706522,-12.4009,-171.3461,-22.06059,1.043469,-0.02104623,0.4069464,-50.66502,-21.629,1.246799
20.097063065,-16.09289,-173.0079,-23.21903,1.084009,-0.05247095,0.3901336,-50.66502,-21.629,1.246799
20.107060432,-16.70822,-175.4414,-24.37748,1.128141,-0.09355669,0.3718814,-50.66502,-21.629,1.246799
20.1170578,-12.89316,-176.0349,-25.71884,1.16905,-0.1186613,0.3545878,-50.66502,-21.629,1.246799
20.127055168,-6.18604100000003,-174.7885,-27.18213,1.172997,-0.1216437,0.3387887,-50.66502,-21.629,1.246799
20.137052536,0.5210813,-173.1267,-28.09669,1.159438,-0.1006837,0.3220567,-51.0809,-21.18717,8.853026
20.147049904,5.136074,-172.2364,-28.64543,1.147541,-0.06477138,0.2895251,-51.0809,-21.18717,8.853026
20.157047272,6.428272,-172.5925,-29.01126,1.147092,-0.0417928,0.2526696,-51.0809,-21.18717,8.853026
20.16704464,4.828408,-173.2454,-29.49902,1.155284,-0.03746364,0.2301611,-51.0809,-21.18717,8.853026
20.177042007,3.53621,-174.0763,-29.86485,1.178435,-0.0513398,0.2038026,-51.0809,-21.18717,8.853026
20.187038899,3.105477,-174.5511,-30.53553,1.191856,-0.0658108,0.1865543,-50.66383,-24.85697,16.87379
20.19703722,4.520741,-173.9576,-31.02329,1.202428,-0.05854968,0.1606908,-50.66383,-24.85697,16.87379
20.207034588,6.67440499999999,-173.1267,-30.90135,1.204251,-0.05240258,0.138193,-50.66383,-24.85697,16.87379
20.217031479,8.397335,-171.2274,-29.98679,1.216174,-0.01290225,0.1276334,-50.66383,-24.85697,16.87379
20.227028847,7.28973700000001,-168.9126,-29.01126,1.209718,0.01957216,0.132422,-49.20182,-24.77435,25.33445
20.237026215,3.720809,-166.3605,-27.91378,1.214026,0.02344392,0.1214063,-49.20182,-24.77435,25.33445
20.247023583,0.890280700000001,-163.2148,-27.48699,1.198734,0.006917097,0.1008584,-49.20182,-24.77435,25.33445
20.25702095,-0.3403839,-159.4756,-27.42602,1.179037,-0.008795043,0.0726608,-49.20182,-24.77435,25.33445
20.267018318,-0.0942510000000003,-155.4397,-27.79184,1.164887,-0.03470765,0.03297033,-49.20182,-24.77435,25.33445
20.277015686,2.120945,-152.5314,-27.12116,1.16757,-0.04851541,0.005211795,-46.17874,-27.35659,32.20792
20.287013054,5.25914,-149.2077,-26.14563,1.170884,-0.04370016,-0.006759625,-46.17874,-27.35659,32.20792
20.297010899,8.15120200000001,-145.2904,-26.02369,1.192564,-0.03071191,-0.01493656,-46.17874,-27.35659,32.20792
20.307008267,10.85866,-141.1357,-25.84078,1.21523,-0.01815068,-0.01880791,-46.17874,-27.35659,32.20792
20.317005634,12.88926,-136.3282,-25.71884,1.220575,-0.01765561,-0.02934603,-46.17874,-27.35659,32.20792
20.327003002,15.04292,-131.9955,-25.23107,1.213655,-0.0124777,-0.03268533,-42.0452,-29.17349,38.63418
20.33700037,16.76585,-127.1286,-24.86525,1.212376,0.003445396,-0.04225872,-42.0452,-29.17349,38.63418
20.346997261,17.25812,-121.9649,-24.07262,1.207348,0.01153687,-0.04990926,-42.0452,-29.17349,38.63418
20.356994629,17.25812,-116.8606,-22.79224,1.193607,0.01655811,-0.05562951,-42.0452,-29.17349,38.63418
20.366991997,16.51972,-111.1628,-21.75574,1.173982,0.02334546,-0.06804003,-42.0452,-29.17349,38.63418
20.376989365,15.16599,-105.2276,-20.84118,1.161299,0.02404921,-0.06993239,-38.73424,-30.24559,43.88935
20.386986733,14.36606,-99.4703800000002,-19.43885,1.150578,0.02370581,-0.0842709,-38.73424,-30.24559,43.88935
20.396984577,13.75073,-93.00097,-17.91458,1.135394,0.02773543,-0.08903123,-38.73424,-30.24559,43.88935
20.406981945,12.58159,-86.4128499999999,-16.32934,1.127415,0.03720889,-0.09859128,-38.73424,-30.24559,43.88935
20.416979313,10.79713,-80.0028,-14.43924,1.120064,0.03953724,-0.0937933,-38.73424,-30.24559,43.88935
20.426976681,8.88960099999997,-73.4146900000002,-12.79303,1.094045,0.04966563,-0.09901489,-35.73468,-30.95656,47.14067
20.436974049,6.67440499999999,-66.5298100000001,-11.20779,1.09023,0.04519924,-0.1009214,-35.73468,-30.95656,47.14067
20.446971417,5.320673,-59.1701099999999,-9.92740700000002,1.075449,0.02790365,-0.1004126,-35.73468,-30.95656,47.14067
20.456968784,4.643808,-51.69172,-8.098285,1.058076,0.0187652,-0.1056443,-35.73468,-30.95656,47.14067
20.466966152,4.828408,-43.79785,-6.513045,1.042227,0.006228969,-0.1137492,-35.73468,-30.95656,47.14067
20.476963043,5.566806,-36.08204,-4.988776,1.03503,0.0002510875,-0.1142137,-33.4863,-31.66988,50.77343
20.486961365,6.05907200000001,-28.60365,-3.403537,1.021959,-0.004424501,-0.1189755,-33.4863,-31.66988,50.77343
20.496958733,6.55133799999999,-20.65043,-1.940238,1.011243,-0.004618665,-0.1170425,-33.4863,-31.66988,50.77343
20.506955624,6.92053700000001,-13.17203,-0.720822899999998,1.010287,-0.005609436,-0.1170405,-33.4863,-31.66988,50.77343
20.516952992,7.35127000000003,-5.75298199999998,0.681504599999997,1.0073,-0.002271239,-0.1175148,-33.4863,-31.66988,50.77343
20.526950359,6.612871,2.259588,2.266744,1.012393,0.01190853,-0.118963,-31.59267,-32.78981,51.63192
20.536947727,4.459208,9.61928199999999,3.54713,1.008159,0.02980471,-0.1189603,-31.59267,-32.78981,51.63192
20.546945095,1.628679,17.27574,4.705575,1.0194,0.02810935,-0.1161079,-31.59267,-32.78981,51.63192
20.556942463,-1.755648,25.34766,5.92499000000001,1.033609,0.02403853,-0.1137388,-31.59267,-32.78981,51.63192
20.566939831,-5.324575,33.00412,6.83955100000002,1.039563,0.01830294,-0.1161406,-31.59267,-32.78981,51.63192
20.576937199,-7.41670600000002,40.95733,7.51023000000002,1.047594,0.005835901,-0.1151942,-31.59884,-32.41272,51.24289
20.586935043,-8.46277000000003,49.26666,8.05896700000001,1.055309,0.009691628,-0.1353088,-31.59884,-32.41272,51.24289
20.596932411,-10.43183,56.98247,8.79061600000001,1.055329,0.008763998,-0.1305229,-31.59884,-32.41272,51.24289
20.606929779,-12.7701,64.2234600000001,9.88808900000002,1.067705,-0.0009725473,-0.1061346,-31.59884,-32.41272,51.24289
20.616927147,-13.44696,72.1173200000002,11.16848,1.091411,-0.01734985,-0.08846436,-31.59884,-32.41272,51.24289
20.626924515,-12.2163,80.30795,12.5708,1.124986,-0.0403485,-0.07224539,-32.35502,-31.67507,49.16927
20.636921406,-8.27817099999997,89.0327499999999,14.0341,1.160961,-0.03568003,-0.06465209,-32.35502,-31.67507,49.16927
20.646918774,-4.524643,97.4607800000001,15.68031,1.189314,-0.01404453,-0.04508547,-32.35502,-31.67507,49.16927
20.656916141,-2.432514,106.1262,17.14361,1.199756,0.000735644,-0.04558606,-32.35502,-31.67507,49.16927
20.666913509,-1.447982,113.9014,18.72885,1.21748,0.01716135,-0.041314,-32.35502,-31.67507,49.16927
20.676911354,-1.509515,121.6172,20.43603,1.223605,0.02855992,-0.03032036,-34.6009,-31.33174,46.76404
20.686908722,-3.786245,129.3924,22.38709,1.231977,0.05028221,-0.01119751,-34.6009,-31.33174,46.76404
20.69690609,-6.80137299999998,136.6333,24.52107,1.250441,0.05382144,0.01700538,-34.6009,-31.33174,46.76404
20.706903458,-9.878035,144.3492,26.77699,1.269696,0.06709515,0.04520438,-34.6009,-31.33174,46.76404
20.716900825,-13.6931,151.9463,28.54514,1.279801,0.0485624,0.06912034,-34.6009,-31.33174,46.76404
20.726898193,-16.15442,159.1873,30.25232,1.273032,0.02050724,0.09785394,-36.85347,-30.24514,42.29075
20.736895561,-16.52362,166.1315,31.04494,1.268849,-0.01592454,0.1083993,-36.85347,-30.24514,42.29075
20.746892929,-13.57003,173.1351,31.41077,1.265469,-0.04376892,0.09979796,-36.85347,-30.24514,42.29075
20.75688982,-9.26270200000001,179.7825,31.47174,1.262674,-0.05064489,0.09789031,-36.85347,-30.24514,42.29075
20.766887188,-5.201509,186.0739,31.10591,1.259578,-0.04146877,0.09837192,-36.85347,-30.24514,42.29075
20.776885509,-2.74018,191.0001,30.98397,1.26098,-0.03791228,0.1122473,-40.90267,-29.56557,36.25804
20.786882877,-0.4019172,195.3328,30.19135,1.262492,-0.04014105,0.1309097,-40.90267,-29.56557,36.25804
20.796879768,1.874812,198.8346,29.8865,1.270934,-0.02239702,0.1399833,-40.90267,-29.56557,36.25804
20.806877136,3.105477,201.3868,29.94747,1.284759,-0.005325523,0.1701051,-40.90267,-29.56557,36.25804
20.816874504,2.059412,203.7015,30.31329,1.289759,0.01443025,0.1940201,-45.03505,-27.38574,27.76575
20.826871872,-0.709583300000001,206.135,30.06941,1.296773,0.03088125,0.224154,-45.03505,-27.38574,27.76575
20.83686924,-4.64771,208.0343,30.31329,1.289296,0.01441328,0.2461857,-45.03505,-27.38574,27.76575
20.846866608,-7.60130500000002,210.2896,31.04494,1.277174,-0.0143564,0.2615287,-45.03505,-27.38574,27.76575
20.856863975,-8.58583600000001,212.9012,32.14242,1.26352,-0.03920741,0.2835734,-45.03505,-27.38574,27.76575
20.86686182,-7.97050500000002,216.0468,32.14242,1.249052,-0.07292233,0.2946145,-48.79717,-24.82928,18.5002
20.876859188,-5.816842,218.7177,31.89853,1.213017,-0.07330091,0.3310493,-48.79717,-24.82928,18.5002
20.886856556,-2.74018,220.5576,32.14242,1.227872,-0.1119222,0.3267261,-48.79717,-24.82928,18.5002
20.896853924,0.02881546,220.8544,32.26436,1.203233,-0.09660448,0.3545226,-48.79717,-24.82928,18.5002
20.906851292,1.505613,220.9731,31.77659,1.17972,-0.06319693,0.3918839,-48.79717,-24.82928,18.5002
20.916848659,0.5826145,220.3202,31.53271,1.170998,-0.03936071,0.4134288,-50.64157,-24.23048,8.485029
20.926845551,-3.601645,218.5396,31.53271,1.14534,-0.04724792,0.4565474,-50.64157,-24.23048,8.485029
20.936842918,-8.52430299999999,215.5126,30.923,1.12889,-0.05258493,0.4929493,-50.64157,-24.23048,8.485029
20.946840286,-11.41637,213.1979,30.31329,1.131005,-0.08685199,0.5140117,-50.64157,-24.23048,8.485029
20.956838131,-11.53943,210.7051,29.39873,1.113373,-0.1330095,0.552819,-50.64157,-24.23048,8.485029
20.966835499,-8.093571,209.0432,28.4232,1.076976,-0.1402554,0.5830346,-51.00403,-22.79631,-1.523412
20.976832867,-3.047846,208.7465,26.77699,1.043375,-0.1414008,0.583572,-51.00403,-22.79631,-1.523412
20.986830235,-0.0942510000000003,208.5684,24.94787,0.9935657,-0.1611217,0.6071142,-51.00403,-22.79631,-1.523412
20.996827602,4.090009,206.9066,23.91136,0.9444274,-0.1392138,0.6115014,-51.00403,-22.79631,-1.523412
21.00682497,5.87447300000001,205.126,22.69195,0.916742,-0.1177925,0.6225514,-51.00403,-22.79631,-1.523412
21.016822338,5.44374,203.2861,21.10671,0.8802394,-0.09345873,0.6522805,-49.50823,-20.58792,-11.58651
21.026819706,4.582274,199.4875,19.88729,0.8309836,-0.06597189,0.6293876,-49.50823,-20.58792,-11.58651
21.036817074,-0.03271778,195.8077,19.15564,0.8116007,-0.07089403,0.6643587,-49.50823,-20.58792,-11.58651
21.046813965,-4.032378,192.7213,20.31409,0.8188753,-0.01661341,0.685868,-49.50823,-20.58792,-11.58651
21.056812286,-9.508835,194.68,19.15564,0.7854337,-0.0002310746,0.6897507,-49.50823,-20.58792,-11.58651
21.066809654,-18.49269,194.858,19.39953,0.7136102,-0.06613462,0.7588078,-46.51712,-18.36119,-20.79997
21.076807022,-22.61541,189.3383,20.497,0.6386091,-0.1456688,0.7790592,-46.51712,-18.36119,-20.79997
21.086803913,-16.03136,183.9372,19.15564,0.609962,-0.2038917,0.7446667,-46.51712,-18.36119,-20.79997
21.096801281,-10.80103,178.7142,18.78982,0.5478709,-0.2450402,0.7366497,-46.51712,-18.36119,-20.79997
21.106798649,-5.570708,170.0487,20.497,0.472902,-0.1968895,0.7439467,-46.51712,-18.36119,-20.79997
21.116796017,-5.263042,161.502,22.02127,0.3979754,-0.1007536,0.6847091,-41.25824,-17.61559,-27.21513
21.126793385,-12.83163,153.6675,24.52107,0.3268483,-0.02475032,0.6474847,-41.25824,-17.61559,-27.21513
21.136790752,-27.10734,143.993,27.02087,0.2405287,0.03091168,0.6504922,-41.25824,-17.61559,-27.21513
21.146788597,-42.85985,130.7575,28.30126,0.1670883,-0.002677222,0.6434503,-41.25824,-17.61559,-27.21513
21.156785965,-51.41297,114.7323,28.17932,0.1264785,-0.1506287,0.6004873,-41.25824,-17.61559,-27.21513
21.166783333,-44.95198,99.0633000000001,26.83796,0.1054079,-0.2498149,0.5340275,-36.07842,-16.4732,-31.63327
21.176780701,-30.49167,87.3115299999997,24.03331,0.1172992,-0.2618127,0.471795,-36.07842,-16.4732,-31.63327
21.186778069,-18.73882,78.6460799999999,21.28962,0.1119322,-0.1844928,0.4363698,-36.07842,-16.4732,-31.63327
21.196775436,-13.8777,70.8115699999999,18.85079,0.06169613,-0.07874042,0.4187228,-36.07842,-16.4732,-31.63327
21.206772327,-14.86223,62.2054700000002,16.77778,0.002017211,-0.0413249,0.3881883,-36.07842,-16.4732,-31.63327
21.216769695,-16.15442,52.11558,14.76575,-0.03791977,-0.06911707,0.3581149,-32.72926,-14.57662,-35.2304
21.226767063,-12.64703,41.61021,12.20498,-0.03418693,-0.1131202,0.3207907,-32.72926,-14.57662,-35.2304
21.236765385,-6.49370699999998,32.29189,9.88808900000002,-0.02757576,-0.128952,0.2757972,-32.72926,-14.57662,-35.2304
21.246762276,-2.309447,24.04191,7.51023000000002,-0.021987,-0.0896251,0.2599843,-32.72926,-14.57662,-35.2304
21.256759644,-2.801713,15.91063,5.254312,-0.01995089,-0.04249679,0.2547043,-32.72926,-14.57662,-35.2304
21.266757011,-7.47823899999999,7.00777700000002,3.303247,-0.01163988,-0.04370268,0.2642616,-29.37509,-13.42005,-36.37247
21.276754379,-10.67797,-2.904068,1.839949,-0.02400852,-0.05936559,0.2786445,-29.37509,-13.42005,-36.37247
21.286751747,-12.27783,-13.17203,0.0717969800000001,-0.03070891,-0.09144291,0.2925431,-29.37509,-13.42005,-36.37247
21.296749115,-11.8471,-23.91481,-2.245092,-0.007609823,-0.1271865,0.3193123,-29.37509,-13.42005,-36.37247
21.306746483,-8.46277000000003,-34.47953,-5.476542,0.001585379,-0.1491213,0.345145,-29.37509,-13.42005,-36.37247
21.316743851,-2.432514,-44.68813,-9.25672899999999,0.01183288,-0.1491196,0.3762346,-29.00035,-13.41724,-36.36969
21.326741695,3.290077,-53.8284,-12.2443,0.04037924,-0.1376237,0.4025036,-29.00035,-13.41724,-36.36969
21.339238167,8.08966899999999,-63.6215399999998,-15.29283,0.07741407,-0.1107906,0.4402396,-29.00035,-13.41724,-36.36969
21.349235535,9.19726699999998,-70.74383,-17.73167,0.1019765,-0.09438232,0.4808716,-29.00035,-13.41724,-36.36969
21.356733799,9.074201,-76.2042500000001,-19.37788,0.112304,-0.09881838,0.5047835,-29.76108,-13.03597,-35.60327
21.366731167,10.1818,-83.6826499999998,-21.26797,0.1469812,-0.1021821,0.5401385,-29.76108,-13.03597,-35.60327
21.376728058,10.42793,-90.74557,-22.97515,0.1824466,-0.1472072,0.5879458,-29.76108,-13.03597,-35.60327
21.389225006,15.47366,-99.2923200000002,-24.68233,0.2333872,-0.1597668,0.6452894,-29.76108,-13.03597,-35.60327
21.399222374,19.47332,-105.8211,-25.96272,0.2525272,-0.1657224,0.6964653,-29.76108,-13.03597,-35.60327
21.409220219,23.10378,-112.7653,-27.60893,0.2647338,-0.1653487,0.763923,-32.37927,-13.79566,-33.16767
21.419217587,24.70364,-121.6088,-29.37708,0.2870145,-0.1821602,0.8433322,-32.37927,-13.79566,-33.16767
21.429214954,28.45717,-133.2419,-30.65747,0.3138152,-0.20774,0.8576493,-32.37927,-13.79566,-33.16767
21.439212322,34.24129,-143.035,-32.12077,0.3862729,-0.2249487,0.8915063,-32.37927,-13.79566,-33.16767
21.449209213,39.34855,-151.7005,-31.87688,0.4476547,-0.223543,0.9124563,-32.37927,-13.79566,-33.16767
21.459206581,45.3788,-158.1699,-31.08426,0.5253725,-0.1847128,0.8989108,-36.12676,-14.55399,-29.5794
21.469203949,46.79407,-160.544,-29.37708,0.5739132,-0.09671765,0.9045464,-36.12676,-14.55399,-29.5794
21.479201317,40.64075,-164.3425,-27.12116,0.582509,-0.009573046,0.9035518,-36.12676,-14.55399,-29.5794
21.489198685,26.61117,-170.8119,-24.86525,0.606699,0.02525759,0.887229,-36.12676,-14.55399,-29.5794
21.49919653,10.98173,-178.8245,-22.54836,0.6431747,0.002394243,0.8589354,-36.12676,-14.55399,-29.5794
21.509193897,2.490145,-185.1752,-20.04856,0.6996664,-0.02407617,0.7650428,-40.55262,-16.06456,-24.37967
21.519191265,-2.801713,-183.454,-19.98759,0.787586,-0.08848078,0.7060413,-40.55262,-16.06456,-24.37967
21.529188633,-5.263042,-177.5781,-19.86564,0.8168582,-0.09109882,0.675362,-40.55262,-16.06456,-24.37967
21.539186001,-8.58583600000001,-171.999,-19.92661,0.8144391,-0.06653468,0.6566954,-40.55262,-16.06456,-24.37967
21.549183369,-17.50816,-169.981,-20.1705,0.8337705,-0.0834668,0.6762877,-40.55262,-16.06456,-24.37967
21.559180737,-25.01521,-173.8982,-19.56079,0.8268405,-0.1298647,0.665783,-45.0435,-17.93581,-16.79186
21.569178105,-25.99974,-178.8838,-20.84118,0.8637409,-0.2013269,0.6360654,-45.0435,-17.93581,-16.79186
21.579174996,-19.29262,-182.0295,-22.60933,0.9103698,-0.2458395,0.609674,-45.0435,-17.93581,-16.79186
21.589173317,-8.89350299999999,-182.5637,-24.37748,0.9519771,-0.2299884,0.6057687,-45.0435,-17.93581,-16.79186
21.599170685,0.2134152,-181.6734,-26.08466,0.9998087,-0.1824982,0.5941873,-45.0435,-17.93581,-16.79186
21.609168053,3.782343,-181.2579,-27.12116,1.021377,-0.1117115,0.5831242,-48.02417,-20.18269,-9.964905
21.619164944,0.5210813,-182.0295,-27.6699,1.018386,-0.0820667,0.5898219,-48.02417,-20.18269,-9.964905
21.629162311,-3.540112,-183.7507,-26.93825,1.008373,-0.06838717,0.5663856,-48.02417,-20.18269,-9.964905
21.639159679,-5.75530800000001,-181.0799,-27.85281,1.014387,-0.07765916,0.5491487,-48.02417,-20.18269,-9.964905
21.649157047,-6.30910700000001,-174.6698,-29.55999,1.017173,-0.09671374,0.53192,-48.02417,-20.18269,-9.964905
21.659154415,-3.478579,-169.3281,-30.47455,1.012154,-0.1155155,0.5060905,-50.66243,-21.26881,-1.141741
21.66915226,0.02881546,-165.767,-30.5965,1.035307,-0.1036631,0.476854,-50.66243,-21.26881,-1.141741
21.679149628,1.197947,-164.9954,-29.68193,1.077103,-0.07247741,0.4490157,-50.66243,-21.26881,-1.141741
21.689146995,-1.078783,-165.6483,-28.52349,1.123322,-0.04304284,0.432656,-50.66243,-21.26881,-1.141741
21.699144363,-5.324575,-166.776,-28.15767,1.164685,-0.04042222,0.4172687,-50.66243,-21.26881,-1.141741
21.709141731,-10.0011,-168.4972,-27.97475,1.189237,-0.05075946,0.4028713,-51.04071,-22.72548,6.861629
21.719139099,-12.33936,-169.8623,-28.09669,1.1999,-0.07400559,0.3885014,-51.04071,-22.72548,6.861629
21.729136467,-10.86257,-169.6842,-28.64543,1.206606,-0.09460285,0.353559,-51.04071,-22.72548,6.861629
21.739133358,-7.724371,-169.0313,-29.49902,1.198438,-0.1276688,0.3157742,-51.04071,-22.72548,6.861629
21.749130726,-3.540112,-168.5565,-29.86485,1.195963,-0.1266328,0.2750993,-51.04071,-22.72548,6.861629
21.759129047,-0.1557842,-167.8443,-30.10873,1.195795,-0.1187918,0.2296329,-50.70712,-22.27803,14.47342
21.769126415,2.428612,-167.9036,-30.10873,1.194527,-0.1040728,0.1946952,-50.70712,-22.27803,14.47342
21.779123306,4.336142,-168.2004,-30.23067,1.188364,-0.08790945,0.1688587,-50.70712,-22.27803,14.47342
21.789120674,6.05907200000001,-167.6069,-30.47455,1.180112,-0.06462543,0.1291453,-50.70712,-22.27803,14.47342
21.799118042,6.85900399999999,-167.0134,-30.5965,1.179004,-0.03238751,0.09659574,-49.90744,-26.32537,22.49899
21.80911541,5.689873,-167.0727,-29.74291,1.17428,-0.04097432,0.07124165,-49.90744,-26.32537,22.49899
21.819112778,4.951474,-166.4198,-30.23067,1.166983,-0.01595042,0.06024068,-49.90744,-26.32537,22.49899
21.829110146,4.520741,-164.758,-31.38912,1.177132,-0.03850237,0.01667837,-49.90744,-26.32537,22.49899
21.839107513,5.44374,-163.3335,-31.32815,1.181698,-0.04891082,-0.0153915,-49.90744,-26.32537,22.49899
21.849105358,7.53587,-162.0278,-31.38912,1.168973,-0.0464352,-0.03594873,-46.9411,-26.24185,29.74527
21.859102726,9.25880099999997,-160.4252,-31.75494,1.175914,-0.05330303,-0.05797356,-46.9411,-26.24185,29.74527
21.869100094,11.35093,-158.5853,-32.18174,1.179698,-0.04748469,-0.06755317,-46.9411,-26.24185,29.74527
21.879097462,14.11993,-156.508,-31.38912,1.188195,-0.05908908,-0.0795294,-46.9411,-26.24185,29.74527
21.88909483,17.50425,-154.1339,-31.14523,1.176751,-0.04676842,-0.08908414,-46.9411,-26.24185,29.74527
21.899091721,20.51938,-151.2256,-30.84038,1.171234,-0.03874801,-0.1034339,-43.55901,-28.06057,36.61747
21.909089088,23.16531,-148.3174,-29.62096,1.171454,-0.02471715,-0.1106165,-43.55901,-28.06057,36.61747
21.919086456,23.96524,-145.5278,-28.15767,1.170157,-0.007840091,-0.1221044,-43.55901,-28.06057,36.61747
21.929084778,24.08831,-142.2041,-26.99922,1.16596,0.008148151,-0.1182726,-43.55901,-28.06057,36.61747
21.939081669,23.53451,-138.3462,-25.90175,1.163485,0.009924571,-0.1311903,-43.55901,-28.06057,36.61747
21.949079037,23.16531,-134.1322,-23.88971,1.155444,0.02286859,-0.1330939,-39.85508,-30.26056,43.10701
21.959076405,22.36538,-129.6807,-22.06059,1.152686,0.03973433,-0.142665,-39.85508,-30.26056,43.10701
21.969073772,20.76551,-124.5171,-20.23147,1.144436,0.06386403,-0.1431354,-39.85508,-30.26056,43.10701
21.97907114,16.95045,-119.2941,-17.79264,1.146956,0.08526015,-0.1469739,-39.85508,-30.26056,43.10701
21.989068508,11.6586,-114.0711,-15.84157,1.144376,0.09303249,-0.1417071,-39.85508,-30.26056,43.10701
21.999065876,6.305205,-108.4919,-14.25633,1.134266,0.08653305,-0.1397735,-36.10942,-30.95937,47.13789
22.009063244,1.751746,-102.2006,-13.2808,1.123564,0.05958167,-0.1411836,-36.10942,-30.95937,47.13789
22.019061089,-0.3403839,-95.4937700000003,-12.854,1.125065,0.03135654,-0.1488362,-36.10942,-30.95937,47.13789
22.029058456,-0.1557842,-87.5405499999999,-12.42721,1.120255,0.00213133,-0.1459488,-36.10942,-30.95937,47.13789
22.039055824,1.936346,-79.05316,-12.18333,1.103874,-0.007968166,-0.1521391,-36.10942,-30.95937,47.13789
22.049053192,3.597743,-70.26901,-11.8175,1.088206,-0.003851608,-0.14637,-32.74048,-31.65718,51.61749
22.05905056,4.889941,-61.6035600000001,-11.69556,1.069075,0.00313849,-0.137724,-32.74048,-31.65718,51.61749
22.069047451,5.505273,-52.52265,-11.45168,1.05814,0.01458943,-0.1372294,-32.74048,-31.65718,51.61749
22.079044819,4.705341,-43.08562,-11.08585,1.050084,0.0286147,-0.1271688,-32.74048,-31.65718,51.61749
22.089042187,3.16701,-33.58924,-10.96391,1.047333,0.01924848,-0.135776,-32.74048,-31.65718,51.61749
22.099040031,1.690213,-23.7961,-10.41517,1.050926,0.009635737,-0.1319512,-30.46146,-33.52519,53.64382
22.109037399,1.44408,-13.76555,-9.86643700000001,1.047139,0.003755945,-0.1290716,-30.46146,-33.52519,53.64382
22.119034767,1.321013,-3.43824,-8.52507999999999,1.038945,0.02501496,-0.1247556,-30.46146,-33.52519,53.64382
22.129032135,-0.4634504,6.948425,-7.00081100000001,1.025394,0.04620324,-0.1166016,-30.46146,-33.52519,53.64382
22.139029503,-3.663178,16.74156,-5.110718,1.014986,0.05582609,-0.1046216,-30.46146,-33.52519,53.64382
22.149026871,-7.41670600000002,26.83147,-2.793829,1.013768,0.06898385,-0.09792276,-28.59928,-33.12369,54.4942
22.159024239,-11.1087,37.09943,-0.659852100000001,1.01985,0.05646076,-0.0988873,-28.59928,-33.12369,54.4942
22.169021606,-14.06229,47.78286,1.535095,1.029339,0.04392603,-0.1084721,-28.59928,-33.12369,54.4942
22.179019451,-15.84676,57.5760000000003,3.912955,1.033268,0.01626112,-0.1132576,-28.59928,-33.12369,54.4942
22.189016819,-16.89282,67.4284800000002,6.22984400000002,1.042926,-0.004863689,-0.1060904,-28.59928,-33.12369,54.4942
22.199014187,-16.58516,77.5777400000002,9.27838200000003,1.054169,-0.006497605,-0.09653804,-28.57819,-33.89475,53.27276
22.209011555,-15.90829,87.8456999999999,12.20498,1.069921,-0.01493773,-0.09704189,-28.57819,-33.89475,53.27276
22.219008923,-14.98529,97.87625,14.76575,1.092992,-0.02358321,-0.08272261,-28.57819,-33.89475,53.27276
22.229005814,-13.26236,107.4913,17.38749,1.118368,-0.02548524,-0.0798949,-28.57819,-33.89475,53.27276
22.239003182,-10.61643,117.1658,19.27759,1.150123,-0.02967341,-0.07516342,-28.57819,-33.89475,53.27276
22.249000549,-7.66283799999999,126.5434,21.5335,1.182218,-0.0261149,-0.07426313,-30.06672,-33.92616,50.87512
22.258998394,-5.201509,135.5057,23.78942,1.205355,-0.01244523,-0.06425689,-30.06672,-33.92616,50.87512
22.268995762,-4.524643,143.6369,25.37466,1.228677,-0.008451281,-0.04994129,-30.06672,-33.92616,50.87512
22.27899313,-4.83231,151.1153,26.9599,1.239449,-0.01113218,-0.0475665,-30.06672,-33.92616,50.87512
22.288990498,-4.155444,158.0596,28.48417,1.241066,-0.01933491,-0.04469575,-30.06672,-33.92616,50.87512
22.298987866,-3.478579,165.0038,29.70359,1.23024,-0.0137175,-0.04467833,-33.80254,-33.61152,46.39477
22.308985233,-3.601645,171.1764,30.86203,1.228412,-0.020027,-0.03988776,-33.80254,-33.61152,46.39477
22.318982601,-3.663178,176.3401,32.32533,1.234378,-0.02614741,-0.03128221,-33.80254,-33.61152,46.39477
22.328979969,-4.155444,181.8005,33.23989,1.245596,-0.02623626,-0.0121587,-33.80254,-33.61152,46.39477
22.338977814,-4.401577,186.9048,33.78863,1.255686,-0.04448954,-0.01073586,-33.80254,-33.61152,46.39477
22.348975182,-3.970845,191.1188,34.15445,1.27461,-0.06587775,0.0007224814,-37.95521,-31.02737,40.73846
22.35897255,-1.263382,195.1548,35.43484,1.286444,-0.07271375,0.02463241,-37.95521,-31.02737,40.73846
22.368969917,2.797811,199.4282,36.16648,1.30319,-0.0556284,0.04996336,-37.95521,-31.02737,40.73846
22.378967285,4.951474,203.1674,37.02008,1.325708,-0.03454587,0.07480463,-37.95521,-31.02737,40.73846
22.388964176,5.013007,206.4911,37.62978,1.348845,-0.0201227,0.1140038,-42.40157,-28.84661,32.63084
22.398961544,3.782343,209.8742,37.8127,1.361925,-0.01519693,0.1460443,-42.40157,-28.84661,32.63084
22.408958912,2.244012,213.376,37.93464,1.36627,-0.01246644,0.1694863,-42.40157,-28.84661,32.63084
22.41895628,1.25948,216.581,37.75173,1.360567,-0.01970594,0.1872054,-42.40157,-28.84661,32.63084
22.428954125,1.690213,218.7177,37.93464,1.365615,-0.02871627,0.2005991,-42.40157,-28.84661,32.63084
22.438951492,2.244012,219.8454,37.87367,1.359775,-0.0286562,0.2197523,-46.91317,-26.29578,23.35974
22.44894886,2.551678,220.5576,37.26396,1.338342,-0.02832614,0.2489827,-46.91317,-26.29578,23.35974
22.458946228,2.859344,220.6763,36.53231,1.321102,-0.04410284,0.2614598,-46.91317,-26.29578,23.35974
22.468943596,4.028476,220.9137,35.06901,1.296087,-0.06096115,0.2787365,-46.91317,-26.29578,23.35974
22.478940964,6.48980500000002,219.8454,35.49581,1.267153,-0.07631627,0.3094197,-46.91317,-26.29578,23.35974
22.488938332,9.19726699999998,219.786,34.76416,1.218003,-0.05323056,0.3362997,-49.88113,-25.64583,12.88439
22.4989357,9.32033300000002,219.6673,33.91057,1.193383,-0.03884045,0.3688821,-49.88113,-25.64583,12.88439
22.508933544,7.843536,218.8957,33.05698,1.159669,-0.03348662,0.3895183,-49.88113,-25.64583,12.88439
22.518930912,5.81293900000002,218.1835,32.56921,1.133674,-0.02415417,0.4034399,-49.88113,-25.64583,12.88439
22.52892828,2.859344,217.4713,31.95951,1.116287,-0.03218502,0.4130438,-49.88113,-25.64583,12.88439
22.538925648,-0.03271778,215.3346,30.80106,1.088535,-0.05875047,0.4375064,-51.01366,-23.14289,2.477636
22.548922539,-1.017249,211.7735,30.00844,1.063704,-0.08451783,0.4897211,-51.01366,-23.14289,2.477636
22.558919907,-0.03271778,209.2807,28.72805,1.048414,-0.1001814,0.5103305,-51.01366,-23.14289,2.477636
22.568917275,3.35161,207.0253,26.9599,1.016169,-0.09535909,0.5228285,-51.01366,-23.14289,2.477636
22.578914642,5.013007,203.7609,25.55757,0.9868426,-0.08979137,0.5573356,-51.01366,-23.14289,2.477636
22.588912487,6.55133799999999,199.1314,24.52107,0.9372371,-0.06804089,0.598574,-50.27073,-20.93358,-6.817017
22.598909855,6.24367199999998,195.5703,22.9968,0.924157,-0.07222633,0.5942908,-50.27073,-20.93358,-6.817017
22.608907223,6.92053700000001,193.4929,20.9238,0.8786317,-0.0608588,0.6072888,-50.27073,-20.93358,-6.817017
22.618904591,6.85900399999999,191.8311,19.58244,0.8142056,-0.05532849,0.6073996,-50.27073,-20.93358,-6.817017
22.628901958,5.81293900000002,190.4066,18.11914,0.7677662,-0.04749905,0.6074786,-50.27073,-20.93358,-6.817017
22.638899326,2.797811,188.2699,16.9607,0.742107,-0.03054719,0.6036903,-47.99934,-20.23063,-15.64093
22.648896694,-2.309447,184.412,16.5339,0.7109943,-0.03384505,0.6291099,-47.99934,-20.23063,-15.64093
22.658894062,-5.693775,178.4768,17.02167,0.6290375,-0.002857937,0.6345091,-47.99934,-20.23063,-15.64093
22.668891907,-14.00076,173.1944,16.71681,0.5971785,-0.01832347,0.6594546,-47.99934,-20.23063,-15.64093
22.678889275,-21.56935,167.0218,18.424,0.5569206,-0.02762016,0.6863275,-47.99934,-20.23063,-15.64093
22.688886642,-27.04581,161.2646,19.58244,0.5158021,-0.04341338,0.6954962,-43.87703,-18.73929,-22.84249
22.69888401,-30.61473,155.8635,20.07021,0.4717435,-0.08467402,0.6893622,-43.87703,-18.73929,-22.84249
22.708880901,-32.5838,149.7502,20.86283,0.4298868,-0.08750616,0.6827357,-43.87703,-18.73929,-22.84249
22.718878269,-35.10666,143.2215,21.71642,0.3689924,-0.08889349,0.6627421,-43.87703,-18.73929,-22.84249
22.728875637,-37.38339,135.3869,22.81389,0.3130161,-0.09256948,0.6475262,-43.87703,-18.73929,-22.84249
22.738873959,-40.15239,126.306,23.72845,0.2626584,-0.1095873,0.6490541,-39.83996,-16.47409,-28.43606
22.74887085,-40.21392,116.6909,23.97233,0.2358034,-0.1074961,0.6170358,-39.83996,-16.47409,-28.43606
22.758868217,-39.35246,108.441,23.11874,0.2004293,-0.1442556,0.6060996,-39.83996,-16.47409,-28.43606
22.768865585,-36.95266,97.87625,22.02127,0.1400485,-0.1727621,0.595205,-39.83996,-16.47409,-28.43606
22.778862953,-30.12247,86.8367099999997,19.82632,0.1129496,-0.1838927,0.5526618,-39.83996,-16.47409,-28.43606
22.788860321,-22.30775,77.9932100000002,17.44846,0.09891361,-0.1898356,0.5177518,-35.34717,-15.33686,-32.8593
22.798857689,-16.33902,69.0310000000002,15.13157,0.07309993,-0.138963,0.503905,-35.34717,-15.33686,-32.8593
22.808855057,-14.43149,60.1281500000001,12.75372,0.05504527,-0.1123526,0.4771294,-35.34717,-15.33686,-32.8593
22.818852425,-14.12383,51.52205,10.31489,0.04995215,-0.1016582,0.4354994,-35.34717,-15.33686,-32.8593
22.828850269,-15.10836,43.09402,8.72964499999998,0.0499836,-0.1037592,0.4182711,-35.34717,-15.33686,-32.8593
22.838847637,-14.61609,34.66598,7.69314200000002,0.03609263,-0.09108871,0.399149,-32.36237,-14.19345,-35.22965
22.848845005,-15.47756,26.00053,6.90052199999999,0.0005946784,-0.09528375,0.3891619,-32.36237,-14.19345,-35.22965
22.858842373,-15.72369,16.74156,5.437224,-0.02842167,-0.1070249,0.3901727,-32.36237,-14.19345,-35.22965
22.868839741,-14.55456,7.48259600000002,2.998394,-0.02685343,-0.1385494,0.3935281,-32.36237,-14.19345,-35.22965
22.878836632,-11.2933,-0.767383199999997,0.2547093,0.004322823,-0.1635348,0.4102303,-32.36237,-14.19345,-35.22965
22.888834,-5.386109,-8.542543,-2.428004,0.02818493,-0.1624853,0.4202386,-30.13582,-13.03878,-35.60605
22.898832321,-1.201849,-15.90224,-5.3546,0.03386974,-0.1791529,0.4451189,-30.13582,-13.03878,-35.60605
22.908829212,3.043944,-24.44898,-7.79343099999999,0.03484366,-0.1783714,0.4752673,-30.13582,-13.03878,-35.60605
22.91882658,5.99753899999999,-33.35183,-10.17129,0.0528258,-0.1754372,0.4915067,-30.13582,-13.03878,-35.60605
22.928823948,8.33580199999998,-41.89857,-12.12236,0.07140584,-0.1526379,0.5000828,-30.13582,-13.03878,-35.60605
22.938821316,8.397335,-49.61438,-13.40274,0.09621777,-0.1236034,0.5392753,-30.51056,-13.04159,-35.60883
22.948818684,6.67440499999999,-57.4488899999997,-14.68313,0.09624472,-0.1243028,0.5689473,-30.51056,-13.04159,-35.60883
22.958816051,5.87447300000001,-65.9362899999999,-16.51225,0.1135907,-0.1649888,0.5990776,-30.51056,-13.04159,-35.60883
22.968813419,8.64346799999999,-73.7114499999998,-18.15846,0.1392913,-0.2093753,0.6315875,-30.51056,-13.04159,-35.60883
22.978811264,14.98139,-81.6053099999998,-19.80467,0.1705564,-0.2128766,0.6592913,-31.27129,-12.66032,-34.84242
22.988808632,20.45785,-88.07472,-21.38991,0.1922357,-0.198377,0.7099789,-31.27129,-12.66032,-34.84242
22.998806,23.41144,-94.5441300000002,-22.97515,0.2168015,-0.1826344,0.7309893,-31.27129,-12.66032,-34.84242
23.008803368,25.07284,-100.3607,-24.31651,0.2636023,-0.1828211,0.7687153,-31.27129,-12.66032,-34.84242
23.018800735,27.16497,-106.3552,-25.59689,0.2903005,-0.2023523,0.8069599,-31.27129,-12.66032,-34.84242
23.028798103,30.42623,-113.0621,-25.77981,0.3171375,-0.2042386,0.8083493,-34.6345,-13.79946,-31.63634
23.038794994,33.93362,-118.1664,-25.96272,0.3579595,-0.19792,0.8264624,-34.6345,-13.79946,-31.63634
23.048793316,36.21035,-123.8642,-25.47495,0.3807027,-0.1634329,0.8288068,-34.6345,-13.79946,-31.63634
23.058790684,34.97969,-130.0368,-24.86525,0.3988295,-0.1418985,0.8593985,-34.6345,-13.79946,-31.63634
23.068787575,32.57989,-137.7526,-24.01165,0.4255322,-0.1371905,0.8382933,-34.6345,-13.79946,-31.63634
23.078784943,30.1801,-145.8246,-23.21903,0.4791177,-0.1367888,0.8195354,-37.62295,-14.93579,-28.42749
23.088782311,27.47264,-153.8371,-22.54836,0.523887,-0.1598558,0.8041489,-37.62295,-14.93579,-28.42749
23.098779678,28.58023,-161.3155,-21.81671,0.5789429,-0.1606864,0.7538025,-37.62295,-14.93579,-28.42749
23.108777046,29.9955,-164.6393,-21.51185,0.6335062,-0.1352816,0.703929,-37.62295,-14.93579,-28.42749
23.118774414,28.21103,-166.5385,-20.53632,0.6619364,-0.0668767,0.683283,-37.62295,-14.93579,-28.42749
23.128772259,19.78098,-168.7939,-19.07302,0.6796195,-0.02297683,0.6631407,-41.31057,-16.05384,-22.45022
23.138769627,8.52040099999998,-171.9396,-17.30487,0.6983134,-0.007412664,0.6243395,-41.31057,-16.05384,-22.45022
23.148766995,-2.124848,-174.0763,-16.57322,0.7334652,-0.03756935,0.5984429,-41.31057,-16.05384,-22.45022
23.158764362,-9.75496900000002,-175.7382,-16.39031,0.7604715,-0.07522874,0.5668195,-41.31057,-16.05384,-22.45022
23.16876173,-12.27783,-177.5781,-17.2439,0.7823432,-0.124503,0.5514796,-41.31057,-16.05384,-22.45022
23.178759098,-10.61643,-178.9432,-18.82914,0.8083903,-0.1368378,0.5279871,-45.80593,-17.55127,-15.63844
23.188756466,-8.33970399999999,-181.0205,-20.53632,0.8486952,-0.1555669,0.5183502,-45.80593,-17.55127,-15.63844
23.198753357,-5.570708,-185.2345,-21.81671,0.8750067,-0.1555813,0.5130399,-45.80593,-17.55127,-15.63844
23.208751679,-3.909311,-189.3298,-23.46292,0.920427,-0.1609792,0.5153551,-45.80593,-17.55127,-15.63844
23.218749046,-2.55558,-191.882,-24.98719,0.9653844,-0.1671739,0.5377713,-45.80593,-17.55127,-15.63844
23.228746414,3.228544,-190.2795,-26.2066,1.002958,-0.1441046,0.5348285,-48.40767,-20.16861,-7.968174
23.238743305,9.50493299999999,-183.6914,-28.7064,1.011477,-0.1052583,0.5132677,-48.40767,-20.16861,-7.968174
23.248740673,12.95079,-177.8155,-29.55999,0.9961982,-0.04443247,0.5022714,-48.40767,-20.16861,-7.968174
23.258738041,10.12027,-176.2723,-27.79184,1.00949,0.02633553,0.5070158,-48.40767,-20.16861,-7.968174
23.268735409,1.25948,-178.7651,-25.10913,1.048172,0.06844866,0.5117233,-48.40767,-20.16861,-7.968174
23.278733254,-10.61643,-181.1392,-23.34098,1.111646,0.06128819,0.4948643,-50.66949,-21.25518,0.4707661
23.288730621,-20.70788,-182.3856,-23.15806,1.173613,0.005250339,0.5033851,-50.66949,-21.25518,0.4707661
23.298727989,-23.72301,-182.6824,-24.07262,1.23686,-0.06745093,0.493722,-50.66949,-21.25518,0.4707661
23.308725357,-20.15409,-181.614,-25.96272,1.27516,-0.1090194,0.4884016,-50.66949,-21.25518,0.4707661
23.318722725,-13.26236,-180.3676,-28.34058,1.290869,-0.1413198,0.4826396,-50.66949,-21.25518,0.4707661
23.328720093,-4.893843,-178.2903,-30.04776,1.299938,-0.1315402,0.4696998,-51.45734,-21.18671,9.237247
23.338717461,1.813279,-174.9666,-31.57203,1.298262,-0.1205414,0.4539068,-51.45734,-21.18671,9.237247
23.348714829,7.28973700000001,-171.8802,-32.24271,1.275948,-0.1009324,0.4146974,-51.45734,-21.18671,9.237247
23.358712673,11.1048,-168.3191,-31.57203,1.254895,-0.07057707,0.3788331,-51.45734,-21.18671,9.237247
23.368710041,13.31999,-164.5206,-30.5965,1.243038,-0.03726037,0.3281162,-51.45734,-21.18671,9.237247
23.378707409,13.87379,-160.9594,-28.76737,1.211806,-0.01015338,0.2779132,-51.08274,-22.64431,16.47218
23.388704777,12.08933,-158.4073,-27.12116,1.168368,0.01811763,0.2219882,-51.08274,-22.64431,16.47218
23.398701668,7.78200200000001,-157.7544,-25.71884,1.140765,0.007979696,0.1827957,-51.08274,-22.64431,16.47218
23.408699036,3.53621,-157.695,-24.7433,1.131994,-0.01868884,0.1550605,-51.08274,-22.64431,16.47218
23.418696404,2.305545,-156.9828,-24.49942,1.143252,-0.04781152,0.1344696,-51.08274,-22.64431,16.47218
23.428693771,4.151542,-154.7868,-25.41398,1.167199,-0.07822029,0.1052425,-48.83156,-24.39772,24.5612
23.438691616,8.82806800000001,-152.7688,-25.23107,1.19035,-0.09210962,0.07744829,-48.83156,-24.39772,24.5612
23.448688984,13.87379,-149.9199,-26.51146,1.194282,-0.06836993,0.06116374,-48.83156,-24.39772,24.5612
23.458686352,17.56579,-147.7832,-27.2431,1.19356,-0.05645059,0.0377117,-48.83156,-24.39772,24.5612
23.46868372,19.04258,-145.6465,-27.18213,1.190609,-0.02944531,0.02143831,-48.83156,-24.39772,24.5612
23.478681088,18.85798,-142.7976,-27.79184,1.168898,-0.01541003,0.009029562,-46.19278,-26.59914,31.81687
23.488678455,18.24265,-140.1267,-28.21864,1.169062,-0.02493357,-0.02303287,-46.19278,-26.59914,31.81687
23.498675823,18.24265,-137.0998,-28.09669,1.146197,-0.02756157,-0.04835686,-46.19278,-26.59914,31.81687
23.508673668,18.42725,-133.7167,-28.03572,1.121194,-0.01996123,-0.06650113,-46.19278,-26.59914,31.81687
23.518671036,18.36572,-131.2239,-26.99922,1.113854,-0.01884142,-0.08754595,-46.19278,-26.59914,31.81687
23.528668404,17.38119,-128.4937,-25.71884,1.099873,-0.001273787,-0.102362,-42.8306,-27.28388,37.84447
23.538665772,15.84286,-125.9415,-24.19457,1.111921,0.005697242,-0.110042,-42.8306,-27.28388,37.84447
23.548663139,14.55066,-122.3804,-22.79224,1.106914,0.01292254,-0.1062065,-42.8306,-27.28388,37.84447
23.55866003,12.70466,-118.1664,-21.51185,1.104754,0.02399949,-0.1124271,-42.8306,-27.28388,37.84447
23.568657398,10.30486,-113.893,-20.23147,1.104627,0.03080015,-0.1124286,-39.51179,-28.73632,43.10168
23.57865572,8.028135,-109.3822,-19.01205,1.106214,0.02398447,-0.1172154,-39.51179,-28.73632,43.10168
23.588653088,6.05907200000001,-104.1592,-17.48778,1.100486,0.01751459,-0.1215109,-39.51179,-28.73632,43.10168
23.598649979,4.828408,-99.2329599999999,-15.53672,1.087866,0.01479606,-0.1257954,-39.51179,-28.73632,43.10168
23.608647347,4.274609,-93.8912500000002,-13.58565,1.077874,0.001972942,-0.1248175,-39.51179,-28.73632,43.10168
23.618644714,4.213075,-88.78695,-11.8175,1.069609,0.0007675898,-0.13246,-36.12543,-30.19811,47.19833
23.628642082,4.459208,-83.0297699999999,-10.41517,1.077367,0.002895339,-0.1291241,-36.12543,-30.19811,47.19833
23.63863945,5.136074,-77.0351800000003,-8.829934,1.078232,0.008739332,-0.1296057,-36.12543,-30.19811,47.19833
23.648637295,5.136074,-70.74383,-7.91537200000002,1.076428,0.0008935421,-0.1334291,-36.12543,-30.19811,47.19833
23.658634663,5.505273,-63.9776600000003,-6.695957,1.073984,0.00135313,-0.1310321,-36.12543,-30.19811,47.19833
23.66863203,5.320673,-57.09278,-5.598484,1.074975,0.0003306292,-0.1386908,-33.4846,-31.67315,50.38643
23.678629398,4.889941,-49.61438,-4.561981,1.072676,-0.006999522,-0.1382063,-33.4846,-31.67315,50.38643
23.688626766,4.828408,-42.19534,-3.403537,1.071746,-0.009482687,-0.1420326,-33.4846,-31.67315,50.38643
23.698624134,4.643808,-34.53888,-2.306063,1.070572,0.001193591,-0.1410762,-33.4846,-31.67315,50.38643
23.708621502,3.782343,-26.52631,-1.086647,1.066061,0.007938362,-0.13772,-33.4846,-31.67315,50.38643
23.718618393,2.120945,-18.75115,-0.2940276,1.060209,0.008374476,-0.1305313,-31.60053,-32.40945,51.62989
23.728616714,0.705681,-10.56052,0.925387699999998,1.053416,0.006773679,-0.1314762,-31.60053,-32.40945,51.62989
23.738614082,-0.7711166,-2.19184,2.083832,1.050108,0.001398051,-0.1276404,-31.60053,-32.40945,51.62989
23.74861145,-1.817181,6.23619700000001,3.303247,1.041186,0.009526655,-0.1228412,-31.60053,-32.40945,51.62989
23.758608341,-3.047846,14.90164,4.766546,1.04252,0.01637374,-0.120931,-31.60053,-32.40945,51.62989
23.768605709,-4.709243,23.38903,6.29081499999999,1.043882,0.02177232,-0.1180633,-30.88169,-31.24914,53.24187
23.778603077,-7.232106,32.46994,7.57120099999999,1.04143,0.02273523,-0.1137521,-30.88169,-31.24914,53.24187
23.788600445,-9.878035,41.19474,8.85158600000001,1.043922,0.01992145,-0.1080128,-30.88169,-31.24914,53.24187
23.798598289,-12.46243,50.33501,10.4978,1.045476,0.01514099,-0.1027499,-30.88169,-31.24914,53.24187
23.808595657,-13.75463,58.8223999999999,12.14401,1.04024,0.00883435,-0.09029621,-30.88169,-31.24914,53.24187
23.818593025,-14.80069,67.48784,14.09507,1.047494,0.01195033,-0.08408817,-31.23365,-32.02628,51.63065
23.828590393,-15.23143,75.79717,15.61934,1.059302,0.005848852,-0.08602149,-31.23365,-32.02628,51.63065
23.838587761,-15.16989,84.5219699999999,17.02167,1.089787,-0.008560401,-0.08032801,-31.23365,-32.02628,51.63065
23.848585129,-14.43149,93.7215800000002,18.97273,1.129791,-0.01050586,-0.06077563,-31.23365,-32.02628,51.63065
23.858582497,-13.93923,102.8618,21.04574,1.15602,-0.005394866,-0.03689387,-31.23365,-32.02628,51.63065
23.868580341,-13.57003,112.1208,23.11874,1.18563,0.001210053,-0.01636842,-33.11434,-31.29652,49.61317
23.878577709,-13.8777,121.0237,24.8869,1.198355,-0.001256782,0.005145958,-33.11434,-31.29652,49.61317
23.888575077,-14.06229,130.1046,26.16728,1.200174,-0.0201331,0.009454833,-33.11434,-31.29652,49.61317
23.898572445,-13.44696,139.3636,27.50864,1.206424,-0.04128138,0.02141378,-33.11434,-31.29652,49.61317
23.908569813,-12.27783,148.7412,28.66708,1.199028,-0.03651106,0.02764694,-33.11434,-31.29652,49.61317
23.918566704,-11.97016,158.0596,30.06941,1.191661,-0.03315853,0.03818759,-35.72424,-30.97672,44.75416
23.928564072,-12.89316,165.6567,31.59368,1.188823,-0.03751351,0.04632945,-35.72424,-30.97672,44.75416
23.938562393,-14.36996,172.4822,32.93504,1.204577,-0.04587025,0.05491851,-35.72424,-30.97672,44.75416
23.948559761,-13.93923,178.5955,34.4593,1.243334,-0.05963014,0.06059741,-35.72424,-30.97672,44.75416
23.958556652,-12.5855,184.5307,35.98357,1.280107,-0.07145474,0.0696293,-35.72424,-30.97672,44.75416
23.96855402,-9.44730199999998,190.466,37.14202,1.326009,-0.07624318,0.08438636,-40.22636,-29.53971,38.71415
23.978551388,-6.12450699999998,195.5703,37.93464,1.359504,-0.06914573,0.09724769,-40.22636,-29.53971,38.71415
23.988548756,-3.355512,199.8436,38.54435,1.38012,-0.05052612,0.1225715,-40.22636,-29.53971,38.71415
23.998546124,-2.74018,202.8112,39.09308,1.406787,-0.04308204,0.1349661,-40.22636,-29.53971,38.71415
24.008543491,-2.309447,205.304,39.58085,1.412025,-0.03592972,0.1617554,-40.22636,-29.53971,38.71415
24.018541336,-2.001781,207.8562,39.51988,1.408217,-0.04016349,0.1852133,-44.67103,-27.36223,30.21954
24.028538704,-1.263382,209.9929,39.51988,1.407697,-0.0637612,0.2096277,-44.67103,-27.36223,30.21954
24.038536072,0.8287475,212.545,38.54435,1.380606,-0.07387929,0.2245134,-44.67103,-27.36223,30.21954
24.04853344,4.151542,213.9101,38.11755,1.365709,-0.08477659,0.2341136,-44.67103,-27.36223,30.21954
24.058530808,7.16667,216.1655,37.20299,1.334358,-0.07547538,0.2561804,-44.67103,-27.36223,30.21954
24.068528175,9.19726699999998,217.768,36.65425,1.305609,-0.07557499,0.2543163,-48.01881,-26.70528,20.90241
24.078525066,9.68953300000002,219.2518,34.64222,1.273712,-0.08915015,0.2735184,-48.01881,-26.70528,20.90241
24.088523388,11.04326,218.1835,34.70319,1.232654,-0.08202397,0.2912955,-48.01881,-26.70528,20.90241
24.098520756,12.45853,218.6583,33.78863,1.214833,-0.06659782,0.3162085,-48.01881,-26.70528,20.90241
24.108518124,12.45853,218.8364,32.75212,1.172106,-0.04827094,0.3402071,-48.01881,-26.70528,20.90241
24.118515015,10.1818,218.3022,32.14242,1.141714,-0.03787802,0.3732791,-50.30872,-22.68608,10.86621
24.128512383,6.98206999999997,217.6493,31.53271,1.135119,-0.0495174,0.3900438,-50.30872,-22.68608,10.86621
24.13850975,4.889941,215.5126,31.53271,1.128908,-0.05586085,0.4005849,-50.30872,-22.68608,10.86621
24.148507118,1.505613,212.7824,30.61815,1.104912,-0.07441033,0.4432248,-50.30872,-22.68608,10.86621
24.158504963,-0.5249836,210.8832,30.49621,1.080521,-0.09856299,0.4585879,-51.78586,-21.64398,0.4644527
24.168502331,-1.324916,208.9245,30.49621,1.053739,-0.1252189,0.4710845,-51.78586,-21.64398,0.4644527
24.178499699,-0.955716300000001,206.6098,30.55718,1.008948,-0.1269442,0.4855203,-51.78586,-21.64398,0.4644527
24.188497067,-0.586516899999998,203.5235,30.37426,0.9632415,-0.1058131,0.5037804,-51.78586,-21.64398,0.4644527
24.198494434,-1.447982,198.894,30.13038,0.9237155,-0.07620687,0.5320777,-51.78586,-21.64398,0.4644527
24.208491802,-5.75530800000001,194.3832,28.72805,0.862313,-0.07517795,0.5647277,-50.3013,-19.04869,-8.826664
24.21848917,-8.27817099999997,188.9228,27.44767,0.8232456,-0.09619706,0.5825084,-50.3013,-19.04869,-8.826664
24.228487015,-8.70890300000002,184.5307,25.80146,0.7940001,-0.1214702,0.5921375,-50.3013,-19.04869,-8.826664
24.238484383,-5.447642,181.5037,23.24068,0.7581206,-0.1308558,0.5998596,-50.3013,-19.04869,-8.826664
24.248481751,-1.571049,178.5955,21.28962,0.7255687,-0.1365733,0.5764676,-50.3013,-19.04869,-8.826664
24.258479118,1.505613,175.6872,18.85079,0.7099368,-0.108001,0.5994592,-47.2664,-19.09756,-17.25396
24.268476486,0.3980148,172.4228,17.75332,0.6774137,-0.08794453,0.6310967,-47.2664,-19.09756,-17.25396
24.278473377,0.4595481,168.8617,17.32652,0.6303966,-0.0496043,0.6211187,-47.2664,-19.09756,-17.25396
24.288470745,-4.893843,167.6746,15.61934,0.603861,-0.03732301,0.6398263,-47.2664,-19.09756,-17.25396
24.298469067,-11.41637,164.529,17.02167,0.5461404,-0.025207,0.6547596,-47.2664,-19.09756,-17.25396
24.308466435,-19.66182,158.8905,18.18011,0.4936612,-0.03224963,0.6888318,-43.91296,-16.84405,-23.62663
24.318463326,-27.10734,152.243,19.58244,0.4516921,-0.05498567,0.6846037,-43.91296,-16.84405,-23.62663
24.328460693,-33.1376,144.824,21.41156,0.3919405,-0.09060662,0.6914171,-43.91296,-16.84405,-23.62663
24.338458061,-37.26033,136.2179,23.48457,0.3280189,-0.08606893,0.6881773,-43.91296,-16.84405,-23.62663
24.348455429,-42.12145,127.315,24.64301,0.2829669,-0.1256413,0.7093233,-43.91296,-16.84405,-23.62663
24.358452797,-41.99838,117.5812,25.37466,0.2541317,-0.121492,0.6940582,-39.4913,-14.9602,-29.6669
24.368450642,-42.73678,109.8654,24.09428,0.229659,-0.1420351,0.6792702,-39.4913,-14.9602,-29.6669
24.37844801,-41.44458,100.8439,22.9968,0.2022469,-0.1616161,0.6697515,-39.4913,-14.9602,-29.6669
24.388445377,-37.99872,92.0597199999998,21.28962,0.166235,-0.165117,0.630572,-39.4913,-14.9602,-29.6669
24.398442745,-33.75293,83.7503899999998,18.91176,0.1441096,-0.2070741,0.6071711,-39.4913,-14.9602,-29.6669
24.408440113,-28.03034,75.61911,16.77778,0.1343019,-0.2046899,0.5703373,-35.7455,-14.19861,-32.86816
24.418437481,-22.67695,68.5561800000002,15.00963,0.1279785,-0.2060763,0.5387626,-35.7455,-14.19861,-32.86816
24.428434849,-16.15442,61.84936,13.48536,0.1034437,-0.1975167,0.5182245,-35.7455,-14.19861,-32.86816
24.438432694,-11.2933,55.32061,11.71721,0.07988852,-0.1631259,0.5038993,-35.7455,-14.19861,-32.86816
24.448430061,-9.57036899999999,47.90156,10.43683,0.03586975,-0.1285262,0.5034885,-35.7455,-14.19861,-32.86816
24.458427429,-9.81650199999998,39.82964,8.85158600000001,0.01550696,-0.1344187,0.4877326,-32.40786,-11.91459,-35.62882
24.468424797,-12.09323,31.34225,6.90052199999999,0.009255967,-0.1389376,0.4853518,-32.40786,-11.91459,-35.62882
24.478421688,-14.73916,22.32069,4.888487,0.01290111,-0.1515571,0.4791272,-32.40786,-11.91459,-35.62882
24.488419056,-15.10836,13.53654,2.937423,0.02081654,-0.1583925,0.4585364,-32.40786,-11.91459,-35.62882
24.498416424,-16.21596,4.871092,0.864416900000002,0.006485999,-0.1737442,0.4580868,-32.40786,-11.91459,-35.62882
24.508414269,-16.27749,-4.803344,-1.147618,-0.001347214,-0.1976925,0.4600209,-30.54032,-11.52344,-36.00394
24.518411636,-12.4009,-13.52814,-3.281595,0.01177967,-0.2223171,0.4489971,-30.54032,-11.52344,-36.00394
24.528409004,-6.61677399999998,-20.88784,-5.964308,0.04444551,-0.2230594,0.4565976,-30.54032,-11.52344,-36.00394
24.538406372,-1.140316,-27.89142,-8.58605100000002,0.03907656,-0.1963158,0.4700002,-30.54032,-11.52344,-36.00394
24.54840374,2.244012,-35.48852,-10.84197,0.04383394,-0.1897511,0.4867403,-30.54032,-11.52344,-36.00394
24.558401108,5.136074,-43.38238,-12.97595,0.05020016,-0.1908813,0.508744,-29.42198,-11.13846,-36.44913
24.568398476,6.305205,-51.4543,-15.23186,0.07338005,-0.1789792,0.5378937,-29.42198,-11.13846,-36.44913
24.57839632,6.73593800000001,-60.59457,-17.12196,0.09062995,-0.1885448,0.5704092,-29.42198,-11.13846,-36.44913
24.588393688,7.35127000000003,-70.4470699999999,-19.13399,0.1101021,-0.2126405,0.6034033,-29.42198,-11.13846,-36.44913
24.598391056,10.67406,-80.4776200000001,-21.14603,0.131743,-0.2483164,0.6407036,-29.42198,-11.13846,-36.44913
24.608388424,18.61185,-89.9739899999998,-23.15806,0.1696658,-0.269281,0.6573931,-31.30274,-11.1389,-34.85053
24.618385792,26.79577,-97.8085100000001,-25.41398,0.2158278,-0.2875259,0.6879462,-31.30274,-11.1389,-34.85053
24.62838316,36.21035,-104.2779,-27.54796,0.2541958,-0.2802927,0.7051061,-31.30274,-11.1389,-34.85053
24.638380051,46.54794,-109.9757,-29.25514,0.2789981,-0.2515567,0.7117556,-31.30274,-11.1389,-34.85053
24.648378372,53.07046,-113.9524,-30.23067,0.3162695,-0.2117301,0.7351306,-31.30274,-11.1389,-34.85053
24.65837574,55.22412,-119.2347,-30.53553,0.3394725,-0.1750049,0.768581,-34.30354,-11.52105,-32.41974
24.668373108,54.30112,-126.1789,-30.35261,0.3415677,-0.1563004,0.7901084,-34.30354,-11.52105,-32.41974
24.678369999,54.23959,-135.3786,-29.80388,0.3570907,-0.1533807,0.7570589,-34.30354,-11.52105,-32.41974
24.688367367,53.80886,-142.4415,-30.04776,0.4234645,-0.15889,0.7550303,-34.30354,-11.52105,-32.41974
24.698364735,52.39359,-149.0296,-28.46252,0.4833511,-0.130617,0.7415185,-34.30354,-11.52105,-32.41974
24.708362102,48.7016,-153.481,-27.12116,0.5470747,-0.09873927,0.7418778,-37.6544,-13.41437,-28.4356
24.718359947,42.54827,-157.5763,-25.71884,0.5808015,-0.104456,0.7346418,-37.6544,-13.41437,-28.4356
24.728357315,35.84116,-162.5619,-23.58486,0.5970454,-0.1134951,0.7207372,-37.6544,-13.41437,-28.4356
24.738354683,31.59536,-166.6572,-21.93865,0.6342504,-0.1231754,0.6977032,-37.6544,-13.41437,-28.4356
24.748352051,27.16497,-167.3101,-21.75574,0.6855626,-0.1572722,0.6842223,-41.38088,-15.67396,-22.45271
24.758349419,28.02644,-165.6483,-21.32894,0.7189587,-0.1455805,0.6683681,-41.38088,-15.67396,-22.45271
24.768346786,27.34957,-161.9684,-21.38991,0.745741,-0.09326179,0.6458148,-41.38088,-15.67396,-22.45271
24.778344631,21.68851,-159.8911,-20.47535,0.7433141,-0.04175168,0.6510701,-41.38088,-15.67396,-22.45271
24.788341999,11.78166,-160.7814,-18.64623,0.7596174,0.02414622,0.6481533,-41.38088,-15.67396,-22.45271
24.798339367,-4.893843,-165.5889,-16.57322,0.7947031,0.0245026,0.6643636,-45.06628,-17.16147,-15.18341
24.808336735,-20.21562,-173.8389,-14.86604,0.8332869,-0.0320762,0.6643109,-45.06628,-17.16147,-15.18341
24.818334103,-26.73814,-181.5547,-14.98798,0.8960807,-0.1068048,0.6465135,-45.06628,-17.16147,-15.18341
24.82833147,-26.30741,-185.65,-17.36584,0.966714,-0.1837994,0.62966,-45.06628,-17.16147,-15.18341
24.838328361,-17.81582,-186.8964,-20.1705,1.007453,-0.2259635,0.6071067,-45.06628,-17.16147,-15.18341
24.848326683,-4.83231,-185.1752,-23.46292,1.0313,-0.1989805,0.5836079,-48.41553,-19.78826,-7.970203
24.858324051,4.274609,-182.3856,-26.26757,1.034051,-0.138337,0.5668374,-48.41553,-19.78826,-7.970203
24.868320942,8.028135,-181.7327,-27.42602,1.004912,-0.06619252,0.5482051,-48.41553,-19.78826,-7.970203
24.87831831,6.05907200000001,-181.2579,-28.09669,0.9990509,-0.01398016,0.5314518,-48.41553,-19.78826,-7.970203
24.888315678,0.705681,-180.3083,-28.7064,1.027078,-0.001956829,0.5103424,-48.41553,-19.78826,-7.970203
24.898313045,-4.032378,-179.2399,-29.01126,1.054187,-0.01922656,0.4763208,-50.66582,-21.26227,-0.3677368
24.908310413,-4.83231,-177.8748,-29.55999,1.081968,-0.04613605,0.449479,-50.66582,-21.26227,-0.3677368
24.918308258,-2.801713,-176.6284,-29.74291,1.101859,-0.04210996,0.4216859,-50.66582,-21.26227,-0.3677368
24.928305626,-0.709583300000001,-175.4414,-28.64543,1.131389,-0.006188771,0.4067893,-50.66582,-21.26227,-0.3677368
24.938302994,-3.355512,-175.0853,-26.99922,1.164298,0.03191401,0.4105507,-50.66582,-21.26227,-0.3677368
24.948300362,-8.64737,-174.8479,-26.69437,1.189842,0.04701008,0.411938,-51.04776,-22.71186,8.474136
24.958297729,-14.18536,-173.8389,-26.81631,1.21166,0.02633072,0.3884551,-51.04776,-22.71186,8.474136
24.968295097,-17.75429,-172.6518,-27.2431,1.233501,-0.02157846,0.3630648,-51.04776,-22.71186,8.474136
24.978292465,-16.89282,-171.168,-28.21864,1.228797,-0.05751798,0.3224033,-51.04776,-22.71186,8.474136
24.98829031,-13.07776,-169.15,-29.1332,1.224909,-0.08529442,0.2692953,-51.04776,-22.71186,8.474136
24.998287678,-8.15510499999999,-168.5565,-29.19417,1.214731,-0.08929187,0.2262422,-50.67655,-24.16292,16.48307
25.008285046,-3.601645,-168.1411,-29.31611,1.200358,-0.07723963,0.193721,-50.67655,-24.16292,16.48307
25.018282413,-0.955716300000001,-167.8443,-29.49902,1.193212,-0.06059217,0.1698004,-50.67655,-24.16292,16.48307
25.028279781,-0.03271778,-167.6069,-29.43805,1.204164,-0.0474089,0.1530277,-50.67655,-24.16292,16.48307
25.038276672,0.1518819,-166.7166,-29.43805,1.220997,-0.03609707,0.1314595,-50.67655,-24.16292,16.48307
25.048274994,-0.2173175,-165.2328,-30.35261,1.225729,-0.02878025,0.1242708,-49.16501,-26.30612,24.11706
25.058272362,0.705681,-162.5026,-31.75494,1.228393,-0.04162527,0.09555487,-49.16501,-26.30612,24.11706
25.068269253,2.982411,-159.8911,-31.633,1.214398,-0.04938829,0.07404534,-49.16501,-26.30612,24.11706
25.078266621,5.013007,-157.3983,-31.26718,1.187171,-0.02730189,0.05063689,-49.16501,-26.30612,24.11706
25.088263989,5.505273,-154.6087,-31.14523,1.16712,-0.02400789,0.02913507,-49.16501,-26.30612,24.11706
25.098261356,5.62834,-152.6501,-29.86485,1.160394,-0.02970107,0.005698035,-46.9344,-26.98513,31.81333
25.108258724,5.87447300000001,-149.6231,-29.74291,1.148769,-0.03405953,-0.02060226,-46.9344,-26.98513,31.81333
25.118256569,6.92053700000001,-146.5368,-29.19417,1.158538,-0.06174504,-0.04023378,-46.9344,-26.98513,31.81333
25.128253937,10.24333,-143.5098,-28.64543,1.177753,-0.07307626,-0.04552869,-46.9344,-26.98513,31.81333
25.138251305,13.99686,-139.0584,-28.40155,1.166751,-0.05832155,-0.05556341,-46.9344,-26.98513,31.81333
