Time (s),Gyroscope X (deg/s),Gyroscope Y (deg/s),Gyroscope Z (deg/s),Accelerometer X (g),Accelerometer Y (g),Accelerometer Z (g),Magnetometer X (uT),Magnetometer Y (uT),Magnetometer Z (uT)
18.72977972,-2.10698,6.1182,-2.546346,0.4383827,-0.1034628,0.9055567,-29.07711,-20.80219,-19.84271
18.739690781,-2.354732,4.195886,-2.791798,0.4501245,-0.124288,0.8817816,-29.07711,-20.80219,-19.84271
18.749602318,-1.054033,3.846374,-2.300895,0.4555484,-0.1388313,0.8691505,-29.07711,-20.80219,-19.84271
18.759513378,3.653259,5.186169,-1.257725,0.4632611,-0.140742,0.8561021,-29.07711,-20.80219,-19.84271
18.769424915,8.54636400000002,6.93372799999998,-0.3986447,0.4583391,-0.1359421,0.8585804,-29.07711,-20.80219,-19.84271
18.779335976,8.67023999999999,7.28324000000001,-0.3372818,0.4424687,-0.1321037,0.8890027,-28.69961,-21.17858,-20.29322
18.789247513,2.724188,5.360925,-0.705459200000001,0.4504846,-0.125564,0.9153808,-28.69961,-21.17858,-20.29322
18.799159527,-3.283803,4.60365,-1.319088,0.4778178,-0.1311001,0.9040475,-28.69961,-21.17858,-20.29322
18.809070587,-3.965122,5.76868899999999,-1.748629,0.4820182,-0.1399297,0.8741801,-28.69961,-21.17858,-20.29322
18.818982124,0.3705419,6.29295599999999,-1.196362,0.4652914,-0.1333618,0.8719777,-28.69961,-21.17858,-20.29322
18.828893185,4.458453,4.487145,-0.4600076,0.4455239,-0.1137154,0.8746923,-29.06555,-21.92937,-20.67443
18.838804722,5.5114,1.166783,-0.03046724,0.4363468,-0.1103583,0.8896844,-29.06555,-21.92937,-20.67443
18.848715782,6.19271900000002,0.5842639,0.1536215,0.4597917,-0.1042238,0.89431,-29.06555,-21.92937,-20.67443
18.858627319,5.82109000000002,1.399791,0.03089567,0.4736593,-0.08762335,0.8832487,-29.06555,-21.92937,-20.67443
18.86853838,4.520391,3.613366,0.583161800000002,0.478792,-0.07695226,0.8717485,-29.06555,-21.92937,-20.67443
18.878449917,9.90900100000002,6.29295599999999,-0.3986447,0.4772328,-0.09530696,0.8889264,-28.7026,-21.18198,-21.1284
18.888360977,11.64327,8.50653100000001,-3.589516,0.4500591,-0.03042392,0.9376258,-28.7026,-21.18198,-21.1284
18.898272514,-3.097989,6.00169699999999,-2.914524,0.4403666,-0.06611106,0.9043468,-28.7026,-21.18198,-21.1284
18.908183575,-0.992095199999997,4.778405,-2.975887,0.4414629,-0.08798847,0.8902662,-28.7026,-21.18198,-21.1284
18.918095112,4.024887,3.788122,-2.914524,0.4500545,-0.07335322,0.8869231,-28.7026,-21.18198,-21.1284
18.928006172,1.175737,3.904626,-1.135,0.4577143,-0.09650671,0.8914996,-28.33643,-20.43093,-20.68294
18.937917709,1.547365,4.60365,-0.214556,0.5073606,-0.1596459,0.9381555,-28.33643,-20.43093,-20.68294
18.94782877,9.10380600000001,9.43856100000003,-1.196362,0.5360972,-0.1781191,0.9531319,-28.33643,-20.43093,-20.68294
18.96021843,28.49042,15.72977,-1.871354,0.5222087,-0.1605929,0.9068017,-28.33643,-20.43093,-20.68294
18.97012949,33.63128,14.68124,-3.834968,0.4687718,-0.0535371,0.9233742,-28.70099,-21.18015,-20.67869
18.980041027,2.166745,8.33177500000003,-2.546346,0.432554,-0.03644731,0.9401482,-28.70099,-21.18015,-20.67869
18.989952087,0.989922399999999,6.64246800000002,-2.116806,0.4462262,-0.02824119,0.9002234,-28.70099,-21.18015,-20.67869
18.999863625,3.467444,7.39974399999998,-3.344064,0.4351205,-0.01880123,0.8773414,-28.70099,-21.18015,-20.67869
19.009774685,4.458453,9.38030999999998,-4.141782,0.4475866,-0.04779049,0.8669497,-28.70099,-21.18015,-20.67869
19.019686222,5.387524,13.16669,-3.282701,0.4580308,-0.09073663,0.8814518,-28.32051,-21.55314,-20.29401
19.029597282,-1.4876,15.14725,-0.889547900000002,0.4652444,-0.151914,0.9409974,-28.32051,-21.55314,-20.29401
19.03950882,2.476436,17.01132,1.933146,0.4714705,-0.1716539,0.9528122,-28.32051,-21.55314,-20.29401
19.04941988,7.617294,15.84628,5.369469,0.4736044,-0.1386143,0.9611753,-28.32051,-21.55314,-20.29401
19.059331417,8.91799300000002,15.90453,6.78081600000001,0.4843971,-0.145042,1.004727,-28.32051,-21.55314,-20.29401
19.069242477,8.11279800000001,16.89481,7.21035599999999,0.5001548,-0.1274757,0.9883729,-27.56714,-21.92768,-20.29675
19.079154015,6.37853299999997,17.01132,7.946711,0.4825313,-0.1230773,0.9439105,-27.56714,-21.92768,-20.29675
19.089065075,3.901011,17.06957,9.84896099999999,0.4509529,-0.09362181,0.9031052,-27.56714,-21.92768,-20.29675
19.098976612,10.34257,19.34139,8.43761400000001,0.4346344,-0.05318281,0.9803507,-27.56714,-21.92768,-20.29675
19.108887672,31.77314,29.01122,5.001291,0.5195519,-0.0860908,1.068656,-27.56714,-21.92768,-20.29675
19.11879921,17.65126,37.05,3.405856,0.5295998,0.02440672,1.128839,-27.19587,-21.93105,-21.13388
19.12871027,-4.64644,43.2247,4.571751,0.5521379,-0.06625909,1.074728,-27.19587,-21.93105,-21.13388
19.138621807,-6.38070599999998,45.26352,4.387662,0.5282525,-0.1262813,0.9641131,-27.19587,-21.93105,-21.13388
19.148532867,-6.00907800000001,37.98203,13.5921,0.4447158,-0.08657057,0.8753607,-27.19587,-21.93105,-21.13388
19.158444405,-5.88520100000001,31.2248,16.66024,0.4000652,-0.01965191,0.8911043,-27.19587,-21.93105,-21.13388
19.168355465,-8.73435200000001,34.07914,16.66024,0.3510098,-0.01034262,0.9343541,-26.45381,-21.55823,-21.58863
19.178267002,-15.9811,37.86552,15.2489,0.3017207,-0.04456973,0.9038519,-26.45381,-21.55823,-21.58863
19.188178062,-13.62746,38.56454,11.75121,0.3036449,-0.09577237,0.9361437,-26.45381,-21.55823,-21.58863
19.1980896,-5.265821,37.98203,8.31488799999999,0.3807059,-0.1105073,0.9948724,-26.45381,-21.55823,-21.58863
19.20800066,0.3705419,40.3121,6.65808999999999,0.4557304,-0.1031179,1.023998,-26.45381,-21.55823,-21.58863
19.217912197,4.458453,42.93344,7.88534800000001,0.5045465,-0.05475114,0.9772931,-25.34025,-21.18851,-22.81628
19.227823257,4.520391,44.73925,10.03305,0.4614245,-0.02436737,0.9562871,-25.34025,-21.18851,-22.81628
19.240212441,-6.13295399999998,38.50629,12.18075,0.3119477,0.0023579,0.8594152,-25.34025,-21.18851,-22.81628
19.250123978,-15.60948,30.87529,13.40801,0.2170786,-0.002746831,0.7575046,-25.34025,-21.18851,-22.81628
19.260035038,-16.10498,28.02094,11.13758,0.1591095,-0.008728301,0.7719255,-25.34025,-21.18851,-22.81628
19.269946575,-14.55653,30.23451,8.74442899999999,0.1394379,0.01341579,0.8822112,-24.22207,-21.19365,-24.10701
19.279857636,-11.33575,32.27333,7.21035599999999,0.1593068,-0.00812896,0.8871656,-24.22207,-21.19365,-24.10701
19.289769173,-6.75233400000001,27.38017,5.98309800000002,0.2083797,0.01037585,0.8781922,-24.22207,-21.19365,-24.10701
19.299680233,-9.911175,22.72001,4.694477,0.2554126,0.0007679733,0.8757727,-24.22207,-21.19365,-24.10701
19.30959177,-12.82226,21.38021,2.914952,0.2702733,-0.04382659,0.8422072,-24.22207,-21.19365,-24.10701
19.319502831,-13.37971,19.39965,1.749057,0.2273718,-0.0716164,0.8222522,-23.1009,-21.19538,-24.56256
19.329414368,-11.95513,17.71034,0.1536215,0.1931639,-0.08959594,0.8032424,-23.1009,-21.19538,-24.56256
19.339325428,-7.74334299999998,17.24433,-1.748629,0.1279045,-0.1329678,0.7305729,-23.1009,-21.19538,-24.56256
19.349236965,-2.850237,14.38998,-2.423621,0.09901667,-0.1543251,0.7018884,-23.1009,-21.19538,-24.56256
19.359148979,2.848064,11.9434,-3.282701,0.09683593,-0.1437349,0.6923759,-23.1009,-21.19538,-24.56256
19.36906004,6.37853299999997,6.52596399999999,-4.755411,0.07606233,-0.1299692,0.6854573,-22.35675,-21.20029,-25.7871
19.378971577,4.520391,-0.930287099999998,-5.553129,0.08089428,-0.1016452,0.7129704,-22.35675,-21.20029,-25.7871
19.388882637,1.795117,-6.17296399999999,-6.044032,0.07525082,-0.08696795,0.7520132,-22.35675,-21.20029,-25.7871
19.398794174,2.910002,-9.95934199999999,-6.289484,0.09869737,-0.07570624,0.8104506,-22.35675,-21.20029,-25.7871
19.408705235,2.910002,-12.40592,-5.859943,0.1648452,-0.07114481,0.8766113,-22.35675,-21.20029,-25.7871
19.418616772,4.520391,-12.98844,-5.675855,0.2236387,-0.04498266,0.9184957,-21.23584,-20.82221,-24.95891
19.428527832,6.56434699999999,-13.51271,-5.859943,0.2352577,-0.04367212,0.9563296,-21.23584,-20.82221,-24.95891
19.438439369,5.94496599999999,-15.49328,-7.20992699999999,0.2658787,-0.02606035,1.00658,-21.23584,-20.82221,-24.95891
19.44835043,7.30760400000002,-14.91076,-9.41899200000002,0.2921947,-0.03406818,0.9885176,-21.23584,-20.82221,-24.95891
19.458261967,12.63428,-12.87194,-10.8917,0.2792088,-0.05778403,0.934222,-21.23584,-20.82221,-24.95891
19.468173027,17.27963,-13.86222,-11.62806,0.2535484,-0.07651272,0.9372154,-22.73448,-20.82416,-25.40084
19.478084564,20.43847,-14.21173,-12.18032,0.2245607,-0.0854785,0.9609515,-22.73448,-20.82416,-25.40084
19.487995625,21.05785,-14.09523,-13.77576,0.210694,-0.08183899,0.9481397,-22.73448,-20.82416,-25.40084
19.497907162,20.37653,-17.12433,-15.61665,0.2359266,-0.0830846,0.9277315,-22.73448,-20.82416,-25.40084
19.507818222,21.24366,-18.93014,-15.37119,0.2713342,-0.09595746,0.8845841,-22.73448,-20.82416,-25.40084
19.520207405,17.65126,-24.75534,-9.84853300000002,0.2808183,-0.083554,0.8226386,-22.72989,-20.81893,-24.11595
19.530118942,13.68722,-32.38634,-5.73721700000003,0.2391063,-0.03562048,0.8166215,-22.72989,-20.81893,-24.11595
19.540030003,12.26265,-38.09504,-4.509959,0.1954921,-0.02084543,0.8723415,-22.72989,-20.81893,-24.11595
19.54994154,11.2097,-41.24064,-4.632685,0.1949959,-0.02621236,0.9606595,-22.72989,-20.81893,-24.11595
19.5598526,13.12978,-41.47365,-5.36904,0.2472168,-0.06681439,1.046335,-22.72989,-20.81893,-24.11595
19.569764137,21.49142,-37.68727,-5.491766,0.3434918,-0.1007475,1.096595,-23.09631,-21.19016,-23.27767
19.579675198,33.44546,-30.75529,-7.33265300000001,0.4590075,-0.07948782,1.085105,-23.09631,-21.19016,-23.27767
19.589586735,44.03687,-22.0175,-10.76898,0.536141,-0.01078789,1.05796,-23.09631,-21.19016,-23.27767
19.599497795,37.84306,-14.15348,-12.67123,0.5274472,0.07451494,1.073014,-23.09631,-21.19016,-23.27767
19.609409332,13.99691,-9.84283699999999,-13.59167,0.4427589,0.1348592,1.039147,-23.09631,-21.19016,-23.27767
19.619320393,-4.088998,-12.17292,-14.45075,0.3294662,0.1415503,0.9187597,-24.57905,-21.93424,-21.98268
19.62923193,-12.14094,-20.6777,-12.97804,0.2575551,0.04185639,0.8467369,-24.57905,-21.93424,-21.98268
19.63914299,-20.6884,-24.28932,-6.84175,0.2545492,-0.05625794,0.8201825,-24.57905,-21.93424,-21.98268
19.649054527,-24.52855,-24.98835,-0.889547900000002,0.2695507,-0.1663846,0.7712942,-24.57905,-21.93424,-21.98268
19.658965588,-10.2828,-24.87184,2.178597,0.2688991,-0.2159832,0.7450413,-24.57905,-21.93424,-21.98268
19.668877125,8.48442599999998,-27.43493,3.037678,0.3014767,-0.1956592,0.8461888,-24.57282,-22.30726,-21.59606
19.678788185,14.43048,-29.532,2.485412,0.3534493,-0.1676099,0.9880218,-24.57282,-22.30726,-21.59606
19.688699722,10.59032,-31.22131,2.730864,0.4636753,-0.1749036,0.999438,-24.57282,-22.30726,-21.59606
19.698610783,-5.88520100000001,-23.29904,5.124017,0.5722517,-0.09768971,0.9490118,-24.57282,-22.30726,-21.59606
19.70852232,-21.55553,-7.62926299999999,7.39444499999999,0.5476506,0.05579615,0.7802859,-24.57282,-22.30726,-21.59606
19.71843338,-21.24584,-1.279799,6.65808999999999,0.3461031,0.1534456,0.6478758,-24.94223,-22.68189,-21.59296
19.728344917,-10.77831,-16.48356,2.546775,0.2147731,0.05923748,0.7483358,-24.94223,-22.68189,-21.59296
19.738256931,-12.3887,-40.36686,-0.889547900000002,0.2551102,-0.06424984,0.9608104,-24.94223,-22.68189,-21.59296
19.748167992,-24.09499,-50.79396,-0.1531931,0.3913541,-0.1316444,1.007117,-24.94223,-22.68189,-21.59296
19.758079529,-20.37871,-48.46389,0.889976299999999,0.4574921,-0.1685603,0.928474,-24.94223,-22.68189,-21.59296
19.767990589,-3.779308,-40.54162,2.362686,0.5181473,-0.1480369,0.9069229,-25.31973,-22.30549,-21.14245
19.777902126,8.42248799999999,-30.40578,3.405856,0.5729373,-0.1088008,0.9551735,-25.31973,-22.30549,-21.14245
19.787813187,14.92598,-20.26994,3.160404,0.5904471,-0.08594123,1.020465,-25.31973,-22.30549,-21.14245
19.800201893,19.13777,-10.1341,3.651307,0.5628158,-0.01202803,1.035138,-25.31973,-22.30549,-21.14245
19.81011343,27.37553,-6.93023899999998,2.424049,0.5176435,0.02998942,1.01855,-27.18642,-22.30042,-19.84783
19.82002449,31.52538,-10.94963,-0.3986447,0.4787211,0.1034989,1.076058,-27.18642,-22.30042,-19.84783
19.829936504,15.29761,-13.10495,-3.098613,0.4785393,0.1538877,1.069673,-27.18642,-22.30042,-19.84783
19.839847565,-1.054033,-6.34771999999997,-4.325871,0.5072673,0.13345,0.9862041,-27.18642,-22.30042,-19.84783
19.849759102,-7.12396199999998,3.263854,-7.394016,0.4414846,0.1061517,0.9290117,-27.18642,-22.30042,-19.84783
19.859670162,-9.72536099999999,6.93372799999998,-11.44397,0.4063133,0.04890355,0.9131104,-27.55285,-22.67164,-19.00955
19.869581699,-13.50358,4.661901,-12.85531,0.4149977,-0.01786758,0.9188273,-27.55285,-22.67164,-19.00955
19.87949276,-17.71537,-0.05650773,-10.58489,0.4397807,-0.06128957,0.900543,-27.55285,-22.67164,-19.00955
19.889404297,-19.3877,-3.260366,-7.45537899999998,0.4416793,-0.08909976,0.8624076,-27.55285,-22.67164,-19.00955
19.899315357,-14.9901,-7.33800299999997,-4.694048,0.4178017,-0.08375209,0.829053,-27.55285,-22.67164,-19.00955
19.909226894,-10.2828,-11.64865,-4.755411,0.3816555,-0.05028791,0.8243285,-27.92871,-22.6735,-19.45732
19.919137955,-13.6894,-15.55153,-6.65766099999999,0.3723452,-0.009687351,0.8222843,-27.92871,-22.6735,-19.45732
19.929049492,-19.3877,-16.83307,-8.62127400000002,0.3977867,-0.01521457,0.8172106,-27.92871,-22.6735,-19.45732
19.938960552,-15.4856,-11.24088,-9.72580600000002,0.4798737,-0.04738705,0.773503,-27.92871,-22.6735,-19.45732
19.948872089,-5.575511,0.46776,-8.31446000000002,0.5548133,-0.07052531,0.8062669,-27.92871,-22.6735,-19.45732
19.95878315,-1.859228,9.55506599999997,-8.86672600000002,0.4634151,-0.09164196,0.8809158,-27.56415,-21.92428,-19.46157
19.968694687,-3.531555,4.312389,-9.84853300000002,0.4316846,-0.1344431,0.9313408,-27.56415,-21.92428,-19.46157
19.978605747,-98.2967799999999,-15.20202,0.6445247,0.2271292,0.1992288,1.067979,-27.56415,-21.92428,-19.46157
19.988517284,-37.65942,-20.03693,-3.650879,0.5909153,-0.5054231,0.9086705,-27.56415,-21.92428,-19.46157
19.998428345,-8.11497100000001,-10.71662,-3.405427,0.4877607,-0.1933227,0.9424338,-27.56415,-21.92428,-19.46157
20.008339882,-9.60148500000001,-17.59035,-2.055443,0.4338795,-0.2035626,0.8737212,-27.9414,-21.92771,-20.2948
20.018250942,-5.947139,-17.99811,-1.932717,0.4747063,-0.1748835,0.8831378,-27.9414,-21.92771,-20.2948
20.028162479,-2.478608,-15.43503,-3.589516,0.4607019,-0.1154664,0.8745402,-27.9414,-21.92771,-20.2948
20.03807354,4.024887,-11.88166,-5.859943,0.4574894,-0.05735981,0.8677546,-27.9414,-21.92771,-20.2948
20.047985077,10.03288,-7.92052300000001,-8.86672600000002,0.4443425,0.0195679,0.8679085,-27.9414,-21.92771,-20.2948
20.057896137,12.0149,-5.590444,-12.73259,0.4385815,0.06564306,0.8845941,-27.55583,-22.67504,-19.84473
20.067807674,9.10380600000001,-2.852602,-14.6962,0.4496315,0.07324728,0.9219949,-27.55583,-22.67504,-19.84473
20.080196857,-1.115971,-3.318618,-12.18032,0.4730094,0.03374146,0.9143132,-27.55583,-22.67504,-19.84473
20.090108395,-7.37171500000001,-7.62926299999999,-9.84853300000002,0.4770326,0.0206777,0.9098675,-27.55583,-22.67504,-19.84473
20.100019455,-13.19389,-10.1341,-9.23490300000001,0.4907071,-0.0272038,0.8998189,-27.55583,-22.67504,-19.84473
20.109930992,-14.55653,-10.54186,-8.00764499999998,0.485758,-0.05314963,0.86368,-28.31405,-21.92591,-19.84315
20.119842052,-11.95513,-9.02730999999998,-7.02583799999998,0.4833054,-0.1041556,0.8508787,-28.31405,-21.92591,-19.84315
20.12975359,-10.59249,-5.18268,-4.755411,0.4830156,-0.09845271,0.8293123,-28.31405,-21.92591,-19.84315
20.13966465,-14.30878,-1.629311,-2.546346,0.4544904,-0.03816661,0.8362198,-28.31405,-21.92591,-19.84315
20.149576187,-18.14894,0.293004,-0.828185100000001,0.4283936,-0.01663456,0.843807,-28.31405,-21.92591,-19.84315
20.159487248,-17.96312,-0.4060195,-1.748629,0.4258637,-0.01280696,0.8400146,-28.30596,-22.67693,-20.29055
20.169398785,-17.09599,-2.619594,-3.528153,0.4494766,-0.02073148,0.844545,-28.30596,-22.67693,-20.29055
20.179310799,-16.47661,-5.007925,-5.79858000000001,0.4624285,-0.04532605,0.8389796,-28.30596,-22.67693,-20.29055
20.189221859,-16.29079,-8.561295,-7.394016,0.4666595,-0.06754992,0.8440742,-28.30596,-22.67693,-20.29055
20.199133396,-15.54754,-10.71662,-8.37582199999997,0.4756078,-0.08443639,0.8385972,-28.30596,-22.67693,-20.29055
20.209044457,-13.37971,-11.64865,-8.68263700000001,0.4924678,-0.09678867,0.8470019,-28.68022,-22.67696,-20.2886
20.218955994,-10.77831,-11.64865,-9.60308100000002,0.499025,-0.08392168,0.8815983,-28.68022,-22.67696,-20.2886
20.228867054,-9.53954700000003,-10.65837,-10.33944,0.4969172,-0.08572814,0.9123358,-28.68022,-22.67696,-20.2886
20.238778591,-10.22087,-9.60983000000002,-10.27807,0.4905949,-0.07700948,0.9258968,-28.68022,-22.67696,-20.2886
20.248689652,-11.76932,-8.03702600000001,-9.84853300000002,0.5039871,-0.09381836,0.9247007,-28.68022,-22.67696,-20.2886
20.258601189,-13.00808,-5.93995599999998,-8.98945100000001,0.5195394,-0.1207403,0.9315799,-29.06256,-21.92597,-19.83925
20.268512249,-14.6804,-4.250649,-7.33265300000001,0.5436497,-0.1674304,0.9392085,-29.06256,-21.92597,-19.83925
20.278423786,-15.05203,-3.202114,-5.000863,0.5605699,-0.1992636,0.9306774,-29.06256,-21.92597,-19.83925
20.288334847,-11.64544,-2.386586,-3.03725,0.5757871,-0.2224575,0.9092551,-29.06256,-21.92597,-19.83925
20.298246384,-7.062024,-0.3477675,-1.441814,0.5752819,-0.2322282,0.8962305,-29.06256,-21.92597,-19.83925
20.308157444,-3.283803,1.108532,-0.4600076,0.5540714,-0.2228317,0.8892868,-28.68507,-22.30236,-20.28976
20.318068981,-1.115971,1.924059,-0.705459200000001,0.5286954,-0.1921529,0.8825235,-28.68507,-22.30236,-20.28976
20.327980042,-0.5585288,1.865807,-1.073637,0.5032006,-0.1473896,0.8806567,-28.68507,-22.30236,-20.28976
20.337891579,-1.115971,1.399791,-1.380451,0.4817612,-0.1093317,0.8849498,-28.68507,-22.30236,-20.28976
20.347802639,-1.921166,0.9920276,-1.56454,0.4665517,-0.07760161,0.8694566,-28.68507,-22.30236,-20.28976
20.360191822,-2.726361,0.351256,-1.748629,0.4704684,-0.05194466,0.8523056,-28.69476,-21.55317,-20.29206
20.370103359,-2.540546,0.9920276,-1.871354,0.4791179,-0.04752317,0.842652,-28.69476,-21.55317,-20.29206
20.38001442,-2.292794,1.632799,-2.239532,0.4877572,-0.03481434,0.8416964,-28.69476,-21.55317,-20.29206
20.389925957,-3.407679,2.040563,-2.300895,0.4857604,-0.04168943,0.8296651,-28.69476,-21.55317,-20.29206
20.399837017,-5.513573,2.331823,-2.178169,0.5005822,-0.05703592,0.8265448,-28.69476,-21.55317,-20.29206
20.409748554,-7.309776,1.924059,-1.932717,0.5031005,-0.05989392,0.8303437,-28.31081,-22.30233,-20.2917
20.419659615,-9.16791799999997,1.05028,-1.871354,0.5126773,-0.07279916,0.8431335,-28.31081,-22.30233,-20.2917
20.429571152,-10.59249,0.700767799999999,-1.687266,0.5085126,-0.08346321,0.8536644,-28.31081,-22.30233,-20.2917
20.439482212,-10.71637,0.1765001,-1.871354,0.4899076,-0.07102565,0.8659233,-28.31081,-22.30233,-20.2917
20.449393749,-10.15893,-0.4060195,-4.816774,0.4749001,-0.02650752,0.8850848,-28.31081,-22.30233,-20.2917
20.45930481,-5.141944,-0.1730116,-9.05081500000002,0.4875605,0.01167314,0.9245951,-29.06555,-21.92937,-20.67443
20.469216347,-1.611476,1.341539,-12.67123,0.4941818,0.05310569,0.9512187,-29.06555,-21.92937,-20.67443
20.479127407,-11.27381,1.225035,-14.57348,0.4995505,0.06267568,0.9137803,-29.06555,-21.92937,-20.67443
20.489038944,-15.42366,3.555114,-16.72118,0.5340698,0.02569527,0.89881,-29.06555,-21.92937,-20.67443
20.498950005,-16.7863,5.302673,-18.43934,0.5540608,0.001774968,0.9128705,-29.06555,-21.92937,-20.67443
20.508862019,-16.53855,6.17645200000001,-19.60524,0.5889415,-0.0398954,0.9276354,-28.32188,-21.55471,-20.67948
20.518773556,-16.29079,7.574499,-20.1575,0.6128389,-0.05133478,0.9081318,-28.32188,-21.55471,-20.67948
20.528684616,-15.60948,9.38030999999998,-20.52568,0.617497,-0.05919891,0.876346,-28.32188,-21.55471,-20.67948
20.538596153,-11.64544,12.11815,-21.56885,0.5833131,-0.03204842,0.864839,-28.32188,-21.55471,-20.67948
20.548507214,-11.33575,13.74921,-23.4711,0.529107,0.004620294,0.8670251,-28.32188,-21.55471,-20.67948
20.558418751,-13.13195,15.67152,-25.31199,0.4833852,0.03758014,0.881592,-28.68966,-22.30759,-21.57465
20.568329811,-17.21987,15.49677,-26.29379,0.4568962,0.04647348,0.8838169,-28.68966,-22.30759,-21.57465
20.578241348,-19.13994,14.50648,-26.90742,0.4612875,0.01165009,0.8897864,-28.68966,-22.30759,-21.57465
20.588152409,-21.36971,12.58417,-26.90742,0.4823078,-0.05588531,0.9054675,-28.68966,-22.30759,-21.57465
20.598063946,-24.03305,12.0599,-26.17107,0.5172814,-0.147503,0.9184583,-28.68966,-22.30759,-21.57465
20.607975006,-22.79429,13.28319,-25.6188,0.5608749,-0.2186171,0.9377479,-27.56341,-22.68367,-21.9648
20.617886543,-16.66242,16.37054,-25.18926,0.5871814,-0.244918,0.9450119,-27.56341,-22.68367,-21.9648
20.627797604,-9.78729900000003,19.63266,-24.20745,0.5903901,-0.2220597,0.9508965,-27.56341,-22.68367,-21.9648
20.640186787,-3.469617,22.95302,-23.10292,0.5519607,-0.1487904,0.9608631,-27.56341,-22.68367,-21.9648
20.650098324,-1.239847,23.71029,-21.56885,0.5124416,-0.1521681,0.9655274,-27.56341,-22.68367,-21.9648
20.660009384,-2.168918,22.487,-19.78932,0.4811814,-0.154006,0.9667646,-26.05967,-23.43614,-22.80546
20.669920921,-8.85822799999998,20.62294,-19.11433,0.492583,-0.1864672,0.9438754,-26.05967,-23.43614,-22.80546
20.679831982,-9.97311299999999,20.7977,-19.11433,0.5382277,-0.2014184,0.9428735,-26.05967,-23.43614,-22.80546
20.689743519,-8.92016599999997,22.3705,-18.74615,0.571146,-0.2445802,0.9552458,-26.05967,-23.43614,-22.80546
20.699654579,-4.832254,22.83651,-17.94844,0.6010202,-0.2834458,0.961913,-26.05967,-23.43614,-22.80546
20.709566116,4.520391,26.27338,-16.90527,0.6361319,-0.257936,0.9348693,-25.31761,-23.06331,-23.26022
20.719477177,13.31559,31.39955,-14.63484,0.6108752,-0.2020775,0.9215505,-25.31761,-23.06331,-23.26022
20.729388714,15.1118,33.72963,-12.60986,0.5713573,-0.1405853,0.9069605,-25.31761,-23.06331,-23.26022
20.739299774,12.94397,33.14711,-11.50533,0.5212121,-0.07672118,0.9078498,-25.31761,-23.06331,-23.26022
20.749211311,9.28962000000002,29.7685,-11.25988,0.4564465,-0.02179608,0.9030527,-25.31761,-23.06331,-23.26022
20.759122372,3.467444,25.22484,-11.07579,0.4124586,-0.001610192,0.8810266,-23.81573,-23.43779,-23.26685
20.769033909,-2.230856,21.32196,-10.21671,0.4138852,-0.02258839,0.8525443,-23.81573,-23.43779,-23.26685
20.778944969,-3.097989,19.10839,-8.92808800000003,0.4453547,-0.04942204,0.8381499,-23.81573,-23.43779,-23.26685
20.788856506,-0.806281,18.46762,-8.19173300000002,0.4475218,-0.07660475,0.8269051,-23.81573,-23.43779,-23.26685
20.798767567,0.2466658,16.89481,-9.11217699999998,0.4543048,-0.0987422,0.8425402,-23.81573,-23.43779,-23.26685
20.808679104,1.857055,14.85599,-10.27807,0.4482137,-0.1225862,0.840517,-22.69456,-23.43953,-23.7224
20.818591118,4.334577,13.28319,-10.95306,0.4196427,-0.1089049,0.8360708,-22.69456,-23.43953,-23.7224
20.828502178,2.228683,9.96283000000002,-12.0576,0.3682996,-0.0927241,0.8073638,-22.69456,-23.43953,-23.7224
20.838413715,-0.4346527,7.39974399999998,-12.79395,0.3199111,-0.1142962,0.7841398,-22.69456,-23.43953,-23.7224
20.848324776,-2.540546,6.99197999999999,-11.44397,0.2738152,-0.1620101,0.7631213,-22.69456,-23.43953,-23.7224
20.858236313,-3.097989,6.23470400000003,-8.62127400000002,0.2376457,-0.2087976,0.7098465,-21.56209,-24.18863,-23.72593
20.868147373,-0.744343000000003,4.254138,-6.22812100000001,0.217309,-0.2174919,0.671564,-21.56209,-24.18863,-23.72593
20.87805891,1.547365,1.924059,-2.853161,0.2081093,-0.2051265,0.6472434,-21.56209,-24.18863,-23.72593
20.887969971,5.139772,-1.279799,-0.2759189,0.2150856,-0.2103386,0.6538664,-21.56209,-24.18863,-23.72593
20.897881508,13.87304,-3.37687,-0.09183015,0.2045256,-0.1891556,0.6502639,-21.56209,-24.18863,-23.72593
20.907792568,16.96994,-5.066176,-1.809992,0.1725927,-0.152807,0.6306348,-20.44393,-23.81368,-23.66868
20.920182228,13.62528,-8.44479099999997,-4.019056,0.1211409,-0.1461906,0.6277936,-20.44393,-23.81368,-23.66868
20.930093288,13.74916,-10.19235,-5.184951,0.0790206,-0.1596758,0.6530614,-20.44393,-23.81368,-23.66868
20.940004826,14.80211,-12.93019,-5.73721700000003,0.04765583,-0.1813199,0.6685724,-20.44393,-23.81368,-23.66868
20.949915886,16.66025,-16.13405,-6.16675799999997,0.06140991,-0.2372043,0.7045649,-20.07154,-23.43566,-22.8366
20.959827423,17.15575,-21.14372,-5.79858000000001,0.1215383,-0.3083964,0.762594,-20.07154,-23.43566,-22.8366
20.969738483,16.4125,-26.5029,-5.184951,0.1915461,-0.3950236,0.8122663,-20.07154,-23.43566,-22.8366
20.979650021,21.18173,-28.65822,-4.264508,0.2967331,-0.4341547,0.8672113,-20.07154,-23.43566,-22.8366
20.989561081,30.53437,-25.45436,-2.669072,0.405275,-0.408409,0.8961488,-20.07154,-23.43566,-22.8366
20.999472618,37.65725,-21.90099,-0.03046724,0.4684236,-0.3210003,0.9576074,-20.42528,-24.55268,-21.16083
21.009383678,41.06384,-18.11462,2.914952,0.4642901,-0.2343353,1.037449,-20.42528,-24.55268,-21.16083
21.019295216,42.79811,-15.49328,6.22854899999998,0.3988016,-0.1707487,1.115304,-20.42528,-24.55268,-21.16083
21.029206276,37.71919,-16.0758,8.31488799999999,0.3320011,-0.08857213,1.134715,-20.42528,-24.55268,-21.16083
21.039117813,32.26864,-17.47384,8.37625100000002,0.3343608,-0.001525802,1.085336,-20.42528,-24.55268,-21.16083
21.049028873,23.907,-18.17287,7.88534800000001,0.3728434,0.09618621,1.042417,-21.54021,-24.92396,-20.31866
21.058940411,17.09381,-20.44469,8.25352600000003,0.4299691,0.06760011,1.095956,-21.54021,-24.92396,-20.31866
21.068851471,9.78512499999999,-25.57087,7.76262199999999,0.4858216,-0.006996829,1.162165,-21.54021,-24.92396,-20.31866
21.078763008,3.219692,-28.36696,4.449025,0.5867607,-0.07147827,1.107024,-21.54021,-24.92396,-20.31866
21.088674068,9.53737299999999,-22.89128,3.774033,0.6718732,-0.04626245,0.9964489,-21.54021,-24.92396,-20.31866
21.098585606,16.96994,-12.05641,3.958122,0.70534,0.04595675,0.9348134,-22.64198,-26.4206,-19.85849
21.108497143,18.33258,-2.21183,4.019485,0.650173,0.1209104,0.935823,-22.64198,-26.4206,-19.85849
21.11840868,15.23567,2.85609,3.589944,0.5713254,0.1771724,0.9422087,-22.64198,-26.4206,-19.85849
21.12831974,10.40451,3.030846,2.669501,0.4647915,0.1863519,0.9115646,-22.64198,-26.4206,-19.85849
21.138231277,4.953958,0.5260119,1.933146,0.3728224,0.1685922,0.8868484,-22.64198,-26.4206,-19.85849
21.148142338,-2.10698,-3.784633,1.749057,0.3238899,0.1135751,0.8667678,-23.76662,-26.0427,-19.01863
21.158053875,-7.49559099999998,-8.38653900000002,1.687694,0.3375618,0.03569662,0.8690035,-23.76662,-26.0427,-19.01863
21.167964935,-9.53954700000003,-11.5904,0.889976299999999,0.4144556,-0.02156433,0.8616688,-23.76662,-26.0427,-19.01863
21.177876473,-6.814272,-11.7069,1.258154,0.4805863,-0.05384548,0.8353938,-23.76662,-26.0427,-19.01863
21.187787533,-1.921166,-9.20206600000003,2.424049,0.5245485,-0.06600038,0.8166603,-23.76662,-26.0427,-19.01863
21.200177193,1.609303,-4.833169,3.774033,0.5378337,-0.06188929,0.829529,-23.39236,-26.04267,-19.02057
21.210088253,1.795117,-2.095326,4.878565,0.5335261,-0.05067649,0.8517309,-23.39236,-26.04267,-19.02057
21.21999979,2.35256,-1.105043,5.73764600000002,0.4961333,-0.03028682,0.8531728,-23.39236,-26.04267,-19.02057
21.229910851,2.910002,-2.153579,6.22854899999998,0.4626878,-0.003000322,0.8661481,-23.39236,-26.04267,-19.02057
21.239822388,2.724188,-4.658412,6.53536400000002,0.4289588,0.005850335,0.8775626,-23.39236,-26.04267,-19.02057
21.249733448,2.414498,-7.454507,6.71945300000003,0.4263244,-0.01012821,0.888044,-24.13603,-26.41733,-19.01553
21.259644985,2.228683,-9.49332599999999,7.08763000000002,0.449504,-0.008273769,0.9094491,-24.13603,-26.41733,-19.01553
21.269556046,3.095816,-10.60011,7.45580799999998,0.4837792,-0.02903532,0.9373232,-24.13603,-26.41733,-19.01553
21.279467583,4.086825,-10.54186,7.45580799999998,0.5201741,-0.03578905,0.9499058,-24.13603,-26.41733,-19.01553
21.289378643,3.653259,-8.79430199999998,7.33308200000001,0.5386863,-0.02437239,0.956533,-24.13603,-26.41733,-19.01553
21.29929018,2.35256,-5.93995599999998,6.596727,0.5370724,-0.01080876,0.9580787,-24.51999,-25.66817,-19.01589
21.309201241,1.361551,-2.852602,5.430832,0.5107155,0.008149001,0.9373218,-24.51999,-25.66817,-19.01589
21.319112778,2.414498,-0.1147597,3.71267,0.4940043,-0.001860335,0.9172429,-24.51999,-25.66817,-19.01589
21.329023838,4.582329,2.157067,2.485412,0.4822979,0.01239346,0.8891168,-24.51999,-25.66817,-19.01589
21.338935375,5.88302899999997,2.972594,1.564968,0.4777273,0.009323037,0.8689721,-24.51999,-25.66817,-19.01589
21.348846436,5.88302899999997,3.205602,1.258154,0.4837807,-0.007092146,0.8678464,-24.50868,-26.41553,-18.56387
21.358757973,6.06884200000002,2.739586,1.442243,0.4965967,-0.02980615,0.8512511,-24.50868,-26.41553,-18.56387
21.368669033,6.44047100000002,1.691051,1.38088,0.5034408,-0.02972114,0.8511884,-24.50868,-26.41553,-18.56387
21.37858057,7.12178899999997,0.2347521,0.828613499999998,0.4956466,-0.02882833,0.8551077,-24.50868,-26.41553,-18.56387
21.388492584,7.80310800000002,-0.813783199999999,0.0922585699999997,0.4870461,-0.01249701,0.846173,-24.50868,-26.41553,-18.56387
21.398403645,8.979931,-1.396303,0.1536215,0.4670285,-0.01614718,0.8448934,-25.2572,-26.41559,-18.55998
21.408315182,10.21869,-1.629311,0.3990731,0.4567753,-0.01529238,0.8473947,-25.2572,-26.41559,-18.55998
21.418226242,10.21869,-1.221547,0.460436,0.4482614,0.009864571,0.8572441,-25.2572,-26.41559,-18.55998
21.428137779,9.10380600000001,-1.163295,0.6445247,0.4426662,-0.001774537,0.8701827,-25.2572,-26.41559,-18.55998
21.43804884,9.47543500000001,-1.163295,0.889976299999999,0.4283218,-0.02764309,0.8715835,-25.2572,-26.41559,-18.55998
21.447960377,12.63428,-1.221547,1.933146,0.413473,-0.05303802,0.8720317,-24.51838,-25.66634,-18.56618
21.457871437,16.10281,-1.163295,4.14221,0.4169982,-0.01904375,0.8741463,-24.51838,-25.66634,-18.56618
21.467782974,14.92598,-2.095326,4.817203,0.4210872,0.006215035,0.8733165,-24.51838,-25.66634,-18.56618
21.480172157,11.14776,-2.561342,4.510388,0.460873,0.005829052,0.8902315,-24.51838,-25.66634,-18.56618
21.490083218,9.28962000000002,-1.221547,4.939929,0.4870416,-0.02005594,0.8845354,-24.51838,-25.66634,-18.56618
21.499994755,7.98892199999997,-1.105043,5.92173499999998,0.4873176,-0.03698548,0.8916224,-24.89126,-25.6648,-18.17876
21.509905815,6.750161,-1.687563,6.84217800000002,0.4874168,-0.008889442,0.8865269,-24.89126,-25.6648,-18.17876
21.519817352,6.93597599999999,-1.687563,7.63989600000002,0.475564,-0.04445916,0.8811178,-24.89126,-25.6648,-18.17876
21.529728413,9.16574500000002,-1.629311,8.06943700000002,0.4489222,-0.02979163,0.8752199,-24.89126,-25.6648,-18.17876
21.53963995,8.979931,-3.08561,7.946711,0.4280244,-0.00974907,0.8635427,-24.89126,-25.6648,-18.17876
21.54955101,10.96195,-4.192397,6.96490399999999,0.4093063,0.02165401,0.8869726,-25.25582,-26.41402,-18.17451
21.559462547,11.27164,-4.367153,5.430832,0.3650849,0.05221065,0.9019899,-25.25582,-26.41402,-18.17451
21.569373608,7.74116999999998,-5.47394,3.71267,0.3641424,0.04099732,0.8923208,-25.25582,-26.41402,-18.17451
21.579285145,3.591321,-7.10499500000003,3.405856,0.422674,-0.0005334648,0.8770981,-25.25582,-26.41402,-18.17451
21.589196205,2.290622,-8.67779800000001,3.835396,0.4849419,-0.03235038,0.8561435,-25.25582,-26.41402,-18.17451
21.599107742,5.573338,-8.32828599999997,4.75584,0.528206,-0.05803049,0.8488502,-25.24532,-27.09895,-17.72268
21.609018803,11.45745,-6.58072700000001,6.65808999999999,0.5371734,-0.07734601,0.8423965,-25.24532,-27.09895,-17.72268
21.61893034,17.09381,-5.415688,7.946711,0.5375314,-0.06472514,0.8443979,-25.24532,-27.09895,-17.72268
21.6288414,18.64227,-5.88170400000003,7.63989600000002,0.5196263,-0.01827369,0.869361,-25.24532,-27.09895,-17.72268
21.638752937,14.36854,-7.16324699999999,6.65808999999999,0.5114442,0.02046609,0.8797781,-25.24532,-27.09895,-17.72268
21.648664951,8.79411600000002,-7.16324699999999,5.430832,0.5027762,0.0709087,0.9042022,-25.63194,-26.03605,-17.33854
21.658576012,6.31659499999999,-6.81373500000001,5.18538,0.4946163,0.1081967,0.9150895,-25.63194,-26.03605,-17.33854
21.668487549,7.369542,-5.93995599999998,6.044461,0.4913705,0.1397049,0.9215716,-25.63194,-26.03605,-17.33854
21.678398609,9.28962000000002,-4.89142,8.19216299999999,0.4856983,0.1560701,0.9121298,-25.63194,-26.03605,-17.33854
21.688310146,9.16574500000002,-3.726381,9.29669499999999,0.4805118,0.1660983,0.8949589,-25.63194,-26.03605,-17.33854
21.698221207,5.325586,-2.910854,9.05124299999999,0.4895154,0.1719191,0.8737875,-25.99974,-26.40885,-16.88572
21.708132744,-1.611476,-2.736098,8.06943700000002,0.5143566,0.1682791,0.860089,-25.99974,-26.40885,-16.88572
21.718043804,-6.93814800000003,-2.386586,6.65808999999999,0.5405283,0.1326396,0.8432842,-25.99974,-26.40885,-16.88572
21.727955341,-9.72536099999999,-2.619594,5.79900900000001,0.5590639,0.09456059,0.8418988,-25.99974,-26.40885,-16.88572
21.737866402,-9.10597999999999,-2.386586,4.75584,0.5574552,0.06300947,0.8388225,-25.99974,-26.40885,-16.88572
21.747777939,-5.451635,-1.163295,4.14221,0.5552867,0.03287863,0.8304791,-26.38046,-26.03611,-17.33464
21.760167122,0.3086039,-0.639027300000002,4.203574,0.5387298,0.03221795,0.8363898,-26.38046,-26.03611,-17.33464
21.770078182,0.0608516599999998,-1.512807,4.080848,0.532687,0.05888258,0.8505479,-26.38046,-26.03611,-17.33464
21.779989719,-4.150936,-2.095326,3.835396,0.5266973,0.06996503,0.8516374,-26.38046,-26.03611,-17.33464
21.78990078,-6.87620999999998,-1.920571,3.528581,0.5222971,0.06747113,0.8487806,-26.00944,-25.65966,-16.88803
21.799812317,-7.99109600000001,-1.978823,3.344493,0.4989043,0.05697352,0.8441254,-26.00944,-25.65966,-16.88803
21.809723377,-7.309776,-1.804067,3.28313,0.4854,0.0393382,0.841732,-26.00944,-25.65966,-16.88803
21.819634914,-5.947139,-1.338051,2.362686,0.4684736,0.03239207,0.8519256,-26.00944,-25.65966,-16.88803
21.829545975,-6.25683000000001,-1.163295,1.933146,0.4802264,0.003528242,0.8674698,-26.00944,-25.65966,-16.88803
21.839457512,-7.681405,-1.221547,2.301323,0.5115551,-0.06288202,0.8883448,-26.75471,-26.03614,-17.3327
21.849368572,-8.67241400000003,-0.988539100000001,3.774033,0.5396756,-0.128984,0.8828428,-26.75471,-26.03614,-17.3327
21.859280109,-7.24783800000001,-0.639027300000002,5.369469,0.544478,-0.1721346,0.8714673,-26.75471,-26.03614,-17.3327
21.86919117,-4.64644,-0.3477675,6.41263799999999,0.539418,-0.1722845,0.8547075,-26.75471,-26.03614,-17.3327
21.879102707,-1.549538,-0.05650773,6.53536400000002,0.5270442,-0.1695887,0.8433161,-26.75471,-26.03614,-17.3327
21.889013767,1.918993,-0.1730116,6.41263799999999,0.5091909,-0.1460372,0.8465191,-26.38531,-25.66152,-17.3358
21.898925304,4.953958,-1.105043,5.553557,0.4753152,-0.08726714,0.8544262,-26.38531,-25.66152,-17.3358
21.908837318,6.254657,-2.386586,4.14221,0.4309303,-0.002897508,0.8688432,-26.38531,-25.66152,-17.3358
21.918748379,6.68822300000002,-3.143862,1.871783,0.3904849,0.08202334,0.8865885,-26.38531,-25.66152,-17.3358
21.928659916,6.68822300000002,-3.784633,-0.828185100000001,0.3748714,0.1289135,0.8971287,-26.38531,-25.66152,-17.3358
21.938570976,4.953958,-4.367153,-2.975887,0.3908302,0.1490235,0.9033571,-26.74986,-26.41074,-17.33154
21.948482513,1.609303,-4.658412,-5.062225,0.4309629,0.137838,0.8937884,-26.74986,-26.41074,-17.33154
21.958393574,-1.673414,-4.017641,-7.20992699999999,0.483191,0.1208849,0.8648632,-26.74986,-26.41074,-17.33154
21.968305111,-2.540546,-1.687563,-9.90989499999997,0.5267534,0.1029166,0.8480152,-26.74986,-26.41074,-17.33154
21.978216171,-1.859228,0.875523700000001,-12.48714,0.5450501,0.08812804,0.8506284,-26.74986,-26.41074,-17.33154
21.988127708,-0.6204669,3.322106,-14.14394,0.5490986,0.09068721,0.8669334,-26.75471,-26.03614,-17.3327
21.998038769,-0.1869005,4.661901,-15.37119,0.5420604,0.07952996,0.8827693,-26.75471,-26.03614,-17.3327
22.007950306,-1.425662,4.661901,-16.04619,0.5202039,0.08713568,0.9060698,-26.75471,-26.03614,-17.3327
22.017861366,-3.655432,4.428894,-16.353,0.4999609,0.1101975,0.9140931,-26.75471,-26.03614,-17.3327
22.030250549,-6.38070599999998,5.069665,-17.45753,0.4645789,0.1164939,0.904379,-26.75471,-26.03614,-17.3327
22.040162086,-8.11497100000001,5.76868899999999,-17.64162,0.4433089,0.08952232,0.8967135,-26.38531,-25.66152,-17.3358
22.050073147,-9.78729900000003,6.1182,-17.5189,0.4620728,0.02570849,0.8874719,-26.38531,-25.66152,-17.3358
22.059984684,-10.59249,6.00169699999999,-16.04619,0.489185,-0.05310458,0.8641287,-26.38531,-25.66152,-17.3358
22.069895744,-10.90218,2.85609,-9.17354000000002,0.5326365,-0.08210179,0.8712162,-26.38531,-25.66152,-17.3358
22.079807282,-5.141944,6.81722400000001,-10.76898,0.5382004,-0.1670556,0.8374679,-26.38531,-25.66152,-17.3358
22.089718342,-1.549538,5.94344499999998,-7.88491900000001,0.5454016,-0.1906872,0.8444462,-26.74502,-26.78533,-17.33039
22.099629879,2.476436,5.76868899999999,-5.246314,0.5247692,-0.187092,0.8393793,-26.74502,-26.78533,-17.33039
22.109540939,5.263648,4.778405,-2.914524,0.4930767,-0.158911,0.833618,-26.74502,-26.78533,-17.33039
22.119452477,5.077834,3.14735,-1.073637,0.4623524,-0.117552,0.8423405,-26.74502,-26.78533,-17.33039
22.129363537,3.219692,0.700767799999999,0.03089567,0.4462515,-0.07944765,0.8427432,-26.74502,-26.78533,-17.33039
22.139275074,2.848064,-2.328334,1.626331,0.4407688,-0.03347598,0.8387787,-25.26738,-25.28683,-17.34279
22.149187088,4.334577,-4.425405,3.405856,0.4393018,0.0008914066,0.8313387,-25.26738,-25.28683,-17.34279
22.159098148,6.13078099999997,-5.124428,5.308106,0.4397856,0.04308563,0.8325757,-25.26738,-25.28683,-17.34279
22.169009686,5.697214,-5.299184,6.47400099999998,0.4389449,0.07996967,0.841472,-25.26738,-25.28683,-17.34279
22.178920746,3.28163,-5.357436,6.53536400000002,0.4425833,0.1057301,0.8449711,-25.26738,-25.28683,-17.34279
22.188832283,-0.001086392,-5.648696,6.28991200000003,0.4641293,0.1157722,0.8597236,-25.9965,-26.78527,-17.33428
22.198743343,-2.788299,-5.88170400000003,6.22854899999998,0.4823606,0.1072909,0.8633398,-25.9965,-26.78527,-17.33428
22.208654881,-4.956131,-5.88170400000003,5.492195,0.4977086,0.09831145,0.8713008,-25.9965,-26.78527,-17.33428
22.218565941,-5.699387,-5.357436,4.75584,0.4994994,0.08191296,0.8836589,-25.9965,-26.78527,-17.33428
22.228477478,-5.637449,-4.774917,3.958122,0.5020831,0.06738169,0.8801772,-25.9965,-26.78527,-17.33428
22.238388538,-5.575511,-4.075893,3.467218,0.4928881,0.06438813,0.8860042,-26.75471,-26.03614,-17.3327
22.248300076,-6.194891,-3.260366,1.933146,0.4925622,0.05568636,0.8917111,-26.75471,-26.03614,-17.3327
22.258211136,-6.93814800000003,-2.328334,0.705887599999999,0.4990408,0.04997582,0.8968949,-26.75471,-26.03614,-17.3327
22.268122673,-7.12396199999998,-1.046791,-0.5213705,0.5116187,0.01616665,0.8917518,-26.75471,-26.03614,-17.3327
22.278033733,-6.93814800000003,0.0599961999999999,-0.644096300000003,0.5187927,-0.01674737,0.8852241,-26.75471,-26.03614,-17.3327
22.287945271,-5.327759,1.108532,-0.705459200000001,0.5209637,-0.03807435,0.8812207,-26.38046,-26.03611,-17.33464
22.297856331,-4.088998,1.924059,-0.889547900000002,0.5185679,-0.04588433,0.8768694,-26.38046,-26.03611,-17.33464
22.307767868,-3.779308,2.273571,-0.582733500000001,0.5112808,-0.05229301,0.8740132,-26.38046,-26.03611,-17.33464
22.320157051,-3.531555,2.040563,-0.2759189,0.502155,-0.06890918,0.8706257,-26.38046,-26.03611,-17.33464
22.330068588,-2.788299,1.632799,-0.5213705,0.4932331,-0.07444803,0.8524253,-26.38046,-26.03611,-17.33464
22.339979649,-1.79729,1.225035,-0.5213705,0.4857109,-0.06488149,0.8453563,-26.38046,-26.03611,-17.33464
22.349891186,-1.115971,0.46776,-0.3986447,0.4800089,-0.04560497,0.8364144,-26.38046,-26.03611,-17.33464
22.359802246,-0.8682191,0.001744238,-0.03046724,0.4691162,-0.02678579,0.8452834,-26.38046,-26.03611,-17.33464
22.369713783,-0.744343000000003,-0.639027300000002,-0.2759189,0.4675886,-0.02293331,0.8438827,-26.38046,-26.03611,-17.33464
22.379624844,-0.806281,-1.163295,-0.644096300000003,0.4646389,-0.0220027,0.843436,-26.38046,-26.03611,-17.33464
22.389536858,-0.5585288,-1.687563,-0.766822200000002,0.4802675,-0.01888943,0.8452328,-26.37214,-26.78687,-17.7178
22.399448395,-0.06302445,-2.153579,-1.012274,0.4896792,-0.0191977,0.8566675,-26.37214,-26.78687,-17.7178
22.409359455,0.494418,-1.920571,-1.135,0.4955589,-0.01570325,0.8619182,-26.37214,-26.78687,-17.7178
22.419270992,0.618294100000002,-1.396303,-1.257725,0.5034104,-0.007785706,0.8739023,-26.37214,-26.78687,-17.7178
22.429182053,0.866046300000002,-1.105043,-1.380451,0.5068908,-0.004786031,0.883013,-26.37214,-26.78687,-17.7178
22.43909359,0.927984400000002,-0.4060195,-1.503177,0.5062822,0.004413866,0.8821197,-25.99788,-26.78684,-17.71975
22.44900465,0.804108299999999,-0.1147597,-1.748629,0.5018694,0.008742731,0.8860306,-25.99788,-26.78684,-17.71975
22.458916187,0.618294100000002,0.2347521,-2.116806,0.4948926,0.0222472,0.889066,-25.99788,-26.78684,-17.71975
22.468827248,0.618294100000002,0.46776,-2.607709,0.4942725,0.021685,0.8756236,-25.99788,-26.78684,-17.71975
22.478738785,0.927984400000002,1.166783,-2.669072,0.4981936,0.01881208,0.8731674,-25.99788,-26.78684,-17.71975
22.488649845,0.494418,1.807555,-2.791798,0.5070596,0.01212664,0.8716004,-25.63332,-26.03762,-17.724
22.498561382,0.2466658,1.982311,-2.116806,0.5164812,-0.004274056,0.865162,-25.63332,-26.03762,-17.724
22.508472443,0.43248,2.681334,-1.625903,0.5200808,-0.01828545,0.8659956,-25.63332,-26.03762,-17.724
22.51838398,1.175737,2.623082,-1.196362,0.5142118,-0.0168963,0.8674996,-25.63332,-26.03762,-17.724
22.52829504,1.733179,3.263854,-0.766822200000002,0.4940874,-0.02108986,0.8551736,-25.63332,-26.03762,-17.724
22.538206577,1.795117,2.623082,-0.705459200000001,0.4867794,-0.01872896,0.8605387,-26.38344,-26.03951,-18.16982
22.548117638,1.05186,2.215319,-0.4600076,0.4753708,-0.01456409,0.8496284,-26.38344,-26.03951,-18.16982
22.558029652,0.2466658,1.283287,-0.03046724,0.4788217,-0.0115797,0.8558584,-26.38344,-26.03951,-18.16982
22.567940235,0.43248,0.46776,0.0922585699999997,0.4816739,-0.01012201,0.8495997,-26.38344,-26.03951,-18.16982
22.577852249,1.547365,0.2347521,0.3377102,0.4816133,0.001553782,0.8573605,-26.38344,-26.03951,-18.16982
22.590240955,2.538374,0.1765001,0.5217989,0.4886751,0.0239428,0.8569642,-26.38531,-25.66152,-17.3358
22.600152016,2.290622,0.293004,0.3990731,0.4852766,0.02976621,0.8661575,-26.38531,-25.66152,-17.3358
22.610063553,1.299613,0.46776,0.3990731,0.4788929,0.03455049,0.8691294,-26.38531,-25.66152,-17.3358
22.619975567,0.3705419,0.5260119,0.1536215,0.4829396,0.02735265,0.8738455,-26.38531,-25.66152,-17.3358
22.629886627,-0.2488386,0.1765001,-0.2759189,0.481542,0.02444351,0.8772002,-26.38531,-25.66152,-17.3358
22.639798164,-0.1249625,0.0599961999999999,-0.2759189,0.4756284,0.02873632,0.8777636,-26.38668,-25.66309,-17.72127
22.649709225,-0.1249625,0.2347521,-0.214556,0.4849417,0.02593785,0.8766986,-26.38668,-25.66309,-17.72127
22.659620762,-0.2488386,0.5842639,-0.3986447,0.4826292,0.01817118,0.8805094,-26.38668,-25.66309,-17.72127
22.669531822,-0.5585288,1.225035,-0.3372818,0.4894831,0.01289545,0.8751292,-26.38668,-25.66309,-17.72127
22.679443359,-0.806281,1.924059,-0.1531931,0.4919342,0.006587837,0.8683422,-26.38668,-25.66309,-17.72127
22.68935442,-0.5585288,1.924059,-0.03046724,0.4920241,0.0002931724,0.8697399,-26.01243,-25.66306,-17.72321
22.699265957,-0.4346527,1.691051,0.03089567,0.4852802,-0.003642159,0.8750579,-26.01243,-25.66306,-17.72321
22.709177017,-0.06302445,1.574547,0.1536215,0.4811369,0.005456627,0.8631528,-26.01243,-25.66306,-17.72321
22.719088554,-0.06302445,1.108532,0.1536215,0.4766971,0.01123478,0.8661134,-26.01243,-25.66306,-17.72321
22.728999615,-0.5585288,0.700767799999999,0.3990731,0.4767848,0.003475542,0.8655807,-26.01243,-25.66306,-17.72321
22.738911152,-1.177909,0.293004,0.583161800000002,0.4805759,0.007364248,0.8583691,-26.0062,-26.03608,-17.33659
22.748822212,-1.549538,0.0599961999999999,0.705887599999999,0.4859254,0.009367671,0.8578529,-26.0062,-26.03608,-17.33659
22.758733749,-1.673414,0.1765001,0.767250500000003,0.4907517,0.005981341,0.8477024,-26.0062,-26.03608,-17.33659
22.76864481,-1.363724,0.001744238,0.767250500000003,0.4928131,0.007036366,0.8592141,-26.0062,-26.03608,-17.33659
22.778556347,-1.115971,0.2347521,0.828613499999998,0.4883514,0.005973908,0.8520459,-26.0062,-26.03608,-17.33659
22.788467407,-0.744343000000003,0.1182482,0.767250500000003,0.4844899,0.008390058,0.8597803,-26.00273,-26.41225,-17.7209
22.798379421,-1.054033,-0.5225234,0.951339199999998,0.4791342,0.009798022,0.8636804,-26.00273,-26.41225,-17.7209
22.808290958,-1.425662,-0.988539100000001,0.705887599999999,0.4850473,0.008431801,0.8664976,-26.00273,-26.41225,-17.7209
22.818202019,-2.168918,-0.988539100000001,0.767250500000003,0.4943112,0.01390028,0.8702896,-26.00273,-26.41225,-17.7209
22.828113556,-1.611476,-0.755531299999998,0.583161800000002,0.4938122,0.01144986,0.8664366,-26.00273,-26.41225,-17.7209
22.838024616,-1.054033,-0.2895156,0.6445247,0.493297,0.01777158,0.8712851,-25.63332,-26.03762,-17.724
22.847936153,-0.992095199999997,-0.05650773,0.460436,0.4899519,0.01581793,0.8765848,-25.63332,-26.03762,-17.724
22.857847214,-2.045042,0.1182482,0.2763473,0.4855593,0.01723039,0.8790356,-25.63332,-26.03762,-17.724
22.870236397,-2.478608,0.001744238,-0.1531931,0.4842767,-0.005618955,0.8702524,-25.63332,-26.03762,-17.724
22.880147934,-2.168918,0.0599961999999999,-0.09183015,0.4802429,-0.008170484,0.8553877,-25.63332,-26.03762,-17.724
22.890058994,-1.611476,-0.1730116,-0.1531931,0.4764193,-0.01305171,0.8582716,-25.63332,-26.03762,-17.724
22.899970531,-1.239847,-0.1730116,-0.214556,0.4794317,-0.01882769,0.8591655,-25.63332,-26.03762,-17.724
22.909881592,-0.9301572,-0.2895156,-0.3372818,0.4829526,-0.01922156,0.8682534,-25.63332,-26.03762,-17.724
22.919793129,-0.3727147,-0.813783199999999,-0.214556,0.4858466,-0.01920551,0.8643854,-25.63332,-26.03762,-17.724
22.929704189,-0.06302445,-1.046791,-0.5213705,0.4817166,-0.01205099,0.851507,-26.39153,-25.28849,-17.72242
22.939615726,-0.1869005,-1.046791,-0.766822200000002,0.4841988,-0.008586315,0.8591897,-26.39153,-25.28849,-17.72242
22.949526787,-0.1249625,-0.930287099999998,-1.135,0.4803938,-0.01297,0.8644774,-26.39153,-25.28849,-17.72242
22.959438324,0.1227897,-1.105043,-1.319088,0.4754665,-0.01061186,0.8635784,-26.39153,-25.28849,-17.72242
22.969349384,0.5563561,-1.338051,-1.503177,0.4823239,-0.007105269,0.8688201,-26.39153,-25.28849,-17.72242
22.979260921,0.804108299999999,-1.454555,-1.625903,0.4862886,-0.001662817,0.8803434,-25.63817,-25.66303,-17.72516
22.989171982,1.237675,-1.046791,-1.56454,0.4911417,-0.003571835,0.874524,-25.63817,-25.66303,-17.72516
22.999083519,1.237675,-0.755531299999998,-1.441814,0.492098,-0.002595201,0.8735613,-25.63817,-25.66303,-17.72516
23.008995533,0.989922399999999,-0.4060195,-1.687266,0.4945873,-0.003029248,0.8773767,-25.63817,-25.66303,-17.72516
23.018906593,0.866046300000002,-0.2312636,-1.748629,0.4938367,0.00609676,0.8625595,-25.63817,-25.66303,-17.72516
23.02881813,0.5563561,-0.1730116,-1.748629,0.4903705,0.01139717,0.8645475,-26.0062,-26.03608,-17.33659
23.038729191,0.927984400000002,0.001744238,-1.932717,0.4859854,0.016716,0.872306,-26.0062,-26.03608,-17.33659
23.048640728,0.989922399999999,0.1182482,-2.116806,0.4757264,0.01268975,0.8685328,-26.0062,-26.03608,-17.33659
23.058551788,0.5563561,-0.05650773,-2.116806,0.4800389,0.0122112,0.8593667,-26.0062,-26.03608,-17.33659
23.068463326,0.3705419,-0.4642715,-1.99408,0.4805158,0.01074761,0.8564716,-26.0062,-26.03608,-17.33659
23.078374386,-0.001086392,-0.8720351,-2.055443,0.4841556,-0.00373074,0.8606629,-26.38046,-26.03611,-17.33464
23.088285923,0.3086039,-1.046791,-1.748629,0.487973,-0.006169821,0.8486075,-26.38046,-26.03611,-17.33464
23.098196983,0.989922399999999,-1.046791,-1.809992,0.4856159,-0.005666981,0.8577556,-26.38046,-26.03611,-17.33464
23.108108521,1.05186,-1.338051,-1.687266,0.4847508,-0.005620526,0.8688076,-26.38046,-26.03611,-17.33464
23.118019581,1.05186,-1.396303,-1.503177,0.4896043,-0.005090295,0.8658852,-26.38046,-26.03611,-17.33464
23.127931118,0.5563561,-1.745815,-1.625903,0.4837553,-0.0012517,0.8722069,-26.00273,-26.41225,-17.7209
23.137842178,0.494418,-1.629311,-1.380451,0.4841867,0.006041553,0.8751325,-26.00273,-26.41225,-17.7209
23.150231361,0.680232200000002,-1.454555,-1.319088,0.4802695,0.009404358,0.8785523,-26.00273,-26.41225,-17.7209
23.160142899,0.494418,-1.396303,-1.503177,0.4738493,0.01270622,0.8762328,-26.00273,-26.41225,-17.7209
23.170053959,0.1847278,-1.396303,-1.441814,0.4743573,0.01028324,0.8752517,-26.00273,-26.41225,-17.7209
23.179965496,-0.2488386,-1.571059,-1.441814,0.4762888,0.007368196,0.8694525,-25.99974,-26.40885,-16.88572
23.189876556,-0.4346527,-1.804067,-1.809992,0.4830301,0.002033863,0.8530292,-25.99974,-26.40885,-16.88572
23.199788094,-0.3727147,-2.095326,-1.932717,0.4934427,-0.005567272,0.858164,-25.99974,-26.40885,-16.88572
23.209699154,0.1227897,-2.037075,-1.932717,0.4914743,-0.01193973,0.8494969,-25.99974,-26.40885,-16.88572
23.219611168,1.113798,-2.153579,-1.99408,0.4871743,-0.01291811,0.858173,-25.99974,-26.40885,-16.88572
23.229522705,0.989922399999999,-2.619594,-1.871354,0.4830523,0.0005820319,0.8534994,-25.63332,-26.03762,-17.724
23.239433765,0.5563561,-3.435122,-1.503177,0.4893977,0.006021724,0.8587587,-25.63332,-26.03762,-17.724
23.249345303,-0.2488386,-4.075893,-1.319088,0.496581,0.01823009,0.8582935,-25.63332,-26.03762,-17.724
23.259256363,-0.4346527,-4.308901,-1.073637,0.4989902,0.0240958,0.8616714,-25.63332,-26.03762,-17.724
23.2691679,-0.3107767,-4.134145,-0.950910899999997,0.503317,0.02118564,0.8510485,-25.63332,-26.03762,-17.724
23.27907896,-0.2488386,-4.017641,-0.644096300000003,0.5028566,0.0216822,0.8544172,-25.62063,-26.78341,-16.88652
23.288990498,-0.4965908,-4.075893,-0.766822200000002,0.5052065,0.03044393,0.8554142,-25.62063,-26.78341,-16.88652
23.298901558,-0.8682191,-4.017641,-0.889547900000002,0.5017235,0.02890627,0.8477536,-25.62063,-26.78341,-16.88652
23.308813095,-1.363724,-4.017641,-1.012274,0.4993228,0.02645959,0.8492,-25.62063,-26.78341,-16.88652
23.318724156,-1.673414,-3.959389,-1.073637,0.4997707,0.03278581,0.8525991,-25.62063,-26.78341,-16.88652
23.328635693,-1.983104,-3.726381,-0.889547900000002,0.4994608,0.02604359,0.8621602,-25.64164,-25.28686,-17.34084
23.338546753,-1.735352,-3.37687,-1.012274,0.4946447,0.02114258,0.8636126,-25.64164,-25.28686,-17.34084
23.34845829,-1.115971,-3.551625,-1.012274,0.4990824,0.01926571,0.8649995,-25.64164,-25.28686,-17.34084
23.358369351,-1.301785,-3.784633,-1.012274,0.5038735,0.02171472,0.8582493,-25.64164,-25.28686,-17.34084
23.368280888,-1.425662,-3.493374,-1.257725,0.5145698,0.02718359,0.858667,-25.64164,-25.28686,-17.34084
23.378191948,-1.673414,-3.318618,-1.99408,0.5095621,0.03584149,0.8573304,-26.37561,-26.41071,-17.33349
23.388103962,-1.79729,-3.202114,-2.546346,0.5070025,0.0425804,0.8540379,-26.37561,-26.41071,-17.33349
23.398015499,-2.168918,-3.143862,-3.159976,0.4981803,0.04684952,0.8570289,-26.37561,-26.41071,-17.33349
23.40792656,-2.912175,-2.969106,-3.528153,0.4996371,0.04686264,0.8560552,-26.37561,-26.41071,-17.33349
23.417838097,-3.965122,-3.08561,-3.589516,0.5110407,0.03732938,0.8602077,-26.37561,-26.41071,-17.33349
23.43022728,-5.575511,-3.202114,-3.405427,0.5254587,0.02104546,0.8642873,-26.0062,-26.03608,-17.33659
23.44013834,-6.13295399999998,-2.910854,-2.730435,0.532509,0.007579203,0.8684538,-26.0062,-26.03608,-17.33659
23.450049877,-4.274812,-2.619594,-1.625903,0.5364804,0.01204952,0.8794904,-26.0062,-26.03608,-17.33659
23.459960938,-3.965122,-2.037075,-1.319088,0.5285268,0.02505451,0.8820514,-26.0062,-26.03608,-17.33659
23.469872475,-4.212874,-1.920571,-1.380451,0.5045217,0.02570615,0.8784366,-26.0062,-26.03608,-17.33659
23.479783535,-4.64644,-1.396303,-1.748629,0.4867214,0.02830967,0.8622931,-25.62847,-26.41222,-17.72285
23.489695072,-4.398688,-1.163295,-2.178169,0.4827598,0.02384445,0.8522167,-25.62847,-26.41222,-17.72285
23.499606133,-4.770316,-1.745815,-2.791798,0.4739544,0.01348825,0.839745,-25.62847,-26.41222,-17.72285
23.50951767,-4.274812,-2.328334,-3.405427,0.4751513,0.0009314446,0.8463725,-25.62847,-26.41222,-17.72285
23.51942873,-3.097989,-2.619594,-3.834968,0.482006,0.0005342164,0.8467867,-25.62847,-26.41222,-17.72285
23.529340267,-3.965122,-3.027358,-3.957693,0.4943893,-0.009961578,0.8499633,-26.38046,-26.03611,-17.33464
23.539251328,-4.770316,-3.260366,-3.528153,0.5097062,-0.02334753,0.8497325,-26.38046,-26.03611,-17.33464
23.549162865,-5.451635,-3.318618,-3.282701,0.5210858,-0.03045427,0.8543814,-26.38046,-26.03611,-17.33464
23.559073925,-4.522564,-3.435122,-2.914524,0.5188111,-0.04015247,0.8596196,-26.38046,-26.03611,-17.33464
23.568985462,-3.097989,-3.318618,-3.282701,0.5056153,-0.0315341,0.8703626,-26.38046,-26.03611,-17.33464
23.578896522,-2.788299,-3.668129,-3.221339,0.4976599,-0.02828612,0.8613347,-26.00135,-26.41068,-17.33544
23.588808536,-1.673414,-3.901137,-3.650879,0.5004293,-0.01906665,0.8560888,-26.00135,-26.41068,-17.33544
23.598720074,-0.9301572,-3.027358,-3.650879,0.4990245,-0.01807706,0.8633108,-26.00135,-26.41068,-17.33544
23.608631134,-1.301785,-2.037075,-3.712242,0.4941897,-0.007378074,0.8811926,-26.00135,-26.41068,-17.33544
23.618542671,-2.850237,-0.930287099999998,-3.773605,0.4950565,0.002332476,0.8817295,-26.00135,-26.41068,-17.33544
23.628453731,-5.018068,-0.2895156,-3.650879,0.515815,-0.01388014,0.8843104,-26.374,-26.40888,-16.88378
23.638365269,-5.389697,0.409508,-3.46679,0.5354195,-0.01946495,0.8821713,-26.374,-26.40888,-16.88378
23.648276329,-5.018068,0.5260119,-3.098613,0.5357918,-0.01464152,0.8764381,-26.374,-26.40888,-16.88378
23.658187866,-3.903184,0.46776,-2.669072,0.5159634,-0.001856165,0.8651828,-26.374,-26.40888,-16.88378
23.668098926,-2.850237,0.1765001,-2.853161,0.482957,0.009800741,0.8550022,-26.374,-26.40888,-16.88378
23.678010464,-1.611476,0.0599961999999999,-3.344064,0.4626504,0.02746362,0.8505061,-26.374,-26.40888,-16.88378
23.687921524,-4.02706,-0.5225234,-4.080419,0.4587805,0.02646074,0.8534161,-26.374,-26.40888,-16.88378
23.697833061,-8.053034,-0.755531299999998,-4.878137,0.4801196,0.002984847,0.8564236,-26.374,-26.40888,-16.88378
23.710222244,-9.663423,0.351256,-4.632685,0.5356173,-0.04716694,0.8690206,-26.374,-26.40888,-16.88378
23.720133305,-9.16791799999997,1.924059,-3.589516,0.5786681,-0.0814902,0.8784772,-25.99788,-26.78684,-17.71975
23.730044842,-6.38070599999998,3.671618,-2.178169,0.6038753,-0.1029885,0.8795412,-25.99788,-26.78684,-17.71975
23.739955902,-2.850237,5.011413,-0.950910899999997,0.615673,-0.1008578,0.8880892,-25.99788,-26.78684,-17.71975
23.749867439,0.1227897,6.00169699999999,-0.3372818,0.5874181,-0.07311393,0.8832536,-25.99788,-26.78684,-17.71975
23.7597785,1.237675,6.75897199999999,-0.5213705,0.5467035,-0.03588977,0.8665925,-25.99788,-26.78684,-17.71975
23.769690037,1.485427,7.10848400000002,-1.319088,0.5190146,-0.02614855,0.8481873,-25.25906,-26.03759,-17.72595
23.779602051,1.857055,7.74925499999999,-1.99408,0.4983194,-0.02307375,0.8363951,-25.25906,-26.03759,-17.72595
23.789513111,1.299613,7.74925499999999,-2.300895,0.5031969,-0.02497002,0.8329763,-25.25906,-26.03759,-17.72595
23.799424648,-0.1869005,7.63275100000002,-2.116806,0.5083287,-0.03990476,0.8390715,-25.25906,-26.03759,-17.72595
23.809335709,1.299613,7.807507,-1.196362,0.5125998,-0.07332727,0.834968,-25.25906,-26.03759,-17.72595
23.819247246,2.042869,6.70071999999997,-0.03046724,0.5141177,-0.09328237,0.8165751,-25.62523,-26.78864,-18.17141
23.829158306,4.520391,5.88519199999999,0.889976299999999,0.5085937,-0.08562052,0.8113954,-25.62523,-26.78864,-18.17141
23.839069843,3.591321,4.953161,1.687694,0.5045826,-0.07645294,0.8124539,-25.62523,-26.78864,-18.17141
23.848980904,3.591321,4.487145,2.362686,0.4970685,-0.06590661,0.8073119,-25.62523,-26.78864,-18.17141
23.858892441,4.458453,3.671618,3.037678,0.4730549,-0.05257645,0.8177061,-25.62523,-26.78864,-18.17141
23.868803501,5.697214,2.797838,3.467218,0.4589014,-0.04688664,0.8269979,-25.63146,-26.41562,-18.55803
23.878715038,5.94496599999999,1.399791,3.896759,0.4506783,-0.04401742,0.839097,-25.63146,-26.41562,-18.55803
23.888626099,5.94496599999999,-0.580775400000001,4.633114,0.4482549,-0.03671984,0.8497316,-25.63146,-26.41562,-18.55803
23.898537636,5.82109000000002,-2.50309,4.75584,0.4609502,-0.033643,0.8515552,-25.63146,-26.41562,-18.55803
23.908448696,5.449462,-4.134145,5.79900900000001,0.4778944,-0.02034615,0.8505268,-25.63146,-26.41562,-18.55803
23.918360233,4.458453,-5.47394,6.78081600000001,0.4943746,-0.009969221,0.848523,-25.24612,-27.16321,-18.1722
23.928271294,4.210701,-5.532192,7.33308200000001,0.5010985,0.002248357,0.8509429,-25.24612,-27.16321,-18.1722
23.938183308,4.086825,-5.299184,8.19216299999999,0.5018981,0.01924099,0.8534495,-25.24612,-27.16321,-18.1722
23.948094845,5.697214,-4.425405,8.62170300000002,0.5093236,0.02767293,0.8721632,-25.24612,-27.16321,-18.1722
23.958005905,8.17473599999999,-2.852602,8.98988099999998,0.5081738,0.05732742,0.8901372,-25.24612,-27.16321,-18.1722
23.967917442,7.43147999999999,-1.804067,8.80579200000003,0.518231,0.08856577,0.9060976,-25.62661,-26.79021,-18.55688
23.977828503,5.015896,-0.755531299999998,8.31488799999999,0.5301177,0.1217141,0.9119703,-25.62661,-26.79021,-18.55688
23.990218163,1.361551,0.875523700000001,7.148993,0.5263626,0.1483275,0.9107419,-25.62661,-26.79021,-18.55688
24.000129223,-1.4876,1.982311,5.92173499999998,0.5074715,0.1645186,0.8995007,-25.62661,-26.79021,-18.55688
24.01004076,-4.02706,2.506578,4.264936,0.4917544,0.1589202,0.8861642,-25.62661,-26.79021,-18.55688
24.01995182,-5.699387,2.972594,2.669501,0.4746412,0.1362671,0.8597629,-25.9965,-26.78527,-17.33428
24.029863358,-6.62845799999998,2.681334,1.135428,0.4621262,0.1176743,0.857354,-25.9965,-26.78527,-17.33428
24.039774418,-7.86721900000001,2.098815,0.03089567,0.460893,0.09192383,0.8499916,-25.9965,-26.78527,-17.33428
24.049685955,-8.48660000000001,1.749303,-0.705459200000001,0.4700229,0.07220504,0.8588987,-25.9965,-26.78527,-17.33428
24.059597015,-8.79629,1.458043,-1.257725,0.4757339,0.04805513,0.8630064,-25.9965,-26.78527,-17.33428
24.069508076,-8.79629,0.9920276,-1.625903,0.4838003,0.02437706,0.8589328,-26.39314,-25.29032,-18.17213
24.079419613,-8.98210400000001,0.46776,-1.809992,0.5060743,-0.002523558,0.8537461,-26.39314,-25.29032,-18.17213
24.089330673,-9.16791799999997,-0.3477675,-1.809992,0.5164269,-0.02283887,0.8381499,-26.39314,-25.29032,-18.17213
24.09924221,-9.16791799999997,-1.046791,-2.178169,0.5243205,-0.04319219,0.8211358,-26.39314,-25.29032,-18.17213
24.109153271,-7.99109600000001,-1.221547,-2.607709,0.5260428,-0.07572388,0.8079388,-26.39314,-25.29032,-18.17213
24.119065285,-5.513573,-1.046791,-2.791798,0.5254088,-0.09750839,0.8159623,-25.63008,-26.41405,-18.17256
24.128976822,-3.469617,-0.988539100000001,-2.853161,0.5235878,-0.1013652,0.8245962,-25.63008,-26.41405,-18.17256
24.138887882,-1.425662,-0.813783199999999,-2.239532,0.5237597,-0.1042026,0.8380201,-25.63008,-26.41405,-18.17256
24.148799419,-0.001086392,-0.639027300000002,-1.99408,0.5199163,-0.09299646,0.8578169,-25.63008,-26.41405,-18.17256
24.15871048,0.43248,-0.8720351,-1.380451,0.5120556,-0.07457722,0.8757782,-25.63008,-26.41405,-18.17256
24.168622017,0.3705419,-0.930287099999998,-1.135,0.5034497,-0.04459017,0.8822995,-26.38829,-25.66492,-18.17098
24.178533077,-0.001086392,-1.163295,-1.319088,0.4914404,-0.02487979,0.8787007,-26.38829,-25.66492,-18.17098
24.188444614,0.1227897,-1.338051,-1.748629,0.4934426,-0.0002014288,0.8644418,-26.38829,-25.66492,-18.17098
24.198355675,-0.001086392,-1.221547,-2.546346,0.4941689,0.01138715,0.8534686,-26.38829,-25.66492,-18.17098
24.208267212,0.742170199999999,-0.813783199999999,-3.098613,0.5048174,0.0134166,0.845221,-26.38829,-25.66492,-18.17098
24.218178272,1.113798,-0.4642715,-3.528153,0.5048388,0.01245211,0.8461747,-26.37859,-26.41411,-18.16867
24.228089809,0.3705419,-0.4060195,-4.325871,0.5078299,0.007640616,0.846115,-26.37859,-26.41411,-18.16867
24.23800087,0.2466658,-0.2895156,-4.509959,0.5002026,0.0003276141,0.8567002,-26.37859,-26.41411,-18.16867
24.247912407,-0.001086392,-0.4642715,-4.9395,0.4895932,-0.007047302,0.8625112,-26.37859,-26.41411,-18.16867
24.257823467,-0.1869005,-0.930287099999998,-4.9395,0.4776,-0.01683637,0.8736005,-26.37859,-26.41411,-18.16867
24.270213127,0.3086039,-1.338051,-5.184951,0.4694883,-0.02659215,0.8817732,-25.99788,-26.78684,-17.71975
24.280124188,1.113798,-1.454555,-4.816774,0.4593059,-0.02960296,0.8866489,-25.99788,-26.78684,-17.71975
24.290035725,1.299613,-1.512807,-4.816774,0.4500446,-0.03116762,0.8876845,-25.99788,-26.78684,-17.71975
24.299946785,0.742170199999999,-1.862319,-4.694048,0.4441667,-0.03563675,0.8814669,-25.99788,-26.78684,-17.71975
24.309858799,-0.2488386,-2.270082,-4.203145,0.4628477,-0.0494981,0.8749598,-25.99788,-26.78684,-17.71975
24.319770336,-1.363724,-2.561342,-3.712242,0.4874958,-0.07542934,0.8639956,-26.01403,-25.66489,-18.17292
24.329681397,-1.79729,-2.677846,-3.03725,0.5042869,-0.1009882,0.8502256,-26.01403,-25.66489,-18.17292
24.339592934,-0.4346527,-2.736098,-2.239532,0.5248353,-0.120237,0.8287804,-26.01403,-25.66489,-18.17292
24.349503994,1.795117,-2.79435,-1.380451,0.5352885,-0.1312317,0.8338922,-26.01403,-25.66489,-18.17292
24.359415531,4.334577,-2.852602,-0.3986447,0.528659,-0.1099899,0.8321744,-26.01403,-25.66489,-18.17292
24.369326592,6.62628499999997,-2.79435,0.0922585699999997,0.5131154,-0.07720973,0.8330168,-26.00758,-26.03765,-17.72206
24.379238129,7.55535600000002,-3.08561,0.03089567,0.4908231,-0.0483674,0.8386967,-26.00758,-26.03765,-17.72206
24.389149189,6.81209899999999,-3.609878,0.0922585699999997,0.4931396,-0.02937916,0.8484051,-26.00758,-26.03765,-17.72206
24.399060726,5.573338,-3.959389,0.828613499999998,0.5141607,-0.02375219,0.8544901,-26.00758,-26.03765,-17.72206
24.408971787,5.263648,-3.784633,1.81042,0.5337139,-0.01472951,0.8644528,-26.00758,-26.03765,-17.72206
24.418883324,5.325586,-3.260366,2.730864,0.5531886,-0.0003817496,0.8730111,-26.38344,-26.03951,-18.16982
24.428794384,4.396515,-2.444838,3.896759,0.5601463,0.02000185,0.8601182,-26.38344,-26.03951,-18.16982
24.438705921,2.476436,-1.745815,4.510388,0.5668586,0.03318901,0.8625448,-26.38344,-26.03951,-18.16982
24.448617458,3.591321,-0.2895156,4.817203,0.5604237,0.03648324,0.858785,-26.38344,-26.03951,-18.16982
24.458528996,3.777135,0.5842639,5.062654,0.5425182,0.05366621,0.8494619,-26.38344,-26.03951,-18.16982
24.468440056,3.219692,1.341539,4.878565,0.5185357,0.07676865,0.8743257,-26.37859,-26.41411,-18.16867
24.478351593,2.724188,1.516295,4.019485,0.4871455,0.08705819,0.8770854,-26.37859,-26.41411,-18.16867
24.488262653,1.485427,1.865807,2.853589,0.4675215,0.09263279,0.877304,-26.37859,-26.41411,-18.16867
24.498174191,-0.06302445,1.749303,1.749057,0.4617611,0.08822482,0.8826096,-26.37859,-26.41411,-18.16867
24.508085251,-1.549538,1.807555,0.583161800000002,0.4624535,0.0707758,0.8820068,-26.37859,-26.41411,-18.16867
24.517996788,-2.974113,1.749303,-0.4600076,0.4704592,0.05340768,0.8794163,-26.38183,-26.03768,-17.72011
24.527907848,-4.088998,1.807555,-0.950910899999997,0.48344,0.02638914,0.8738345,-26.38183,-26.03768,-17.72011
24.537819386,-4.770316,2.390074,-1.257725,0.490997,-0.002183702,0.8620504,-26.38183,-26.03768,-17.72011
24.550208569,-4.64644,2.448327,-1.012274,0.5143477,-0.04024024,0.8534182,-26.38183,-26.03768,-17.72011
24.560120106,-3.531555,2.331823,-0.3986447,0.5325034,-0.05559007,0.8416243,-26.75124,-26.41231,-17.71701
24.570031166,-2.602484,2.157067,0.3377102,0.5300764,-0.05707482,0.8416368,-26.75124,-26.41231,-17.71701
24.579942703,-1.301785,1.691051,0.767250500000003,0.5284042,-0.04646836,0.8340404,-26.75124,-26.41231,-17.71701
24.589853763,-0.3107767,1.341539,1.38088,0.5218161,-0.0291075,0.8318163,-26.75124,-26.41231,-17.71701
24.599765301,-0.06302445,0.642515800000001,2.055871,0.5113976,-0.01565573,0.8329625,-26.75124,-26.41231,-17.71701
24.609676361,-0.4965908,0.2347521,2.485412,0.5078762,-0.001603572,0.8398109,-26.0062,-26.03608,-17.33659
24.619587898,-0.8682191,-0.2895156,2.178597,0.5078309,0.001787431,0.8393538,-26.0062,-26.03608,-17.33659
24.629499912,-0.682404900000003,-0.1730116,2.117234,0.5113009,0.002342759,0.8446072,-26.0062,-26.03608,-17.33659
24.639410973,0.3086039,-0.1730116,1.503605,0.5043495,0.01000679,0.843282,-26.0062,-26.03608,-17.33659
24.64932251,0.866046300000002,-0.1730116,1.258154,0.5093468,0.009636223,0.8533166,-26.0062,-26.03608,-17.33659
24.65923357,0.989922399999999,0.1765001,0.951339199999998,0.5148178,0.006824839,0.8590091,-25.25582,-26.41402,-18.17451
24.669145107,-0.4346527,0.293004,0.6445247,0.5235844,0.008868221,0.8579814,-25.25582,-26.41402,-18.17451
24.679056168,-0.5585288,0.700767799999999,0.460436,0.5269833,0.0108499,0.8579632,-25.25582,-26.41402,-18.17451
24.688967705,-0.4346527,1.108532,0.828613499999998,0.5196725,0.009306982,0.8585007,-25.25582,-26.41402,-18.17451
24.698878765,0.1847278,1.458043,0.705887599999999,0.5152745,0.01364349,0.863852,-25.25582,-26.41402,-18.17451
24.708790302,0.494418,1.807555,0.828613499999998,0.5122839,0.02089424,0.866809,-26.00758,-26.03765,-17.72206
24.718701363,0.3705419,1.982311,0.2763473,0.506714,0.03487369,0.8645527,-26.00758,-26.03765,-17.72206
24.7286129,-0.06302445,2.040563,-0.03046724,0.5032826,0.03726534,0.866521,-26.00758,-26.03765,-17.72206
24.73852396,-0.4965908,2.040563,-0.3372818,0.4846137,0.03649883,0.8570854,-26.00758,-26.03765,-17.72206
24.748435497,-0.8682191,1.749303,-0.950910899999997,0.4794218,0.02872376,0.8662047,-26.00758,-26.03765,-17.72206
24.758346558,-0.682404900000003,1.632799,-1.380451,0.4746164,0.01797466,0.861856,-26.37699,-26.41228,-17.71896
24.768258572,-0.5585288,1.283287,-1.932717,0.4708013,0.005780774,0.8570085,-26.37699,-26.41228,-17.71896
24.778169632,-1.301785,1.108532,-2.362258,0.4710449,-0.01750712,0.85349,-26.37699,-26.41228,-17.71896
24.788081169,-1.239847,0.9920276,-2.362258,0.4854856,-0.03816947,0.8546593,-26.37699,-26.41228,-17.71896
24.797992229,-0.992095199999997,0.700767799999999,-2.546346,0.4953323,-0.04386553,0.8545303,-26.37699,-26.41228,-17.71896
24.807903767,-0.4346527,0.409508,-2.546346,0.5013528,-0.05834664,0.8524575,-26.00758,-26.03765,-17.72206
24.817814827,-0.3107767,0.001744238,-2.239532,0.4997709,-0.05696143,0.8428782,-26.00758,-26.03765,-17.72206
24.830204487,0.494418,-0.4642715,-1.625903,0.4961818,-0.04343229,0.8425214,-26.00758,-26.03765,-17.72206
24.840115547,1.113798,-0.6972793,-1.319088,0.4999658,-0.03027901,0.8454549,-26.00758,-26.03765,-17.72206
24.850027084,1.547365,-1.571059,-0.950910899999997,0.4963915,-0.02210807,0.8402607,-26.00758,-26.03765,-17.72206
24.859938145,1.609303,-2.095326,-0.644096300000003,0.4943163,-0.007560544,0.8456585,-26.01243,-25.66306,-17.72321
24.869849682,1.175737,-2.270082,-0.4600076,0.4956733,0.00410799,0.8486047,-26.01243,-25.66306,-17.72321
24.879760742,0.5563561,-2.270082,-0.1531931,0.5044279,0.004681707,0.8446863,-26.01243,-25.66306,-17.72321
24.889672279,0.0608516599999998,-2.50309,-0.03046724,0.5157679,0.005847016,0.8551526,-26.01243,-25.66306,-17.72321
24.89958334,0.0608516599999998,-2.386586,0.0922585699999997,0.5162763,0.00586328,0.8570687,-26.01243,-25.66306,-17.72321
24.909494877,0.494418,-2.386586,0.2763473,0.5163124,0.004906434,0.8594627,-25.62362,-26.78681,-17.7217
24.919405937,0.804108299999999,-2.037075,0.1536215,0.5202425,0.007891798,0.864728,-25.62362,-26.78681,-17.7217
24.929317474,0.43248,-1.512807,-0.1531931,0.5230798,0.009341845,0.8570289,-25.62362,-26.78681,-17.7217
24.939229488,-0.3107767,-1.163295,-0.1531931,0.5255229,0.007420298,0.8545927,-25.62362,-26.78681,-17.7217
24.949140549,-1.239847,-1.163295,-0.1531931,0.5234765,0.01417801,0.8536963,-25.62362,-26.78681,-17.7217
24.959052086,-1.239847,-1.105043,0.03089567,0.5123329,0.01555387,0.8653324,-26.00758,-26.03765,-17.72206
24.968963146,-1.363724,-1.221547,0.1536215,0.5074785,0.01014514,0.8624603,-26.00758,-26.03765,-17.72206
24.978874683,-1.611476,-1.221547,0.0922585699999997,0.5039884,0.01250621,0.858667,-26.00758,-26.03765,-17.72206
24.988785744,-1.859228,-1.046791,0.2149844,0.5066108,0.00628777,0.8686847,-26.00758,-26.03765,-17.72206
24.998697281,-2.602484,-0.639027300000002,0.1536215,0.506085,0.007725885,0.8667785,-26.00758,-26.03765,-17.72206
25.008608341,-2.664423,-0.2312636,0.1536215,0.5036994,0.002360251,0.8662846,-26.37561,-26.41071,-17.33349
25.018519878,-2.664423,0.0599961999999999,0.03089567,0.5022943,-0.004455257,0.8643316,-26.37561,-26.41071,-17.33349
25.028430939,-2.540546,0.5260119,-0.09183015,0.5082608,-0.01359855,0.8632552,-26.37561,-26.41071,-17.33349
25.038342476,-2.230856,0.759019800000003,-0.03046724,0.5044306,-0.02823932,0.8540701,-26.37561,-26.41071,-17.33349
25.048253536,-1.983104,0.5260119,-0.214556,0.503529,-0.03504112,0.8535529,-26.37561,-26.41071,-17.33349
25.058165073,-1.425662,0.293004,-0.3372818,0.5020531,-0.03799102,0.8492255,-25.63332,-26.03762,-17.724
25.068076134,-0.992095199999997,0.0599961999999999,-0.09183015,0.4985856,-0.03464253,0.8487998,-25.63332,-26.03762,-17.724
25.077988148,-0.3107767,-0.1147597,-0.3372818,0.4996203,-0.03362513,0.8555192,-25.63332,-26.03762,-17.724
25.087899208,-0.1249625,0.0599961999999999,-0.2759189,0.4970762,-0.02736592,0.8531836,-25.63332,-26.03762,-17.724
25.097810745,0.1227897,-0.05650773,-0.03046724,0.4995549,-0.02731773,0.8565221,-25.63332,-26.03762,-17.724
25.110199928,0.2466658,-0.4060195,0.2149844,0.5067849,-0.01654845,0.8589277,-26.0062,-26.03608,-17.33659
25.120111465,0.43248,-0.5225234,0.5217989,0.5018878,-0.009296521,0.8667039,-26.0062,-26.03608,-17.33659
25.130022526,0.3086039,-0.5225234,0.705887599999999,0.5021968,0.00329888,0.863904,-26.0062,-26.03608,-17.33659
25.139934063,0.2466658,-0.2312636,0.460436,0.4937939,0.00802574,0.8606521,-26.0062,-26.03608,-17.33659
25.149845123,-0.001086392,-0.2895156,0.2763473,0.4927984,0.007028722,0.8577737,-26.0062,-26.03608,-17.33659
25.15975666,-0.1249625,-0.4642715,-0.214556,0.4961697,0.008020433,0.8539079,-25.62847,-26.41222,-17.72285
25.169667721,-0.1249625,-0.4642715,-0.582733500000001,0.4986421,0.01148002,0.8606303,-25.62847,-26.41222,-17.72285
25.179579258,0.1227897,-0.2312636,-1.135,0.4983295,-0.004531865,0.859086,-25.62847,-26.41222,-17.72285
25.189490318,0.0608516599999998,-0.3477675,-1.441814,0.5041535,-9.076297e-05,0.8600221,-25.62847,-26.41222,-17.72285
25.199401856,-0.001086392,-0.2312636,-1.748629,0.5027294,-0.004477212,0.8590457,-25.62847,-26.41222,-17.72285
25.209312916,-0.1249625,-0.2895156,-2.055443,0.5184299,-0.008643476,0.8593529,-26.37561,-26.41071,-17.33349
25.219224453,-0.4965908,-0.4060195,-1.687266,0.5290759,-0.005152,0.8525555,-26.37561,-26.41071,-17.33349
25.229135513,-1.301785,-0.2895156,-1.441814,0.5305678,-0.005608384,0.8544593,-26.37561,-26.41071,-17.33349
25.239047051,-0.682404900000003,0.001744238,-1.135,0.5260954,-0.0008227522,0.853092,-26.37561,-26.41071,-17.33349
25.248959065,-0.06302445,0.46776,-0.889547900000002,0.5108343,0.01161654,0.8576375,-26.37561,-26.41071,-17.33349
25.258870125,-0.1249625,0.5260119,-1.012274,0.4985,0.02213782,0.8592621,-25.63493,-26.03945,-18.17372
25.268781662,-0.3107767,0.700767799999999,-1.380451,0.4916438,0.03131482,0.8689899,-25.63493,-26.03945,-18.17372
25.278692722,-0.9301572,0.817271699999998,-2.055443,0.4881986,0.03321148,0.8690343,-25.63493,-26.03945,-18.17372
25.28860426,-1.735352,0.759019800000003,-2.730435,0.4905953,0.03516828,0.8666244,-25.63493,-26.03945,-18.17372
25.29851532,-2.292794,0.759019800000003,-3.344064,0.4940432,0.03180959,0.8651297,-25.63493,-26.03945,-18.17372
25.308426857,-2.974113,0.700767799999999,-3.589516,0.4888443,0.01720156,0.8655606,-26.37859,-26.41411,-18.16867
25.318337917,-3.221865,0.46776,-4.080419,0.49446,-0.003095492,0.8648933,-26.37859,-26.41411,-18.16867
25.328249455,-4.708378,-0.1147597,-4.448596,0.4925402,-0.01724757,0.8518525,-26.37859,-26.41411,-18.16867
25.338160515,-3.903184,-0.1730116,-4.325871,0.5122881,-0.04226995,0.8409397,-26.37859,-26.41411,-18.16867
25.348072052,-3.221865,-0.3477675,-3.773605,0.5266183,-0.05079464,0.8455519,-26.37859,-26.41411,-18.16867
25.357983112,-3.593493,-0.580775400000001,-3.221339,0.5413768,-0.0530033,0.8516428,-26.00758,-26.03765,-17.72206
25.36789465,-2.788299,0.001744238,-2.423621,0.5388844,-0.04281479,0.8589361,-26.00758,-26.03765,-17.72206
25.377806187,-0.3727147,0.759019800000003,-1.809992,0.5333198,-0.02639354,0.8600572,-26.00758,-26.03765,-17.72206
25.390194893,1.299613,1.225035,-1.257725,0.5212545,0.007921778,0.86808,-26.00758,-26.03765,-17.72206
25.40010643,1.795117,1.399791,-1.503177,0.5162758,0.01952156,0.8730049,-26.00758,-26.03765,-17.72206
25.410018444,-0.06302445,1.166783,-2.178169,0.5078089,0.02714189,0.8668919,-26.00758,-26.03765,-17.72206
25.419929504,-2.974113,0.817271699999998,-2.791798,0.5003611,0.02552763,0.8539858,-26.00758,-26.03765,-17.72206
25.429841042,-3.593493,1.516295,-3.46679,0.4910882,0.02493255,0.8550279,-26.00758,-26.03765,-17.72206
25.439752102,-5.080007,1.924059,-3.957693,0.4893719,0.009422917,0.8602222,-26.00758,-26.03765,-17.72206
25.449663639,-5.513573,2.448327,-4.019056,0.494106,-0.009860639,0.8701332,-26.00758,-26.03765,-17.72206
25.4595747,-5.699387,2.914342,-3.712242,0.5082319,-0.0319019,0.8866612,-25.62847,-26.41222,-17.72285
25.469486237,-5.080007,3.14735,-2.975887,0.5152251,-0.04100757,0.8903772,-25.62847,-26.41222,-17.72285
25.479397297,-4.088998,3.555114,-2.546346,0.5195804,-0.0434151,0.8831185,-25.62847,-26.41222,-17.72285
25.489308834,-3.159927,4.02113,-1.871354,0.5321787,-0.04087656,0.8748562,-25.62847,-26.41222,-17.72285
25.499219895,-2.478608,4.720153,-1.257725,0.5373759,-0.04139138,0.8565587,-25.62847,-26.41222,-17.72285
25.509131432,-2.850237,4.370642,-0.705459200000001,0.541067,-0.0390182,0.8378142,-25.62523,-26.78864,-18.17141
25.519042492,-3.655432,4.370642,-0.3372818,0.5488693,-0.04966292,0.8232664,-25.62523,-26.78864,-18.17141
25.528954029,-3.097989,4.836657,0.583161800000002,0.5479169,-0.05014966,0.8251926,-25.62523,-26.78864,-18.17141
25.538866043,-1.921166,5.477429,1.442243,0.5425389,-0.05265571,0.8223447,-25.62523,-26.78864,-18.17141
25.548777104,-0.4346527,6.17645200000001,2.362686,0.5317692,-0.04206526,0.8335585,-25.62523,-26.78864,-18.17141
25.558688641,0.989922399999999,6.23470400000003,3.160404,0.5179914,-0.02276969,0.847739,-25.63146,-26.41562,-18.55803
25.568599701,1.423489,6.00169699999999,3.467218,0.5066994,-0.007324649,0.8613908,-25.63146,-26.41562,-18.55803
25.578511238,1.113798,5.477429,3.589944,0.5020272,0.01296671,0.8586882,-25.63146,-26.41562,-18.55803
25.588422298,-0.2488386,5.069665,3.651307,0.4979336,0.03233533,0.8636568,-25.63146,-26.41562,-18.55803
25.598333836,-2.292794,4.428894,3.774033,0.4983334,0.03814872,0.8617711,-25.63146,-26.41562,-18.55803
25.608244896,-4.150936,4.545397,3.344493,0.4965454,0.02699203,0.8650745,-25.62523,-26.78864,-18.17141
25.618156433,-5.203883,5.011413,3.344493,0.489935,0.01434571,0.873214,-25.62523,-26.78864,-18.17141
25.628067493,-4.522564,5.593933,3.221767,0.4810096,-0.01533694,0.8740591,-25.62523,-26.78864,-18.17141
25.637979031,-4.212874,5.88519199999999,3.28313,0.4741472,-0.0395734,0.891727,-25.62523,-26.78864,-18.17141
25.647890091,-3.841246,6.00169699999999,3.344493,0.4659051,-0.05037266,0.8859693,-25.62523,-26.78864,-18.17141
25.657801628,-3.345741,6.351208,3.099041,0.4669033,-0.05083765,0.8873975,-24.88802,-26.04122,-18.62732
25.670190811,-2.850237,6.87547600000002,2.792227,0.4481996,-0.04869541,0.8779817,-24.88802,-26.04122,-18.62732
25.680101871,-2.168918,6.351208,2.485412,0.433878,-0.05284921,0.8593602,-24.88802,-26.04122,-18.62732
25.690013409,-2.292794,5.302673,2.178597,0.4342649,-0.05874984,0.8425118,-24.88802,-26.04122,-18.62732
25.699925423,-2.292794,3.72987,2.178597,0.4481152,-0.07751986,0.8360166,-24.89287,-25.66663,-18.62848
25.709836483,-1.983104,2.390074,2.424049,0.466315,-0.08748091,0.8348216,-24.89287,-25.66663,-18.62848
25.71974802,-0.4965908,1.516295,2.792227,0.4718799,-0.09609707,0.8428754,-24.89287,-25.66663,-18.62848
25.72965908,1.423489,0.9920276,2.976315,0.4692837,-0.08010889,0.8468472,-24.89287,-25.66663,-18.62848
25.739570618,2.66225,0.409508,3.037678,0.4569031,-0.06034343,0.8547759,-24.89287,-25.66663,-18.62848
25.749481678,2.35256,-0.2312636,2.546775,0.4522107,-0.03176982,0.8598112,-25.63467,-26.41928,-19.45745
25.759393215,2.104807,-0.755531299999998,2.178597,0.4579274,-0.01421383,0.8656372,-25.63467,-26.41928,-19.45745
25.769304275,1.237675,-1.163295,1.81042,0.4529133,0.0007820474,0.8710653,-25.63467,-26.41928,-19.45745
25.779215813,0.742170199999999,-1.629311,1.442243,0.4503941,0.0041274,0.8677498,-25.63467,-26.41928,-19.45745
25.789126873,0.1847278,-2.21183,1.38088,0.4718872,0.002922379,0.8641818,-25.63467,-26.41928,-19.45745
25.79903841,-0.4346527,-2.50309,1.626331,0.4901497,-0.01188406,0.8634341,-24.51674,-26.04459,-19.46445
25.80894947,-0.1249625,-2.153579,1.687694,0.5201026,-0.02217653,0.8635687,-24.51674,-26.04459,-19.46445
25.818861484,0.43248,-1.804067,1.81042,0.5304374,-0.02737918,0.8639186,-24.51674,-26.04459,-19.46445
25.828773022,0.927984400000002,-1.396303,1.503605,0.5290158,-0.02786181,0.8677698,-24.51674,-26.04459,-19.46445
25.838684082,1.05186,-0.639027300000002,1.442243,0.5102372,-0.016978,0.8612938,-24.51674,-26.04459,-19.46445
25.848595619,1.237675,-0.580775400000001,1.074065,0.4979903,-0.01665521,0.8594885,-24.88802,-26.04122,-18.62732
25.85850668,1.299613,-0.988539100000001,0.705887599999999,0.4930371,-0.01089587,0.8600529,-24.88802,-26.04122,-18.62732
25.868418217,1.609303,-1.163295,0.5217989,0.4924226,-0.001211186,0.8591627,-24.88802,-26.04122,-18.62732
25.878329277,2.228683,-0.6972793,0.2763473,0.4761213,0.0185006,0.8661671,-24.88802,-26.04122,-18.62732
25.888240814,2.290622,-0.755531299999998,-0.2759189,0.4734708,0.0320215,0.8619602,-24.88802,-26.04122,-18.62732
25.898151875,1.918993,-0.930287099999998,-0.644096300000003,0.4802602,0.03793168,0.8633773,-25.63653,-26.04128,-18.62343
25.908063412,0.494418,-0.988539100000001,-1.012274,0.4842178,0.03654117,0.8662124,-25.63653,-26.04128,-18.62343
25.917974472,-0.992095199999997,-1.804067,-0.950910899999997,0.4920967,0.0269119,0.8603135,-25.63653,-26.04128,-18.62343
25.927886009,-1.921166,-1.978823,-0.766822200000002,0.4897401,0.01375646,0.8535253,-25.63653,-26.04128,-18.62343
25.93779707,-1.983104,-2.386586,-0.705459200000001,0.4820706,7.999735e-05,0.8525449,-25.63653,-26.04128,-18.62343
25.950186253,-1.425662,-2.79435,-0.644096300000003,0.4716704,-0.01986896,0.864032,-24.51838,-25.66634,-18.56618
25.96009779,-1.363724,-3.202114,-0.828185100000001,0.477589,-0.03489091,0.851393,-24.51838,-25.66634,-18.56618
25.97000885,-1.549538,-3.37687,-0.705459200000001,0.4889744,-0.04784829,0.8497609,-24.51838,-25.66634,-18.56618
25.979920864,-1.177909,-3.37687,-0.950910899999997,0.500233,-0.04233514,0.8573761,-24.51838,-25.66634,-18.56618
25.989832401,-0.9301572,-2.79435,-1.319088,0.5057382,-0.03976284,0.8727074,-24.51838,-25.66634,-18.56618
25.999743462,0.1227897,-2.153579,-1.257725,0.4964987,-0.0344869,0.8838716,-25.25396,-26.79201,-19.00854
26.009654999,0.989922399999999,-1.571059,-1.441814,0.4875887,-0.0170927,0.8936731,-25.25396,-26.79201,-19.00854
26.019566059,1.485427,-0.988539100000001,-1.625903,0.480253,-0.01572177,0.8951905,-25.25396,-26.79201,-19.00854
26.029477596,0.618294100000002,-1.046791,-1.932717,0.4723916,-0.01291272,0.8948018,-25.25396,-26.79201,-19.00854
26.039388657,-0.3107767,-1.221547,-2.239532,0.4709789,-0.0236346,0.8875411,-25.25396,-26.79201,-19.00854
26.049300194,-0.744343000000003,-1.571059,-1.99408,0.4759562,-0.03718629,0.8802024,-26.01079,-26.04131,-18.62148
26.059211254,-1.115971,-1.512807,-1.932717,0.4805043,-0.05656667,0.8718685,-26.01079,-26.04131,-18.62148
26.069122791,-0.4965908,-1.163295,-1.748629,0.4968537,-0.08649732,0.8575933,-26.01079,-26.04131,-18.62148
26.079033852,0.494418,-1.046791,-1.625903,0.507262,-0.1077593,0.8463118,-26.01079,-26.04131,-18.62148
26.088945389,1.609303,-1.105043,-1.625903,0.5209159,-0.1022412,0.8491032,-26.01079,-26.04131,-18.62148
26.098857403,3.157754,-0.639027300000002,-1.56454,0.5108799,-0.08688754,0.842096,-25.26552,-25.66483,-18.17682
26.108768463,4.953958,-0.2312636,-1.257725,0.4997321,-0.04917672,0.8482122,-25.26552,-25.66483,-18.17682
26.11868,5.635276,-0.4642715,-1.503177,0.4790359,-0.01878535,0.8682925,-25.26552,-25.66483,-18.17682
26.128591061,5.263648,-0.813783199999999,-1.748629,0.4700996,-0.00579506,0.8703823,-25.26552,-25.66483,-18.17682
26.138502598,4.148763,-1.571059,-1.257725,0.4793497,-0.0008215611,0.8722506,-25.26552,-25.66483,-18.17682
26.148413658,1.980931,-2.386586,-0.644096300000003,0.4920009,0.002232344,0.8697531,-25.63169,-26.41588,-18.62227
26.158325195,0.804108299999999,-2.444838,0.0922585699999997,0.508642,-0.002916839,0.8652435,-25.63169,-26.41588,-18.62227
26.168236256,1.485427,-1.396303,0.583161800000002,0.5097097,-0.009199359,0.8666322,-25.63169,-26.41588,-18.62227
26.178147793,2.848064,-0.1730116,0.828613499999998,0.5093384,-0.01987597,0.8656042,-25.63169,-26.41588,-18.62227
26.188058853,3.095816,0.351256,0.6445247,0.5025673,-0.02772786,0.8636939,-25.63169,-26.41588,-18.62227
26.19797039,2.724188,0.293004,0.03089567,0.5016559,-0.03453475,0.8622165,-25.25743,-26.41585,-18.62422
26.207881451,2.66225,0.409508,-0.3372818,0.4972686,-0.03604633,0.8617668,-25.25743,-26.41585,-18.62422
26.217792988,2.66225,0.5260119,-0.4600076,0.4934147,-0.0404555,0.8622532,-25.25743,-26.41585,-18.62422
26.230182171,2.97194,0.933775699999999,-0.09183015,0.489022,-0.03904304,0.8647041,-25.25743,-26.41585,-18.62422
26.240093231,2.786126,0.700767799999999,0.5217989,0.4958193,-0.03215308,0.8680482,-25.25743,-26.41585,-18.62422
26.250005245,2.538374,0.933775699999999,1.319517,0.5052154,-0.02661581,0.8848037,-25.62661,-26.79021,-18.55688
26.259916782,2.724188,0.9920276,2.301323,0.5015904,-0.01749566,0.875775,-25.62661,-26.79021,-18.55688
26.269827843,3.219692,1.166783,2.914952,0.4886715,-0.000201006,0.8760097,-25.62661,-26.79021,-18.55688
26.27973938,3.839073,1.225035,2.914952,0.4827196,0.008949927,0.8785266,-25.62661,-26.79021,-18.55688
26.28965044,3.405506,1.574547,2.853589,0.4821194,0.01620301,0.8761796,-25.62661,-26.79021,-18.55688
26.299561977,2.414498,1.865807,2.178597,0.4804944,0.02244378,0.8680735,-26.00434,-26.41408,-18.17062
26.309473038,1.05186,1.807555,0.951339199999998,0.484453,0.01520009,0.8641474,-26.00434,-26.41408,-18.17062
26.319384575,0.3086039,2.040563,0.3990731,0.4875883,-0.004170478,0.8611084,-26.00434,-26.41408,-18.17062
26.329295635,0.2466658,2.331823,0.03089567,0.4968879,-0.01282978,0.8518417,-26.00434,-26.41408,-18.17062
26.339207172,0.2466658,2.564831,-0.1531931,0.503484,-0.03457671,0.8497152,-26.00434,-26.41408,-18.17062
26.349118233,0.43248,3.089098,0.3990731,0.5079155,-0.04377388,0.8419304,-25.63493,-26.03945,-18.17372
26.35902977,1.175737,2.914342,1.135428,0.5162751,-0.03827933,0.8529333,-25.63493,-26.03945,-18.17372
26.368941784,0.927984400000002,2.739586,2.178597,0.5070165,-0.03057432,0.8650743,-25.63493,-26.03945,-18.17372
26.378852844,0.742170199999999,1.865807,3.467218,0.4985334,-0.008816016,0.8739405,-25.63493,-26.03945,-18.17372
26.388764381,0.618294100000002,1.458043,4.080848,0.4909675,0.01389854,0.8780031,-25.63493,-26.03945,-18.17372
26.398675442,0.43248,1.108532,4.571751,0.4805874,0.02785804,0.8834738,-25.26228,-26.04125,-18.62537
26.408586979,0.2466658,1.05028,4.326299,0.4768884,0.03986656,0.8706237,-25.26228,-26.04125,-18.62537
26.418498039,-0.3107767,1.458043,3.589944,0.4745452,0.03013269,0.8691401,-25.26228,-26.04125,-18.62537
26.428409577,-0.4965908,1.924059,2.853589,0.4780759,0.01901223,0.8666325,-25.26228,-26.04125,-18.62537
26.438320637,-0.4346527,2.331823,2.055871,0.4942917,0.008524248,0.8620913,-25.26228,-26.04125,-18.62537
26.448232174,-0.9301572,2.564831,1.626331,0.4958621,-0.002623056,0.8591215,-25.25582,-26.41402,-18.17451
26.458143234,-1.363724,2.623082,1.258154,0.4999653,-0.01662073,0.8613912,-25.25582,-26.41402,-18.17451
26.468054772,-1.4876,2.331823,1.319517,0.4998776,-0.01959318,0.8493682,-25.25582,-26.41402,-18.17451
26.477965832,-1.115971,1.807555,1.749057,0.4990041,-0.0283316,0.8493181,-25.25582,-26.41402,-18.17451
26.487877846,-0.3727147,1.458043,2.424049,0.4868177,-0.02358708,0.8585854,-25.25582,-26.41402,-18.17451
26.497789383,-0.6204669,1.225035,2.853589,0.4769202,-0.01157597,0.8611577,-26.00918,-26.03948,-18.17177
26.510177612,-1.115971,0.817271699999998,2.976315,0.4715217,-0.00287318,0.8694283,-26.00918,-26.03948,-18.17177
26.520089626,-1.115971,0.46776,2.792227,0.4763809,-0.002827741,0.8665027,-26.00918,-26.03948,-18.17177
26.530001164,-0.6204669,0.5842639,2.362686,0.4754072,-0.002349998,0.8674753,-26.00918,-26.03948,-18.17177
26.539912224,-0.1249625,0.46776,1.687694,0.4827656,-0.008099355,0.8630474,-25.25743,-26.41585,-18.62422
26.549823761,0.1847278,0.5260119,1.074065,0.495541,-0.01132228,0.8653086,-25.25743,-26.41585,-18.62422
26.559734821,0.3086039,0.700767799999999,0.705887599999999,0.5003829,-0.009822462,0.8623929,-25.25743,-26.41585,-18.62422
26.569646358,0.3705419,0.642515800000001,0.3990731,0.5048392,-0.0112018,0.8661838,-25.25743,-26.41585,-18.62422
26.579557419,0.618294100000002,0.700767799999999,0.0922585699999997,0.4970989,-0.02101266,0.8628289,-25.25743,-26.41585,-18.62422
26.589468956,0.804108299999999,0.5842639,0.2149844,0.4935113,-0.01626329,0.8523302,-26.02026,-25.29186,-18.55955
26.599380016,0.989922399999999,0.46776,0.3990731,0.4866387,-0.01148509,0.8553065,-26.02026,-25.29186,-18.55955
26.609291553,1.05186,0.409508,0.3990731,0.4788373,-0.006693558,0.8630931,-26.02026,-25.29186,-18.55955
26.619202614,0.866046300000002,0.409508,0.3990731,0.4729682,6.143795e-05,0.870875,-26.02026,-25.29186,-18.55955
26.629114151,0.742170199999999,0.351256,0.2149844,0.4696,0.0054128,0.8824655,-26.02026,-25.29186,-18.55955
26.639026165,0.5563561,0.1765001,-0.09183015,0.472616,-0.002312546,0.8814259,-25.63978,-25.66486,-18.17487
26.648937225,0.742170199999999,0.293004,0.03089567,0.4901221,-0.002142342,0.8721421,-25.63978,-25.66486,-18.17487
26.658848762,0.989922399999999,0.5260119,-0.3372818,0.4931746,-0.008385284,0.8763937,-25.63978,-25.66486,-18.17487
26.668759823,1.175737,1.05028,-0.705459200000001,0.4989978,-0.008822683,0.8715354,-25.63978,-25.66486,-18.17487
26.67867136,1.05186,1.574547,-1.012274,0.4936493,-0.01667929,0.8652905,-25.63978,-25.66486,-18.17487
26.68858242,1.237675,1.924059,-1.012274,0.4941484,-0.01959472,0.8628656,-25.64116,-25.66643,-18.56034
26.698493957,1.361551,1.749303,-1.135,0.4837314,-0.02028856,0.8475923,-25.64116,-25.66643,-18.56034
26.708405018,1.423489,1.283287,-0.889547900000002,0.4750448,-0.01790002,0.8616131,-25.64116,-25.66643,-18.56034
26.718316555,1.237675,0.5260119,-0.889547900000002,0.4651064,-0.004934609,0.8613112,-25.64116,-25.66643,-18.56034
26.728227615,1.05186,-0.1147597,-0.828185100000001,0.4606478,0.0003460064,0.8618678,-25.64116,-25.66643,-18.56034
26.738139152,0.804108299999999,-0.580775400000001,-0.889547900000002,0.4606727,0.002797997,0.8671657,-25.26067,-26.03942,-18.17566
26.748050213,0.2466658,-1.221547,-0.766822200000002,0.4729491,-0.002875345,0.8655739,-25.26067,-26.03942,-18.17566
26.757962227,-0.06302445,-1.163295,-0.5213705,0.4925771,-0.01332591,0.860041,-25.26067,-26.03942,-18.17566
26.767873764,0.2466658,-0.6972793,-0.4600076,0.4931538,-0.02107907,0.8595038,-25.26067,-26.03942,-18.17566
26.780262947,0.1847278,-0.5225234,-0.3372818,0.4957761,-0.02729752,0.8695214,-25.26067,-26.03942,-18.17566
26.790174007,0.3086039,0.0599961999999999,-0.2759189,0.4977641,-0.03164655,0.8675535,-24.8894,-26.04279,-19.01279
26.800085545,0.742170199999999,0.2347521,-0.1531931,0.5017431,-0.03400155,0.8713422,-24.8894,-26.04279,-19.01279
26.809996605,0.989922399999999,0.001744238,-0.09183015,0.488538,-0.03368071,0.8714665,-24.8894,-26.04279,-19.01279
26.819908142,1.299613,-0.1147597,-0.03046724,0.4874022,-0.01962877,0.872531,-24.8894,-26.04279,-19.01279
26.829819202,1.175737,-0.639027300000002,0.03089567,0.4829583,-0.01970636,0.8682501,-24.8894,-26.04279,-19.01279
26.83973074,1.05186,-0.813783199999999,0.3990731,0.4789357,-0.009569192,0.8693151,-25.26365,-26.04282,-19.01084
26.8496418,0.989922399999999,-0.6972793,0.3990731,0.4719812,-0.002882394,0.8665431,-25.26365,-26.04282,-19.01084
26.859553337,0.804108299999999,-0.6972793,0.460436,0.470954,6.572809e-06,0.8651314,-25.26365,-26.04282,-19.01084
26.869464397,0.618294100000002,-0.4060195,0.3377102,0.4733948,0.001986299,0.8670426,-25.26365,-26.04282,-19.01084
26.879375935,0.1847278,-0.2895156,0.2149844,0.4949988,-0.01428297,0.8566511,-25.26365,-26.04282,-19.01084
26.889286995,0.1847278,-0.2895156,-0.03046724,0.500505,-0.02292971,0.8589433,-26.00571,-26.41565,-18.55608
26.899199009,0.3086039,-0.4060195,0.2763473,0.5041394,-0.03984986,0.8597573,-26.00571,-26.41565,-18.55608
26.909110546,0.989922399999999,-0.580775400000001,0.3377102,0.4997561,-0.04087154,0.8602712,-26.00571,-26.41565,-18.55608
26.919021606,1.980931,-0.930287099999998,0.3377102,0.494424,-0.04432935,0.8607776,-26.00571,-26.41565,-18.55608
26.928933144,2.414498,-0.988539100000001,0.767250500000003,0.4929347,-0.03996914,0.8637014,-26.00571,-26.41565,-18.55608
26.938844204,2.66225,-1.105043,0.951339199999998,0.4860777,-0.03567064,0.8676347,-25.63493,-26.03945,-18.17372
26.948755741,3.219692,-1.105043,0.889976299999999,0.4718539,-0.02904181,0.8711716,-25.63493,-26.03945,-18.17372
26.958666801,3.715197,-1.279799,0.828613499999998,0.4629011,-0.00971863,0.8790656,-25.63493,-26.03945,-18.17372
26.968578339,3.405506,-1.279799,0.3990731,0.4604273,-0.004398437,0.882485,-25.63493,-26.03945,-18.17372
26.978489399,2.35256,-1.454555,0.2763473,0.4687394,-0.007709136,0.8785449,-25.63493,-26.03945,-18.17372
26.988400936,1.609303,-1.279799,0.03089567,0.4849432,-0.01430094,0.8773907,-25.62523,-26.78864,-18.17141
26.998311996,2.042869,-0.813783199999999,0.0922585699999997,0.4991136,-0.01851854,0.8714697,-25.62523,-26.78864,-18.17141
27.00822401,2.724188,-0.1147597,0.1536215,0.5005695,-0.01801808,0.8709794,-25.62523,-26.78864,-18.17141
27.018135548,3.033878,0.351256,0.3990731,0.4941946,-0.007375526,0.8816727,-25.62523,-26.78864,-18.17141
27.028046608,2.97194,0.409508,0.3377102,0.4861377,0.003136703,0.8712538,-25.62523,-26.78864,-18.17141
27.037958145,2.538374,0.409508,0.2763473,0.4894917,0.005582793,0.8673978,-26.01079,-26.04131,-18.62148
27.047869205,2.166745,0.293004,0.2149844,0.4829405,0.02149947,0.8670843,-26.01079,-26.04131,-18.62148
27.057780743,1.733179,0.1765001,-0.09183015,0.4804209,0.02777141,0.8671494,-26.01079,-26.04131,-18.62148
27.070169926,1.113798,0.001744238,0.0922585699999997,0.4720153,0.03932614,0.8716255,-26.01079,-26.04131,-18.62148
27.080080986,0.494418,0.2347521,-0.214556,0.4680733,0.04023695,0.8697475,-26.01079,-26.04131,-18.62148
27.089992523,-0.1249625,0.1765001,-0.4600076,0.4665667,0.04068569,0.8664032,-25.62523,-26.78864,-18.17141
27.099903584,-0.4965908,0.0599961999999999,-0.828185100000001,0.4807619,0.03892007,0.8657801,-25.62523,-26.78864,-18.17141
27.109815121,-1.115971,0.001744238,-1.319088,0.4823852,0.03365398,0.874853,-25.62523,-26.78864,-18.17141
27.119726181,-1.549538,0.001744238,-1.56454,0.4907818,0.03233851,0.8814887,-25.62523,-26.78864,-18.17141
27.129637718,-2.045042,0.293004,-1.871354,0.4962127,0.02999408,0.8838237,-25.62523,-26.78864,-18.17141
27.139549732,-2.478608,0.875523700000001,-2.116806,0.4971936,0.02561761,0.8789839,-25.26552,-25.66483,-18.17682
27.149460793,-2.974113,1.458043,-2.423621,0.4934937,0.01738615,0.8900069,-25.26552,-25.66483,-18.17682
27.15937233,-3.71737,2.098815,-2.669072,0.493971,0.01299597,0.8837312,-25.26552,-25.66483,-18.17682
27.16928339,-3.841246,2.157067,-2.791798,0.4871938,-0.002176229,0.8726492,-25.26552,-25.66483,-18.17682
27.179194927,-3.593493,2.098815,-3.098613,0.4866342,-0.009048386,0.8577237,-25.26552,-25.66483,-18.17682
27.189105988,-3.221865,2.040563,-3.344064,0.4867945,-0.02164791,0.8585985,-26.38505,-26.04134,-18.61954
27.199017525,-2.41667,1.807555,-3.344064,0.4930349,-0.02309213,0.8455669,-26.38505,-26.04134,-18.61954
27.208928585,-1.673414,1.632799,-3.098613,0.4945648,-0.03084589,0.8426202,-26.38505,-26.04134,-18.61954
27.218840122,-0.4346527,1.399791,-3.098613,0.4927544,-0.0351849,0.851731,-26.38505,-26.04134,-18.61954
27.228751183,0.1847278,1.574547,-2.914524,0.4957188,-0.03610787,0.8536181,-26.38505,-26.04134,-18.61954
27.23866272,0.618294100000002,1.632799,-2.546346,0.5026239,-0.03989355,0.8549694,-25.63306,-26.41745,-19.00774
27.24857378,1.485427,1.807555,-2.546346,0.4998625,-0.0427674,0.8684203,-25.63306,-26.41745,-19.00774
27.258485794,2.166745,2.098815,-2.300895,0.5017833,-0.03983435,0.8684221,-25.63306,-26.41745,-19.00774
27.268397331,2.35256,1.574547,-1.99408,0.4904476,-0.03270468,0.8680942,-25.63306,-26.41745,-19.00774
27.278308392,2.786126,1.166783,-1.625903,0.488908,-0.02495602,0.8700807,-25.63306,-26.41745,-19.00774
27.288219929,2.848064,1.05028,-1.380451,0.4887686,-0.02112608,0.8609845,-25.63008,-26.41405,-18.17256
27.298130989,2.97194,0.817271699999998,-1.196362,0.4838146,-0.02024525,0.8557545,-25.63008,-26.41405,-18.17256
27.308042526,2.66225,0.759019800000003,-1.196362,0.4853475,-0.02702178,0.8542547,-25.63008,-26.41405,-18.17256
27.317953587,2.97194,1.05028,-1.135,0.4849713,-0.02696925,0.8653021,-25.63008,-26.41405,-18.17256
27.327865124,3.095816,1.574547,-0.889547900000002,0.4825305,-0.02358313,0.8696687,-25.63008,-26.41405,-18.17256
27.337776184,3.28163,2.040563,-0.828185100000001,0.482579,-0.01526522,0.8841284,-24.88317,-26.41582,-18.62617
27.350165367,3.28163,2.390074,-0.5213705,0.4746805,-0.0002802922,0.8943846,-24.88317,-26.41582,-18.62617
27.360076904,2.786126,2.448327,-0.2759189,0.4731377,0.01185698,0.901202,-24.88317,-26.41582,-18.62617
27.369987965,2.104807,2.273571,-0.1531931,0.478806,0.02109506,0.8925682,-24.88317,-26.41582,-18.62617
27.379899502,0.804108299999999,2.098815,0.0922585699999997,0.4822588,0.01237307,0.8852758,-24.88317,-26.41582,-18.62617
27.389810562,0.0608516599999998,2.098815,0.6445247,0.4752509,0.01073941,0.8675639,-25.24346,-27.47694,-18.55671
27.399722576,-0.2488386,2.040563,0.951339199999998,0.4805301,0.008315999,0.8550148,-25.24346,-27.47694,-18.55671
27.409634113,-0.3107767,2.040563,1.749057,0.481551,0.003472571,0.8535326,-25.24346,-27.47694,-18.55671
27.419545174,-0.06302445,1.924059,2.055871,0.4805643,0.008333834,0.8583757,-25.24346,-27.47694,-18.55671
27.429456711,-0.06302445,1.807555,2.424049,0.4792108,0.005447625,0.8660516,-25.24346,-27.47694,-18.55671
27.439367771,-0.1249625,1.749303,2.669501,0.4825909,0.01766346,0.876185,-25.25743,-26.41585,-18.62422
27.449279308,-0.4346527,1.574547,2.730864,0.4766364,0.02827641,0.880152,-25.25743,-26.41585,-18.62422
27.459190369,-1.425662,1.225035,2.914952,0.472095,0.04131882,0.8817213,-25.25743,-26.41585,-18.62422
27.469101906,-2.41667,0.875523700000001,2.608138,0.4715434,0.04079228,0.8750008,-25.25743,-26.41585,-18.62422
27.479012966,-3.593493,0.642515800000001,2.608138,0.4690955,0.03734543,0.870679,-25.25743,-26.41585,-18.62422
27.488924503,-4.274812,0.5842639,2.178597,0.4720671,0.02179206,0.8561432,-25.62661,-26.79021,-18.55688
27.498835564,-4.522564,0.642515800000001,1.994509,0.4776218,0.00536571,0.8540617,-25.62661,-26.79021,-18.55688
27.508747578,-4.274812,0.759019800000003,1.81042,0.4812616,-0.009112637,0.858253,-25.62661,-26.79021,-18.55688
27.518659115,-3.593493,0.875523700000001,1.871783,0.4784976,-0.02125615,0.8605984,-25.62661,-26.79021,-18.55688
27.528570175,-3.159927,0.759019800000003,1.564968,0.4839784,-0.02942829,0.8609735,-25.62661,-26.79021,-18.55688
27.538481712,-2.726361,0.642515800000001,1.687694,0.4870416,-0.03078763,0.8719798,-25.63169,-26.41588,-18.62227
27.548392773,-2.540546,0.5842639,1.564968,0.4865581,-0.03371775,0.8690838,-25.63169,-26.41588,-18.62227
27.55830431,-2.292794,0.46776,1.626331,0.4811071,-0.02309108,0.8744867,-25.63169,-26.41588,-18.62227
27.56821537,-1.79729,0.5842639,1.503605,0.4643869,-0.01749532,0.8717977,-25.63169,-26.41588,-18.62227
27.578126907,-1.239847,0.46776,1.319517,0.4633633,-0.01655571,0.8684523,-25.63169,-26.41588,-18.62227
27.588037968,-0.8682191,0.2347521,0.767250500000003,0.4717203,-0.02033082,0.8683499,-24.88317,-26.41582,-18.62617
27.597949505,-0.9301572,-0.1147597,0.2149844,0.471121,-0.02429677,0.8529639,-24.88317,-26.41582,-18.62617
27.607860565,-0.682404900000003,-0.2895156,-0.2759189,0.4790288,-0.03098416,0.8533264,-24.88317,-26.41582,-18.62617
27.617772579,0.3086039,-0.05650773,-0.644096300000003,0.4860256,-0.03667335,0.8613865,-24.88317,-26.41582,-18.62617
27.630161285,0.989922399999999,-0.2312636,-0.950910899999997,0.4815528,-0.02896112,0.8633999,-25.25881,-26.41742,-19.00969
27.640073299,1.609303,-0.755531299999998,-0.766822200000002,0.4746423,-0.02225139,0.864949,-25.25881,-26.41742,-19.00969
27.64998436,1.423489,-1.279799,-0.4600076,0.4658378,-0.01163156,0.8771051,-25.25881,-26.41742,-19.00969
27.659895897,1.299613,-1.920571,-0.3372818,0.4584002,-6.978307e-05,0.880612,-25.25881,-26.41742,-19.00969
27.669806957,0.866046300000002,-2.270082,-0.214556,0.4469979,0.006049542,0.8725955,-25.25881,-26.41742,-19.00969
27.679718494,0.2466658,-2.677846,-0.3986447,0.4470432,0.008024383,0.8793305,-25.25881,-26.41742,-19.00969
27.689629555,-0.3107767,-2.619594,-0.3372818,0.4665262,0.007254388,0.8709825,-25.25881,-26.41742,-19.00969
27.699541092,-0.4965908,-2.50309,-0.3986447,0.4837472,-0.002231477,0.8702798,-25.25881,-26.41742,-19.00969
27.709452152,-0.1249625,-2.270082,-0.5213705,0.4931955,-0.01178902,0.8744503,-25.25881,-26.41742,-19.00969
27.719363689,1.237675,-1.629311,-0.705459200000001,0.4906751,-0.005029739,0.8749987,-25.25881,-26.41742,-19.00969
27.72927475,1.609303,-1.338051,-1.196362,0.4765514,-0.00761707,0.8775129,-25.63791,-26.04285,-19.0089
27.739186287,1.361551,-1.571059,-1.073637,0.470677,-0.003303873,0.8819174,-25.63791,-26.04285,-19.0089
27.749098301,0.927984400000002,-1.571059,-1.380451,0.4701076,0.005916405,0.884865,-25.63791,-26.04285,-19.0089
27.759009361,0.43248,-1.629311,-1.56454,0.4669331,0.01990075,0.8777852,-25.63791,-26.04285,-19.0089
27.768920898,0.1227897,-1.687563,-1.56454,0.4644642,0.01985764,0.8754069,-25.63791,-26.04285,-19.0089
27.778831959,-0.06302445,-1.687563,-1.441814,0.4614113,0.02366133,0.8682581,-25.26713,-25.66666,-18.62653
27.788743496,-0.5585288,-2.21183,-1.380451,0.4722452,0.01017741,0.8599054,-25.26713,-25.66666,-18.62653
27.798654556,-1.054033,-2.619594,-1.196362,0.4889427,0.003594234,0.8592269,-25.26713,-25.66666,-18.62653
27.808566093,-1.425662,-3.027358,-0.766822200000002,0.4998162,-0.01279589,0.8513346,-25.26713,-25.66666,-18.62653
27.818477154,-1.054033,-2.561342,-0.2759189,0.5033634,-0.0248834,0.8493007,-25.26713,-25.66666,-18.62653
27.828388691,-0.6204669,-2.037075,0.3990731,0.5015219,-0.02826302,0.8564976,-25.2572,-26.41559,-18.55998
27.838299751,0.3705419,-1.745815,0.583161800000002,0.5020112,-0.0258177,0.8593903,-25.2572,-26.41559,-18.55998
27.848211765,0.927984400000002,-1.396303,0.2149844,0.4979885,-0.01568053,0.8604553,-25.2572,-26.41559,-18.55998
27.858122826,1.113798,-1.338051,-0.1531931,0.5029239,-0.01169305,0.8695593,-25.2572,-26.41559,-18.55998
27.868034363,1.175737,-1.163295,-0.582733500000001,0.5030307,-0.005783813,0.8868833,-25.2572,-26.41559,-18.55998
27.877945423,0.927984400000002,-0.813783199999999,-0.889547900000002,0.493102,0.00718669,0.8875418,-25.25743,-26.41585,-18.62422
27.88785696,1.237675,-0.6972793,-1.012274,0.4901216,0.006150094,0.8818005,-25.25743,-26.41585,-18.62422
27.897768021,1.299613,-0.3477675,-0.889547900000002,0.4778109,0.0118056,0.8800314,-25.25743,-26.41585,-18.62422
27.91015768,0.1847278,-0.2895156,-0.582733500000001,0.4681886,-0.003357168,0.8776186,-25.25743,-26.41585,-18.62422
27.920068741,-0.4965908,-0.2895156,-0.2759189,0.4765724,-0.01638665,0.8692916,-25.25743,-26.41585,-18.62422
27.929980278,-0.8682191,-0.1730116,0.0922585699999997,0.4858818,-0.02504086,0.8609851,-25.62684,-26.79047,-18.62112
27.939891338,-1.239847,-0.2312636,0.5217989,0.4893702,-0.02642725,0.8657452,-25.62684,-26.79047,-18.62112
27.949802876,-1.115971,-0.5225234,0.705887599999999,0.490351,-0.02543788,0.8671833,-25.62684,-26.79047,-18.62112
27.959713936,-0.3107767,-0.5225234,1.012702,0.4901702,-0.01236121,0.8648713,-25.62684,-26.79047,-18.62112
27.969625473,0.0608516599999998,-0.8720351,0.828613499999998,0.4900032,0.001210442,0.864483,-25.62684,-26.79047,-18.62112
27.979537487,-0.2488386,-0.8720351,0.460436,0.4747104,0.01216988,0.8642173,-26.00594,-26.41591,-18.62033
27.989448547,-0.4965908,-0.988539100000001,-0.1531931,0.4702318,0.0203669,0.8662339,-26.00594,-26.41591,-18.62033
27.999360085,-0.682404900000003,-0.988539100000001,-0.644096300000003,0.4634015,0.01541102,0.8619427,-26.00594,-26.41591,-18.62033
28.009271145,-0.8682191,-1.279799,-1.073637,0.4690271,-0.004880933,0.8622357,-26.00594,-26.41591,-18.62033
28.019182682,-1.054033,-1.163295,-1.319088,0.4730796,-0.0179294,0.8606707,-26.00594,-26.41591,-18.62033
28.029093742,-1.115971,-1.046791,-1.257725,0.4870189,-0.03177505,0.8686123,-25.25743,-26.41585,-18.62422
28.03900528,-1.115971,-0.5225234,-1.196362,0.5009804,-0.04707253,0.8770241,-25.25743,-26.41585,-18.62422
28.04891634,-0.5585288,0.1182482,-0.644096300000003,0.5104844,-0.05757674,0.8855091,-25.25743,-26.41585,-18.62422
28.058827877,0.0608516599999998,0.642515800000001,-0.03046724,0.5211414,-0.05212824,0.8820857,-25.25743,-26.41585,-18.62422
28.068738937,0.2466658,0.817271699999998,0.3377102,0.5061968,-0.03391887,0.8765833,-25.25743,-26.41585,-18.62422
28.078650475,0.494418,0.700767799999999,0.5217989,0.4942214,-0.0166299,0.8734482,-26.00594,-26.41591,-18.62033
28.088562012,0.3705419,0.759019800000003,0.705887599999999,0.4822103,0.00405516,0.8708161,-26.00594,-26.41591,-18.62033
28.098473549,0.3705419,0.642515800000001,0.583161800000002,0.4780567,0.02144129,0.8676093,-26.00594,-26.41591,-18.62033
28.108384609,0.1847278,0.700767799999999,0.3990731,0.472018,0.03249827,0.8638975,-26.00594,-26.41591,-18.62033
28.118296146,-0.2488386,0.46776,-0.09183015,0.463109,0.03330759,0.8543821,-26.00594,-26.41591,-18.62033
28.128207207,-0.744343000000003,0.2347521,-0.1531931,0.4753355,0.03346195,0.8547502,-25.25906,-26.03759,-17.72595
28.138118744,-0.806281,0.351256,-0.3372818,0.4858021,0.01515716,0.8526108,-25.25906,-26.03759,-17.72595
28.148029804,-1.301785,0.409508,-0.3986447,0.4908919,0.007029911,0.8625929,-25.25906,-26.03759,-17.72595
28.157941341,-1.983104,0.293004,-0.4600076,0.5008891,-0.005904922,0.8686564,-25.25906,-26.03759,-17.72595
28.167852402,-1.79729,0.409508,0.03089567,0.5088379,-0.01891246,0.8656152,-25.25906,-26.03759,-17.72595
28.177763939,-1.611476,0.642515800000001,0.2149844,0.5083913,-0.02328676,0.8646299,-25.63008,-26.41405,-18.17256
28.190153122,-1.054033,1.225035,0.828613499999998,0.5006452,-0.02188114,0.8738339,-25.63008,-26.41405,-18.17256
28.200064659,-0.5585288,1.341539,0.828613499999998,0.4917441,-0.01472619,0.8725235,-25.63008,-26.41405,-18.17256
28.20997572,-0.3727147,1.516295,0.767250500000003,0.4828559,-0.006588925,0.8736202,-25.63008,-26.41405,-18.17256
28.219887734,-0.682404900000003,1.632799,0.705887599999999,0.4789574,-0.00809443,0.8731661,-25.63008,-26.41405,-18.17256
28.229799271,-0.806281,1.516295,0.5217989,0.4788876,-0.004716167,0.8703082,-25.26067,-26.03942,-18.17566
28.239710331,-0.744343000000003,1.283287,0.3377102,0.4813466,-0.010044,0.8654484,-25.26067,-26.03942,-18.17566
28.249621868,-0.4965908,1.458043,0.3377102,0.4862544,-0.01241234,0.8644269,-25.26067,-26.03942,-18.17566
28.259532929,-0.3727147,1.574547,0.6445247,0.4897638,-0.02256832,0.8609657,-25.26067,-26.03942,-18.17566
28.269444466,-0.4346527,1.632799,0.6445247,0.4887811,-0.02258301,0.8604946,-25.26067,-26.03942,-18.17566
28.279355526,-0.2488386,1.225035,0.583161800000002,0.4849,-0.0255429,0.8600305,-25.63791,-26.04285,-19.0089
28.289267063,-0.1869005,1.166783,0.889976299999999,0.4803627,-0.01737645,0.8562856,-25.63791,-26.04285,-19.0089
28.299178124,-0.06302445,0.875523700000001,1.074065,0.4776361,-0.02315906,0.8697168,-25.63791,-26.04285,-19.0089
28.309089661,0.1227897,0.642515800000001,1.135428,0.4819005,-0.01341874,0.8678216,-25.63791,-26.04285,-19.0089
28.319001675,0.1227897,0.642515800000001,1.38088,0.4716058,-0.008683053,0.8708293,-25.63791,-26.04285,-19.0089
28.328912735,0.1227897,0.5842639,1.258154,0.4675848,0.005845276,0.8772054,-25.63169,-26.41588,-18.62227
28.338824272,-0.06302445,0.293004,0.951339199999998,0.4680934,0.0004956964,0.8728436,-25.63169,-26.41588,-18.62227
28.348735333,-0.6204669,0.2347521,0.951339199999998,0.4779668,-0.003723057,0.8770456,-25.63169,-26.41588,-18.62227
28.35864687,-0.682404900000003,0.409508,0.705887599999999,0.486863,-0.01088055,0.877876,-25.63169,-26.41588,-18.62227
28.36855793,-0.5585288,0.5260119,0.705887599999999,0.491712,-0.01327946,0.8710929,-25.63169,-26.41588,-18.62227
28.378469467,-0.4346527,0.642515800000001,0.5217989,0.4921884,-0.01181646,0.8715784,-25.6363,-26.04102,-18.55919
28.388380528,-0.3727147,0.9920276,0.705887599999999,0.4897704,-0.01817461,0.8667569,-25.6363,-26.04102,-18.55919
28.398292065,-0.5585288,0.875523700000001,0.705887599999999,0.4833381,-0.01097656,0.8678246,-25.6363,-26.04102,-18.55919
28.408203125,-0.6204669,0.875523700000001,0.6445247,0.4803497,-0.00762709,0.866434,-25.6363,-26.04102,-18.55919
28.418115139,-0.1869005,0.700767799999999,0.828613499999998,0.4729927,-0.005291666,0.8669978,-25.6363,-26.04102,-18.55919
28.428026199,-0.4346527,0.642515800000001,0.705887599999999,0.4670489,-0.0005268003,0.8651639,-25.26041,-26.41925,-19.4594
28.437937737,-0.5585288,0.293004,0.583161800000002,0.4586033,0.006129039,0.8600046,-25.26041,-26.41925,-19.4594
28.447848797,-0.8682191,0.2347521,0.705887599999999,0.4714731,-0.0004594079,0.8675242,-25.26041,-26.41925,-19.4594
28.457760334,-0.9301572,-0.1147597,0.5217989,0.4720653,-0.01405811,0.8616663,-25.26041,-26.41925,-19.4594
28.470149517,-0.992095199999997,0.0599961999999999,0.2149844,0.4791214,-0.02264331,0.8721073,-25.64276,-25.66825,-19.01005
28.480061054,-0.4965908,0.0599961999999999,0.2149844,0.4835688,-0.02451509,0.8744545,-25.64276,-25.66825,-19.01005
28.489972115,-0.3107767,0.0599961999999999,-0.214556,0.4850175,-0.02548175,0.8715537,-25.64276,-25.66825,-19.01005
28.499883652,-0.06302445,-0.1730116,-0.03046724,0.4864263,-0.02598144,0.8652953,-25.64276,-25.66825,-19.01005
28.509794712,0.1847278,-0.05650773,0.1536215,0.4883684,-0.02401289,0.8662507,-25.64276,-25.66825,-19.01005
28.519706249,0.2466658,-0.05650773,0.0922585699999997,0.4785092,-0.0168599,0.8668697,-24.87671,-26.78858,-18.1753
28.52961731,-0.001086392,-0.1147597,0.2149844,0.481408,-0.01147545,0.8697597,-24.87671,-26.78858,-18.1753
28.539528847,0.2466658,-0.2895156,0.1536215,0.4789383,-0.01103121,0.8678649,-24.87671,-26.78858,-18.1753
28.549440861,0.618294100000002,-0.3477675,0.3377102,0.4812776,-0.007153084,0.8621072,-24.87671,-26.78858,-18.1753
28.559351921,0.742170199999999,-0.5225234,0.3377102,0.4827695,-0.002243622,0.8702888,-24.87671,-26.78858,-18.1753
28.569263458,0.43248,-0.4060195,0.1536215,0.4901457,-0.001642263,0.8750262,-25.25258,-26.79044,-18.62307
28.579174518,0.2466658,-0.5225234,0.1536215,0.4881328,-0.005111061,0.8654186,-25.25258,-26.79044,-18.62307
28.589086056,0.1227897,-0.05650773,0.2149844,0.4882121,-0.01092348,0.8663394,-25.25258,-26.79044,-18.62307
28.598997116,0.3705419,0.0599961999999999,0.1536215,0.4868613,-0.02063756,0.8662872,-25.25258,-26.79044,-18.62307
28.608908653,0.927984400000002,0.351256,-0.03046724,0.4879636,-0.01909714,0.8802118,-25.25258,-26.79044,-18.62307
28.618819714,1.113798,0.1182482,-0.09183015,0.4810238,-0.01776855,0.8726023,-24.88802,-26.04122,-18.62732
28.628731251,1.671241,0.1765001,-0.2759189,0.479075,-0.01339913,0.8784114,-24.88802,-26.04122,-18.62732
28.638642311,1.299613,0.2347521,-0.214556,0.477604,-0.01098064,0.8808419,-24.88802,-26.04122,-18.62732
28.648554325,0.742170199999999,0.351256,-0.2759189,0.4760056,-0.003262554,0.8770668,-24.88802,-26.04122,-18.62732
28.658465385,0.3086039,0.409508,-0.214556,0.4779414,-0.003248455,0.8751284,-24.88802,-26.04122,-18.62732
28.668376923,0.2466658,0.1182482,-0.1531931,0.4770234,-0.003717367,0.8804154,-25.26851,-25.66822,-19.012
28.678287983,0.3086039,0.1182482,-0.214556,0.4822335,0.002115989,0.870803,-25.26851,-25.66822,-19.012
28.68819952,0.618294100000002,0.1182482,-0.3986447,0.4763382,0.004467082,0.8708732,-25.26851,-25.66822,-19.012
28.69811058,0.1847278,0.5260119,-0.5213705,0.4841231,0.000642587,0.862613,-25.26851,-25.66822,-19.012
28.708022118,-0.1249625,0.817271699999998,-0.705459200000001,0.4851916,-0.006127272,0.8635184,-25.26851,-25.66822,-19.012
28.717933178,-0.001086392,0.9920276,-0.950910899999997,0.4793417,-0.001801339,0.8703234,-26.00571,-26.41565,-18.55608
28.727844715,0.1227897,0.642515800000001,-1.073637,0.4725764,0.0005936637,0.8809654,-26.00571,-26.41565,-18.55608
28.740233898,0.2466658,0.2347521,-1.257725,0.4696107,-0.005801133,0.8703868,-26.00571,-26.41565,-18.55608
28.750145435,0.3086039,0.1765001,-1.319088,0.470056,-0.003378739,0.8689584,-26.00571,-26.41565,-18.55608
28.760056496,0.0608516599999998,0.351256,-1.135,0.4745848,-0.009598368,0.8741568,-26.00571,-26.41565,-18.55608
28.76996851,-0.2488386,0.001744238,-1.196362,0.4769233,-0.01059874,0.8626047,-25.25582,-26.41402,-18.17451
28.779880047,-0.4965908,0.001744238,-1.319088,0.4805546,-0.02313027,0.8682495,-25.25582,-26.41402,-18.17451
28.789791107,-0.06302445,0.1182482,-1.257725,0.4913158,-0.02640806,0.8647671,-25.25582,-26.41402,-18.17451
28.799702644,0.43248,0.5260119,-1.257725,0.4927931,-0.02687208,0.8652304,-25.25582,-26.41402,-18.17451
28.809613705,0.989922399999999,0.46776,-1.196362,0.4966452,-0.02148824,0.8657109,-25.25582,-26.41402,-18.17451
28.819525242,1.113798,0.409508,-1.073637,0.4853782,-0.01968873,0.865827,-25.63169,-26.41588,-18.62227
28.829436302,1.547365,0.351256,-1.073637,0.4809023,-0.007587895,0.8726713,-25.63169,-26.41588,-18.62227
28.839347839,1.299613,0.2347521,-1.012274,0.4768538,-0.004781223,0.8626441,-25.63169,-26.41588,-18.62227
28.8492589,1.05186,-0.1147597,-0.766822200000002,0.4728774,0.001477598,0.8636829,-25.63169,-26.41588,-18.62227
28.859170437,0.680232200000002,-0.3477675,-0.4600076,0.4769406,-0.006687274,0.8688726,-25.63169,-26.41588,-18.62227
28.869081974,0.742170199999999,-0.2895156,-0.5213705,0.4813373,-0.01297569,0.8611075,-25.64138,-25.66669,-18.62458
28.878993511,1.05186,-0.4060195,-0.2759189,0.4818239,-0.009068346,0.8654505,-25.64138,-25.66669,-18.62458
28.888904572,1.609303,-0.1147597,-0.3986447,0.4867517,-0.008987237,0.8692468,-25.64138,-25.66669,-18.62458
28.898816109,1.733179,-0.1147597,-0.4600076,0.4912606,-0.01765631,0.8696275,-25.64138,-25.66669,-18.62458
28.908727169,1.423489,0.0599961999999999,-0.3986447,0.4962165,-0.02487767,0.8676129,-25.64138,-25.66669,-18.62458
28.918638706,1.423489,0.1765001,-0.1531931,0.5006078,-0.0228762,0.8690261,-25.25743,-26.41585,-18.62422
28.928549767,1.423489,0.2347521,0.03089567,0.499505,-0.01612417,0.8647599,-25.25743,-26.41585,-18.62422
28.938461304,1.857055,0.409508,0.3990731,0.4911346,-0.005038954,0.8721135,-25.25743,-26.41585,-18.62422
28.948372364,2.228683,0.759019800000003,0.583161800000002,0.4709642,0.007816765,0.8752666,-25.25743,-26.41585,-18.62422
28.958283901,2.228683,0.5260119,0.460436,0.4547671,0.01343643,0.875934,-25.25743,-26.41585,-18.62422
28.968195915,1.423489,0.351256,0.583161800000002,0.4508607,0.01095115,0.8735528,-25.25743,-26.41585,-18.62422
28.978106976,0.866046300000002,0.001744238,0.2149844,0.4622684,0.001907778,0.8786688,-25.25743,-26.41585,-18.62422
28.988018513,0.1227897,-0.05650773,0.0922585699999997,0.4760091,0.0001539257,0.8814109,-25.25743,-26.41585,-18.62422
28.997929573,0.0608516599999998,-0.2895156,0.0922585699999997,0.4754949,-0.004743388,0.8732204,-25.25743,-26.41585,-18.62422
29.00784111,-0.1249625,0.0599961999999999,0.3377102,0.4824414,-0.00704412,0.8803431,-25.25743,-26.41585,-18.62422
29.020230293,-0.001086392,0.409508,0.3990731,0.4844115,-0.007012186,0.8817657,-25.25881,-26.41742,-19.00969
29.03014183,0.0608516599999998,0.409508,0.460436,0.4793898,-0.001288519,0.8756082,-25.25881,-26.41742,-19.00969
29.040052891,-0.1249625,0.642515800000001,0.2149844,0.4745478,0.002577507,0.8848017,-25.25881,-26.41742,-19.00969
29.049964428,-0.3727147,0.5842639,0.2149844,0.4695279,0.007326493,0.8776774,-25.25881,-26.41742,-19.00969
29.059875488,-0.4965908,0.5842639,-0.1531931,0.4728195,0.01705722,0.8762713,-25.25881,-26.41742,-19.00969
29.069787025,-0.4965908,0.5260119,-0.03046724,0.4688965,0.02090481,0.8796943,-25.63306,-26.41745,-19.00774
29.079698563,-0.992095199999997,0.293004,0.0922585699999997,0.4747122,0.01656104,0.8695283,-25.63306,-26.41745,-19.00774
29.0896101,-1.054033,0.5842639,0.0922585699999997,0.4874699,0.006987402,0.8626243,-25.63306,-26.41745,-19.00774
29.09952116,-1.611476,0.642515800000001,0.2149844,0.4948772,0.001263523,0.8629978,-25.63306,-26.41745,-19.00774
29.109432697,-1.4876,1.108532,0.3377102,0.4998967,-0.01129056,0.8609471,-25.63306,-26.41745,-19.00774
29.119343758,-0.9301572,1.166783,0.3377102,0.5033286,-0.0166088,0.8555982,-25.26228,-26.04125,-18.62537
29.129255295,-0.6204669,1.108532,0.3990731,0.5112631,-0.02718472,0.8540139,-25.26228,-26.04125,-18.62537
29.139166355,-0.6204669,1.166783,0.583161800000002,0.50594,-0.03015009,0.855964,-25.26228,-26.04125,-18.62537
29.149077892,-0.4965908,0.5842639,0.828613499999998,0.495416,-0.02065564,0.8422,-25.26228,-26.04125,-18.62537
29.158988953,0.0608516599999998,0.1765001,1.074065,0.4851542,-0.007122338,0.8587104,-25.26228,-26.04125,-18.62537
29.16890049,0.804108299999999,0.351256,1.012702,0.4626802,0.003824996,0.873396,-25.63008,-26.41405,-18.17256
29.178812504,1.05186,0.933775699999999,0.828613499999998,0.4471127,0.01293856,0.8918467,-25.63008,-26.41405,-18.17256
29.188723564,0.742170199999999,1.341539,0.2149844,0.4373981,0.01870341,0.9049392,-25.63008,-26.41405,-18.17256
29.198635101,-0.3727147,1.225035,-0.1531931,0.4484149,0.004339084,0.9133844,-25.63008,-26.41405,-18.17256
29.208546162,-1.611476,1.166783,-0.214556,0.4699825,-0.01877844,0.8914239,-25.63008,-26.41405,-18.17256
29.218457699,-2.10698,1.225035,-0.1531931,0.4793765,-0.0361691,0.8811378,-25.25258,-26.79044,-18.62307
29.228368759,-1.859228,1.516295,0.1536215,0.4877117,-0.05215066,0.8646289,-25.25258,-26.79044,-18.62307
29.238280296,-0.682404900000003,1.283287,0.460436,0.4862697,-0.06288783,0.8544874,-25.25258,-26.79044,-18.62307
29.248191357,0.618294100000002,0.875523700000001,0.889976299999999,0.4778647,-0.06499139,0.8430273,-25.25258,-26.79044,-18.62307
29.258102894,1.671241,0.2347521,1.074065,0.4667655,-0.04042603,0.838492,-25.25258,-26.79044,-18.62307
29.268013954,2.042869,-0.5225234,1.135428,0.4606626,-0.01574388,0.8444748,-25.63306,-26.41745,-19.00774
29.277925968,2.104807,-1.046791,1.012702,0.4649777,0.009144767,0.8652475,-25.63306,-26.41745,-19.00774
29.287837505,2.228683,-1.454555,1.074065,0.4491314,0.03128404,0.8717836,-25.63306,-26.41745,-19.00774
29.297748566,1.857055,-1.745815,0.889976299999999,0.4568686,0.04548351,0.8799693,-25.63306,-26.41745,-19.00774
29.310137749,0.43248,-1.920571,0.889976299999999,0.4725367,0.04569057,0.8822266,-25.63306,-26.41745,-19.00774
29.320049286,-1.054033,-1.804067,0.705887599999999,0.4902667,0.03329438,0.8800594,-25.63169,-26.41588,-18.62227
29.329960346,-1.735352,-1.046791,0.460436,0.4982021,0.01686527,0.8717139,-25.63169,-26.41588,-18.62227
29.339871883,-1.549538,-0.2895156,-0.03046724,0.4973682,-0.0001452048,0.8658463,-25.63169,-26.41588,-18.62227
29.349782944,-1.054033,0.2347521,-0.4600076,0.4985379,-0.01661856,0.8652456,-25.63169,-26.41588,-18.62227
29.359694481,-0.06302445,0.351256,-0.582733500000001,0.5001585,-0.02042264,0.8757688,-24.87832,-26.79041,-18.62501
29.369605541,0.680232200000002,0.46776,-0.705459200000001,0.5035208,-0.01455752,0.8767371,-24.87832,-26.79041,-18.62501
29.379517078,0.804108299999999,0.933775699999999,-0.950910899999997,0.4891942,0.002749494,0.8827468,-24.87832,-26.79041,-18.62501
29.389428139,0.43248,0.700767799999999,-1.012274,0.4738729,0.0132063,0.8791169,-24.87832,-26.79041,-18.62501
29.399340153,-0.1869005,0.700767799999999,-0.828185100000001,0.461621,0.01889239,0.8831093,-24.87832,-26.79041,-18.62501
29.40925169,-0.5585288,0.5842639,-0.705459200000001,0.4597016,0.01254541,0.8792436,-25.26228,-26.04125,-18.62537
29.41916275,-1.363724,0.001744238,-0.582733500000001,0.4655391,-0.00105529,0.8603727,-25.26228,-26.04125,-18.62537
29.429074288,-1.115971,-0.05650773,-0.5213705,0.4636781,-0.01517679,0.8530935,-25.26228,-26.04125,-18.62537
29.438985348,-0.5585288,-0.2312636,-0.5213705,0.4701843,-0.02526321,0.8558471,-25.26228,-26.04125,-18.62537
29.448896885,0.2466658,-0.6972793,-0.3372818,0.4760876,-0.02663453,0.857704,-25.26228,-26.04125,-18.62537
29.458807945,0.618294100000002,-1.163295,-0.1531931,0.4849566,-0.03234274,0.8575839,-24.88802,-26.04122,-18.62732
29.468719483,0.927984400000002,-1.454555,-0.214556,0.4908092,-0.02739901,0.8618842,-24.88802,-26.04122,-18.62732
29.478630543,0.927984400000002,-1.512807,0.03089567,0.4971291,-0.01075302,0.8777819,-24.88802,-26.04122,-18.62732
29.488542557,0.494418,-1.163295,0.03089567,0.4852842,-0.003152271,0.8760214,-24.88802,-26.04122,-18.62732
29.498454094,0.866046300000002,-0.639027300000002,-0.03046724,0.473965,0.008376211,0.8824449,-24.88802,-26.04122,-18.62732
29.508365154,0.927984400000002,-0.639027300000002,-0.2759189,0.4749757,0.01182012,0.8896609,-25.63169,-26.41588,-18.62227
29.518276692,0.3705419,-0.580775400000001,-0.2759189,0.4739664,0.01032812,0.8848587,-25.63169,-26.41588,-18.62227
29.528187752,-0.1249625,-0.2895156,-0.2759189,0.4773577,0.008403432,0.8795328,-25.63169,-26.41588,-18.62227
29.538099289,-0.5585288,-0.2895156,-0.3986447,0.4793435,0.002589824,0.8756344,-25.63169,-26.41588,-18.62227
29.548010349,-0.992095199999997,-0.2312636,-0.5213705,0.4744156,0.002508715,0.8718382,-25.63169,-26.41588,-18.62227
29.557921887,-0.6204669,-0.05650773,-0.3986447,0.476413,-0.004274477,0.8679333,-24.8797,-26.79198,-19.01048
29.567832947,-0.6204669,-0.05650773,-0.3986447,0.4856578,-0.007108621,0.8601463,-24.8797,-26.79198,-19.01048
29.577744961,-0.5585288,-0.2312636,-0.3986447,0.489525,0.0007221247,0.8649644,-24.8797,-26.79198,-19.01048
29.590133667,-0.3107767,-0.05650773,-0.214556,0.480107,0.009807618,0.8631913,-24.8797,-26.79198,-19.01048
29.600044727,-0.3727147,-0.2895156,-0.3372818,0.4707572,0.01648953,0.865243,-24.8797,-26.79198,-19.01048
29.609956741,-0.5585288,-0.580775400000001,-0.3372818,0.4680123,0.01264864,0.8791674,-25.25258,-26.79044,-18.62307
29.619868278,-0.744343000000003,-0.6972793,-0.3372818,0.4675408,0.005822345,0.8728842,-25.25258,-26.79044,-18.62307
29.629779339,-0.9301572,-0.580775400000001,-0.889547900000002,0.4697269,-0.01305774,0.8732184,-25.25258,-26.79044,-18.62307
29.639690876,-1.115971,-0.4060195,-1.135,0.483051,-0.02746304,0.8681976,-25.25258,-26.79044,-18.62307
29.649601936,-0.992095199999997,-0.1147597,-1.257725,0.4983527,-0.03793005,0.869907,-25.25258,-26.79044,-18.62307
29.659513473,-0.682404900000003,0.46776,-1.073637,0.5032525,-0.03591231,0.8732362,-25.63306,-26.41745,-19.00774
29.669424534,0.1847278,0.9920276,-1.073637,0.4988473,-0.03304293,0.876177,-25.63306,-26.41745,-19.00774
29.679336071,1.237675,1.108532,-0.766822200000002,0.4825848,-0.02111585,0.8778474,-25.63306,-26.41745,-19.00774
29.689247131,0.804108299999999,0.9920276,-0.582733500000001,0.4814409,-0.008043684,0.8769847,-25.63306,-26.41745,-19.00774
29.699159145,-0.001086392,0.817271699999998,-0.3986447,0.4735181,-0.003803188,0.8722846,-25.63306,-26.41745,-19.00774
29.709070682,-0.4965908,0.46776,-0.2759189,0.4700155,1.481082e-05,0.8689814,-24.88455,-26.41739,-19.01163
29.718981743,-0.5585288,0.293004,0.1536215,0.4719402,-0.001928098,0.8636689,-24.88455,-26.41739,-19.01163
29.72889328,-0.4965908,0.409508,0.705887599999999,0.4711156,-0.01064103,0.86842,-24.88455,-26.41739,-19.01163
29.73880434,-0.682404900000003,0.817271699999998,0.889976299999999,0.4763262,-0.02846159,0.8788166,-24.88455,-26.41739,-19.01163
29.748715877,-0.744343000000003,1.574547,0.705887599999999,0.4792108,-0.02064554,0.8831633,-24.88455,-26.41739,-19.01163
29.758626938,-0.1869005,1.691051,0.583161800000002,0.4906078,-0.02384082,0.8940803,-24.8894,-26.04279,-19.01279
29.768538475,0.494418,2.040563,0.2763473,0.4861207,-0.01369699,0.8975505,-24.8894,-26.04279,-19.01279
29.778449535,0.3086039,1.982311,0.3990731,0.4815001,-0.0002080156,0.8919212,-24.8894,-26.04279,-19.01279
