Time (s),Gyroscope X (deg/s),Gyroscope Y (deg/s),Gyroscope Z (deg/s),Accelerometer X (g),Accelerometer Y (g),Accelerometer Z (g),Magnetometer X (uT),Magnetometer Y (uT),Magnetometer Z (uT)
16.392272472,-1.054033,1.691051,0.3990731,0.395068,-0.2226785,0.8336195,-20.94135,-20.1451,-27.3397
16.402184963,-0.5585288,0.46776,0.460436,0.3945662,-0.218301,0.8374946,-20.94135,-20.1451,-27.3397
16.412096977,-0.1869005,-0.755531299999998,0.583161800000002,0.3876517,-0.2120812,0.8380801,-20.94135,-20.1451,-27.3397
16.422008991,-0.1869005,-2.153579,0.705887599999999,0.3875413,-0.1999435,0.8415231,-21.32206,-19.77236,-27.78862
16.431921959,-0.992095199999997,-4.308901,0.951339199999998,0.3875498,-0.2018903,0.8400695,-21.32206,-19.77236,-27.78862
16.441833496,-2.41667,-6.75548299999999,1.135428,0.3881131,-0.2184309,0.8279502,-21.32206,-19.77236,-27.78862
16.451746464,-2.726361,-9.551578,1.074065,0.3912551,-0.2334078,0.8307023,-21.32206,-19.77236,-27.78862
16.461658478,-2.602484,-11.76515,1.38088,0.4012857,-0.2512032,0.8343322,-21.32206,-19.77236,-27.78862
16.471570492,-1.79729,-12.87194,0.889976299999999,0.4091302,-0.2608504,0.8250724,-20.94135,-20.1451,-27.3397
16.481482983,-1.4876,-13.68747,0.460436,0.4141382,-0.2617032,0.8355839,-20.94135,-20.1451,-27.3397
16.491394997,-4.770316,-12.81369,0.3377102,0.4240566,-0.2610205,0.8499015,-20.94135,-20.1451,-27.3397
16.501307488,-8.176909,-11.76515,0.3990731,0.4251447,-0.2570485,0.865283,-20.94135,-20.1451,-27.3397
16.511219502,-9.911175,-12.28942,0.2149844,0.4318182,-0.2621698,0.8901554,-20.94135,-20.1451,-27.3397
16.521131992,-7.557528,-12.11466,0.5217989,0.4432134,-0.2697562,0.8957613,-21.32046,-19.77053,-27.33891
16.531044006,-5.327759,-11.35739,0.3990731,0.4711672,-0.2776566,0.8944898,-21.32046,-19.77053,-27.33891
16.54095602,-3.221865,-9.43507399999997,0.460436,0.4794557,-0.2814674,0.8876656,-21.32046,-19.77053,-27.33891
16.550868511,-0.1869005,-8.38653900000002,0.767250500000003,0.4847562,-0.2741237,0.8886258,-21.32046,-19.77053,-27.33891
16.560780525,3.343568,-9.26031799999999,1.196791,0.4858095,-0.2672429,0.904027,-21.32046,-19.77053,-27.33891
16.570693016,3.343568,-6.23121499999997,1.442243,0.5246909,-0.2461394,0.9532642,-22.06412,-20.14519,-27.33386
16.58060503,1.361551,1.225035,1.626331,0.5539475,-0.2341069,0.9593159,-22.06412,-20.14519,-27.33386
16.590517998,0.989922399999999,6.70071999999997,2.117234,0.5557079,-0.229306,0.9458872,-22.06412,-20.14519,-27.33386
16.602907658,-0.992095199999997,9.38030999999998,3.344493,0.5447153,-0.222734,0.9306676,-22.06412,-20.14519,-27.33386
16.612819672,-2.540546,12.0599,4.203574,0.5381745,-0.2312022,0.9028225,-22.05629,-20.51638,-26.49753
16.622732162,-4.150936,13.45795,6.53536400000002,0.525892,-0.2435809,0.8826869,-22.05629,-20.51638,-26.49753
16.632644176,-0.2488386,17.01132,8.13079899999997,0.5350962,-0.2583829,0.9045905,-22.05629,-20.51638,-26.49753
16.642557144,4.89202,23.8268,8.92851700000003,0.5592321,-0.2923767,0.9295892,-22.05629,-20.51638,-26.49753
16.652469158,7.369542,28.77821,10.21714,0.5319538,-0.3141292,0.9143315,-22.05629,-20.51638,-26.49753
16.662381649,3.962949,26.91415,11.19895,0.4890136,-0.3134069,0.8763208,-22.06114,-20.14179,-26.49868
16.672293663,-2.664423,19.69091,12.54893,0.4437507,-0.3282616,0.8319857,-22.06114,-20.14179,-26.49868
16.682205677,-7.00008600000001,10.6036,14.14436,0.4367157,-0.3391777,0.8007678,-22.06114,-20.14179,-26.49868
16.692118168,-5.82326300000003,4.836657,16.2307,0.4637872,-0.3616748,0.7917246,-22.06114,-20.14179,-26.49868
16.702030182,-1.735352,7.10848400000002,15.92389,0.4771659,-0.3711736,0.7977797,-22.06114,-20.14179,-26.49868
16.711942673,-4.02706,12.40941,14.69663,0.4605873,-0.3364842,0.7952832,-21.31561,-20.14513,-27.33775
16.721854687,-6.75233400000001,9.205554,14.81936,0.4354059,-0.3659436,0.7847564,-21.31561,-20.14513,-27.33775
16.731767178,2.538374,6.00169699999999,13.77619,0.4365671,-0.3497296,0.9168971,-21.31561,-20.14513,-27.33775
16.741679192,15.17374,10.19584,9.66487199999998,0.4746014,-0.2929604,1.020638,-21.31561,-20.14513,-27.33775
16.751591206,20.8101,19.63266,5.246743,0.4975436,-0.2658637,1.048455,-21.31561,-20.14513,-27.33775
16.761503696,20.8101,30.52577,5.18538,0.5083998,-0.2654379,1.010905,-21.32206,-19.77236,-27.78862
16.77141571,23.84506,37.05,6.84217800000002,0.5214819,-0.2828871,1.074049,-21.32206,-19.77236,-27.78862
16.781328678,31.33957,45.43827,8.86715399999999,0.561202,-0.2708637,1.146746,-21.32206,-19.77236,-27.78862
16.791240692,34.68422,60.1177699999999,9.05124299999999,0.6182145,-0.2282981,1.177232,-21.32206,-19.77236,-27.78862
16.801152229,34.99392,68.09829,9.787598,0.520191,-0.1494212,1.009168,-21.32206,-19.77236,-27.78862
16.811065197,34.06484,68.0400300000001,10.89213,0.4006003,-0.0442515,0.9144632,-20.5784,-19.39771,-27.79367
16.820977211,30.34856,63.0886199999997,12.54893,0.3078279,-0.00340471,0.8800617,-20.5784,-19.39771,-27.79367
16.830889702,29.91499,57.4381800000002,14.75799,0.3262411,-0.01154293,0.9494601,-20.5784,-19.39771,-27.79367
16.840801716,32.64027,55.39936,15.37162,0.3512562,-0.04654266,1.058952,-20.5784,-19.39771,-27.79367
16.850714207,21.11979,56.15664,11.56712,0.3888954,-0.09850258,1.139884,-20.5784,-19.39771,-27.79367
16.860626221,2.042869,49.45766,8.80579200000003,0.3883508,-0.1904845,1.074455,-18.32961,-19.77395,-28.2539
16.870538235,-4.832254,41.71015,10.33986,0.4107809,-0.2543772,1.041171,-18.32961,-19.77395,-28.2539
16.882928848,5.94496599999999,44.85575,13.53074,0.4452735,-0.3657486,1.079483,-18.32961,-19.77395,-28.2539
16.892840862,7.05985200000002,52.42851,17.15115,0.388901,-0.4413914,1.120314,-18.32961,-19.77395,-28.2539
16.902753353,1.671241,53.5353,17.64205,0.3082576,-0.4540997,1.0139,-18.32961,-19.77395,-28.2539
16.912665367,6.750161,47.36059,16.10798,0.2518417,-0.3615077,0.8661898,-16.4613,-19.7772,-29.09881
16.922577858,20.8101,41.82666,12.4262,0.2345392,-0.2018467,0.7488144,-16.4613,-19.7772,-29.09881
16.932489872,24.89801,39.43832,9.72623500000002,0.1970017,-0.03887135,0.6647791,-16.4613,-19.7772,-29.09881
16.942401886,15.66924,35.8267,6.65808999999999,0.1105169,0.03299038,0.61228,-16.4613,-19.7772,-29.09881
16.952314377,1.671241,30.35102,4.387662,0.05339538,0.003778149,0.5391494,-16.4613,-19.7772,-29.09881
16.962226391,-9.04404300000003,22.77826,4.694477,0.02750981,-0.05725844,0.5183354,-15.34174,-19.78077,-30.00408
16.972139359,-12.57451,15.03075,5.369469,0.03239315,-0.09109852,0.5257474,-15.34174,-19.78077,-30.00408
16.982051373,-12.14094,9.61331700000002,5.124017,0.005671753,-0.1359758,0.5376995,-15.34174,-19.78077,-30.00408
16.991963863,-14.12296,3.089098,4.387662,-0.03595861,-0.1767716,0.5310905,-15.34174,-19.78077,-30.00408
17.001875877,-18.70638,-5.240932,3.344493,-0.04618676,-0.231753,0.5183346,-15.34174,-19.78077,-30.00408
17.011787891,-16.47661,-12.81369,1.871783,-0.02317364,-0.2614442,0.5342494,-13.47183,-19.78219,-30.39928
17.021700382,-9.04404300000003,-18.11462,0.1536215,0.01466607,-0.2903818,0.5663574,-13.47183,-19.78219,-30.39928
17.031612396,1.237675,-21.60973,-1.073637,0.02948466,-0.290608,0.5806236,-13.47183,-19.78219,-30.39928
17.041524887,8.05085899999999,-24.46408,-3.650879,0.03128505,-0.2594448,0.6019415,-13.47183,-19.78219,-30.39928
17.051436901,11.39551,-30.40578,-6.41221000000002,0.02846829,-0.2267377,0.6516418,-13.47183,-19.78219,-30.39928
17.061349392,15.29761,-37.80378,-8.74399900000002,0.05618594,-0.2067078,0.7076973,-13.10888,-19.0348,-30.85324
17.071261406,18.27064,-42.05617,-10.70761,0.08378959,-0.1779568,0.7628518,-13.10888,-19.0348,-30.85324
17.08117342,17.89901,-44.50275,-12.30305,0.09889777,-0.1463249,0.8426291,-13.10888,-19.0348,-30.85324
17.091085911,12.38652,-46.71633,-13.0394,0.1274233,-0.115879,0.9419609,-13.10888,-19.0348,-30.85324
17.100997925,1.547365,-49.86193,-11.50533,0.1644334,-0.08451214,1.011451,-13.10888,-19.0348,-30.85324
17.110910893,-8.11497100000001,-51.02697,-8.98945100000001,0.2116903,-0.03985704,1.094378,-13.8528,-19.02963,-29.56446
17.12082243,-15.79529,-50.73571,-8.25309699999997,0.2626875,-0.04109587,1.106863,-13.8528,-19.02963,-29.56446
17.130735397,-25.95313,-54.11433,-7.08720199999999,0.2470955,-0.04272673,1.110357,-13.8528,-19.02963,-29.56446
17.140647411,-36.54454,-60.6967999999998,-7.08720199999999,0.2581871,-0.09729163,1.126697,-13.8528,-19.02963,-29.56446
17.150559425,-45.2778,-61.1045600000002,-6.35084600000001,0.3010726,-0.1865657,1.198689,-13.8528,-19.02963,-29.56446
17.160471916,-50.04703,-54.52209,-4.080419,0.3637408,-0.2569505,1.219248,-16.08543,-19.77534,-28.65105
17.172861576,-52.09098,-43.97849,-0.582733500000001,0.4501591,-0.320563,1.179612,-16.08543,-19.77534,-28.65105
17.182774544,-46.82625,-34.1339,1.564968,0.4990866,-0.3270119,1.12726,-16.08543,-19.77534,-28.65105
17.192686558,-37.59748,-21.14372,1.687694,0.5091766,-0.3277122,1.06138,-16.08543,-19.77534,-28.65105
17.202599049,-16.91018,-17.24084,0.3990731,0.4181496,-0.2937886,0.9030354,-16.08543,-19.77534,-28.65105
17.212511063,18.2087,-19.2214,-4.080419,0.3159282,-0.2429145,0.6743239,-17.21306,-19.40084,-28.64636
17.222423077,32.45445,-21.43498,-8.86672600000002,0.1877383,-0.1616524,0.5713763,-17.21306,-19.40084,-28.64636
17.232335568,-5.265821,-29.93976,-9.78716900000001,0.03039763,-0.06528112,0.6474178,-17.21306,-19.40084,-28.64636
17.242247582,-71.4156599999998,-49.33767,-9.29626599999999,0.03724459,-0.07956272,0.8690925,-17.21306,-19.40084,-28.64636
17.252160072,-99.3497199999999,-53.35705,-7.33265300000001,0.3319186,-0.3539458,1.197289,-17.21306,-19.40084,-28.64636
17.262072086,-63.9211600000001,-29.06598,-2.300895,0.5906394,-0.554303,1.301117,-18.34739,-18.27374,-27.80881
17.271984577,-14.37072,-5.590444,-2.116806,0.6714888,-0.5944277,1.222796,-18.34739,-18.27374,-27.80881
17.281896591,26.57034,4.428894,-1.871354,0.6445433,-0.567732,1.106065,-18.34739,-18.27374,-27.80881
17.291808605,57.7871200000002,1.924059,-1.99408,0.5872572,-0.4168079,0.9894811,-18.34739,-18.27374,-27.80881
17.301721573,64.1047999999999,1.865807,-0.889547900000002,0.4632658,-0.170008,0.822296,-18.34739,-18.27374,-27.80881
17.31163311,38.58632,-8.03702600000001,-2.362258,0.3221461,0.0709647,0.6946034,-19.84928,-17.89927,-27.80218
17.321546078,1.857055,-24.23107,-6.47357199999998,0.1719348,0.07731652,0.5976025,-19.84928,-17.89927,-27.80218
17.331458092,-31.89918,-33.31838,-10.8917,0.2233193,-0.000297324,0.653749,-19.84928,-17.89927,-27.80218
17.341370583,-47.94114,-31.1048,-15.18711,0.3890567,-0.1723522,0.7355779,-19.84928,-17.89927,-27.80218
17.351282597,-39.33175,-24.58058,-15.73937,0.5029776,-0.3179803,0.8022168,-19.84928,-17.89927,-27.80218
17.361194611,-18.02506,-14.38649,-17.21208,0.6358643,-0.393428,0.8931558,-19.83958,-18.64846,-27.79987
17.371107102,5.94496599999999,-1.163295,-16.96663,0.7219447,-0.415744,0.9642347,-19.83958,-18.64846,-27.79987
17.381019116,27.99491,9.67157,-14.88029,0.7043486,-0.3566971,0.9863979,-19.83958,-18.64846,-27.79987
17.390931606,42.67423,16.89481,-14.63484,0.6078753,-0.2345833,0.9247229,-19.83958,-18.64846,-27.79987
17.40084362,40.19671,15.61327,-14.81893,0.4398274,-0.1349239,0.8189053,-19.83958,-18.64846,-27.79987
17.410756111,18.64227,0.2347521,-14.26666,0.2982992,-0.0890111,0.756659,-21.70926,-18.64678,-27.34042
17.420668125,-6.69039600000003,-17.6486,-14.38939,0.317718,-0.1498056,0.767118,-21.70926,-18.64678,-27.34042
17.430580139,-20.06902,-27.78444,-13.65303,0.40832,-0.2405359,0.8175328,-21.70926,-18.64678,-27.34042
17.440493107,-17.09599,-26.79416,-13.34622,0.488117,-0.325572,0.870006,-21.70926,-18.64678,-27.34042
17.452882767,-0.744343000000003,-19.04665,-11.87351,0.5541416,-0.3527821,0.8869799,-21.70117,-19.3978,-27.78783
17.462795258,9.16574500000002,-13.92048,-10.46216,0.5570868,-0.319817,0.8790096,-21.70117,-19.3978,-27.78783
17.472707272,9.84706299999998,-12.63893,-10.21671,0.5230279,-0.2733375,0.854666,-21.70117,-19.3978,-27.78783
17.482620239,2.848064,-13.74572,-10.15535,0.4977508,-0.2484608,0.8507441,-21.70117,-19.3978,-27.78783
17.492532253,-6.62845799999998,-15.26027,-9.90989499999997,0.4882517,-0.2272224,0.8552948,-21.70117,-19.3978,-27.78783
17.502444744,-14.12296,-15.84279,-9.72580600000002,0.48401,-0.2359753,0.8605575,-22.06412,-20.14519,-27.33386
17.512356758,-16.47661,-14.736,-9.54171799999998,0.4926866,-0.2483646,0.8815216,-22.06412,-20.14519,-27.33386
17.522268772,-14.30878,-12.40592,-9.35762899999997,0.5111481,-0.2674577,0.8951484,-22.06412,-20.14519,-27.33386
17.532181263,-10.53056,-9.551578,-9.35762899999997,0.5195417,-0.2697504,0.9003372,-22.06412,-20.14519,-27.33386
17.542093277,-6.814272,-6.63897900000002,-9.29626599999999,0.5233986,-0.264364,0.9012977,-22.06412,-20.14519,-27.33386
17.552005768,-5.018068,-4.075893,-8.80536299999997,0.5281305,-0.259019,0.8921666,-22.43539,-20.14182,-26.49673
17.561917782,-5.513573,-1.978823,-7.70083,0.5103303,-0.2564155,0.8760232,-22.43539,-20.14182,-26.49673
17.571830273,-7.18590000000003,-0.4060195,-6.96447600000002,0.5096909,-0.2491828,0.8698352,-22.43539,-20.14182,-26.49673
17.581742287,-8.11497100000001,1.632799,-5.614491,0.5132381,-0.2612703,0.8678012,-22.43539,-20.14182,-26.49673
17.591654301,-7.49559099999998,4.195886,-5.062225,0.4936181,-0.2498399,0.8752612,-22.43539,-20.14182,-26.49673
17.601566791,-6.87620999999998,6.29295599999999,-4.9395,0.4887757,-0.253779,0.8752798,-22.44185,-19.76905,-26.9476
17.611478805,-5.575511,8.15701899999998,-4.878137,0.4899885,-0.2590104,0.8920392,-22.44185,-19.76905,-26.9476
17.621391773,-4.584502,8.91429399999998,-4.080419,0.4735622,-0.2747252,0.8930468,-22.44185,-19.76905,-26.9476
17.63130331,-3.655432,9.55506599999997,-3.773605,0.459967,-0.2855785,0.8897391,-22.44185,-19.76905,-26.9476
17.641216278,-2.230856,9.49681400000001,-4.141782,0.4628562,-0.2909308,0.8791132,-22.44185,-19.76905,-26.9476
17.651128292,-0.992095199999997,9.78807399999997,-4.203145,0.4575562,-0.3012012,0.8747724,-22.06114,-20.14179,-26.49868
17.661040306,-0.806281,9.32205800000003,-4.080419,0.4555264,-0.2954105,0.8743496,-22.06114,-20.14179,-26.49868
17.670952797,-1.921166,8.44827800000003,-4.080419,0.4505973,-0.2920777,0.8744174,-22.06114,-20.14179,-26.49868
17.680864811,-2.788299,7.86575900000002,-3.834968,0.4538777,-0.284304,0.8696373,-22.06114,-20.14179,-26.49868
17.690777302,-1.301785,8.04051500000001,-2.669072,0.4500464,-0.2823599,0.8797689,-22.06114,-20.14179,-26.49868
17.700689316,0.494418,8.91429399999998,-1.809992,0.4332719,-0.2684997,0.8814569,-22.06114,-20.14179,-26.49868
17.710601807,2.104807,9.08905000000002,-1.319088,0.4282266,-0.2686419,0.8661376,-22.06114,-20.14179,-26.49868
17.720513821,2.66225,7.86575900000002,-1.257725,0.4301584,-0.2637519,0.8695134,-22.06114,-20.14179,-26.49868
17.732903957,2.104807,7.39974399999998,-0.828185100000001,0.4280199,-0.2360666,0.8841223,-22.06114,-20.14179,-26.49868
17.742816448,0.1227897,7.807507,-0.889547900000002,0.4313956,-0.2321457,0.8841172,-22.06114,-20.14179,-26.49868
17.752728462,0.680232200000002,8.15701899999998,-1.012274,0.4366534,-0.2443363,0.8580588,-21.68364,-20.51819,-26.94918
17.762640953,3.095816,8.44827800000003,-0.766822200000002,0.434133,-0.2483087,0.8460518,-21.68364,-20.51819,-26.94918
17.772552967,4.644268,8.44827800000003,-0.644096300000003,0.4326985,-0.239042,0.8600513,-21.68364,-20.51819,-26.94918
17.782465458,3.157754,7.74925499999999,-0.705459200000001,0.419829,-0.2192826,0.8679845,-21.68364,-20.51819,-26.94918
17.792377472,0.742170199999999,6.64246800000002,-0.766822200000002,0.4183241,-0.2198085,0.8636735,-21.68364,-20.51819,-26.94918
17.802289486,0.43248,6.29295599999999,-0.889547900000002,0.4123077,-0.2209351,0.8478764,-21.68525,-20.52002,-27.3989
17.812202454,2.104807,6.46771199999997,-0.828185100000001,0.4080536,-0.2075038,0.8302394,-21.68525,-20.52002,-27.3989
17.822113991,2.724188,6.05994799999998,-0.644096300000003,0.3952042,-0.2013925,0.8241569,-21.68525,-20.52002,-27.3989
17.832026958,1.547365,4.428894,0.3990731,0.4082126,-0.227421,0.8224227,-21.68525,-20.52002,-27.3989
17.841938972,1.547365,3.904626,1.503605,0.4269513,-0.2292967,0.883217,-21.68525,-20.52002,-27.3989
17.851851463,-0.5585288,3.322106,1.442243,0.423283,-0.2306825,0.905329,-20.93165,-20.89429,-27.33739
17.861763477,-2.41667,3.263854,1.564968,0.4278449,-0.2495679,0.8989189,-20.93165,-20.89429,-27.33739
17.871675491,1.299613,4.60365,1.258154,0.4203842,-0.2575303,0.8773278,-20.93165,-20.89429,-27.33739
17.881587982,4.520391,5.186169,1.38088,0.4295987,-0.2752539,0.8968109,-20.93165,-20.89429,-27.33739
17.891499996,1.918993,5.011413,2.362686,0.4417192,-0.2968576,0.909039,-20.93165,-20.89429,-27.33739
17.901412487,0.5563561,6.584216,2.301323,0.4484992,-0.2992449,0.8998374,-21.31076,-20.51972,-27.3366
17.911324501,1.05186,9.55506599999997,2.117234,0.4481394,-0.2687004,0.9005244,-21.31076,-20.51972,-27.3366
17.921236992,-0.3107767,11.53563,2.485412,0.4278903,-0.2583247,0.8930982,-21.31076,-20.51972,-27.3366
17.931149006,-2.974113,11.24437,3.589944,0.416297,-0.2730321,0.8897464,-21.31076,-20.51972,-27.3366
17.941061974,-2.292794,10.66185,5.001291,0.4160438,-0.3026717,0.8780274,-21.31076,-20.51972,-27.3366
17.950973511,2.848064,12.0599,6.22854899999998,0.4142873,-0.3177143,0.8798641,-21.31561,-20.14513,-27.33775
17.960885525,7.67923199999999,13.57445,7.39444499999999,0.4095972,-0.324501,0.8913861,-21.31561,-20.14513,-27.33775
17.970798492,8.85605400000001,14.44823,8.00807399999998,0.402213,-0.3153505,0.8972772,-21.31561,-20.14513,-27.33775
17.980710506,6.750161,13.69096,8.37625100000002,0.402135,-0.2968545,0.9113257,-21.31561,-20.14513,-27.33775
17.990622997,2.97194,12.23466,8.62170300000002,0.39977,-0.2712382,0.901435,-21.31561,-20.14513,-27.33775
18.000535011,0.494418,11.12787,8.13079899999997,0.4083523,-0.2649005,0.8874732,-20.2009,-19.7741,-28.24417
18.010447502,0.989922399999999,11.01136,7.76262199999999,0.4155116,-0.2556315,0.8812267,-20.2009,-19.7741,-28.24417
18.022837639,3.343568,11.76864,6.84217800000002,0.4289211,-0.2478016,0.8629088,-20.2009,-19.7741,-28.24417
18.03275013,5.697214,12.58417,5.92173499999998,0.4217449,-0.2378155,0.8423949,-20.2009,-19.7741,-28.24417
18.042662144,7.43147999999999,13.10844,4.694477,0.4116605,-0.2307797,0.820928,-20.2009,-19.7741,-28.24417
18.052574158,7.43147999999999,12.58417,3.896759,0.3941736,-0.2126517,0.8058454,-20.57355,-19.7723,-27.79251
18.062486649,5.75915199999997,10.95311,3.160404,0.3825597,-0.190057,0.7965001,-20.57355,-19.7723,-27.79251
18.072398663,3.095816,8.50653100000001,2.23996,0.3676578,-0.1737766,0.7929052,-20.57355,-19.7723,-27.79251
18.082311153,0.3705419,5.419177,1.503605,0.362197,-0.1685209,0.7910701,-20.57355,-19.7723,-27.79251
18.092223167,-1.549538,2.681334,0.951339199999998,0.3519928,-0.1730064,0.7920949,-20.57355,-19.7723,-27.79251
18.102135658,-2.230856,0.5842639,0.460436,0.3491531,-0.1759211,0.7978635,-19.81694,-20.52326,-28.24381
18.112047672,-2.912175,-1.862319,0.460436,0.3476949,-0.1725203,0.8027013,-19.81694,-20.52326,-28.24381
18.121959686,-3.841246,-4.367153,0.3990731,0.3376986,-0.1861659,0.8132663,-19.81694,-20.52326,-28.24381
18.131872654,-4.64644,-6.988491,0.3990731,0.337907,-0.1982526,0.819426,-19.81694,-20.52326,-28.24381
18.141784191,-5.451635,-9.49332599999999,0.583161800000002,0.3548315,-0.2110591,0.8335889,-19.81694,-20.52326,-28.24381
18.151697159,-5.76132499999998,-11.64865,0.3990731,0.3618746,-0.2152608,0.8479005,-19.82317,-20.15024,-28.63043
18.161609173,-5.451635,-12.81369,-0.09183015,0.367412,-0.2302328,0.8458289,-19.82317,-20.15024,-28.63043
18.171521664,-5.513573,-13.68747,-0.828185100000001,0.37346,-0.2329922,0.8601593,-19.82317,-20.15024,-28.63043
18.181433678,-6.44264400000003,-14.26999,-1.196362,0.3926378,-0.2297702,0.8744082,-19.82317,-20.15024,-28.63043
18.191345692,-7.929157,-13.97873,-2.239532,0.3902326,-0.2244143,0.8845494,-19.82317,-20.15024,-28.63043
18.201258183,-7.99109600000001,-13.2797,-2.423621,0.3882224,-0.2500725,0.8968812,-20.19605,-20.1487,-28.24302
18.211170197,-7.49559099999998,-13.97873,-2.239532,0.3882643,-0.2515141,0.899272,-20.19605,-20.1487,-28.24302
18.221082687,-7.062024,-14.09523,-2.484983,0.3930723,-0.2475929,0.8958926,-20.19605,-20.1487,-28.24302
18.230994701,-8.23884800000001,-14.15348,-3.46679,0.3985522,-0.2552777,0.896751,-20.19605,-20.1487,-28.24302
18.240907192,-11.088,-13.68747,-3.712242,0.4004877,-0.2630687,0.8856375,-20.19605,-20.1487,-28.24302
18.250819206,-12.3887,-12.23117,-4.019056,0.4182543,-0.258621,0.8590941,-20.94296,-20.14693,-27.78941
18.26073122,-8.548538,-8.561295,-4.509959,0.4213736,-0.2484921,0.8413669,-20.94296,-20.14693,-27.78941
18.270644188,-2.168918,-5.299184,-5.123589,0.4039183,-0.2288842,0.8310955,-20.94296,-20.14693,-27.78941
18.280555725,0.494418,-5.18268,-5.491766,0.3792929,-0.2226928,0.8688169,-20.94296,-20.14693,-27.78941
18.290468693,-2.045042,-7.92052300000001,-5.246314,0.3543269,-0.2413085,0.8919713,-20.94296,-20.14693,-27.78941
18.302858353,-5.141944,-12.81369,-5.184951,0.3515567,-0.2554064,0.8914228,-20.57355,-19.7723,-27.79251
18.31277132,-5.76132499999998,-15.02726,-5.553129,0.3576948,-0.2544649,0.8712057,-20.57355,-19.7723,-27.79251
18.322683334,-4.770316,-16.65832,-6.22812100000001,0.3522958,-0.2482014,0.8765791,-20.57355,-19.7723,-27.79251
18.332595825,-3.531555,-18.46413,-6.71902399999997,0.3583074,-0.2370818,0.8559508,-20.57355,-19.7723,-27.79251
18.342507839,-2.912175,-20.15343,-6.90311299999998,0.3562278,-0.2361951,0.8449323,-21.32046,-19.77053,-27.33891
18.352419853,-3.531555,-21.60973,-7.08720199999999,0.3645563,-0.2297411,0.8540213,-21.32046,-19.77053,-27.33891
18.362332344,-6.194891,-22.71652,-7.27128999999997,0.3594775,-0.2196569,0.8474132,-21.32046,-19.77053,-27.33891
18.372244358,-8.11497100000001,-25.92038,-7.33265300000001,0.3471678,-0.2252204,0.8326051,-21.32046,-19.77053,-27.33891
18.382156849,-7.80528100000003,-29.47375,-7.08720199999999,0.3388041,-0.225839,0.8269164,-21.32046,-19.77053,-27.33891
18.392068863,-6.07101500000003,-32.03683,-7.20992699999999,0.3408535,-0.2155219,0.8480932,-21.31423,-20.14356,-26.95229
18.401981354,-7.00008600000001,-33.78439,-8.06900800000002,0.3252289,-0.2074136,0.8598155,-21.31423,-20.14356,-26.95229
18.411893368,-10.71637,-36.98825,-9.48035400000003,0.3050167,-0.1984821,0.8543,-21.31423,-20.14356,-26.95229
18.421805382,-13.13195,-41.88142,-11.19852,0.2995845,-0.1980896,0.8495513,-21.31423,-20.14356,-26.95229
18.431717873,-13.93715,-45.66779,-13.7144,0.3041842,-0.2189065,0.8445684,-21.31423,-20.14356,-26.95229
18.441629887,-11.76932,-48.40564,-15.73937,0.3245706,-0.2506742,0.840327,-22.06412,-20.14519,-27.33386
18.451542854,-8.98210400000001,-49.62893,-17.70299,0.3212594,-0.2604152,0.8398126,-22.06412,-20.14519,-27.33386
18.461454392,-8.42466199999997,-51.959,-20.95522,0.3226895,-0.2726111,0.8219523,-22.06412,-20.14519,-27.33386
18.471367359,-7.99109600000001,-54.98811,-23.65519,0.3346663,-0.2825823,0.833779,-22.06412,-20.14519,-27.33386
18.481279373,-9.10597999999999,-58.01721,-26.78469,0.3494266,-0.3172246,0.8497371,-22.06412,-20.14519,-27.33386
18.491191864,-8.23884800000001,-59.1240000000002,-28.38013,0.3575672,-0.2891655,0.8181583,-23.56003,-19.76391,-25.65687
18.501103878,-9.35373199999999,-60.8133000000001,-30.22102,0.3829663,-0.2903244,0.8140744,-23.56003,-19.76391,-25.65687
18.511015892,-10.03505,-63.8424099999998,-30.95737,0.4177662,-0.3205779,0.7866622,-23.56003,-19.76391,-25.65687
18.520928383,-10.09699,-65.41521,-30.5892,0.4167681,-0.3623036,0.7835125,-23.56003,-19.76391,-25.65687
18.530840397,-8.36272300000002,-66.7549999999997,-29.23921,0.436751,-0.3872037,0.7956459,-23.56003,-19.76391,-25.65687
18.540752888,-8.67241400000003,-66.0559799999998,-26.72333,0.4705129,-0.3926226,0.7914563,-25.4071,-21.25696,-24.29338
18.550664902,-8.73435200000001,-64.0754199999997,-24.51427,0.4959401,-0.4064499,0.7752838,-25.4071,-21.25696,-24.29338
18.560577392,-5.327759,-60.5802999999999,-21.87566,0.5206906,-0.4086737,0.7543933,-25.4071,-21.25696,-24.29338
18.570489406,0.989922399999999,-57.3764400000003,-20.40295,0.5293413,-0.3379278,0.6318641,-25.4071,-21.25696,-24.29338
18.58288002,7.24566599999997,-60.5220499999998,-20.28023,0.5424798,-0.2831613,0.6897264,-25.4071,-21.25696,-24.29338
18.592792034,7.92698399999999,-66.9880100000002,-21.44612,0.634301,-0.3586317,0.7815251,-28.02716,-20.87734,-22.99603
18.602704048,14.18273,-63.9589100000002,-20.52568,0.6671731,-0.3632809,0.8344877,-28.02716,-20.87734,-22.99603
18.612616539,16.04087,-57.20168,-19.60524,0.5964399,-0.2304413,0.8158602,-28.02716,-20.87734,-22.99603
18.622528553,11.89102,-53.47356,-21.44612,0.5348415,-0.2102405,0.745501,-28.02716,-20.87734,-22.99603
18.632441521,9.35155899999998,-52.19201,-23.962,0.5176128,-0.1839337,0.7175063,-28.02716,-20.87734,-22.99603
18.642353535,11.82908,-52.25026,-24.82108,0.532156,-0.1916203,0.6961936,-28.76624,-21.24677,-21.70609
18.652266025,17.46544,-52.01726,-25.68016,0.5769203,-0.3179743,0.8125767,-28.76624,-21.24677,-21.70609
18.662178039,22.35855,-47.00759,-26.1097,0.5385273,-0.2464155,0.5858135,-28.76624,-21.24677,-21.70609
18.67209053,23.47343,-47.29885,-27.33696,0.5244728,-0.05996441,0.5780626,-28.76624,-21.24677,-21.70609
18.682002544,5.325586,-58.6579799999998,-28.80967,0.5913185,-0.1869867,0.6058878,-28.76624,-21.24677,-21.70609
18.691914558,-2.045042,-64.0171700000001,-24.39154,0.5908251,-0.2352879,0.5489119,-31.37175,-21.99094,-20.40526
18.701827049,15.04986,-58.3084700000001,-23.65519,0.5722206,-0.1835862,0.5595117,-31.37175,-21.99094,-20.40526
18.711739063,27.49941,-50.67746,-26.04834,0.5223618,-0.114216,0.4994548,-31.37175,-21.99094,-20.40526
18.721651554,30.96794,-52.77453,-25.00517,0.4896817,0.03978379,0.4494061,-31.37175,-21.99094,-20.40526
18.731563568,19.57134,-62.56086,-24.14609,0.5675598,-0.06988741,0.5243005,-31.37175,-21.99094,-20.40526
18.741476536,9.59931099999998,-67.3375199999999,-21.01658,0.6178725,-0.14562,0.4781957,-32.49154,-21.98763,-19.56424
18.751388073,12.94397,-67.8035400000002,-18.43934,0.6234666,-0.2464073,0.4765122,-32.49154,-21.98763,-19.56424
18.761300087,23.59731,-66.4637499999999,-16.72118,0.6393288,-0.2558554,0.4863859,-32.49154,-21.98763,-19.56424
18.771213055,32.2067,-61.6870799999998,-16.47573,0.6680892,-0.2645689,0.4198,-32.49154,-21.98763,-19.56424
18.781125069,34.8081,-57.7842000000002,-10.21671,0.596777,-0.1715252,0.4887817,-32.49154,-21.98763,-19.56424
18.791037559,33.69321,-58.4832200000001,-5.184951,0.574658,-0.1489518,0.3133987,-33.21284,-23.47718,-17.37142
18.800949573,33.13577,-67.0462599999998,-3.834968,0.4910734,-0.003642762,0.4865563,-33.21284,-23.47718,-17.37142
18.810862064,27.56135,-76.5995899999998,-5.92130599999998,0.5565703,-0.08916743,0.4791387,-33.21284,-23.47718,-17.37142
18.820774078,23.78312,-80.3859599999999,-5.614491,0.5572425,-0.07687083,0.511385,-33.21284,-23.47718,-17.37142
18.830686569,19.19971,-85.39564,-6.16675799999997,0.5306565,-0.1160723,0.4955245,-33.21284,-23.47718,-17.37142
18.840598583,18.14676,-95.8227399999999,-6.53493500000002,0.5063808,-0.1436059,0.4802005,-35.07171,-23.8433,-15.24046
18.850510597,13.56335,-109.2789,-7.45537899999998,0.5134448,-0.1143865,0.4880124,-35.07171,-23.8433,-15.24046
18.860423088,1.609303,-121.9196,-10.8917,0.5797791,-0.1119364,0.4269153,-35.07171,-23.8433,-15.24046
18.872813225,-25.89119,-137.5894,-16.47573,0.6491402,-0.03550304,0.4138188,-35.07171,-23.8433,-15.24046
18.882725716,-48.49858,-144.1719,-26.60061,0.707054,-0.04540849,0.327749,-35.07171,-23.8433,-15.24046
18.89263773,-57.10797,-140.269,-37.83002,0.7798544,0.01961735,0.3505565,-36.92436,-24.20236,-11.3749
18.90255022,-55.93114,-124.3662,-50.53214,0.8512103,0.1521931,0.4069583,-36.92436,-24.20236,-11.3749
18.912462234,-46.20687,-94.6577000000002,-60.16612,0.9441582,0.1833845,0.4951358,-36.92436,-24.20236,-11.3749
18.922375202,-24.34274,-59.4735099999998,-65.0137899999998,1.08776,0.1270742,0.6043492,-36.92436,-24.20236,-11.3749
18.932287216,19.38552,-31.1048,-59.4297600000003,1.182086,-0.05003764,0.6306262,-36.92436,-24.20236,-11.3749
18.942198753,60.6362699999999,-27.55143,-47.27991,1.209006,-0.07871564,0.5519204,-39.16233,-24.19391,-9.243145
18.952111721,65.28162,-37.39602,-38.1982,1.279065,-0.02095217,0.489717,-39.16233,-24.19391,-9.243145
18.962023735,39.76315,-46.77458,-26.78469,1.508899,0.04925434,0.5730471,-39.16233,-24.19391,-9.243145
18.971936226,-7.00008600000001,-43.80373,-12.60986,1.803404,0.107183,0.8448797,-39.16233,-24.19391,-9.243145
18.98184824,-38.52655,-18.23112,-2.484983,2.047289,-0.0161231,1.070358,-39.16233,-24.19391,-9.243145
18.991760731,-14.61847,20.68119,3.835396,2.013779,-0.2871237,1.156731,-39.44238,-26.05829,-7.115681
19.001672745,28.49042,44.7975,5.369469,1.706424,-0.2360052,1.094613,-39.44238,-26.05829,-7.115681
19.011584759,26.19871,37.63251,7.08763000000002,1.311673,0.0106339,0.8929587,-39.44238,-26.05829,-7.115681
19.02149725,-11.5835,9.84632599999999,5.369469,1.086524,0.1088876,0.6532156,-39.44238,-26.05829,-7.115681
19.031409264,-53.82525,-14.50299,4.326299,1.100732,0.03809966,0.5253707,-39.44238,-26.05829,-7.115681
19.041321754,-75.0080699999998,-19.68742,1.994509,1.271039,-0.08992755,0.48453,-39.49968,-26.43263,-7.049959
19.051233768,-64.8502299999999,-7.04674300000001,-0.2759189,1.389964,-0.190814,0.4717145,-39.49968,-26.43263,-7.049959
19.061146736,-40.19888,10.02108,-1.932717,1.384094,-0.2257623,0.4782582,-39.49968,-26.43263,-7.049959
19.071058273,-24.21886,20.33168,-3.89633,1.289773,-0.1798498,0.4895197,-39.49968,-26.43263,-7.049959
19.080971241,-22.54654,19.28314,-5.430403,1.156571,-0.1443091,0.4640994,-39.49968,-26.43263,-7.049959
19.090883255,-24.52855,12.11815,-6.10539499999999,1.024534,-0.1069563,0.4113115,-38.38796,-26.065,-8.791556
19.100795269,-22.60847,3.380358,-7.08720199999999,0.9465692,-0.06658947,0.3421983,-38.38796,-26.065,-8.791556
19.11070776,-13.31777,-1.163295,-8.80536299999997,0.8779859,-0.02313229,0.2855031,-38.38796,-26.065,-8.791556
19.120619774,0.1847278,-2.561342,-11.44397,0.819975,0.03987569,0.233642,-38.38796,-26.065,-8.791556
19.130532265,13.99691,-2.852602,-14.51211,0.7950893,0.0978696,0.1636752,-38.38796,-26.065,-8.791556
19.140444279,24.65026,-5.299184,-15.06438,0.8015515,0.1553081,0.09821646,-38.39442,-25.69224,-9.242422
19.152834892,29.41949,-7.16324699999999,-13.89848,0.8266515,0.1883793,0.05739119,-38.39442,-25.69224,-9.242422
19.162746906,24.40251,-5.007925,-15.24847,0.8653429,0.1720712,0.09197627,-38.39442,-25.69224,-9.242422
19.172659397,10.03288,-1.163295,-17.02799,0.9206259,0.1588808,0.1269088,-38.39442,-25.69224,-9.242422
19.182571411,-10.46862,2.331823,-19.23706,0.9619352,0.1280593,0.161373,-39.08541,-25.3177,-9.240007
19.192483902,-27.43964,3.846374,-21.63021,0.9823637,0.08729357,0.1983649,-39.08541,-25.3177,-9.240007
19.202395916,-29.4836,2.972594,-24.20745,0.9403794,0.04509854,0.2032736,-39.08541,-25.3177,-9.240007
19.21230793,-16.53855,-0.6972793,-26.53924,0.868979,0.05053973,0.2087718,-39.08541,-25.3177,-9.240007
19.222220421,-2.292794,-7.04674300000001,-28.9324,0.8111091,0.07265429,0.2180972,-39.08541,-25.3177,-9.240007
19.232132435,3.095816,-15.37677,-30.77328,0.7825688,0.0883028,0.2189455,-38.77029,-25.6941,-9.690188
19.242045403,-0.3727147,-24.81359,-33.16644,0.789567,0.1106587,0.2123075,-38.77029,-25.6941,-9.690188
19.251957417,-8.42466199999997,-33.08537,-35.86641,0.8237647,0.1100964,0.2086264,-38.77029,-25.6941,-9.690188
19.261869907,-15.85723,-39.14357,-37.76866,0.8325359,0.0936055,0.1863481,-38.77029,-25.6941,-9.690188
19.271781921,-20.44064,-43.22121,-39.48682,0.8249109,0.09238685,0.1566407,-38.77029,-25.6941,-9.690188
19.281694412,-23.04204,-47.29885,-42.24815,0.8396671,0.1255385,0.1562449,-38.00748,-26.438,-8.40688
19.291606426,-25.51956,-49.92019,-45.25493,0.8619573,0.1320564,0.1440783,-38.00748,-26.438,-8.40688
19.30151844,-26.94414,-51.959,-47.9549,0.8475857,0.1283645,0.121139,-38.00748,-26.438,-8.40688
19.311430931,-28.12096,-55.80363,-50.77759,0.8549312,0.1216328,0.114304,-38.00748,-26.438,-8.40688
19.321342945,-27.74933,-59.7065199999997,-52.98666,0.8603836,0.1075922,0.105037,-38.00748,-26.438,-8.40688
19.331255436,-25.64344,-62.56086,-55.13436,0.89964,0.1105937,0.1219797,-37.60736,-28.30911,-7.953345
19.34116745,-21.80328,-63.2016400000001,-55.01163,0.9107907,0.09532346,0.1424216,-37.60736,-28.30911,-7.953345
19.351080418,-17.15793,-62.2695999999999,-54.398,0.9750136,0.1247457,0.1453848,-37.60736,-28.30911,-7.953345
19.360991955,-14.80428,-58.19196,-52.06621,0.9607508,0.1191679,0.2261461,-37.60736,-28.30911,-7.953345
19.370903969,-12.8842,-52.13376,-49.18216,0.928755,0.1081756,0.2402934,-37.60736,-28.30911,-7.953345
19.380816937,-10.59249,-48.87165,-46.85036,0.8964174,0.09188776,0.2625712,-36.45738,-29.79852,-5.770251
19.390728474,-7.37171500000001,-46.42507,-42.61633,0.8689396,0.06198709,0.2659872,-36.45738,-29.79852,-5.770251
19.400641441,-7.557528,-45.66779,-38.6891,0.8521219,0.03851214,0.2674269,-36.45738,-29.79852,-5.770251
19.410553455,-11.95513,-47.3571,-34.08688,0.8297999,0.0066117,0.2467739,-36.45738,-29.79852,-5.770251
19.420465946,-15.79529,-49.39592,-28.56422,0.8235424,-0.03341645,0.209593,-36.45738,-29.79852,-5.770251
19.432856083,-15.73335,-51.14348,-22.05975,0.8294218,-0.06455632,0.1742796,-35.67865,-31.66464,-4.098014
19.442768574,-14.86622,-51.43474,-17.21208,0.8525765,-0.06515386,0.1903869,-35.67865,-31.66464,-4.098014
19.452680588,-15.73335,-51.20173,-12.42577,0.8813558,-0.08555602,0.2072705,-35.67865,-31.66464,-4.098014
19.462593079,-18.64444,-49.68718,-7.27128999999997,0.9158126,-0.07769088,0.2386947,-35.67865,-31.66464,-4.098014
19.472505093,-24.15693,-46.89108,-2.300895,0.9432093,-0.05099875,0.2712699,-35.67865,-31.66464,-4.098014
19.482417107,-35.49159,-45.49304,1.503605,0.9683379,-0.02424526,0.3211522,-35.28284,-32.71707,-1.912374
19.492329598,-44.10098,-42.40568,4.326299,0.9767567,0.02054398,0.3362576,-35.28284,-32.71707,-1.912374
19.502241612,-47.56951,-42.17268,3.589944,0.9720321,0.06666185,0.3586958,-35.28284,-32.71707,-1.912374
19.512154102,-46.82625,-44.26974,0.2149844,0.9826236,0.105247,0.3876644,-35.28284,-32.71707,-1.912374
19.522066116,-46.39268,-47.64836,-3.712242,1.019046,0.129239,0.4388643,-35.28284,-32.71707,-1.912374
19.531979084,-47.81726,-48.58039,-5.246314,1.046541,0.1162307,0.4822178,-34.52649,-33.08821,-1.079932
19.541890621,-50.35672,-47.70661,-4.325871,1.039896,0.09039556,0.4715436,-34.52649,-33.08821,-1.079932
19.551803589,-53.63944,-49.51242,-2.669072,1.018403,0.05111309,0.4277863,-34.52649,-33.08821,-1.079932
19.561715603,-56.48859,-53.88132,-0.5213705,0.9813606,0.02948542,0.3665245,-34.52649,-33.08821,-1.079932
19.571627617,-58.5325399999999,-59.1822499999998,0.705887599999999,0.9583963,0.01383609,0.3022915,-34.52649,-33.08821,-1.079932
19.581540108,-60.9481299999999,-63.90066,2.485412,0.9407925,0.03360619,0.2300821,-34.90479,-32.77608,-1.078947
19.591452122,-67.0800000000002,-68.7355700000001,5.614921,0.9163202,0.07400586,0.1321451,-34.90479,-32.77608,-1.078947
19.601364612,-77.2378400000002,-80.8519799999997,6.84217800000002,0.8681644,0.157637,-0.1741536,-34.90479,-32.77608,-1.078947
19.611276626,-96.9341400000002,-113.1818,2.792227,1.082357,0.2676242,-0.3295326,-34.90479,-32.77608,-1.078947
19.621189117,-115.6394,-143.2981,-2.300895,1.700963,0.2866521,-0.01726209,-34.90479,-32.77608,-1.078947
19.631101131,-105.4816,-118.3662,12.79438,2.259707,0.03437709,0.3864252,-34.90398,-32.71181,-0.629427
19.641013622,-43.04803,-68.7355700000001,28.07374,2.361983,-0.3903673,0.2304395,-34.90398,-32.71181,-0.629427
19.650925636,63.0518500000002,-19.45441,35.56002,2.108218,-0.7873962,0.2916016,-34.90398,-32.71181,-0.629427
19.66083765,162.4624,41.24413,27.27603,1.546627,-0.3133737,0.4896157,-34.90398,-32.71181,-0.629427
19.670750618,173.7351,68.4477999999997,16.84433,1.033664,0.1859732,0.4050158,-34.90398,-32.71181,-0.629427
19.680662155,120.84,52.37026,8.80579200000003,0.5962511,0.5458961,0.08591168,-34.89132,-33.07752,1.556044
19.690575123,43.6033,5.477429,6.10582399999999,0.2265438,0.5260909,-0.2267452,-34.89132,-33.07752,1.556044
19.700487137,-53.51556,-42.58044,2.485412,0.1432751,0.6715556,-0.1179308,-34.89132,-33.07752,1.556044
19.71287775,-175.5335,-106.9489,-1.809992,0.10187,0.2798789,-0.7515653,-34.89132,-33.07752,1.556044
19.722789764,-205.3257,-137.8806,6.47400099999998,0.457733,-0.09738368,-0.7756157,-34.89132,-33.07752,1.556044
19.732702255,-136.1409,-146.0359,3.835396,0.9254627,-0.2452632,-0.6848949,-36.02186,-32.00946,3.228973
19.742614269,-2.292794,-109.745,10.09441,1.297631,-0.2717607,-0.4249065,-36.02186,-32.00946,3.228973
19.75252676,87.3934999999997,-81.6675099999998,15.37162,1.387147,-0.1735212,-0.02078664,-36.02186,-32.00946,3.228973
19.762438774,72.52837,-50.56096,22.36699,1.3491,-0.08856776,0.2783095,-36.02186,-32.00946,3.228973
19.772350788,15.48343,-24.63884,25.55787,1.2319,-0.1189611,0.4962223,-36.02186,-32.00946,3.228973
19.782263279,-40.50857,-17.18258,28.19647,1.056756,-0.06389029,0.5044511,-36.39316,-31.626,5.414083
19.792175293,-87.3337399999999,-30.87179,22.30563,0.9420134,-0.00818871,0.395447,-36.39316,-31.626,5.414083
19.802087784,-109.5695,-45.7843,17.8875,0.9403409,-0.04759567,0.1863311,-36.39316,-31.626,5.414083
19.811999798,-92.2887900000001,-51.43474,13.1012,0.8973819,-0.07129123,-0.07271495,-36.39316,-31.626,5.414083
19.821912765,-64.3547200000003,-60.6967999999998,6.71945300000003,0.8522984,-0.1111877,-0.2718295,-36.39316,-31.626,5.414083
19.831824303,-25.5815,-65.93948,1.994509,0.8383158,-0.168593,-0.4627054,-36.77711,-30.87684,5.413721
19.84173727,8.17473599999999,-68.0947999999997,-1.135,0.8768639,-0.2222973,-0.5335228,-36.77711,-30.87684,5.413721
19.851649284,25.02188,-67.74529,-1.932717,0.9381152,-0.2509715,-0.5069113,-36.77711,-30.87684,5.413721
19.861561298,25.2077,-63.2016400000001,-1.257725,1.003816,-0.2395653,-0.4286969,-36.77711,-30.87684,5.413721
19.871473789,15.79312,-55.22112,0.828613499999998,1.039755,-0.1921615,-0.3494874,-36.77711,-30.87684,5.413721
19.881385803,2.538374,-45.49304,2.485412,1.032569,-0.1468101,-0.2818966,-36.40796,-30.12239,6.694361
19.891298294,-10.34474,-38.21154,3.28313,0.9931142,-0.08454874,-0.241744,-36.40796,-30.12239,6.694361
19.901210308,-21.74134,-36.28923,4.449025,0.9433342,-0.03805562,-0.2256088,-36.40796,-30.12239,6.694361
19.911122799,-31.52756,-38.73581,5.430832,0.9120606,-0.006490275,-0.2342323,-36.40796,-30.12239,6.694361
19.921034813,-33.50957,-38.73581,7.578534,0.9123679,0.007079805,-0.2360654,-36.40796,-30.12239,6.694361
19.930947304,-36.42066,-42.17268,7.148993,0.8978555,0.0320951,-0.2391256,-36.76333,-30.86115,9.2684
19.940859318,-39.82725,-46.07556,6.71945300000003,0.9038336,0.04807539,-0.2573205,-36.76333,-30.86115,9.2684
19.950771332,-40.19888,-49.10466,5.92173499999998,0.9154814,0.0491525,-0.2646234,-36.76333,-30.86115,9.2684
19.960683823,-37.72136,-51.31823,4.264936,0.9187601,0.05790089,-0.2684367,-36.76333,-30.86115,9.2684
19.970595837,-35.1819,-52.42502,2.608138,0.9250294,0.05939855,-0.2752069,-36.76333,-30.86115,9.2684
19.980508804,-34.43864,-51.959,1.564968,0.9403436,0.04747462,-0.2739875,-36.38907,-30.86112,9.266455
19.990420818,-34.56252,-49.86193,0.767250500000003,0.957693,0.03220181,-0.268968,-36.38907,-30.86112,9.266455
20.002811432,-33.3857,-45.66779,0.5217989,0.9898769,0.007930692,-0.2583837,-36.38907,-30.86112,9.266455
20.012722969,-31.34174,-41.47365,-0.582733500000001,0.999997,-0.002501191,-0.2374198,-36.38907,-30.86112,9.266455
20.022635937,-29.91717,-37.80378,-1.135,0.9993117,-0.01504406,-0.2235724,-36.76198,-30.4795,11.00185
20.032547951,-28.61647,-34.83293,-1.748629,0.9904782,-0.02809343,-0.194288,-36.76198,-30.4795,11.00185
20.042460442,-27.25383,-32.96886,-3.098613,0.9752688,-0.04854969,-0.1755575,-36.76198,-30.4795,11.00185
20.052372456,-25.51956,-33.08537,-5.000863,0.9624438,-0.07388466,-0.1684053,-36.76198,-30.4795,11.00185
20.062284946,-23.66142,-35.3572,-6.16675799999997,0.9460407,-0.09690442,-0.1736887,-36.76198,-30.4795,11.00185
20.07219696,-22.4846,-38.73581,-6.47357199999998,0.9364318,-0.1140115,-0.1770749,-37.12355,-31.22532,11.84128
20.082108974,-22.29879,-42.7552,-5.491766,0.9246933,-0.1190382,-0.1832419,-37.12355,-31.22532,11.84128
20.092021465,-23.10398,-45.37653,-5.553129,0.9295107,-0.122917,-0.1948361,-37.12355,-31.22532,11.84128
20.101933479,-22.36072,-47.18234,-5.491766,0.9640976,-0.1225496,-0.2071574,-37.12355,-31.22532,11.84128
20.11184597,-20.19289,-48.34738,-6.044032,0.9741132,-0.1059671,-0.2124213,-37.12355,-31.22532,11.84128
20.121757984,-17.90118,-46.65808,-7.20992699999999,0.9942183,-0.1047103,-0.2053965,-36.37342,-31.22343,12.28711
20.131670952,-18.087,-43.22121,-5.614491,1.003367,-0.09247257,-0.2049194,-36.37342,-31.22343,12.28711
20.141582966,-18.087,-37.39602,-5.062225,0.9959814,-0.0799081,-0.1951642,-36.37342,-31.22343,12.28711
20.151495457,-16.22886,-33.43488,-5.553129,0.9913283,-0.07277748,-0.2113991,-36.37342,-31.22343,12.28711
20.161407471,-13.25583,-31.68732,-6.35084600000001,0.9832411,-0.0617932,-0.2242154,-36.37342,-31.22343,12.28711
20.171319485,-11.89319,-32.73586,-5.98266900000002,0.9805413,-0.06609849,-0.2064533,-35.98407,-31.90311,14.02188
20.181231976,-14.61847,-32.5611,-4.755411,0.9692657,-0.02552732,-0.2094398,-35.98407,-31.90311,14.02188
20.19114399,-20.25483,-31.33781,-4.264508,0.9530307,0.01884872,-0.2147559,-35.98407,-31.90311,14.02188
20.20105648,-26.82026,-30.75529,-6.596298,0.9530405,0.05031282,-0.2246297,-35.98407,-31.90311,14.02188
20.210968494,-33.01406,-30.05627,-9.54171799999998,0.9582844,0.06908625,-0.263446,-35.98407,-31.90311,14.02188
20.220880985,-67.2038699999999,-65.0074500000001,-28.68694,0.8754761,0.158675,-0.3657975,-36.34565,-32.64893,14.86131
20.230792999,-75.3797,-62.4443600000002,-31.0801,1.040864,0.03814578,-0.2576936,-36.34565,-32.64893,14.86131
20.240705967,-29.60748,-26.32814,-21.44612,1.215489,-0.007199432,-0.3527613,-36.34565,-32.64893,14.86131
20.250617504,0.0608516599999998,-27.84269,-24.88245,1.20368,-0.01153593,-0.4127008,-36.34565,-32.64893,14.86131
20.260529518,7.18372799999999,-21.90099,-23.04156,1.207021,-0.007615283,-0.2254439,-36.34565,-32.64893,14.86131
20.270442486,-0.744343000000003,-12.40592,-23.962,1.182104,-0.004005981,-0.123876,-36.33758,-33.01986,15.76189
20.282832146,-12.07901,-5.93995599999998,-26.41652,1.154395,-0.1371757,-0.02559433,-36.33758,-33.01986,15.76189
20.292745113,-4.150936,-5.590444,-25.06653,1.125135,-0.1487309,-0.1267141,-36.33758,-33.01986,15.76189
20.302656651,-0.744343000000003,-16.13405,-27.64378,1.288465,-0.1686279,-0.149004,-36.33758,-33.01986,15.76189
20.312569618,5.635276,-17.6486,-21.69157,1.47567,-0.1858213,-0.08122689,-36.33758,-33.01986,15.76189
20.322481632,4.953958,2.448327,-15.00302,1.521806,-0.1300332,0.0008251583,-35.95064,-33.76563,16.59743
20.332394123,-7.86721900000001,25.69086,-11.93487,1.504807,-0.07067553,0.08156423,-35.95064,-33.76563,16.59743
20.342306137,-14.1849,46.07905,-11.50533,1.500696,-0.09081984,0.1338053,-35.95064,-33.76563,16.59743
20.352218628,-11.70738,60.8167899999999,-13.16213,1.41302,-0.08979539,0.1682341,-35.95064,-33.76563,16.59743
20.362130642,-12.07901,89.8262700000002,-10.95306,1.455452,0.04118305,0.4539282,-35.95064,-33.76563,16.59743
20.372042656,-22.85623,134.6803,-20.52568,1.388318,0.213421,0.4508949,-36.31818,-34.51824,15.76651
20.381955147,-17.2818,144.5831,-19.11433,1.168024,0.3119487,0.06514065,-36.31818,-34.51824,15.76651
20.391867161,-7.00008600000001,117.7872,-13.53031,0.9140925,0.3237826,-0.2214873,-36.31818,-34.51824,15.76651
20.401779652,-5.451635,93.2048799999999,-15.8621,1.029944,0.1206138,-0.1293211,-36.31818,-34.51824,15.76651
20.411691666,-17.34374,96.9330100000001,-6.35084600000001,1.21919,-0.1184358,-0.02702904,-36.31818,-34.51824,15.76651
20.421604633,-34.56252,110.797,7.51716999999999,1.234594,-0.2754302,-0.1391339,-38.19218,-35.2817,12.30934
20.431516171,-54.13494,115.8066,18.43977,1.177776,-0.3591277,-0.3417928,-38.19218,-35.2817,12.30934
20.441429138,-66.0889900000002,111.496,26.84649,1.153779,-0.288494,-0.500993,-38.19218,-35.2817,12.30934
20.451341152,-63.9211600000001,106.8941,30.03736,1.161882,-0.1463256,-0.5932716,-38.19218,-35.2817,12.30934
20.461253643,-47.63145,104.9718,28.99419,1.173018,-0.03357688,-0.6627265,-38.19218,-35.2817,12.30934
20.471165657,-25.64344,104.6223,28.56465,1.159828,0.03747471,-0.673655,-41.15195,-34.55366,7.182705
20.481077671,-3.841246,107.4766,29.05555,1.189578,0.02708532,-0.5981343,-41.15195,-34.55366,7.182705
20.490990162,19.88103,115.6901,29.42373,1.214802,-0.05487405,-0.475513,-41.15195,-34.55366,7.182705
20.500902176,47.5054,124.1367,31.63279,1.192027,-0.1867442,-0.419042,-41.15195,-34.55366,7.182705
20.510814667,76.5543400000002,129.3211,35.62138,1.14054,-0.2842796,-0.4043307,-41.15195,-34.55366,7.182705
20.520726681,99.2236699999999,132.5832,39.85542,1.096905,-0.2751294,-0.4048266,-44.1757,-33.82745,1.606684
20.530639172,108.2666,135.2046,42.61675,1.078858,-0.2309423,-0.3486669,-44.1757,-33.82745,1.606684
20.540551186,101.5773,141.3793,46.97352,1.096661,-0.1530657,-0.3334278,-44.1757,-33.82745,1.606684
20.550464153,91.4814100000002,138.0589,39.85542,1.053258,-0.05502312,-0.3026035,-44.1757,-33.82745,1.606684
20.562853813,84.04884,133.2822,36.78728,1.082594,-0.02881176,-0.3675215,-44.1757,-33.82745,1.606684
20.572766781,86.8360600000002,130.7774,38.50544,1.085091,0.005383514,-0.4177334,-47.59093,-31.66376,-3.586346
20.582678318,91.9769100000001,127.9813,39.67133,1.060892,0.04471001,-0.442696,-47.59093,-31.66376,-3.586346
20.592591286,94.2066900000002,123.0881,40.2236,1.020144,0.05777509,-0.4431925,-47.59093,-31.66376,-3.586346
20.6025033,94.2686200000002,116.5057,42.30994,0.9741185,0.04838627,-0.460115,-47.59093,-31.66376,-3.586346
20.612415314,92.7821100000002,107.2436,43.35311,0.9198275,0.04379565,-0.4668459,-47.59093,-31.66376,-3.586346
20.622327804,89.3135800000002,97.9815399999997,43.65992,0.8701989,0.02964026,-0.4592788,-49.88257,-29.43571,-8.335694
20.632239818,85.0398600000003,88.60297,42.67812,0.8213134,0.02854567,-0.4593142,-49.88257,-29.43571,-8.335694
20.642152309,81.5713300000002,77.3603500000003,40.65314,0.7885047,0.03396396,-0.4575342,-49.88257,-29.43571,-8.335694
20.652064323,78.4744200000001,66.0012100000002,39.42588,0.7731522,0.07147333,-0.4801899,-49.88257,-29.43571,-8.335694
20.661976814,76.9259699999999,56.5644,38.13726,0.7543929,0.1167529,-0.4921989,-49.88257,-29.43571,-8.335694
20.671888828,75.6252699999999,49.80717,37.21682,0.7305613,0.1765105,-0.5050248,-50.68343,-26.45444,-12.13147
20.681801319,73.2716299999998,45.61303,37.27818,0.6972393,0.213369,-0.5164751,-50.68343,-26.45444,-12.13147
20.691713333,70.4224800000002,40.48686,36.4191,0.6353272,0.2087857,-0.5034489,-50.68343,-26.45444,-12.13147
20.701625347,68.0068900000002,31.80732,34.51685,0.5997421,0.2142491,-0.4862779,-50.68343,-26.45444,-12.13147
20.711538315,65.6532399999999,20.56469,33.84186,0.5858677,0.2354456,-0.4792861,-50.68343,-26.45444,-12.13147
20.721449852,61.5034,9.26380600000001,32.6146,0.5844841,0.2883931,-0.4568333,-51.82536,-25.33597,-13.41398
20.73136282,54.0089,2.273571,29.48509,0.5951245,0.3431012,-0.40423,-51.82536,-25.33597,-13.41398
20.741274834,47.19571,-3.318618,26.78512,0.6043503,0.3358757,-0.3236969,-51.82536,-25.33597,-13.41398
20.751187324,48.43447,-7.74576700000002,24.88287,0.6123809,0.2534118,-0.2570983,-51.82536,-25.33597,-13.41398
20.761099338,55.74316,-13.39621,22.61244,0.6194949,0.1141427,-0.2033539,-51.82536,-25.33597,-13.41398
20.771011829,58.71619,-20.5612,17.27387,0.668434,-0.003014361,-0.1935434,-52.22061,-23.83945,-13.86636
20.780923843,63.0518500000002,-30.75529,9.84896099999999,0.73703,-0.05939621,-0.1983947,-52.22061,-23.83945,-13.86636
20.790836334,84.97792,-41.47365,2.792227,0.8855765,-0.1341445,-0.01012377,-52.22061,-23.83945,-13.86636
20.800748348,135.7671,-37.51252,3.651307,1.024267,-0.03029656,0.1414956,-52.22061,-23.83945,-13.86636
20.810660362,157.1357,-39.55134,-2.055443,1.110538,0.04554407,0.4413019,-52.22061,-23.83945,-13.86636
20.820572853,148.898,-37.57077,-5.123589,1.096503,0.1630031,0.5929839,-53.35012,-22.70686,-11.67967
20.830484867,122.884,-36.05622,-4.632685,1.118545,0.1591568,0.6398099,-53.35012,-22.70686,-11.67967
20.842875481,103.931,-31.04655,0.767250500000003,1.081776,0.1123147,0.6710481,-53.35012,-22.70686,-11.67967
20.852787495,93.8970000000002,-31.33781,2.485412,1.060056,0.05535295,0.584441,-53.35012,-22.70686,-11.67967
20.862700462,69.92697,-30.58053,4.694477,1.096955,0.05616932,0.5596172,-55.2014,-23.06436,-7.428638
20.872611999,30.22468,-23.24079,5.308106,1.111283,0.1061715,0.5372504,-55.2014,-23.06436,-7.428638
20.882524967,-1.921166,-16.01755,6.22854899999998,1.114143,0.07323859,0.4438538,-55.2014,-23.06436,-7.428638
20.892436981,-0.3107767,-13.51271,7.76262199999999,1.083156,0.019578,0.268045,-55.2014,-23.06436,-7.428638
20.902349472,28.73817,-14.91076,9.05124299999999,1.001288,0.02380244,0.1574336,-55.2014,-23.06436,-7.428638
20.912261486,48.99191,-23.24079,8.74442899999999,0.8561799,0.1276307,0.05239198,-55.1952,-23.0573,-5.694033
20.9221735,48.86804,-31.16305,13.03983,0.7189301,0.1723111,-0.07088219,-55.1952,-23.0573,-5.694033
20.932085991,36.29461,-40.13386,17.15115,0.532355,0.2151802,-0.2378868,-55.1952,-23.0573,-5.694033
20.941998005,12.94397,-52.13376,17.51932,0.4251027,0.3585582,-0.8486216,-55.1952,-23.0573,-5.694033
20.951910496,-20.31677,-100.5411,2.730864,0.6099347,0.5188976,-0.9472151,-55.1952,-23.0573,-5.694033
20.96182251,-93.89918,-169.5115,-14.57348,1.402273,0.3745906,-0.5737784,-56.31849,-22.29774,-3.120716
20.971735001,-127.3457,-170.5017,-11.50533,1.999942,-0.04533982,-0.3377028,-56.31849,-22.29774,-3.120716
20.981647015,-6.50458200000001,-92.9683899999999,2.853589,2.12037,-0.7495334,-0.2906905,-56.31849,-22.29774,-3.120716
20.991559982,173.6113,-11.88166,9.72623500000002,1.685532,-0.4230728,0.4122155,-56.31849,-22.29774,-3.120716
21.001471519,190.2107,40.83637,-18.80752,1.281605,0.3008311,0.8279479,-56.31849,-22.29774,-3.120716
21.011384487,117.4335,38.79755,-34.33233,1.157631,0.452518,0.551133,-56.30633,-21.9038,1.632232
21.021296501,61.1317699999998,-21.49323,-22.3052,1.006938,0.4303087,0.1831371,-56.30633,-21.9038,1.632232
21.031208515,19.88103,-67.45403,-12.0576,0.9021286,0.1428068,-0.2173006,-56.30633,-21.9038,1.632232
21.041121006,-6.87620999999998,-80.2694600000001,1.135428,0.711383,-0.01716878,-0.4086656,-56.30633,-21.9038,1.632232
21.05103302,-28.43065,-93.2013999999998,4.694477,0.4648386,-0.07886546,-0.6809669,-56.30633,-21.9038,1.632232
21.060945511,-39.20787,-93.78392,0.828613499999998,0.4678932,-0.07219372,-0.8043513,-56.2939,-22.26976,3.753459
21.070857525,-16.10498,-98.2110700000001,-8.43718500000001,0.8186033,-0.1494237,-0.6458158,-56.2939,-22.26976,3.753459
21.080770016,21.36754,-85.1043799999999,-12.36441,1.121931,-0.1686777,-0.3193608,-56.2939,-22.26976,3.753459
21.09068203,49.11579,-57.20168,-11.62806,1.303542,-0.2167554,-0.02270226,-56.2939,-22.26976,3.753459
21.100594521,51.77913,-28.13395,-7.63946799999999,1.247363,-0.2454683,0.09190368,-56.2939,-22.26976,3.753459
21.110506535,41.06384,-14.50299,-6.044032,1.048025,-0.2408158,0.06592901,-56.27527,-22.62867,7.609289
21.122897148,32.82608,-21.84274,-6.596298,0.9016074,-0.09522083,-0.02249684,-56.27527,-22.62867,7.609289
21.132809162,17.58932,-33.66789,-5.246314,0.9259888,-0.01764551,-0.08126497,-56.27527,-22.62867,7.609289
21.14272213,-2.354732,-41.64841,-4.264508,0.9309886,0.008069551,-0.1834136,-56.27527,-22.62867,7.609289
21.152633667,-24.15693,-49.51242,-4.816774,0.9079843,-0.007848879,-0.2995052,-56.27527,-22.62867,7.609289
21.162545681,-33.13794,-54.8716,-5.307677,0.9191831,-0.04261517,-0.3925109,-55.89159,-22.61792,10.24137
21.172458649,-28.55453,-54.17258,-3.773605,0.9684949,-0.1156847,-0.3900926,-55.89159,-22.61792,10.24137
21.182370663,-13.99909,-50.2697,-5.246314,0.9690548,-0.09027573,-0.3534365,-55.89159,-22.61792,10.24137
21.192283154,-17.52956,-54.23083,-13.59167,0.9436163,-0.07766939,-0.2921372,-55.89159,-22.61792,10.24137
21.202195168,-2.478608,-39.8426,-9.48035400000003,1.033118,-0.1501874,-0.2800036,-55.89159,-22.61792,10.24137
21.212107658,22.42049,-35.82321,-13.65303,0.998853,-0.09771305,-0.269734,-55.87107,-23.73491,11.9152
21.222019672,30.03887,-30.87179,-17.64162,0.9893377,-0.0776981,-0.2205365,-55.87107,-23.73491,11.9152
21.231932163,33.32159,-26.96891,-18.93024,0.9822233,-0.05060669,-0.2150084,-55.87107,-23.73491,11.9152
21.241844177,34.12678,-24.69709,-19.48251,0.9654769,-0.03868315,-0.2128535,-55.87107,-23.73491,11.9152
21.251756668,30.96794,-24.28932,-18.62343,0.9630271,-0.03578947,-0.2099306,-55.87107,-23.73491,11.9152
21.261668682,26.13677,-24.40583,-16.90527,0.953948,-0.05384474,-0.2104471,-55.12605,-22.9786,13.6436
21.271580696,22.91599,-25.51262,-16.04619,0.963147,-0.06109297,-0.2278662,-55.12605,-22.9786,13.6436
21.281493187,22.73018,-25.22136,-15.73937,0.9697783,-0.05721624,-0.244227,-55.12605,-22.9786,13.6436
21.291405201,24.15475,-24.17282,-15.98482,0.9793655,-0.0576815,-0.2635251,-55.12605,-22.9786,13.6436
21.301318169,26.32258,-22.77477,-16.04619,0.973852,-0.06367282,-0.2836807,-55.12605,-22.9786,13.6436
21.311230183,28.67623,-22.94953,-15.98482,0.9676458,-0.04684928,-0.2969556,-55.11985,-22.97155,15.3782
21.321142674,25.51739,-29.532,-18.43934,0.8944981,0.08913292,-0.4519048,-55.11985,-22.97155,15.3782
21.331054688,25.64127,-25.62912,-14.94165,0.9536134,-0.01695451,-0.2951862,-55.11985,-22.97155,15.3782
21.340967178,27.62328,-27.37668,-15.55528,0.9374707,-0.004237773,-0.3285633,-55.11985,-22.97155,15.3782
21.350879192,15.54536,-37.57077,-20.95522,0.8993131,0.04843684,-0.3638714,-55.11985,-22.97155,15.3782
21.360791683,6.81209899999999,-34.30866,-17.02799,0.9670848,-0.02347828,-0.2766281,-53.97956,-23.71176,17.55899
21.370703697,14.43048,-22.54177,-7.394016,0.9913715,0.02282825,-0.3812187,-53.97956,-23.71176,17.55899
21.380615711,14.92598,-23.00778,-6.71902399999997,0.984347,0.04899084,-0.3680152,-53.97956,-23.71176,17.55899
21.390528202,11.76714,-20.6777,-5.246314,0.9586378,0.09632999,-0.340093,-53.97956,-23.71176,17.55899
21.400440216,6.37853299999997,-20.38644,-6.16675799999997,0.9295526,0.1212115,-0.3338964,-53.97956,-23.71176,17.55899
21.41283083,-4.02706,-29.93976,-12.0576,0.8867292,0.1049302,-0.2851129,-53.96526,-24.45572,18.84619
21.422742844,3.591321,-19.68742,-5.491766,0.9253411,0.1695388,-0.3541823,-53.96526,-24.45572,18.84619
21.432655335,5.20171,-22.60002,-8.13037100000001,0.9156068,0.1652978,-0.307065,-53.96526,-24.45572,18.84619
21.442567349,-1.549538,-23.64855,-8.43718500000001,0.9204076,0.1792196,-0.2517985,-53.96526,-24.45572,18.84619
21.452480316,-14.37072,-22.19225,-8.55991099999998,0.9278219,0.1803287,-0.2427366,-53.96526,-24.45572,18.84619
21.46239233,-28.49259,-19.86217,-8.92808800000003,0.931809,0.1735877,-0.2432986,-52.46226,-24.4488,20.50877
21.472304821,-38.89818,-18.11462,-9.48035400000003,0.9284521,0.1433351,-0.2722786,-52.46226,-24.4488,20.50877
21.482216835,-44.22485,-18.11462,-9.54171799999998,0.9236429,0.1052669,-0.3089797,-52.46226,-24.4488,20.50877
21.492129326,-45.71137,-19.45441,-10.33944,0.9216775,0.05524172,-0.3208186,-52.46226,-24.4488,20.50877
21.50204134,-42.92416,-19.1049,-9.72580600000002,0.939981,0.02338345,-0.3375255,-52.46226,-24.4488,20.50877
21.511953831,-38.71237,-19.27966,-9.66444299999998,0.9598877,-0.01082452,-0.3436994,-52.45256,-25.19799,20.51107
21.521865845,-35.05802,-17.88161,-9.84853300000002,0.9801987,-0.02019242,-0.3290648,-52.45256,-25.19799,20.51107
21.531777859,-33.50957,-15.02726,-10.27807,0.9779546,-0.01719172,-0.3059764,-52.45256,-25.19799,20.51107
21.541690349,-35.73934,-12.11466,-11.25988,0.9621622,0.01034142,-0.2878811,-52.45256,-25.19799,20.51107
21.551602363,-40.075,-10.48361,-12.11896,0.9472626,0.02808638,-0.2895457,-52.45256,-25.19799,20.51107
21.561515331,-43.85323,-9.90108999999998,-13.34622,0.946475,0.03865658,-0.3062735,-51.69248,-26.32512,19.67546
21.571426868,-45.46362,-9.14381400000001,-14.75756,0.9591725,0.03783214,-0.3087973,-51.69248,-26.32512,19.67546
21.581339836,-43.54353,-7.454507,-15.8621,0.9843393,0.01436151,-0.313988,-51.69248,-26.32512,19.67546
21.59125185,-39.39368,-5.357436,-16.90527,0.9911102,0.001486088,-0.288688,-51.69248,-26.32512,19.67546
21.601164341,-37.16392,-2.969106,-17.45753,0.9904175,-0.004231465,-0.2675927,-51.69248,-26.32512,19.67546
21.611076355,-38.2788,-0.4060195,-17.88707,0.975048,-0.004283106,-0.240562,-51.68603,-26.69788,20.12633
21.620988846,-41.49958,1.341539,-18.25525,0.967812,0.001529946,-0.224131,-51.68603,-26.69788,20.12633
21.63090086,-45.40168,1.924059,-19.05297,0.9634894,0.01492563,-0.2484899,-51.68603,-26.69788,20.12633
21.640812874,-49.11796,2.157067,-19.72796,0.9646024,0.03671112,-0.257478,-51.68603,-26.69788,20.12633
21.650725365,-52.71037,2.739586,-20.64841,0.9600517,0.04145598,-0.2665273,-51.68603,-26.69788,20.12633
21.660637379,-55.93114,3.72987,-21.93703,0.9667596,0.051714,-0.2679615,-51.67283,-28.20332,18.39634
21.670549869,-58.03704,4.60365,-23.4711,0.988884,0.06302382,-0.2906582,-51.67283,-28.20332,18.39634
21.680461883,-59.8332399999999,5.88519199999999,-24.39154,1.004287,0.07675159,-0.2983917,-51.67283,-28.20332,18.39634
21.692852497,-62.2488299999999,7.45799500000003,-26.04834,1.021574,0.09241732,-0.3109314,-51.67283,-28.20332,18.39634
21.702764511,-63.6734000000001,8.62303400000002,-27.39832,1.04526,0.1052583,-0.3225887,-50.91436,-29.33228,17.11102
21.712677479,-63.6734000000001,10.19584,-28.68694,1.077404,0.110474,-0.3290932,-50.91436,-29.33228,17.11102
21.722589016,-62.93015,12.64242,-29.17785,1.112166,0.1167863,-0.3173687,-50.91436,-29.33228,17.11102
21.732501984,-62.3107599999999,16.31229,-28.62558,1.153672,0.1299606,-0.3075815,-50.91436,-29.33228,17.11102
21.742413998,-62.4965800000001,21.0307,-27.88923,1.191813,0.1465369,-0.2881373,-50.91436,-29.33228,17.11102
21.752326488,-68.6284499999999,21.55497,-29.9142,1.216532,0.1538136,-0.2532659,-49.77169,-31.59021,14.54232
21.762238502,-70.3007699999998,34.89467,-23.22565,1.269444,0.1718414,-0.2699605,-49.77169,-31.59021,14.54232
21.772150993,-63.9830999999998,40.1956,-20.46432,1.301209,0.2088072,-0.3237857,-49.77169,-31.59021,14.54232
21.782063007,-57.10797,43.92373,-16.41436,1.335007,0.2160897,-0.309645,-49.77169,-31.59021,14.54232
21.791975021,-50.54253,50.5062,-12.48714,1.357212,0.2135434,-0.2930618,-49.77169,-31.59021,14.54232
21.801887512,-43.41966,60.40903,-10.64625,1.357766,0.2233396,-0.2752359,-49.76065,-33.41488,11.07868
21.811799526,-35.24384,71.3021499999997,-11.50533,1.340876,0.21251,-0.2660288,-49.76065,-33.41488,11.07868
21.821712017,-30.16492,82.0205099999997,-12.0576,1.317463,0.2027383,-0.2241036,-49.76065,-33.41488,11.07868
21.831624031,-32.27081,96.0592299999998,-9.41899200000002,1.284895,0.1870668,-0.175891,-49.76065,-33.41488,11.07868
21.841536999,-36.54454,113.6513,-2.362258,1.193967,0.1859373,-0.1750576,-49.76065,-33.41488,11.07868
21.851448536,-40.69439,123.0881,4.878565,1.044161,0.169334,-0.2117152,-49.76448,-34.55958,5.942575
21.861361504,-45.64943,124.2532,9.97168700000001,0.8882842,0.1603559,-0.2593096,-49.76448,-34.55958,5.942575
21.871273518,-51.7813,120.2921,13.1012,0.7576921,0.1543103,-0.2696659,-49.76448,-34.55958,5.942575
21.881185532,-52.21486,111.5543,15.06481,0.6518639,0.2016487,-0.3298321,-49.76448,-34.55958,5.942575
21.891098022,-42.55252,96.2339900000001,17.76477,0.5772961,0.2800935,-0.3569492,-49.76448,-34.55958,5.942575
21.901010036,-25.20987,75.0885199999999,21.44655,0.5484127,0.3645836,-0.3565994,-50.16356,-34.58784,-0.9938984
21.910922527,-7.929157,50.97221,27.21466,0.5876229,0.3507361,-0.3162408,-50.16356,-34.58784,-0.9938984
21.920834541,-2.41667,25.5161,35.74411,0.7178962,0.2866291,-0.2760989,-50.16356,-34.58784,-0.9938984
21.930747032,-9.04404300000003,6.52596399999999,44.76445,0.8407614,0.145088,-0.1907893,-50.16356,-34.58784,-0.9938984
21.940659046,-22.4846,6.81722400000001,55.25751,0.9227356,0.02994761,-0.1519812,-50.16356,-34.58784,-0.9938984
21.950571537,-30.10298,15.43851,64.2165000000001,0.9224241,-0.03410815,-0.1620083,-49.81924,-33.48154,-5.303696
21.960483551,-23.53755,25.98212,69.0028100000001,0.8665614,-0.02950338,-0.1681832,-49.81924,-33.48154,-5.303696
21.972874165,-8.300786,36.05971,72.93003,0.8216758,0.06729751,-0.09269864,-49.81924,-33.48154,-5.303696
21.982786179,0.494418,39.72958,72.0709500000002,0.8146238,0.2483107,-0.04389185,-49.81924,-33.48154,-5.303696
21.992699146,0.43248,32.04033,63.6028700000002,0.8206301,0.3813701,-0.01761257,-49.81924,-33.48154,-5.303696
22.002610683,-15.91917,18.64237,61.4551699999998,0.8011072,0.3926027,-0.04856747,-51.7315,-30.55076,-6.138184
22.012523651,-41.3757,7.16673599999998,61.5778899999999,0.7807145,0.3141319,-0.07867146,-51.7315,-30.55076,-6.138184
22.022435665,-62.6204499999998,-3.260366,63.9096899999997,0.7833819,0.2091607,-0.1322128,-51.7315,-30.55076,-6.138184
22.032348156,-71.1679100000001,-13.1632,65.9960299999998,0.826468,0.1421728,-0.1575457,-51.7315,-30.55076,-6.138184
22.04226017,-66.3986800000001,-17.12433,66.7937400000002,0.8868396,0.09207414,-0.1464338,-51.7315,-30.55076,-6.138184
22.052172184,-53.14393,-14.91076,69.0028100000001,0.9155657,0.04725399,-0.1633234,-53.27353,-27.56118,-7.874235
22.062084675,-37.65942,-13.10495,70.3527899999999,0.8911906,0.02844924,-0.1781082,-53.27353,-27.56118,-7.874235
22.071996689,-22.4846,-16.54181,68.6346300000002,0.859321,0.02556686,-0.1898366,-53.27353,-27.56118,-7.874235
22.08190918,-7.18590000000003,-22.94953,66.1187499999999,0.8653944,0.02233281,-0.1735889,-53.27353,-27.56118,-7.874235
22.091821194,4.024887,-27.90095,63.7869599999999,0.9033859,0.01956737,-0.1437088,-53.27353,-27.56118,-7.874235
22.101733685,7.18372799999999,-28.48347,62.2528800000001,0.9483867,-0.001075878,-0.1188141,-54.82391,-23.44075,-7.879142
22.111645699,6.56434699999999,-28.19221,61.7006100000001,0.9429123,-0.03850583,-0.1242945,-54.82391,-23.44075,-7.879142
22.121558666,10.21869,-31.92033,61.3937999999997,0.9190689,-0.06459932,-0.1434542,-54.82391,-23.44075,-7.879142
22.13147068,18.76614,-41.24064,60.5347199999999,0.9262389,-0.05581253,-0.1492238,-54.82391,-23.44075,-7.879142
22.141383171,27.8091,-53.12404,58.0802,0.9529641,0.005652199,-0.141379,-54.82391,-23.44075,-7.879142
22.151295185,34.00291,-61.4540800000002,52.55754,1.008687,0.102917,-0.124921,-55.98412,-20.06242,-6.149084
22.161207199,36.29461,-64.0754199999997,46.05307,1.072931,0.2028339,-0.08499637,-55.98412,-20.06242,-6.149084
22.17111969,35.55136,-60.2307900000003,42.43266,1.112712,0.2743919,-0.03207013,-55.98412,-20.06242,-6.149084
22.181031704,34.43647,-52.36677,41.8804,1.071797,0.3302971,0.00133145,-55.98412,-20.06242,-6.149084
22.190944195,33.44546,-47.99787,41.08268,0.9663579,0.358574,0.004415592,-55.98412,-20.06242,-6.149084
22.200856209,32.2067,-51.20173,37.585,0.8621919,0.3906711,-0.006891341,-57.51724,-16.30247,-2.683628
22.2107687,22.91599,-58.9492399999999,32.92141,0.8306597,0.4116184,-0.005499857,-57.51724,-16.30247,-2.683628
22.220680714,4.396515,-64.7744400000002,27.88965,0.8659847,0.3943212,0.03343119,-57.51724,-16.30247,-2.683628
22.230593205,-14.6804,-62.7356199999997,23.71698,0.9579433,0.3074544,0.07761706,-57.51724,-16.30247,-2.683628
22.240505219,-18.64444,-49.33767,22.55108,1.077877,0.2224543,0.1340408,-57.51724,-16.30247,-2.683628
22.250418186,-20.50258,-35.41545,19.48294,1.132187,0.1570681,0.2036862,-57.5293,-14.41564,0.7155685
22.262807846,-25.5815,-18.05636,17.15115,1.131315,0.1266276,0.2260588,-57.5293,-14.41564,0.7155685
22.272720814,-18.95413,-2.910854,15.06481,1.114814,0.1511135,0.2191722,-57.5293,-14.41564,0.7155685
22.282632351,-13.19389,5.593933,10.2785,1.054919,0.1443869,0.1879909,-57.5293,-14.41564,0.7155685
22.292545319,-2.974113,3.555114,6.16718700000003,0.9704896,0.1985156,0.07677528,-57.5293,-14.41564,0.7155685
22.302457333,0.3086039,-10.36711,2.055871,0.8959197,0.2747598,-0.0007730918,-57.16985,-12.912,1.993899
22.312369824,-10.71637,-29.24074,-2.484983,0.8650319,0.3192,-0.05204846,-57.16985,-12.912,1.993899
22.322281838,-34.62445,-47.53186,-6.90311299999998,0.8845521,0.2840547,-0.1446535,-57.16985,-12.912,1.993899
22.332193852,-60.4526199999997,-59.9395300000002,-10.83034,0.9333227,0.2221626,-0.2295446,-57.16985,-12.912,1.993899
22.342106342,-80.2727999999998,-66.23074,-13.65303,0.9991451,0.1375346,-0.251844,-57.16985,-12.912,1.993899
22.352018356,-82.3786999999998,-63.4929000000001,-15.00302,1.073952,0.02506762,-0.2412812,-57.93455,-11.41002,2.892601
22.361930847,-63.0540199999997,-52.94929,-13.95985,1.138916,-0.08706656,-0.236387,-57.93455,-11.41002,2.892601
22.371842861,-37.10198,-41.47365,-13.22349,1.140628,-0.1083843,-0.2375051,-57.93455,-11.41002,2.892601
22.381755352,-28.36871,-33.02712,-12.91668,1.139427,-0.2021446,-0.08302756,-57.93455,-11.41002,2.892601
22.391667366,-14.1849,-17.41559,-10.21671,1.12304,-0.2468587,-0.06444773,-57.93455,-11.41002,2.892601
22.401580334,-1.859228,-11.06613,-9.41899200000002,1.121242,-0.2914314,-0.05368439,-57.1639,-12.52512,5.012243
22.411492348,7.55535600000002,-7.80401899999998,-7.51674200000002,1.116137,-0.2547793,-0.07932156,-57.1639,-12.52512,5.012243
22.421404839,10.52838,-8.61954700000002,-7.20992699999999,1.052044,-0.1807373,-0.1392156,-57.1639,-12.52512,5.012243
22.431316853,10.34257,-10.60011,-6.044032,0.9477951,-0.1001599,-0.24479,-57.1639,-12.52512,5.012243
22.441229344,8.979931,-18.17287,-5.553129,0.8851913,-0.01804319,-0.3406559,-57.1639,-12.52512,5.012243
22.451141358,5.263648,-24.46408,-3.773605,0.8832184,0.03094344,-0.3326288,-57.14961,-13.26908,6.299442
22.461053848,2.724188,-23.4738,-1.012274,0.9431009,0.05522443,-0.2821241,-57.14961,-13.26908,6.299442
22.470965862,1.980931,-19.16315,0.951339199999998,0.9981589,0.04509221,-0.2178794,-57.14961,-13.26908,6.299442
22.480877876,0.1227897,-13.2797,1.933146,0.9822106,0.04596331,-0.1985198,-57.14961,-13.26908,6.299442
22.490790367,-2.912175,-9.95934199999999,1.38088,0.9482133,0.04345481,-0.2265514,-57.14961,-13.26908,6.299442
22.500702381,-5.699387,-10.83312,0.705887599999999,0.9453808,0.05200294,-0.2543174,-56.3868,-14.01298,7.58275
22.510615349,-5.947139,-11.29914,-2.116806,0.9799201,0.06502851,-0.2564707,-56.3868,-14.01298,7.58275
22.520526886,-5.141944,-10.30885,-5.246314,1.019055,0.05138145,-0.2708482,-56.3868,-14.01298,7.58275
22.530439854,-5.265821,-8.561295,-7.45537899999998,1.041848,0.01913635,-0.2794364,-56.3868,-14.01298,7.58275
22.542829513,-5.203883,-6.58072700000001,-6.71902399999997,1.039936,-0.02012912,-0.2734383,-56.39489,-13.26196,8.030155
22.552742481,-3.71737,-5.18268,-4.141782,0.9934123,-0.06928056,-0.290141,-56.39489,-13.26196,8.030155
22.562654495,-0.3727147,-5.590444,-2.423621,0.9499401,-0.1634517,-0.3004497,-56.39489,-13.26196,8.030155
22.572566986,5.449462,-6.40597199999999,-1.441814,0.9604781,-0.2468369,-0.3241502,-56.39489,-13.26196,8.030155
22.582479,10.77613,-5.998208,0.2763473,1.016317,-0.222186,-0.2860898,-56.39489,-13.26196,8.030155
22.592391491,13.8111,-2.619594,0.951339199999998,1.054929,-0.1375685,-0.2364268,-56.76429,-13.63659,8.033257
22.602303505,10.83807,0.46776,-1.687266,1.062575,-0.09268444,-0.201147,-56.76429,-13.63659,8.033257
22.612215996,14.74017,6.93372799999998,0.5217989,1.050598,-0.09758737,-0.1828229,-56.76429,-13.63659,8.033257
22.62212801,20.56235,9.38030999999998,-1.441814,1.022985,-0.09682634,-0.1566339,-56.76429,-13.63659,8.033257
22.632040024,20.93398,9.67157,-1.748629,1.012565,-0.09313157,-0.1670764,-56.76429,-13.63659,8.033257
22.641952515,19.44746,9.84632599999999,-1.135,1.008413,-0.08989106,-0.1867029,-56.77399,-12.88739,8.030949
22.651864529,16.4125,9.78807399999997,0.3377102,0.9876997,-0.08243529,-0.1951045,-56.77399,-12.88739,8.030949
22.661777496,12.07683,8.04051500000001,1.074065,0.9668837,-0.06430133,-0.2010332,-56.77399,-12.88739,8.030949
22.671689033,8.42248799999999,6.1182,1.687694,0.9774134,-0.0481874,-0.2043844,-56.77399,-12.88739,8.030949
22.681602001,6.502409,4.487145,1.564968,0.9949062,-0.04070709,-0.206417,-56.77399,-12.88739,8.030949
22.691514015,6.19271900000002,3.904626,1.258154,0.9871805,-0.03441277,-0.189498,-56.3965,-13.26379,7.580442
22.701426506,6.502409,3.904626,0.705887599999999,0.9693493,-0.01767892,-0.1921026,-56.3965,-13.26379,7.580442
22.71133852,5.20171,3.263854,0.3990731,0.9561651,-0.01003014,-0.1813662,-56.3965,-13.26379,7.580442
22.721251011,2.910002,3.263854,-0.2759189,0.9615898,-0.00896318,-0.1756474,-56.3965,-13.26379,7.580442
22.731163025,1.05186,4.894909,-0.828185100000001,0.9764609,-0.02184493,-0.1710691,-56.3965,-13.26379,7.580442
22.741075516,0.0608516599999998,6.81722400000001,-1.135,0.9744393,-0.0419037,-0.2009539,-56.02224,-13.26376,7.578497
22.75098753,0.43248,6.52596399999999,-2.055443,0.9778085,-0.06383993,-0.2318613,-56.02224,-13.26376,7.578497
22.760899544,-0.806281,6.05994799999998,-1.748629,0.9988511,-0.06990914,-0.2373781,-56.02224,-13.26376,7.578497
22.770812035,-5.575511,7.86575900000002,-0.644096300000003,1.005885,-0.08240835,-0.2336852,-56.02224,-13.26376,7.578497
22.780724049,-9.47760899999999,8.85604200000002,-0.3986447,0.9891576,-0.07827972,-0.2387847,-56.02224,-13.26376,7.578497
22.790637016,-10.22087,7.69100299999997,-0.828185100000001,0.9697855,-0.06111496,-0.2480944,-56.76914,-13.26199,8.032103
22.800548553,-10.03505,6.23470400000003,-1.196362,0.9648083,-0.06366081,-0.2595891,-56.76914,-13.26199,8.032103
22.810461521,-9.911175,5.88519199999999,-1.503177,0.9659258,-0.07040519,-0.2538824,-56.76914,-13.26199,8.032103
22.822851181,-8.176909,6.584216,-1.871354,0.9784902,-0.0915384,-0.2454966,-56.76914,-13.26199,8.032103
22.832764149,-5.018068,7.10848400000002,-2.730435,0.9934037,-0.1087884,-0.2419082,-56.76914,-13.26199,8.032103
22.842676163,-0.06302445,7.45799500000003,-3.405427,0.9819586,-0.1268332,-0.2347202,-56.77213,-13.26539,7.196922
22.852588654,4.582329,7.51624699999999,-4.080419,0.9776798,-0.1234103,-0.2188126,-56.77213,-13.26539,7.196922
22.862500668,8.05085899999999,7.74925499999999,-4.878137,0.9898711,-0.101323,-0.1962107,-56.77213,-13.26539,7.196922
22.872413158,10.65226,9.55506599999997,-5.859943,0.9910202,-0.07512853,-0.196527,-56.77213,-13.26539,7.196922
22.882325172,12.63428,11.12787,-6.71902399999997,0.9831831,-0.03011605,-0.1927935,-56.77213,-13.26539,7.196922
22.892237663,12.88203,11.65214,-6.596298,0.968893,-0.01132663,-0.1814926,-56.40109,-13.26902,6.295549
22.902149677,11.64327,11.36088,-6.41221000000002,0.9843153,-0.01538941,-0.1605353,-56.40109,-13.26902,6.295549
22.912062168,9.59931099999998,11.47738,-5.859943,1.006222,-0.02857412,-0.1377781,-56.40109,-13.26902,6.295549
22.921974182,6.62628499999997,12.87543,-4.9395,1.026181,-0.04568184,-0.1188704,-56.40109,-13.26902,6.295549
22.93188715,3.839073,15.32201,-4.141782,1.030283,-0.05089973,-0.106459,-56.40109,-13.26902,6.295549
22.941799164,2.910002,17.65209,-3.344064,1.031389,-0.04886943,-0.09157076,-56.76703,-14.01981,5.914337
22.951710701,3.962949,19.22489,-3.282701,1.028256,-0.06193256,-0.07866454,-56.76703,-14.01981,5.914337
22.961623669,7.30760400000002,20.21518,-3.221339,1.030328,-0.06672563,-0.07295375,-56.76703,-14.01981,5.914337
22.971535683,12.32458,21.90448,-3.098613,1.051446,-0.0659262,-0.0630604,-56.76703,-14.01981,5.914337
22.981448174,15.66924,27.14716,-2.607709,1.092929,-0.07154007,-0.02987036,-56.76703,-14.01981,5.914337
22.991360188,13.74916,39.72958,-0.828185100000001,1.164818,-0.07842966,0.05824817,-56.76054,-14.77266,5.017221
23.001272678,2.042869,63.5546299999998,1.994509,1.273139,-0.08596081,0.1220176,-56.76054,-14.77266,5.017221
23.011184692,-11.39769,91.98159,6.044461,1.35154,-0.09123544,0.1318209,-56.76054,-14.77266,5.017221
23.021097183,-17.90118,117.2629,9.66487199999998,1.294545,-0.08769902,0.1093239,-56.76054,-14.77266,5.017221
23.031009197,-9.41567000000003,130.1366,11.56712,1.114398,-0.08250474,0.04812383,-56.76054,-14.77266,5.017221
23.040922165,16.22668,125.6512,11.9353,0.9104843,-0.08776309,-0.1017554,-56.77298,-14.40669,2.895993
23.050833702,49.36354,98.5058100000003,13.1012,0.7662747,-0.07029675,-0.2203449,-56.77298,-14.40669,2.895993
23.06074667,64.3525500000002,66.7002399999999,9.54214699999998,0.7339019,0.01825759,-0.269392,-56.77298,-14.40669,2.895993
23.070658684,54.25665,38.33154,6.53536400000002,0.7926749,0.07099006,-0.2460565,-56.77298,-14.40669,2.895993
23.080571175,23.10181,26.38988,4.633114,0.9585094,0.1228619,-0.178582,-56.77298,-14.40669,2.895993
23.090483189,-12.51257,24.70058,1.994509,1.069405,0.1010255,-0.2618601,-57.17554,-13.67871,-2.308184
23.100395203,-29.54554,24.35106,1.994509,1.021387,0.02378793,-0.3618034,-57.17554,-13.67871,-2.308184
23.112785816,-17.34374,19.4579,4.817203,0.8638766,-0.02455908,-0.4240497,-57.17554,-13.67871,-2.308184
23.122698307,0.3086039,9.49681400000001,3.221767,0.7773713,-0.009772377,-0.4500401,-57.17554,-13.67871,-2.308184
23.132610321,8.36055000000001,-1.279799,-0.889547900000002,0.7597041,0.01387597,-0.4285922,-57.17554,-13.67871,-2.308184
23.142522335,5.449462,-7.97877500000003,-3.405427,0.7848323,0.02745852,-0.3941627,-57.1866,-13.31117,-4.043941
23.152434826,-3.841246,-10.54186,-3.589516,0.8202311,0.04946359,-0.3496887,-57.1866,-13.31117,-4.043941
23.16234684,-13.37971,-11.53214,-3.221339,0.8200582,0.05889025,-0.3078506,-57.1866,-13.31117,-4.043941
23.172259331,-20.62646,-14.21173,-3.221339,0.816384,0.06872097,-0.2731797,-57.1866,-13.31117,-4.043941
23.182171345,-25.33375,-19.86217,-4.019056,0.8189983,0.05152712,-0.2291439,-57.1866,-13.31117,-4.043941
23.192083836,-27.31577,-26.44465,-4.816774,0.8372744,0.03258587,-0.1857447,-57.19144,-12.93657,-4.045095
23.20199585,-25.51956,-33.20187,-5.184951,0.8683583,-0.007122563,-0.1574872,-57.19144,-12.93657,-4.045095
23.211908817,-19.82126,-38.91056,-4.509959,0.8978308,-0.04546108,-0.1416898,-57.19144,-12.93657,-4.045095
23.221820831,-9.663423,-44.67751,-4.325871,0.9349427,-0.08038278,-0.1398649,-57.19144,-12.93657,-4.045095
23.231733322,2.228683,-50.32795,-4.694048,0.9774778,-0.1000919,-0.1159015,-57.19144,-12.93657,-4.045095
23.241645336,9.16574500000002,-55.62888,-4.448596,1.060172,-0.1104851,-0.07496174,-57.17554,-13.67871,-2.308184
23.251557827,7.98892199999997,-53.53181,-3.282701,1.182985,-0.1103593,0.02809763,-57.17554,-13.67871,-2.308184
23.261469841,2.042869,-39.8426,-0.828185100000001,1.301799,-0.0925272,0.09578024,-57.17554,-13.67871,-2.308184
23.271382332,-0.806281,-23.24079,-1.073637,1.3118,-0.07887898,0.08569535,-57.17554,-13.67871,-2.308184
23.281294346,5.94496599999999,-12.40592,-1.135,1.183787,-0.02947139,0.01038307,-57.17554,-13.67871,-2.308184
23.29120636,14.86405,-13.10495,-0.644096300000003,1.056834,0.02950748,0.001866763,-57.17419,-13.29705,-0.5747318
23.301118851,14.55436,-18.93014,1.258154,0.9930694,0.1064082,0.02505606,-57.17419,-13.29705,-0.5747318
23.311030865,4.520391,-25.51262,1.442243,0.9787832,0.1256875,0.03732058,-57.17419,-13.29705,-0.5747318
23.320943832,-8.053034,-27.84269,0.705887599999999,0.9933774,0.1041294,0.05240705,-57.17419,-13.29705,-0.5747318
23.33085537,-16.47661,-27.14367,0.828613499999998,0.9877761,0.04297934,0.05445226,-57.17419,-13.29705,-0.5747318
23.340768337,-19.51157,-26.44465,2.424049,0.9735317,-0.0006465286,-0.002845465,-56.42108,-13.29176,0.7062683
23.350680351,-20.50258,-26.26989,3.467218,0.9653561,-0.01361074,-0.05231252,-56.42108,-13.29176,0.7062683
23.360592842,-19.32576,-25.68737,2.976315,0.9729457,-0.03119543,-0.09571411,-56.42108,-13.29176,0.7062683
23.370504856,-15.60948,-22.89128,3.467218,0.9991904,-0.07460175,-0.114492,-56.42108,-13.29176,0.7062683
23.380417347,-15.23785,-17.00783,4.939929,1.032667,-0.1289408,-0.1084414,-56.42108,-13.29176,0.7062683
23.392807484,-17.71537,-9.66808199999998,5.98309800000002,1.058086,-0.1698411,-0.1094291,-56.78589,-13.66116,1.994261
23.402719975,-14.30878,-4.658412,5.73764600000002,1.054526,-0.184829,-0.0926905,-56.78589,-13.66116,1.994261
23.412631989,-4.274812,-1.920571,5.124017,1.041584,-0.1785174,-0.05987801,-56.78589,-13.66116,1.994261
23.422544479,6.06884200000002,-2.444838,3.528581,1.023709,-0.1320507,-0.03203411,-56.78589,-13.66116,1.994261
23.432456493,8.91799300000002,-4.425405,2.23996,1.008969,-0.09008041,-0.03738008,-56.41003,-13.6593,2.442027
23.442368984,8.05085899999999,-4.192397,1.81042,1.013656,-0.06890948,-0.08001648,-56.41003,-13.6593,2.442027
23.452280998,7.49341799999997,-2.270082,1.626331,1.015793,-0.06123454,-0.1011121,-56.41003,-13.6593,2.442027
23.462193966,6.87403699999997,0.46776,2.546775,1.013542,-0.04970533,-0.1163795,-56.41003,-13.6593,2.442027
23.47210598,2.476436,2.157067,3.467218,1.004293,-0.02126791,-0.126668,-56.41003,-13.6593,2.442027
23.482017517,-2.168918,3.496862,4.633114,0.9919788,-0.005857948,-0.1173284,-56.41003,-13.6593,2.442027
23.491930485,-3.159927,2.914342,5.001291,0.983515,0.008105457,-0.1157167,-56.41003,-13.6593,2.442027
23.501842499,-6.318768,1.865807,5.001291,0.9842811,0.02995876,-0.1107766,-56.41003,-13.6593,2.442027
23.51175499,-11.02606,0.933775699999999,5.430832,0.9686878,0.02637598,-0.1096959,-56.41003,-13.6593,2.442027
23.521667004,-15.36172,-0.580775400000001,5.492195,0.9537236,0.00238447,-0.1188404,-56.41003,-13.6593,2.442027
23.531579495,-18.70638,-2.677846,4.878565,0.9594896,-0.03832229,-0.1287681,-57.90706,-13.65942,2.449812
23.541491509,-20.93615,-4.833169,4.387662,0.980513,-0.08951898,-0.1413075,-57.90706,-13.65942,2.449812
23.551403999,-20.62646,-4.541909,4.326299,1.000855,-0.1291147,-0.1590451,-57.90706,-13.65942,2.449812
23.561316013,-16.91018,-2.561342,4.387662,1.020777,-0.1530707,-0.1517064,-57.90706,-13.65942,2.449812
23.571228981,-12.8842,-1.745815,4.019485,1.002425,-0.1295304,-0.1494592,-57.90706,-13.65942,2.449812
23.581140518,-9.10597999999999,-1.221547,3.589944,0.9855562,-0.101573,-0.1404741,-57.5425,-12.9102,2.445558
23.591053486,-7.929157,-0.3477675,3.467218,0.9847168,-0.06810287,-0.1354418,-57.5425,-12.9102,2.445558
23.6009655,-7.99109600000001,-0.3477675,3.221767,0.981366,-0.06420588,-0.1238611,-57.5425,-12.9102,2.445558
23.610877991,-10.15893,-1.279799,2.976315,0.9891488,-0.07486079,-0.1403294,-57.5425,-12.9102,2.445558
23.620790005,-12.51257,-1.338051,3.037678,0.9976255,-0.09320772,-0.1458118,-57.5425,-12.9102,2.445558
23.630702495,-12.76033,-1.221547,3.099041,1.003114,-0.1082052,-0.1526846,-57.165,-13.2866,1.995053
23.640614509,-11.45963,-0.988539100000001,2.608138,0.9999493,-0.1310406,-0.154248,-57.165,-13.2866,1.995053
23.650526524,-9.53954700000003,-1.279799,1.933146,0.9808942,-0.1371255,-0.1598742,-57.165,-13.2866,1.995053
23.660439014,-7.557528,-2.153579,1.442243,0.9653553,-0.1228795,-0.1802824,-57.165,-13.2866,1.995053
23.672829628,-4.088998,-2.736098,0.583161800000002,0.9661149,-0.1054199,-0.1811334,-57.165,-13.2866,1.995053
23.682741642,-2.788299,-2.270082,-0.09183015,0.975759,-0.0887824,-0.1748697,-56.78589,-13.66116,1.994261
23.692653656,-2.664423,-1.163295,-0.644096300000003,0.9826458,-0.08526052,-0.1667472,-56.78589,-13.66116,1.994261
23.702566147,-2.850237,-1.279799,-1.073637,0.9930388,-0.09823769,-0.1698108,-56.78589,-13.66116,1.994261
23.712478161,-1.177909,-1.804067,-1.748629,1.006548,-0.1174247,-0.162381,-56.78589,-13.66116,1.994261
23.722390652,-0.744343000000003,-1.571059,-2.362258,1.000072,-0.1156154,-0.1719122,-56.78589,-13.66116,1.994261
23.732302666,-0.3727147,-0.639027300000002,-2.178169,0.9885661,-0.1012572,-0.180353,-56.42457,-12.53551,2.438565
23.742215633,0.3705419,-1.105043,-2.546346,0.9825581,-0.09359881,-0.185048,-56.42457,-12.53551,2.438565
23.752127647,1.299613,-1.862319,-3.344064,0.9735151,-0.08651776,-0.2002822,-56.42457,-12.53551,2.438565
23.762040138,2.35256,-2.79435,-3.834968,0.9656879,-0.08369089,-0.1973101,-56.42457,-12.53551,2.438565
23.771952152,2.290622,-3.202114,-4.203145,0.9726277,-0.07965364,-0.1834228,-56.42457,-12.53551,2.438565
23.781864643,1.361551,-2.561342,-4.448596,0.9903497,-0.08229791,-0.1749614,-57.17309,-12.53557,2.442457
23.791776657,1.423489,-1.396303,-4.694048,0.9944974,-0.08846756,-0.1591957,-57.17309,-12.53557,2.442457
23.801689148,1.609303,-0.2895156,-4.878137,0.9965921,-0.09227321,-0.1501174,-57.17309,-12.53557,2.442457
23.811601162,2.166745,-0.1147597,-5.859943,1.002467,-0.08341546,-0.1390691,-57.17309,-12.53557,2.442457
23.821513653,2.910002,0.759019800000003,-6.53493500000002,1.009684,-0.07606777,-0.1419678,-57.17309,-12.53557,2.442457
23.831425667,3.715197,1.865807,-6.71902399999997,0.9926438,-0.08258516,-0.1423338,-57.16179,-13.28294,2.894478
23.841338634,4.458453,1.225035,-6.84175,0.9801663,-0.1055487,-0.1462127,-57.16179,-13.28294,2.894478
23.851250648,4.89202,0.409508,-6.71902399999997,0.9817899,-0.1083755,-0.1342426,-57.16179,-13.28294,2.894478
23.861162186,4.272639,1.225035,-6.53493500000002,0.9857771,-0.1151166,-0.1348045,-57.16179,-13.28294,2.894478
23.871075153,4.458453,2.681334,-6.47357199999998,0.9834396,-0.1199694,-0.1300136,-57.16179,-13.28294,2.894478
23.880987167,5.387524,2.623082,-6.78038700000001,0.9847975,-0.1034224,-0.1212731,-56.78428,-13.65933,2.443973
23.890899658,6.254657,1.865807,-7.33265300000001,0.9958833,-0.08921863,-0.1203207,-56.78428,-13.65933,2.443973
23.900811672,6.56434699999999,2.85609,-7.57810399999998,1.007017,-0.07157545,-0.110703,-56.78428,-13.65933,2.443973
23.910724163,6.68822300000002,4.894909,-7.148564,0.9992633,-0.0662711,-0.09763165,-56.78428,-13.65933,2.443973
23.920636177,7.30760400000002,6.99197999999999,-6.90311299999998,0.9827937,-0.06639858,-0.08259527,-56.78428,-13.65933,2.443973
23.930548668,5.573338,5.82694100000001,-7.394016,1.003644,-0.1028028,-0.04701876,-56.77943,-14.03393,2.445127
23.940460682,11.51939,9.96283000000002,-6.10539499999999,1.052233,-0.08918001,-0.06130195,-56.77943,-14.03393,2.445127
23.952851295,12.82009,19.92392,-5.859943,1.157807,-0.1025039,0.01397807,-56.77943,-14.03393,2.445127
23.962763309,8.17473599999999,35.53544,-4.019056,1.266391,-0.1182,-0.001535451,-56.77943,-14.03393,2.445127
23.9726758,9.28962000000002,50.27319,-0.3986447,1.248173,-0.1148384,-0.05752309,-56.77943,-14.03393,2.445127
23.982587814,16.22668,58.0206999999998,3.28313,1.115417,-0.08028922,-0.08823577,-56.77298,-14.40669,2.895993
23.992500782,29.41949,58.6614700000001,6.47400099999998,1.013518,-0.03410788,-0.1004301,-56.77298,-14.40669,2.895993
24.002412796,40.87803,53.30229,6.53536400000002,0.9595437,-0.003659947,-0.08292261,-56.77298,-14.40669,2.895993
24.012325287,44.47044,48.75864,5.614921,0.9530783,0.0215697,-0.06396855,-56.77298,-14.40669,2.895993
24.022237301,40.32059,44.21498,4.939929,0.9508028,0.03308617,-0.08163664,-56.77298,-14.40669,2.895993
24.032149792,30.906,37.86552,3.651307,0.9339322,0.05055049,-0.1327412,-57.16613,-13.66799,0.3258467
24.042061806,20.62428,29.41899,2.301323,0.9297106,0.07496999,-0.1819958,-57.16613,-13.66799,0.3258467
24.051974297,10.83807,21.26371,1.933146,0.9366274,0.09094205,-0.2040406,-57.16613,-13.66799,0.3258467
24.061886311,4.458453,16.83656,2.23996,0.9338616,0.1005005,-0.224118,-57.16613,-13.66799,0.3258467
24.071798801,4.953958,14.09872,2.485412,0.9226784,0.08331922,-0.2380536,-57.16613,-13.66799,0.3258467
24.081710815,8.42248799999999,12.40941,3.344493,0.9082315,0.04447493,-0.2141709,-57.17554,-13.67871,-2.308184
24.091622829,9.78512499999999,10.89486,4.080848,0.8799327,0.003911962,-0.2079373,-57.17554,-13.67871,-2.308184
24.10153532,9.66124900000002,6.52596399999999,5.492195,0.8436789,-0.0156023,-0.2375019,-57.17554,-13.67871,-2.308184
24.111447334,8.36055000000001,-0.755531299999998,5.86037199999999,0.8005196,-0.01230675,-0.2462038,-57.17554,-13.67871,-2.308184
24.121360302,3.405506,-10.42536,5.246743,0.8027279,-0.006545504,-0.2625112,-57.17554,-13.67871,-2.308184
24.131272316,-4.150936,-18.9884,4.019485,0.8248885,0.009173319,-0.276536,-56.42057,-14.05141,-1.861209
24.141184807,-9.47760899999999,-23.82331,2.669501,0.8573084,0.0259918,-0.2901682,-56.42057,-14.05141,-1.861209
24.151096821,-10.22087,-26.67765,2.608138,0.8822138,0.03019004,-0.28845,-56.42057,-14.05141,-1.861209
24.161009312,-9.04404300000003,-29.76501,2.301323,0.9036387,0.03675444,-0.2895647,-56.42057,-14.05141,-1.861209
24.170921326,-8.79629,-32.85236,1.994509,0.9281892,0.04540656,-0.2695674,-56.42057,-14.05141,-1.861209
24.180833817,-9.22985600000001,-35.64846,1.319517,0.9678591,0.0447208,-0.2166413,-57.17233,-13.67505,-1.408758
24.190745831,-10.65443,-35.82321,0.03089567,1.033531,0.03245776,-0.1212987,-57.17233,-13.67505,-1.408758
24.200658321,-10.46862,-29.12424,0.0922585699999997,1.119408,-0.01141858,5.509984e-05,-57.17233,-13.67505,-1.408758
24.210570335,-5.699387,-16.25055,1.074065,1.157861,-0.0305294,0.05575067,-57.17233,-13.67505,-1.408758
24.220483303,-4.150936,-8.03702600000001,1.196791,1.105846,-0.05541626,0.05654607,-56.79187,-13.66796,0.3239002
24.232872963,1.857055,-11.12438,-0.214556,0.9894159,-0.06154218,-0.003398053,-56.80156,-12.91877,0.3215933
24.242785931,7.369542,-20.32819,-1.932717,0.9599162,-0.03248607,-0.03270147,-56.80156,-12.91877,0.3215933
24.252697468,6.44047100000002,-27.08542,-3.344064,1.02025,-0.007003532,-0.03212937,-56.80156,-12.91877,0.3215933
24.262610436,0.2466658,-25.10485,-2.975887,1.097843,-0.02195815,-0.01710138,-56.80156,-12.91877,0.3215933
24.27252245,-4.522564,-16.94958,-1.380451,1.140798,-0.06779003,0.01724758,-56.41947,-13.28993,1.155981
24.28243494,-4.64644,-7.74576700000002,1.074065,1.145373,-0.1195913,0.0211816,-56.41947,-13.28993,1.155981
24.292346954,-0.744343000000003,-1.862319,3.221767,1.108479,-0.1491863,0.0126828,-56.41947,-13.28993,1.155981
24.302259445,1.175737,0.642515800000001,5.001291,1.070604,-0.135628,0.006881336,-56.41947,-13.28993,1.155981
24.312171459,1.361551,3.322106,5.492195,1.031903,-0.09786165,-0.003552787,-56.41947,-13.28993,1.155981
24.322083473,-0.001086392,4.953161,5.73764600000002,1.008753,-0.06043671,-0.02373617,-56.79858,-12.91537,1.156774
24.331995964,-1.921166,5.710437,6.044461,0.9939381,-0.03070088,-0.05077007,-56.79858,-12.91537,1.156774
24.341907978,-4.150936,6.584216,6.41263799999999,0.9908687,-0.01519846,-0.04583684,-56.79858,-12.91537,1.156774
24.351820469,-8.36272300000002,8.62303400000002,6.71945300000003,0.9942808,0.0009364804,-0.02799504,-56.79858,-12.91537,1.156774
24.361732483,-13.56552,10.37059,6.71945300000003,1.001994,-0.00097432,-0.04104337,-56.79858,-12.91537,1.156774
24.371645451,-16.84824,11.9434,7.33308200000001,1.017172,-0.008091086,-0.04747321,-57.17123,-12.91357,1.608431
24.381557465,-16.91018,13.3997,7.82398500000003,1.022046,-0.01633044,-0.05861682,-57.17123,-12.91357,1.608431
24.391469956,-16.22886,14.56473,8.25352600000003,1.017901,-0.01162281,-0.07583282,-57.17123,-12.91357,1.608431
24.40138197,-17.09599,14.73949,8.43761400000001,1.006978,-0.01379495,-0.09447245,-57.17123,-12.91357,1.608431
24.41129446,-17.83924,13.86571,8.86715399999999,0.9980558,-0.02177305,-0.11557,-57.17123,-12.91357,1.608431
24.421206474,-17.71537,12.87543,9.05124299999999,0.994132,-0.0281698,-0.1242192,-56.42406,-13.29516,-0.128912
24.431118965,-15.73335,12.11815,8.74442899999999,0.9807961,-0.03133169,-0.1409225,-56.42406,-13.29516,-0.128912
24.441030979,-15.54754,10.54535,8.68306499999997,0.9567969,-0.04189653,-0.1570963,-56.42406,-13.29516,-0.128912
24.45094347,-18.76832,6.351208,9.41941999999998,0.94116,-0.05916051,-0.176273,-56.42406,-13.29516,-0.128912
24.460855484,-25.02406,1.865807,9.11260599999998,0.9435523,-0.05476702,-0.1762659,-56.42406,-13.29516,-0.128912
24.470768452,-30.35073,-1.338051,8.86715399999999,0.947895,-0.05571762,-0.1830346,-57.18389,-12.54786,-0.5770397
24.480679989,-31.40368,-2.270082,8.56033999999998,0.956659,-0.05757806,-0.1888899,-57.18389,-12.54786,-0.5770397
24.490592957,-26.75833,-2.270082,8.37625100000002,0.9723352,-0.08248439,-0.1675937,-57.18389,-12.54786,-0.5770397
24.500504971,-19.20188,-2.270082,7.76262199999999,0.9779441,-0.09107762,-0.1552187,-57.18389,-12.54786,-0.5770397
24.510417462,-14.43265,-2.037075,6.65808999999999,1.000951,-0.1066257,-0.1233645,-57.18389,-12.54786,-0.5770397
24.522807598,-13.75133,0.293004,5.79900900000001,1.017717,-0.1207296,-0.07847863,-57.18874,-12.17327,-0.5781937
24.532720089,-14.55653,1.924059,5.614921,1.025746,-0.1317445,-0.07142388,-57.18874,-12.17327,-0.5781937
24.542632103,-13.6894,1.924059,5.308106,1.012467,-0.1339011,-0.08139876,-57.18874,-12.17327,-0.5781937
24.552544594,-10.15893,2.390074,4.449025,1.01582,-0.1256018,-0.07849354,-57.18874,-12.17327,-0.5781937
24.562456608,-8.053034,3.904626,4.14221,1.032265,-0.1330435,-0.05708808,-57.18874,-12.17327,-0.5781937
24.572369099,-10.71637,5.652184,4.817203,1.017024,-0.1496137,-0.03689087,-57.57754,-11.04951,-0.5797081
24.582281113,-13.25583,4.487145,5.86037199999999,0.9942118,-0.1781063,-0.05367526,-57.57754,-11.04951,-0.5797081
24.592193127,-10.96412,1.399791,5.86037199999999,0.9865432,-0.197636,-0.06141698,-57.57754,-11.04951,-0.5797081
24.602105617,-6.00907800000001,-0.3477675,4.75584,0.9979945,-0.1722708,-0.05943327,-57.57754,-11.04951,-0.5797081
24.612017631,-5.080007,0.933775699999999,3.774033,0.9912719,-0.1142526,-0.07482979,-57.57754,-11.04951,-0.5797081
24.621930599,-6.62845799999998,2.564831,3.28313,0.9732926,-0.06272225,-0.09880829,-57.56945,-11.80053,-1.027114
24.631842136,-7.86721900000001,3.263854,2.485412,0.9566373,-0.02904829,-0.1099537,-57.56945,-11.80053,-1.027114
24.641755104,-8.85822799999998,4.02113,2.424049,0.9820893,-0.01359438,-0.08943935,-57.56945,-11.80053,-1.027114
24.651667118,-10.22087,5.360925,2.546775,1.013186,-0.02622733,-0.07588651,-57.56945,-11.80053,-1.027114
24.661579609,-11.21187,5.477429,3.405856,1.004321,-0.03612676,-0.09363633,-57.56945,-11.80053,-1.027114
24.671491623,-11.39769,4.60365,4.571751,0.983328,-0.04369035,-0.09925447,-57.57244,-11.80393,-1.862294
24.681404114,-11.83125,1.924059,5.430832,0.9670802,-0.04785317,-0.1149772,-57.57244,-11.80393,-1.862294
24.691316128,-12.82226,-0.3477675,5.98309800000002,0.962603,-0.0745291,-0.1059905,-57.57244,-11.80393,-1.862294
24.701228619,-15.60948,-0.930287099999998,7.08763000000002,0.9772398,-0.1219188,-0.117005,-57.57244,-11.80393,-1.862294
24.711140633,-18.27281,-1.629311,7.82398500000003,0.9899428,-0.1732238,-0.1304286,-57.57244,-11.80393,-1.862294
24.7210536,-18.087,-2.561342,7.88534800000001,1.00146,-0.2022099,-0.1379306,-58.32256,-11.80582,-2.308114
24.730965137,-13.81327,-1.978823,8.00807399999998,1.00843,-0.2118156,-0.1370987,-58.32256,-11.80582,-2.308114
24.740878105,-8.176909,0.2347521,7.21035599999999,0.9977976,-0.2172514,-0.1312747,-58.32256,-11.80582,-2.308114
24.750790119,-5.389697,1.865807,6.28991200000003,0.9905965,-0.2097173,-0.1570864,-58.32256,-11.80582,-2.308114
24.76070261,-3.345741,1.691051,5.492195,0.9771937,-0.1924262,-0.1563671,-58.32256,-11.80582,-2.308114
24.770614624,2.724188,1.632799,3.589944,0.9824749,-0.1772875,-0.1481524,-58.33065,-11.0548,-1.860709
24.780527115,10.03288,3.089098,1.687694,0.9927218,-0.1586334,-0.1284364,-58.33065,-11.0548,-1.860709
24.790439129,11.76714,3.496862,-0.3372818,0.9521172,-0.1567134,-0.1280481,-58.33065,-11.0548,-1.860709
24.802829742,10.77613,0.0599961999999999,-0.4600076,0.9850068,-0.163553,-0.1235963,-58.33065,-11.0548,-1.860709
24.812741756,14.43048,-0.1730116,-0.766822200000002,1.008795,-0.1894352,-0.1230284,-58.33065,-11.0548,-1.860709
24.822654247,20.19072,0.46776,-0.705459200000001,1.010921,-0.2078585,-0.1279724,-57.95964,-10.67834,-1.414097
24.832566261,23.72119,0.817271699999998,0.3990731,1.005374,-0.2221601,-0.1611473,-57.95964,-10.67834,-1.414097
24.842478752,24.58832,0.2347521,1.012702,0.9973115,-0.2087238,-0.1686657,-57.95964,-10.67834,-1.414097
24.852390766,24.09282,-0.4642715,-0.4600076,0.9762661,-0.1743634,-0.1303097,-57.95964,-10.67834,-1.414097
24.862303734,24.34057,-0.2895156,-2.116806,0.9736521,-0.1486284,-0.1166696,-57.95964,-10.67834,-1.414097
24.872215748,25.76514,0.293004,-3.89633,0.983659,-0.1247333,-0.1142022,-57.59184,-10.30555,-1.866909
24.882127285,27.99491,0.817271699999998,-5.36904,1.006023,-0.1079328,-0.1070947,-57.59184,-10.30555,-1.866909
24.892040253,29.17174,1.166783,-6.78038700000001,1.011762,-0.08353617,-0.09114005,-57.59184,-10.30555,-1.866909
24.901952267,27.74716,0.700767799999999,-8.43718500000001,1.008509,-0.05349506,-0.08706856,-57.59184,-10.30555,-1.866909
24.911864758,24.46444,-1.046791,-10.15535,1.00107,-0.05461688,-0.09853103,-57.59184,-10.30555,-1.866909
24.921776772,20.43847,-2.677846,-9.78716900000001,1.003483,-0.06143222,-0.1096424,-57.95341,-11.05137,-1.027475
24.931689262,18.33258,-2.561342,-8.00764499999998,0.9998439,-0.04207537,-0.1080393,-57.95341,-11.05137,-1.027475
24.941601276,17.09381,-1.978823,-5.92130599999998,1.006665,-0.04005118,-0.1080889,-57.95341,-11.05137,-1.027475
24.951513767,12.44846,-2.095326,-3.957693,1.011541,-0.03609427,-0.1047465,-57.95341,-11.05137,-1.027475
24.961425781,5.697214,-2.328334,-1.99408,1.019351,-0.03746678,-0.1077088,-57.95341,-11.05137,-1.027475
24.971338272,2.042869,-0.930287099999998,-1.319088,1.025361,-0.03829471,-0.09480567,-57.57915,-11.05134,-1.029421
24.981250286,3.157754,0.2347521,-1.56454,1.023457,-0.02853651,-0.07839768,-57.57915,-11.05134,-1.029421
24.991163254,2.042869,1.574547,-1.871354,1.028824,-0.06481231,-0.07436755,-57.57915,-11.05134,-1.029421
25.001075268,1.423489,2.273571,-0.644096300000003,1.031816,-0.1074233,-0.07083784,-57.57915,-11.05134,-1.029421
25.010987759,2.414498,4.428894,-0.09183015,1.036642,-0.09178555,-0.05877434,-57.57915,-11.05134,-1.029421
25.020899773,3.343568,8.97254599999999,1.319517,1.05521,-0.09448647,-0.06328547,-57.20005,-11.42591,-1.030213
25.030812263,1.733179,12.64242,6.96490399999999,1.057735,-0.130263,-0.04962258,-57.20005,-11.42591,-1.030213
25.040724278,-0.1249625,17.18607,11.01486,1.039421,-0.1086541,-0.04594814,-57.20005,-11.42591,-1.030213
25.050636768,1.299613,19.63266,14.5739,1.015077,-0.1123208,-0.03998553,-57.20005,-11.42591,-1.030213
25.060548782,4.89202,18.05985,13.65346,0.9903337,-0.1271666,-0.03841512,-57.57729,-11.42933,-1.863448
25.070461273,7.74116999999998,14.15697,15.06481,0.9980313,-0.1261584,-0.04952324,-57.57729,-11.42933,-1.863448
25.08285141,11.02389,13.57445,19.11476,0.9912524,-0.108897,-0.07047251,-57.57729,-11.42933,-1.863448
25.092763901,10.83807,14.33173,17.45796,0.9744977,-0.09258734,-0.06396685,-57.57729,-11.42933,-1.863448
25.102675915,6.254657,13.45795,15.98525,0.9544485,-0.08161984,-0.05122425,-57.57729,-11.42933,-1.863448
25.112588882,1.299613,12.23466,13.89891,0.9383191,-0.080843,-0.04962943,-57.958,-11.0566,-2.312368
25.12250042,-3.036051,11.41913,12.24211,0.9424552,-0.06531575,-0.05724677,-57.958,-11.0566,-2.312368
25.132413387,-5.389697,12.52592,12.61029,0.9704145,-0.08150607,-0.06769653,-57.958,-11.0566,-2.312368
25.142325401,-2.974113,11.88514,11.13758,0.9626199,-0.09915005,-0.08550784,-57.958,-11.0566,-2.312368
25.152237892,4.086825,9.32205800000003,8.43761400000001,0.9611761,-0.1089125,-0.09468253,-57.958,-11.0566,-2.312368
25.162149906,11.08582,5.652184,7.08763000000002,0.9748447,-0.1033868,-0.09045071,-58.34819,-9.934412,-2.699351
25.172062397,12.38652,5.535681,7.148993,0.9869189,-0.09501904,-0.0953082,-58.34819,-9.934412,-2.699351
25.181974411,9.41349700000002,6.81722400000001,7.88534800000001,1.002635,-0.08600671,-0.07810782,-58.34819,-9.934412,-2.699351
25.191886902,6.31659499999999,8.564782,9.05124299999999,1.00018,-0.07531048,-0.06649006,-58.34819,-9.934412,-2.699351
25.201798916,4.334577,10.66185,6.78081600000001,0.9834437,-0.06338184,-0.06337485,-58.34819,-9.934412,-2.699351
25.21171093,2.786126,8.79779099999998,4.817203,0.9645726,-0.05010719,-0.07607617,-58.3498,-9.936242,-3.149063
25.221623421,3.962949,4.312389,4.14221,0.9637409,-0.03419409,-0.09084737,-58.3498,-9.936242,-3.149063
25.231535435,6.81209899999999,2.914342,3.099041,0.9640423,-0.01477337,-0.08639935,-58.3498,-9.936242,-3.149063
25.241448402,4.582329,3.030846,2.546775,0.9656082,-0.02348397,-0.08695202,-58.3498,-9.936242,-3.149063
25.251360416,-0.06302445,0.642515800000001,3.037678,0.9633304,-0.03952523,-0.08943862,-58.3498,-9.936242,-3.149063
25.261272907,-0.9301572,-0.639027300000002,3.28313,0.9762138,-0.05878963,-0.09544799,-57.98524,-9.187021,-3.153316
25.271184921,-0.3107767,-0.580775400000001,3.405856,0.978496,-0.06128261,-0.1142119,-57.98524,-9.187021,-3.153316
25.281097412,-0.001086392,-1.105043,3.160404,0.9765509,-0.0642284,-0.1166143,-57.98524,-9.187021,-3.153316
25.291009426,-2.912175,-2.153579,2.792227,0.975594,-0.0569126,-0.1059932,-57.98524,-9.187021,-3.153316
25.300921917,-8.36272300000002,-3.027358,2.608138,0.9865062,-0.0649899,-0.1003861,-57.98524,-9.187021,-3.153316
25.310833931,-9.911175,-2.677846,2.485412,0.9955265,-0.07842422,-0.0947971,-57.9917,-8.814257,-3.604183
25.320746422,-6.194891,-2.50309,2.485412,0.9953991,-0.06775878,-0.09472487,-57.9917,-8.814257,-3.604183
25.330658436,-3.221865,-3.842885,2.485412,0.9846196,-0.0364461,-0.107861,-57.9917,-8.814257,-3.604183
25.340571404,-4.33675,-7.10499500000003,2.608138,0.9681977,-0.0177727,-0.1138268,-57.9917,-8.814257,-3.604183
25.350483418,-8.23884800000001,-9.95934199999999,2.362686,0.966326,-0.02604611,-0.1153051,-57.9917,-8.814257,-3.604183
25.360395908,-10.77831,-11.7069,2.608138,0.9635816,-0.03817944,-0.1110391,-57.62228,-8.439631,-3.607284
25.372785568,-11.21187,-12.05641,1.933146,0.9640055,-0.06625156,-0.1025872,-57.62228,-8.439631,-3.607284
25.382698536,-9.911175,-12.87194,1.196791,0.968765,-0.09674142,-0.1033145,-57.62228,-8.439631,-3.607284
25.39261055,-8.48660000000001,-14.26999,0.889976299999999,0.9880908,-0.136121,-0.07686669,-57.62228,-8.439631,-3.607284
25.402523041,-7.86721900000001,-15.78454,1.012702,0.9932675,-0.1622518,-0.07948945,-57.62228,-8.439631,-3.607284
25.412435055,-7.12396199999998,-15.66803,1.012702,1.000767,-0.1728058,-0.07578785,-58.737,-8.810656,-2.700867
25.422347546,-5.76132499999998,-14.50299,1.749057,0.9985204,-0.1637133,-0.09347235,-58.737,-8.810656,-2.700867
25.43225956,-4.522564,-13.22145,1.196791,0.9775154,-0.1727465,-0.1019811,-58.737,-8.810656,-2.700867
25.442172051,-3.469617,-13.33796,0.2763473,0.9682524,-0.1787024,-0.1062566,-58.737,-8.810656,-2.700867
25.452084065,-4.64644,-14.736,0.951339199999998,0.9711512,-0.1840496,-0.1159222,-58.737,-8.810656,-2.700867
25.461996555,-8.548538,-16.77482,1.933146,0.9755658,-0.1893531,-0.1207999,-57.61123,-8.807167,-1.871525
25.471908569,-12.69839,-17.88161,2.669501,0.970715,-0.2020771,-0.1318834,-57.61123,-8.807167,-1.871525
25.481821537,-15.42366,-18.40588,3.528581,0.9610251,-0.2231287,-0.1477793,-57.61123,-8.807167,-1.871525
25.491733551,-13.87521,-18.81364,3.835396,0.9536463,-0.2590929,-0.1465102,-57.61123,-8.807167,-1.871525
25.501646042,-9.35373199999999,-19.45441,2.608138,0.95336,-0.2599692,-0.1277872,-57.61123,-8.807167,-1.871525
25.511558056,-2.602484,-19.68742,0.0922585699999997,0.9913115,-0.2569019,-0.09498682,-57.99358,-8.056176,-1.422174
25.521470547,7.12178899999997,-16.83307,-3.221339,1.029168,-0.21901,-0.07827895,-57.99358,-8.056176,-1.422174
25.531382561,12.26265,-13.80397,-6.596298,1.033156,-0.1864869,-0.08049996,-57.99358,-8.056176,-1.422174
25.541295052,14.92598,-11.47389,-7.51674200000002,1.02956,-0.1697951,-0.1254904,-57.99358,-8.056176,-1.422174
25.551207065,15.54536,-10.77487,-5.246314,1.000003,-0.1417443,-0.1615222,-57.99358,-8.056176,-1.422174
25.561119079,15.85505,-11.35739,-2.423621,0.9779887,-0.1100788,-0.1731116,-58.35676,-8.803828,-1.032452
25.57103157,13.37753,-12.75544,-0.214556,0.9593161,-0.08743257,-0.1555023,-58.35676,-8.803828,-1.032452
25.580943584,8.60830200000001,-14.21173,1.196791,0.9473188,-0.09234568,-0.1390987,-58.35676,-8.803828,-1.032452
25.590856552,6.006905,-15.31852,0.828613499999998,0.9570422,-0.1022479,-0.1085245,-58.35676,-8.803828,-1.032452
25.600768089,7.80310800000002,-16.94958,-1.809992,0.9796282,-0.1048442,-0.1025086,-58.35676,-8.803828,-1.032452
25.610681057,10.34257,-19.1049,-5.123589,0.9999963,-0.1239385,-0.09370118,-57.97283,-9.172903,0.3158932
25.620593071,12.32458,-20.21169,-6.71902399999997,0.9953018,-0.1497519,-0.1048734,-57.97283,-9.172903,0.3158932
25.630505562,11.27164,-21.78449,-6.596298,0.9821061,-0.1679627,-0.1255195,-57.97283,-9.172903,0.3158932
25.640417576,8.17473599999999,-23.00778,-5.123589,0.9781838,-0.1777734,-0.1380326,-57.97283,-9.172903,0.3158932
25.652808189,5.88302899999997,-21.55148,-4.325871,0.9659939,-0.2032746,-0.1644985,-57.97283,-9.172903,0.3158932
25.662720203,7.18372799999999,-20.73595,-4.264508,0.9700438,-0.2255927,-0.1771688,-58.34895,-8.794939,1.151866
25.672632694,9.28962000000002,-20.32819,-4.264508,0.9720736,-0.2260175,-0.1704682,-58.34895,-8.794939,1.151866
25.682544708,12.20071,-19.51266,-4.9395,0.9943947,-0.1989956,-0.1556097,-58.34895,-8.794939,1.151866
25.692457199,13.99691,-19.68742,-5.79858000000001,1.0035,-0.1604389,-0.1285481,-58.34895,-8.794939,1.151866
25.702369213,16.59831,-18.9884,-6.10539499999999,1.001058,-0.0882816,-0.1390885,-58.34895,-8.794939,1.151866
25.712281704,15.73118,-18.63888,-5.675855,0.981613,-0.01579344,-0.1384257,-58.3476,-8.413285,2.885317
25.722193718,13.19172,-18.46413,-5.98266900000002,0.9738811,0.03610297,-0.1164014,-58.3476,-8.413285,2.885317
25.732106686,11.02389,-18.23112,-7.51674200000002,0.9814472,0.03729104,-0.09245552,-58.3476,-8.413285,2.885317
25.7420187,10.03288,-18.11462,-8.55991099999998,0.9993919,-0.0274281,-0.08729074,-58.3476,-8.413285,2.885317
25.75193119,9.28962000000002,-18.58063,-8.68263700000001,1.0154,-0.09703983,-0.08598191,-58.3476,-8.413285,2.885317
25.761843204,9.41349700000002,-18.58063,-7.02583799999998,1.037739,-0.1351263,-0.09796603,-57.58963,-8.782592,4.16747
25.771755695,11.14776,-17.00783,-5.062225,1.046502,-0.1286944,-0.09416296,-57.58963,-8.782592,4.16747
25.781667709,11.89102,-13.68747,-3.03725,1.051417,-0.09520996,-0.1002274,-57.58963,-8.782592,4.16747
25.7915802,7.55535600000002,-10.71662,-0.2759189,1.050886,-0.08840855,-0.0963359,-57.58963,-8.782592,4.16747
25.801492214,1.795117,-11.29914,1.687694,1.027171,-0.1017522,-0.0880428,-57.58963,-8.782592,4.16747
25.811404705,-4.150936,-8.561295,5.79900900000001,1.05108,-0.05587295,-0.08699794,-58.32685,-9.530012,4.623383
25.821316719,-10.53056,-0.813783199999999,9.11260599999998,1.047451,-0.06016492,-0.06442554,-58.32685,-9.530012,4.623383
25.831229687,-12.51257,2.215319,7.946711,1.003908,-0.06072322,-0.06738767,-58.32685,-9.530012,4.623383
25.841141701,-12.01707,0.001744238,6.10582399999999,0.9694924,-0.01954686,-0.08504108,-58.32685,-9.530012,4.623383
25.851054192,-15.79529,-1.920571,4.694477,0.9588274,-0.01061364,-0.1132123,-58.32685,-9.530012,4.623383
25.860966206,-21.49359,-3.609878,5.553557,0.9594557,-0.03590088,-0.1292318,-57.94636,-9.903009,5.008059
25.870878696,-24.03305,-6.75548299999999,6.53536400000002,0.9465532,-0.09103243,-0.1645313,-57.94636,-9.903009,5.008059
25.88079071,-23.84724,-9.20206600000003,6.53536400000002,0.941365,-0.1590451,-0.1779007,-57.94636,-9.903009,5.008059
25.890703201,-22.91817,-9.37682200000001,6.53536400000002,0.9620537,-0.219436,-0.1861769,-57.94636,-9.903009,5.008059
25.900615215,-18.95413,-8.27003499999999,6.044461,0.978527,-0.2895417,-0.1877566,-57.95121,-9.528414,5.006905
25.910527706,-10.71637,-7.862271,5.124017,0.9901757,-0.3365085,-0.2035422,-57.95121,-9.528414,5.006905
25.92043972,-0.5585288,-7.57101099999998,4.264936,0.9961349,-0.2995624,-0.1990298,-57.95121,-9.528414,5.006905
25.932830334,7.98892199999997,-5.93995599999998,0.767250500000003,1.024592,-0.156487,-0.1652089,-57.95121,-9.528414,5.006905
25.942742348,11.76714,2.331823,0.5217989,1.037635,-0.05933961,-0.1622815,-57.95121,-9.528414,5.006905
25.952654839,6.006905,4.195886,0.705887599999999,0.997817,-0.06531199,-0.1898022,-57.96254,-8.400968,5.902866
25.962566853,0.927984400000002,2.739586,2.362686,0.9637254,-0.09591398,-0.2122583,-57.96254,-8.400968,5.902866
25.97247982,0.989922399999999,1.458043,2.853589,0.9460979,-0.1334601,-0.2109049,-57.96254,-8.400968,5.902866
25.982391834,-0.5585288,2.040563,2.853589,0.9603503,-0.1710453,-0.2002435,-57.96254,-8.400968,5.902866
25.992304325,-1.673414,3.205602,2.976315,0.9655105,-0.2015749,-0.2096176,-57.96254,-8.400968,5.902866
26.002216339,3.28163,2.972594,1.196791,0.9629235,-0.2226552,-0.2481468,-57.96415,-8.402798,5.453154
26.01212883,8.79411600000002,1.108532,0.828613499999998,0.9504713,-0.225366,-0.2734981,-57.96415,-8.402798,5.453154
26.022040844,11.64327,0.1182482,1.012702,0.946852,-0.2113648,-0.2762523,-57.96415,-8.402798,5.453154
26.031953335,13.06784,-0.4642715,0.3990731,0.9462857,-0.2011673,-0.2718576,-57.96415,-8.402798,5.453154
26.041865349,10.83807,-1.978823,-0.889547900000002,0.9588464,-0.1888922,-0.2723722,-57.96415,-8.402798,5.453154
26.05177784,7.67923199999999,-3.143862,-0.644096300000003,0.969012,-0.1505287,-0.2851749,-58.32386,-9.526613,5.458563
26.061689854,7.30760400000002,-2.79435,-0.950910899999997,0.9581771,-0.09436675,-0.2746173,-58.32386,-9.526613,5.458563
26.071602821,6.13078099999997,-2.736098,-1.625903,0.9460087,-0.03327572,-0.2452882,-58.32386,-9.526613,5.458563
26.081514835,0.927984400000002,-3.959389,-0.766822200000002,0.935031,-0.0235208,-0.2076693,-58.32386,-9.526613,5.458563
26.091426373,-5.327759,-5.532192,0.3990731,0.944701,-0.07856832,-0.1874787,-58.32386,-9.526613,5.458563
26.10133934,-7.99109600000001,-5.76519999999999,1.196791,0.9804718,-0.1385605,-0.1550783,-57.58504,-8.777363,5.452362
26.111251354,-6.93814800000003,-4.134145,0.767250500000003,1.013596,-0.179176,-0.1196433,-57.58504,-8.777363,5.452362
26.121163845,-6.07101500000003,-1.338051,0.828613499999998,1.036014,-0.2123432,-0.118151,-57.58504,-8.777363,5.452362
26.131075859,-5.265821,0.9920276,1.38088,1.044962,-0.2370348,-0.132803,-57.58504,-8.777363,5.452362
26.14098835,-3.593493,2.681334,1.626331,1.035707,-0.229576,-0.1681994,-57.58504,-8.777363,5.452362
26.150900364,-0.744343000000003,3.380358,1.626331,1.006176,-0.1966339,-0.1960362,-58.33057,-8.774024,6.291435
26.160812855,-0.682404900000003,3.788122,1.994509,0.9627371,-0.1744594,-0.2098915,-58.33057,-8.774024,6.291435
26.170724869,-3.469617,3.380358,2.546775,0.9400816,-0.1660456,-0.2158679,-58.33057,-8.774024,6.291435
26.180637836,-4.832254,2.739586,2.485412,0.9433922,-0.1480123,-0.2056951,-58.33057,-8.774024,6.291435
26.190549374,-4.33675,3.846374,1.442243,0.9637285,-0.1102982,-0.1811439,-58.33057,-8.774024,6.291435
26.200462341,-5.080007,5.302673,0.0922585699999997,0.9677162,-0.09606326,-0.157078,-57.57858,-9.150127,5.903229
26.212852001,-6.814272,5.593933,-0.09183015,0.9869637,-0.1301177,-0.1320345,-57.57858,-9.150127,5.903229
26.222764969,-5.389697,5.82694100000001,-0.766822200000002,1.01452,-0.1345619,-0.120315,-57.57858,-9.150127,5.903229
26.232676983,-5.080007,7.45799500000003,-0.950910899999997,1.01331,-0.1200609,-0.1259691,-57.57858,-9.150127,5.903229
26.242589474,-6.56652,8.564782,-0.582733500000001,1.005299,-0.1105004,-0.1330337,-57.57858,-9.150127,5.903229
26.252501488,-7.61946700000001,7.807507,-0.214556,0.994963,-0.1126155,-0.1420752,-57.96254,-8.400968,5.902866
26.262413979,-9.29179500000003,6.584216,0.583161800000002,0.9982895,-0.1426184,-0.1389447,-57.96254,-8.400968,5.902866
26.272325993,-10.96412,6.75897199999999,1.074065,0.9988701,-0.1606133,-0.1510739,-57.96254,-8.400968,5.902866
26.282238483,-11.52156,8.73953799999999,1.871783,0.9968951,-0.1660137,-0.1592543,-57.96254,-8.400968,5.902866
26.292150498,-11.02606,11.65214,2.178597,1.009899,-0.1581465,-0.1694055,-57.96254,-8.400968,5.902866
26.302062988,-9.663423,14.50648,1.933146,1.006882,-0.1523731,-0.1707796,-57.9593,-8.777393,5.454308
26.311975002,-7.43365200000003,15.26376,1.564968,0.9949864,-0.1413839,-0.1734773,-57.9593,-8.777393,5.454308
26.32188797,-6.07101500000003,15.14725,1.135428,0.9837363,-0.143478,-0.1762682,-57.9593,-8.777393,5.454308
26.331799984,-5.513573,15.14725,0.705887599999999,0.9700882,-0.1180218,-0.189897,-57.9593,-8.777393,5.454308
26.341712475,-10.2828,13.10844,0.583161800000002,0.9694158,-0.1349482,-0.1799202,-57.9593,-8.777393,5.454308
26.351624489,-12.76033,11.01136,0.6445247,0.9650673,-0.1388787,-0.179426,-57.58963,-8.782592,4.16747
26.36153698,-13.93715,10.07933,1.196791,0.9550179,-0.1215807,-0.1854599,-57.58963,-8.782592,4.16747
26.371448994,-12.07901,11.24437,1.074065,0.9617181,-0.1044974,-0.1796461,-57.58963,-8.782592,4.16747
26.381361485,-8.053034,12.93368,0.6445247,0.971726,-0.09645106,-0.1479946,-57.58963,-8.782592,4.16747
26.391273499,-5.88520100000001,13.74921,0.583161800000002,0.984813,-0.1039021,-0.1203161,-57.58963,-8.782592,4.16747
26.401185989,-6.00907800000001,15.72977,0.583161800000002,1.016446,-0.110163,-0.09472185,-57.59262,-8.785991,3.332291
26.411098003,-6.814272,19.22489,1.81042,1.045525,-0.1130963,-0.075804,-57.59262,-8.785991,3.332291
26.421010971,-7.681405,22.487,3.774033,1.032754,-0.1040176,-0.07082382,-57.59262,-8.785991,3.332291
26.430922508,-9.72536099999999,23.59379,5.124017,0.9964526,-0.09770285,-0.07476746,-57.59262,-8.785991,3.332291
26.440835476,-13.25583,22.13749,5.614921,0.9842947,-0.1139191,-0.08724716,-57.59262,-8.785991,3.332291
26.45074749,-15.54754,19.63266,6.41263799999999,0.9766004,-0.1461451,-0.1123589,-58.34596,-8.791541,1.987046
26.460659981,-18.33475,16.72006,7.33308200000001,0.9605175,-0.1499826,-0.1592913,-58.34596,-8.791541,1.987046
26.470571995,-22.42266,14.56473,8.19216299999999,0.9542036,-0.1332151,-0.1831291,-58.34596,-8.791541,1.987046
26.480484486,-25.39569,14.62299,8.68306499999997,0.9719163,-0.1387911,-0.1790086,-58.34596,-8.791541,1.987046
26.4903965,-23.59948,17.12782,9.11260599999998,1.00103,-0.1707264,-0.1429986,-58.34596,-8.791541,1.987046
26.502787113,-20.37871,21.43847,9.235332,1.025718,-0.2149253,-0.1238349,-58.3538,-8.420343,1.150712
26.512699127,-17.40568,23.65204,8.80579200000003,1.010875,-0.2383658,-0.1204927,-58.3538,-8.420343,1.150712
26.522611618,-11.95513,23.18603,8.13079899999997,0.9814798,-0.2387633,-0.1264655,-58.3538,-8.420343,1.150712
26.532523632,-6.69039600000003,21.08895,6.53536400000002,0.9614205,-0.2202445,-0.1535256,-58.3538,-8.420343,1.150712
26.542436123,-6.75233400000001,20.21518,5.18538,0.9470391,-0.1871167,-0.1819814,-58.3538,-8.420343,1.150712
26.552348137,-9.04404300000003,19.34139,4.571751,0.941451,-0.1765613,-0.1900221,-58.35839,-8.425572,-0.134181
26.562261104,-5.575511,18.87538,3.528581,0.958392,-0.1796032,-0.16283,-58.35839,-8.425572,-0.134181
26.572173118,2.166745,19.22489,2.669501,0.9832433,-0.1800628,-0.1241701,-58.35839,-8.425572,-0.134181
26.582085609,7.80310800000002,20.68119,2.362686,0.9904693,-0.1744132,-0.08050491,-58.35839,-8.425572,-0.134181
26.591997623,9.22768300000001,22.42875,2.362686,0.9957219,-0.1751386,-0.04598692,-58.35839,-8.425572,-0.134181
26.601910114,5.015896,23.30253,2.362686,0.9895243,-0.1756233,-0.03104793,-58.74072,-8.054667,-1.032814
26.611822128,-3.221865,22.19574,2.23996,0.9953301,-0.1953337,-0.01250676,-58.74072,-8.054667,-1.032814
26.621734619,-11.088,20.68119,1.994509,0.9885502,-0.235137,-0.005026695,-58.74072,-8.054667,-1.032814
26.631646633,-15.05203,18.70062,2.730864,0.9666138,-0.2641583,-0.03238618,-58.74072,-8.054667,-1.032814
26.641559124,-15.4856,16.07928,2.424049,0.9489801,-0.2775657,-0.05103859,-58.74072,-8.054667,-1.032814
26.651471138,-13.56552,12.0599,1.687694,0.9426236,-0.2903282,-0.06594974,-59.12927,-7.310736,-2.318069
26.661384106,-12.07901,8.68128599999997,0.0922585699999997,0.94947,-0.2680513,-0.08747177,-59.12927,-7.310736,-2.318069
26.67129612,-11.33575,7.98226299999999,-2.178169,0.9693196,-0.2503421,-0.08609688,-59.12927,-7.310736,-2.318069
26.68120861,-8.11497100000001,9.90457699999998,-4.264508,0.9898416,-0.2364339,-0.07130912,-59.12927,-7.310736,-2.318069
26.691120624,-1.549538,12.1764,-7.63946799999999,1.005695,-0.2202812,-0.07999098,-57.99978,-8.063235,-3.156778
26.701033115,3.715197,12.58417,-9.72580600000002,1.006235,-0.1956185,-0.09375625,-57.99978,-8.063235,-3.156778
26.710945129,4.953958,11.76864,-10.70761,0.9950828,-0.1740078,-0.1069536,-57.99978,-8.063235,-3.156778
26.72085762,7.369542,10.02108,-10.8917,1.011639,-0.1965137,-0.09237172,-57.99978,-8.063235,-3.156778
26.730769634,19.81909,9.49681400000001,-8.43718500000001,1.032374,-0.1764015,-0.09723108,-57.99978,-8.063235,-3.156778
26.740682125,26.44646,9.49681400000001,-8.13037100000001,1.056646,-0.1730118,-0.06286158,-58.38349,-7.693897,-4.440879
26.750594139,28.73817,13.69096,-6.96447600000002,1.10658,-0.1513806,-0.03196898,-58.38349,-7.693897,-4.440879
26.760507107,27.0039,18.70062,-6.22812100000001,1.138444,-0.1770332,-0.006506017,-58.38349,-7.693897,-4.440879
26.772896767,31.09181,22.3705,-4.9395,1.096573,-0.1645441,-0.0218808,-58.38349,-7.693897,-4.440879
26.782809734,32.94996,22.66176,-4.325871,1.073848,-0.1764059,-0.01070602,-58.38349,-7.693897,-4.440879
26.792721271,37.78113,20.68119,-6.16675799999997,1.020886,-0.1120297,0.002216615,-58.38188,-7.692067,-3.991166
26.802634239,37.03787,14.79774,-10.27807,1.073125,-0.1101922,0.04399966,-58.38188,-7.692067,-3.991166
26.812546253,32.76414,11.9434,-13.40758,1.121583,-0.070535,0.09519263,-58.38188,-7.692067,-3.991166
26.822458744,24.40251,21.96273,-15.49392,1.180119,-0.05011237,0.1528865,-58.38188,-7.692067,-3.991166
26.832370758,10.09482,29.885,-13.95985,1.172931,-0.0530637,0.06842545,-58.38188,-7.692067,-3.991166
26.842283249,-6.318768,20.38993,-6.53493500000002,1.042045,0.00144762,-0.1379094,-58.74805,-8.443118,-4.436625
26.852195263,-19.3877,1.225035,1.135428,0.9182935,0.08253615,-0.2850738,-58.74805,-8.443118,-4.436625
26.862107754,-24.34274,-10.01759,4.019485,0.8758985,0.1554802,-0.3283703,-58.74805,-8.443118,-4.436625
26.872019768,-22.4846,-9.78458600000001,3.099041,0.9304376,0.108253,-0.3104632,-58.74805,-8.443118,-4.436625
26.881932259,-22.9801,-0.2312636,3.958122,0.9973665,-0.002628373,-0.2556423,-58.74805,-8.443118,-4.436625
26.891844273,-26.01507,10.89486,7.026268,1.01173,-0.02844862,-0.2204155,-59.12205,-8.822973,-5.718418
26.90175724,-31.2798,18.81713,11.99666,0.975641,-0.06981943,-0.1641788,-59.12205,-8.822973,-5.718418
26.911669254,-31.40368,18.29286,13.22392,0.9115775,-0.1320811,-0.142394,-59.12205,-8.822973,-5.718418
26.921581745,-30.35073,11.12787,12.85574,0.868399,-0.1892745,-0.1284511,-59.12205,-8.822973,-5.718418
26.931493759,-27.87321,2.85609,8.80579200000003,0.8110356,-0.2376282,-0.1522506,-59.12205,-8.822973,-5.718418
26.94140625,-21.12196,-5.590444,3.28313,0.8358691,-0.2637113,-0.1929874,-58.37675,-8.826573,-6.621735
26.951318264,-9.16791799999997,-9.49332599999999,3.528581,0.8612205,-0.257578,-0.193181,-58.37675,-8.826573,-6.621735
26.961230755,5.5114,-8.211782,3.344493,0.8890384,-0.2160414,-0.1974829,-58.37675,-8.826573,-6.621735
26.971142769,19.88103,-4.716664,3.896759,0.8858073,-0.136969,-0.1815612,-58.37675,-8.826573,-6.621735
26.98105526,30.78213,-2.677846,2.730864,0.8670627,-0.05168155,-0.145288,-58.37675,-8.826573,-6.621735
26.990967274,33.75515,-2.79435,2.178597,0.8623092,0.007591972,-0.1102777,-58.38484,-8.075552,-6.17433
27.000879288,29.35755,-3.143862,2.301323,0.8491747,0.04160811,-0.06383446,-58.38484,-8.075552,-6.17433
27.010792255,20.19072,-4.483657,2.853589,0.8432446,0.03150648,-0.0340771,-58.38484,-8.075552,-6.17433
27.020704746,8.91799300000002,-8.32828599999997,4.387662,0.833847,0.01402166,-0.01730113,-58.38484,-8.075552,-6.17433
27.03061676,-2.540546,-12.98844,4.694477,0.8473673,0.002157522,-0.0002195146,-58.38484,-8.075552,-6.17433
27.040528774,-11.76932,-16.65832,3.958122,0.892188,-0.01906733,0.006426948,-58.01382,-7.699097,-5.727718
27.050441265,-15.91917,-18.23112,3.405856,0.9394385,-0.04319606,0.008230008,-58.01382,-7.699097,-5.727718
27.062831879,-15.11397,-17.06608,2.546775,0.9828931,-0.04512288,-0.0003473954,-58.01382,-7.699097,-5.727718
27.072743893,-16.53855,-16.77482,1.135428,0.9836453,-0.04766719,-0.02533953,-58.01382,-7.699097,-5.727718
27.082656384,-19.75933,-20.09518,0.5217989,0.9674007,-0.07231615,-0.06472648,-58.01382,-7.699097,-5.727718
27.092568398,-21.74134,-25.10485,-0.09183015,0.9552438,-0.1104831,-0.1028008,-58.38509,-7.695727,-4.890591
27.102480888,-20.06902,-27.37668,0.2763473,0.9691437,-0.1536176,-0.1329865,-58.38509,-7.695727,-4.890591
27.112392902,-13.81327,-26.6194,0.6445247,0.9741247,-0.1691187,-0.1422589,-58.38509,-7.695727,-4.890591
27.12230587,-2.230856,-24.28932,0.6445247,0.9949473,-0.1728633,-0.1664843,-58.38509,-7.695727,-4.890591
27.132217407,11.2097,-22.71652,0.1536215,1.040216,-0.1406927,-0.1489228,-58.38509,-7.695727,-4.890591
27.142130375,21.36754,-18.28937,-0.03046724,1.113954,-0.07689095,-0.08387817,-57.63683,-7.315845,-3.610745
27.152042389,23.65925,-12.87194,-0.09183015,1.159386,-0.02366028,-0.02584456,-57.63683,-7.315845,-3.610745
27.16195488,18.64227,-7.39625499999999,0.583161800000002,1.191899,-0.01654031,0.05360844,-57.63683,-7.315845,-3.610745
27.171866894,9.10380600000001,-0.2895156,1.81042,1.205769,-0.0552914,0.1209243,-57.63683,-7.315845,-3.610745
27.181779385,0.5563561,5.94344499999998,3.099041,1.185354,-0.1345009,0.1354703,-57.63683,-7.315845,-3.610745
27.191691399,-1.983104,8.33177500000003,3.835396,1.121214,-0.1848558,0.1160416,-58.74669,-8.061464,-2.703175
27.20160389,-0.8682191,5.535681,3.160404,1.040156,-0.1865515,0.07740694,-58.74669,-8.061464,-2.703175
27.211515904,-2.478608,-0.5225234,1.012702,0.9722897,-0.1527255,0.03168458,-58.74669,-8.061464,-2.703175
27.221428871,-8.67241400000003,-6.17296399999999,0.2763473,0.9542614,-0.1065864,-0.003373021,-58.74669,-8.061464,-2.703175
27.231340408,-16.66242,-8.73605099999999,0.1536215,0.9375047,-0.09247743,-0.04729862,-58.74669,-8.061464,-2.703175
27.241253376,-22.79429,-10.07585,-0.1531931,0.9179255,-0.1012742,-0.1071959,-58.00948,-7.314045,-3.159086
27.25116539,-27.00608,-12.75544,-1.073637,0.9036649,-0.136128,-0.1557922,-58.00948,-7.314045,-3.159086
27.261077881,-29.11197,-15.66803,-0.950910899999997,0.8966211,-0.1897272,-0.1901754,-58.00948,-7.314045,-3.159086
27.270989895,-25.89119,-16.36706,1.012702,0.934575,-0.2173903,-0.1931115,-58.00948,-7.314045,-3.159086
27.280902386,-17.65343,-12.05641,2.362686,0.9738545,-0.2631485,-0.1356804,-58.00948,-7.314045,-3.159086
27.2908144,-7.18590000000003,-6.11471200000003,1.135428,1.0269,-0.3189402,-0.08276498,-58.00463,-7.68864,-3.157932
27.300726414,4.024887,-1.105043,0.460436,1.048539,-0.3325036,-0.0388809,-58.00463,-7.68864,-3.157932
27.310638905,12.88203,0.933775699999999,-0.3986447,1.053344,-0.3051697,-0.01521549,-58.00463,-7.68864,-3.157932
27.320550919,24.03088,1.924059,-1.871354,1.040074,-0.2651305,-0.02250856,-58.00463,-7.68864,-3.157932
27.33046341,32.33058,2.098815,-3.589516,1.032912,-0.1963612,-0.0205437,-58.00463,-7.68864,-3.157932
27.342854023,36.85205,0.5260119,-5.246314,1.000698,-0.1460122,-0.05112064,-58.74669,-8.061464,-2.703175
27.352766037,35.42748,-2.095326,-3.159976,1.005592,-0.1066849,-0.05234438,-58.74669,-8.061464,-2.703175
27.362679005,30.34856,-3.435122,0.2763473,0.9844539,-0.06774303,-0.06533389,-58.74669,-8.061464,-2.703175
27.372590542,20.31459,-5.532192,2.23996,0.9655387,-0.03839378,-0.06352296,-58.74669,-8.061464,-2.703175
27.38250351,7.80310800000002,-6.63897900000002,2.669501,0.9777312,-0.035818,-0.06361856,-58.74669,-8.061464,-2.703175
27.392415524,-0.001086392,-7.454507,2.608138,0.9897568,-0.06966636,-0.07499891,-58.74531,-8.059896,-2.317707
27.402328014,-0.3727147,-7.862271,1.81042,1.019667,-0.08339569,-0.08304952,-58.74531,-8.059896,-2.317707
27.412240028,-0.5585288,-6.40597199999999,-0.214556,1.027786,-0.07753863,-0.09508954,-58.74531,-8.059896,-2.317707
27.422152519,-5.018068,-5.82345200000001,-0.214556,1.001222,-0.07600127,-0.1087582,-58.74531,-8.059896,-2.317707
27.432064533,-12.32676,-6.46422299999998,1.994509,0.9638122,-0.04635212,-0.0981314,-58.74531,-8.059896,-2.317707
27.441977024,-17.90118,-4.949672,3.958122,0.9793953,-0.06594101,-0.07967985,-58.75341,-7.308875,-1.870301
27.451889038,-18.02506,-3.901137,4.080848,0.9831281,-0.1225617,-0.06808762,-58.75341,-7.308875,-1.870301
27.461802006,-17.77731,-4.89142,3.589944,0.9877689,-0.1865236,-0.07191776,-58.75341,-7.308875,-1.870301
27.471713543,-17.77731,-7.74576700000002,3.344493,0.9949882,-0.2574629,-0.1185523,-58.75341,-7.308875,-1.870301
27.481626511,-14.86622,-11.00788,4.571751,1.016658,-0.2378489,-0.1282252,-58.75341,-7.308875,-1.870301
27.491538525,-10.34474,-9.84283699999999,3.221767,1.000133,-0.1133842,-0.1157194,-58.37754,-7.307015,-1.422535
27.501451016,-10.15893,-6.11471200000003,0.889976299999999,0.9596192,-0.07898217,-0.1160759,-58.37754,-7.307015,-1.422535
27.51136303,-11.95513,-6.93023899999998,0.460436,0.9302745,-0.1278854,-0.1262136,-58.37754,-7.307015,-1.422535
27.52127552,-8.92016599999997,-10.2506,-0.09183015,0.9549658,-0.2162244,-0.1107051,-58.37754,-7.307015,-1.422535
