Time (s),Gyroscope X (deg/s),Gyroscope Y (deg/s),Gyroscope Z (deg/s),Accelerometer X (g),Accelerometer Y (g),Accelerometer Z (g),Magnetometer X (uT),Magnetometer Y (uT),Magnetometer Z (uT)
15.155024529,3.28163,1.458043,0.0922585699999997,0.3703801,-0.1355528,0.8646782,-19.08656,-18.96004,-27.67431
15.164936543,1.918993,1.516295,-1.073637,0.3767848,-0.1437408,0.8597628,-19.08656,-18.96004,-27.67431
15.174847603,1.175737,0.875523700000001,-1.871354,0.369515,-0.146238,0.8631745,-19.08656,-18.96004,-27.67431
15.184759617,0.3086039,0.46776,-2.546346,0.3602427,-0.1497597,0.860836,-19.08656,-18.96004,-27.67431
15.194671631,-0.1249625,-0.813783199999999,-2.853161,0.3417046,-0.163141,0.8493946,-19.46381,-18.96346,-28.50754
15.204583645,-0.9301572,-2.270082,-3.098613,0.3359162,-0.176344,0.8416776,-19.46381,-18.96346,-28.50754
15.214495182,-2.045042,-4.075893,-2.730435,0.3355841,-0.1923661,0.8382128,-19.46381,-18.96346,-28.50754
15.224406719,-3.841246,-5.93995599999998,-2.239532,0.3381852,-0.2029859,0.840999,-19.46381,-18.96346,-28.50754
15.234318733,-5.389697,-8.095279,-1.56454,0.3493627,-0.2328763,0.8469386,-19.46381,-18.96346,-28.50754
15.244230747,-6.44264400000003,-10.01759,-0.5213705,0.3575871,-0.254521,0.8606428,-19.45411,-19.71265,-28.50523
15.254142284,-6.44264400000003,-12.05641,0.3990731,0.3534193,-0.2715281,0.863449,-19.45411,-19.71265,-28.50523
15.264054298,-5.327759,-14.03698,0.6445247,0.3488717,-0.265806,0.8558467,-19.45411,-19.71265,-28.50523
15.273965836,-4.708378,-15.95929,0.460436,0.3432025,-0.2430977,0.8541297,-19.45411,-19.71265,-28.50523
15.28387785,-5.203883,-17.6486,-0.3986447,0.3407947,-0.2101867,0.8486094,-19.45411,-19.71265,-28.50523
15.293789387,-7.49559099999998,-20.21169,-1.196362,0.3293063,-0.1811852,0.8589922,-18.70906,-19.33643,-28.12481
15.303701401,-10.53056,-22.71652,-1.871354,0.3229288,-0.1744465,0.8648579,-18.70906,-19.33643,-28.12481
15.313613415,-13.07002,-25.45436,-2.914524,0.3326802,-0.1709239,0.8662317,-18.70906,-19.33643,-28.12481
15.323524475,-13.75133,-26.79416,-3.773605,0.3474819,-0.1779881,0.8708494,-18.70906,-19.33643,-28.12481
15.333436489,-13.6894,-27.66794,-4.264508,0.3735586,-0.1858721,0.8772779,-18.70906,-19.33643,-28.12481
15.343348503,-13.56552,-28.0757,-4.325871,0.3880968,-0.2035569,0.8914303,-19.08656,-18.96004,-27.67431
15.353260517,-14.6804,-27.90095,-4.019056,0.4104398,-0.2172509,0.9084182,-19.08656,-18.96004,-27.67431
15.363171578,-16.04304,-26.73591,-3.528153,0.4299195,-0.2343596,0.9282907,-19.08656,-18.96004,-27.67431
15.373083592,-14.30878,-24.46408,-3.098613,0.4350005,-0.2429793,0.9368291,-19.08656,-18.96004,-27.67431
15.382995606,-11.02606,-20.32819,-3.098613,0.4523364,-0.250942,0.9490998,-19.08656,-18.96004,-27.67431
15.39290762,-10.53056,-15.55153,-3.589516,0.4656671,-0.2555877,0.956148,-20.57714,-19.33292,-27.21566
15.405296803,-14.37072,-10.83312,-2.239532,0.5095174,-0.2675525,0.9743889,-20.57714,-19.33292,-27.21566
15.415208817,-16.29079,-5.998208,-0.950910899999997,0.5384293,-0.2854466,1.007133,-20.57714,-19.33292,-27.21566
15.425120831,-12.8842,1.341539,-0.2759189,0.5354637,-0.3233004,1.007389,-20.57714,-19.33292,-27.21566
15.435032368,-3.159927,6.40946000000002,1.503605,0.5169204,-0.3444894,0.986292,-20.57714,-19.33292,-27.21566
15.444943905,2.290622,9.72982099999999,1.994509,0.5191817,-0.3382128,0.9757494,-20.58683,-18.58373,-27.21796
15.454855919,-0.2488386,12.81718,1.81042,0.5036263,-0.3337314,0.942312,-20.58683,-18.58373,-27.21796
15.464767933,-6.318768,11.76864,3.835396,0.4846525,-0.331242,0.9069724,-20.58683,-18.58373,-27.21796
15.47467947,-7.557528,11.71039,6.044461,0.4841027,-0.3434749,0.8867293,-20.58683,-18.58373,-27.21796
15.484591484,-0.4965908,15.43851,8.19216299999999,0.4851044,-0.3351575,0.8987795,-20.58683,-18.58373,-27.21796
15.494503498,5.449462,21.0307,8.25352600000003,0.4675155,-0.3168343,0.9216317,-20.96109,-18.58376,-27.21602
15.504415035,2.786126,22.60351,8.13079899999997,0.4258975,-0.2908031,0.8991424,-20.96109,-18.58376,-27.21602
15.514326573,-1.549538,16.37054,9.787598,0.3939994,-0.2995539,0.877772,-20.96109,-18.58376,-27.21602
15.524238587,2.104807,11.36088,10.46259,0.4089961,-0.3060289,0.9020782,-20.96109,-18.58376,-27.21602
15.534150601,6.68822300000002,11.76864,10.21714,0.4412353,-0.3022269,0.9032459,-20.96109,-18.58376,-27.21602
15.544062614,8.79411600000002,12.64242,9.787598,0.4496546,-0.2871935,0.8835816,-19.83993,-18.5855,-27.67157
15.553973675,8.91799300000002,12.58417,9.11260599999998,0.4357884,-0.2864806,0.8673893,-19.83993,-18.5855,-27.67157
15.563885689,9.35155899999998,12.00165,10.89213,0.4613672,-0.2733997,0.8974898,-19.83993,-18.5855,-27.67157
15.573797703,0.866046300000002,11.24437,14.02164,0.4240586,-0.2427223,0.9191661,-19.83993,-18.5855,-27.67157
15.583708763,-7.12396199999998,11.12787,10.58532,0.3834527,-0.2381245,0.8749176,-19.83993,-18.5855,-27.67157
15.593620777,-4.584502,4.428894,10.15578,0.3648275,-0.2213161,0.7950154,-20.22121,-18.27677,-28.50576
15.603532791,4.582329,2.448327,9.66487199999998,0.3629606,-0.2081236,0.8191285,-20.22121,-18.27677,-28.50576
15.613444805,15.97893,11.41913,7.27171900000003,0.4189363,-0.2463193,0.8923007,-20.22121,-18.27677,-28.50576
15.623356342,26.01289,18.40936,9.41941999999998,0.4144892,-0.2834629,0.93963,-20.22121,-18.27677,-28.50576
15.633268356,28.92398,21.55497,5.492195,0.4056721,-0.3128408,0.9990555,-20.22121,-18.27677,-28.50576
15.643179893,18.64227,23.8268,4.633114,0.4342089,-0.4001896,1.009253,-19.47617,-17.90054,-28.12534
15.653091907,13.12978,26.50639,10.70804,0.4663444,-0.4742333,1.052157,-19.47617,-17.90054,-28.12534
15.663003445,18.45645,36.70048,15.37162,0.541644,-0.4057251,1.179639,-19.47617,-17.90054,-28.12534
15.675393104,23.47343,56.97216,16.35343,0.5748134,-0.2756029,1.228695,-19.47617,-17.90054,-28.12534
15.685305118,33.69321,63.43813,15.61707,0.4996172,-0.1511436,1.194208,-19.47132,-18.27514,-28.12419
15.695217132,45.02788,63.4963800000002,11.99666,0.4223118,0.00783677,1.089867,-19.47132,-18.27514,-28.12419
15.70512867,46.57633,61.1080499999999,6.71945300000003,0.3404527,0.02328533,0.9932551,-19.47132,-18.27514,-28.12419
15.715040684,34.00291,54.64209,6.65808999999999,0.3040814,0.04053477,0.9476112,-19.47132,-18.27514,-28.12419
15.724952698,19.19971,46.77807,8.31488799999999,0.3008702,0.02913408,0.9072316,-19.47132,-18.27514,-28.12419
15.734863758,8.17473599999999,41.59365,9.66487199999998,0.3427562,-0.04626545,0.9457149,-17.23521,-17.90559,-29.42192
15.744775772,-1.735352,44.681,12.97847,0.4199,-0.1631392,1.035933,-17.23521,-17.90559,-29.42192
15.754687786,-10.65443,51.03046,18.31704,0.464354,-0.2464884,1.124756,-17.23521,-17.90559,-29.42192
15.7645998,-17.15793,53.18579,20.28065,0.4212117,-0.357561,1.126816,-17.23521,-17.90559,-29.42192
15.77451086,-18.27281,49.10815,20.28065,0.3827582,-0.4008809,1.093272,-17.23521,-17.90559,-29.42192
15.784422874,-12.26482,46.42856,19.78975,0.341238,-0.3787101,0.9804863,-15.72582,-18.9684,-29.8119
15.794334888,-1.859228,47.41884,17.08978,0.2595447,-0.3265987,0.847625,-15.72582,-18.9684,-29.8119
15.804246902,4.582329,47.18584,12.79438,0.1758596,-0.2520915,0.7374985,-15.72582,-18.9684,-29.8119
15.814157963,2.104807,43.16645,7.701259,0.09741594,-0.2041693,0.6305076,-15.72582,-18.9684,-29.8119
15.824069977,1.237675,37.05,4.817203,0.0465943,-0.1823601,0.5639008,-15.72582,-18.9684,-29.8119
15.833981991,-0.744343000000003,31.63256,3.099041,0.03032871,-0.1560488,0.5344567,-14.24227,-18.28675,-31.10669
15.843894005,-5.018068,26.56464,3.835396,0.00787657,-0.1282652,0.5233257,-14.24227,-18.28675,-31.10669
15.853805542,-9.22985600000001,20.50644,5.18538,-0.002682632,-0.1490242,0.5660191,-14.24227,-18.28675,-31.10669
15.863717556,-11.95513,14.62299,6.35127500000001,-0.00398643,-0.1570021,0.6202359,-14.24227,-18.28675,-31.10669
15.873629093,-8.11497100000001,8.73953799999999,6.28991200000003,0.002775345,-0.2149999,0.6394735,-14.24227,-18.28675,-31.10669
15.883541107,-0.3727147,3.263854,5.86037199999999,0.01954547,-0.2839755,0.6681485,-12.37445,-17.91043,-30.73211
15.893452644,4.396515,-1.454555,4.019485,0.01804435,-0.3186459,0.624237,-12.37445,-17.91043,-30.73211
15.903364658,7.74116999999998,-6.17296399999999,2.669501,-0.02888113,-0.3121573,0.5858214,-12.37445,-17.91043,-30.73211
15.913276672,11.7052,-14.03698,1.196791,-0.06421207,-0.2936392,0.5953945,-12.37445,-17.91043,-30.73211
15.923188686,13.43947,-21.49323,-0.5213705,-0.06277627,-0.2794906,0.6089199,-12.37445,-17.91043,-30.73211
15.933099747,14.36854,-27.20192,-2.546346,-0.04687671,-0.2511187,0.6190452,-12.37744,-17.91383,-31.56729
15.943011761,14.36854,-33.08537,-3.834968,-0.02345013,-0.2215792,0.6492753,-12.37744,-17.91383,-31.56729
15.952923775,15.91699,-38.44455,-5.246314,0.02233097,-0.2220647,0.7261542,-12.37744,-17.91383,-31.56729
15.965312958,16.53637,-36.87175,-5.491766,0.09442642,-0.2156763,0.849891,-12.37744,-17.91383,-31.56729
15.975224972,15.1118,-34.59992,-5.000863,0.1281791,-0.1940224,0.9241476,-12.37744,-17.91383,-31.56729
15.985136986,15.35955,-33.26012,-4.755411,0.1235274,-0.1388378,1.011947,-12.75009,-17.91203,-31.11563
15.995049,10.77613,-34.94943,-3.834968,0.1152689,-0.07647476,1.090225,-12.75009,-17.91203,-31.11563
16.00496006,-1.177909,-43.33772,-0.950910899999997,0.1132228,-0.0297169,1.13617,-12.75009,-17.91203,-31.11563
16.014872074,-21.49359,-55.33762,0.460436,0.1453968,-0.001070725,1.160071,-12.75009,-17.91203,-31.11563
16.024784088,-37.90717,-64.25018,0.3377102,0.1899139,-0.001726227,1.11356,-12.75009,-17.91203,-31.11563
16.034696102,-44.90617,-69.3763399999998,0.828613499999998,0.2429208,0.03098552,1.123371,-14.23283,-18.65611,-29.82064
16.044607162,-53.70137,-67.5122800000001,-1.56454,0.2860764,-0.01036082,1.087165,-14.23283,-18.65611,-29.82064
16.054519176,-51.03804,-59.53176,-2.546346,0.3297812,-0.1923882,1.035131,-14.23283,-18.65611,-29.82064
16.064431191,-39.33175,-46.19206,-3.282701,0.3658873,-0.3090308,1.081556,-14.23283,-18.65611,-29.82064
16.074343205,-39.5795,-33.60964,-7.02583799999998,0.3766572,-0.3671778,1.062343,-14.23283,-18.65611,-29.82064
16.084254742,-46.083,-26.15339,-11.62806,0.3592931,-0.3665557,0.9434282,-15.36392,-17.90544,-29.43165
16.094166756,-45.2778,-21.55148,-14.81893,0.3452701,-0.2347224,0.8748133,-15.36392,-17.90544,-29.43165
16.104078293,-38.52655,-17.6486,-15.37119,0.3482607,-0.05467356,0.9004731,-15.36392,-17.90544,-29.43165
16.113990307,-25.76732,-8.91080699999998,-15.00302,0.3804577,0.07251237,0.9466377,-15.36392,-17.90544,-29.43165
16.123901844,-19.63545,3.555114,-11.87351,0.4135334,0.07113548,0.9756122,-15.36392,-17.90544,-29.43165
16.133813858,-18.83025,7.86575900000002,-8.62127400000002,0.3303627,-0.04357985,0.9324031,-16.85934,-17.90373,-28.97415
16.143725872,-12.8842,-1.046791,-6.96447600000002,0.2219348,-0.3121668,0.9162514,-16.85934,-17.90373,-28.97415
16.153636932,-2.540546,-16.30881,-6.16675799999997,0.1908214,-0.3392854,0.9975051,-16.85934,-17.90373,-28.97415
16.163548946,-0.1869005,-23.29904,-9.72580600000002,0.3213314,-0.5232605,1.015719,-16.85934,-17.90373,-28.97415
16.17346096,-3.283803,-18.69714,-14.57348,0.4336286,-0.4465848,0.9460488,-16.85934,-17.90373,-28.97415
16.183372974,-7.86721900000001,-14.38649,-18.13253,0.3797536,-0.3190385,0.8009485,-17.99828,-16.78186,-29.42148
16.193284035,-14.86622,-26.5029,-19.42115,0.2598048,-0.2718557,0.6511224,-17.99828,-16.78186,-29.42148
16.203196049,-16.53855,-44.50275,-19.97341,0.265249,-0.3175991,0.6992633,-17.99828,-16.78186,-29.42148
16.213108063,-10.96412,-49.92019,-18.37798,0.4167301,-0.4486473,0.8693661,-17.99828,-16.78186,-29.42148
16.223020077,-0.9301572,-40.19211,-15.12574,0.6269119,-0.5228587,1.012896,-17.99828,-16.78186,-29.42148
16.23540926,25.14576,-19.51266,-13.7144,0.6988255,-0.433168,1.025793,-19.49855,-16.40556,-28.96514
16.245321274,41.37353,-9.37682200000001,-17.02799,0.5579875,-0.2088736,0.9536848,-19.49855,-16.40556,-28.96514
16.255233288,23.96894,-9.72633399999999,-20.40295,0.3720177,-0.03351197,0.8101246,-19.49855,-16.40556,-28.96514
16.265145302,-11.14994,-28.25046,-19.85069,0.2760408,-0.02113554,0.7160234,-19.49855,-16.40556,-28.96514
16.275056362,-32.95213,-48.40564,-16.353,0.318588,-0.1076589,0.7582678,-19.49855,-16.40556,-28.96514
16.284968376,-34.68639,-54.34734,-12.97804,0.4494873,-0.2085133,0.8164051,-19.86311,-17.15478,-28.96089
16.29488039,-19.94514,-45.95905,-10.15535,0.5946345,-0.2923299,0.8533971,-19.86311,-17.15478,-28.96089
16.304792404,0.1227897,-29.29899,-9.60308100000002,0.6630055,-0.3456537,0.8778579,-19.86311,-17.15478,-28.96089
16.314703941,15.1118,-15.26027,-9.78716900000001,0.6396608,-0.3610043,0.8722097,-19.86311,-17.15478,-28.96089
16.324615955,17.27963,-10.54186,-9.90989499999997,0.5414537,-0.304396,0.8984633,-19.86311,-17.15478,-28.96089
16.334527493,4.210701,-14.32824,-9.48035400000003,0.4750553,-0.2464004,0.9287533,-20.96513,-18.2716,-27.21698
16.344439507,-15.05203,-17.93986,-10.09398,0.4534908,-0.2169398,0.9584388,-20.96513,-18.2716,-27.21698
16.354351044,-27.43964,-18.40588,-10.58489,0.4767662,-0.2433282,0.956127,-20.96513,-18.2716,-27.21698
16.364263058,-26.94414,-15.26027,-10.52352,0.5149012,-0.2869946,0.9521223,-20.96513,-18.2716,-27.21698
16.374175072,-19.26382,-11.00788,-9.97125800000001,0.5266002,-0.3266181,0.9498295,-20.96513,-18.2716,-27.21698
16.384086132,-9.10597999999999,-5.706948,-9.97125800000001,0.542902,-0.3492565,0.9394446,-21.34909,-17.52244,-27.21734
16.393998146,-3.036051,-0.813783199999999,-9.48035400000003,0.534428,-0.3484692,0.9246434,-21.34909,-17.52244,-27.21734
16.40391016,-4.088998,1.108532,-8.25309699999997,0.5186473,-0.3487349,0.911343,-21.34909,-17.52244,-27.21734
16.413822174,-9.16791799999997,1.516295,-6.47357199999998,0.4968724,-0.3408472,0.8952716,-21.34909,-17.52244,-27.21734
16.423733235,-13.31777,2.390074,-5.062225,0.5027508,-0.3554022,0.8792751,-21.34909,-17.52244,-27.21734
16.433645249,-12.07901,4.953161,-3.159976,0.5007901,-0.3632341,0.8696378,-22.09761,-17.5225,-27.21345
16.443557263,-6.814272,9.03079800000001,-2.178169,0.4957669,-0.3487307,0.8736222,-22.09761,-17.5225,-27.21345
16.453469277,-1.301785,12.1764,-1.503177,0.4721461,-0.3417859,0.8671647,-22.09761,-17.5225,-27.21345
16.463380814,1.547365,13.69096,-1.319088,0.4530042,-0.3191356,0.886699,-22.09761,-17.5225,-27.21345
16.473292351,0.0608516599999998,12.87543,-0.644096300000003,0.4288093,-0.295168,0.891884,-22.09761,-17.5225,-27.21345
16.483204365,-3.097989,10.54535,-0.582733500000001,0.4200036,-0.2972318,0.8890707,-22.07902,-18.95845,-27.20903
16.493116379,-5.637449,9.43856100000003,-0.1531931,0.4270169,-0.3092538,0.8913266,-22.07902,-18.95845,-27.20903
16.503027916,-5.265821,9.72982099999999,-0.1531931,0.4147593,-0.3191805,0.8764889,-22.07902,-18.95845,-27.20903
16.515417576,-1.549538,10.19584,-0.09183015,0.4063921,-0.3285814,0.8601783,-22.07902,-18.95845,-27.20903
16.52532959,0.927984400000002,10.66185,-0.03046724,0.4126209,-0.3129585,0.8659866,-21.34585,-17.89886,-27.6659
16.535241604,0.0608516599999998,10.95311,0.3990731,0.4142459,-0.3138334,0.8803705,-21.34585,-17.89886,-27.6659
16.545153141,-0.9301572,10.72011,1.012702,0.4183808,-0.3263513,0.8874512,-21.34585,-17.89886,-27.6659
16.555065155,1.423489,11.53563,1.626331,0.4325507,-0.3330081,0.878633,-21.34585,-17.89886,-27.6659
16.564976692,4.89202,13.10844,1.994509,0.4288918,-0.3214666,0.8691406,-21.34585,-17.89886,-27.6659
16.574888706,6.93597599999999,14.21522,3.28313,0.4249773,-0.3088341,0.8836656,-20.97458,-17.90223,-28.50303
16.584800243,6.93597599999999,13.92396,3.835396,0.4349574,-0.2964119,0.9177474,-20.97458,-17.90223,-28.50303
16.594712257,4.953958,14.09872,4.878565,0.4248373,-0.2906098,0.9390066,-20.97458,-17.90223,-28.50303
16.604624271,5.573338,15.72977,5.73764600000002,0.4283235,-0.3095583,0.9230029,-20.97458,-17.90223,-28.50303
16.614536285,10.15675,18.1181,6.10582399999999,0.4196844,-0.3069057,0.894291,-20.97458,-17.90223,-28.50303
16.624447346,11.39551,18.64237,6.596727,0.411469,-0.3162276,0.8928643,-21.34746,-17.90069,-28.11561
16.63435936,9.22768300000001,18.58412,7.39444499999999,0.4156167,-0.333129,0.8960745,-21.34746,-17.90069,-28.11561
16.644271374,8.36055000000001,19.10839,7.578534,0.4073493,-0.3327219,0.9009553,-21.34746,-17.90069,-28.11561
16.654183388,9.78512499999999,19.98217,7.21035599999999,0.3991446,-0.3164329,0.8828936,-21.34746,-17.90069,-28.11561
16.664094448,11.7052,20.15692,7.08763000000002,0.3893726,-0.2880194,0.8692487,-21.34746,-17.90069,-28.11561
16.674006462,12.57234,19.16664,7.21035599999999,0.3800553,-0.2910767,0.8630725,-20.22282,-18.2786,-28.95548
16.683918476,13.25366,17.76859,7.27171900000003,0.3793963,-0.28922,0.8486862,-20.22282,-18.2786,-28.95548
16.69383049,14.12079,17.18607,6.90354199999998,0.374611,-0.2714265,0.8320434,-20.22282,-18.2786,-28.95548
16.70374155,14.36854,16.89481,6.41263799999999,0.3661213,-0.2594277,0.8288407,-20.22282,-18.2786,-28.95548
16.713653564,13.37753,16.02103,6.22854899999998,0.3576664,-0.2503377,0.8256184,-20.22282,-18.2786,-28.95548
16.723565578,12.20071,14.15697,6.28991200000003,0.3463334,-0.2393043,0.8301182,-19.4743,-18.27854,-28.95937
16.733477592,9.97093999999998,11.88514,6.41263799999999,0.3462519,-0.2242247,0.8398225,-19.4743,-18.27854,-28.95937
16.74338913,8.11279800000001,9.55506599999997,6.16718700000003,0.3357965,-0.2093288,0.8390582,-19.4743,-18.27854,-28.95937
16.753300667,7.865046,7.574499,5.430832,0.3258541,-0.2075849,0.8252371,-19.4743,-18.27854,-28.95937
16.763212681,8.29861200000002,6.1182,4.817203,0.3277873,-0.200743,0.8310267,-19.4743,-18.27854,-28.95937
16.773124695,7.80310800000002,4.60365,3.774033,0.3271925,-0.1964139,0.8257793,-19.47915,-17.90394,-28.96052
16.783036232,5.573338,2.623082,2.914952,0.3316675,-0.2026616,0.8256963,-19.47915,-17.90394,-28.96052
16.792948246,3.095816,1.225035,1.871783,0.3336603,-0.1962764,0.8367641,-19.47915,-17.90394,-28.96052
16.805337906,1.05186,-0.580775400000001,1.012702,0.3385707,-0.1947409,0.8405702,-19.47915,-17.90394,-28.96052
16.815249443,-0.001086392,-2.21183,0.951339199999998,0.3445773,-0.2043511,0.8428514,-19.47915,-17.90394,-28.96052
16.825161457,-0.3107767,-3.260366,0.828613499999998,0.3517072,-0.2158247,0.8571137,-19.10005,-18.27851,-28.96132
16.835073471,0.43248,-4.075893,0.5217989,0.35281,-0.2118451,0.8739356,-19.10005,-18.27851,-28.96132
16.844985008,0.1847278,-4.600161,0.0922585699999997,0.361546,-0.206403,0.8738911,-19.10005,-18.27851,-28.96132
16.854896545,-0.744343000000003,-5.066176,-0.705459200000001,0.3556038,-0.197247,0.8773682,-19.10005,-18.27851,-28.96132
16.864808559,-2.974113,-5.93995599999998,-1.441814,0.3497165,-0.1939161,0.8793654,-19.10005,-18.27851,-28.96132
16.874720573,-5.82326300000003,-7.04674300000001,-1.932717,0.3555152,-0.1890004,0.8783842,-19.10005,-18.27851,-28.96132
16.884632587,-7.309776,-7.51275900000002,-2.362258,0.3609453,-0.1908575,0.8812025,-19.10005,-18.27851,-28.96132
16.894543648,-7.929157,-7.62926299999999,-2.791798,0.3604488,-0.1894041,0.8821771,-19.10005,-18.27851,-28.96132
16.904455662,-8.053034,-7.80401899999998,-2.914524,0.3571052,-0.2001375,0.877335,-19.10005,-18.27851,-28.96132
16.914367676,-7.557528,-8.03702600000001,-2.791798,0.355501,-0.2287595,0.8781195,-19.10005,-18.27851,-28.96132
16.92427969,-6.50458200000001,-8.38653900000002,-2.546346,0.3548595,-0.2490846,0.887113,-19.85341,-17.90397,-28.95858
16.93419075,-6.00907800000001,-8.32828599999997,-2.791798,0.3737176,-0.2579757,0.9036849,-19.85341,-17.90397,-28.95858
16.944102764,-6.69039600000003,-7.57101099999998,-2.607709,0.3772648,-0.2593315,0.9142066,-19.85341,-17.90397,-28.95858
16.954014778,-8.176909,-6.988491,-2.546346,0.3776361,-0.2593866,0.902679,-19.85341,-17.90397,-28.95858
16.963926792,-10.34474,-7.221499,-2.484983,0.3800084,-0.2681742,0.8853127,-19.85341,-17.90397,-28.95858
16.973838329,-11.27381,-7.16324699999999,-1.99408,0.3933979,-0.2888869,0.879289,-19.84856,-18.27857,-28.95742
16.983749866,-10.71637,-6.52247499999999,-1.748629,0.3969643,-0.3034035,0.8762784,-19.84856,-18.27857,-28.95742
16.99366188,-9.41567000000003,-6.23121499999997,-1.625903,0.400433,-0.2994342,0.8853958,-19.84856,-18.27857,-28.95742
17.003573895,-8.73435200000001,-5.93995599999998,-1.809992,0.3910831,-0.2927523,0.8874474,-19.84856,-18.27857,-28.95742
17.013485432,-8.42466199999997,-6.34771999999997,-2.300895,0.3870431,-0.2865266,0.8822445,-19.84856,-18.27857,-28.95742
17.023397446,-8.300786,-7.221499,-2.853161,0.3884447,-0.2884935,0.8735756,-19.84856,-18.27857,-28.95742
17.03330946,-8.42466199999997,-7.862271,-3.405427,0.3916593,-0.2714857,0.873179,-19.84856,-18.27857,-28.95742
17.043220997,-7.74334299999998,-8.095279,-4.080419,0.3933881,-0.2627988,0.8612169,-19.84856,-18.27857,-28.95742
17.053132534,-6.93814800000003,-7.62926299999999,-4.325871,0.3898049,-0.2497545,0.8608568,-19.84856,-18.27857,-28.95742
17.063044548,-5.88520100000001,-6.93023899999998,-4.019056,0.392202,-0.2453584,0.8613441,-19.84856,-18.27857,-28.95742
17.072956562,-4.832254,-5.998208,-3.650879,0.3867221,-0.2376737,0.8604856,-20.58173,-19.33815,-28.50055
17.085346222,-5.389697,-5.066176,-4.264508,0.3801384,-0.2434768,0.879234,-20.58173,-19.33815,-28.50055
17.095257759,-7.43365200000003,-5.590444,-4.9395,0.3736584,-0.2604455,0.8950261,-20.58173,-19.33815,-28.50055
17.105169773,-8.67241400000003,-6.58072700000001,-4.694048,0.380938,-0.2525773,0.8988525,-20.58173,-19.33815,-28.50055
17.115081787,-8.92016599999997,-7.221499,-4.019056,0.3859901,-0.2695048,0.8948517,-20.58173,-19.33815,-28.50055
17.124993801,-8.053034,-7.862271,-3.528153,0.3900435,-0.2884064,0.8865256,-20.9732,-17.90066,-28.11756
17.134904861,-7.12396199999998,-7.62926299999999,-3.650879,0.3888632,-0.2821825,0.8740939,-20.9732,-17.90066,-28.11756
17.144816875,-6.93814800000003,-6.69723099999998,-4.080419,0.3893401,-0.2890119,0.864921,-20.9732,-17.90066,-28.11756
17.15472889,-6.69039600000003,-5.82345200000001,-4.755411,0.3844141,-0.2900677,0.8601579,-20.9732,-17.90066,-28.11756
17.164640904,-5.76132499999998,-5.532192,-5.430403,0.3767548,-0.3066657,0.8567571,-20.9732,-17.90066,-28.11756
17.174551964,-3.903184,-5.590444,-6.35084600000001,0.3667491,-0.3178772,0.869259,-20.60193,-17.90403,-28.95469
17.184463978,-2.850237,-5.590444,-7.27128999999997,0.3532968,-0.2923191,0.8748355,-20.60193,-17.90403,-28.95469
17.194375992,-2.912175,-6.05646000000001,-7.70083,0.3315531,-0.280025,0.8669558,-20.60193,-17.90403,-28.95469
17.204288006,-3.283803,-8.27003499999999,-7.946282,0.3175422,-0.2986513,0.8616795,-20.60193,-17.90403,-28.95469
17.214199066,-3.345741,-11.12438,-8.06900800000002,0.3205256,-0.3020033,0.8625899,-20.60193,-17.90403,-28.95469
17.22411108,-4.274812,-13.33796,-8.37582199999997,0.3119469,-0.2895631,0.8512283,-20.97458,-17.90223,-28.50303
17.234023094,-6.69039600000003,-15.49328,-9.23490300000001,0.3211538,-0.279734,0.8545697,-20.97458,-17.90223,-28.50303
17.243935108,-8.42466199999997,-16.77482,-10.15535,0.3156468,-0.2759658,0.8464832,-20.97458,-17.90223,-28.50303
17.253846645,-7.24783800000001,-18.52238,-10.76898,0.2981804,-0.284408,0.8499495,-20.97458,-17.90223,-28.50303
17.263758659,-5.451635,-22.83302,-11.75078,0.2709568,-0.2751608,0.8286558,-20.97458,-17.90223,-28.50303
17.273670197,-4.956131,-30.11452,-12.67123,0.2600593,-0.2724417,0.8182112,-20.5852,-18.96199,-28.11624
17.283582211,-3.469617,-37.39602,-13.22349,0.2599271,-0.2617788,0.8178033,-20.5852,-18.96199,-28.11624
17.293493748,-0.4965908,-41.82316,-14.38939,0.2674278,-0.2542833,0.842752,-20.5852,-18.96199,-28.11624
17.303405762,-0.2488386,-44.79401,-15.67801,0.2709509,-0.2271195,0.8366584,-20.5852,-18.96199,-28.11624
17.313317776,-3.097989,-48.58039,-16.353,0.2608544,-0.2108216,0.8248563,-20.5852,-18.96199,-28.11624
17.32322979,-4.460626,-52.48327,-18.5007,0.2590774,-0.2200213,0.8315337,-21.33454,-18.64622,-27.21388
17.33314085,-7.18590000000003,-57.14343,-20.64841,0.2537,-0.2200881,0.831583,-21.33454,-18.64622,-27.21388
17.343052864,-11.64544,-62.2113499999998,-23.59382,0.265044,-0.249892,0.853847,-21.33454,-18.64622,-27.21388
17.352964878,-13.81327,-64.8909499999997,-26.1097,0.2849548,-0.2467851,0.8440804,-21.33454,-18.64622,-27.21388
17.365354538,-15.36172,-68.0365500000001,-29.30058,0.3161183,-0.285237,0.8339329,-23.20445,-18.64481,-26.81868
17.375266075,-14.9901,-71.4151599999998,-32.0619,0.3452428,-0.3415571,0.8424113,-23.20445,-18.64481,-26.81868
17.385178089,-14.06102,-72.7549599999998,-35.13005,0.4160004,-0.4168318,0.8354936,-23.20445,-18.64481,-26.81868
17.395090103,-12.69839,-70.5413800000001,-35.68232,0.4472629,-0.392802,0.8127971,-23.20445,-18.64481,-26.81868
17.405002117,-14.86622,-68.2695499999997,-35.31414,0.4770369,-0.3809969,0.7737075,-23.20445,-18.64481,-26.81868
17.414913178,-15.05203,-66.6384999999999,-34.27097,0.5148175,-0.3655838,0.7566553,-24.68801,-19.32646,-25.52389
17.424825192,-12.8842,-63.08513,-32.67553,0.5360238,-0.349377,0.7455235,-24.68801,-19.32646,-25.52389
17.434737206,-7.309776,-58.8327400000001,-31.75509,0.5368069,-0.3521447,0.7709462,-24.68801,-19.32646,-25.52389
17.44464922,-0.4346527,-52.89104,-30.71192,0.5140141,-0.2647866,0.7486914,-24.68801,-19.32646,-25.52389
17.45456028,2.97194,-49.62893,-30.89601,0.4665311,-0.216149,0.70528,-24.68801,-19.32646,-25.52389
17.464472294,5.015896,-51.14348,-31.69373,0.4105567,-0.1599039,0.6533549,-26.86012,-19.69416,-23.77678
17.474384308,-1.4876,-57.4929400000001,-31.75509,0.441871,-0.09731046,0.6808513,-26.86012,-19.69416,-23.77678
17.484296322,-11.02606,-62.2113499999998,-31.69373,0.4912872,-0.1398421,0.6815515,-26.86012,-19.69416,-23.77678
17.494207859,-13.44164,-62.38611,-34.57779,0.5200599,-0.1861014,0.6675328,-26.86012,-19.69416,-23.77678
17.504119396,-15.91917,-67.0462599999998,-34.02552,0.5144593,0.04612395,0.5841437,-26.86012,-19.69416,-23.77678
17.51403141,-16.29079,-79.68694,-35.86641,0.6214767,-0.04303475,0.7112423,-28.72034,-20.44194,-23.37927
17.523943424,-16.66242,-80.4442100000001,-39.18,0.7432365,-0.1424636,0.7857991,-28.72034,-20.44194,-23.37927
17.533854962,-7.24783800000001,-67.5122800000001,-40.95953,0.6591558,-0.2659453,0.6436272,-28.72034,-20.44194,-23.37927
17.543766976,-6.814272,-63.7258999999997,-41.57315,0.5279328,-0.1615963,0.6056828,-28.72034,-20.44194,-23.37927
17.553678989,-20.06902,-66.5802499999997,-44.39585,0.493415,-0.1602249,0.5791223,-28.72034,-20.44194,-23.37927
17.563590526,-24.96212,-63.08513,-48.62989,0.5100459,-0.07491351,0.4412513,-30.95807,-20.43323,-21.18327
17.573502064,-23.66142,-62.2695999999999,-53.10938,0.5689161,-0.157492,0.3633314,-30.95807,-20.43323,-21.18327
17.583414078,-17.40568,-68.44431,-50.1026,0.5819209,-0.04109216,0.4326492,-30.95807,-20.43323,-21.18327
17.593326092,-11.21187,-78.17239,-44.76403,0.7257542,-0.3133534,0.5975606,-30.95807,-20.43323,-21.18327
17.603238106,8.29861200000002,-75.4345500000001,-41.02089,0.7478803,-0.4066548,0.6908454,-30.95807,-20.43323,-21.18327
17.613149166,10.96195,-69.95886,-41.63452,0.6683736,-0.3148867,0.6268905,-32.06493,-21.55554,-20.78851
17.62306118,-1.921166,-75.5510600000002,-42.06406,0.6206362,-0.2463903,0.4866218,-32.06493,-21.55554,-20.78851
17.632973194,-13.93715,-86.0946599999999,-42.73905,0.7079497,-0.3819804,0.4023238,-32.06493,-21.55554,-20.78851
17.645363331,-5.88520100000001,-84.5218599999997,-39.73227,0.7232729,-0.3834163,0.3690416,-32.06493,-21.55554,-20.78851
17.655274391,12.94397,-77.64812,-37.89138,0.7344711,-0.4037883,0.340473,-32.06493,-21.55554,-20.78851
17.665186405,39.88702,-70.4831299999999,-35.98913,0.757444,-0.353997,0.3501954,-33.90763,-23.04361,-18.20437
17.675098419,56.05285,-64.0754199999997,-36.29595,0.7915144,-0.2663328,0.437373,-33.90763,-23.04361,-18.20437
17.685010433,49.30161,-61.7453400000002,-31.63236,0.7608709,-0.2041956,0.5259392,-33.90763,-23.04361,-18.20437
17.694921493,34.68422,-65.2987100000002,-27.15287,0.6842245,-0.1146374,0.3092529,-33.90763,-23.04361,-18.20437
17.704833507,27.43747,-80.0364500000003,-30.09829,0.7268599,-0.1764762,0.4366489,-33.90763,-23.04361,-18.20437
17.714745521,17.21769,-87.08494,-31.01874,0.8149972,-0.2045777,0.4154799,-35.01797,-23.40967,-16.07731
17.724657535,9.84706299999998,-89.0655099999997,-29.17785,0.8258545,-0.2068298,0.4225669,-35.01797,-23.40967,-16.07731
17.734568596,13.50141,-88.3082400000002,-27.95059,0.7825096,-0.2433826,0.3967957,-35.01797,-23.40967,-16.07731
17.74448061,32.88802,-85.6286400000002,-27.70514,0.7412831,-0.1574048,0.3396506,-35.01797,-23.40967,-16.07731
17.754392624,45.52338,-86.5024199999998,-29.23921,0.6688504,0.0243154,0.30792,-35.01797,-23.40967,-16.07731
17.764304638,38.21469,-95.1237100000003,-33.16644,0.6581441,0.1661409,0.2883171,-36.84291,-26.01787,-12.59029
17.774216652,13.8111,-101.1237,-39.73227,0.6973805,0.2918105,0.3992278,-36.84291,-26.01787,-12.59029
17.784128189,-12.57451,-94.5994399999997,-47.40263,0.7893854,0.2725245,0.4793952,-36.84291,-26.01787,-12.59029
17.794039726,-15.11397,-71.7646700000001,-50.40942,0.9571606,0.2061333,0.5499052,-36.84291,-26.01787,-12.59029
17.80395174,10.46644,-43.39597,-46.05265,1.118494,0.1501104,0.6719207,-36.84291,-26.01787,-12.59029
17.813863754,36.41849,-30.81354,-42.67769,1.197465,0.03050676,0.6987229,-37.57624,-26.38076,-9.694236
17.823775291,44.4085,-30.75529,-38.75046,1.240267,0.05311839,0.6552635,-37.57624,-26.38076,-9.694236
17.833687305,27.99491,-34.30866,-34.08688,1.340484,0.128013,0.6452324,-37.57624,-26.38076,-9.694236
17.843598843,-0.1869005,-39.20182,-29.97557,1.563901,0.1012836,0.6569127,-37.57624,-26.38076,-9.694236
17.853510857,-16.91018,-31.92033,-25.86425,1.920234,0.005223738,0.8171914,-37.57624,-26.38076,-9.694236
17.863422394,-12.14094,-7.862271,-23.10292,2.187838,-0.07889172,0.9697274,-37.91681,-28.62313,-8.400475
17.873334408,4.024887,21.55497,-21.8143,2.130568,-0.01647369,0.9893991,-37.91681,-28.62313,-8.400475
17.883246422,6.93597599999999,37.69077,-17.82571,1.73341,0.1250543,0.9066262,-37.91681,-28.62313,-8.400475
17.893158436,-8.98210400000001,36.40922,-13.28485,1.293646,0.234308,0.7798578,-37.91681,-28.62313,-8.400475
17.903069496,-39.82725,21.67147,-10.09398,1.00141,0.2672987,0.6449747,-37.91681,-28.62313,-8.400475
17.91298151,-76.55652,1.574547,-7.88491900000001,0.8643275,0.2325627,0.5403763,-37.53771,-28.9977,-8.401266
17.925371647,-104.4286,-13.2797,-6.90311299999998,0.8709214,0.09570137,0.4985901,-37.53771,-28.9977,-8.401266
17.935283661,-100.4027,-11.24088,-7.57810399999998,0.9194211,-0.03509452,0.4972702,-37.53771,-28.9977,-8.401266
17.945194721,-85.1659099999998,-3.027358,-7.82355600000003,0.9250521,-0.1212285,0.5163308,-37.53771,-28.9977,-8.401266
17.955106735,-76.3087699999998,-0.5225234,-8.06900800000002,0.9193602,-0.151694,0.5454701,-37.53771,-28.9977,-8.401266
17.965018749,-81.8831900000003,-5.007925,-8.92808800000003,0.9080018,-0.1609132,0.5714422,-37.17103,-29.0063,-10.52328
17.974930763,-91.9791000000002,-12.81369,-11.19852,0.8972142,-0.2020395,0.5203713,-37.17103,-29.0063,-10.52328
17.984841824,-96.3147599999998,-20.21169,-14.14394,0.8988386,-0.2560855,0.4724605,-37.17103,-29.0063,-10.52328
17.994753838,-93.7753000000001,-23.93981,-15.61665,0.9203873,-0.2828759,0.396698,-37.17103,-29.0063,-10.52328
18.004665852,-84.6084700000002,-24.40583,-15.67801,0.9436085,-0.2917403,0.3143171,-37.17103,-29.0063,-10.52328
18.014577866,-65.9031800000002,-22.134,-14.57348,0.9651019,-0.2836857,0.226303,-36.81244,-28.26387,-12.1979
18.024488926,-36.29678,-18.40588,-13.89848,0.9825413,-0.2699004,0.1311622,-36.81244,-28.26387,-12.1979
18.03440094,1.05186,-10.2506,-12.73259,1.015359,-0.2465426,0.06859376,-36.81244,-28.26387,-12.1979
18.044312954,31.77314,2.739586,-10.21671,1.01617,-0.1912555,0.06943473,-36.81244,-28.26387,-12.1979
18.054224968,45.46144,15.55502,-10.58489,0.9749015,-0.165282,0.1285688,-36.81244,-28.26387,-12.1979
18.064136505,44.53238,22.54525,-14.2053,0.9235196,-0.1720394,0.1645306,-36.07176,-27.89262,-13.03813
18.074048042,41.86904,21.84623,-16.29164,0.8886746,-0.1513172,0.2240504,-36.07176,-27.89262,-13.03813
18.083960056,43.1078,15.78803,-16.8439,0.8340924,-0.04313678,0.2732917,-36.07176,-27.89262,-13.03813
18.09387207,44.78012,7.28324000000001,-17.27345,0.8112841,0.06933962,0.3265892,-36.07176,-27.89262,-13.03813
18.103783608,44.03687,-2.79435,-16.10755,0.8059011,0.1619441,0.3392599,-36.07176,-27.89262,-13.03813
18.113695622,41.93098,-8.73605099999999,-16.47573,0.8079826,0.2015374,0.3025322,-36.44441,-27.89081,-12.58647
18.123607636,39.45345,-11.76515,-18.74615,0.8212401,0.2361175,0.3007193,-36.44441,-27.89081,-12.58647
18.133519173,33.32159,-15.02726,-21.07795,0.8181143,0.2423222,0.2892658,-36.44441,-27.89081,-12.58647
18.14343071,22.54436,-20.03693,-23.59382,0.8223596,0.2491257,0.2820695,-36.44441,-27.89081,-12.58647
18.153342724,9.04186800000002,-25.80387,-26.1097,0.8394078,0.2590622,0.2872598,-36.44441,-27.89081,-12.58647
18.163254738,-4.708378,-30.28927,-26.84606,0.8528026,0.2461571,0.2908912,-36.42897,-28.63347,-10.97804
18.173166752,-17.15793,-33.72614,-28.50286,0.889333,0.2243519,0.2990509,-36.42897,-28.63347,-10.97804
18.183078766,-25.64344,-33.95915,-30.65056,0.9112309,0.223597,0.2877997,-36.42897,-28.63347,-10.97804
18.192989826,-30.04104,-32.32809,-32.0619,0.9205269,0.2061553,0.2679111,-36.42897,-28.63347,-10.97804
18.20290184,-30.66042,-31.68732,-31.93918,0.9057428,0.184936,0.2318946,-36.42897,-28.63347,-10.97804
18.215291977,-28.6784,-32.6776,-32.98235,0.8509955,0.1859616,0.1872728,-36.03856,-29.7554,-10.52682
18.225203037,-26.20088,-34.94943,-35.31414,0.8211668,0.1685138,0.1667856,-36.03856,-29.7554,-10.52682
18.235115051,-23.7853,-38.26979,-37.70729,0.7874055,0.1549086,0.1487612,-36.03856,-29.7554,-10.52682
18.245027065,-22.73235,-42.69694,-40.03909,0.7694908,0.1430667,0.1522091,-36.03856,-29.7554,-10.52682
18.254939079,-24.34274,-45.43478,-41.26634,0.7663167,0.1226655,0.1525827,-35.27736,-30.50113,-9.693221
18.264851093,-28.24484,-46.19206,-42.61633,0.7840716,0.0973598,0.1853809,-35.27736,-30.50113,-9.693221
18.274762154,-31.09399,-44.561,-42.4936,0.8131849,0.05518018,0.2093187,-35.27736,-30.50113,-9.693221
18.284674168,-29.66941,-40.0756,-39.42545,0.8235628,0.008297103,0.2127516,-35.27736,-30.50113,-9.693221
18.294586182,-23.28979,-37.92028,-35.55959,0.8158292,-0.03931074,0.2134663,-35.27736,-30.50113,-9.693221
18.304498196,-12.63645,-35.12419,-31.69373,0.7961429,-0.06864219,0.2144133,-34.88209,-31.99765,-9.240839
18.314409256,0.43248,-34.94943,-28.25741,0.7779552,-0.09403632,0.2230552,-34.88209,-31.99765,-9.240839
18.32432127,9.53737299999999,-37.74553,-23.83928,0.7778177,-0.08044938,0.2255478,-34.88209,-31.99765,-9.240839
18.334233284,8.23667399999998,-41.06589,-20.28023,0.7775229,-0.09011054,0.2331686,-34.88209,-31.99765,-9.240839
18.344145298,-2.602484,-44.61926,-17.82571,0.7905124,-0.06371427,0.2433077,-34.88209,-31.99765,-9.240839
18.354056835,-16.35273,-47.12409,-14.81893,0.8089164,-0.03869537,0.2553081,-33.74017,-33.11612,-7.958324
18.363968372,-29.23585,-48.98816,-12.60986,0.8404257,0.00838979,0.2836597,-33.74017,-33.11612,-7.958324
18.373880386,-39.64144,-50.91047,-11.19852,0.8894005,0.0590387,0.3027505,-33.74017,-33.11612,-7.958324
18.3837924,-44.03904,-51.14348,-9.11217699999998,0.9617731,0.09946046,0.3503663,-33.74017,-33.11612,-7.958324
18.393703938,-42.36671,-49.16291,-7.394016,1.027864,0.1452073,0.4115202,-33.74017,-33.11612,-7.958324
18.403615952,-41.25183,-45.9008,-6.596298,1.068401,0.1698423,0.4833331,-33.35994,-33.10929,-6.28991
18.413527966,-42.30478,-43.80373,-5.491766,1.107526,0.1966776,0.5153207,-33.35994,-33.10929,-6.28991
18.423439503,-46.70238,-42.23093,-4.632685,1.124901,0.2148285,0.5143206,-33.35994,-33.10929,-6.28991
18.433351517,-52.33874,-41.82316,-3.03725,1.132289,0.1954361,0.4968373,-33.35994,-33.10929,-6.28991
18.443263054,-57.7273500000001,-41.47365,-0.950910899999997,1.133384,0.15307,0.4586124,-33.35994,-33.10929,-6.28991
18.453175068,-61.8772000000003,-41.59016,1.503605,1.124669,0.08812657,0.3910383,-34.47626,-33.48215,-5.833205
18.463087082,-63.7972800000001,-41.93967,4.817203,1.107969,0.0247126,0.3571592,-34.47626,-33.48215,-5.833205
18.472999096,-63.8592199999998,-42.81345,9.72623500000002,1.052486,0.008291362,0.3157891,-34.47626,-33.48215,-5.833205
18.485388279,-67.3277499999999,-43.27946,13.16256,0.9738638,0.02930016,0.2551959,-34.47626,-33.48215,-5.833205
18.495300293,-75.5035699999997,-44.91052,15.86252,0.9036763,0.0602329,0.2181186,-34.47626,-33.48215,-5.833205
18.505212307,-85.3517199999997,-49.45417,18.68522,0.7840599,0.09441803,0.08548845,-34.10685,-33.10752,-5.836305
18.515123844,-92.4126599999998,-64.7161900000001,16.78297,0.6576394,0.1563172,-0.2965764,-34.10685,-33.10752,-5.836305
18.525035381,-106.8442,-107.7061,4.571751,0.8991902,0.311513,-0.4014906,-34.10685,-33.10752,-5.836305
18.534947395,-131.9291,-159.7834,-4.816774,1.498747,0.3527523,-0.06104679,-34.10685,-33.10752,-5.836305
18.544859409,-137.0081,-139.803,9.91032400000003,2.17907,-0.03075356,0.3622489,-34.10685,-33.10752,-5.836305
18.554771423,-68.3187599999999,-102.6382,21.38519,2.406489,-0.5546736,0.1343421,-34.86022,-32.73299,-5.833567
18.564682484,66.5823100000002,-46.71633,23.28744,2.405018,-0.9946332,0.2860357,-34.86022,-32.73299,-5.833567
18.574594498,179.9909,24.29281,11.9353,1.989136,-0.1161162,0.8138252,-34.86022,-32.73299,-5.833567
18.584506512,157.1357,57.6129399999999,0.1536215,1.285374,0.5380835,0.6628787,-34.86022,-32.73299,-5.833567
18.594418526,79.4035000000002,36.58398,-3.46679,0.6307335,0.5986527,0.1723727,-34.86022,-32.73299,-5.833567
18.604329586,4.830081,-10.42536,2.301323,0.2226494,0.4821663,-0.08583534,-37.11112,-31.59892,-3.255566
18.6142416,-84.23684,-51.78425,10.58532,0.03927729,0.5169195,-0.2361181,-37.11112,-31.59892,-3.255566
18.624153614,-175.038,-106.3081,17.33524,-0.1004255,0.0567129,-0.6652328,-37.11112,-31.59892,-3.255566
18.634065628,-223.2258,-144.2301,16.47615,0.1910677,-0.2449396,-0.7265969,-37.11112,-31.59892,-3.255566
18.643977165,-182.037,-146.6184,8.37625100000002,0.7121698,-0.4050613,-0.881332,-37.11112,-31.59892,-3.255566
18.653888702,-45.89718,-122.1526,1.442243,1.093076,-0.3724836,-0.8443043,-35.98536,-31.59543,-2.426224
18.663800716,83.98691,-95.9392399999997,4.387662,1.282078,-0.2280228,-0.5550743,-35.98536,-31.59543,-2.426224
18.67371273,113.4694,-67.3957700000001,10.33986,1.365098,-0.159923,-0.05698415,-35.98536,-31.59543,-2.426224
18.683624744,55.68122,-39.14357,10.7694,1.320912,-0.1678489,0.2977284,-35.98536,-31.59543,-2.426224
18.693536282,-14.6804,-24.75534,8.62170300000002,1.281198,-0.207887,0.5263843,-35.98536,-31.59543,-2.426224
18.703448296,-50.10897,-21.37673,9.97168700000001,1.253358,-0.3284419,0.6266719,-36.73439,-30.83584,0.1451454
18.713359833,-59.2757999999997,-30.58053,2.853589,1.086088,-0.2437565,0.4362396,-36.73439,-30.83584,0.1451454
18.723271847,-58.7802999999998,-41.00764,1.012702,0.9609172,-0.1248788,0.09967757,-36.73439,-30.83584,0.1451454
18.733183384,-49.61346,-47.88137,-0.2759189,0.862501,-0.1018161,-0.1719885,-36.73439,-30.83584,0.1451454
18.743095398,-34.06701,-53.24055,-1.380451,0.7826118,-0.06196324,-0.4293092,-36.73439,-30.83584,0.1451454
18.753007412,-30.47461,-62.56086,-2.669072,0.7220767,-0.05171015,-0.5506413,-36.72655,-31.20704,0.9814796
18.765397072,-43.17191,-77.5316200000002,-3.282701,0.779533,-0.0801331,-0.5600049,-36.72655,-31.20704,0.9814796
18.775308609,-45.95912,-81.7257599999999,-2.975887,0.9317542,-0.1108226,-0.4862323,-36.72655,-31.20704,0.9814796
18.785220623,-34.99608,-73.1044700000001,-1.503177,1.064151,-0.1245742,-0.3708699,-36.72655,-31.20704,0.9814796
18.795132637,-0.5585288,-48.46389,3.221767,1.084336,-0.01377673,-0.3707986,-36.72655,-31.20704,0.9814796
18.805044174,0.618294100000002,-41.99792,-1.441814,1.021041,0.03020636,-0.245079,-37.84797,-30.82548,2.72077
18.814955711,-9.72536099999999,-37.33776,-0.4600076,0.9673809,0.0756915,-0.2269941,-37.84797,-30.82548,2.72077
18.824867725,-19.26382,-38.5028,-0.3986447,0.9128942,0.1002674,-0.2186439,-37.84797,-30.82548,2.72077
18.834779739,-29.60748,-42.9882,-0.03046724,0.8967088,0.08345413,-0.2430943,-37.84797,-30.82548,2.72077
18.844691753,-33.63345,-45.66779,-0.214556,0.9170144,0.04237597,-0.2661232,-37.84797,-30.82548,2.72077
18.854603767,-32.02306,-46.54157,-1.073637,0.9481829,-0.006804986,-0.2883462,-37.47397,-30.44562,4.002563
18.864514828,-26.26282,-46.13381,-3.03725,0.9604206,-0.05225015,-0.2926034,-37.47397,-30.44562,4.002563
18.874426842,-18.52057,-42.9882,-4.755411,0.9841662,-0.09985733,-0.2739339,-37.47397,-30.44562,4.002563
18.884338856,-13.93715,-41.64841,-8.25309699999997,0.9852766,-0.1234303,-0.2409702,-37.47397,-30.44562,4.002563
18.89425087,-6.07101500000003,-35.99797,-8.06900800000002,0.9910098,-0.1229389,-0.2535041,-37.47397,-30.44562,4.002563
18.90416193,-0.992095199999997,-33.84264,-9.35762899999997,0.976249,-0.1114631,-0.2489697,-37.46937,-30.4404,5.287455
18.914073944,1.609303,-33.26012,-10.03262,0.9713074,-0.1066733,-0.2484119,-37.46937,-30.4404,5.287455
18.923985958,3.467444,-33.55138,-10.27807,0.9719784,-0.08633302,-0.2545247,-37.46937,-30.4404,5.287455
18.933897972,1.918993,-36.52224,-11.56669,0.9511276,-0.05455862,-0.2478781,-37.46937,-30.4404,5.287455
18.943809032,4.396515,-34.19216,-8.62127400000002,0.9749605,-0.07553943,-0.2371947,-37.46937,-30.4404,5.287455
18.953721046,5.387524,-35.70671,-8.98945100000001,0.964317,-0.0536637,-0.2004585,-37.08728,-30.81156,6.121843
18.96363306,3.529382,-36.28923,-8.74399900000002,0.9769467,-0.03354777,-0.1850762,-37.08728,-30.81156,6.121843
18.973545074,0.927984400000002,-36.40573,-8.31446000000002,0.9784947,-0.02177987,-0.163405,-37.08728,-30.81156,6.121843
18.983456612,-2.045042,-36.46398,-8.06900800000002,0.9660981,-0.003973969,-0.1593305,-37.08728,-30.81156,6.121843
18.993368626,-5.575511,-37.51252,-8.43718500000001,0.9648791,0.01003466,-0.1664282,-37.08728,-30.81156,6.121843
19.003280163,-12.45063,-43.68723,-11.44397,0.9100539,0.1178314,-0.2842823,-37.45533,-30.80453,7.858395
19.013192177,-14.43265,-39.43483,-9.78716900000001,0.9816665,0.007888504,-0.1531534,-37.45533,-30.80453,7.858395
19.023104191,-10.71637,-38.73581,-9.41899200000002,0.9691926,0.02443025,-0.2057452,-37.45533,-30.80453,7.858395
19.033015728,-12.26482,-38.32804,-10.21671,0.9760949,0.02747243,-0.1966658,-37.45533,-30.80453,7.858395
19.042927742,-16.22886,-36.23098,-9.48035400000003,0.9691226,0.03317435,-0.2023252,-37.45533,-30.80453,7.858395
19.055317402,-21.92716,-32.21159,-8.98945100000001,0.9490196,0.04874362,-0.2370871,-37.06055,-31.92149,9.530268
19.065229416,-24.65243,-30.93005,-10.46216,0.9466017,0.05238111,-0.2778539,-37.06055,-31.92149,9.530268
19.075140953,-26.01507,-30.58053,-12.42577,0.943154,0.05500374,-0.3248601,-37.06055,-31.92149,9.530268
19.085052967,-25.51956,-27.9592,-11.3826,0.9142492,0.1004581,-0.3723058,-37.06055,-31.92149,9.530268
19.094964504,-42.80028,-43.10471,-20.34159,0.8806164,0.09960274,-0.3628775,-37.06055,-31.92149,9.530268
19.104876518,-39.5795,-35.93972,-17.45753,0.9450766,0.04086457,-0.3446586,-36.68655,-31.54164,10.81206
19.114788055,-35.6774,-38.5028,-16.96663,0.9621235,0.003483082,-0.3950017,-36.68655,-31.54164,10.81206
19.124700069,-26.26282,-31.39606,-12.85531,0.9648995,0.05318506,-0.4475137,-36.68655,-31.54164,10.81206
19.134612083,-25.27181,-32.21159,-14.2053,0.9666559,0.04213458,-0.4322385,-36.68655,-31.54164,10.81206
19.144523621,-25.39569,-29.88151,-14.63484,0.9725054,0.04610108,-0.4293852,-36.68655,-31.54164,10.81206
19.154435158,-26.01507,-29.88151,-17.58026,1.007336,0.02854649,-0.4389473,-36.29613,-32.66356,11.26329
19.164347172,-22.29879,-25.51262,-14.38939,1.04651,0.0180951,-0.3980856,-36.29613,-32.66356,11.26329
19.174259186,-21.12196,-22.30876,-15.98482,1.02371,0.00790578,-0.344645,-36.29613,-32.66356,11.26329
19.1841712,-22.73235,-20.32819,-17.08936,1.012022,-0.01343169,-0.3173101,-36.29613,-32.66356,11.26329
19.194083214,-27.31577,-23.35729,-20.40295,0.9852566,0.03067925,-0.3484591,-36.29613,-32.66356,11.26329
19.203994274,-26.13894,-18.05636,-18.74615,1.041655,-0.04046711,-0.2726294,-35.54139,-33.03653,11.64602
19.213906288,-23.10398,-17.7651,-21.07795,1.021321,-0.04988736,-0.2638612,-35.54139,-33.03653,11.64602
19.223818302,-22.17491,-17.5321,-23.71655,1.013389,-0.06930587,-0.2495125,-35.54139,-33.03653,11.64602
19.233730316,-23.53755,-18.75539,-27.58241,1.047687,-0.1534701,-0.2936046,-35.54139,-33.03653,11.64602
19.243641377,-21.06002,-26.91066,-29.66875,1.22875,-0.1750392,-0.4005775,-36.651,-34.16197,11.26985
19.253553391,-7.37171500000001,-28.36696,-28.74831,1.410599,-0.1754631,-0.3585677,-36.651,-34.16197,11.26985
19.263465405,0.5563561,-9.49332599999999,-24.02337,1.425675,-0.1548194,-0.2471729,-36.651,-34.16197,11.26985
19.273377419,-7.12396199999998,12.35116,-23.34837,1.348674,-0.1049222,-0.1635411,-36.651,-34.16197,11.26985
19.283288479,-11.89319,27.67143,-22.42793,1.308933,-0.08353725,-0.1515073,-36.651,-34.16197,11.26985
19.293200493,-10.34474,27.67143,-25.31199,1.217908,-0.02740416,-0.1406884,-35.52684,-34.16031,11.64948
19.303112507,1.299613,34.60341,-19.85069,1.234297,0.06706712,-0.1008376,-35.52684,-34.16031,11.64948
19.313024521,17.77513,41.71015,-23.53246,1.228447,0.09603175,-0.01752318,-35.52684,-34.16031,11.64948
19.322936535,27.8091,55.34111,-25.55744,1.207146,0.1339224,0.0477476,-35.52684,-34.16031,11.64948
19.335325718,26.88003,76.8943299999999,-30.46647,1.188256,0.1918344,0.2283675,-35.52684,-34.16031,11.64948
19.345237732,25.64127,107.8844,-35.31414,1.166561,0.2434181,0.22363,-36.25249,-36.03492,11.27367
19.355149746,23.03987,112.0203,-31.01874,1.056151,0.25011,0.002862581,-36.25249,-36.03492,11.27367
19.36506176,11.45745,91.8650900000001,-25.55744,0.9562139,0.2148558,-0.1040035,-36.25249,-36.03492,11.27367
19.37497282,-10.2828,75.9040499999999,-21.13931,1.012868,0.07408599,-0.08481845,-36.25249,-36.03492,11.27367
19.384884834,-33.076,78.0593700000002,-12.79395,1.083322,-0.05572353,-0.04216025,-36.25249,-36.03492,11.27367
19.394796848,-41.56152,87.7874500000002,-5.000863,1.081467,-0.1715448,-0.1202202,-37.0005,-36.79463,8.710089
19.404708862,-38.71237,90.5835399999997,0.951339199999998,1.044886,-0.21099,-0.2526683,-37.0005,-36.79463,8.710089
19.4146204,-33.26182,88.0204499999998,4.878565,1.035817,-0.2144147,-0.3303929,-37.0005,-36.79463,8.710089
19.424532414,-26.75833,86.09814,8.74442899999999,1.053204,-0.1404173,-0.4078464,-37.0005,-36.79463,8.710089
19.434443951,-17.59149,84.7583500000002,11.32167,1.074961,-0.08710787,-0.4648312,-37.0005,-36.79463,8.710089
19.444355965,-5.327759,84.9331099999999,12.30348,1.099963,-0.03506351,-0.4930451,-38.88234,-37.18689,4.416584
19.454267979,10.15675,87.3796800000001,14.20573,1.140879,-0.02585007,-0.4976835,-38.88234,-37.18689,4.416584
19.464179516,30.84406,92.6223599999997,17.45796,1.169663,-0.035518,-0.4677642,-38.88234,-37.18689,4.416584
19.47409153,55.30959,103.4572,21.07837,1.137897,-0.06711791,-0.4076611,-38.88234,-37.18689,4.416584
19.484003544,79.3415500000002,116.7387,20.64883,1.04801,-0.0674661,-0.3520941,-38.88234,-37.18689,4.416584
19.493915081,99.6572300000001,126.8163,19.85111,1.028218,-0.1875755,-0.3723977,-41.52402,-36.45176,1.022936
19.503826618,110.3725,128.4473,24.76015,1.002821,-0.1795861,-0.3601057,-41.52402,-36.45176,1.022936
19.513738632,107.5234,127.1658,29.301,1.038621,-0.107625,-0.313382,-41.52402,-36.45176,1.022936
19.523650646,93.95894,126.5833,29.23964,1.083944,-0.0854221,-0.2545938,-41.52402,-36.45176,1.022936
19.53356266,80.5803099999999,130.1949,28.74874,1.075417,-0.06124747,-0.2471515,-41.52402,-36.45176,1.022936
19.543473721,78.1647300000001,131.1852,27.52148,1.07286,-0.0637757,-0.2610693,-44.54667,-34.96408,-1.535895
19.553385734,83.6152799999998,127.69,29.23964,1.047243,-0.01956343,-0.2754228,-44.54667,-34.96408,-1.535895
19.563297748,89.3755199999999,118.0785,31.87824,1.009122,0.02459795,-0.2694942,-44.54667,-34.96408,-1.535895
19.573209762,90.8000900000001,108.5834,35.31457,0.976052,0.05231927,-0.2670831,-44.54667,-34.96408,-1.535895
19.583121776,88.1986900000002,98.3893099999999,38.87362,0.9668224,0.03613693,-0.2800698,-44.54667,-34.96408,-1.535895
19.593032837,84.2346600000002,88.7194800000001,41.57358,0.9568386,0.01030265,-0.2825504,-46.82518,-33.4813,-5.319266
19.602944851,81.1997,80.4476999999999,43.59856,0.9569028,-0.008688357,-0.2985227,-46.82518,-33.4813,-5.319266
19.615334988,78.1027899999999,72.9914499999997,45.86899,0.9686138,-0.02074906,-0.3150368,-46.82518,-33.4813,-5.319266
19.625247002,75.5014000000002,68.7390599999998,46.78943,0.9753995,-0.01288953,-0.311686,-46.82518,-33.4813,-5.319266
19.635158062,74.2626300000002,65.94296,47.95533,0.9785681,0.005069936,-0.315437,-46.82518,-33.4813,-5.319266
19.645070076,75.0678300000003,64.7779200000003,48.44623,0.959539,0.03240868,-0.3270828,-47.54636,-31.62067,-8.340965
19.65498209,76.7401599999999,64.2536499999997,48.99849,0.9378882,0.06084872,-0.3070066,-47.54636,-31.62067,-8.340965
19.664894104,77.9789200000002,63.7876400000002,49.30531,0.9084111,0.08089663,-0.2969973,-47.54636,-31.62067,-8.340965
19.674805164,78.5983000000001,61.6323199999999,48.87577,0.8868089,0.09619121,-0.2875726,-47.54636,-31.62067,-8.340965
19.684717178,77.8550400000002,58.5449699999997,48.50759,0.8671145,0.09270921,-0.2571637,-47.54636,-31.62067,-8.340965
19.694629192,76.8020899999999,55.74887,47.46442,0.8428444,0.08615423,-0.2473798,-50.19662,-29.75496,-10.06772
19.704541206,77.3595399999998,52.25376,46.97352,0.8377403,0.07061991,-0.2387932,-50.19662,-29.75496,-10.06772
19.714452743,80.4564400000002,50.04018,46.05307,0.826235,0.07742178,-0.2083915,-50.19662,-29.75496,-10.06772
19.724364281,85.16373,49.74892,44.519,0.8319705,0.05865046,-0.1956053,-50.19662,-29.75496,-10.06772
19.734276295,90.18072,48.29262,45.13263,0.8413954,0.04103645,-0.1554765,-50.19662,-29.75496,-10.06772
19.744188309,94.0208699999999,46.66157,44.519,0.8418169,0.04906066,-0.1050104,-50.60086,-27.88855,-11.67765
19.754100323,94.6402499999998,43.04995,43.47583,0.8357808,0.05402583,-0.06794928,-50.60086,-27.88855,-11.67765
19.76401186,92.7821100000002,37.05,40.53041,0.8262624,0.07306354,-0.02019876,-50.60086,-27.88855,-11.67765
19.773923874,90.6762199999998,29.24423,36.72591,0.8208508,0.08688591,0.04044331,-50.60086,-27.88855,-11.67765
19.783835411,90.8620299999998,22.07924,33.22823,0.8328798,0.1125517,0.09908235,-50.60086,-27.88855,-11.67765
19.793747425,89.0658299999999,17.30258,30.28281,0.8382124,0.1345463,0.1203065,-52.88334,-25.26996,-12.50923
19.803658962,81.4474500000003,14.04047,27.33739,0.819968,0.1527769,0.1268388,-52.88334,-25.26996,-12.50923
19.813570976,73.1477499999999,11.36088,24.63742,0.8136965,0.1598103,0.09573333,-52.88334,-25.26996,-12.50923
19.82348299,68.8740200000003,7.92401099999998,22.12154,0.8424158,0.158153,0.08105195,-52.88334,-25.26996,-12.50923
19.833395004,66.9539399999999,5.244421,21.50791,0.892592,0.1516177,0.1026316,-52.88334,-25.26996,-12.50923
19.843306541,64.8480500000001,6.64246800000002,22.8579,0.9773132,0.1108027,0.1625563,-53.27885,-23.39362,-11.67788
19.853218079,61.6272799999999,10.19584,25.18969,1.03979,0.0517863,0.2254464,-53.27885,-23.39362,-11.67788
19.863130093,65.15774,16.83656,29.48509,1.037035,0.02233449,0.2560058,-53.27885,-23.39362,-11.67788
19.873042107,74.5103799999999,22.60351,32.6146,0.9948706,0.01126557,0.2798498,-53.27885,-23.39362,-11.67788
19.882954121,85.2256700000002,28.37045,35.13048,0.8840545,0.03972444,0.3310007,-53.27885,-23.39362,-11.67788
19.895343304,84.1727199999999,27.84618,32.24642,0.7658118,0.04706777,0.3484685,-54.03384,-23.02091,-12.12485
19.905255318,64.3525500000002,21.67147,27.76693,0.7799533,0.03990829,0.3362861,-54.03384,-23.02091,-12.12485
19.915167332,36.54237,14.56473,23.10335,0.8414019,0.0340153,0.3611269,-54.03384,-23.02091,-12.12485
19.925079346,16.10281,10.13759,17.02842,0.9311618,-0.006421355,0.3883567,-54.03384,-23.02091,-12.12485
19.934990406,15.73118,9.90457699999998,11.62849,1.021183,-0.05379955,0.3852879,-54.03384,-23.02091,-12.12485
19.94490242,32.08282,14.85599,9.66487199999998,1.085406,-0.05827561,0.396188,-55.55164,-21.52422,-12.50715
19.954814434,45.77113,19.34139,10.83077,1.034785,-0.01489861,0.3743776,-55.55164,-21.52422,-12.50715
19.964726448,45.27563,15.55502,13.22392,0.9225829,0.0128392,0.2896518,-55.55164,-21.52422,-12.50715
19.974638462,38.83407,4.720153,15.49435,0.7887244,0.04023339,0.1907192,-55.55164,-21.52422,-12.50715
19.984549522,33.19771,-9.60983000000002,16.59888,0.6776947,0.03686489,0.08848951,-55.55164,-21.52422,-12.50715
19.994461536,31.09181,-24.9301,16.41479,0.590599,0.02353941,-0.02795238,-55.93235,-21.15149,-12.95607
20.00437355,31.71119,-39.49308,16.35343,0.5257826,-0.01424489,-0.1462037,-55.93235,-21.15149,-12.95607
20.014285564,35.73717,-55.86189,16.90569,0.4954956,-0.03290681,-0.21279,-55.93235,-21.15149,-12.95607
20.024196625,39.70121,-71.0073999999999,17.33524,0.5118114,-0.05042041,-0.2634741,-55.93235,-21.15149,-12.95607
20.034108639,42.48842,-83.8810800000003,17.45796,0.5517322,-0.05830152,-0.2898244,-55.93235,-21.15149,-12.95607
20.044020653,44.53238,-94.9489600000003,16.41479,0.5872813,-0.04208075,-0.3327792,-57.06669,-20.02439,-12.11851
20.053932667,42.79811,-117.376,9.35805800000003,0.629987,0.1489688,-0.7126668,-57.06669,-20.02439,-12.11851
20.063844681,22.29661,-171.0843,-15.8621,1.062217,0.4955559,-0.7388433,-57.06669,-20.02439,-12.11851
20.073755741,-24.52855,-222.6373,-27.39832,2.298696,0.6286015,-0.02675405,-57.06669,-20.02439,-12.11851
20.083667755,-41.74733,-187.8608,-9.72580600000002,3.227751,0.1562054,0.5151291,-57.06669,-20.02439,-12.11851
20.093579769,48.74416,-77.7063799999999,15.00345,3.400059,-0.9335843,0.8779179,-57.43679,-18.56259,-5.760771
20.103491783,150.4464,58.6614700000001,12.18075,2.342375,-0.5126781,1.750467,-57.43679,-18.56259,-5.760771
20.11340332,162.5244,125.127,-28.56422,0.9609674,0.3042209,1.131035,-57.43679,-18.56259,-5.760771
20.123315334,127.8391,75.14677,-40.40726,0.5619925,0.7086443,0.5117726,-57.43679,-18.56259,-5.760771
20.133226872,80.5183799999999,-33.02712,-37.27775,0.7494698,0.6571274,-0.2441528,-57.43679,-18.56259,-5.760771
20.143138886,36.17074,-117.4342,-29.79148,0.6681808,0.4806505,-0.7957984,-58.15779,-19.60831,-1.898931
20.1530509,-14.55653,-147.434,-0.3372818,0.8121757,0.1977418,-0.6275983,-58.15779,-19.60831,-1.898931
20.162962437,-53.08199,-112.9488,27.70557,0.5718668,-0.1631582,-0.7377365,-58.15779,-19.60831,-1.898931
20.175352097,-61.5055700000001,-81.3179899999998,25.4965,0.3412329,-0.2352622,-1.091881,-58.15779,-19.60831,-1.898931
20.185264111,-19.44963,-82.6577899999998,13.16256,0.4969966,-0.1690393,-1.131293,-58.88443,-20.34371,1.512235
20.195176125,36.04686,-81.4927500000001,4.571751,0.7880887,-0.03846546,-0.7734768,-58.88443,-20.34371,1.512235
20.205087662,40.81609,-71.2404099999998,-0.582733500000001,1.063865,0.03989841,-0.3491247,-58.88443,-20.34371,1.512235
20.214999676,-7.309776,-53.59006,-2.730435,1.106967,-0.07193273,-0.1394789,-58.88443,-20.34371,1.512235
20.224911213,-41.99508,-43.68723,2.055871,1.145602,-0.2619026,-0.02778442,-58.88443,-20.34371,1.512235
20.234823227,-20.93615,-29.18249,9.787598,1.215844,-0.3240176,0.07342586,-58.13182,-19.57877,5.360712
20.244734764,-17.96312,-31.51257,3.221767,1.10607,-0.2584399,0.1742707,-58.13182,-19.57877,5.360712
20.254646778,-30.10298,-38.3863,0.3377102,1.040979,-0.1612536,0.0919726,-58.13182,-19.57877,5.360712
20.264558792,-37.04004,-46.42507,-2.239532,0.9660176,-0.1205837,-0.1130511,-58.13182,-19.57877,5.360712
20.274470806,-34.12895,-52.13376,-4.571322,0.9161764,-0.08877426,-0.3106835,-58.13182,-19.57877,5.360712
20.284382343,-29.17391,-58.0754600000002,-6.71902399999997,0.9362888,-0.08142056,-0.3434713,-58.50335,-19.19558,7.481577
20.294293881,-23.84724,-59.6482599999998,-7.57810399999998,1.01038,-0.153036,-0.3071813,-58.50335,-19.19558,7.481577
20.304205895,-4.274812,-47.41535,-2.546346,1.084214,-0.1994192,-0.2663994,-58.50335,-19.19558,7.481577
20.314117909,9.41349700000002,-37.74553,-2.116806,1.042799,-0.1840051,-0.1862074,-58.50335,-19.19558,7.481577
20.324029923,12.32458,-30.52228,-1.748629,0.9969872,-0.1393847,-0.1667603,-58.50335,-19.19558,7.481577
20.333940983,10.28063,-27.78444,-2.055443,0.9607688,-0.05108449,-0.1619958,-57.7424,-19.56149,9.598909
20.343852997,3.28163,-27.37668,-3.159976,0.9298386,0.0245531,-0.1808924,-57.7424,-19.56149,9.598909
20.353765011,-5.947139,-27.26017,-5.246314,0.9090343,0.05171311,-0.2227729,-57.7424,-19.56149,9.598909
20.363677025,-15.05203,-26.91066,-7.88491900000001,0.9012852,0.04067376,-0.2760724,-57.7424,-19.56149,9.598909
20.373589039,-20.93615,-27.31843,-9.35762899999997,0.9032859,0.002672735,-0.3161972,-57.7424,-19.56149,9.598909
20.383500099,-21.55553,-28.71647,-10.09398,0.9302309,-0.04647115,-0.3210952,-58.48632,-19.55632,10.8877
20.393412113,-18.27281,-30.9883,-11.3826,0.9614652,-0.07805688,-0.3163128,-58.48632,-19.55632,10.8877
20.403324127,-18.76832,-33.55138,-14.14394,1.012482,-0.1339111,-0.2705813,-58.48632,-19.55632,10.8877
20.413236141,-7.557528,-29.532,-13.95985,1.043829,-0.181287,-0.2255718,-58.48632,-19.55632,10.8877
20.423147202,3.839073,-24.46408,-14.14394,1.033293,-0.1832579,-0.2062812,-58.48632,-19.55632,10.8877
20.433059216,8.91799300000002,-22.134,-15.06438,1.018361,-0.1818669,-0.1826061,-56.975,-20.30016,12.16711
20.44297123,14.24467,-21.02721,-15.49392,1.006222,-0.1868539,-0.1801262,-56.975,-20.30016,12.16711
20.455361366,20.31459,-19.68742,-15.92346,1.005235,-0.1737002,-0.1656247,-56.975,-20.30016,12.16711
20.46527338,22.42049,-18.52238,-15.92346,1.000838,-0.1591194,-0.1482012,-56.975,-20.30016,12.16711
20.475184441,21.55335,-17.41559,-16.23028,1.004959,-0.125063,-0.1355283,-56.975,-20.30016,12.16711
20.485096455,17.34157,-16.54181,-16.72118,1.004041,-0.08578044,-0.1314169,-56.9704,-20.29493,13.45201
20.495008469,10.34257,-17.59035,-15.92346,1.007649,-0.02808894,-0.1411492,-56.9704,-20.29493,13.45201
20.504920483,0.1847278,-18.11462,-14.63484,0.9934504,0.03561746,-0.1636411,-56.9704,-20.29493,13.45201
20.514831543,-16.72436,-19.92043,-12.85531,0.9911529,0.03566354,-0.1492148,-56.9704,-20.29493,13.45201
20.524743557,-26.26282,-19.04665,-8.13037100000001,0.9779961,0.08794747,-0.2265304,-56.9704,-20.29493,13.45201
20.534655571,-35.55353,-18.40588,-6.22812100000001,0.9662296,0.1109505,-0.2502763,-56.20759,-21.03883,14.73531
20.544567585,-42.42865,-17.35734,-5.246314,0.9688382,0.09350535,-0.254738,-56.20759,-21.03883,14.73531
20.554479122,-42.92416,-15.55153,-3.46679,0.9588193,0.08350204,-0.2897636,-56.20759,-21.03883,14.73531
20.564390659,-41.87121,-14.32824,-3.282701,0.9505968,0.07271299,-0.2936006,-56.20759,-21.03883,14.73531
20.574302673,-40.13694,-12.69718,-3.650879,0.9357777,0.05513843,-0.2810966,-56.20759,-21.03883,14.73531
20.584214687,-39.82725,-13.62922,-4.632685,0.9262155,0.0365923,-0.2816119,-55.82039,-22.16442,14.28712
20.594126701,-40.19888,-14.96901,-5.246314,0.9332568,0.0333653,-0.2663334,-55.82039,-22.16442,14.28712
20.604038238,-41.87121,-15.49328,-6.596298,0.9428132,0.02093721,-0.2549808,-55.82039,-22.16442,14.28712
20.613950252,-44.22485,-16.25055,-8.43718500000001,0.9432567,0.02433429,-0.2554424,-55.82039,-22.16442,14.28712
20.62386179,-52.83424,-16.94958,-9.78716900000001,0.9952356,-0.07004348,-0.1610004,-55.82039,-22.16442,14.28712
20.633773804,-42.73834,-13.86222,-10.09398,0.9789172,-0.02962211,-0.2743777,-56.55761,-22.91184,14.74303
20.643685341,-40.32276,-11.35739,-11.25988,0.9713621,-0.03348295,-0.2527264,-56.55761,-22.91184,14.74303
20.653597355,-39.14594,-9.72633399999999,-11.99623,0.9673376,-0.02773695,-0.2569724,-56.55761,-22.91184,14.74303
20.663509369,-36.73035,-8.85255399999999,-12.60986,0.9614761,-0.02244143,-0.2501607,-56.55761,-22.91184,14.74303
20.673421383,-33.63345,-7.92052300000001,-13.65303,0.9657249,-0.01222142,-0.2530128,-56.55761,-22.91184,14.74303
20.68333292,-30.35073,-7.27975100000002,-14.88029,0.9688147,-0.01210345,-0.2376755,-55.05087,-23.66091,14.73755
20.693244457,-26.75833,-7.62926299999999,-16.23028,0.9667328,-0.0280428,-0.2209569,-55.05087,-23.66091,14.73755
20.703156471,-23.22786,-8.211782,-17.58026,0.9698868,-0.04154999,-0.2153142,-55.05087,-23.66091,14.73755
20.713068485,-20.56452,-8.15353100000001,-18.62343,0.9658322,-0.0614251,-0.2048456,-55.05087,-23.66091,14.73755
20.722980499,-19.32576,-7.62926299999999,-20.03478,0.9530834,-0.06209072,-0.2090536,-55.05087,-23.66091,14.73755
20.735370159,-19.57351,-6.81373500000001,-21.69157,0.9441668,-0.05982191,-0.2175988,-55.42189,-24.03737,14.29094
20.745281696,-19.3877,-6.23121499999997,-22.9802,0.9598602,-0.06008945,-0.2134243,-55.42189,-24.03737,14.29094
20.75519371,-17.2818,-4.250649,-24.51427,0.9805114,-0.06855304,-0.2122312,-55.42189,-24.03737,14.29094
20.765105724,-14.61847,-1.920571,-25.86425,0.9962125,-0.0649142,-0.202749,-55.42189,-24.03737,14.29094
20.775017261,-12.07901,0.759019800000003,-27.21424,1.001084,-0.06632569,-0.2061646,-55.42189,-24.03737,14.29094
20.784928799,-11.64544,2.85609,-27.82787,0.9958184,-0.06048071,-0.1883111,-54.28595,-25.16263,13.90309
20.794840813,-14.1849,4.778405,-28.56422,0.9877406,-0.03583305,-0.1842309,-54.28595,-25.16263,13.90309
20.804752827,-23.7853,2.273571,-31.14146,0.9398053,0.0557355,-0.2691259,-54.28595,-25.16263,13.90309
20.814664841,-35.36771,3.496862,-28.31877,1.041427,-0.04471922,-0.1569375,-54.28595,-25.16263,13.90309
20.824576855,-26.01507,9.38030999999998,-30.09829,1.016815,0.02097376,-0.2388594,-54.28595,-25.16263,13.90309
20.834487915,-31.21786,11.12787,-30.09829,1.030008,0.04064664,-0.2167631,-53.5261,-26.29002,13.00324
20.844399929,-37.53555,13.86571,-29.85284,1.025262,0.07407072,-0.2112148,-53.5261,-26.29002,13.00324
20.854311943,-42.6764,16.13754,-29.36194,1.017539,0.1049962,-0.212858,-53.5261,-26.29002,13.00324
20.864223957,-49.61346,18.05985,-28.68694,1.025795,0.1370178,-0.2285662,-53.5261,-26.29002,13.00324
20.874135017,-57.8512199999998,19.16664,-30.03693,1.018023,0.2905785,-0.329745,-53.5261,-26.29002,13.00324
20.884047031,-78.6004799999998,10.95311,-33.04371,1.154648,0.1173068,-0.1319369,-53.49999,-28.54099,12.17498
20.893959045,-65.8412399999999,22.19574,-19.60524,1.286476,0.2420003,-0.3387934,-53.49999,-28.54099,12.17498
20.903871059,-63.2398300000003,12.52592,-23.83928,1.366009,0.192933,-0.1746814,-53.49999,-28.54099,12.17498
20.913783073,-53.82525,28.60346,-18.13253,1.446126,0.3221661,-0.3166882,-53.49999,-28.54099,12.17498
20.923694134,-38.65043,46.89458,-11.56669,1.530025,0.2802046,-0.1953034,-53.49999,-28.54099,12.17498
20.933606148,-19.57351,67.5740200000001,-10.21671,1.495984,0.3130435,-0.1385912,-52.7378,-30.42593,9.221603
20.943518162,-6.69039600000003,89.12724,-9.78716900000001,1.398541,0.3741918,-0.08014388,-52.7378,-30.42593,9.221603
20.953430176,-2.045042,107.0688,-9.78716900000001,1.289466,0.4289047,-0.019231,-52.7378,-30.42593,9.221603
20.963341713,-0.744343000000003,122.3309,-10.15535,1.164253,0.3995206,0.03838991,-52.7378,-30.42593,9.221603
20.97325325,-5.018068,134.4473,-8.55991099999998,1.096532,0.4904954,0.07371352,-52.7378,-30.42593,9.221603
20.983165264,-26.82026,140.2725,-6.71902399999997,0.9671419,0.5004279,0.05625015,-52.74025,-31.56907,4.470964
20.993077278,-57.4795999999999,130.4279,-0.828185100000001,0.8260984,0.4690319,-0.04924974,-52.74025,-31.56907,4.470964
21.002989292,-84.05103,106.0203,5.86037199999999,0.710205,0.4105025,-0.1181908,-52.74025,-31.56907,4.470964
21.012900829,-102.1989,79.9816899999998,12.36484,0.6537196,0.3891779,-0.1677469,-52.74025,-31.56907,4.470964
21.025290489,-113.2858,53.18579,19.85111,0.7301498,0.3682611,-0.1777161,-52.38874,-31.59492,-1.891201
21.035202503,-118.117,43.51596,25.18969,0.8352163,0.3702824,-0.1340196,-52.38874,-31.59492,-1.891201
21.045114517,-120.8422,39.61308,29.97599,0.8708318,0.3428836,-0.1739045,-52.38874,-31.59492,-1.891201
21.055026054,-121.3377,30.11801,35.00775,0.8793081,0.2345407,-0.2371252,-52.38874,-31.59492,-1.891201
21.064937592,-119.3557,16.60355,41.69631,0.8908871,0.07511177,-0.2483778,-52.38874,-31.59492,-1.891201
21.074849606,-113.6574,8.564782,48.3235,0.9047195,-0.1051135,-0.2549881,-52.0504,-30.49541,-7.871359
21.08476162,-100.8982,8.68128599999997,55.13478,0.9065044,-0.2661361,-0.2695217,-52.0504,-30.49541,-7.871359
21.094673634,-78.97211,14.38998,61.2097100000001,0.8911451,-0.4303156,-0.2906401,-52.0504,-30.49541,-7.871359
21.104585171,-48.68439,19.51615,65.9346599999997,0.7944223,-0.3973429,-0.3380219,-52.0504,-30.49541,-7.871359
21.114497185,-15.23785,19.69091,67.2232799999998,0.8254045,-0.4190554,-0.2986,-52.0504,-30.49541,-7.871359
21.124408722,20.93398,14.50648,70.9664199999998,0.7793935,-0.5552573,-0.3672643,-53.59702,-27.51106,-10.8923
21.134320736,51.903,1.516295,77.6549800000002,0.7969562,-0.4375054,-0.3287098,-53.59702,-27.51106,-10.8923
21.14423275,75.3155799999999,-6.05646000000001,79.5572300000001,0.8528147,-0.2023782,-0.2806044,-53.59702,-27.51106,-10.8923
21.154144287,86.7741199999999,-8.67779800000001,72.7459399999998,0.9123234,-0.01147991,-0.2621171,-53.59702,-27.51106,-10.8923
21.164056301,81.5093800000002,-10.1341,65.2596700000001,0.9255424,0.1130758,-0.2100327,-53.59702,-27.51106,-10.8923
21.173968315,68.6882099999998,-10.07585,57.28249,0.946892,0.1635034,-0.1671601,-54.77589,-23.39374,-11.67009
21.183879852,65.34355,-7.221499,51.08484,0.9442225,0.1933604,-0.1064366,-54.77589,-23.39374,-11.67009
21.19379139,72.1567399999998,-4.716664,46.78943,0.9023751,0.2095249,-0.06752922,-54.77589,-23.39374,-11.67009
21.203703404,78.0408599999999,-4.483657,44.0281,0.8449339,0.2403948,-0.05382807,-54.77589,-23.39374,-11.67009
21.213615418,76.7401599999999,-9.085562,40.40769,0.7944905,0.2697179,-0.07477333,-54.77589,-23.39374,-11.67009
21.223527432,68.0068900000002,-18.52238,37.64636,0.7625311,0.2463009,-0.1192885,-56.29168,-21.13452,-8.778222
21.233439446,53.14176,-31.62907,36.17365,0.787331,0.304094,-0.1604264,-56.29168,-21.13452,-8.778222
21.243350506,34.74616,-41.82316,35.13048,0.8531265,0.2762769,-0.166502,-56.29168,-21.13452,-8.778222
21.25326252,15.66924,-44.26974,36.60319,0.9406602,0.2390898,-0.1617973,-56.29168,-21.13452,-8.778222
21.263174534,-0.1249625,-39.8426,39.91679,0.9954559,0.2063819,-0.1495577,-56.29168,-21.13452,-8.778222
21.273086548,-7.37171500000001,-34.48342,41.75767,0.9996229,0.1763198,-0.1598799,-57.4325,-19.25457,-7.043548
21.282997608,-2.10698,-34.65817,41.8804,0.9820604,0.1822134,-0.1966504,-57.4325,-19.25457,-7.043548
21.295387745,18.2087,-42.23093,42.73948,0.9364966,0.237934,-0.1876951,-57.4325,-19.25457,-7.043548
21.305299759,35.17973,-50.5027,45.00991,0.926069,0.299186,-0.1314922,-57.4325,-19.25457,-7.043548
21.315211773,40.81609,-55.97839,48.44623,0.9221448,0.336452,-0.04141808,-57.4325,-19.25457,-7.043548
21.325123787,30.4105,-60.8133000000001,51.20756,0.9019631,0.3273595,0.03025156,-57.4613,-16.30979,-4.482801
21.335034847,7.18372799999999,-68.9685799999999,51.51437,0.8698797,0.303399,0.06832115,-57.4613,-16.30979,-4.482801
21.344946861,-22.67041,-80.67722,50.34848,0.8393207,0.3060679,0.09551041,-57.4613,-16.30979,-4.482801
21.354858875,-52.15292,-90.5217999999998,41.94176,0.7728049,0.3110799,0.1000002,-57.4613,-16.30979,-4.482801
21.364770889,-68.3807000000002,-97.2790399999997,29.85327,0.8031191,0.2399998,0.06419478,-57.4613,-16.30979,-4.482801
21.374682903,-68.6284499999999,-98.0363099999999,20.09657,0.8762357,0.1632476,0.04716203,-58.23482,-13.2974,-0.6334629
21.384593964,-56.42665,-87.8422199999998,11.07622,1.002943,0.04781256,0.1086021,-58.23482,-13.2974,-0.6334629
21.394505978,-33.69538,-69.78411,4.817203,1.132346,0.01569581,0.1489651,-58.23482,-13.2974,-0.6334629
21.404417992,-27.06802,-57.20168,-1.871354,1.238104,-0.004610429,0.1862644,-58.23482,-13.2974,-0.6334629
21.414330006,-24.34274,-53.47356,-12.24169,1.399878,0.07029286,0.1233269,-58.23482,-13.2974,-0.6334629
21.424241066,-16.60048,-51.78425,-27.64378,1.703736,0.2359004,0.1936438,-58.62439,-11.03417,3.216239
21.43415308,-7.18590000000003,-35.18244,-41.08225,2.006258,0.3710918,0.4793614,-58.62439,-11.03417,3.216239
21.444065094,7.49341799999997,11.30262,-21.87566,1.810714,0.14383,0.6947667,-58.62439,-11.03417,3.216239
21.453977108,34.87004,31.3413,-10.33944,1.11787,-0.04263997,0.5285155,-58.62439,-11.03417,3.216239
21.463889122,33.75515,3.671618,-5.123589,0.787362,-0.07361981,0.2106201,-58.62439,-11.03417,3.216239
21.473800182,-1.549538,-24.46408,-2.669072,0.7850969,0.003959823,-0.1576037,-58.60872,-11.77656,4.888906
21.483712196,-49.42765,-33.72614,1.81042,0.8055903,0.04026566,-0.405313,-58.60872,-11.77656,4.888906
21.49362421,-88.6344399999998,-29.18249,10.03305,0.8208808,-0.01752435,-0.4600973,-58.60872,-11.77656,4.888906
21.503536224,-92.1649100000002,-16.13405,15.86252,0.9558913,-0.2050288,-0.1980278,-58.60872,-11.77656,4.888906
21.513448238,-71.0440399999999,-15.37677,7.33308200000001,1.009112,-0.2356027,-0.05083499,-58.60872,-11.77656,4.888906
21.523359299,-37.04004,-5.299184,6.53536400000002,1.07819,-0.2966209,-0.1094993,-57.46841,-12.89686,5.72171
21.533271313,-1.611476,0.409508,-1.503177,1.029301,-0.2640761,-0.2610405,-57.46841,-12.89686,5.72171
21.543183327,12.26265,6.93372799999998,-3.89633,0.9891862,-0.1507084,-0.36843,-57.46841,-12.89686,5.72171
21.553095341,10.03288,8.68128599999997,-5.92130599999998,0.9626876,-0.02890632,-0.377937,-57.46841,-12.89686,5.72171
21.563007355,-3.965122,8.098766,-6.65766099999999,0.9284486,0.02090291,-0.3206299,-57.46841,-12.89686,5.72171
21.572918892,-12.45063,6.40946000000002,-4.755411,0.957445,-0.02108914,-0.2601977,-58.58771,-13.27311,5.343235
21.585308552,-8.79629,0.293004,-2.484983,1.026893,-0.0538611,-0.2019988,-58.58771,-13.27311,5.343235
21.595220566,-8.36272300000002,-1.571059,-1.319088,1.048794,-0.05315144,-0.2113196,-58.58771,-13.27311,5.343235
21.60513258,-5.203883,-2.386586,-0.950910899999997,1.035457,-0.04265505,-0.2120867,-58.58771,-13.27311,5.343235
21.61504364,-3.036051,-3.202114,0.2763473,1.010061,-0.0588069,-0.180269,-58.58771,-13.27311,5.343235
21.624955654,-2.974113,-4.250649,0.3990731,0.9893025,-0.07112671,-0.1686353,-58.59417,-12.90035,4.892368
21.634867668,-1.4876,-3.08561,0.1536215,0.9772629,-0.09313496,-0.1763531,-58.59417,-12.90035,4.892368
21.644779682,-0.06302445,-1.338051,-0.09183015,0.9740409,-0.1033174,-0.1687086,-58.59417,-12.90035,4.892368
21.654691696,-0.1869005,-0.2895156,0.0922585699999997,0.9560392,-0.1025215,-0.1589336,-58.59417,-12.90035,4.892368
21.664603233,-3.159927,0.351256,0.3377102,0.9623169,-0.09223896,-0.1546018,-58.59417,-12.90035,4.892368
21.67451477,-7.00008600000001,0.875523700000001,0.583161800000002,0.976993,-0.06888513,-0.1742684,-58.2183,-12.89849,5.340134
21.684426784,-7.681405,0.46776,0.2149844,0.9762479,-0.06804901,-0.1982639,-58.2183,-12.89849,5.340134
21.694338798,-8.300786,-0.755531299999998,0.3990731,0.9693197,-0.07305584,-0.2121577,-58.2183,-12.89849,5.340134
21.704250336,-8.300786,-2.328334,0.2149844,0.9604423,-0.08686419,-0.2356954,-58.2183,-12.89849,5.340134
21.71416235,-9.35373199999999,-2.095326,-0.03046724,0.9836442,-0.1025591,-0.2326534,-58.2183,-12.89849,5.340134
21.724074364,-7.929157,-0.1730116,-0.03046724,0.9981236,-0.1310062,-0.2368181,-58.21207,-13.27152,5.726755
21.733985901,-1.735352,0.875523700000001,-1.257725,0.9982812,-0.162871,-0.2111033,-58.21207,-13.27152,5.726755
21.743897915,4.582329,1.341539,-2.730435,0.9965093,-0.1720681,-0.2039458,-58.21207,-13.27152,5.726755
21.753809452,10.46644,1.166783,-4.080419,1.000813,-0.1437706,-0.1802693,-58.21207,-13.27152,5.726755
21.763721466,14.74017,1.283287,-5.98266900000002,0.9986607,-0.1319418,-0.1379167,-58.21207,-13.27152,5.726755
21.77363348,16.35056,0.5260119,-7.02583799999998,1.006965,-0.1284271,-0.134609,-57.8408,-13.27488,4.889629
21.783545494,15.17374,-0.5225234,-6.53493500000002,1.016243,-0.09344392,-0.1426244,-57.8408,-13.27488,4.889629
21.793457031,13.12978,0.409508,-5.859943,1.00243,-0.05051227,-0.1518138,-57.8408,-13.27488,4.889629
21.803368568,9.90900100000002,0.293004,-5.675855,0.9841179,-0.01670718,-0.1336534,-57.8408,-13.27488,4.889629
21.813280582,6.13078099999997,-1.163295,-5.98266900000002,0.9789278,0.01136792,-0.1300573,-57.8408,-13.27488,4.889629
21.823192596,3.529382,-1.978823,-6.84175,0.9864139,0.04494891,-0.1236607,-57.46494,-13.27302,5.337395
21.83310461,0.43248,-2.270082,-8.00764499999998,0.996212,0.05239831,-0.1131382,-57.46494,-13.27302,5.337395
21.843016624,-4.212874,-2.910854,-8.25309699999997,0.9996743,0.02514464,-0.141201,-57.46494,-13.27302,5.337395
21.852927685,-7.99109600000001,-4.075893,-8.25309699999997,0.9828397,-0.01053422,-0.1556877,-57.46494,-13.27302,5.337395
21.865317821,-12.8842,-5.357436,-8.19173300000002,0.9552244,-0.05367717,-0.1811682,-58.21991,-12.90032,4.890421
21.875229835,-14.06102,-6.81373500000001,-8.55991099999998,0.9562913,-0.1123947,-0.1935731,-58.21991,-12.90032,4.890421
21.885141373,-13.19389,-6.93023899999998,-9.05081500000002,0.9735633,-0.1650205,-0.1921629,-58.21991,-12.90032,4.890421
21.89505291,-8.92016599999997,-6.23121499999997,-9.90989499999997,0.9880949,-0.2031965,-0.2026349,-58.21991,-12.90032,4.890421
21.904964924,-2.726361,-5.007925,-11.13715,0.9991567,-0.228757,-0.2029075,-58.21991,-12.90032,4.890421
21.914876938,3.839073,-3.027358,-12.36441,1.006373,-0.2316536,-0.2178784,-58.20375,-14.02228,5.343596
21.924788952,10.46644,-1.163295,-13.34622,1.009005,-0.2225055,-0.236568,-58.20375,-14.02228,5.343596
21.934700966,16.47443,0.5842639,-13.77576,1.013817,-0.1866354,-0.249818,-58.20375,-14.02228,5.343596
21.944612026,20.37653,2.506578,-13.95985,1.012486,-0.1280554,-0.26334,-58.20375,-14.02228,5.343596
21.95452404,22.1108,4.312389,-13.22349,1.004407,-0.07682721,-0.2758883,-58.20375,-14.02228,5.343596
21.964436054,22.97793,5.82694100000001,-12.11896,0.9848486,-0.0275642,-0.265776,-57.0796,-14.02062,5.723225
21.974348068,21.11979,5.88519199999999,-11.50533,0.9612169,0.001326157,-0.2475991,-57.0796,-14.02062,5.723225
21.984260082,17.40351,4.953161,-11.19852,0.9578282,0.03324784,-0.2545575,-57.0796,-14.02062,5.723225
21.994171143,14.36854,3.846374,-11.25988,0.9549916,0.04204213,-0.2347862,-57.0796,-14.02062,5.723225
22.004083157,10.59032,2.623082,-11.75078,0.9531473,0.02476305,-0.1964716,-57.0796,-14.02062,5.723225
22.013995171,5.263648,3.089098,-11.62806,0.9703622,0.01868858,-0.1937903,-57.81818,-14.76961,5.793671
22.023907185,1.05186,4.894909,-11.44397,0.9834858,0.00198827,-0.1733761,-57.81818,-14.76961,5.793671
22.033819199,-2.168918,7.16673599999998,-11.13715,0.9947407,-0.0005448444,-0.1278821,-57.81818,-14.76961,5.793671
22.043730259,-6.56652,7.92401099999998,-11.07579,0.9805056,0.03022015,-0.1448312,-57.81818,-14.76961,5.793671
22.053642273,-19.69739,6.81722400000001,-10.33944,1.024303,-0.02297859,-0.03707486,-57.81818,-14.76961,5.793671
22.063554287,-18.5825,16.31229,-6.596298,1.090463,-0.06206479,0.02687424,-56.68732,-15.52054,5.340425
22.073466301,-12.8842,23.36078,-7.20992699999999,1.102634,-0.0709594,0.05887302,-56.68732,-15.52054,5.340425
22.083377361,-15.9811,30.81703,-5.79858000000001,1.124849,-0.06276893,0.08897211,-56.68732,-15.52054,5.340425
22.093289375,-21.74134,37.39951,-4.387233,1.151428,-0.0991716,0.1110512,-56.68732,-15.52054,5.340425
22.103201389,-16.53855,42.93344,-3.650879,1.150416,-0.09871424,0.1081827,-56.68732,-15.52054,5.340425
22.113113403,-7.43365200000003,45.43827,-2.730435,1.116456,-0.07950036,0.06156925,-57.81469,-15.52586,4.061373
22.123025417,6.502409,47.65185,2.730864,1.107681,-0.06423545,0.03438308,-57.81469,-15.52586,4.061373
22.132936955,22.04886,45.26352,3.405856,1.076873,-0.0360907,0.01949043,-57.81469,-15.52586,4.061373
22.145326614,27.12778,40.60336,2.608138,1.118517,-0.01796657,0.0485157,-57.81469,-15.52586,4.061373
22.155238628,14.98792,41.7684,4.264936,1.241595,0.001800736,0.1051281,-57.81469,-15.52586,4.061373
22.165150642,-0.4965908,59.1857400000001,7.148993,1.379026,0.01403077,0.1697203,-57.42538,-17.40926,1.495411
22.175062656,-18.087,93.61265,8.25352600000003,1.414956,0.06094215,0.2474862,-57.42538,-17.40926,1.495411
22.184973717,-45.21586,118.428,8.74442899999999,1.247908,0.09599515,0.1157806,-57.42538,-17.40926,1.495411
22.194885731,-48.49858,114.0591,5.98309800000002,1.003889,0.1160656,-0.1958524,-57.42538,-17.40926,1.495411
22.204797745,-18.76832,82.1952599999998,5.98309800000002,0.8268362,0.1172203,-0.3891516,-57.42538,-17.40926,1.495411
22.214709759,24.52638,48.58388,8.25352600000003,0.7724791,0.1794158,-0.4194448,-57.0746,-16.67572,-2.363522
22.224621773,47.44346,28.77821,9.84896099999999,0.8753448,0.1634847,-0.3729666,-57.0746,-16.67572,-2.363522
22.234532833,38.02888,21.96273,13.40801,0.9803609,0.1113423,-0.3022614,-57.0746,-16.67572,-2.363522
22.244444847,5.325586,21.55497,15.98525,1.019151,0.0338703,-0.2820093,-57.0746,-16.67572,-2.363522
22.254356861,-27.93515,18.40936,17.94886,0.9639633,-0.06190096,-0.2922203,-57.0746,-16.67572,-2.363522
22.264268875,-41.31377,11.24437,19.97384,0.9132944,-0.1609703,-0.2948125,-57.4726,-15.56243,-4.934822
22.274180889,-24.90018,8.098766,22.73517,0.9297912,-0.2252101,-0.2872303,-57.4726,-15.56243,-4.934822
22.284092426,7.80310800000002,5.710437,22.8579,0.9060123,-0.1988355,-0.2863546,-57.4726,-15.56243,-4.934822
22.294003964,30.03887,1.749303,20.15793,0.8353878,-0.1554384,-0.2561226,-57.4726,-15.56243,-4.934822
22.303915978,42.98392,-1.804067,18.19431,0.7588106,-0.09777319,-0.2651136,-57.4726,-15.56243,-4.934822
22.313827992,55.18572,-6.75548299999999,13.65346,0.7337503,-0.05010526,-0.2688857,-56.73676,-14.81658,-5.776202
22.323739529,61.7511500000002,-10.07585,9.66487199999998,0.7869387,0.01123318,-0.2555245,-56.73676,-14.81658,-5.776202
22.333651543,57.6632400000003,-6.11471200000003,5.79900900000001,0.8527997,0.05929955,-0.2140396,-56.73676,-14.81658,-5.776202
22.343563557,42.11679,2.040563,2.669501,0.8550883,0.07485858,-0.2110762,-56.73676,-14.81658,-5.776202
22.353475094,25.64127,3.205602,-1.196362,0.7972684,0.07967769,-0.2647672,-56.73676,-14.81658,-5.776202
22.363387108,23.65925,-6.40597199999999,-5.307677,0.738165,0.1096913,-0.3187587,-57.87733,-13.31645,-5.325266
22.373298645,43.85106,-18.46413,-7.27128999999997,0.7286493,0.1687217,-0.3192378,-57.87733,-13.31645,-5.325266
22.383210659,70.4844100000002,-29.99801,-9.23490300000001,0.7337648,0.2054858,-0.2542188,-57.87733,-13.31645,-5.325266
22.393122673,78.4124799999998,-37.39602,-9.17354000000002,0.7827163,0.1805305,-0.1352784,-57.87733,-13.31645,-5.325266
22.403034687,66.33456,-37.97853,-6.22812100000001,0.8843522,0.1061766,-0.0387614,-57.87733,-13.31645,-5.325266
22.412946224,41.18772,-36.17272,-1.073637,0.9663861,0.001311112,0.01788047,-57.86651,-13.68425,-3.653752
22.425335884,12.63428,-32.5611,5.92173499999998,1.04135,-0.07156148,0.09016591,-57.86651,-13.68425,-3.653752
22.435247898,6.750161,-30.11452,7.026268,1.044557,-0.01553339,0.1346841,-57.86651,-13.68425,-3.653752
22.445159435,10.15675,-22.0175,6.044461,1.050504,0.05287419,0.2224736,-57.86651,-13.68425,-3.653752
22.455071449,11.08582,-15.78454,3.099041,1.04441,0.05805751,0.3017906,-57.86651,-13.68425,-3.653752
22.464983463,8.85605400000001,-14.91076,0.3377102,0.9863577,0.06202835,0.272104,-57.47821,-14.04836,-1.084759
22.474895001,4.458453,-22.25051,-0.3372818,0.9085023,0.04293958,0.1440144,-57.47821,-14.04836,-1.084759
22.484807015,5.015896,-35.88146,0.3377102,0.848216,0.02380543,-0.0351347,-57.47821,-14.04836,-1.084759
22.494719029,9.04186800000002,-46.89108,-0.03046724,0.8577738,0.01941352,-0.1572125,-57.47821,-14.04836,-1.084759
22.504630566,7.80310800000002,-47.59011,1.196791,0.9150552,-0.01251508,-0.1877248,-57.47821,-14.04836,-1.084759
22.51454258,-1.239847,-42.8717,1.871783,0.9917246,-0.09110789,-0.1942392,-57.48008,-13.67037,-0.2507334
22.524454117,-7.309776,-40.94938,-1.257725,1.086963,-0.1182634,-0.2370746,-57.48008,-13.67037,-0.2507334
22.534366131,-9.53954700000003,-44.328,-8.19173300000002,1.260139,-0.06507198,-0.1197228,-57.48008,-13.67037,-0.2507334
22.544278145,-6.44264400000003,-38.21154,-10.4008,1.445666,0.05808592,-0.003459488,-57.48008,-13.67037,-0.2507334
22.554190159,-4.956131,-20.96896,-9.84853300000002,1.536584,0.05946659,0.1378357,-57.48008,-13.67037,-0.2507334
22.564101219,3.28163,-1.279799,-7.88491900000001,1.414817,-0.02034537,0.186446,-57.47711,-13.28688,1.93243
22.574013233,25.14576,2.914342,-8.55991099999998,1.145098,-0.03631978,0.091842,-57.47711,-13.28688,1.93243
22.583925247,39.94896,-7.51275900000002,-6.47357199999998,0.984093,-0.02524344,-0.003107004,-57.47711,-13.28688,1.93243
22.593837261,46.94796,-17.88161,-6.41221000000002,0.9028237,0.07025493,-0.09150879,-57.47711,-13.28688,1.93243
22.603749275,43.54137,-23.00778,-7.76219299999999,0.8935587,0.09355748,-0.1570495,-57.47711,-13.28688,1.93243
22.613660335,31.4015,-22.65827,-7.27128999999997,0.9191983,0.05740169,-0.1786545,-57.09203,-13.65465,3.601998
22.623572349,13.99691,-17.5321,-4.632685,0.9589224,-0.01764181,-0.1598353,-57.09203,-13.65465,3.601998
22.633484363,5.325586,-8.91080699999998,-1.196362,0.9901698,-0.09580175,-0.160645,-57.09203,-13.65465,3.601998
22.643396377,6.68822300000002,-4.017641,0.5217989,0.9784588,-0.07911126,-0.186354,-57.09203,-13.65465,3.601998
22.653308391,3.715197,-6.81373500000001,1.626331,0.9613165,0.001138487,-0.1904625,-57.09203,-13.65465,3.601998
22.663219452,-1.4876,-9.551578,3.221767,0.962266,0.0506438,-0.1829391,-57.07103,-15.1512,4.056327
22.673131466,-9.911175,-8.61954700000002,4.080848,1.001702,0.0415433,-0.1627176,-57.07103,-15.1512,4.056327
22.68304348,-15.79529,-5.18268,4.510388,1.034179,-0.008916819,-0.1542311,-57.07103,-15.1512,4.056327
22.692955494,-17.34374,-3.435122,4.080848,1.054772,-0.07837708,-0.1347177,-57.07103,-15.1512,4.056327
22.705345631,-12.8842,-1.862319,3.344493,1.046547,-0.1269682,-0.1354455,-57.44715,-14.77324,4.892298
22.715256691,-8.11497100000001,-0.8720351,2.669501,1.026095,-0.1418155,-0.1444782,-57.44715,-14.77324,4.892298
22.725168705,-3.779308,-1.396303,1.626331,1.015123,-0.1357206,-0.1582608,-57.44715,-14.77324,4.892298
22.735080719,0.0608516599999998,-1.279799,1.564968,1.011429,-0.1373679,-0.1865669,-57.44715,-14.77324,4.892298
22.744992733,5.263648,0.1765001,1.687694,1.010722,-0.1277316,-0.1965795,-57.44715,-14.77324,4.892298
22.754904747,8.732179,1.632799,2.23996,0.9935024,-0.1245862,-0.2031215,-56.70833,-14.02399,4.886099
22.764815807,8.60830200000001,2.623082,2.669501,0.9963248,-0.1094856,-0.1963248,-56.70833,-14.02399,4.886099
22.774727821,6.68822300000002,4.137634,3.221767,0.9950607,-0.08964667,-0.2009825,-56.70833,-14.02399,4.886099
22.784639835,6.19271900000002,5.94344499999998,3.405856,0.9698828,-0.0627672,-0.1928881,-56.70833,-14.02399,4.886099
22.794551849,7.05985200000002,6.05994799999998,2.730864,0.9714616,-0.05976379,-0.1784779,-56.70833,-14.02399,4.886099
22.804463863,5.635276,6.05994799999998,2.23996,0.9850014,-0.06088606,-0.1469202,-57.08098,-14.02219,5.337757
22.814374924,3.777135,6.17645200000001,1.687694,0.9886843,-0.05875659,-0.1190909,-57.08098,-14.02219,5.337757
22.824286938,3.591321,6.1182,1.319517,0.9947312,-0.05566286,-0.09799922,-57.08098,-14.02219,5.337757
22.834198952,5.015896,6.52596399999999,0.460436,0.9999614,-0.04201422,-0.09651618,-57.08098,-14.02219,5.337757
22.844110966,7.49341799999997,5.88519199999999,-0.2759189,1.007326,-0.03507743,-0.08549444,-57.08098,-14.02219,5.337757
22.85402298,8.91799300000002,5.127917,-0.5213705,1.005846,-0.03022478,-0.081127,-57.44875,-14.77507,4.442587
22.86393404,8.48442599999998,3.904626,-0.644096300000003,0.9932142,-0.03082925,-0.07381183,-57.44875,-14.77507,4.442587
22.873846054,6.19271900000002,2.739586,-0.644096300000003,0.9804441,-0.03053037,-0.07897349,-57.44875,-14.77507,4.442587
22.883758068,1.609303,1.982311,-0.644096300000003,0.9769394,-0.03354278,-0.09048494,-57.44875,-14.77507,4.442587
22.893670082,-0.6204669,0.933775699999999,-1.012274,0.9992535,-0.03481719,-0.109426,-57.44875,-14.77507,4.442587
22.903582096,-0.9301572,0.351256,-1.441814,1.010882,-0.03131102,-0.1157522,-57.46953,-13.27825,4.052504
22.913493156,-2.912175,-0.6972793,-0.828185100000001,0.9926339,-0.04039956,-0.1415725,-57.46953,-13.27825,4.052504
22.92340517,-4.150936,-1.338051,0.03089567,0.9897057,-0.05653098,-0.1598989,-57.46953,-13.27825,4.052504
22.933317184,-5.327759,-1.221547,0.460436,1.000139,-0.06997511,-0.1596048,-57.46953,-13.27825,4.052504
22.943229198,-5.637449,0.875523700000001,0.5217989,1.016835,-0.07314435,-0.1564192,-57.46953,-13.27825,4.052504
22.953141212,-5.947139,3.380358,0.460436,1.020913,-0.07886233,-0.1468919,-56.71318,-13.64939,4.884945
22.963052273,-4.770316,4.894909,0.2763473,1.021341,-0.07205897,-0.1449299,-56.71318,-13.64939,4.884945
22.972964287,-3.903184,5.360925,0.2149844,1.012456,-0.05270012,-0.130314,-56.71318,-13.64939,4.884945
22.985354424,-3.407679,5.593933,-0.09183015,0.9919661,-0.03903534,-0.1574025,-56.71318,-13.64939,4.884945
22.995266438,-2.168918,5.477429,-0.2759189,0.9739285,-0.04801432,-0.1625772,-56.71318,-13.64939,4.884945
23.005178452,-2.168918,5.127917,-0.5213705,0.9656557,-0.05004908,-0.1610738,-57.45823,-14.02561,4.504522
23.015089512,-2.850237,5.069665,-0.582733500000001,0.9689019,-0.0422932,-0.1692148,-57.45823,-14.02561,4.504522
23.025001526,-4.522564,5.302673,-0.950910899999997,0.9770503,-0.04934309,-0.1458094,-57.45823,-14.02561,4.504522
23.03491354,-4.832254,4.60365,-1.012274,0.9815383,-0.04924257,-0.1372074,-57.45823,-14.02561,4.504522
23.044825554,-4.584502,3.904626,-1.625903,0.9824131,-0.0331864,-0.1284657,-57.45823,-14.02561,4.504522
23.054736614,-8.11497100000001,5.186169,-1.073637,0.9912469,-0.02232757,-0.1126298,-57.08718,-14.02924,3.603152
23.064648628,-13.75133,6.46771199999997,-0.3986447,0.9883066,-0.007733591,-0.09618002,-57.08718,-14.02924,3.603152
23.074560642,-17.59149,6.40946000000002,0.460436,0.9908831,-0.01836613,-0.09579453,-57.08718,-14.02924,3.603152
23.084472656,-18.14894,5.186169,0.583161800000002,1.005143,-0.01765936,-0.08727884,-57.08718,-14.02924,3.603152
23.09438467,-17.90118,4.137634,0.828613499999998,1.01716,-0.02565828,-0.06919725,-57.08718,-14.02924,3.603152
23.104296684,-18.83025,4.079382,0.767250500000003,1.024671,-0.03474259,-0.06260503,-57.8357,-14.0293,3.607045
23.114207745,-19.82126,4.778405,0.705887599999999,1.024373,-0.06099117,-0.07478109,-57.8357,-14.0293,3.607045
23.124119759,-18.52057,5.710437,0.583161800000002,1.014064,-0.07284799,-0.0925306,-57.8357,-14.0293,3.607045
23.134031773,-15.23785,6.52596399999999,0.03089567,1.005364,-0.08997857,-0.1026476,-57.8357,-14.0293,3.607045
23.143943787,-12.26482,6.584216,-0.828185100000001,1.004335,-0.09392001,-0.1122675,-57.8357,-14.0293,3.607045
23.153855801,-9.60148500000001,7.28324000000001,-1.380451,0.9987368,-0.08580901,-0.1241656,-57.47737,-12.90706,3.216169
23.163767338,-8.176909,8.04051500000001,-1.625903,0.9827859,-0.07348026,-0.139301,-57.47737,-12.90706,3.216169
23.173678875,-7.062024,7.92401099999998,-1.441814,0.9602016,-0.0664928,-0.1400059,-57.47737,-12.90706,3.216169
23.183590889,-4.894192,7.05023200000001,-1.99408,0.9659135,-0.05430521,-0.1409379,-57.47737,-12.90706,3.216169
23.193502903,-2.912175,6.00169699999999,-2.791798,0.9861225,-0.0588481,-0.1305916,-57.47737,-12.90706,3.216169
23.203414917,-2.168918,6.46771199999997,-3.344064,1.003234,-0.04595197,-0.115779,-57.09663,-13.65988,2.317106
23.213326454,-2.354732,7.05023200000001,-3.712242,1.011046,-0.03220162,-0.1008747,-57.09663,-13.65988,2.317106
23.223238468,-2.230856,6.46771199999997,-4.080419,1.002305,-0.02447526,-0.08585753,-57.09663,-13.65988,2.317106
23.233150005,-2.664423,5.710437,-4.387233,1.00594,-0.02285862,-0.06331294,-57.09663,-13.65988,2.317106
23.243062019,-3.655432,5.94344499999998,-4.387233,1.013269,-0.02325742,-0.0643437,-57.09663,-13.65988,2.317106
23.252974033,-4.398688,6.81722400000001,-3.89633,0.9986839,-0.02486086,-0.05797743,-57.46604,-14.0345,2.320207
23.265363216,-4.832254,6.40946000000002,-4.019056,1.011859,-0.01690454,-0.05132407,-57.46604,-14.0345,2.320207
23.27527523,-4.33675,7.39974399999998,-3.957693,1.032903,-0.0127294,-0.04476865,-57.46604,-14.0345,2.320207
23.285187244,-4.150936,8.79779099999998,-3.957693,1.032833,-0.009351141,-0.04762644,-57.46604,-14.0345,2.320207
23.295099258,-3.345741,9.03079800000001,-4.203145,1.02735,-0.01337527,-0.06248745,-57.46604,-14.0345,2.320207
23.305010796,-2.540546,8.68128599999997,-4.755411,1.030619,-0.007558558,-0.07064162,-56.71405,-14.41061,1.931999
23.31492281,-0.2488386,8.33177500000003,-4.9395,1.03754,0.005976791,-0.09510352,-56.71405,-14.41061,1.931999
23.324834347,1.547365,7.807507,-5.553129,1.057819,0.02170954,-0.1019085,-56.71405,-14.41061,1.931999
23.334746361,2.538374,7.92401099999998,-5.98266900000002,1.073591,0.03684425,-0.1197194,-56.71405,-14.41061,1.931999
23.344658375,3.901011,8.62303400000002,-6.84175,1.091664,0.04242713,-0.1150477,-56.71405,-14.41061,1.931999
23.354570389,5.015896,9.32205800000003,-7.02583799999998,1.082439,0.05063731,-0.09906249,-57.45608,-15.16352,1.038775
23.364481926,5.20171,9.26380600000001,-6.90311299999998,1.064519,0.04171947,-0.09271412,-57.45608,-15.16352,1.038775
23.37439394,4.086825,8.564782,-6.16675799999997,1.053017,0.02754786,-0.08646011,-57.45608,-15.16352,1.038775
23.384305477,2.786126,8.79779099999998,-5.98266900000002,1.049614,0.02800289,-0.08402482,-57.45608,-15.16352,1.038775
23.394217491,3.033878,10.07933,-6.71902399999997,1.045629,0.03620853,-0.0815325,-57.45608,-15.16352,1.038775
23.404129505,6.750161,11.53563,-8.55991099999998,1.041305,0.03473007,-0.07574047,-56.70756,-15.16346,1.034883
23.414041042,10.21869,12.1764,-11.07579,1.057141,0.0452681,-0.04508659,-56.70756,-15.16346,1.034883
23.423953056,13.06784,14.09872,-13.77576,1.078434,0.0781056,-0.02825921,-56.70756,-15.16346,1.034883
23.43386507,17.21769,17.24433,-16.41436,1.072665,0.1236883,-0.01301727,-56.70756,-15.16346,1.034883
23.443776608,20.0049,19.63266,-19.6666,1.039813,0.1863972,0.004029691,-56.70756,-15.16346,1.034883
23.453688622,20.25266,19.92392,-22.55066,1.009238,0.258317,0.01535507,-56.33305,-15.54325,-0.250803
23.463600159,18.2087,19.51615,-25.86425,1.013624,0.3107991,0.0276681,-56.33305,-15.54325,-0.250803
23.473512173,14.61629,20.21518,-29.17785,1.012626,0.3583333,0.03375589,-56.33305,-15.54325,-0.250803
23.483424187,8.91799300000002,20.9142,-32.12327,1.000638,0.3875621,-0.004351164,-56.33305,-15.54325,-0.250803
23.493336201,-1.79729,18.70062,-35.31414,0.994833,0.4092244,-0.02047855,-56.33305,-15.54325,-0.250803
23.503247738,-16.41467,15.26376,-40.16181,1.004177,0.3976614,-0.02880469,-56.32473,-16.29401,-0.6339626
23.513159275,-28.24484,15.26376,-43.96631,1.026447,0.3678316,-0.03785222,-56.32473,-16.29401,-0.6339626
23.523071289,-34.25283,17.18607,-48.38444,1.045621,0.3230072,-0.03256626,-56.32473,-16.29401,-0.6339626
23.532983303,-36.23484,20.97245,-51.45258,1.08179,0.2800475,0.01098759,-56.32473,-16.29401,-0.6339626
23.545372963,-33.63345,25.5161,-56.11617,1.115111,0.2602612,0.04223806,-56.32473,-16.29401,-0.6339626
23.5552845,-30.16492,27.90443,-61.3933800000002,1.132294,0.2795361,0.07149721,-56.68579,-17.79948,-2.362006
23.565196514,-25.89119,29.94325,-66.7319399999997,1.101429,0.283509,0.07036866,-56.68579,-17.79948,-2.362006
23.575108528,-25.51956,29.30248,-69.3705499999999,1.045872,0.2736388,0.07705875,-56.68579,-17.79948,-2.362006
23.585020542,-29.73135,26.7394,-71.6409800000002,1.029753,0.2685676,0.07285262,-56.68579,-17.79948,-2.362006
23.594932079,-36.85423,24.75883,-74.7091200000002,1.044822,0.2677353,0.06310456,-56.68579,-17.79948,-2.362006
23.604844093,-42.42865,26.8559,-76.9181900000002,1.083279,0.2400858,0.06160437,-55.53448,-20.36436,-3.644852
23.61475563,-42.92416,30.70053,-78.6977100000002,1.107514,0.2102855,0.05349918,-55.53448,-20.36436,-3.644852
23.624667644,-40.50857,33.32187,-80.5999600000001,1.102832,0.1854545,0.0447342,-55.53448,-20.36436,-3.644852
23.634579658,-37.65942,34.07914,-81.4590500000002,1.088213,0.1755408,0.03808114,-55.53448,-20.36436,-3.644852
23.644491672,-35.98709,34.31215,-81.1522300000001,1.07761,0.1647545,0.04050813,-55.53448,-20.36436,-3.644852
23.65440321,-34.56252,33.96264,-80.1704199999999,1.064441,0.1533868,0.03047087,-53.24616,-24.49675,-6.59909
23.664314747,-32.76632,34.07914,-78.8817999999998,1.042977,0.1360703,0.01518895,-53.24616,-24.49675,-6.59909
23.674226761,-29.29778,32.6811,-77.1636400000002,1.009714,0.1122319,-0.01395189,-53.24616,-24.49675,-6.59909
23.684138775,-25.5815,30.46752,-74.2182200000002,0.9658086,0.08783111,-0.03243457,-53.24616,-24.49675,-6.59909
23.694050789,-23.47561,27.20541,-71.7023399999999,0.9404527,0.07876868,-0.03610171,-51.33557,-28.25301,-9.167068
23.703962803,-23.53755,23.65204,-68.2660099999998,0.9327341,0.06506675,-0.04188351,-51.33557,-28.25301,-9.167068
23.713873863,-25.51956,20.44818,-63.6638000000002,0.9229583,0.06689721,-0.03938011,-51.33557,-28.25301,-9.167068
23.723785877,-28.43065,18.70062,-58.8774900000002,0.9102216,0.06770126,-0.04069745,-51.33557,-28.25301,-9.167068
23.733697891,-31.40368,18.1181,-53.72301,0.8977243,0.06082506,-0.0276634,-51.33557,-28.25301,-9.167068
23.743609905,-32.89019,18.46762,-48.69125,0.8752232,0.05712415,-0.0327617,-49.04773,-32.00584,-10.90181
23.753521919,-32.39468,19.28314,-44.1504,0.8554051,0.04089484,-0.02932543,-49.04773,-32.00584,-10.90181
23.76343298,-31.2798,18.81713,-40.52999,0.8410074,0.01207166,-0.03658668,-49.04773,-32.00584,-10.90181
23.773344994,-30.22686,17.71034,-36.29595,0.8299732,-0.008934484,-0.04046584,-49.04773,-32.00584,-10.90181
23.783257008,-28.55453,15.61327,-31.69373,0.8333904,-0.02499205,-0.05981075,-49.04773,-32.00584,-10.90181
23.793169022,-24.96212,13.28319,-27.39832,0.8412622,-0.0307226,-0.06184235,-46.83797,-34.6362,-12.96092
23.803081036,-19.20188,11.01136,-23.90064,0.851693,-0.01417229,-0.07431268,-46.83797,-34.6362,-12.96092
23.812992096,-12.51257,8.564782,-20.64841,0.8640081,-0.01153281,-0.06240503,-46.83797,-34.6362,-12.96092
23.825382233,-3.469617,7.28324000000001,-15.92346,0.8806792,-0.001056519,-0.04568388,-46.83797,-34.6362,-12.96092
23.835294247,1.609303,4.661901,-12.73259,0.8912503,0.02190821,-0.0369858,-46.83797,-34.6362,-12.96092
23.845206261,3.343568,0.2347521,-10.03262,0.8890303,0.02248238,-0.01439401,-46.44405,-36.51438,-14.24199
23.855118275,4.768144,-3.842885,-6.22812100000001,0.8819492,0.01861996,0.005812394,-46.44405,-36.51438,-14.24199
23.865029335,9.22768300000001,-7.62926299999999,-2.055443,0.871326,0.04220907,-0.001134583,-46.44405,-36.51438,-14.24199
23.874941349,14.18273,-10.65837,1.871783,0.8859007,0.06283154,0.01375292,-46.44405,-36.51438,-14.24199
23.884853363,16.47443,-12.11466,5.92173499999998,0.8895853,0.06398631,0.04061539,-46.44405,-36.51438,-14.24199
23.894765377,15.54536,-12.87194,10.09441,0.8842122,0.06684865,0.04452542,-45.32154,-36.13446,-12.96408
23.904677391,12.69621,-13.86222,14.69663,0.8826722,0.06679221,0.03733692,-45.32154,-36.13446,-12.96408
23.914588928,8.732179,-14.26999,20.28065,0.8874552,0.07899314,0.04121523,-45.32154,-36.13446,-12.96408
23.924500465,4.396515,-13.0467,25.18969,0.8936069,0.101893,0.04803311,-45.32154,-36.13446,-12.96408
23.934412479,2.104807,-11.29914,29.23964,0.9125769,0.1142752,0.05274174,-45.32154,-36.13446,-12.96408
23.944324493,3.157754,-9.37682200000001,32.92141,0.9222531,0.1187343,0.04788038,-45.68125,-37.25828,-12.95868
23.954236507,6.06884200000002,-8.32828599999997,35.80547,0.9274195,0.1269839,0.03684392,-45.68125,-37.25828,-12.95868
23.964148521,8.36055000000001,-8.73605099999999,38.38271,0.9360157,0.1445483,0.0373616,-45.68125,-37.25828,-12.95868
23.974059582,8.979931,-10.19235,40.03951,0.9498757,0.1626083,0.0272704,-45.68125,-37.25828,-12.95868
23.983971596,8.67023999999999,-10.54186,41.81903,0.9630522,0.1778823,0.04261537,-45.68125,-37.25828,-12.95868
23.99388361,10.77613,-9.14381400000001,43.35311,0.9634283,0.1992932,0.05667912,-46.44133,-36.13115,-12.12307
24.003795624,14.67823,-7.33800299999997,45.07127,0.9558777,0.2083571,0.04624585,-46.44133,-36.13115,-12.12307
24.013707638,16.22668,-7.57101099999998,47.28033,0.9421258,0.2188857,0.05268523,-46.44133,-36.13115,-12.12307
24.023618698,11.89102,-9.49332599999999,48.99849,0.9437286,0.2455557,0.04948697,-46.44133,-36.13115,-12.12307
24.033530712,3.405506,-11.35739,50.34848,0.969819,0.2596301,0.08295052,-46.44133,-36.13115,-12.12307
24.043442726,-6.25683000000001,-10.94963,51.02347,0.9955324,0.28424,0.09199968,-47.53268,-33.50568,-11.29045
24.05335474,-12.69839,-9.085562,51.45301,1.01566,0.284045,0.09949476,-47.53268,-33.50568,-11.29045
24.063266754,-16.04304,-8.44479099999997,53.10981,1.023066,0.2734426,0.0940739,-47.53268,-33.50568,-11.29045
24.073177815,-18.45863,-10.48361,54.15298,1.021348,0.2540292,0.09444062,-47.53268,-33.50568,-11.29045
24.083089829,-18.95413,-14.15348,54.70525,1.005778,0.2241172,0.06701632,-47.53268,-33.50568,-11.29045
24.093001843,-15.4856,-18.9884,54.9507,0.9872657,0.1912372,0.03527803,-49.8011,-31.63131,-10.89907
24.105391979,-11.02606,-23.88156,54.76661,0.9835546,0.1810487,0.04292701,-49.8011,-31.63131,-10.89907
24.115303993,-7.49559099999998,-25.22136,52.55754,0.982974,0.1936778,0.04877841,-49.8011,-31.63131,-10.89907
24.125215054,-2.354732,-25.10485,49.61213,0.9640606,0.2113207,0.03706691,-49.8011,-31.63131,-10.89907
24.135127068,1.671241,-25.22136,48.26214,0.9440279,0.2052236,0.03144966,-49.8011,-31.63131,-10.89907
24.145039082,0.742170199999999,-27.43493,47.15761,0.9379666,0.2099274,0.01809262,-51.32909,-29.00586,-10.06418
24.154951096,-3.71737,-31.39606,45.25536,0.9551267,0.2357712,0.005141822,-51.32909,-29.00586,-10.06418
24.16486311,-8.300786,-34.59992,43.04629,0.9988898,0.2493664,-0.00285487,-51.32909,-29.00586,-10.06418
24.17477417,-11.89319,-34.83293,41.69631,1.020721,0.2422353,-0.0280725,-51.32909,-29.00586,-10.06418
24.184686184,-11.83125,-34.59992,40.28496,1.006524,0.2103412,-0.0670465,-51.32909,-29.00586,-10.06418
24.194598198,-7.18590000000003,-35.24069,38.32135,0.984954,0.1944333,-0.09096091,-52.86517,-25.62939,-8.781892
24.204510212,-0.5585288,-36.23098,35.43729,0.977665,0.1889993,-0.09285033,-52.86517,-25.62939,-8.781892
24.214422226,4.520391,-37.39602,33.71913,0.9765445,0.1633074,-0.08916987,-52.86517,-25.62939,-8.781892
24.22433424,7.12178899999997,-39.08532,33.47368,0.9734912,0.1332128,-0.0883818,-52.86517,-25.62939,-8.781892
24.2342453,7.49341799999997,-40.0756,34.21003,0.9713252,0.10162,-0.09817541,-52.86517,-25.62939,-8.781892
24.244157314,10.21869,-40.13386,34.39412,0.9882534,0.08149829,-0.09222396,-54.0076,-23.75128,-7.49693
24.254069328,17.96095,-38.6193,32.24642,1.011556,0.09585131,-0.09186368,-54.0076,-23.75128,-7.49693
24.263981342,21.36754,-36.58049,29.42373,1.027739,0.1219317,-0.05678805,-54.0076,-23.75128,-7.49693
24.273893356,22.42049,-33.95915,27.6442,1.025744,0.1355453,-0.04467495,-54.0076,-23.75128,-7.49693
24.283804417,24.52638,-33.20187,26.04877,1.003538,0.1178517,-0.03738509,-54.0076,-23.75128,-7.49693
24.293716431,26.63227,-34.83293,24.69878,0.9830545,0.09689477,-0.009005929,-54.77441,-21.49148,-4.480463
24.303628445,27.87104,-36.8135,23.53289,0.9893296,0.08791199,0.02016585,-54.77441,-21.49148,-4.480463
24.313540459,28.55235,-35.53195,21.75336,1.009978,0.09456871,0.03874541,-54.77441,-21.49148,-4.480463
24.323452473,29.1098,-32.85236,19.48294,1.025256,0.1204265,0.03301448,-54.77441,-21.49148,-4.480463
24.333363533,29.91499,-30.17277,16.59888,1.031981,0.1577625,0.01735579,-54.77441,-21.49148,-4.480463
24.343275547,29.17174,-28.94948,13.77619,1.035686,0.1891631,-0.01367957,-55.15563,-20.35909,-2.361906
24.353187561,24.52638,-28.59997,11.87394,1.043922,0.2216618,-0.03082493,-55.15563,-20.35909,-2.361906
24.363099575,17.58932,-27.31843,12.18075,1.06275,0.2368967,-0.03665945,-55.15563,-20.35909,-2.361906
24.373011589,9.47543500000001,-25.57087,12.4262,1.067394,0.250001,-0.04525795,-55.15563,-20.35909,-2.361906
24.382922649,4.024887,-24.98835,10.83077,1.053787,0.2740155,-0.05649593,-55.15563,-20.35909,-2.361906
24.395312786,-0.682404900000003,-24.23107,8.80579200000003,1.050091,0.3035861,-0.0485822,-55.53685,-19.22671,-0.2433491
24.4052248,-7.00008600000001,-22.48351,8.43761400000001,1.042118,0.2668338,-0.01082082,-55.53685,-19.22671,-0.2433491
24.415136814,-16.16692,-20.73595,9.60350899999999,1.039938,0.2010964,0.03341611,-55.53685,-19.22671,-0.2433491
24.425048828,-24.90018,-17.70685,10.83077,1.040628,0.1275572,0.06220946,-55.53685,-19.22671,-0.2433491
24.434959889,-29.23585,-13.86222,11.19895,1.050511,0.0811529,0.06565019,-55.53685,-19.22671,-0.2433491
24.444871903,-30.35073,-9.49332599999999,10.2785,1.068588,0.05625401,0.08260283,-56.28482,-18.90938,1.044475
24.454783917,-30.35073,-4.658412,9.54214699999998,1.085748,0.03698057,0.06454987,-56.28482,-18.90938,1.044475
24.464695931,-27.74933,-0.1147597,7.946711,1.094628,0.0276148,0.01350858,-56.28482,-18.90938,1.044475
24.474607945,-21.12196,2.098815,6.10582399999999,1.096986,0.005161248,-0.0212342,-56.28482,-18.90938,1.044475
24.484519959,-14.92816,3.205602,5.308106,1.081561,-0.02857805,-0.03908217,-56.28482,-18.90938,1.044475
24.494431019,-9.41567000000003,3.962878,5.062654,1.075824,-0.05394933,-0.05600368,-55.91865,-18.15833,1.489934
24.504343033,-4.398688,4.661901,4.694477,1.064021,-0.06388775,-0.07420675,-55.91865,-18.15833,1.489934
24.514255047,-0.001086392,4.60365,3.71267,1.045139,-0.05305745,-0.09076552,-55.91865,-18.15833,1.489934
24.524167061,3.529382,3.555114,2.669501,1.025633,-0.03742605,-0.1149691,-55.91865,-18.15833,1.489934
24.534079075,7.30760400000002,2.215319,1.258154,1.018311,-0.01483281,-0.1349175,-55.91865,-18.15833,1.489934
24.543990135,10.59032,2.273571,-0.09183015,1.01596,0.01664424,-0.1366066,-55.54898,-18.16353,0.2030945
24.553902149,12.69621,2.85609,-1.073637,1.005465,0.03688566,-0.1349343,-55.54898,-18.16353,0.2030945
24.563814163,13.0059,3.555114,-2.178169,0.9937209,0.05380704,-0.1159868,-55.54898,-18.16353,0.2030945
24.573726177,12.57234,1.982311,-3.282701,0.9932209,0.05184396,-0.1193563,-55.54898,-18.16353,0.2030945
24.583638191,12.63428,0.9920276,-3.589516,1.003927,0.05487867,-0.1208756,-55.54898,-18.16353,0.2030945
24.593549251,12.32458,1.632799,-3.221339,0.99681,0.06977382,-0.1298335,-56.30074,-17.78716,0.6555462
24.603461265,11.33358,1.516295,-3.282701,0.9801654,0.07150652,-0.1296681,-56.30074,-17.78716,0.6555462
24.613373279,9.47543500000001,1.225035,-2.914524,0.9914876,0.07705281,-0.1158112,-56.30074,-17.78716,0.6555462
24.623285293,8.67023999999999,2.273571,-2.853161,1.004349,0.08070361,-0.09717969,-56.30074,-17.78716,0.6555462
24.633197308,7.98892199999997,2.681334,-2.669072,1.020226,0.07662907,-0.0795878,-56.30074,-17.78716,0.6555462
24.643109322,4.89202,3.496862,-1.809992,1.032165,0.07639448,-0.0600133,-55.93618,-17.03794,0.6512918
24.653020382,1.918993,3.72987,-1.625903,1.027874,0.08078704,-0.04409914,-55.93618,-17.03794,0.6512918
24.662932396,-0.9301572,4.370642,-1.380451,1.026877,0.08076471,-0.0460107,-55.93618,-17.03794,0.6512918
24.675322533,-3.469617,6.00169699999999,-1.380451,1.026992,0.0608245,-0.05814856,-55.93618,-17.03794,0.6512918
24.685234547,-3.221865,7.05023200000001,-1.99408,1.031692,0.03615727,-0.0578762,-56.29589,-18.16176,0.6567001
24.695146561,-1.859228,6.75897199999999,-2.546346,1.023454,0.02048206,-0.06894808,-56.29589,-18.16176,0.6567001
24.705057621,-0.8682191,5.94344499999998,-3.650879,1.01633,0.04171519,-0.07114154,-56.29589,-18.16176,0.6567001
24.714969635,-1.79729,4.778405,-5.36904,1.023423,0.07362778,-0.1050858,-56.29589,-18.16176,0.6567001
24.724881649,-2.045042,3.43861,-7.45537899999998,1.055127,0.09666351,-0.1335548,-56.29589,-18.16176,0.6567001
24.734793663,0.866046300000002,5.535681,-8.98945100000001,1.076356,0.07459359,-0.1396601,-56.67176,-18.16362,0.2089329
24.744705677,5.82109000000002,8.50653100000001,-10.09398,1.077043,0.04958564,-0.1019006,-56.67176,-18.16362,0.2089329
24.754616737,7.865046,11.30262,-10.46216,1.074208,0.03131209,-0.06598421,-56.67176,-18.16362,0.2089329
24.764528751,10.15675,15.78803,-9.90989499999997,1.03921,0.07073078,-0.04715192,-56.67176,-18.16362,0.2089329
24.774440765,7.80310800000002,13.6327,-12.0576,1.006092,0.1230653,0.02696723,-56.67176,-18.16362,0.2089329
24.784352779,6.19271900000002,18.40936,-9.97125800000001,1.056648,0.172329,0.05563736,-55.92324,-18.16356,0.2050409
24.794264793,7.369542,24.93358,-11.50533,1.072767,0.2117859,0.05239005,-55.92324,-18.16356,0.2050409
24.804176807,4.086825,28.77821,-12.97804,1.055791,0.2048142,0.05778234,-55.92324,-18.16356,0.2050409
24.814087868,-2.292794,29.7685,-13.65303,1.037739,0.1850959,0.0386116,-55.92324,-18.16356,0.2050409
24.823999882,-7.18590000000003,29.24423,-14.45075,1.053589,0.1580807,0.02676124,-55.92324,-18.16356,0.2050409
24.833911896,-10.09699,30.81703,-15.24847,1.086676,0.1425633,0.04027645,-55.91489,-19.2944,-1.526102
24.84382391,-14.86622,34.42865,-15.12574,1.099375,0.1436908,0.04016652,-55.91489,-19.2944,-1.526102
24.853735924,-18.83025,37.10825,-15.61665,1.094742,0.1610759,0.03792439,-55.91489,-19.2944,-1.526102
24.863646984,-20.44064,42.00141,-15.49392,1.112453,0.1203858,0.09606883,-55.91489,-19.2944,-1.526102
24.873558998,-17.52956,45.38002,-17.76435,1.088472,0.1032495,0.1216248,-55.91489,-19.2944,-1.526102
24.883471012,-19.13994,45.08876,-18.86888,1.05552,0.09883688,0.09789228,-55.16671,-19.61147,-2.749681
24.893383026,-20.75033,43.98198,-19.11433,1.054559,0.0949311,0.09499419,-55.16671,-19.61147,-2.749681
24.90329504,-20.6884,45.32177,-19.60524,1.078382,0.1054042,0.09388332,-55.16671,-19.61147,-2.749681
24.913207054,-19.01607,50.68095,-21.01658,1.109349,0.1602604,0.126133,-55.16671,-19.61147,-2.749681
24.923118114,-18.83025,56.85566,-22.36657,1.132744,0.1936859,0.1578298,-55.16671,-19.61147,-2.749681
24.933030128,-21.61747,61.5158200000001,-23.34837,1.124109,0.1839063,0.162646,-54.79169,-20.75092,-6.602843
24.942942142,-26.26282,62.73911,-23.40973,1.088526,0.1561999,0.1411834,-54.79169,-20.75092,-6.602843
24.955332279,-30.66042,59.3022399999999,-22.48929,1.070512,0.1708875,0.1184003,-54.79169,-20.75092,-6.602843
24.965244293,-33.13794,58.6032199999999,-22.9802,1.082706,0.204435,0.1069872,-54.79169,-20.75092,-6.602843
24.975155354,-35.55353,59.7099999999998,-23.90064,1.089077,0.1981811,0.1011247,-54.79169,-20.75092,-6.602843
24.985067368,-37.34973,60.8167899999999,-24.39154,1.090019,0.1598859,0.1003807,-54.03296,-22.2597,-9.171906
24.994979382,-38.65043,61.5740699999997,-24.94381,1.077995,0.1398372,0.09651709,-54.03296,-22.2597,-9.171906
25.004891396,-38.52655,61.1663000000001,-25.43471,1.079104,0.1189422,0.08484383,-54.03296,-22.2597,-9.171906
25.01480341,-33.19988,63.3216199999999,-26.04834,1.08161,0.08900865,0.1033474,-54.03296,-22.2597,-9.171906
25.02471447,-26.20088,65.0109300000002,-28.01195,1.073905,0.07117191,0.1417125,-54.03296,-22.2597,-9.171906
25.034626484,-19.01607,64.3701599999998,-30.34374,1.070096,0.06922492,0.1494173,-53.28991,-23.02608,-13.41364
25.044538498,-11.02606,63.61288,-32.00054,1.105651,0.09350206,0.1641351,-53.28991,-23.02608,-13.41364
25.054450512,-7.80528100000003,68.5643000000001,-33.41189,1.109022,0.1237622,0.1945555,-53.28991,-23.02608,-13.41364
25.064362526,-7.99109600000001,71.7681599999998,-33.84143,1.096025,0.1700359,0.1733769,-53.28991,-23.02608,-13.41364
25.07427454,-4.708378,71.82641,-35.62095,1.084745,0.2047513,0.163149,-53.28991,-23.02608,-13.41364
25.0841856,-1.983104,71.5934099999998,-36.23458,1.054692,0.192801,0.1748711,-52.53716,-24.54166,-17.65306
25.094097614,-2.41667,68.9720700000003,-35.43687,1.00458,0.1757154,0.1795421,-52.53716,-24.54166,-17.65306
25.104009628,-3.841246,65.8847099999998,-34.76188,0.9686826,0.1515087,0.1792327,-52.53716,-24.54166,-17.65306
25.113921642,-7.74334299999998,63.6711300000002,-35.06869,0.9760455,0.1379568,0.16611,-52.53716,-24.54166,-17.65306
25.123833656,-10.77831,64.1371499999999,-34.70051,0.9907961,0.1294025,0.163996,-52.53716,-24.54166,-17.65306
25.133744717,-9.60148500000001,66.2924700000003,-34.76188,1.001036,0.1382971,0.1716431,-49.90875,-26.05212,-20.68156
25.143656731,-7.12396199999998,66.1759699999999,-36.17322,1.02513,0.1218424,0.2130844,-49.90875,-26.05212,-20.68156
25.153568745,-3.221865,66.7002399999999,-36.5414,1.033991,0.09979298,0.2407047,-49.90875,-26.05212,-20.68156
25.163480759,3.777135,66.8167400000002,-35.55959,0.9928454,0.06680588,0.2427861,-49.90875,-26.05212,-20.68156
25.173392773,7.18372799999999,66.3507199999999,-34.51642,0.964045,0.09597763,0.2341238,-49.90875,-26.05212,-20.68156
25.183304787,5.75915199999997,66.64198,-32.7369,0.9580717,0.1482837,0.2374085,-48.39965,-27.93883,-24.08855
25.193215847,2.910002,68.0400300000001,-30.5892,0.9509943,0.173931,0.2448472,-48.39965,-27.93883,-24.08855
25.203127861,2.910002,67.45751,-29.11649,0.9270986,0.173664,0.2508283,-48.39965,-27.93883,-24.08855
25.213039875,2.848064,65.5352000000001,-26.41652,0.8862622,0.1342482,0.2278958,-48.39965,-27.93883,-24.08855
25.222951889,-1.239847,61.4575600000002,-23.77791,0.8431425,0.11854,0.2008209,-48.39965,-27.93883,-24.08855
25.235342026,-7.24783800000001,56.38964,-19.97341,0.8069351,0.105879,0.1837857,-45.8447,-28.70167,-27.5045
25.245253086,-6.50458200000001,52.60327,-18.43934,0.7893547,0.106158,0.1863509,-45.8447,-28.70167,-27.5045
25.2551651,-7.43365200000003,49.0499,-16.96663,0.813825,0.08965084,0.2167448,-45.8447,-28.70167,-27.5045
25.265077114,-7.49559099999998,47.76836,-15.06438,0.8330644,0.06997804,0.2101937,-45.8447,-28.70167,-27.5045
25.274989128,-3.531555,48.35088,-13.40758,0.825353,0.06310906,0.2131002,-45.8447,-28.70167,-27.5045
25.284901142,-0.3107767,48.81689,-11.3826,0.7975482,0.06718466,0.2244282,-43.58249,-30.5831,-29.63048
25.294812203,-0.1249625,48.05962,-8.62127400000002,0.7732483,0.06354099,0.2347119,-43.58249,-30.5831,-29.63048
25.304724217,-0.5585288,47.01108,-5.614491,0.7553577,0.07536577,0.2205514,-43.58249,-30.5831,-29.63048
25.314636231,-0.4965908,44.09848,-3.46679,0.7463141,0.1375598,0.1744741,-43.58249,-30.5831,-29.63048
25.324548245,-0.4346527,38.33154,-4.080419,0.7495099,0.1648016,0.1842292,-43.58249,-30.5831,-29.63048
25.334460259,0.804108299999999,34.2539,-2.178169,0.7065389,0.09600883,0.2048151,-41.3302,-31.71559,-31.82302
25.344372273,3.157754,28.54521,-0.1531931,0.6727398,0.04751027,0.1899197,-41.3302,-31.71559,-31.82302
25.354283333,3.777135,22.19574,1.258154,0.6761895,0.04854275,0.1937359,-41.3302,-31.71559,-31.82302
25.364195347,3.157754,17.36083,2.055871,0.7149209,0.07322234,0.1848993,-41.3302,-31.71559,-31.82302
25.374107361,5.94496599999999,14.79774,3.589944,0.7459593,0.09445708,0.1847537,-41.3302,-31.71559,-31.82302
25.384019375,10.77613,12.99193,6.78081600000001,0.7570807,0.1267281,0.2103142,-40.97024,-30.9716,-33.11216
25.393931389,11.64327,10.19584,10.03305,0.7218841,0.1467796,0.2347812,-40.97024,-30.9716,-33.11216
25.403842449,8.732179,3.380358,11.9353,0.6900626,0.1651374,0.2049478,-40.97024,-30.9716,-33.11216
25.413754463,3.653259,-5.415688,12.97847,0.6896539,0.1588315,0.2053898,-40.97024,-30.9716,-33.11216
25.423666477,-0.8682191,-12.11466,14.26709,0.7120352,0.1295477,0.2078686,-40.97024,-30.9716,-33.11216
25.433578491,-2.912175,-16.77482,15.00345,0.7434976,0.1227103,0.2161749,-39.84746,-30.97151,-33.118
25.443490505,-2.478608,-20.38644,15.61707,0.7646327,0.1142503,0.2168834,-39.84746,-30.97151,-33.118
25.453402519,1.175737,-23.7068,16.53752,0.774097,0.1273796,0.2015183,-39.84746,-30.97151,-33.118
25.46331358,5.077834,-25.80387,17.02842,0.7840389,0.1285623,0.21872,-39.84746,-30.97151,-33.118
25.473225594,9.22768300000001,-27.20192,18.3784,0.7661851,0.1235815,0.2361376,-39.84746,-30.97151,-33.118
25.483137608,11.95296,-29.532,19.29885,0.760702,0.1356549,0.24011,-40.22172,-30.97154,-33.11605
25.493049622,9.59931099999998,-31.68732,20.40338,0.7666187,0.1377051,0.2472713,-40.22172,-30.97154,-33.11605
25.502961636,5.635276,-34.42516,22.06018,0.78724,0.158246,0.2318524,-40.22172,-30.97154,-33.11605
25.515350819,3.715197,-38.21154,21.56927,0.8235588,0.1843751,0.2278493,-40.22172,-30.97154,-33.11605
25.525262833,4.706205,-42.17268,20.28065,0.8530096,0.170655,0.2226839,-40.96888,-30.58994,-31.37871
25.535174847,7.617294,-46.77458,17.94886,0.8929446,0.1503466,0.2308222,-40.96888,-30.58994,-31.37871
25.545086861,10.90001,-48.98816,16.2307,0.9109471,0.1283361,0.2439535,-40.96888,-30.58994,-31.37871
25.554998875,15.91699,-49.22116,16.10798,0.8995413,0.09957994,0.2424269,-40.96888,-30.58994,-31.37871
25.564910889,20.12878,-48.58039,18.07159,0.8902907,0.1128945,0.2142718,-40.96888,-30.58994,-31.37871
25.574821949,21.42948,-49.27942,19.42157,0.9106328,0.1969442,0.1983183,-42.84229,-29.83228,-29.25121
25.584733963,17.83707,-49.97844,18.93067,0.9298635,0.2796972,0.2154972,-42.84229,-29.83228,-29.25121
25.594645977,15.04986,-52.25026,18.43977,0.9445253,0.2586622,0.2377889,-42.84229,-29.83228,-29.25121
25.604557991,19.13777,-55.57063,20.46474,0.9139153,0.1754596,0.2548034,-42.84229,-29.83228,-29.25121
25.614470005,24.46444,-59.2405,22.98062,0.904895,0.152069,0.2537707,-42.84229,-29.83228,-29.25121
25.624382019,19.0139,-63.08513,22.73517,0.9271709,0.1610186,0.2430608,-45.4513,-29.8202,-26.21809
25.634293079,9.78512499999999,-63.3181399999999,23.28744,0.9573185,0.1795991,0.2006519,-45.4513,-29.8202,-26.21809
25.644205093,3.467444,-61.9200900000003,22.36699,0.9951457,0.2250321,0.1756365,-45.4513,-29.8202,-26.21809
25.654117107,4.953958,-56.50266,22.67381,0.9954141,0.2149279,0.1899715,-45.4513,-29.8202,-26.21809
25.664029121,12.63428,-53.47356,25.55787,0.9431753,0.1716357,0.1949677,-45.4513,-29.8202,-26.21809
25.673941135,16.4125,-56.61916,27.33739,0.9111235,0.1852439,0.1847913,-47.32496,-28.6827,-22.80686
25.683852196,14.3066,-62.0365999999998,24.39197,0.9542053,0.223611,0.1870493,-47.32496,-28.6827,-22.80686
25.69376421,9.28962000000002,-63.6676500000001,22.18291,0.9986567,0.2299989,0.1900419,-47.32496,-28.6827,-22.80686
25.703676224,8.67023999999999,-61.6870799999998,21.99882,1.022031,0.1900032,0.1813966,-47.32496,-28.6827,-22.80686
25.713588238,12.5104,-58.9492399999999,21.50791,1.01077,0.1569323,0.1889629,-47.32496,-28.6827,-22.80686
25.723500252,13.93497,-57.9589599999998,22.24427,1.001219,0.1374166,0.1884411,-48.76498,-27.54858,-20.23307
25.733412266,11.7052,-56.79392,23.10335,1.026495,0.1866771,0.1837339,-48.76498,-27.54858,-20.23307
25.743323326,7.369542,-58.01721,20.83292,1.057285,0.2411928,0.1506814,-48.76498,-27.54858,-20.23307
25.75323534,7.55535600000002,-59.88128,20.83292,1.04611,0.254011,0.1249416,-48.76498,-27.54858,-20.23307
25.763147354,8.67023999999999,-63.9589100000002,21.99882,1.030558,0.2804456,0.117579,-48.76498,-27.54858,-20.23307
25.773059368,5.263648,-65.8229800000002,23.04198,0.9901947,0.2737106,0.1313519,-50.26438,-26.41106,-16.82379
25.782971382,0.5563561,-66.6967500000001,23.65561,0.9451051,0.1950525,0.1245226,-50.26438,-26.41106,-16.82379
25.792883396,-2.664423,-68.9685799999999,23.90107,0.9551332,0.1465239,0.09193599,-50.26438,-26.41106,-16.82379
25.805272579,-5.389697,-70.3666300000002,20.83292,1.057734,0.1433775,0.07992251,-50.26438,-26.41106,-16.82379
25.815184593,-3.531555,-65.8229800000002,18.86931,1.138013,0.1327205,0.07574797,-50.26438,-26.41106,-16.82379
25.825096607,5.94496599999999,-57.20168,18.50113,1.079555,0.1320988,0.09645111,-52.13319,-25.64816,-13.4114
25.835008621,10.77613,-54.17258,18.50113,0.9975901,0.1528672,0.09110545,-52.13319,-25.64816,-13.4114
25.844920635,9.04186800000002,-56.85217,18.68522,0.961564,0.2217554,0.09189755,-52.13319,-25.64816,-13.4114
25.854831696,0.804108299999999,-58.4249699999999,18.74658,0.9859974,0.2796061,0.06276733,-52.13319,-25.64816,-13.4114
25.86474371,-8.176909,-55.62888,19.29885,1.029408,0.3115546,0.0419319,-52.13319,-25.64816,-13.4114
25.874655724,-17.09599,-52.71628,20.46474,1.044601,0.3068847,0.03983965,-52.89054,-24.13781,-10.45687
25.884567738,-27.19189,-52.59978,22.30563,1.050104,0.2687283,0.05489963,-52.89054,-24.13781,-10.45687
25.894479752,-34.43864,-56.2114,23.71698,1.04611,0.2318116,0.05132951,-52.89054,-24.13781,-10.45687
25.904390812,-41.18989,-60.05603,24.63742,1.023342,0.1772488,0.05597816,-52.89054,-24.13781,-10.45687
25.914302826,-45.21586,-62.9686300000002,25.37378,0.9931993,0.1157441,0.04864481,-52.89054,-24.13781,-10.45687
25.92421484,-42.6764,-64.42493,24.88287,0.9794641,0.0723832,0.04128059,-54.3964,-22.62752,-7.498446
25.934126854,-40.01307,-63.3763900000001,23.3488,0.9816742,0.05107661,0.0411182,-54.3964,-22.62752,-7.498446
25.944038868,-41.49958,-58.5997300000002,21.99882,0.9885545,0.0287414,0.01833834,-54.3964,-22.62752,-7.498446
25.953950882,-39.14594,-52.54152,20.15793,0.988044,0.01116303,-0.004341478,-54.3964,-22.62752,-7.498446
25.963861942,-34.37671,-47.93962,17.82614,0.9950719,0.004514455,0.005632556,-54.3964,-22.62752,-7.498446
25.973773956,-31.83724,-46.36682,15.80116,0.9965265,-0.002302837,-0.003549319,-54.779,-21.49671,-5.765356
25.98368597,-28.30678,-48.63864,14.20573,0.994072,0.005218085,-0.04332965,-54.779,-21.49671,-5.765356
25.993597984,-21.30778,-53.53181,11.62849,1.031195,-0.00409269,-0.05813975,-54.779,-21.49671,-5.765356
26.003509998,-16.29079,-56.26965,10.09441,1.083881,-0.02227086,-0.04386319,-54.779,-21.49671,-5.765356
26.013422012,-12.8842,-54.05608,9.787598,1.116832,-0.01981017,-0.02254442,-54.779,-21.49671,-5.765356
26.023333073,-9.78729900000003,-49.22116,9.35805800000003,1.118446,-0.01727627,-0.005256767,-55.52964,-20.73895,-3.643698
26.033245087,-16.7863,-57.3764400000003,2.792227,1.039077,-0.001764331,-0.002018618,-55.52964,-20.73895,-3.643698
26.043157101,-19.51157,-53.00754,9.54214699999998,1.115869,-0.0295616,0.06286768,-55.52964,-20.73895,-3.643698
26.053069115,-3.965122,-42.17268,10.33986,1.178324,-0.03274927,0.04594347,-55.52964,-20.73895,-3.643698
26.062981129,0.1847278,-40.0756,9.05124299999999,1.154585,-0.03148025,-0.02633242,-55.52964,-20.73895,-3.643698
26.075370312,8.732179,-38.32804,6.41263799999999,1.127514,0.04808173,-0.04571867,-55.90982,-19.66874,-1.460705
26.085282326,14.12079,-32.73586,3.835396,1.162935,0.1191181,0.01060551,-55.90982,-19.66874,-1.460705
26.09519434,14.74017,-25.0466,3.28313,1.193581,0.09406458,0.06105195,-55.90982,-19.66874,-1.460705
26.105106354,13.68722,-17.82336,3.405856,1.184559,0.05336066,0.08727292,-55.90982,-19.66874,-1.460705
26.115017891,14.43048,-13.68747,3.958122,1.166657,0.0376226,0.08733364,-55.90982,-19.66874,-1.460705
26.124929905,15.54536,-10.71662,4.14221,1.154158,0.0573269,0.08373924,-55.90895,-18.90752,1.492242
26.134841442,14.67823,-8.61954700000002,3.528581,1.12946,0.08883713,0.04864586,-55.90895,-18.90752,1.492242
26.144753456,12.5104,-7.454507,2.853589,1.095167,0.1110531,0.02078168,-55.90895,-18.90752,1.492242
26.15466547,10.28063,-5.415688,2.055871,1.1013,0.1071135,-0.005709984,-55.90895,-18.90752,1.492242
26.164577484,9.53737299999999,-2.328334,1.81042,1.100213,0.09680099,-0.02833608,-55.90895,-18.90752,1.492242
26.174489021,9.22768300000001,0.817271699999998,1.871783,1.088173,0.06698763,-0.04522889,-55.51934,-19.96701,1.943276
26.184401035,9.04186800000002,3.613366,2.608138,1.049537,0.05381666,-0.06128469,-55.51934,-19.96701,1.943276
26.194312573,10.03288,5.593933,2.792227,1.012525,0.05318031,-0.09503786,-55.51934,-19.96701,1.943276
26.204224587,11.02389,6.17645200000001,2.117234,0.9855798,0.04940182,-0.104417,-55.51934,-19.96701,1.943276
26.214136601,11.89102,7.10848400000002,1.38088,0.9791858,0.05174174,-0.1053026,-55.51934,-19.96701,1.943276
26.224048615,11.95296,8.27352199999998,0.3377102,0.9934283,0.05097628,-0.1001577,-55.91081,-18.52953,2.326268
26.233960152,11.82908,9.55506599999997,0.03089567,1.020503,0.04262732,-0.09230101,-55.91081,-18.52953,2.326268
26.243872166,11.45745,11.47738,-0.03046724,1.029408,0.04132811,-0.08374918,-55.91081,-18.52953,2.326268
26.253783703,11.45745,13.05018,-0.1531931,1.025467,0.03931233,-0.08900788,-55.91081,-18.52953,2.326268
26.263695717,12.13877,14.15697,-0.3372818,1.021319,0.04304273,-0.1076708,-55.91081,-18.52953,2.326268
26.273607731,12.94397,15.78803,-0.889547900000002,1.019494,0.05942339,-0.1233901,-55.53793,-18.53107,1.938853
26.283519745,14.92598,16.83656,-1.380451,1.018039,0.07379706,-0.1530506,-55.53793,-18.53107,1.938853
26.293431282,15.91699,16.07928,-1.56454,1.003517,0.1012465,-0.154174,-55.53793,-18.53107,1.938853
26.303342819,16.28862,15.03075,-1.441814,0.9788047,0.1300712,-0.1460709,-55.53793,-18.53107,1.938853
26.313254833,14.49242,13.74921,-1.99408,0.9676116,0.1604414,-0.1529674,-55.53793,-18.53107,1.938853
26.323166847,6.56434699999999,11.41913,-3.03725,0.9704477,0.1706712,-0.1505247,-55.9041,-19.28212,1.493396
26.333078861,-0.682404900000003,10.72011,-3.282701,0.9960139,0.1505747,-0.1604982,-55.9041,-19.28212,1.493396
26.342990875,-2.230856,12.11815,-3.159976,0.9988474,0.11471,-0.1646045,-55.9041,-19.28212,1.493396
