Time (s),Gyroscope X (deg/s),Gyroscope Y (deg/s),Gyroscope Z (deg/s),Accelerometer X (g),Accelerometer Y (g),Accelerometer Z (g),Magnetometer X (uT),Magnetometer Y (uT),Magnetometer Z (uT)
0,1.299613,1.108532,-0.3986447,1.004434,-0.09798378,0.2262161,-40.55888,-27.19158,-9.419188
0.019816399,0.7421702,0.2347521,-0.7668222,0.9790201,-0.1521941,0.2116852,-40.91699,-28.31356,-8.964067
0.019816399,0.7421702,0.2347521,-0.7668222,0.9790201,-0.1521941,0.2116852,-40.91699,-28.31356,-8.964067
0.029724598,2.786126,-0.6390273,-0.3372818,0.9768914,-0.1406012,0.208421,-40.91699,-28.31356,-8.964067
0.03963232,4.086825,-2.153579,-0.09183015,0.9721237,-0.1110911,0.2072212,-40.91699,-28.31356,-8.964067
0.049540997,3.715197,-2.677846,-0.09183015,0.9843988,-0.1133505,0.2094935,-40.91699,-28.31356,-8.964067
0.059449196,3.343568,-1.862319,-0.03046724,0.9960781,-0.1161594,0.2007239,-40.91699,-28.31356,-8.964067
0.069356918,3.653259,-1.163295,-0.1531931,1.003354,-0.114147,0.1973089,-40.9283,-27.5662,-9.416087
0.079265595,3.467444,-0.8137832,-0.3372818,1.006627,-0.1024745,0.1963961,-40.9283,-27.5662,-9.416087
0.089173794,2.786126,-0.5807754,-0.3372818,0.9982758,-0.09381837,0.202773,-40.9283,-27.5662,-9.416087
0.099081516,1.175737,-0.2312636,-0.3372818,0.984641,-0.1017655,0.1990049,-40.9283,-27.5662,-9.416087
0.108990192,-0.2488386,-0.1147597,0.2763473,0.9907496,-0.0847417,0.1947404,-40.9283,-27.5662,-9.416087
0.118898392,-1.301785,0.2347521,0.1536215,0.9929006,-0.1031523,0.1921971,-41.68166,-27.19167,-9.413349
0.128806114,-1.859228,0.1765001,0.460436,0.987072,-0.1051567,0.1936781,-41.68166,-27.19167,-9.413349
0.13871479,-2.788299,-0.9302871,0.1536215,0.9785436,-0.08537322,0.1958094,-41.68166,-27.19167,-9.413349
0.14862299,-4.770316,-1.279799,-0.2759189,0.9932821,-0.08466548,0.2033604,-41.68166,-27.19167,-9.413349
0.158530712,-4.522564,-1.862319,-0.1531931,0.9833757,-0.1260692,0.1902119,-41.68166,-27.19167,-9.413349
0.168439388,-2.168918,-1.338051,0.03089567,0.9827608,-0.1502828,0.1972586,-40.9283,-27.5662,-9.416087
0.178347111,0.1847278,-0.5225234,0.2149844,0.9902025,-0.1506229,0.2072708,-40.9283,-27.5662,-9.416087
0.18825531,1.05186,0.293004,0.09225857,0.979228,-0.135261,0.2041136,-40.9283,-27.5662,-9.416087
0.198163986,0.5563561,0.8172717,0.2149844,1.002644,-0.1213367,0.2150334,-40.9283,-27.5662,-9.416087
0.208071709,-0.6824049,0.9920276,0.09225857,1.001062,-0.1067806,0.2209069,-40.9283,-27.5662,-9.416087
0.217979908,-2.788299,0.8172717,0.460436,0.9869117,-0.1079186,0.2224707,-40.9283,-27.5662,-9.416087
0.227888584,-4.274812,1.225035,0.5217989,0.9864611,-0.1181487,0.214244,-40.92669,-27.56437,-8.966375
0.240272999,-4.088998,0.9920276,0.5831618,0.9665327,-0.1437037,0.196012,-40.92669,-27.56437,-8.966375
0.250181675,-2.912175,0.8172717,0.3990731,0.9782552,-0.1406364,0.1983248,-40.92669,-27.56437,-8.966375
0.260089874,-1.4876,0.46776,0.09225857,0.9823922,-0.1309624,0.1839463,-40.92669,-27.56437,-8.966375
0.26999855,-0.4346527,-0.1730116,-0.09183015,0.9896589,-0.1187107,0.1916433,-41.30255,-27.56623,-9.414141
0.279906273,-0.2488386,-0.4642715,-0.214556,0.9851125,-0.1110367,0.1864547,-41.30255,-27.56623,-9.414141
0.289814472,-0.3107767,-0.4642715,-0.2759189,1.001803,-0.1029895,0.2021992,-41.30255,-27.56623,-9.414141
0.299722672,-0.4346527,-0.1730116,-0.3372818,0.9989281,-0.1108004,0.1988126,-41.30255,-27.56623,-9.414141
0.309630871,-0.001086392,-0.2312636,-0.214556,0.9805286,-0.1328902,0.1906729,-41.30255,-27.56623,-9.414141
0.319538593,0.6802322,0.001744238,-0.09183015,0.9878098,-0.1313626,0.1872546,-40.93233,-27.25404,-9.417049
0.32944727,1.05186,0.2347521,0.1536215,0.9844559,-0.1391745,0.1848328,-40.93233,-27.25404,-9.417049
0.339355469,0.43248,-0.1730116,0.2149844,0.9821918,-0.1071642,0.1922694,-40.93233,-27.25404,-9.417049
0.349263191,-0.9301572,0.293004,0.1536215,0.9915448,-0.1075031,0.1979425,-40.93233,-27.25404,-9.417049
0.359171867,-1.301785,-0.5225234,0.3377102,0.9920173,-0.1118958,0.1911867,-40.93233,-27.25404,-9.417049
0.369080067,-1.363724,-0.2895156,0.3377102,0.9981141,-0.1092639,0.2165962,-40.92184,-27.93897,-8.965221
0.378987789,-1.115971,0.2347521,-0.09183015,0.9928235,-0.1219684,0.2103184,-40.92184,-27.93897,-8.965221
0.388896465,-0.6824049,0.5842639,-0.3986447,0.9928471,-0.1161025,0.2194803,-40.92184,-27.93897,-8.965221
0.398804665,-0.8682191,0.6425158,-0.7668222,0.9737979,-0.1226722,0.2138508,-40.92184,-27.93897,-8.965221
0.408712387,-1.177909,-0.5807754,-0.5827335,0.9723139,-0.1266019,0.2075963,-40.92184,-27.93897,-8.965221
0.418621063,-1.735352,-1.105043,-0.3372818,0.9708439,-0.1354025,0.1969878,-40.91699,-28.31356,-8.964067
0.428529263,-1.611476,-1.745815,-0.3372818,0.9870787,-0.1429537,0.1977476,-40.91699,-28.31356,-8.964067
0.438437939,-0.744343,-1.687563,-0.1531931,0.9913694,-0.1341753,0.1972863,-40.91699,-28.31356,-8.964067
0.448345661,-0.4346527,-1.279799,-0.2759189,0.978606,-0.1294827,0.1979157,-40.91699,-28.31356,-8.964067
0.458253861,0.06085166,-1.163295,-0.214556,0.9899399,-0.1410035,0.1929326,-40.91699,-28.31356,-8.964067
0.468162537,1.113798,0.46776,-0.09183015,1.003097,-0.1311055,0.2000792,-41.29124,-28.31359,-8.962121
0.478070259,1.299613,0.5842639,-0.2759189,1.000444,-0.1083175,0.2064976,-41.29124,-28.31359,-8.962121
0.487978459,0.7421702,0.2347521,-0.214556,0.9911272,-0.1035696,0.2094964,-41.29124,-28.31359,-8.962121
0.50036335,-0.806281,-0.6390273,-0.3986447,0.9839844,-0.1245374,0.2036609,-41.29124,-28.31359,-8.962121
0.510272026,-0.9301572,-0.8137832,-0.3372818,0.9901229,-0.1211566,0.1863409,-41.29124,-28.31359,-8.962121
0.520180225,0.1227897,-1.454555,-0.214556,0.9842088,-0.1246689,0.1777294,-40.93211,-27.25378,-9.352804
0.530087948,1.547365,-1.338051,0.03089567,0.9873245,-0.133318,0.1853255,-40.93211,-27.25378,-9.352804
0.539996624,2.290622,-0.8720351,0.03089567,0.9888824,-0.1269108,0.2016791,-40.93211,-27.25378,-9.352804
0.549904823,2.97194,-0.6390273,-0.2759189,0.986898,-0.129877,0.1954357,-40.93211,-27.25378,-9.352804
0.559812546,3.343568,0.1765001,-0.3986447,1.009029,-0.1241691,0.2144753,-40.93211,-27.25378,-9.352804
0.569721222,4.024887,1.632799,-0.3372818,1.002042,-0.1155482,0.2107561,-41.29529,-28.00143,-8.963082
0.579629421,3.343568,0.9920276,-0.1531931,0.9818214,-0.1075965,0.2033136,-41.29529,-28.00143,-8.963082
0.589537144,1.795117,-0.1147597,0.03089567,0.9807724,-0.1008164,0.2043288,-41.29529,-28.00143,-8.963082
0.59944582,0.3086039,-0.5807754,-0.03046724,0.9890462,-0.1046349,0.1960641,-41.29529,-28.00143,-8.963082
0.609354019,-0.5585288,-0.4060195,-0.1531931,0.9870096,-0.1032379,0.1898502,-41.29529,-28.00143,-8.963082
0.619262218,-1.177909,-0.5807754,-0.4600076,0.9787164,-0.1101613,0.1836387,-41.29529,-28.00143,-8.963082
0.629170418,-0.6824049,0.1765001,-0.3986447,1.000929,-0.1273381,0.183799,-41.29529,-28.00143,-8.963082
0.63907814,0.1847278,1.108532,-0.2759189,1.005777,-0.1107129,0.19923,-41.29529,-28.00143,-8.963082
0.648986816,-0.001086392,0.409508,-0.6440963,0.9856815,-0.1012329,0.2057211,-41.29529,-28.00143,-8.963082
0.658895016,-1.115971,-0.7555313,-1.012274,0.9837781,-0.0948886,0.218265,-41.29529,-28.00143,-8.963082
0.668802738,-2.664423,-1.687563,-0.9509109,0.9827313,-0.09737567,0.208655,-41.6744,-27.62686,-8.96229
0.678711414,-3.593493,-2.677846,-0.9509109,0.9764007,-0.09744187,0.2111139,-41.6744,-27.62686,-8.96229
0.688619614,-4.02706,-3.318618,-0.7054592,0.9760659,-0.1173678,0.2028216,-41.6744,-27.62686,-8.96229
0.69852829,-4.02706,-3.260366,-0.1531931,0.9771172,-0.1280491,0.1974589,-41.6744,-27.62686,-8.96229
0.708436012,-3.655432,-1.804067,-0.03046724,0.9923217,-0.1229568,0.2079157,-41.6744,-27.62686,-8.96229
0.718344212,-4.150936,-1.396303,-0.1531931,0.991262,-0.1103287,0.2147319,-41.29667,-28.003,-9.348551
0.728252888,-4.894192,-1.571059,-0.3372818,1.007309,-0.09797792,0.2204276,-41.29667,-28.003,-9.348551
0.73816061,-6.87621,-1.862319,-0.7054592,0.9975464,-0.1010183,0.218577,-41.29667,-28.003,-9.348551
0.748068809,-9.044043,-2.619594,-0.6440963,0.9768909,-0.1008497,0.2072454,-41.29667,-28.003,-9.348551
0.757977486,-10.90218,-4.367153,-0.214556,0.9792076,-0.1140565,0.1792868,-41.29667,-28.003,-9.348551
0.770362377,-11.27381,-4.308901,0.3990731,0.9900962,-0.1172681,0.1882877,-40.55647,-27.25218,-8.969282
0.780270576,-10.59249,-5.706948,0.2763473,0.9851964,-0.1246517,0.1786807,-40.55647,-27.25218,-8.969282
0.790178299,-10.22087,-5.706948,-0.03046724,0.9845493,-0.1366868,0.1968525,-40.55647,-27.25218,-8.969282
0.800086975,-8.79629,-5.47394,0.09225857,0.9920146,-0.1418928,0.203471,-40.55647,-27.25218,-8.969282
0.809995174,-7.000086,-4.774917,-0.2759189,1.0019,-0.1500077,0.2042858,-40.55647,-27.25218,-8.969282
0.819903851,-3.71737,-5.532192,-0.8281851,0.9830797,-0.1537798,0.1765855,-40.93695,-26.87918,-9.353958
0.829811573,-3.469617,-5.881704,-1.319088,0.9851322,-0.1585831,0.1803758,-40.93695,-26.87918,-9.353958
0.839719772,-1.735352,-5.939956,-1.257725,0.9992692,-0.1525742,0.1831661,-40.93695,-26.87918,-9.353958
0.849628448,-1.239847,-5.7652,-1.135,0.9913116,-0.1346932,0.1910413,-40.93695,-26.87918,-9.353958
0.859536171,-0.2488386,-7.046743,-1.257725,0.9957272,-0.1165815,0.2136886,-40.93695,-26.87918,-9.353958
0.869444847,-1.549538,-6.114712,-1.503177,1.001134,-0.1272311,0.2039645,-41.30983,-26.87764,-8.966544
0.879353046,-1.054033,-6.871987,-1.503177,0.9986871,-0.1204336,0.2117149,-41.30983,-26.87764,-8.966544
0.889260769,-2.540546,-7.396255,-1.319088,1.006427,-0.1076961,0.2184504,-41.30983,-26.87764,-8.966544
0.899169445,-4.894192,-8.852554,-1.56454,0.9974368,-0.08400216,0.2278144,-41.30983,-26.87764,-8.966544
0.909077644,-8.858228,-11.41564,-2.055443,0.9855109,-0.06961431,0.2260999,-41.30983,-26.87764,-8.966544
0.918985367,-13.75133,-13.86222,-2.484983,0.9723899,-0.07510334,0.2276252,-40.92588,-27.6268,-8.966183
0.928894043,-18.33475,-16.94958,-2.362258,0.9684011,-0.08348513,0.2103205,-40.92588,-27.6268,-8.966183
0.938801765,-21.86522,-19.62917,-2.178169,0.9614757,-0.09531984,0.1886986,-40.92588,-27.6268,-8.966183
0.948710442,-24.46662,-21.20197,-1.441814,0.9608244,-0.09492265,0.1733422,-40.92588,-27.6268,-8.966183
0.958618641,-25.76732,-21.78449,-1.196362,0.9553873,-0.115996,0.1430022,-40.92588,-27.6268,-8.966183
0.968526363,-24.40468,-21.84274,-0.3372818,0.963293,-0.1456114,0.116323,-40.59888,-28.68657,-8.579067
0.97843504,-23.22786,-20.85246,1.319517,0.9882322,-0.1438346,0.118505,-40.59888,-28.68657,-8.579067
0.988343239,-21.80328,-17.41559,1.38088,1.006752,-0.1553407,0.09905074,-40.59888,-28.68657,-8.579067
0.998251915,-16.47661,-13.10495,0.9513392,1.016856,-0.1891956,0.09104923,-40.59888,-28.68657,-8.579067
1.008159637,-6.628458,-7.978775,0.2763473,1.067582,-0.2288639,0.07975235,-40.59888,-28.68657,-8.579067
1.018067837,1.299613,-2.095326,1.258154,1.03411,-0.1662299,0.08384028,-41.29876,-27.62527,-8.578769
1.027976513,5.759152,-0.1147597,1.012702,1.001511,-0.1126582,0.1147486,-41.29876,-27.62527,-8.578769
1.040361404,5.759152,-0.6390273,-0.09183015,0.9830598,-0.08331559,0.1141544,-41.29876,-27.62527,-8.578769
1.050269604,4.272639,-1.804067,-0.1531931,0.9854681,-0.08232839,0.111738,-41.29876,-27.62527,-8.578769
1.060177803,3.28163,-2.50309,-0.5213705,0.9907655,-0.08132766,0.1049734,-41.29876,-27.62527,-8.578769
1.070086002,3.033878,-2.677846,-0.9509109,1.000284,-0.09182423,0.1148988,-41.67302,-27.6253,-8.576822
1.079994202,3.591321,-1.920571,-0.8895479,1.000782,-0.09425231,0.1129574,-41.67302,-27.6253,-8.576822
1.089902878,4.210701,-1.629311,-0.2759189,0.9950303,-0.1059729,0.1105317,-41.67302,-27.6253,-8.576822
1.0998106,4.830081,-1.512807,0.3377102,1.003052,-0.105284,0.1306287,-41.67302,-27.6253,-8.576822
1.1097188,5.263648,-0.4060195,0.5831618,1.012003,-0.1075349,0.1425349,-41.67302,-27.6253,-8.576822
1.119627476,5.015896,0.351256,0.6445247,1.006779,-0.1163025,0.1473264,-41.3036,-27.25067,-8.579923
1.129535198,4.210701,1.108532,0.7672505,1.007978,-0.1278821,0.1554009,-41.3036,-27.25067,-8.579923
1.139443874,3.28163,1.458043,0.7058876,1.000154,-0.1265172,0.1569228,-41.3036,-27.25067,-8.579923
1.149352074,2.848064,0.9337757,0.5217989,0.9840695,-0.1315707,0.1560776,-41.3036,-27.25067,-8.579923
1.159259796,0.9279844,0.1182482,-0.1531931,0.9847401,-0.1397628,0.1641795,-41.3036,-27.25067,-8.579923
1.169168472,-0.3727147,-0.05650773,-0.3372818,0.9912187,-0.156205,0.1568076,-41.29738,-27.6237,-8.1933
1.179076672,0.9899224,-0.2312636,-0.5213705,0.9990094,-0.1658801,0.1422664,-41.29738,-27.6237,-8.1933
1.188985348,3.839073,0.8172717,-0.09183015,1.01167,-0.1730655,0.128657,-41.29738,-27.6237,-8.1933
1.19889307,7.43148,1.516295,0.460436,0.9928671,-0.1597552,0.1226775,-41.29738,-27.6237,-8.1933
1.20880127,8.856054,1.225035,0.460436,0.9785746,-0.1370645,0.1383259,-41.29738,-27.6237,-8.1933
1.218709469,9.227683,0.7590198,0.5217989,0.9830033,-0.1340679,0.144547,-41.68134,-26.87454,-8.193663
1.228617668,8.484426,0.2347521,0.1536215,0.9897633,-0.128173,0.1430833,-41.68134,-26.87454,-8.193663
1.238526344,7.183728,-0.4060195,-0.3372818,0.9952725,-0.1097494,0.1297106,-41.68134,-26.87454,-8.193663
1.248434067,5.635276,-0.7555313,-0.8281851,1.001583,-0.1038402,0.1320924,-41.68134,-26.87454,-8.193663
1.258342266,3.033878,-1.105043,-1.380451,1.011618,-0.07407659,0.1442019,-41.68134,-26.87454,-8.193663
1.268250942,0.3086039,-0.8137832,-1.871354,1.009152,-0.06728929,0.1500318,-41.28954,-27.9949,-7.356967
1.278158665,-1.4876,-1.571059,-1.99408,0.9983953,-0.07474064,0.1414388,-41.28954,-27.9949,-7.356967
1.288067341,-2.045042,-1.978823,-1.748629,0.998076,-0.07904869,0.1529368,-41.28954,-27.9949,-7.356967
1.29797554,-2.478608,-1.629311,-1.809992,0.9973364,-0.09405884,0.1586056,-41.28954,-27.9949,-7.356967
1.310360909,-2.602484,-1.163295,-1.687266,0.9930917,-0.1091548,0.1561435,-41.29115,-27.99673,-7.80668
1.320268631,-2.788299,-0.8720351,-1.319088,1.001937,-0.1124365,0.1565199,-41.29115,-27.99673,-7.80668
1.330177307,-3.159927,-0.3477675,-1.196362,1.009411,-0.1200766,0.1612015,-41.29115,-27.99673,-7.80668
1.34008503,-3.221865,0.1182482,-1.012274,1.004106,-0.1303496,0.1563805,-41.29115,-27.99673,-7.80668
1.349993706,-3.71737,-0.05650773,-0.9509109,0.9964131,-0.1337944,0.1650716,-41.29115,-27.99673,-7.80668
1.359901905,-4.522564,-0.5807754,-0.8895479,0.9939604,-0.1318779,0.1665475,-41.65895,-28.36952,-7.353867
1.369809628,-6.380706,-1.804067,-1.012274,0.979132,-0.126291,0.1575989,-41.65895,-28.36952,-7.353867
1.379718304,-7.681405,-3.318618,-1.012274,0.9892325,-0.1213716,0.1469747,-41.65895,-28.36952,-7.353867
1.389626503,-8.300786,-3.726381,-0.7668222,1.007431,-0.1308453,0.1462632,-41.65895,-28.36952,-7.353867
1.399535179,-6.071015,-2.270082,-0.2759189,1.016491,-0.154991,0.1431376,-41.65895,-28.36952,-7.353867
1.409442902,-3.283803,-0.7555313,-0.03046724,1.007319,-0.1623629,0.1460542,-41.29439,-27.6203,-7.358121
1.419351101,-1.859228,-0.2895156,-0.2759189,0.9985583,-0.1624519,0.1499759,-41.29439,-27.6203,-7.358121
1.429259777,-1.735352,0.1765001,-0.3372818,0.9872048,-0.1509412,0.1530386,-41.29439,-27.6203,-7.358121
1.4391675,-1.549538,0.001744238,-0.3986447,0.9933802,-0.138273,0.1501849,-41.29439,-27.6203,-7.358121
1.449076176,-1.921166,0.0599962,-0.5827335,0.9985729,-0.1202535,0.1531379,-41.29439,-27.6203,-7.358121
1.458984375,-2.230856,-0.5225234,-0.8895479,0.996308,-0.1038535,0.1422244,-41.29738,-27.6237,-8.1933
1.468892098,-2.974113,-1.920571,-0.8895479,0.9920886,-0.07723334,0.1434011,-41.29738,-27.6237,-8.1933
1.478800774,-4.770316,-2.561342,-1.012274,0.9960238,-0.06644034,0.1583215,-41.29738,-27.6237,-8.1933
1.488708973,-7.619467,-3.609878,-1.135,0.9921923,-0.07766718,0.1530004,-41.29738,-27.6237,-8.1933
1.498617172,-11.45963,-5.18268,-1.012274,0.9910886,-0.09652098,0.1663295,-41.29738,-27.6237,-8.1933
1.508525372,-16.04304,-6.988491,-1.503177,0.9758666,-0.09479299,0.1621603,-41.29738,-27.6237,-8.1933
1.518434048,-20.93615,-9.260318,-2.362258,0.9822159,-0.0995951,0.1558276,-41.66194,-28.37292,-8.189047
1.52834177,-26.75833,-11.88166,-3.098613,0.986057,-0.09616826,0.1529339,-41.66194,-28.37292,-8.189047
1.53824997,-33.3857,-16.0758,-4.141782,1.002767,-0.1066476,0.1488683,-41.66194,-28.37292,-8.189047
1.548158646,-39.45562,-18.9884,-4.509959,1.017752,-0.1336164,0.1480699,-41.66194,-28.37292,-8.189047
1.558066368,-43.4816,-22.25051,-4.509959,1.032131,-0.1582131,0.13865,-41.66194,-28.37292,-8.189047
1.567975044,-44.84423,-26.21164,-5.553129,1.036689,-0.1800277,0.1283793,-41.29876,-27.62527,-8.578769
1.580360412,-45.21586,-30.34753,-7.332653,1.027979,-0.1996026,0.1144048,-41.29876,-27.62527,-8.578769
1.590268612,-42.36671,-31.92033,-6.228121,1.014518,-0.1964876,0.0929429,-41.29876,-27.62527,-8.578769
1.600176334,-35.05802,-29.70676,-5.614491,0.8907635,-0.08563574,0.07561958,-41.29876,-27.62527,-8.578769
1.61008501,-26.57251,-30.23102,-17.21208,0.8904878,-0.09236012,0.0885416,-40.98389,-27.62184,-7.745211
1.619992733,-8.672414,-13.86222,-5.000863,1.050376,-0.1203636,0.007170106,-40.98389,-27.62184,-7.745211
1.629901409,2.166745,-3.027358,-0.5827335,1.039828,-0.08624323,0.06751474,-40.98389,-27.62184,-7.745211
1.639809608,4.706205,0.5842639,-0.03046724,1.061584,-0.1021848,0.1200247,-40.98389,-27.62184,-7.745211
1.649717331,3.405506,2.448327,-0.1531931,1.033908,-0.109262,0.130797,-40.98389,-27.62184,-7.745211
1.659626007,2.166745,1.341539,0.09225857,1.000398,-0.08200862,0.1375306,-41.65895,-28.36952,-7.353867
1.669534206,-0.6204669,-0.2312636,0.1536215,0.991716,-0.05303701,0.1354031,-41.65895,-28.36952,-7.353867
1.679442882,-4.708378,-3.08561,-0.03046724,0.9863091,-0.03775763,0.1029041,-41.65895,-28.36952,-7.353867
1.689350605,-8.176909,-4.774917,0.2763473,1.001314,-0.03862304,0.08691435,-41.65895,-28.36952,-7.353867
1.699259281,-9.167918,-5.357436,1.564968,1.005127,-0.0600888,0.05216468,-41.65895,-28.36952,-7.353867
1.70916748,-8.4866,-5.299184,2.23996,0.9947197,-0.08687071,0.05496346,-41.66679,-27.99832,-8.190201
1.719075203,-7.619467,-4.774917,2.424049,0.9943097,-0.1265875,0.06382567,-41.66679,-27.99832,-8.190201
1.728983879,-7.123962,-5.240932,2.178597,1.0001,-0.1511839,0.07513204,-41.66679,-27.99832,-8.190201
1.738892078,-6.318768,-5.939956,2.055871,0.9998021,-0.1618223,0.08130598,-41.66679,-27.99832,-8.190201
1.748800278,-5.389697,-6.871987,1.871783,1.002545,-0.1487143,0.07800684,-41.66679,-27.99832,-8.190201
1.758708477,-4.398688,-7.804019,0.8899763,1.009224,-0.1360324,0.07658909,-41.66518,-27.99649,-7.740489
1.768617153,-3.655432,-8.328286,-0.03046724,1.011695,-0.1291588,0.0871755,-41.66518,-27.99649,-7.740489
1.778524876,-3.036051,-7.396255,-0.5213705,1.010657,-0.1204218,0.09156474,-41.66518,-27.99649,-7.740489
1.788433075,-2.850237,-6.930239,-1.257725,1.004903,-0.1311677,0.09010588,-41.66518,-27.99649,-7.740489
1.798341751,-2.974113,-7.046743,-1.932717,0.9991036,-0.1516936,0.07273708,-41.66518,-27.99649,-7.740489
1.808249474,-2.478608,-7.629263,-1.871354,0.9941316,-0.1517977,0.06461968,-41.29577,-27.62187,-7.743588
1.81815815,-1.549538,-7.920523,-1.687266,0.9935346,-0.1382015,0.06999752,-41.29577,-27.62187,-7.743588
1.828066349,-0.744343,-8.561295,-1.809992,0.993909,-0.1319135,0.06619468,-41.29577,-27.62187,-7.743588
1.837974071,-1.301785,-8.794302,-2.116806,0.997291,-0.131404,0.06280568,-41.29577,-27.62187,-7.743588
1.850359917,-1.611476,-9.376822,-1.625903,1.004983,-0.1274719,0.05459806,-41.29577,-27.62187,-7.743588
1.860268116,-1.549538,-10.77487,-1.56454,1.002425,-0.1270735,0.04406088,-41.29301,-27.61873,-6.972653
1.870175838,-1.983104,-11.99816,-1.56454,1.001074,-0.1284951,0.05366708,-41.29301,-27.61873,-6.972653
1.880084515,-2.045042,-12.34767,-1.99408,1.010675,-0.1230995,0.04257058,-41.29301,-27.61873,-6.972653
1.889992714,-1.177909,-12.11466,-2.484983,1.007412,-0.1116003,0.0239512,-41.29301,-27.61873,-6.972653
1.89990139,0.06085166,-12.93019,-3.528153,1.008221,-0.1077735,0.01196526,-41.29301,-27.61873,-6.972653
1.909809113,0.5563561,-14.03698,-4.019056,1.010637,-0.09458751,0.02451488,-41.28469,-28.36949,-7.355813
1.919717789,-0.2488386,-14.736,-4.755411,1.00488,-0.09313977,0.03706187,-41.28469,-28.36949,-7.355813
1.929625988,-1.115971,-15.20202,-5.000863,1.009029,-0.08736186,0.01929614,-41.28469,-28.36949,-7.355813
1.93953371,-0.6824049,-15.31852,-5.246314,1.011126,-0.09506878,0.02402698,-41.28469,-28.36949,-7.355813
1.949442387,0.1227897,-14.79425,-4.878137,1.021526,-0.0982864,0.03303238,-41.28469,-28.36949,-7.355813
1.959350586,0.9899224,-13.51271,-5.123589,1.023494,-0.08898735,0.04508008,-41.66105,-27.99179,-6.584085
1.969259262,0.5563561,-13.10495,-5.79858,1.017453,-0.0740291,0.04571576,-41.66105,-27.99179,-6.584085
1.979166985,-0.9301572,-13.33796,-6.350846,1.015658,-0.07884781,0.05578358,-41.66105,-27.99179,-6.584085
1.989075661,-3.407679,-13.68747,-6.41221,1.00502,-0.08916461,0.05533307,-41.66105,-27.99179,-6.584085
1.998983383,-4.584502,-13.51271,-6.289484,1.012142,-0.1045446,0.06428775,-41.66105,-27.99179,-6.584085
2.008891582,-4.708378,-13.0467,-5.79858,1.00799,-0.1381289,0.04921751,-40.97975,-27.61714,-6.588807
2.018800259,-2.726361,-14.09523,-5.614491,1.003168,-0.1532768,0.03811755,-40.97975,-27.61714,-6.588807
2.028707981,-0.1249625,-15.55153,-5.675855,1.009687,-0.157015,0.04955615,-40.97975,-27.61714,-6.588807
2.038616657,0.1847278,-15.60978,-5.921306,1.020366,-0.1417994,0.05964208,-40.97975,-27.61714,-6.588807
2.048524857,-0.1869005,-14.6195,-6.228121,1.014718,-0.128348,0.04922044,-40.97975,-27.61714,-6.588807
2.058433533,-0.2488386,-13.51271,-6.596298,1.008216,-0.1285034,0.0348748,-40.96222,-28.73752,-5.750165
2.068341255,0.3705419,-12.81369,-6.964476,1.005206,-0.1344338,0.02045839,-40.96222,-28.73752,-5.750165
2.078249455,1.795117,-12.11466,-6.780387,1.005303,-0.149993,0.01171098,-40.96222,-28.73752,-5.750165
2.088158131,5.387524,-11.8234,-6.41221,1.003901,-0.1611971,0.004927091,-40.96222,-28.73752,-5.750165
2.098065853,8.917993,-11.93991,-5.921306,1.004968,-0.1645531,0.009696446,-40.96222,-28.73752,-5.750165
2.107974529,11.82908,-11.7069,-5.859943,1.012675,-0.1523208,0.01258762,-40.58796,-28.73749,-5.752112
2.120359898,14.98792,-10.77487,-5.982669,1.016227,-0.1334341,-0.0002836911,-40.58796,-28.73749,-5.752112
2.13026762,16.22668,-10.60011,-6.228121,1.014219,-0.1286079,0.0002471944,-40.58796,-28.73749,-5.752112
2.140176296,16.96994,-10.07585,-5.921306,1.01134,-0.1286163,0.005555507,-40.58796,-28.73749,-5.752112
2.150084496,18.64227,-9.90109,-5.982669,1.008594,-0.1141691,-0.006806972,-40.58796,-28.73749,-5.752112
2.159993172,19.75715,-9.726334,-6.596298,1.00894,-0.1078964,-0.01349059,-40.57599,-29.10398,-3.759375
2.169900894,18.89002,-10.60011,-6.596298,1.002329,-0.09201032,-0.01956568,-40.57599,-29.10398,-3.759375
2.179809094,17.65126,-11.53214,-6.350846,1.000999,-0.06781595,-0.02563425,-40.57599,-29.10398,-3.759375
2.18971777,17.58932,-11.47389,-6.473572,0.9994136,-0.06204213,-0.03038271,-40.57599,-29.10398,-3.759375
2.199625492,17.83707,-11.18263,-6.964476,1.009227,-0.06287753,-0.02807824,-40.57599,-29.10398,-3.759375
2.209534168,18.14676,-10.1341,-7.27129,1.017703,-0.07000542,-0.02052158,-40.94345,-29.41304,-2.985531
2.219442368,19.32359,-9.02731,-7.27129,1.020194,-0.07677999,-0.02395086,-40.94345,-29.41304,-2.985531
2.229351044,20.93398,-9.202066,-7.516742,1.008873,-0.07500852,-0.0291161,-40.94345,-29.41304,-2.985531
2.239258766,21.36754,-10.48361,-7.762193,1.008463,-0.07546116,-0.02191295,-40.94345,-29.41304,-2.985531
2.249167442,18.95196,-11.18263,-7.455379,1.018517,-0.07617171,0.003917886,-40.94345,-29.41304,-2.985531
2.259075165,16.35056,-11.35739,-6.350846,1.01052,-0.08221378,-0.02005632,-40.19333,-29.41115,-2.539711
2.268983364,15.79312,-11.5904,-5.553129,1.013497,-0.06679294,-0.04542951,-40.19333,-29.41115,-2.539711
2.27889204,17.03188,-10.60011,-5.675855,1.018357,-0.05942975,-0.0396635,-40.19333,-29.41115,-2.539711
2.288799763,18.14676,-9.60983,-6.105395,1.030653,-0.05143461,-0.02339857,-40.19333,-29.41115,-2.539711
2.298708439,17.96095,-9.31857,-7.946282,1.025254,-0.05346351,-0.02768359,-40.19333,-29.41115,-2.539711
2.308616638,13.99691,-10.2506,-6.105395,0.9971162,-0.07272775,-0.02851202,-40.92316,-30.53029,-1.375954
2.318525314,12.63428,-11.35739,-5.062225,0.9870389,-0.06422484,-0.0475685,-40.92316,-30.53029,-1.375954
2.328433037,10.59032,-13.0467,-4.9395,0.9929413,-0.07047466,-0.05150599,-40.92316,-30.53029,-1.375954
2.338341713,10.96195,-13.45446,-5.246314,1.004402,-0.06364119,-0.07029263,-40.92316,-30.53029,-1.375954
2.348249912,12.44846,-12.63893,-5.553129,1.020202,-0.05507289,-0.04541344,-40.92316,-30.53029,-1.375954
2.358157635,12.82009,-11.8234,-5.675855,1.018257,-0.06875037,-0.06037147,-40.17811,-30.15407,-0.995533
2.368066311,13.99691,-12.05641,-5.79858,1.010094,-0.07219109,-0.04975543,-40.17811,-30.15407,-0.995533
2.37797451,14.86405,-12.58068,-6.41221,1.016908,-0.0633416,-0.04255711,-40.17811,-30.15407,-0.995533
2.390359402,14.36854,-11.06613,-7.087202,1.026645,-0.0520215,-0.03344874,-40.17811,-30.15407,-0.995533
2.400268078,14.12079,-10.01759,-7.27129,1.023068,-0.05019362,-0.04636775,-40.17811,-30.15407,-0.995533
2.410176277,14.86405,-10.42536,-7.27129,1.007583,-0.04713865,-0.07453354,-40.18482,-29.40148,-0.1626596
2.420084953,15.97893,-12.05641,-7.209927,1.002049,-0.04728698,-0.08984841,-40.18482,-29.40148,-0.1626596
2.429992676,16.22668,-13.0467,-6.964476,1.004335,-0.03026593,-0.08543473,-40.18482,-29.40148,-0.1626596
2.439901352,15.66924,-13.39621,-6.657661,0.9998318,-0.02208166,-0.08581872,-40.18482,-29.40148,-0.1626596
2.449809551,14.61629,-13.1632,-6.657661,1.004854,-0.01756097,-0.06758904,-40.18482,-29.40148,-0.1626596
2.459717274,12.88203,-11.99816,-7.025838,1.010846,-0.02425227,-0.0633676,-40.54364,-30.14416,1.44771
2.46962595,10.96195,-10.65837,-7.209927,1.01465,-0.03718198,-0.04140163,-40.54364,-30.14416,1.44771
2.479534149,8.608302,-9.959342,-6.657661,1.015963,-0.05455613,-0.02904541,-40.54364,-30.14416,1.44771
2.489442349,6.812099,-10.36711,-5.921306,1.014706,-0.05690403,-0.01128358,-40.54364,-30.14416,1.44771
2.499350548,5.077834,-11.29914,-5.307677,1.00725,-0.05364488,-0.01935559,-40.54364,-30.14416,1.44771
2.509259224,4.768144,-12.93019,-5.123589,1.011896,-0.04688114,-0.03519872,-40.16315,-30.51715,1.832385
2.519166947,4.953958,-13.97873,-5.246314,1.019705,-0.04776631,-0.03767763,-40.16315,-30.51715,1.832385
2.529075623,4.582329,-13.97873,-5.307677,1.023732,-0.05253508,-0.03198475,-40.16315,-30.51715,1.832385
2.538983822,5.883029,-13.86222,-5.36904,1.018075,-0.06518199,-0.02625478,-40.16315,-30.51715,1.832385
2.548892498,4.830081,-14.21173,-5.062225,1.016005,-0.07965168,-0.006645552,-40.16315,-30.51715,1.832385
2.558800221,1.485427,-13.97873,-4.632685,1.007158,-0.08612699,-0.01861083,-40.168,-30.14256,1.831231
2.568708897,-1.921166,-13.92048,-4.816774,0.998289,-0.09895556,-0.04022139,-40.168,-30.14256,1.831231
2.578617096,-4.33675,-13.22145,-5.491766,1.006961,-0.1096442,-0.06534103,-40.168,-30.14256,1.831231
2.588524818,-4.584502,-12.52243,-5.921306,1.008044,-0.09811834,-0.08928217,-40.168,-30.14256,1.831231
2.598433494,-2.664423,-11.35739,-6.166758,1.014299,-0.09418908,-0.09459558,-40.168,-30.14256,1.831231
2.608341694,0.3086039,-9.260318,-6.657661,1.019134,-0.08635128,-0.09074682,-39.77483,-31.26135,3.053394
2.618249893,4.024887,-8.270035,-7.209927,1.011819,-0.07960431,-0.08103104,-39.77483,-31.26135,3.053394
2.628158092,5.944966,-8.619547,-7.70083,1.00456,-0.08014452,-0.0742453,-39.77483,-31.26135,3.053394
2.638066769,5.20171,-9.668082,-7.70083,0.9928662,-0.08026988,-0.07029672,-39.77483,-31.26135,3.053394
2.647974491,3.033878,-10.94963,-7.394016,0.9897986,-0.07110799,-0.07260811,-39.77483,-31.26135,3.053394
2.660359859,-0.06302445,-12.58068,-8.621274,0.9895061,-0.06394311,-0.09272432,-39.77831,-30.88519,3.437708
2.670268536,-0.9920952,-13.22145,-9.418992,0.9997134,-0.06384616,-0.09857997,-39.77831,-30.88519,3.437708
2.680176735,-1.301785,-12.93019,-10.09398,1.021417,-0.06494161,-0.08150229,-39.77831,-30.88519,3.437708
2.690085411,-4.522564,-15.49328,-17.64162,1.044977,-0.1355635,-0.01256771,-39.77831,-30.88519,3.437708
2.699993133,-0.4346527,-5.299184,-11.25988,1.048441,-0.07234138,-0.07748009,-39.39782,-31.25818,3.822384
2.70990181,-3.159927,-6.289467,-11.56669,1.00685,-0.06019434,-0.06597088,-39.39782,-31.25818,3.822384
2.719809532,-9.229856,-12.05641,-13.34622,0.9873239,-0.07603215,-0.08126087,-39.39782,-31.25818,3.822384
2.729717731,-10.34474,-13.1632,-8.069008,0.9769252,-0.03184723,-0.137529,-39.39782,-31.25818,3.822384
2.739626408,-9.911175,-14.38649,-8.191733,0.9864879,-0.005496006,-0.1278387,-39.39782,-31.25818,3.822384
2.74953413,-11.39769,-13.2797,-9.480354,1.014393,-0.0002509823,-0.1184587,-38.64445,-31.63272,3.819645
2.759442806,-12.51257,-9.90109,-9.909895,1.041875,-0.006685279,-0.1163549,-38.64445,-31.63272,3.819645
2.769351006,-12.32676,-4.483657,-9.725806,1.062303,-0.01843128,-0.09309436,-38.64445,-31.63272,3.819645
2.779259682,-11.21187,-1.396303,-9.787169,1.032542,-0.035356,-0.1063763,-38.64445,-31.63272,3.819645
2.789167404,-12.26482,-3.202114,-9.17354,0.9994312,-0.04350524,-0.1022831,-38.64445,-31.63272,3.819645
2.79907608,-15.4856,-7.338003,-7.884919,0.9875542,-0.03445775,-0.1054741,-38.6396,-32.00732,3.820799
2.80898428,-18.21087,-9.02731,-7.516742,0.9931965,-0.01645264,-0.1063666,-38.6396,-32.00732,3.820799
2.818892956,-19.3877,-8.153531,-7.884919,1.015004,-0.01042556,-0.1185321,-38.6396,-32.00732,3.820799
2.828800678,-19.32576,-5.590444,-8.559911,1.028703,-0.005859269,-0.1123864,-38.6396,-32.00732,3.820799
2.838709354,-18.39669,-2.270082,-8.989451,1.032213,-0.008210151,-0.1066726,-38.6396,-32.00732,3.820799
2.848617077,-15.9811,0.5842639,-8.682637,1.035645,-0.0106018,-0.1086409,-38.26049,-32.38188,3.820006
2.858525276,-13.75133,1.691051,-8.437185,1.038138,-0.01054596,-0.103862,-38.26049,-32.38188,3.820006
2.868433952,-13.31777,2.040563,-7.578104,1.047866,-0.002157547,-0.09909447,-38.26049,-32.38188,3.820006
2.878341675,-15.05203,2.623082,-6.657661,1.047546,-0.005978265,-0.08711302,-38.26049,-32.38188,3.820006
2.888250351,-16.97211,3.788122,-6.044032,1.04114,-0.002668755,-0.08799204,-38.26049,-32.38188,3.820006
2.89815855,-16.97211,5.069665,-5.675855,1.050508,-0.005926543,-0.08425912,-37.88623,-32.38185,3.81806
2.908067226,-16.16692,7.982263,-5.491766,1.071674,-0.007053556,-0.07197826,-37.88623,-32.38185,3.81806
2.917974949,-14.55653,12.11815,-4.755411,1.090814,-0.01799754,-0.07799007,-37.88623,-32.38185,3.81806
2.930360317,-13.44164,14.85599,-3.589516,1.07997,-0.00525477,-0.1190985,-37.88623,-32.38185,3.81806
2.940268993,-12.3887,12.00165,-1.625903,1.065094,0.0337176,-0.1412687,-37.88623,-32.38185,3.81806
2.950177193,-11.5835,8.564782,-0.5213705,1.051363,0.0644963,-0.1567819,-37.13861,-32.76292,2.209207
2.960085392,-11.088,6.40946,-0.3372818,1.044619,0.09201998,-0.1622981,-37.13861,-32.76292,2.209207
2.969993591,-10.71637,6.234704,-0.214556,1.031887,0.09575318,-0.1597547,-37.13861,-32.76292,2.209207
2.979902267,-10.90218,6.99198,-0.5827335,1.023291,0.08892047,-0.1477167,-37.13861,-32.76292,2.209207
2.98980999,-10.71637,7.865759,-1.135,1.026071,0.06619868,-0.1416517,-37.13861,-32.76292,2.209207
2.999718666,-9.539547,8.390026,-1.319088,1.028822,0.04053503,-0.1418482,-37.51425,-32.76452,1.825685
3.009626865,-7.1859,8.215271,-1.135,1.027988,0.03132965,-0.1385407,-37.51425,-32.76452,1.825685
3.019535542,-2.540546,7.982263,-1.503177,1.000328,0.01011449,-0.1427476,-37.51425,-32.76452,1.825685
3.029443264,4.210701,7.865759,-2.300895,0.989548,-0.02393011,-0.1371128,-37.51425,-32.76452,1.825685
3.039351463,10.52838,8.797791,-2.730435,0.9881184,-0.05148568,-0.1180769,-37.51425,-32.76452,1.825685
3.049260139,15.17374,10.6036,-2.730435,1.001326,-0.08180095,-0.1054367,-37.14137,-32.76606,1.438272
3.059167862,20.06684,12.93368,-2.055443,1.012197,-0.08892396,-0.1027038,-37.14137,-32.76606,1.438272
3.069076538,25.26964,12.52592,-1.99408,0.9974393,-0.06647532,-0.1326677,-37.14137,-32.76606,1.438272
3.078984737,29.91499,8.972546,-2.607709,0.9752162,-0.03052827,-0.1595917,-37.14137,-32.76606,1.438272
3.088892937,32.02089,3.263854,-2.116806,0.931103,0.001787625,-0.1796152,-37.14137,-32.76606,1.438272
3.098801136,30.78213,-2.677846,-1.319088,0.9053326,0.02372901,-0.1873934,-37.50802,-33.13755,2.212306
3.108709812,27.8091,-6.114712,-0.5827335,0.9105515,0.04615233,-0.1767288,-37.50802,-33.13755,2.212306
3.118617535,23.53537,-3.260366,0.2763473,0.9538812,0.05416499,-0.1381834,-37.50802,-33.13755,2.212306
3.128526211,20.19072,3.671618,0.8286135,0.9742707,0.06019934,-0.1455341,-37.50802,-33.13755,2.212306
3.13843441,18.27064,6.642468,0.6445247,0.9460632,0.07210973,-0.2119359,-37.50802,-33.13755,2.212306
3.148343086,16.96994,3.030846,1.012702,0.9019414,0.08246981,-0.2585143,-37.51126,-32.76112,2.660865
3.158250809,16.22668,-4.716664,1.871783,0.8798187,0.08554679,-0.2664519,-37.51126,-32.76112,2.660865
3.168159485,15.23567,-12.46418,2.669501,0.8993327,0.07918762,-0.2306629,-37.51126,-32.76112,2.660865
3.178067684,12.38652,-16.42531,3.774033,0.9390404,0.07657032,-0.1763095,-37.51126,-32.76112,2.660865
3.18797636,8.484426,-17.93986,4.878565,0.9556502,0.0623849,-0.1467878,-37.51126,-32.76112,2.660865
3.197884083,6.006905,-18.05636,5.799009,0.9651113,0.0384482,-0.1105427,-37.13078,-33.13412,3.045541
3.210269451,5.449462,-17.47384,6.167187,0.9834807,0.002721777,-0.1253554,-37.13078,-33.13412,3.045541
3.220178127,7.988922,-18.93014,6.167187,0.9809858,-0.0231886,-0.1605565,-37.13078,-33.13412,3.045541
3.23008585,11.08582,-22.30876,6.228549,0.9767362,-0.05438466,-0.1823321,-37.13078,-33.13412,3.045541
3.239994526,15.04986,-26.96891,6.596727,0.9779023,-0.07964034,-0.1935548,-37.13078,-33.13412,3.045541
3.249902725,20.0049,-29.76501,6.903542,0.9902522,-0.08527546,-0.1879447,-37.13772,-32.38179,3.814168
3.259811401,26.5084,-28.59997,6.780816,1.007892,-0.06991362,-0.1663983,-37.13772,-32.38179,3.814168
3.269719124,33.5074,-24.52233,5.860372,1.014603,-0.05038593,-0.1567271,-37.13772,-32.38179,3.814168
3.279627323,39.63927,-21.55148,5.062654,1.009761,-0.03578821,-0.134978,-37.13772,-32.38179,3.814168
3.289535999,43.54137,-19.68742,4.939929,1.00301,-0.009731656,-0.1429047,-37.13772,-32.38179,3.814168
3.299443722,46.39051,-21.55148,5.246743,0.9725874,0.01056056,-0.1770595,-37.87911,-32.37374,5.809645
3.309352398,48.43447,-25.68737,5.001291,0.9623207,0.05555032,-0.1718632,-37.87911,-32.37374,5.809645
3.31926012,47.93896,-27.49318,4.449025,0.9711812,0.083984,-0.132863,-37.87911,-32.37374,5.809645
3.329168797,44.4085,-26.5029,4.387662,0.9883891,0.1110767,-0.09202816,-37.87911,-32.37374,5.809645
3.339076996,37.84306,-23.76506,5.369469,0.9939512,0.1307518,-0.05113507,-37.87911,-32.37374,5.809645
3.348985672,30.16274,-20.03693,6.535364,1.001605,0.1241806,-0.02772188,-37.50097,-31.98919,8.247841
3.358893395,22.79212,-17.82336,8.130799,0.9796329,0.1092871,-0.04202265,-37.50097,-31.98919,8.247841
3.368802071,14.05885,-19.68742,10.21714,0.9372516,0.112003,-0.07090226,-37.50097,-31.98919,8.247841
3.37871027,6.688223,-23.88156,11.56712,0.9077283,0.1405591,-0.1030897,-37.50097,-31.98919,8.247841
3.388618946,-0.06302445,-25.1631,10.83077,0.9153671,0.163,-0.09484819,-37.50097,-31.98919,8.247841
3.398526669,-6.628458,-21.60973,9.603509,0.9674755,0.1584282,-0.07327328,-37.88702,-30.86229,9.01726
3.408435345,-12.3887,-15.14377,8.683065,1.000424,0.1438141,-0.07223487,-37.88702,-30.86229,9.01726
3.418343544,-19.20188,-13.92048,6.412638,0.9986476,0.08657055,-0.07404028,-37.88702,-30.86229,9.01726
3.428251743,-22.9801,-10.30885,10.03305,0.9938724,0.05071071,-0.1525008,-37.88702,-30.86229,9.01726
3.438159943,-24.59049,-11.06613,10.52395,0.9986237,0.01143599,-0.1643302,-37.88702,-30.86229,9.01726
3.448068619,-24.71437,-9.959342,11.26031,1.051935,-0.003738171,-0.1332339,-37.88889,-30.4843,9.851286
3.457976341,-22.67041,-2.21183,12.05803,1.140888,-0.01141539,-0.0510403,-37.88889,-30.4843,9.851286
3.47036171,-19.01607,12.46766,15.06481,1.189855,-0.04758212,0.0563015,-37.88889,-30.4843,9.851286
3.480270386,-17.15793,17.41908,17.82614,1.145639,-0.08604285,0.03868834,-37.88889,-30.4843,9.851286
3.490178585,-16.22886,12.70067,18.80795,1.061805,-0.1157461,-0.06492857,-37.88889,-30.4843,9.851286
3.500087261,-13.44164,4.137634,16.78297,1.014956,-0.1250756,-0.1620296,-37.89373,-30.1097,9.850132
3.509994984,-10.15893,-0.2312636,13.16256,1.022539,-0.1333957,-0.195286,-37.89373,-30.1097,9.850132
3.51990366,-7.557528,-2.50309,10.09441,1.02011,-0.1453735,-0.2553632,-37.89373,-30.1097,9.850132
3.529811382,-4.64644,-6.289467,8.314888,1.010466,-0.1598205,-0.3067471,-37.89373,-30.1097,9.850132
3.539720059,0.9279844,-8.444791,7.026268,1.001448,-0.1271209,-0.337176,-37.89373,-30.1097,9.850132
3.549628258,8.36055,-7.920523,4.387662,0.9940715,-0.1040683,-0.3619225,-39.01741,-30.49092,8.251011
3.559536934,17.58932,-5.7652,1.687694,1.000392,-0.1064465,-0.3682388,-39.01741,-30.49092,8.251011
3.569444656,26.81809,-3.959389,1.503605,0.9960052,-0.100153,-0.3595135,-39.01741,-30.49092,8.251011
3.579353332,34.68422,-5.823452,0.6445247,0.9745303,-0.07942628,-0.3313276,-39.01741,-30.49092,8.251011
3.589261532,38.27663,-8.444791,0.6445247,0.9578467,-0.0377138,-0.2881613,-39.01741,-30.49092,8.251011
3.599170208,39.63927,-8.095279,-0.5213705,0.9604043,0.02017605,-0.2570692,-38.64661,-30.11473,8.633377
3.60907793,39.63927,-6.871987,-2.853161,0.975607,0.06306782,-0.2502018,-38.64661,-30.11473,8.633377
3.618986607,36.91399,-6.34772,-4.448596,0.9936972,0.07548876,-0.2358816,-38.64661,-30.11473,8.633377
3.628894806,32.57833,-5.998208,-4.9395,1.011064,0.07193252,-0.2154191,-38.64661,-30.11473,8.633377
3.638803005,26.57034,-5.18268,-4.448596,1.007753,0.04146428,-0.1925439,-38.64661,-30.11473,8.633377
3.648711204,20.06684,-5.007925,-3.344064,1.004195,0.01720918,-0.1864305,-39.40936,-28.67387,9.853495
3.658619881,14.92598,-5.532192,-1.932717,1.002305,0.008438234,-0.1903127,-39.40936,-28.67387,9.853495
3.668527603,12.44846,-4.600161,-1.257725,1.004833,0.01387776,-0.1758951,-39.40936,-28.67387,9.853495
3.678436279,9.97094,-0.9885391,-1.012274,1.016109,0.01038015,-0.1294474,-39.40936,-28.67387,9.853495
3.688344479,4.396515,3.14735,-0.03046724,1.028134,-0.004931427,-0.1190971,-39.40936,-28.67387,9.853495
3.698253155,-0.6824049,3.14735,1.933146,1.020155,-0.04462294,-0.180748,-38.65163,-29.04344,11.0714
3.708160877,-1.611476,-0.5807754,5.246743,0.9864727,-0.05404496,-0.2337968,-38.65163,-29.04344,11.0714
3.718069553,-3.036051,-4.308901,6.65809,0.9733197,-0.05808727,-0.2337021,-38.65163,-29.04344,11.0714
3.727977753,-5.947139,-4.192397,6.289912,0.9647731,-0.07318693,-0.2265213,-38.65163,-29.04344,11.0714
3.740362644,-5.699387,-3.08561,4.510388,0.9792808,-0.06430651,-0.2318781,-38.65163,-29.04344,11.0714
3.75027132,-4.398688,-1.804067,2.792227,0.9998727,-0.04304485,-0.2016769,-38.65186,-29.0437,11.00716
3.76017952,-5.203883,0.7007678,1.687694,1.024178,-0.04695501,-0.172638,-38.65186,-29.0437,11.00716
3.770088196,-7.309776,-0.2312636,1.196791,0.9980848,-0.09639224,-0.2000951,-38.65186,-29.0437,11.00716
3.779995918,-8.238848,-4.600161,1.626331,0.9737664,-0.1534558,-0.2064924,-38.65186,-29.0437,11.00716
3.789904594,-6.071015,-7.745767,2.301323,0.9695002,-0.1675873,-0.2099082,-38.65186,-29.0437,11.00716
3.799812794,-0.1869005,-6.172964,1.196791,0.9772935,-0.1572611,-0.2007885,-39.40522,-28.66917,11.0099
3.80972147,5.263648,-2.79435,-1.56454,0.9968319,-0.1375144,-0.1797107,-39.40522,-28.66917,11.0099
3.819629192,8.422488,-0.4642715,-2.791798,1.0175,-0.1176765,-0.1437578,-39.40522,-28.66917,11.0099
3.829537868,8.856054,2.157067,-2.914524,1.038165,-0.1095476,-0.1218075,-39.40522,-28.66917,11.0099
3.839446068,7.988922,3.030846,-1.932717,1.031206,-0.1318831,-0.1113284,-39.40522,-28.66917,11.0099
3.849354267,6.440471,2.914342,-0.7668222,1.020106,-0.1751142,-0.09998998,-39.0342,-28.29271,11.45651
3.859262466,6.440471,3.613366,0.5217989,1.026108,-0.1769219,-0.0890139,-39.0342,-28.29271,11.45651
3.869171143,8.112798,6.001697,-0.3372818,1.052233,-0.1611265,-0.09779313,-39.0342,-28.29271,11.45651
3.879078865,10.90001,7.166736,-0.5213705,1.033387,-0.1515018,-0.1599753,-39.0342,-28.29271,11.45651
3.888987541,12.32458,2.85609,1.626331,1.025803,-0.1061182,-0.1788091,-39.0342,-28.29271,11.45651
3.89889574,8.484426,0.7007678,4.510388,1.0144,-0.04634041,-0.1240476,-39.76817,-29.41656,11.46386
3.908804417,1.980931,2.157067,5.062654,0.9969859,-0.006223414,-0.1063335,-39.76817,-29.41656,11.46386
3.918712139,-4.770316,3.496862,4.571751,0.9807599,0.01181585,-0.141595,-39.76817,-29.41656,11.46386
3.928620815,-9.477609,2.506578,3.71267,0.9887863,-0.001399629,-0.1849715,-39.76817,-29.41656,11.46386
3.938529015,-14.06102,1.807555,3.958122,0.9987168,-0.04143798,-0.1694849,-39.76817,-29.41656,11.46386
3.948437691,-18.39669,2.85609,4.75584,1.003845,-0.0912482,-0.1568999,-39.40499,-28.66891,11.07414
3.958345413,-19.01607,3.496862,5.430832,0.9833196,-0.1300363,-0.201143,-39.40499,-28.66891,11.07414
3.968254089,-16.10498,1.924059,5.737646,0.9649549,-0.1343075,-0.2326921,-39.40499,-28.66891,11.07414
3.978161812,-13.13195,-1.046791,4.939929,0.9478717,-0.1045103,-0.2424189,-39.40499,-28.66891,11.07414
3.988070488,-10.2828,-1.804067,3.099041,0.9527377,-0.105437,-0.2458312,-39.40499,-28.66891,11.07414
3.997978687,-8.672414,-1.454555,1.503605,0.9670068,-0.1047251,-0.2363552,-39.40037,-29.04376,11.01105
4.010364056,-6.56652,-2.969106,-0.09183015,0.9651024,-0.1064347,-0.2810037,-39.40037,-29.04376,11.01105
4.020272732,-4.584502,-6.05646,-1.196362,0.9658806,-0.09920925,-0.2920064,-39.40037,-29.04376,11.01105
4.030180454,-3.407679,-10.42536,-2.116806,0.970095,-0.07827538,-0.2856639,-39.40037,-29.04376,11.01105
4.04008913,-5.327759,-13.39621,-3.221339,0.9607635,-0.06816933,-0.2778277,-39.77116,-29.41996,10.62868
4.04999733,-4.64644,-13.39621,-4.387233,0.9505988,-0.04946795,-0.2934543,-39.77116,-29.41996,10.62868
4.059905529,-1.673414,-13.22145,-6.105395,0.9455437,-0.0496153,-0.309734,-39.77116,-29.41996,10.62868
4.069813728,1.609303,-13.80397,-8.130371,0.953105,-0.05379562,-0.292546,-39.77116,-29.41996,10.62868
4.079722404,3.529382,-12.98844,-9.725806,0.9848148,-0.0566018,-0.2554057,-39.77116,-29.41996,10.62868
4.089630127,4.768144,-11.53214,-10.76898,0.9938987,-0.070003,-0.243575,-39.39529,-29.4181,11.07645
4.099538803,6.192719,-11.5904,-10.8917,0.9850454,-0.07550617,-0.2550536,-39.39529,-29.4181,11.07645
4.109447002,7.121789,-12.87194,-11.07579,0.9674196,-0.07183626,-0.2529455,-39.39529,-29.4181,11.07645
4.119355679,7.121789,-13.80397,-12.18032,0.9709209,-0.07224032,-0.2457782,-39.39529,-29.4181,11.07645
4.129263401,7.74117,-13.45446,-13.16213,0.9843138,-0.08417071,-0.2411799,-39.39529,-29.4181,11.07645
4.139172077,8.732179,-11.76515,-13.59167,0.9930238,-0.1014206,-0.2226492,-39.02313,-29.04033,11.84428
4.149080277,9.537373,-10.1341,-13.95985,1.006909,-0.101636,-0.2040529,-39.02313,-29.04033,11.84428
4.158988953,9.661249,-8.386539,-14.14394,1.015221,-0.1020201,-0.2046125,-39.02313,-29.04033,11.84428
4.168896675,9.475435,-9.02731,-14.08257,0.9964656,-0.1067338,-0.2270379,-39.02313,-29.04033,11.84428
4.178805351,7.245666,-11.06613,-14.08257,0.9803678,-0.1098429,-0.2269097,-39.02313,-29.04033,11.84428
4.188713074,4.706205,-13.33796,-14.57348,0.9656713,-0.1280899,-0.2509033,-38.26838,-29.4133,12.22701
4.19862175,2.848064,-14.736,-15.67801,0.9889864,-0.1627503,-0.2590323,-38.26838,-29.4133,12.22701
4.208529949,1.857055,-13.62922,-15.30983,1.035746,-0.1961547,-0.2683302,-38.26838,-29.4133,12.22701
4.218438625,3.157754,-10.60011,-13.46894,1.054545,-0.2182474,-0.2729726,-38.26838,-29.4133,12.22701
4.228346348,5.325586,-8.561295,-10.33944,1.049972,-0.2042456,-0.2733172,-38.26838,-29.4133,12.22701
4.238255024,6.006905,-6.871987,-7.823556,1.026937,-0.180659,-0.2508598,-38.62592,-30.47129,13.06741
4.248163223,6.626285,-4.367153,-6.350846,1.011932,-0.1351636,-0.2302513,-38.62592,-30.47129,13.06741
4.258071899,8.298612,-0.3477675,-5.430403,1.019217,-0.06656541,-0.2024926,-38.62592,-30.47129,13.06741
4.267979622,10.7142,5.477429,-4.9395,1.047768,-0.01074965,-0.166373,-38.62592,-30.47129,13.06741
4.280365467,14.61629,12.00165,-5.614491,1.071372,0.05229256,-0.1272785,-38.62592,-30.47129,13.06741
4.290273666,13.56335,15.67152,-2.546346,1.07445,0.09801006,-0.1073159,-38.25512,-30.09509,13.44978
4.300182343,13.93497,16.72006,0.2149844,1.072142,0.1275581,-0.1070977,-38.25512,-30.09509,13.44978
4.310090065,10.96195,15.96278,3.160404,1.049361,0.1295652,-0.1328022,-38.25512,-30.09509,13.44978
4.319998741,7.121789,15.61327,5.124017,1.012312,0.1274464,-0.1718466,-38.25512,-30.09509,13.44978
4.329906941,1.237675,15.43851,6.351275,1.002181,0.1144579,-0.2212957,-38.25512,-30.09509,13.44978
4.339815617,-5.513573,14.85599,6.719453,1.0059,0.09587038,-0.2617873,-38.63076,-30.09669,13.06626
4.349723339,-11.21187,13.86571,7.271719,1.0171,0.06915788,-0.2976005,-38.63076,-30.09669,13.06626
4.359632015,-14.30878,13.05018,6.780816,1.034812,0.05041097,-0.3089328,-38.63076,-30.09669,13.06626
4.369540215,-13.81327,11.82689,5.492195,1.018132,0.02383205,-0.3454477,-38.63076,-30.09669,13.06626
4.379448414,-9.911175,7.457995,3.405856,0.9817065,-0.006503073,-0.4043724,-38.63076,-30.09669,13.06626
4.389356613,-5.699387,1.341539,2.055871,0.9504434,-0.01542013,-0.4593608,-38.26273,-29.72363,12.67769
4.399265289,0.06085166,-2.736098,0.7672505,0.9336672,-0.0005852801,-0.4567061,-38.26273,-29.72363,12.67769
4.409173012,8.050859,-2.677846,-2.791798,0.955718,-0.009304941,-0.4147142,-38.26273,-29.72363,12.67769
4.419081688,19.44746,1.166783,-7.516742,1.002448,-0.04710576,-0.3366522,-38.26273,-29.72363,12.67769
4.428989887,31.71119,6.001697,-10.58489,1.030014,-0.1054344,-0.2441451,-38.26273,-29.72363,12.67769
4.438898563,41.3116,8.972546,-10.83034,1.019608,-0.1341581,-0.1482085,-38.26136,-29.72206,13.06316
4.448806286,43.66524,8.448278,-9.909895,0.9757971,-0.09753426,-0.0860991,-38.26136,-29.72206,13.06316
4.458714962,39.14376,4.661901,-9.17354,0.9515979,-0.00503666,-0.04876706,-38.26136,-29.72206,13.06316
4.468623161,32.51639,2.215319,-10.33944,0.9870301,0.07502575,-0.02839472,-38.26136,-29.72206,13.06316
4.478531838,26.88003,2.623082,-12.18032,1.022864,0.09700887,0.01079331,-38.26136,-29.72206,13.06316
4.48843956,18.64227,3.030846,-12.36441,1.023236,0.04720671,0.03638663,-38.26402,-29.40833,13.44766
4.498348236,7.617294,-0.5225234,-10.15535,0.9647086,-0.02271929,-0.03076009,-38.26402,-29.40833,13.44766
4.508255959,-4.150936,-8.561295,-6.534935,0.9125297,-0.06257445,-0.1112096,-38.26402,-29.40833,13.44766
4.518164635,-12.82226,-15.78454,-4.387233,0.9018679,-0.04803422,-0.1801569,-38.26402,-29.40833,13.44766
4.528072834,-16.60048,-15.55153,-4.9395,0.9272536,-0.005058247,-0.1815459,-38.26402,-29.40833,13.44766
4.53798151,-14.9901,-8.910807,-6.534935,0.9299173,0.03702875,-0.2062584,-37.51736,-29.03028,14.2778
4.547890186,-11.70738,-4.774917,-9.418992,0.8900799,0.07031029,-0.2373586,-37.51736,-29.03028,14.2778
4.560275555,-10.77831,-4.017641,-11.07579,0.8465663,0.07439708,-0.2796631,-37.51736,-29.03028,14.2778
4.570183277,-9.787299,-6.697231,-10.76898,0.835862,0.07331427,-0.27573,-37.51736,-29.03028,14.2778
4.580091953,-9.229856,-8.969058,-10.33944,0.8517455,0.07363344,-0.2523471,-37.51736,-29.03028,14.2778
4.589999676,-8.610476,-8.910807,-11.44397,0.8549134,0.06598707,-0.2385027,-37.5071,-29.71547,14.66538
4.599908352,-6.132954,-8.619547,-12.42577,0.87189,0.03808575,-0.2369249,-37.5071,-29.71547,14.66538
4.609816551,-4.088998,-7.862271,-12.42577,0.9314307,0.03560788,-0.2034009,-37.5071,-29.71547,14.66538
4.619725227,-5.080007,-4.716664,-11.56669,0.9618448,0.04579489,-0.1820072,-37.5071,-29.71547,14.66538
4.62963295,-7.557528,-1.745815,-10.58489,0.9583963,0.08890502,-0.1816881,-37.5071,-29.71547,14.66538
4.639541626,-12.32676,-0.3477675,-9.480354,0.9487045,0.1324822,-0.1697843,-37.11829,-30.83923,14.66689
4.649449825,-20.99809,-0.3477675,-7.27129,0.9166001,0.1694776,-0.1577172,-37.11829,-30.83923,14.66689
4.659358501,-32.64244,-2.852602,-5.062225,0.8874991,0.175566,-0.222709,-37.11829,-30.83923,14.66689
4.669266224,-42.98609,-11.47389,-3.221339,0.9119849,0.117843,-0.2867009,-37.11829,-30.83923,14.66689
4.6791749,-52.21486,-15.90104,-0.9509109,0.9766769,-0.03467268,-0.3080017,-37.11829,-30.83923,14.66689
4.689083099,-55.3737,-18.52238,1.135428,0.9477152,-0.1775231,-0.3907926,-37.48584,-31.59185,13.83597
4.698991299,-49.86122,-22.77477,3.528581,0.9024658,-0.2318829,-0.4800457,-37.48584,-31.59185,13.83597
4.708899975,-40.13694,-28.30871,5.001291,0.9145187,-0.1964574,-0.5029688,-37.48584,-31.59185,13.83597
4.718808174,-29.9791,-28.94948,4.510388,0.9756963,-0.119325,-0.4550048,-37.48584,-31.59185,13.83597
4.72871685,-20.44064,-25.57087,1.994509,1.02281,-0.03206576,-0.3837958,-37.48584,-31.59185,13.83597
4.738624573,-15.85723,-21.66799,1.626331,1.02045,0.007460011,-0.3292528,-36.73523,-31.96952,13.06229
4.748533249,-11.02606,-20.6777,1.012702,0.983032,0.04442181,-0.3108947,-36.73523,-31.96952,13.06229
4.758441448,-10.71637,-21.43498,1.012702,0.9520768,0.06005524,-0.3071431,-36.73523,-31.96952,13.06229
4.768350124,-9.911175,-24.63884,-2.730435,0.999453,0.09988546,-0.313558,-36.73523,-31.96952,13.06229
4.778257847,-8.362723,-24.46408,-6.350846,1.107344,0.1391993,-0.2845241,-36.73523,-31.96952,13.06229
4.788166523,-5.451635,-20.26994,-9.480354,1.165222,0.1448938,-0.2605333,-36.4185,-32.34409,13.06183
4.798074722,-0.4965908,-17.00783,-11.50533,1.117286,0.1059965,-0.259869,-36.4185,-32.34409,13.06183
4.807982922,5.5114,-17.5321,-12.79395,0.9999771,0.03650401,-0.2890169,-36.4185,-32.34409,13.06183
4.817891121,9.041868,-22.19225,-13.65303,0.9280033,-0.03370581,-0.2849777,-36.4185,-32.34409,13.06183
4.830276489,10.21869,-27.20192,-12.91668,0.9200889,-0.09433014,-0.2694631,-36.4185,-32.34409,13.06183
4.840185165,11.51939,-27.60969,-12.42577,0.9542248,-0.09590029,-0.2803528,-36.73247,-31.96638,13.83323
4.850093842,12.69621,-26.21164,-11.68942,0.9805518,-0.06512626,-0.2995976,-36.73247,-31.96638,13.83323
4.860001564,12.26265,-24.69709,-10.83034,0.9885972,-0.04320989,-0.3000061,-36.73247,-31.96638,13.83323
4.86991024,10.40451,-23.93981,-9.357629,0.9874137,-0.02723152,-0.3013292,-36.73247,-31.96638,13.83323
4.879817963,8.484426,-22.48351,-8.375822,0.9922229,-0.00526084,-0.2834615,-36.73247,-31.96638,13.83323
4.889726639,7.43148,-20.6777,-8.989451,0.9996601,0.002201508,-0.2647544,-36.03574,-32.33438,15.43693
4.899634838,8.36055,-16.65832,-9.050815,1.021774,-0.02039202,-0.2804745,-36.03574,-32.33438,15.43693
4.909543514,11.08582,-12.93019,-7.27129,1.046394,-0.01292763,-0.3027397,-36.03574,-32.33438,15.43693
4.919451237,13.06784,-12.75544,-5.430403,1.030514,0.02529134,-0.2807311,-36.03574,-32.33438,15.43693
4.929359913,10.83807,-13.39621,-4.325871,1.02242,0.03798381,-0.2445598,-36.03574,-32.33438,15.43693
4.939268112,6.935976,-11.24088,-2.791798,1.020344,0.04009645,-0.2061139,-36.03574,-32.33438,15.43693
4.949176788,2.724188,-7.920523,-1.56454,1.023566,0.02418568,-0.1966465,-36.03574,-32.33438,15.43693
4.959084511,1.547365,-5.124428,-0.7054592,1.037209,0.01701503,-0.2097847,-36.03574,-32.33438,15.43693
4.968993187,1.980931,-1.920571,0.3377102,1.056137,0.01474126,-0.2263003,-36.03574,-32.33438,15.43693
4.978901386,2.848064,-0.6390273,1.933146,1.046685,0.02088233,-0.2348148,-36.03574,-32.33438,15.43693
4.988809586,4.458453,0.0599962,3.221767,1.035458,0.01684903,-0.2376188,-36.39731,-33.08021,16.27637
4.998717785,6.564347,1.05028,4.264936,1.015425,0.01660515,-0.2364749,-36.39731,-33.08021,16.27637
5.008626461,10.21869,2.914342,4.019485,0.999249,0.01052864,-0.2474094,-36.39731,-33.08021,16.27637
5.018535137,12.63428,4.894909,3.160404,0.9935527,0.02932035,-0.2563545,-36.39731,-33.08021,16.27637
5.02844286,12.75815,4.661901,2.669501,0.9805551,0.05949647,-0.2963666,-36.39731,-33.08021,16.27637
5.038351536,10.21869,3.496862,3.835396,0.9681501,0.08387897,-0.3330616,-36.02168,-33.07861,16.65989
5.048259735,4.953958,2.390074,4.633114,0.9364813,0.1018284,-0.3484944,-36.02168,-33.07861,16.65989
5.058168411,-1.549538,1.458043,5.062654,0.9004471,0.07755027,-0.3622474,-36.02168,-33.07861,16.65989
5.068076134,-6.071015,1.341539,5.062654,0.89273,0.04433687,-0.3907267,-36.02168,-33.07861,16.65989
5.07798481,-7.433652,1.691051,4.75584,0.9192494,0.02423979,-0.4031098,-36.02168,-33.07861,16.65989
5.087893009,-6.071015,2.506578,4.571751,0.9391785,0.02540485,-0.4133697,-36.41048,-31.95485,16.65837
5.100277901,-4.33675,1.749303,5.001291,0.9321837,0.05938783,-0.3881103,-36.41048,-31.95485,16.65837
5.110186577,-5.885201,0.2347521,5.001291,0.9144256,0.08981816,-0.3675767,-36.41048,-31.95485,16.65837
5.120095253,-6.56652,-1.629311,4.878565,0.9164104,0.08985775,-0.3647138,-36.41048,-31.95485,16.65837
5.130003452,-6.25683,-1.862319,4.326299,0.9264325,0.07937492,-0.3533526,-36.41048,-31.95485,16.65837
5.139912128,-6.318768,-1.687563,3.71267,0.9356319,0.0538386,-0.3444848,-36.0376,-31.95639,16.27096
5.149819851,-5.761325,-1.862319,3.344493,0.9347864,0.03243187,-0.3566236,-36.0376,-31.95639,16.27096
5.159728527,-4.212874,-1.745815,3.28313,0.9460829,0.01991597,-0.3664145,-36.0376,-31.95639,16.27096
5.169636726,-2.850237,-2.037075,3.28313,0.9520231,0.01710046,-0.362647,-36.0376,-31.95639,16.27096
5.179544926,-2.726361,-2.386586,3.344493,0.9460196,0.001594776,-0.3463694,-36.0376,-31.95639,16.27096
5.189453125,-2.230856,-1.629311,2.853589,0.9472161,-0.01876712,-0.3489169,-36.03275,-32.33099,16.27211
5.199361801,0.7421702,-0.9302871,1.626331,0.9477455,-0.02752044,-0.3552221,-36.03275,-32.33099,16.27211
5.209269524,4.768144,-0.2312636,0.460436,0.96628,-0.04364877,-0.331013,-36.03275,-32.33099,16.27211
5.2191782,8.36055,0.9920276,0.09225857,0.9804263,-0.06080134,-0.3067699,-36.03275,-32.33099,16.27211
5.229086399,12.82009,1.574547,0.7672505,0.9925076,-0.05096641,-0.309217,-36.03275,-32.33099,16.27211
5.238995075,17.03188,3.030846,1.319517,0.9935404,-0.0328768,-0.2826973,-36.71542,-32.7072,15.89137
5.248903751,17.96095,3.671618,1.626331,0.9788445,-0.01405013,-0.2632296,-36.71542,-32.7072,15.89137
5.258811474,17.89901,4.137634,1.319517,0.9816691,-0.01358241,-0.273336,-36.71542,-32.7072,15.89137
5.26872015,18.39451,5.069665,1.258154,0.9896859,-0.01289599,-0.2537191,-36.71542,-32.7072,15.89137
5.278628349,18.58033,6.642468,1.074065,1.013516,-0.01631724,-0.2227519,-36.71542,-32.7072,15.89137
5.288536549,17.89901,9.147302,1.442243,1.035728,-0.01739644,-0.2037582,-36.71889,-32.33104,16.27568
5.298444748,16.78412,10.83661,2.362686,1.042917,-0.0217704,-0.2230602,-36.71889,-32.33104,16.27568
5.308353424,15.79312,11.01136,3.221767,1.039737,-0.01510636,-0.2393118,-36.71889,-32.33104,16.27568
5.318261147,14.74017,10.89486,4.019485,1.018216,-0.009525468,-0.2333136,-36.71889,-32.33104,16.27568
5.328169823,13.25366,11.18612,5.18538,1.001156,-0.01312646,-0.2322195,-36.71889,-32.33104,16.27568
5.338078022,10.7142,11.41913,5.614921,0.9918955,-0.02591015,-0.244223,-36.72236,-31.95488,16.65999
5.347986698,8.979931,11.71039,6.105824,0.9707121,-0.03649971,-0.2719468,-36.72236,-31.95488,16.65999
5.357894421,7.926984,11.71039,6.228549,0.9688755,-0.05060846,-0.2768254,-36.72236,-31.95488,16.65999
5.370280266,8.979931,11.41913,6.167187,0.959723,-0.04797463,-0.3079335,-36.72236,-31.95488,16.65999
5.380188465,9.785125,10.42885,6.596727,0.9486403,-0.02974215,-0.318273,-36.41671,-31.58183,16.27175
5.390097141,11.51939,8.331775,6.596727,0.9285787,-0.01268793,-0.3472636,-36.41671,-31.58183,16.27175
5.400004864,14.80211,6.176452,5.799009,0.9133278,-0.008535971,-0.3514163,-36.41671,-31.58183,16.27175
5.40991354,17.40351,5.419177,4.571751,0.9260986,-0.003956347,-0.3404602,-36.41671,-31.58183,16.27175
5.419821739,18.89002,5.710437,3.28313,0.9538246,0.01095141,-0.3372562,-36.41671,-31.58183,16.27175
5.429730415,19.32359,5.127917,2.301323,0.9571623,0.0482628,-0.3495226,-36.72721,-31.58028,16.65884
5.439638138,17.77513,2.564831,1.933146,0.9349369,0.09347697,-0.3658214,-36.72721,-31.58028,16.65884
5.449546814,13.68722,-0.1730116,1.687694,0.9096526,0.1168864,-0.3721538,-36.72721,-31.58028,16.65884
5.45945549,9.661249,-2.095326,0.8286135,0.8920024,0.1098119,-0.385002,-36.72721,-31.58028,16.65884
5.46936369,7.493418,-3.726381,-0.214556,0.8907287,0.08208918,-0.3986194,-36.72721,-31.58028,16.65884
5.479271889,5.944966,-5.823452,0.09225857,0.9067463,0.06003909,-0.3883509,-36.42503,-30.83107,16.65491
5.489180088,4.706205,-5.706948,-0.214556,0.9306592,0.03812437,-0.3709522,-36.42503,-30.83107,16.65491
5.499088764,4.458453,-4.658412,-0.03046724,0.9502502,0.03984968,-0.3658401,-36.42503,-30.83107,16.65491
5.508996487,4.024887,-3.08561,-0.7668222,0.9611129,0.07686418,-0.3599321,-36.42503,-30.83107,16.65491
5.518905163,2.414498,-4.075893,-2.300895,0.952938,0.1009735,-0.3659379,-36.42503,-30.83107,16.65491
5.528813362,-0.06302445,-5.7652,-2.362258,0.9398175,0.09255791,-0.3677933,-36.43174,-30.07848,17.48778
5.538722038,-3.469617,-7.279751,-1.932717,0.9196139,0.06271776,-0.3702061,-36.43174,-30.07848,17.48778
5.548629761,-6.318768,-7.862271,-1.625903,0.9042259,0.02460768,-0.389524,-36.43174,-30.07848,17.48778
5.558538437,-7.557528,-7.862271,-1.441814,0.9256322,-0.01151615,-0.3947642,-36.43174,-30.07848,17.48778
5.568447113,-6.690396,-7.629263,-0.5213705,0.9415123,-0.030711,-0.3945587,-36.43174,-30.07848,17.48778
5.578355312,-6.690396,-7.512759,0.5217989,0.9499561,-0.02029462,-0.3695992,-36.73068,-31.20412,17.04315
5.588263512,-6.814272,-7.512759,1.503605,0.9426845,-0.0003537806,-0.3401094,-36.73068,-31.20412,17.04315
5.598171711,-7.743343,-7.454507,1.687694,0.9459594,0.00571419,-0.299766,-36.73068,-31.20412,17.04315
5.608080387,-9.725361,-6.871987,2.117234,0.9785311,0.001884334,-0.2751246,-36.73068,-31.20412,17.04315
5.617988109,-11.39769,-5.299184,2.669501,0.9948328,-0.004656509,-0.266676,-36.73068,-31.20412,17.04315
5.627896786,-12.32676,-3.551625,3.221767,0.9846223,-0.005730687,-0.2622674,-36.7293,-31.20255,17.42862
5.640282154,-13.56552,-3.435122,3.28313,0.9734369,-0.01901072,-0.2718555,-36.7293,-31.20255,17.42862
5.65019083,-14.61847,-3.202114,3.405856,0.9989896,-0.03716294,-0.2808556,-36.7293,-31.20255,17.42862
5.660099029,-14.92816,-2.677846,3.71267,1.006885,-0.05019849,-0.2891782,-36.7293,-31.20255,17.42862
5.670007229,-16.60048,-2.328334,4.571751,0.9962809,-0.0687899,-0.2959262,-36.7293,-31.20255,17.42862
5.679915428,-17.03405,-2.910854,5.369469,0.9772336,-0.08706597,-0.3150781,-36.4188,-31.20409,17.04153
5.689824104,-14.1849,-3.668129,5.737646,0.9686741,-0.103148,-0.3103045,-36.4188,-31.20409,17.04153
5.699731827,-10.15893,-2.736098,5.001291,0.9765755,-0.106424,-0.3065581,-36.4188,-31.20409,17.04153
5.709640503,-5.575511,-1.745815,4.264936,0.9878556,-0.112607,-0.3105449,-36.4188,-31.20409,17.04153
5.719548702,-1.177909,-0.5225234,4.203574,0.9926287,-0.08967947,-0.2950712,-36.4188,-31.20409,17.04153
5.729457378,3.157754,-0.05650773,3.774033,0.9707224,-0.05551873,-0.2932006,-37.48542,-30.83115,16.66043
5.739366054,7.183728,0.5260119,2.546775,0.9619926,-0.02218145,-0.2948184,-37.48542,-30.83115,16.66043
5.749273777,9.041868,0.7007678,1.564968,0.9539438,-0.01068944,-0.3033103,-37.48542,-30.83115,16.66043
5.759182453,7.74117,0.46776,0.7058876,0.9573446,-0.02041413,-0.3168509,-37.48542,-30.83115,16.66043
5.769090652,5.944966,-0.9302871,0.7058876,0.9430822,-0.03819565,-0.345647,-37.48542,-30.83115,16.66043
5.778998852,3.839073,-2.50309,1.319517,0.9460987,-0.05957927,-0.3626229,-37.10632,-31.20572,16.65963
5.788907051,2.97194,-3.551625,2.055871,0.9464558,-0.06256859,-0.3789715,-37.10632,-31.20572,16.65963
5.798815727,4.148763,-4.89142,2.853589,0.9416829,-0.06159348,-0.3664367,-37.10632,-31.20572,16.65963
5.80872345,6.502409,-4.075893,2.055871,0.9440185,-0.06576163,-0.3343155,-37.10632,-31.20572,16.65963
5.818632126,9.28962,-2.910854,0.8286135,0.9420073,-0.08020073,-0.3089447,-37.10632,-31.20572,16.65963
5.828540802,11.58133,-2.270082,-0.9509109,0.9637697,-0.08126563,-0.2861055,-36.73068,-31.20412,17.04315
5.838449001,14.24467,-0.8720351,-2.116806,0.9940096,-0.05360823,-0.2612326,-36.73068,-31.20412,17.04315
5.848357677,16.04087,0.9337757,-3.528153,1.013353,-0.008357598,-0.2769553,-36.73068,-31.20412,17.04315
5.8582654,16.22668,2.040563,-3.89633,1.004087,0.01372911,-0.296409,-36.73068,-31.20412,17.04315
5.868174076,15.17374,0.6425158,-3.773605,0.9619449,0.02193568,-0.2954844,-36.73068,-31.20412,17.04315
5.878082275,14.98792,-0.6972793,-4.448596,0.939167,0.00419263,-0.2963522,-37.11464,-30.45496,17.04279
5.887990475,15.66924,-1.221547,-5.000863,0.9355772,-0.03471327,-0.3105028,-37.11464,-30.45496,17.04279
5.897898674,17.27963,-1.862319,-4.9395,0.9458919,-0.05309704,-0.3275262,-37.11464,-30.45496,17.04279
5.910284519,18.2087,-2.444838,-4.816774,0.9672403,-0.03681641,-0.3247342,-37.11464,-30.45496,17.04279
5.920192718,18.64227,-2.270082,-4.632685,0.9601335,-0.02191615,-0.332732,-37.11464,-30.45496,17.04279
5.930101395,19.57134,-2.095326,-4.9395,0.9578475,0.008619343,-0.3291463,-37.11303,-30.45313,17.49251
5.940009117,19.81909,-1.862319,-5.307677,0.9643572,0.0441401,-0.320327,-37.11303,-30.45313,17.49251
5.949917793,16.78412,-1.571059,-5.246314,0.9607393,0.05472736,-0.3269452,-37.11303,-30.45313,17.49251
5.959825516,12.82009,-2.328334,-4.448596,0.9445258,0.04521654,-0.3455848,-37.11303,-30.45313,17.49251
5.969734192,8.36055,-3.784633,-4.080419,0.9331689,0.03721318,-0.3656997,-37.11303,-30.45313,17.49251
5.979642868,4.706205,-4.89142,-3.098613,0.9337968,0.02558422,-0.365783,-36.73602,-30.44996,18.26149
5.989551067,2.600312,-5.939956,-2.116806,0.9262581,0.01002464,-0.3562138,-36.73602,-30.44996,18.26149
5.999459743,1.733179,-5.357436,-1.871354,0.9382027,0.006866007,-0.3395398,-36.73602,-30.44996,18.26149
6.009367466,0.8041083,-4.833169,-2.730435,0.9385054,0.02287279,-0.3389558,-36.73602,-30.44996,18.26149
6.019276142,0.5563561,-4.89142,-3.344064,0.9540098,0.02689705,-0.3481953,-36.73602,-30.44996,18.26149
6.029184341,-0.6824049,-5.18268,-3.03725,0.9598882,0.02843959,-0.3453585,-36.73303,-30.44656,19.09667
6.039093018,-3.159927,-6.231215,-1.932717,0.9512141,0.01863952,-0.3443832,-36.73303,-30.44656,19.09667
6.04900074,-5.699387,-6.988491,-0.7054592,0.9390354,0.005827035,-0.3549194,-36.73303,-30.44656,19.09667
6.058909416,-6.56652,-6.871987,-0.03046724,0.9356793,-0.008815313,-0.3655494,-36.73303,-30.44656,19.09667
6.068818092,-6.690396,-6.405972,0.460436,0.9554146,-0.02701492,-0.3696945,-36.73303,-30.44656,19.09667
6.078725815,-8.053034,-5.415688,0.8899763,0.9851454,-0.05180884,-0.3605314,-36.42275,-30.44836,18.64534
6.088634491,-9.725361,-3.37687,2.546775,0.996717,-0.05930355,-0.3376408,-36.42275,-30.44836,18.64534
6.09854269,-9.849237,-2.037075,3.71267,0.9732857,-0.05421136,-0.327787,-36.42275,-30.44836,18.64534
6.108451366,-8.79629,-1.454555,3.835396,0.9656481,-0.05860287,-0.3147813,-36.42275,-30.44836,18.64534
6.118359089,-7.371715,-0.7555313,3.528581,0.9721516,-0.05649558,-0.2980219,-36.42275,-30.44836,18.64534
6.128267765,-6.318768,0.6425158,3.160404,0.9796555,-0.06412041,-0.2904596,-36.72979,-30.82298,18.64812
6.138176441,-5.947139,1.574547,2.485412,0.9742055,-0.05934691,-0.2918178,-36.72979,-30.82298,18.64812
6.148084641,-6.56652,1.749303,2.23996,0.9672772,-0.0589879,-0.2994339,-36.72979,-30.82298,18.64812
6.15799284,-7.557528,1.574547,2.362686,0.970853,-0.06057715,-0.334049,-36.72979,-30.82298,18.64812
6.167901039,-7.000086,1.283287,2.853589,0.9821998,-0.05575419,-0.3662924,-36.72979,-30.82298,18.64812
6.180286408,-4.33675,1.341539,4.019485,0.9904788,-0.05176497,-0.3649019,-36.4179,-30.82296,18.64649
6.190195084,-2.045042,2.564831,4.878565,0.9853368,-0.04390438,-0.3326313,-36.4179,-30.82296,18.64649
6.20010376,0.5563561,4.02113,4.878565,0.9594006,-0.05862577,-0.3041603,-36.4179,-30.82296,18.64649
6.210011482,2.848064,3.904626,4.264936,0.9280928,-0.05853726,-0.3053106,-36.4179,-30.82296,18.64649
6.219920158,4.830081,3.205602,2.608138,0.9295577,-0.0629102,-0.310635,-36.4179,-30.82296,18.64649
6.229828358,7.183728,2.681334,1.074065,0.9504974,-0.06366707,-0.3199567,-37.10057,-31.19918,18.26575
6.239736557,9.847063,2.797838,0.460436,0.9718833,-0.06785474,-0.3374681,-37.10057,-31.19918,18.26575
6.249644756,12.88203,3.788122,0.2763473,0.989794,-0.05650275,-0.3418795,-37.10057,-31.19918,18.26575
6.259553433,14.86405,4.778405,0.5831618,0.9809678,-0.06345521,-0.3524077,-37.10057,-31.19918,18.26575
6.269462109,16.22668,3.962878,1.135428,0.9878737,-0.0516307,-0.3327063,-37.10057,-31.19918,18.26575
6.279369831,16.72219,5.244421,1.994509,0.9967818,-0.04122099,-0.3101519,-36.42066,-30.8261,17.87556
6.289278507,17.09381,8.040515,2.178597,0.9687477,-0.01092326,-0.2904845,-36.42066,-30.8261,17.87556
6.299186707,15.29761,8.215271,2.301323,0.9317431,0.02161523,-0.2846437,-36.42066,-30.8261,17.87556
6.309095383,11.14776,5.826941,3.160404,0.9347547,0.0477856,-0.2941004,-36.42066,-30.8261,17.87556
6.319003105,6.006905,3.788122,3.528581,0.9661769,0.06750834,-0.3062635,-36.42066,-30.8261,17.87556
6.328911781,1.175737,4.60365,4.694477,0.9866629,0.07164173,-0.3064255,-36.73116,-30.82455,18.26265
6.338819981,-2.41667,6.525964,5.983098,0.9736589,0.07913607,-0.3259418,-36.73116,-30.82455,18.26265
6.34872818,-5.327759,6.933728,6.780816,0.9698977,0.06160437,-0.3317857,-36.73116,-30.82455,18.26265
6.358636856,-9.539547,7.632751,7.762622,0.9746505,0.04281835,-0.3194707,-36.73116,-30.82455,18.26265
6.368545055,-13.93715,8.623034,8.621703,0.9540952,-0.003054075,-0.3272687,-36.73116,-30.82455,18.26265
6.378453732,-15.9811,8.448278,8.805792,0.9200922,-0.03653679,-0.344463,-37.48453,-30.45002,18.26539
6.388361454,-14.74234,6.642468,7.946711,0.9132147,-0.04249283,-0.3545224,-37.48453,-30.45002,18.26539
6.39827013,-10.90218,5.069665,6.351275,0.9187614,-0.05453311,-0.3522531,-37.48453,-30.45002,18.26539
6.408178806,-6.814272,4.079382,5.124017,0.9330453,-0.05917947,-0.3476146,-37.48453,-30.45002,18.26539
6.418087006,-3.655432,3.380358,4.080848,0.9501338,-0.06044168,-0.3516223,-37.48453,-30.45002,18.26539
6.427995682,-1.363724,2.797838,3.835396,0.9621581,-0.04088032,-0.3482421,-37.11165,-30.45156,17.87797
6.440380573,-0.6204669,3.788122,3.28313,0.9566349,-0.02297411,-0.3413495,-37.11165,-30.45156,17.87797
6.450288773,-0.2488386,4.137634,2.853589,0.9401605,-0.02846998,-0.3330711,-37.11165,-30.45156,17.87797
6.460197449,1.113798,3.788122,2.608138,0.9384971,-0.0488301,-0.3283897,-37.11165,-30.45156,17.87797
6.470106125,3.033878,2.914342,2.178597,0.9599238,-0.06933354,-0.3133594,-37.11165,-30.45156,17.87797
6.480013847,3.591321,2.390074,2.976315,0.982704,-0.08158492,-0.2997271,-37.1165,-30.07696,17.87682
6.489922524,2.66225,2.215319,4.510388,0.9827036,-0.0625608,-0.2775131,-37.1165,-30.07696,17.87682
6.499830723,1.113798,2.390074,5.492195,0.981956,-0.04709172,-0.2846055,-37.1165,-30.07696,17.87682
6.509739399,-0.6204669,2.797838,6.228549,0.9926188,-0.04212803,-0.2880322,-37.1165,-30.07696,17.87682
6.519647122,-2.292794,3.846374,7.148993,0.9834648,-0.04071005,-0.2730532,-37.1165,-30.07696,17.87682
6.529555798,-4.02706,5.360925,7.271719,0.9706243,-0.02874047,-0.2714142,-38.24088,-30.07888,17.43295
6.539464474,-4.274812,5.826941,6.474001,0.9717553,-0.03206327,-0.2604032,-38.24088,-30.07888,17.43295
6.549372196,-3.531555,6.758972,5.799009,0.9896979,-0.05361703,-0.25255,-38.24088,-30.07888,17.43295
6.559280872,-3.779308,8.040515,5.860372,1.003103,-0.07237018,-0.2547195,-38.24088,-30.07888,17.43295
6.569189072,-5.451635,7.924011,7.08763,0.9864151,-0.08675794,-0.2777086,-38.24088,-30.07888,17.43295
6.579097748,-6.071015,6.351208,7.762622,0.9510473,-0.09362486,-0.3014352,-37.49214,-30.07856,17.4933
6.58900547,-5.513573,4.661901,7.51717,0.9249697,-0.09061941,-0.3136581,-37.49214,-30.07856,17.4933
6.598914146,-4.274812,2.681334,6.289912,0.922797,-0.07904944,-0.3212435,-37.49214,-30.07856,17.4933
6.608822822,-1.735352,1.691051,4.878565,0.9386262,-0.06047022,-0.3294288,-37.49214,-30.07856,17.4933
6.618730545,0.9899224,1.516295,3.651307,0.9775269,-0.03716603,-0.3233912,-37.49214,-30.07856,17.4933
6.628639221,2.600312,2.681334,3.221767,1.002858,-0.03592143,-0.3312998,-38.24469,-29.76646,17.49623
6.63854742,2.538374,3.322106,3.71267,0.9919872,-0.03172502,-0.3374133,-38.24469,-29.76646,17.49623
6.648456097,2.104807,3.14735,4.571751,0.9637097,-0.03642762,-0.3347823,-38.24469,-29.76646,17.49623
6.658364773,1.980931,2.681334,4.510388,0.9257461,-0.05096028,-0.3345281,-38.24469,-29.76646,17.49623
6.668272495,3.343568,2.098815,3.467218,0.9107953,-0.06079852,-0.3258125,-38.24469,-29.76646,17.49623
6.678181171,6.254657,1.865807,2.546775,0.936612,-0.0812524,-0.3117827,-38.24607,-29.76803,17.11076
6.688089371,9.723187,1.749303,1.626331,0.9717007,-0.06379902,-0.302868,-38.24607,-29.76803,17.11076
6.697998047,11.27164,1.166783,-0.2759189,0.9950186,-0.04455985,-0.2952729,-38.24607,-29.76803,17.11076
6.707905769,11.14776,-0.1147597,-1.441814,0.965852,-0.05752118,-0.293649,-38.24607,-29.76803,17.11076
6.720291614,9.165745,-5.18268,-2.116806,0.9136719,-0.08542126,-0.3125587,-38.25253,-29.39526,16.65989
6.730199814,7.74117,-8.444791,-2.853161,0.9116284,-0.0962231,-0.3337387,-38.25253,-29.39526,16.65989
6.74010849,8.298612,-9.143814,-3.344064,0.9344888,-0.09404692,-0.3430586,-38.25253,-29.39526,16.65989
6.750016212,11.02389,-8.386539,-3.834968,0.9507046,-0.08843737,-0.3287665,-38.25253,-29.39526,16.65989
6.759924889,13.68722,-6.813735,-4.080419,0.9669955,-0.08376428,-0.3082392,-38.25253,-29.39526,16.65989
6.769833565,16.84606,-5.590444,-4.755411,0.9823221,-0.08641344,-0.2949542,-37.87125,-29.704,17.49409
6.779741764,19.0139,-4.483657,-5.062225,0.990773,-0.09599334,-0.2926953,-37.87125,-29.704,17.49409
6.789649963,20.25266,-3.551625,-4.878137,0.9898874,-0.1008356,-0.2893583,-37.87125,-29.704,17.49409
6.799558163,21.3056,-3.027358,-4.448596,1.012003,-0.09757457,-0.2746562,-37.87125,-29.704,17.49409
6.809466839,23.4115,-1.571059,-3.712242,1.018647,-0.08442307,-0.2789515,-37.87125,-29.704,17.49409
6.819374561,22.79212,-0.6390273,-2.546346,1.002752,-0.06230928,-0.2772167,-37.49827,-29.38867,18.26212
6.829283237,19.44746,-0.8137832,-1.748629,0.9676169,-0.03905947,-0.2906615,-37.49827,-29.38867,18.26212
6.839191914,15.42149,-2.444838,-1.257725,0.9301386,-0.03090937,-0.3118677,-37.49827,-29.38867,18.26212
6.849100113,12.57234,-5.066176,-1.687266,0.912825,-0.03513019,-0.3362237,-37.49827,-29.38867,18.26212
6.859008789,10.52838,-6.289467,-3.098613,0.9307443,-0.05718403,-0.3312546,-37.49827,-29.38867,18.26212
6.868916512,10.09482,-6.464223,-3.773605,0.9569432,-0.08354107,-0.3345535,-37.87439,-29.0107,19.09809
6.878825188,9.909001,-5.532192,-4.019056,0.9737368,-0.08909861,-0.3246625,-37.87439,-29.0107,19.09809
6.888733387,8.917993,-3.959389,-4.080419,0.969784,-0.07697387,-0.3144618,-37.87439,-29.0107,19.09809
6.898641586,9.165745,-3.435122,-3.957693,0.9441324,-0.05838528,-0.3145809,-37.87439,-29.0107,19.09809
6.908550262,9.661249,-4.600161,-4.203145,0.9399925,-0.04587,-0.3221418,-37.87439,-29.0107,19.09809
6.918458462,10.15675,-5.124428,-4.509959,0.9503906,-0.05347878,-0.3184474,-37.12934,-28.63448,19.47851
6.928367138,12.38652,-4.250649,-5.123589,0.9725396,-0.07898107,-0.3341872,-37.12934,-28.63448,19.47851
6.93827486,17.15575,-2.852602,-5.614491,0.98981,-0.08600219,-0.3271913,-37.12934,-28.63448,19.47851
6.948183537,21.3056,-2.037075,-5.921306,0.9751062,-0.07352116,-0.3159285,-37.12934,-28.63448,19.47851
6.958092213,24.15475,-1.629311,-6.534935,0.9658618,-0.06288192,-0.2989666,-37.12934,-28.63448,19.47851
6.968000412,25.33158,-1.571059,-7.455379,0.9573001,-0.04896948,-0.3069574,-37.88133,-28.25838,19.86672
6.977909088,24.89801,-2.79435,-7.762193,0.9498001,-0.0462206,-0.3198341,-37.88133,-28.25838,19.86672
6.99029398,24.03088,-4.017641,-7.762193,0.9564822,-0.04329307,-0.3323604,-37.88133,-28.25838,19.86672
7.000202656,23.59731,-4.716664,-7.209927,0.9686633,-0.04511355,-0.3387273,-37.88133,-28.25838,19.86672
7.010110855,23.16374,-4.541909,-6.41221,0.9740378,-0.03529229,-0.3276679,-37.88133,-28.25838,19.86672
7.020019531,21.61529,-3.668129,-5.737217,0.9710907,-0.03045787,-0.323287,-36.80986,-29.00591,20.24898
7.029927254,20.62428,-3.08561,-5.737217,0.9558103,-0.0263212,-0.3303205,-36.80986,-29.00591,20.24898
7.03983593,19.63328,-3.842885,-5.79858,0.9351119,-0.02885342,-0.3013365,-36.80986,-29.00591,20.24898
7.049744129,18.58033,-4.658412,-6.350846,0.9353897,-0.04675763,-0.2952163,-36.80986,-29.00591,20.24898
7.059652805,17.96095,-4.658412,-6.903113,0.956085,-0.06592996,-0.3022576,-36.80986,-29.00591,20.24898
7.069561005,19.07583,-3.609878,-6.780387,0.9747773,-0.08856601,-0.3179463,-37.12983,-28.25492,20.69801
7.079469204,20.25266,-3.08561,-6.657661,0.9911038,-0.07729339,-0.3338675,-37.12983,-28.25492,20.69801
7.08937788,20.0049,-2.328334,-5.000863,1.004886,-0.05146912,-0.3424657,-37.12983,-28.25492,20.69801
7.099285603,18.33258,-1.687563,-2.484983,0.9800888,-0.02707888,-0.3478358,-37.12983,-28.25492,20.69801
7.109194279,14.98792,-2.328334,-0.2759189,0.9318463,-0.005896535,-0.3544509,-37.12983,-28.25492,20.69801
7.119102955,9.103806,-3.726381,0.1536215,0.9024615,-0.0121421,-0.3662247,-36.4444,-27.87556,21.84969
7.129011154,3.219692,-6.114712,0.2763473,0.8954701,-0.0147428,-0.3834631,-36.4444,-27.87556,21.84969
7.13891983,0.5563561,-7.396255,-0.3986447,0.9301732,-0.03699343,-0.3632855,-36.4444,-27.87556,21.84969
7.148827553,1.485427,-5.240932,-1.012274,0.9609697,-0.05099765,-0.3329334,-36.4444,-27.87556,21.84969
7.158736229,3.653259,-3.027358,-2.730435,0.9871119,-0.04372564,-0.3023966,-36.4444,-27.87556,21.84969
7.168644905,4.706205,-1.629311,-3.405427,1.007303,-0.06754148,-0.2686508,-37.12916,-27.87405,22.23872
7.178552628,4.520391,-0.5225234,-2.669072,0.9969452,-0.09966376,-0.2673285,-37.12916,-27.87405,22.23872
7.188461304,5.759152,-1.105043,-1.871354,0.9782215,-0.1421617,-0.2832837,-37.12916,-27.87405,22.23872
7.198369503,6.688223,-0.8137832,-0.6440963,0.9913447,-0.1405739,-0.2891564,-37.12916,-27.87405,22.23872
7.208278179,9.227683,-0.2312636,0.3990731,0.9729487,-0.1277882,-0.303786,-37.12916,-27.87405,22.23872
7.218186855,12.32458,0.2347521,0.09225857,0.9638718,-0.107554,-0.3069283,-36.44764,-27.49913,22.29824
7.228094578,14.67823,1.341539,-0.7054592,0.9639626,-0.07214531,-0.3042925,-36.44764,-27.49913,22.29824
7.238003254,15.79312,1.924059,-1.748629,0.9575863,-0.0373615,-0.3131248,-36.44764,-27.49913,22.29824
7.247911453,14.67823,1.807555,-2.300895,0.9599839,-0.004433036,-0.3268522,-36.44764,-27.49913,22.29824
7.260297298,10.09482,0.5260119,-1.809992,0.959045,-0.002234261,-0.3681225,-36.44764,-27.49913,22.29824
7.270205021,6.316595,-1.163295,0.6445247,0.9300983,-0.007524552,-0.3837352,-36.44627,-27.49757,22.68371
7.280113697,2.414498,-1.687563,2.178597,0.9241683,-0.007630546,-0.3899232,-36.44627,-27.49757,22.68371
7.290021896,-0.9920952,-1.571059,3.037678,0.9227641,-0.009567552,-0.3860818,-36.44627,-27.49757,22.68371
7.299930573,-1.921166,-0.4642715,2.730864,0.9238726,-0.01143853,-0.3755411,-36.44627,-27.49757,22.68371
7.309839249,-2.168918,0.293004,2.362686,0.9249554,-0.01527415,-0.3698147,-36.44627,-27.49757,22.68371
7.319746971,-3.593493,0.1765001,2.178597,0.9377219,-0.03435098,-0.3393297,-36.44764,-27.49913,22.29824
7.329655647,-6.071015,0.2347521,2.669501,0.9668432,-0.05482351,-0.3368545,-36.44764,-27.49913,22.29824
7.33956337,-7.805281,0.8172717,4.264936,0.9849321,-0.05508617,-0.3375037,-36.44764,-27.49913,22.29824
7.349472046,-9.353732,1.225035,6.105824,0.9780318,-0.04593209,-0.3320972,-36.44764,-27.49913,22.29824
7.359380245,-12.01707,0.8172717,7.455808,0.9636011,-0.0620895,-0.3277499,-36.44764,-27.49913,22.29824
7.369288921,-13.99909,1.166783,7.946711,0.9466457,-0.07734336,-0.3300955,-36.44141,-27.87216,22.68486
7.379197598,-14.37072,0.9920276,7.026268,0.9378979,-0.08425505,-0.3329416,-36.44141,-27.87216,22.68486
7.38910532,-13.6894,0.8172717,5.676283,0.9556596,-0.09517139,-0.3302976,-36.44141,-27.87216,22.68486
7.399013996,-12.3887,1.516295,4.694477,0.9882339,-0.1058291,-0.3133842,-36.44141,-27.87216,22.68486
7.408922196,-11.02606,2.273571,5.001291,1.000687,-0.1143373,-0.301072,-36.44141,-27.87216,22.68486
7.418830872,-10.65443,2.914342,5.799009,0.9894004,-0.1018163,-0.2903207,-36.07476,-27.50067,21.91083
7.428739071,-11.64544,3.43861,6.474001,0.9716677,-0.08795811,-0.2867033,-36.07476,-27.50067,21.91083
7.43864727,-10.77831,4.254138,6.596727,0.9577832,-0.08530347,-0.3024024,-36.07476,-27.50067,21.91083
7.448555946,-8.79629,4.661901,6.044461,0.9464026,-0.08307523,-0.3128458,-36.07476,-27.50067,21.91083
7.458463669,-8.424662,4.720153,5.246743,0.9494699,-0.08931052,-0.3071538,-36.07476,-27.50067,21.91083
7.468372345,-8.238848,4.661901,4.203574,0.9562125,-0.09805879,-0.3274411,-37.14024,-27.12642,21.85095
7.478281021,-6.752334,3.904626,3.774033,0.9500324,-0.09536812,-0.354735,-37.14024,-27.12642,21.85095
7.488189221,-5.451635,2.506578,3.467218,0.9488222,-0.08086706,-0.3603891,-37.14024,-27.12642,21.85095
7.498097897,-4.708378,1.807555,3.467218,0.9527103,-0.07644006,-0.3575146,-37.14024,-27.12642,21.85095
7.508005619,-4.398688,1.574547,3.405856,0.9424843,-0.0716687,-0.3477851,-37.14024,-27.12642,21.85095
7.517914295,-4.460626,1.865807,3.221767,0.9194627,-0.0714897,-0.3514122,-36.76251,-27.50256,21.46469
7.530299664,-2.540546,1.807555,1.38088,0.913375,-0.06582405,-0.3662031,-36.76251,-27.50256,21.46469
7.54020834,-0.6824049,1.516295,-0.214556,0.946506,-0.04985951,-0.3592008,-36.76251,-27.50256,21.46469
7.550117016,0.5563561,1.807555,-1.012274,0.9649493,-0.04628361,-0.3684705,-36.76251,-27.50256,21.46469
7.560024738,1.671241,1.283287,-0.214556,0.9509478,-0.03588502,-0.3865178,-36.76251,-27.50256,21.46469
7.569933414,0.6182941,0.001744238,0.6445247,0.9381616,-0.03217985,-0.3892558,-37.13677,-27.50259,21.46663
7.579841614,-1.054033,-1.338051,1.564968,0.9261728,-0.04977147,-0.3868613,-37.13677,-27.50259,21.46663
7.589749813,-2.540546,-1.920571,1.994509,0.9391509,-0.0645963,-0.3784373,-37.13677,-27.50259,21.46663
7.599658012,-2.974113,-1.978823,2.362686,0.9453783,-0.08238433,-0.3642086,-37.13677,-27.50259,21.46663
7.609566688,-2.230856,-1.454555,2.23996,0.9505492,-0.08656698,-0.3417169,-37.13677,-27.50259,21.46663
7.619475365,-1.301785,0.0599962,1.81042,0.9675204,-0.08471507,-0.3058496,-36.82489,-27.50256,21.46501
7.629383087,-0.3727147,1.458043,1.503605,0.9765366,-0.07181005,-0.2698351,-36.82489,-27.50256,21.46501
7.639291763,-0.806281,2.623082,1.258154,0.9820703,-0.06336928,-0.2448619,-36.82489,-27.50256,21.46501
7.649200439,-2.230856,2.331823,0.8899763,0.977727,-0.06485793,-0.2409904,-36.82489,-27.50256,21.46501
7.659108639,-2.664423,2.215319,0.2149844,0.9871237,-0.07297893,-0.240171,-36.82489,-27.50256,21.46501
7.669017315,-0.4346527,2.739586,-0.3372818,0.991393,-0.06860191,-0.2478639,-36.82974,-27.12797,21.46386
7.678925037,2.042869,2.157067,-1.012274,0.969139,-0.06071522,-0.2629706,-36.82974,-27.12797,21.46386
7.688833713,2.786126,-0.05650773,-1.748629,0.9532038,-0.08569102,-0.2725928,-36.82974,-27.12797,21.46386
7.698741436,2.104807,-1.978823,-1.809992,0.9505976,-0.1304354,-0.2930334,-36.82974,-27.12797,21.46386
7.708650112,2.166745,-3.493374,-1.625903,0.9637891,-0.1580804,-0.3264705,-36.82974,-27.12797,21.46386
7.718558788,3.962949,-4.134145,-1.503177,0.9724762,-0.1687614,-0.3501498,-37.14162,-27.12799,21.46548
7.728466988,5.759152,-3.551625,-1.257725,0.9809827,-0.1531948,-0.3606882,-37.14162,-27.12799,21.46548
7.738375664,7.493418,-1.512807,-0.7054592,0.9753264,-0.1241384,-0.3537201,-37.14162,-27.12799,21.46548
7.74828434,8.608302,0.001744238,-0.8895479,0.9600037,-0.09953592,-0.3409304,-37.14162,-27.12799,21.46548
7.758192062,9.723187,0.7590198,-1.503177,0.9531697,-0.0864449,-0.3244546,-37.14162,-27.12799,21.46548
7.768100738,10.03288,1.924059,-2.484983,0.9826605,-0.0791686,-0.3011511,-37.50756,-27.87878,21.08427
7.778008938,9.475435,2.623082,-2.300895,0.989094,-0.07368305,-0.2872495,-37.50756,-27.87878,21.08427
7.787917137,7.245666,2.623082,-1.135,0.9741667,-0.04619637,-0.2802061,-37.50756,-27.87878,21.08427
7.800302505,1.671241,0.9337757,1.012702,0.9551699,-0.01249926,-0.2812464,-37.50756,-27.87878,21.08427
7.810211182,-3.036051,-1.163295,1.687694,0.9442858,-0.006358581,-0.2863865,-37.50756,-27.87878,21.08427
7.820119381,-6.690396,-2.270082,1.503605,0.9511322,-0.04163385,-0.2799627,-37.88044,-27.87724,21.47168
7.830028057,-8.4866,-2.910854,1.749057,0.9635711,-0.08990115,-0.2679151,-37.88044,-27.87724,21.47168
7.839936733,-8.610476,-2.969106,1.994509,0.9796853,-0.1192181,-0.2567357,-37.88044,-27.87724,21.47168
7.849844456,-6.87621,-1.978823,1.871783,0.9930009,-0.1370424,-0.2665807,-37.88044,-27.87724,21.47168
7.859753132,-4.64644,-0.8137832,1.442243,1.000349,-0.1398702,-0.2685882,-37.88044,-27.87724,21.47168
7.869660854,-2.10698,-0.4060195,0.9513392,0.998735,-0.1263066,-0.2670424,-37.50457,-27.87538,21.91945
7.87956953,0.3086039,-0.8137832,0.03089567,0.9645667,-0.1364607,-0.2730361,-37.50457,-27.87538,21.91945
7.889478207,4.644268,-1.571059,-1.135,0.9367871,-0.167494,-0.300355,-37.50457,-27.87538,21.91945
7.899386406,9.165745,-2.386586,-2.975887,0.9493062,-0.1698747,-0.3220937,-37.50457,-27.87538,21.91945
7.909295082,12.88203,-1.512807,-3.89633,0.9832916,-0.1642061,-0.3391758,-37.50457,-27.87538,21.91945
7.919203758,16.72219,-1.279799,-3.712242,0.9898017,-0.1369778,-0.3400149,-37.88368,-27.50082,21.92024
7.929111481,21.61529,-2.037075,-4.019056,0.958952,-0.09129386,-0.3384649,-37.88368,-27.50082,21.92024
7.939020157,27.87104,-3.784633,-7.578104,0.9453444,-0.08995855,-0.328727,-37.88368,-27.50082,21.92024
7.948928356,32.94996,-5.299184,-11.68942,0.9426191,-0.1252483,-0.3020481,-37.88368,-27.50082,21.92024
7.958836555,36.48043,-7.338003,-13.83712,0.9293309,-0.1671614,-0.3118076,-37.88368,-27.50082,21.92024
7.968745232,40.56834,-8.328286,-15.06438,0.942174,-0.180593,-0.3148968,-36.8316,-26.74997,22.29788
7.978653431,46.88602,-7.163247,-15.30983,0.9694226,-0.1720268,-0.3179727,-36.8316,-26.74997,22.29788
7.988562107,52.77013,-4.658412,-14.63484,0.9846442,-0.1393692,-0.321257,-36.8316,-26.74997,22.29788
7.99846983,51.53137,-4.367153,-11.87351,0.9710262,-0.09828752,-0.313655,-36.8316,-26.74997,22.29788
8.008378506,50.35455,-5.357436,-8.682637,0.9384534,-0.04104793,-0.3235359,-36.8316,-26.74997,22.29788
8.018287182,47.5054,-7.221499,-7.70083,0.898168,0.03882977,-0.3437582,-37.13427,-27.11963,23.52131
8.028195381,40.01089,-8.794302,-8.805363,0.9282828,0.07325134,-0.3231605,-37.13427,-27.11963,23.52131
8.03810358,30.34856,-10.01759,-9.17354,0.9652329,0.06507477,-0.3057908,-37.13427,-27.11963,23.52131
8.04801178,20.19072,-11.06613,-7.946282,0.9681315,0.03119512,-0.3012418,-37.13427,-27.11963,23.52131
8.057920456,11.14776,-10.54186,-6.044032,0.9751099,-0.009377204,-0.2881322,-37.13427,-27.11963,23.52131
8.070305824,0.9899224,-7.338003,-2.484983,0.9943072,-0.05614078,-0.2828594,-36.46201,-25.61491,25.055
8.0802145,-3.903184,-5.007925,0.1536215,0.9826751,-0.07379511,-0.2934329,-36.46201,-25.61491,25.055
8.090123177,-5.265821,-3.842885,1.074065,0.9775327,-0.06374399,-0.3062826,-36.46201,-25.61491,25.055
8.100030899,-6.752334,-2.270082,1.871783,0.9948691,-0.03780842,-0.3019488,-36.46201,-25.61491,25.055
8.109939575,-8.548538,-0.9885391,2.362686,0.9725185,-0.02265494,-0.3179665,-35.70219,-26.36222,25.50312
8.119847298,-10.71637,-0.6972793,2.23996,0.9317946,-0.03055316,-0.3406901,-35.70219,-26.36222,25.50312
8.129755974,-11.70738,-1.804067,1.81042,0.9076005,-0.04707309,-0.3828303,-35.70219,-26.36222,25.50312
8.13966465,-10.2828,-3.318618,1.012702,0.9024743,-0.06189162,-0.4232149,-35.70219,-26.36222,25.50312
8.149572849,-6.628458,-4.774917,0.03089567,0.9078109,-0.07696806,-0.4449719,-35.70219,-26.36222,25.50312
8.159481525,-1.673414,-4.308901,-1.196362,0.9197832,-0.1059659,-0.4558392,-35.71002,-25.99102,24.66679
8.169389248,3.529382,-3.143862,-1.625903,0.9190295,-0.1292762,-0.4612693,-35.71002,-25.99102,24.66679
8.179297924,9.97094,-2.386586,-2.300895,0.9250624,-0.1452142,-0.4638321,-35.71002,-25.99102,24.66679
8.1892066,15.35955,-1.221547,-1.932717,0.9317087,-0.1381545,-0.4273545,-35.71002,-25.99102,24.66679
8.1991148,18.58033,-0.8137832,-1.56454,0.9243774,-0.1123911,-0.396865,-35.71002,-25.99102,24.66679
8.209022999,19.69521,-1.163295,-1.809992,0.9283162,-0.06672257,-0.3884346,-35.69734,-26.73681,25.50428
8.218931675,19.07583,-2.21183,-1.932717,0.922948,-0.02166699,-0.3823228,-35.69734,-26.73681,25.50428
8.228839874,16.22668,-3.609878,-2.239532,0.9193495,0.01039384,-0.3619093,-35.69734,-26.73681,25.50428
8.23874855,11.95296,-4.833169,-2.423621,0.9260341,0.02795688,-0.3570526,-35.69734,-26.73681,25.50428
8.248656273,7.183728,-5.590444,-2.055443,0.9306939,0.01448829,-0.3475823,-35.69734,-26.73681,25.50428
8.258564949,4.148763,-5.532192,-1.503177,0.9402829,-0.01841065,-0.3570131,-35.32793,-26.36219,25.50117
8.268473625,2.290622,-4.949672,-0.3986447,0.9687435,-0.05677915,-0.3445676,-35.32793,-26.36219,25.50117
8.278381825,1.918993,-3.842885,0.7058876,0.9670521,-0.07520264,-0.3403533,-35.32793,-26.36219,25.50117
8.288290501,2.538374,-4.367153,1.626331,0.954408,-0.08215527,-0.3417231,-35.32793,-26.36219,25.50117
8.298198223,2.600312,-3.551625,1.994509,0.9557936,-0.07534995,-0.3416906,-35.32793,-26.36219,25.50117
8.308106899,3.467444,-2.910854,2.117234,0.9565046,-0.05547659,-0.3444458,-35.3411,-25.23683,25.88318
8.318015575,2.414498,-3.202114,1.81042,0.9564039,-0.04869968,-0.3463203,-35.3411,-25.23683,25.88318
8.327923298,1.175737,-4.017641,1.626331,0.9666755,-0.05686205,-0.3555927,-35.3411,-25.23683,25.88318
8.34030962,0.1847278,-3.609878,2.424049,0.9679569,-0.088887,-0.3635004,-35.3411,-25.23683,25.88318
8.350217342,-0.4965908,-3.609878,3.099041,0.942362,-0.1031914,-0.3489543,-35.3411,-25.23683,25.88318
8.360126019,0.1847278,-3.08561,2.301323,0.9376768,-0.1207072,-0.3495078,-35.33002,-25.98445,26.27095
8.370034218,2.104807,-1.978823,1.135428,0.9616582,-0.153318,-0.3379429,-35.33002,-25.98445,26.27095
8.379942417,4.024887,-0.3477675,0.8286135,0.9834185,-0.1665791,-0.3295896,-35.33002,-25.98445,26.27095
8.389851093,5.944966,0.9920276,1.196791,0.9792568,-0.1394411,-0.322168,-35.33002,-25.98445,26.27095
8.399759293,7.183728,1.807555,1.871783,0.9715574,-0.1080155,-0.3209271,-35.33002,-25.98445,26.27095
8.409667969,7.803108,1.632799,1.81042,0.9794499,-0.06959327,-0.3169028,-35.32517,-26.35905,26.27211
8.419576645,6.130781,1.807555,2.485412,0.9700662,-0.06585578,-0.3215927,-35.32517,-26.35905,26.27211
8.429484367,3.839073,1.283287,2.853589,0.9371214,-0.066362,-0.3400176,-35.32517,-26.35905,26.27211
8.439393044,1.733179,0.9920276,2.546775,0.9405969,-0.08482826,-0.3564981,-35.32517,-26.35905,26.27211
8.449301243,1.237675,0.9920276,3.221767,0.9343375,-0.09705251,-0.3613233,-35.32517,-26.35905,26.27211
8.459209442,1.237675,0.409508,3.405856,0.9202718,-0.1152194,-0.3713976,-36.08823,-25.23532,26.27254
8.469118118,1.113798,0.1182482,3.037678,0.9202496,-0.1244993,-0.3844234,-36.08823,-25.23532,26.27254
8.479026318,1.795117,-0.5807754,2.669501,0.9333706,-0.129742,-0.3985043,-36.08823,-25.23532,26.27254
8.488934994,2.35256,-0.1730116,1.687694,0.9374703,-0.1417903,-0.394301,-36.08823,-25.23532,26.27254
8.49884367,3.901011,0.46776,0.8899763,0.937579,-0.1583191,-0.403055,-36.08823,-25.23532,26.27254
8.508751392,5.697214,-0.1147597,0.8286135,0.9362973,-0.1762899,-0.4060438,-35.70913,-25.60989,26.27175
8.518660069,9.351559,-0.5807754,0.2763473,0.930227,-0.1874401,-0.3911771,-35.70913,-25.60989,26.27175
8.528568268,13.87304,0.0599962,-0.8281851,0.9356623,-0.1761237,-0.3724258,-35.70913,-25.60989,26.27175
8.538476944,18.33258,1.399791,-1.871354,0.9356443,-0.1241862,-0.361036,-35.70913,-25.60989,26.27175
8.548385143,18.14676,1.807555,-2.730435,0.918912,-0.07250357,-0.3586163,-35.70913,-25.60989,26.27175
8.558293343,13.62528,0.409508,-3.46679,0.9259586,-0.04182976,-0.3507946,-35.33326,-25.60803,26.71952
8.568202019,8.298612,-1.571059,-4.080419,0.9282075,-0.03409623,-0.3608472,-35.33326,-25.60803,26.71952
8.578110695,5.5114,-3.143862,-4.509959,0.9264203,-0.05110611,-0.3643051,-35.33326,-25.60803,26.71952
8.588018417,4.520391,-4.949672,-5.307677,0.9134957,-0.07551735,-0.3657886,-35.33326,-25.60803,26.71952
8.597927093,4.458453,-6.34772,-6.044032,0.9166022,-0.1131913,-0.3454216,-35.33326,-25.60803,26.71952
8.610312462,5.077834,-6.289467,-7.27129,0.9370552,-0.1385828,-0.3356965,-36.08525,-25.23193,27.10772
8.620221138,6.316595,-5.823452,-8.253097,0.949653,-0.1384835,-0.3468561,-36.08525,-25.23193,27.10772
8.63012886,9.537373,-6.114712,-8.989451,0.9607896,-0.1305948,-0.3483469,-36.08525,-25.23193,27.10772
8.640037537,12.75815,-6.813735,-9.664443,0.9726323,-0.1289285,-0.3359613,-36.08525,-25.23193,27.10772
8.649946213,14.67823,-6.755483,-10.15535,0.9812083,-0.1399067,-0.3231494,-36.08525,-25.23193,27.10772
8.659854412,16.66025,-5.299184,-10.27807,1.002152,-0.1579744,-0.3047373,-36.46088,-25.23352,26.7242
8.669763088,18.89002,-2.619594,-9.787169,1.012968,-0.1485405,-0.287969,-36.46088,-25.23352,26.7242
8.679670811,19.69521,-0.5225234,-8.559911,1.003253,-0.1315566,-0.2618374,-36.46088,-25.23352,26.7242
8.689579487,17.27963,0.409508,-6.534935,0.9844596,-0.1128754,-0.2605788,-36.46088,-25.23352,26.7242
8.699488163,12.32458,-0.1730116,-4.571322,0.9741498,-0.08449344,-0.2790206,-36.46088,-25.23352,26.7242
8.709396362,7.493418,-0.6390273,-2.975887,0.9757833,-0.06658786,-0.2894799,-36.08387,-25.23036,27.49319
8.719304562,3.219692,-0.6390273,-1.687266,0.9794422,-0.0574021,-0.3033771,-36.08387,-25.23036,27.49319
8.729213238,0.9899224,-0.1147597,-0.9509109,1.003121,-0.03773576,-0.3077865,-36.08387,-25.23036,27.49319
8.739121437,-0.806281,1.691051,1.442243,0.9876234,-0.01663898,-0.3161455,-36.08387,-25.23036,27.49319
8.749030113,-2.10698,2.331823,2.546775,0.9324912,0.002483505,-0.3294328,-36.08387,-25.23036,27.49319
8.758937836,-4.832254,1.865807,2.055871,0.9272286,-0.00679181,-0.3289658,-34.96595,-24.85567,27.4862
8.768846512,-6.132954,1.166783,1.749057,0.9536266,-0.03280577,-0.3601134,-34.96595,-24.85567,27.4862
8.778755188,-5.699387,0.5260119,2.792227,0.9466962,-0.04464301,-0.3822154,-34.96595,-24.85567,27.4862
8.788663387,-5.885201,-0.4060195,3.71267,0.9109272,-0.03781188,-0.3813589,-34.96595,-24.85567,27.4862
8.798571587,-7.867219,-0.5807754,3.160404,0.9096712,-0.04845222,-0.3732555,-34.96595,-24.85567,27.4862
8.808480263,-10.53056,-0.3477675,2.546775,0.9149883,-0.08963202,-0.3798211,-34.95487,-25.60329,27.87397
8.818388462,-12.51257,-0.4642715,3.221767,0.9212282,-0.1142428,-0.3723602,-34.95487,-25.60329,27.87397
8.828297138,-12.57451,-0.7555313,3.221767,0.9444314,-0.1172541,-0.3543488,-34.95487,-25.60329,27.87397
8.838205814,-10.09699,-0.2312636,2.608138,0.9747886,-0.1134382,-0.3459613,-34.95487,-25.60329,27.87397
8.848113537,-7.557528,-0.1730116,2.976315,1.004386,-0.1187895,-0.3270644,-34.95487,-25.60329,27.87397
8.858022213,-5.265821,0.001744238,4.510388,0.995367,-0.1270572,-0.3102305,-34.9611,-25.23027,27.48735
8.867930412,-6.194891,0.8172717,5.553557,0.9441569,-0.1266564,-0.29679,-34.9611,-25.23027,27.48735
8.880316257,-10.53056,0.2347521,5.124017,0.9276589,-0.111925,-0.3147852,-34.9611,-25.23027,27.48735
8.89022398,-12.63645,-0.2312636,3.835396,0.956688,-0.1014743,-0.3327499,-34.9611,-25.23027,27.48735
8.900132656,-13.99909,0.1182482,2.976315,0.9620811,-0.09115551,-0.3192867,-34.9611,-25.23027,27.48735
8.910041332,-13.44164,0.2347521,2.608138,0.9331554,-0.09984954,-0.3368429,-35.71722,-24.85887,26.71915
8.919949532,-10.77831,-0.7555313,1.38088,0.9069335,-0.0930167,-0.3586422,-35.71722,-24.85887,26.71915
8.929858208,-8.053034,-2.037075,-0.5827335,0.9226573,-0.09912213,-0.3583481,-35.71722,-24.85887,26.71915
8.93976593,-4.274812,-2.619594,-1.809992,0.9234174,-0.1006867,-0.3814131,-35.71722,-24.85887,26.71915
8.949674606,-0.8682191,-3.784633,-2.914524,0.8947592,-0.08753856,-0.3949851,-35.71722,-24.85887,26.71915
8.959583282,-0.06302445,-5.357436,-4.694048,0.9141802,-0.07321883,-0.3917082,-35.33188,-25.60646,27.10498
8.969491005,1.299613,-4.541909,-5.859943,0.9550132,-0.08477603,-0.3811192,-35.33188,-25.60646,27.10498
8.979399681,2.97194,-3.143862,-5.79858,0.9632384,-0.08618067,-0.391288,-35.33188,-25.60646,27.10498
8.989308357,4.582329,-2.969106,-5.123589,0.947214,-0.07851991,-0.3714022,-35.33188,-25.60646,27.10498
8.999216557,4.768144,-2.561342,-4.325871,0.928155,-0.07436304,-0.3654363,-35.33188,-25.60646,27.10498
9.009125233,2.538374,-2.852602,-3.405427,0.8931826,-0.06761403,-0.3823537,-35.70614,-25.60649,27.10693
9.019033909,-1.363724,-5.007925,-2.791798,0.9084834,-0.05150052,-0.3972727,-35.70614,-25.60649,27.10693
9.028941631,-3.283803,-5.706948,-2.546346,0.9477666,-0.06311925,-0.3948325,-35.70614,-25.60649,27.10693
9.038850307,-2.850237,-4.716664,-2.178169,0.9654485,-0.06529658,-0.3897288,-35.70614,-25.60649,27.10693
9.048758507,-2.664423,-3.609878,-0.3372818,0.9449661,-0.06064763,-0.3789449,-35.70614,-25.60649,27.10693
9.058666706,-3.407679,-3.784633,0.5217989,0.9322568,-0.04275608,-0.3575812,-34.959,-25.608,26.71757
9.068575382,-5.885201,-3.318618,0.7058876,0.9540718,-0.0511107,-0.3381521,-34.959,-25.608,26.71757
9.078483582,-7.371715,-2.969106,1.012702,0.9778468,-0.0833411,-0.3462692,-34.959,-25.608,26.71757
9.088392258,-6.56652,-2.386586,1.933146,0.9850031,-0.1065083,-0.3431287,-34.959,-25.608,26.71757
9.098300934,-5.513573,-2.095326,2.853589,0.9691911,-0.1265419,-0.3349532,-34.959,-25.608,26.71757
9.108208656,-3.779308,-1.512807,2.669501,0.9414861,-0.1448534,-0.3401007,-34.57852,-25.981,27.10225
9.118117332,-1.859228,-2.095326,1.319517,0.9209303,-0.1456085,-0.3427966,-34.57852,-25.981,27.10225
9.128026009,-0.06302445,-2.79435,-0.7668222,0.9452534,-0.143904,-0.3530935,-34.57852,-25.981,27.10225
9.137933731,1.857055,-2.79435,-1.380451,0.9658439,-0.1460577,-0.3504173,-34.57852,-25.981,27.10225
9.150319099,5.635276,-1.978823,-1.871354,0.9601895,-0.1601666,-0.3461376,-34.57852,-25.981,27.10225
9.160227776,8.979931,-0.9885391,-2.178169,0.9503107,-0.1583896,-0.3537169,-35.32081,-26.35408,27.49276
9.170136452,12.38652,-0.1147597,-3.282701,0.9429555,-0.1623947,-0.3603978,-35.32081,-26.35408,27.49276
9.180044651,16.59831,-0.6972793,-4.387233,0.9586481,-0.1621749,-0.3557399,-35.32081,-26.35408,27.49276
9.189953327,21.3056,-1.338051,-5.491766,0.981849,-0.1244601,-0.3379374,-35.32081,-26.35408,27.49276
9.199861527,24.89801,-0.8137832,-6.166758,0.9610766,-0.0980108,-0.3298865,-35.32081,-26.35408,27.49276
9.209769726,25.51739,-1.163295,-6.105395,0.9093145,-0.06911682,-0.3368979,-34.9417,-26.72865,27.49197
9.219678402,22.35855,-3.318618,-7.025838,0.8995568,-0.04313492,-0.3519996,-34.9417,-26.72865,27.49197
9.229587078,18.64227,-4.833169,-7.946282,0.9253808,-0.02066704,-0.3823387,-34.9417,-26.72865,27.49197
9.239494801,15.73118,-5.18268,-8.437185,0.9473637,-0.03308502,-0.3989501,-34.9417,-26.72865,27.49197
9.249403477,14.36854,-5.066176,-6.903113,0.9492346,-0.0718808,-0.4049878,-34.9417,-26.72865,27.49197
9.259312153,14.18273,-4.250649,-4.387233,0.9476094,-0.07563566,-0.3771486,-34.57576,-25.97786,27.87318
9.269220352,13.50141,-3.202114,-2.791798,0.9437345,-0.06054356,-0.3558852,-34.57576,-25.97786,27.87318
9.279129028,10.65226,-3.202114,-2.669072,0.928983,-0.04077024,-0.3407322,-34.57576,-25.97786,27.87318
9.289036751,6.068842,-3.842885,-2.975887,0.9495873,-0.03706304,-0.3298544,-34.57576,-25.97786,27.87318
9.298945427,2.228683,-3.551625,-2.730435,0.9756276,-0.05179526,-0.3349949,-34.57576,-25.97786,27.87318
9.308854103,0.8041083,-2.736098,-1.56454,0.9839816,-0.06191344,-0.3428221,-34.95673,-25.2253,28.708
9.318761826,-0.06302445,-2.270082,0.3990731,0.9617084,-0.07769086,-0.3398403,-34.95673,-25.2253,28.708
9.328670502,-1.239847,-2.328334,1.319517,0.9492874,-0.1020884,-0.3398879,-34.95673,-25.2253,28.708
9.338579178,-1.425662,-2.561342,1.81042,0.9630256,-0.1238436,-0.3608068,-34.95673,-25.2253,28.708
9.348487377,-0.4965908,-2.852602,2.546775,0.9712766,-0.1179178,-0.3598833,-34.95673,-25.2253,28.708
9.358396053,-0.2488386,-2.444838,2.178597,0.9722404,-0.09157138,-0.330427,-34.95673,-25.2253,28.708
9.368304253,-2.10698,-1.978823,2.055871,0.9793564,-0.06671508,-0.3226447,-34.95673,-25.2253,28.708
9.378212452,-4.708378,-1.221547,1.933146,0.9714279,-0.06735563,-0.3336193,-34.95673,-25.2253,28.708
9.388121128,-6.132954,-0.8137832,2.117234,0.9602361,-0.08259013,-0.3461014,-34.95673,-25.2253,28.708
9.398028851,-7.062024,-0.3477675,2.730864,0.9475853,-0.08857062,-0.3469845,-34.95673,-25.2253,28.708
9.407937527,-5.761325,-0.3477675,2.976315,0.9274644,-0.08398186,-0.3486885,-34.58385,-25.22684,28.32058
9.420322895,-4.894192,-0.1147597,2.485412,0.9122402,-0.09445013,-0.3673436,-34.58385,-25.22684,28.32058
9.430231571,-5.080007,-1.221547,2.301323,0.9146944,-0.1105122,-0.3852392,-34.58385,-25.22684,28.32058
9.440140247,-5.947139,-2.21183,2.301323,0.9202217,-0.1125671,-0.4208357,-34.58385,-25.22684,28.32058
9.45004797,-5.080007,-3.260366,2.424049,0.9076782,-0.1055693,-0.4437207,-34.20821,-25.22524,28.70411
9.459956646,-2.664423,-3.37687,1.994509,0.8878944,-0.09032173,-0.4477576,-34.20821,-25.22524,28.70411
9.469865322,-0.001086392,-3.609878,0.460436,0.8892878,-0.05570741,-0.4144089,-34.20821,-25.22524,28.70411
9.479773522,0.43248,-3.668129,-0.9509109,0.9145982,-0.0639813,-0.3878093,-34.20821,-25.22524,28.70411
9.489682198,0.8660463,-3.027358,-1.503177,0.9424011,-0.08780954,-0.3747807,-34.20821,-25.22524,28.70411
9.499590874,2.538374,-3.202114,-1.380451,0.9499175,-0.1022571,-0.3739862,-34.58247,-25.22527,28.70605
9.509498596,3.343568,-2.79435,-1.135,0.9566222,-0.102972,-0.340922,-34.58247,-25.22527,28.70605
9.519407272,2.35256,-2.21183,-1.319088,0.9495862,-0.09193734,-0.3465453,-34.58247,-25.22527,28.70605
9.529315949,0.8660463,-2.153579,-1.56454,0.9401103,-0.0887356,-0.3608411,-34.58247,-25.22527,28.70605
9.539223671,0.06085166,-3.143862,-1.319088,0.9211917,-0.08426621,-0.3884855,-34.58247,-25.22527,28.70605
9.549132347,0.5563561,-4.541909,-1.380451,0.9169152,-0.06401718,-0.400315,-34.20337,-25.59983,28.70526
9.559040546,0.494418,-5.124428,-1.380451,0.9129401,-0.05580645,-0.3968625,-34.20337,-25.59983,28.70526
9.568949222,-1.177909,-5.18268,-1.687266,0.9175941,-0.06342441,-0.381111,-34.20337,-25.59983,28.70526
9.578857899,-3.097989,-5.240932,-2.239532,0.9235362,-0.07794628,-0.3908659,-34.20337,-25.59983,28.70526
9.588765621,-3.221865,-4.833169,-2.791798,0.928555,-0.1007447,-0.4049888,-34.20337,-25.59983,28.70526
9.598674297,-1.859228,-4.017641,-3.344064,0.9427383,-0.1093458,-0.4147804,-34.19852,-25.97443,28.70641
9.608582973,0.06085166,-2.852602,-2.975887,0.9496029,-0.1043721,-0.4071283,-34.19852,-25.97443,28.70641
9.618491173,3.157754,-2.619594,-2.669072,0.9319819,-0.1006996,-0.40454,-34.19852,-25.97443,28.70641
9.628399372,5.263648,-2.969106,-2.607709,0.9246707,-0.09395013,-0.3943441,-34.19852,-25.97443,28.70641
9.638308048,5.697214,-3.027358,-2.546346,0.9211561,-0.0916018,-0.400538,-34.19852,-25.97443,28.70641
9.648216247,4.830081,-3.435122,-2.116806,0.9057226,-0.07876434,-0.4123137,-33.45347,-25.59821,29.08684
9.658124924,2.786126,-4.134145,-2.055443,0.9198756,-0.07079588,-0.4056693,-33.45347,-25.59821,29.08684
9.6680336,0.5563561,-3.318618,-1.748629,0.9504176,-0.0849326,-0.4002841,-33.45347,-25.59821,29.08684
9.677941322,-0.6204669,-2.444838,-1.073637,0.9608008,-0.09254902,-0.39803,-33.45347,-25.59821,29.08684
9.690327167,-0.06302445,-1.745815,-0.214556,0.9549237,-0.07604211,-0.3796197,-33.45347,-25.59821,29.08684
9.700235367,0.1847278,-1.338051,-0.3986447,0.9481263,-0.06683452,-0.3641305,-33.45347,-25.59821,29.08684
9.710144043,-0.8682191,-0.9885391,-0.8895479,0.9410204,-0.08388063,-0.3617775,-33.45347,-25.59821,29.08684
9.720052719,-2.912175,-1.163295,-0.6440963,0.9354288,-0.1082008,-0.3633283,-33.45347,-25.59821,29.08684
9.729960442,-3.221865,-1.862319,-0.09183015,0.9316132,-0.1281998,-0.3773508,-33.45347,-25.59821,29.08684
9.739869118,-2.354732,-1.687563,0.5217989,0.9430677,-0.1072232,-0.3801979,-33.45347,-25.59821,29.08684
9.749777317,-2.045042,-1.046791,1.196791,0.9498267,-0.09547514,-0.3749005,-33.45671,-25.22178,29.53539
9.759685993,-1.425662,0.1765001,1.074065,0.9348648,-0.09190892,-0.3992264,-33.45671,-25.22178,29.53539
9.769594192,-2.045042,-0.05650773,0.8286135,0.9247402,-0.07367449,-0.4114954,-33.45671,-25.22178,29.53539
9.779502392,-2.41667,-0.5225234,0.09225857,0.9132497,-0.05686933,-0.4155986,-33.45671,-25.22178,29.53539
9.789411068,-1.859228,-1.046791,-0.8895479,0.9085249,-0.03465409,-0.4211688,-33.45671,-25.22178,29.53539
9.799319744,-1.735352,-1.338051,-1.625903,0.9076563,-0.0487558,-0.4270166,-33.08406,-25.22358,29.08374
9.809227467,-1.673414,-1.629311,-1.380451,0.9108757,-0.07393624,-0.4286546,-33.08406,-25.22358,29.08374
9.819136143,-0.4965908,-1.571059,-0.7054592,0.9332696,-0.09931114,-0.4203879,-33.08406,-25.22358,29.08374
9.829044819,1.113798,-0.5807754,0.460436,0.9494564,-0.09127761,-0.4060794,-33.08406,-25.22358,29.08374
9.838953018,1.485427,0.46776,1.319517,0.9558302,-0.06923776,-0.3786224,-33.08406,-25.22358,29.08374
9.848861694,0.1847278,1.399791,1.135428,0.9582766,-0.0516453,-0.3578811,-33.45,-25.97437,28.70252
9.858769894,-1.363724,1.632799,0.3990731,0.9655102,-0.06355271,-0.3340194,-33.45,-25.97437,28.70252
9.868678093,-1.4876,1.399791,0.3377102,0.9485825,-0.07245076,-0.3262396,-33.45,-25.97437,28.70252
9.878586769,-1.363724,0.409508,-0.5827335,0.9244216,-0.0616363,-0.3331465,-33.45,-25.97437,28.70252
9.888495445,-1.115971,-0.9302871,-1.503177,0.9302835,-0.06985841,-0.3433388,-33.45,-25.97437,28.70252
9.898403168,-1.239847,-2.21183,-1.441814,0.9452924,-0.08096562,-0.3709206,-33.83258,-25.22364,29.08763
9.908311844,-0.9301572,-3.551625,-1.380451,0.9363379,-0.08213115,-0.3871709,-33.83258,-25.22364,29.08763
9.91822052,0.06085166,-4.367153,-1.319088,0.9169424,-0.1022913,-0.3948084,-33.83258,-25.22364,29.08763
9.928128719,1.423489,-4.483657,-1.56454,0.9095427,-0.1033928,-0.4024298,-33.83258,-25.22364,29.08763
9.938037395,2.35256,-4.308901,-2.484983,0.9318439,-0.0949178,-0.4112225,-33.83258,-25.22364,29.08763
9.947945595,3.343568,-2.736098,-1.932717,0.9571229,-0.08394423,-0.4128236,-33.83743,-24.84904,29.08648
9.960330963,3.405506,-1.338051,0.2763473,0.9530164,-0.06555795,-0.4102623,-33.83743,-24.84904,29.08648
9.970239639,2.104807,-0.6390273,1.319517,0.9452456,-0.05879921,-0.3971812,-33.83743,-24.84904,29.08648
9.980147839,-0.4965908,0.7590198,2.485412,0.9389394,-0.05885268,-0.3923216,-33.83743,-24.84904,29.08648
9.990056515,-4.02706,0.351256,3.28313,0.9254654,-0.04013519,-0.3968739,-33.83743,-24.84904,29.08648
9.999964714,-7.1859,-0.3477675,3.344493,0.9051713,-0.02929508,-0.4081378,-33.83396,-25.22521,28.70216
10.009872913,-9.911175,-0.9885391,2.853589,0.8938509,-0.03581604,-0.4229614,-33.83396,-25.22521,28.70216
10.01978159,-11.39769,-1.920571,2.730864,0.9130293,-0.04088646,-0.418371,-33.83396,-25.22521,28.70216
10.029689312,-12.3887,-1.163295,2.730864,0.9326751,-0.05035215,-0.4210166,-33.83396,-25.22521,28.70216
10.039597988,-12.76033,-0.2895156,3.835396,0.9353902,-0.06969312,-0.4173293,-33.83396,-25.22521,28.70216
10.049506664,-12.8842,0.0599962,4.817203,0.9399208,-0.08225327,-0.4193755,-32.71118,-25.22512,28.69632
10.059414864,-11.70738,1.225035,5.308106,0.9611152,-0.09360934,-0.416286,-32.71118,-25.22512,28.69632
10.06932354,-10.22087,2.157067,6.351275,0.9455516,-0.08937174,-0.4031496,-32.71118,-25.22512,28.69632
10.079232216,-10.34474,2.390074,6.596727,0.9267944,-0.08944806,-0.3727266,-32.71118,-25.22512,28.69632
10.089139938,-10.77831,2.390074,6.412638,0.9342039,-0.08834152,-0.364145,-32.71118,-25.22512,28.69632
10.099048615,-10.71637,2.273571,6.412638,0.9404398,-0.0819832,-0.3684817,-33.07436,-25.97277,29.08604
10.108957291,-11.64544,1.924059,6.105824,0.9365422,-0.07324435,-0.3568636,-33.07436,-25.97277,29.08604
10.118865013,-13.6894,1.691051,5.369469,0.9454314,-0.08723481,-0.3647216,-33.07436,-25.97277,29.08604
10.128773689,-13.99909,2.506578,4.939929,0.9454792,-0.1159905,-0.3937231,-33.07436,-25.97277,29.08604
10.138682365,-11.5835,2.972594,4.387662,0.9254843,-0.1347507,-0.4104687,-33.07436,-25.97277,29.08604
10.148590565,-9.539547,2.739586,3.896759,0.9123046,-0.1402703,-0.414705,-33.82079,-26.35056,28.32015
10.158499241,-7.495591,2.681334,3.28313,0.9208379,-0.1339581,-0.433468,-33.82079,-26.35056,28.32015
10.168407917,-4.212874,3.030846,2.362686,0.9263419,-0.1126104,-0.4439402,-33.82079,-26.35056,28.32015
10.17831564,0.8041083,3.43861,1.258154,0.9384077,-0.09692993,-0.4410664,-33.82079,-26.35056,28.32015
10.188224316,6.316595,4.195886,0.3990731,0.9404155,-0.07736615,-0.4131054,-33.82079,-26.35056,28.32015
10.198132992,8.422488,3.555114,-0.7054592,0.9109327,-0.08829246,-0.3922588,-33.82217,-26.35213,27.93468
10.208040714,7.803108,3.030846,-1.871354,0.8994475,-0.1112362,-0.3947062,-33.82217,-26.35213,27.93468
10.21794939,6.997913,2.564831,-2.423621,0.8944859,-0.1088959,-0.3989661,-33.82217,-26.35213,27.93468
10.230334759,6.130781,0.9920276,-2.546346,0.8991207,-0.09335747,-0.4056277,-33.82217,-26.35213,27.93468
10.240243435,5.82109,0.46776,-2.607709,0.9184397,-0.0688469,-0.4003613,-33.82217,-26.35213,27.93468
10.250152111,5.635276,0.293004,-2.669072,0.9239431,-0.03920675,-0.4011751,-34.19989,-25.976,28.32095
10.260059834,3.962949,0.5260119,-2.484983,0.9300433,-0.02560202,-0.4102638,-34.19989,-25.976,28.32095
10.26996851,3.653259,0.8172717,-1.871354,0.9361888,-0.03611561,-0.3955058,-34.19989,-25.976,28.32095
10.279877186,3.033878,0.0599962,-1.687266,0.9369862,-0.05204655,-0.3840955,-34.19989,-25.976,28.32095
10.289785385,0.8660463,0.0599962,-1.871354,0.9482582,-0.08530252,-0.3728975,-34.19989,-25.976,28.32095
10.299694061,-1.301785,0.293004,-1.748629,0.9712606,-0.1198773,-0.3637375,-33.45623,-25.60134,28.3159
10.309602737,-0.8682191,1.865807,-1.380451,0.984163,-0.1308391,-0.3581679,-33.45623,-25.60134,28.3159
10.31951046,0.6182941,3.788122,-1.073637,0.9718946,-0.1188201,-0.3483712,-33.45623,-25.60134,28.3159
10.329419136,-0.1869005,4.545397,-0.8281851,0.9320463,-0.1057837,-0.3565587,-33.45623,-25.60134,28.3159
10.339327812,-1.983104,3.380358,-1.073637,0.9246684,-0.1107762,-0.366607,-33.45623,-25.60134,28.3159
10.349235535,-2.912175,3.205602,-1.073637,0.9479978,-0.1164092,-0.3870269,-33.83671,-25.22835,27.93122
10.359144211,-2.664423,3.030846,-0.4600076,0.9551852,-0.1090768,-0.3928065,-33.83671,-25.22835,27.93122
10.369052887,-2.10698,3.43861,0.3377102,0.9756839,-0.08786356,-0.3717278,-33.83671,-25.22835,27.93122
10.378961086,-1.363724,5.710437,0.9513392,0.9755658,-0.06353474,-0.354759,-33.83671,-25.22835,27.93122
10.388869763,-2.850237,6.933728,1.503605,0.9599969,-0.05637309,-0.3387221,-33.83671,-25.22835,27.93122
10.398778439,-5.761325,7.399744,2.117234,0.9552414,-0.06221822,-0.332475,-33.82079,-26.35056,28.32015
10.408686161,-7.371715,6.933728,3.160404,0.9413285,-0.07079789,-0.364094,-33.82079,-26.35056,28.32015
10.418594837,-8.176909,6.1182,4.264936,0.9425765,-0.06650316,-0.3804023,-33.82079,-26.35056,28.32015
10.428503513,-8.734352,5.360925,5.921735,0.9349805,-0.05404823,-0.3912927,-33.82079,-26.35056,28.32015
10.438411236,-8.176909,4.720153,7.026268,0.9162816,-0.04653759,-0.3939507,-33.82079,-26.35056,28.32015
10.448319912,-8.734352,4.195886,7.271719,0.9050221,-0.04619756,-0.3948046,-34.56583,-26.72679,27.93973
10.458228588,-9.41567,3.613366,6.964904,0.8793986,-0.04027728,-0.4070123,-34.56583,-26.72679,27.93973
10.468136788,-9.167918,2.273571,5.983098,0.8737518,-0.02438667,-0.4145367,-34.56583,-26.72679,27.93973
10.478045464,-9.601485,0.9337757,3.835396,0.889476,-0.02805286,-0.4113455,-34.56583,-26.72679,27.93973
10.48795414,-8.920166,0.351256,1.994509,0.954621,-0.07132157,-0.4035934,-34.56583,-26.72679,27.93973
10.500339031,-4.274812,2.215319,1.81042,0.9948593,-0.1468336,-0.3828614,-34.95117,-25.97919,27.5539
10.510247707,-0.2488386,4.60365,2.853589,1.005368,-0.1712098,-0.3403869,-34.95117,-25.97919,27.5539
10.520155907,0.43248,7.574499,3.774033,0.9915817,-0.1628896,-0.2921882,-34.95117,-25.97919,27.5539
10.530064583,-1.301785,7.807507,5.001291,0.9602556,-0.1186687,-0.2911237,-34.95117,-25.97919,27.5539
10.539973259,-5.080007,6.467712,5.369469,0.9522586,-0.05861749,-0.285368,-34.95117,-25.97919,27.5539
10.549880982,-8.300786,5.011413,5.553557,0.953617,-0.0350014,-0.3159533,-34.58199,-25.60483,27.48656
10.559789657,-10.53056,3.496862,6.474001,0.9605591,-0.008772265,-0.3235253,-34.58199,-25.60483,27.48656
10.569698334,-13.37971,2.623082,7.210356,0.9521122,-0.004068335,-0.3310984,-34.58199,-25.60483,27.48656
10.579606056,-17.40568,2.914342,7.762622,0.9458804,-0.02066845,-0.3383537,-34.58199,-25.60483,27.48656
10.589514732,-21.9891,4.254138,8.069437,0.9504076,-0.05274262,-0.3635775,-34.58199,-25.60483,27.48656
10.599423408,-23.7853,5.302673,8.683065,0.9503352,-0.1061906,-0.38554,-34.94445,-26.73178,26.72103
10.609331608,-23.53755,5.710437,9.910324,0.9420197,-0.148487,-0.3876655,-34.94445,-26.73178,26.72103
10.619240284,-21.80328,6.234704,10.83077,0.9509493,-0.1551394,-0.3829908,-34.94445,-26.73178,26.72103
10.62914896,-18.70638,7.865759,11.56712,0.9712999,-0.1305886,-0.372452,-34.94445,-26.73178,26.72103
10.639056683,-13.81327,9.322058,11.9353,0.9400418,-0.09413711,-0.3738407,-34.94445,-26.73178,26.72103
10.648965359,-12.3887,8.098766,10.89213,0.889708,-0.06036679,-0.3789122,-34.94584,-26.73335,26.33556
10.658874035,-14.12296,5.419177,8.928517,0.8703809,-0.04366646,-0.3843841,-34.94584,-26.73335,26.33556
10.668781757,-16.10498,3.030846,6.535364,0.8890215,-0.06486595,-0.4034238,-34.94584,-26.73335,26.33556
10.678690433,-15.60948,1.225035,5.430832,0.9216225,-0.08795336,-0.4461331,-34.94584,-26.73335,26.33556
10.68859911,-14.06102,0.8172717,6.167187,0.9338284,-0.08195601,-0.4409243,-34.94584,-26.73335,26.33556
10.698507309,-11.95513,1.283287,6.289912,0.9124982,-0.078715,-0.4190983,-35.69249,-27.11141,25.50543
10.708415985,-9.973113,1.225035,5.921735,0.9088632,-0.07422972,-0.3868642,-35.69249,-27.11141,25.50543
10.718324661,-10.09699,1.108532,5.001291,0.9114776,-0.08142795,-0.3787737,-35.69249,-27.11141,25.50543
10.728232384,-11.21187,0.2347521,4.633114,0.9062497,-0.09361202,-0.3783263,-35.69249,-27.11141,25.50543
10.73814106,-10.34474,-0.6972793,4.264936,0.9216796,-0.1045001,-0.3646169,-35.69249,-27.11141,25.50543
10.748049736,-9.849237,-0.1147597,3.344493,0.9517794,-0.1093503,-0.3438006,-35.70081,-26.36065,25.88859
10.757957458,-9.41567,0.9337757,2.914952,0.9666091,-0.1183512,-0.338716,-35.70081,-26.36065,25.88859
10.77034378,-7.495591,1.341539,2.914952,0.9723417,-0.1488314,-0.3399324,-35.70081,-26.36065,25.88859
10.78025198,-5.080007,1.632799,2.730864,0.9657749,-0.163894,-0.3303689,-35.70081,-26.36065,25.88859
10.790160179,-3.036051,1.924059,2.608138,0.9580875,-0.1731896,-0.3279589,-36.07159,-26.73684,25.50622
10.800068855,0.06085166,1.865807,2.23996,0.9646583,-0.1630028,-0.3428367,-36.07159,-26.73684,25.50622
10.809977531,3.219692,1.807555,1.749057,0.9583719,-0.1184162,-0.3314379,-36.07159,-26.73684,25.50622
10.819885254,4.396515,1.865807,1.38088,0.9533483,-0.0956203,-0.3177952,-36.07159,-26.73684,25.50622
10.82979393,3.839073,2.273571,0.8286135,0.9672016,-0.09731555,-0.30401,-36.07159,-26.73684,25.50622
10.839702606,3.467444,3.089098,0.5217989,0.9794304,-0.1117942,-0.3205449,-36.07782,-26.36382,25.1196
10.849610805,5.325586,4.137634,0.8899763,0.9893004,-0.1194294,-0.3206871,-36.07782,-26.36382,25.1196
10.859519482,6.997913,5.186169,1.258154,0.9764147,-0.1223569,-0.2932183,-36.07782,-26.36382,25.1196
10.869427681,7.43148,5.302673,1.196791,0.9519419,-0.1304809,-0.3050501,-36.07782,-26.36382,25.1196
10.87933588,9.165745,5.186169,0.5831618,0.9423886,-0.1331731,-0.3337892,-36.07782,-26.36382,25.1196
10.889244556,12.20071,4.661901,-0.214556,0.9304217,-0.09710363,-0.3617676,-35.69872,-26.73838,25.11881
10.899153233,14.24467,3.263854,-1.380451,0.9041129,-0.05153989,-0.3943516,-35.69872,-26.73838,25.11881
10.909060955,15.42149,0.351256,-2.055443,0.9007412,-0.02351184,-0.4042171,-35.69872,-26.73838,25.11881
10.918969631,15.1118,-1.571059,-2.484983,0.8959442,0.005982945,-0.4082976,-35.69872,-26.73838,25.11881
10.928878307,12.88203,-3.260366,-2.791798,0.8866603,-0.001934982,-0.4169073,-35.69872,-26.73838,25.11881
10.938786507,10.46644,-4.308901,-3.098613,0.8786297,-0.02384371,-0.4150584,-36.44723,-26.73844,25.1227
10.948695183,8.546364,-5.066176,-4.141782,0.9036695,-0.0603028,-0.4001678,-36.44723,-26.73844,25.1227
10.958603382,7.369542,-4.774917,-4.387233,0.9418602,-0.09418416,-0.3873023,-36.44723,-26.73844,25.1227
10.968511581,8.050859,-3.260366,-3.650879,0.9568543,-0.1152947,-0.3803792,-36.44723,-26.73844,25.1227
10.978420258,10.28063,-2.50309,-3.282701,0.9559883,-0.1201267,-0.3751217,-36.44723,-26.73844,25.1227
10.988328934,12.44846,-1.745815,-2.546346,0.9608639,-0.09958493,-0.3524625,-36.07645,-26.36225,25.50507
10.998236656,13.8111,-1.804067,-2.362258,0.938486,-0.06688464,-0.3505972,-36.07645,-26.36225,25.50507
11.008145332,12.75815,-2.677846,-3.098613,0.9098506,-0.04738327,-0.3545239,-36.07645,-26.36225,25.50507
11.018054008,10.03288,-4.075893,-3.650879,0.9112,-0.04498695,-0.3631632,-36.07645,-26.36225,25.50507
11.027962208,7.121789,-5.007925,-4.203145,0.9435012,-0.05627469,-0.3736205,-36.07645,-26.36225,25.50507
11.040348053,4.953958,-5.124428,-3.650879,0.9587469,-0.07360013,-0.3854007,-35.71535,-25.23686,25.88513
11.050255775,4.210701,-5.240932,-2.791798,0.9493436,-0.1013318,-0.381177,-35.71535,-25.23686,25.88513
11.060164452,3.219692,-4.541909,-1.748629,0.9473571,-0.1318558,-0.372239,-35.71535,-25.23686,25.88513
11.070073128,2.786126,-3.726381,-1.196362,0.9642875,-0.1505129,-0.3643572,-35.71535,-25.23686,25.88513
11.079981804,3.962949,-2.270082,-0.7054592,0.9722103,-0.1493875,-0.3533793,-35.71535,-25.23686,25.88513
11.089890003,4.582329,-0.9885391,-0.4600076,0.970261,-0.1313598,-0.3316341,-35.71051,-25.61146,25.88628
11.099798203,5.077834,-0.05650773,-0.1531931,0.9659176,-0.1221168,-0.315207,-35.71051,-25.61146,25.88628
11.109706879,5.015896,0.8172717,-0.03046724,0.9466146,-0.107843,-0.3211754,-35.71051,-25.61146,25.88628
11.119615078,1.671241,0.409508,0.3990731,0.9500175,-0.1053714,-0.3202301,-35.71051,-25.61146,25.88628
11.129523754,-1.79729,-0.4060195,0.9513392,0.9446036,-0.1176523,-0.3380277,-35.71051,-25.61146,25.88628
11.13943243,-3.531555,-1.105043,1.135428,0.93672,-0.129489,-0.3577202,-35.33464,-25.6096,26.33405
11.149340153,-2.788299,-1.221547,0.5831618,0.9440646,-0.1357333,-0.3640717,-35.33464,-25.6096,26.33405
11.159248829,-0.6204669,-0.2895156,-1.135,0.9411309,-0.138209,-0.366942,-35.33464,-25.6096,26.33405
11.169157505,0.9279844,0.5842639,-2.791798,0.9304263,-0.1470969,-0.372184,-35.33464,-25.6096,26.33405
11.179065704,2.724188,0.7590198,-4.571322,0.9274905,-0.156403,-0.3832625,-35.33464,-25.6096,26.33405
11.188973904,6.688223,0.1765001,-5.737217,0.9230316,-0.1642933,-0.3981587,-36.08476,-25.61149,25.88823
11.19888258,11.64327,-0.4060195,-6.534935,0.9186127,-0.1672847,-0.4034195,-36.08476,-25.61149,25.88823
11.208790779,16.53637,-0.5225234,-7.578104,0.9273953,-0.1632818,-0.4005931,-36.08476,-25.61149,25.88823
11.218699455,20.50041,0.2347521,-8.069008,0.9553384,-0.1599683,-0.3897858,-36.08476,-25.61149,25.88823
11.228608131,23.65925,1.399791,-8.31446,0.9702527,-0.1355149,-0.3849593,-36.08476,-25.61149,25.88823
11.238515854,24.52638,2.681334,-8.437185,0.9594868,-0.1137029,-0.3602263,-35.33811,-25.23343,26.71836
11.24842453,23.16374,3.263854,-7.70083,0.9320708,-0.1004051,-0.3478802,-35.33811,-25.23343,26.71836
11.258333206,19.13777,2.273571,-7.025838,0.9310116,-0.07997184,-0.3318891,-35.33811,-25.23343,26.71836
11.268241406,14.05885,1.807555,-6.596298,0.9553852,-0.06848485,-0.3257959,-35.33811,-25.23343,26.71836
11.278149605,11.39551,1.865807,-5.921306,0.9762327,-0.06977748,-0.3447235,-35.33811,-25.23343,26.71836
11.288058281,10.83807,2.390074,-5.123589,0.9709702,-0.05832547,-0.3676461,-35.33464,-25.6096,26.33405
11.297966957,10.21869,2.390074,-5.062225,0.9363571,-0.07382851,-0.375592,-35.33464,-25.6096,26.33405
11.307875156,9.28962,1.516295,-5.614491,0.8958126,-0.09138946,-0.3921396,-35.33464,-25.6096,26.33405
11.320261002,8.050859,-1.571059,-6.228121,0.8832487,-0.08391453,-0.4164616,-35.33464,-25.6096,26.33405
11.330168724,7.493418,-2.270082,-6.719024,0.9079857,-0.06273071,-0.4112675,-35.33464,-25.6096,26.33405
11.3400774,6.502409,-1.804067,-6.473572,0.9518565,-0.05444533,-0.4149792,-35.33027,-25.60463,27.5547
11.349986076,4.644268,-0.6390273,-5.675855,0.9671128,-0.05615548,-0.4074492,-35.33027,-25.60463,27.5547
11.359894276,4.024887,0.7007678,-4.816774,0.9712602,-0.09085755,-0.3774687,-35.33027,-25.60463,27.5547
11.369802952,6.130781,3.089098,-3.89633,0.9756607,-0.1173834,-0.3608806,-35.33027,-25.60463,27.5547
11.379711628,7.865046,4.195886,-3.712242,0.9599057,-0.09422103,-0.3442552,-35.33027,-25.60463,27.5547
11.389619351,7.555356,3.671618,-3.46679,0.959736,-0.06308983,-0.3243597,-34.96247,-25.23184,27.10188
11.399528027,5.697214,3.72987,-3.221339,0.9762602,-0.04732413,-0.3157647,-34.96247,-25.23184,27.10188
11.409436703,2.724188,3.846374,-1.319088,0.9751382,-0.04887474,-0.3316098,-34.96247,-25.23184,27.10188
11.419344425,-1.611476,3.788122,1.933146,0.9578047,-0.03944748,-0.3419502,-34.96247,-25.23184,27.10188
11.429253101,-5.885201,3.43861,4.510388,0.9303294,-0.03935115,-0.3508185,-34.96247,-25.23184,27.10188
11.439161778,-11.02606,2.273571,6.105824,0.9109547,-0.02072437,-0.3586779,-34.58821,-25.23181,27.09994
11.449070454,-16.47661,2.040563,7.08763,0.9255489,-0.005457563,-0.3481477,-34.58821,-25.23181,27.09994
11.458978653,-20.25483,2.739586,7.701259,0.967735,-0.0165678,-0.3481317,-34.58821,-25.23181,27.09994
11.468887329,-21.74134,4.487145,8.314888,0.9811417,-0.02263736,-0.3353318,-34.58821,-25.23181,27.09994
11.478796005,-22.29879,5.593933,8.621703,0.9730426,-0.02848422,-0.3213713,-34.58821,-25.23181,27.09994
11.488703728,-22.05103,5.710437,8.744429,0.9513006,-0.0486238,-0.3193838,-34.96087,-25.23001,27.55159
11.498612404,-21.1839,4.60365,7.946711,0.9495829,-0.07681704,-0.3291589,-34.96087,-25.23001,27.55159
11.50852108,-18.33475,4.195886,6.65809,0.9709069,-0.09737398,-0.3242113,-34.96087,-25.23001,27.55159
11.518428803,-14.43265,4.02113,6.474001,0.9637579,-0.125662,-0.3392185,-34.96087,-25.23001,27.55159
11.528337479,-12.57451,2.681334,7.455808,0.93274,-0.1212808,-0.3547477,-34.96087,-25.23001,27.55159
11.538246155,-13.25583,1.05028,8.253526,0.9150648,-0.1147097,-0.3540603,-36.08453,-25.61123,25.95247
11.548154354,-14.86622,-0.3477675,7.762622,0.902711,-0.1041986,-0.3543562,-36.08453,-25.61123,25.95247
11.55806303,-15.67141,-1.279799,6.719453,0.9026647,-0.111052,-0.3668855,-36.08453,-25.61123,25.95247
11.567971229,-13.99909,-1.454555,5.246743,0.9165413,-0.1361498,-0.3782247,-36.08453,-25.61123,25.95247
11.577879906,-9.973113,-2.037075,3.405856,0.9341003,-0.1193667,-0.3629102,-36.08453,-25.61123,25.95247
11.590265274,-6.504582,-1.629311,1.196791,0.9701394,-0.1158133,-0.3252873,-35.33117,-25.98576,25.94973
11.60017395,-4.584502,-0.9885391,0.460436,0.9562495,-0.1416937,-0.3272519,-35.33117,-25.98576,25.94973
11.610082149,-1.425662,-1.221547,-0.09183015,0.9558533,-0.1494564,-0.3273,-35.33117,-25.98576,25.94973
11.619990826,1.175737,-1.279799,-0.214556,0.9615099,-0.1338829,-0.3296494,-35.33117,-25.98576,25.94973
11.629899025,2.476436,-1.396303,-0.2759189,0.9704391,-0.1168813,-0.3449837,-35.33117,-25.98576,25.94973
11.639807224,2.724188,-1.571059,0.1536215,0.9660602,-0.0996124,-0.3702765,-36.08316,-25.60966,26.33794
11.6497159,1.857055,-1.687563,0.8899763,0.9537483,-0.09590881,-0.3744594,-36.08316,-25.60966,26.33794
11.659624576,1.113798,-1.396303,1.749057,0.9596475,-0.08703832,-0.3610105,-36.08316,-25.60966,26.33794
11.669532299,0.43248,-0.1147597,2.669501,0.9670935,-0.08444939,-0.3471375,-36.08316,-25.60966,26.33794
11.679440975,-0.9920952,1.283287,2.914952,0.9639515,-0.09019984,-0.3265,-36.08316,-25.60966,26.33794
11.689349651,-2.354732,1.399791,3.589944,0.9392635,-0.07989918,-0.3377268,-35.69573,-26.73498,25.95399
11.699258327,-4.150936,0.351256,4.080848,0.929382,-0.07129436,-0.3375781,-35.69573,-26.73498,25.95399
11.709166527,-7.1859,0.2347521,4.203574,0.9402754,-0.06913751,-0.3218192,-35.69573,-26.73498,25.95399
11.719074726,-10.15893,0.8172717,4.14221,0.9561617,-0.09174374,-0.3249977,-35.69573,-26.73498,25.95399
11.728983402,-10.71637,1.166783,4.019485,0.9489478,-0.116651,-0.3423826,-35.69573,-26.73498,25.95399
11.738891602,-7.929157,0.9337757,3.467218,0.940532,-0.1182723,-0.3543195,-35.70058,-26.36039,25.95284
11.748800278,-6.194891,0.001744238,3.344493,0.9278336,-0.1223264,-0.3575903,-35.70058,-26.36039,25.95284
11.758708954,-4.894192,-0.9885391,2.055871,0.915503,-0.1244861,-0.3704549,-35.70058,-26.36039,25.95284
