Time (s),Gyroscope X (deg/s),Gyroscope Y (deg/s),Gyroscope Z (deg/s),Accelerometer X (g),Accelerometer Y (g),Accelerometer Z (g),Magnetometer X (uT),Magnetometer Y (uT),Magnetometer Z (uT)
74.460046768,-0.4292862,0.3049763,1.431856,0.4162908,-0.2488934,0.8697406,-18.88187,-24.00059,-23.61197
74.469955444,-0.676324100000001,-0.161148,1.491478,0.4181394,-0.2440466,0.8649542,-18.88187,-24.00059,-23.61197
74.479865074,-0.6136144,-0.5102561,1.428242,0.4102236,-0.238339,0.8626646,-18.88187,-24.00059,-23.61197
74.489773274,-0.736641899999999,-0.684352799999997,1.11971,0.4151185,-0.2363238,0.8655137,-18.88187,-24.00059,-23.61197
74.499682903,-1.169127,-1.032859,1.118362,0.4121978,-0.243183,0.8587729,-19.2402,-25.12284,-23.22109
74.509592056,-1.167601,-1.264478,0.994327499999999,0.4241242,-0.2497658,0.8696623,-19.2402,-25.12284,-23.22109
74.519500733,-1.104235,-1.437554,0.993001500000002,0.4315253,-0.2574441,0.867142,-19.2402,-25.12284,-23.22109
74.529409886,-1.288643,-1.66861,1.543731,0.4375893,-0.2689757,0.8727709,-19.2402,-25.12284,-23.22109
74.539319515,-1.101327,-1.550248,1.603136,0.4347496,-0.2772562,0.8722619,-19.2402,-25.12284,-23.22109
74.549227715,-0.7283927,-1.140885,1.723752,0.4382678,-0.276188,0.8827999,-19.2499,-24.37365,-23.2234
74.559137344,-0.479784,-0.5570966,1.660224,0.441587,-0.2708332,0.8789636,-19.2499,-24.37365,-23.2234
74.569046497,-0.4792009,0.0841917599999999,1.351459,0.444046,-0.2707952,0.8803816,-19.2499,-24.37365,-23.2234
74.578955173,-0.1071068,0.3753092,1.104464,0.448781,-0.2591071,0.8789752,-19.2499,-24.37365,-23.2234
74.588864326,0.140741,0.4912686,0.6124239,0.4364121,-0.2510429,0.8743418,-19.2499,-24.37365,-23.2234
74.598773003,0.3263394,0.607100499999998,0.4275853,0.4344268,-0.2481559,0.8748595,-18.87702,-24.37519,-23.61081
74.608682632,0.3258517,0.781094000000001,0.2430752,0.4353911,-0.2461995,0.875824,-18.87702,-24.37519,-23.61081
74.618591785,0.0776708199999999,0.5472514,0.1201211,0.4338506,-0.2433293,0.8720161,-18.87702,-24.37519,-23.61081
74.628500938,-0.2320003,0.662958099999999,0.2426575,0.4279602,-0.2409757,0.8725664,-18.87702,-24.37519,-23.61081
74.638409614,-0.2936275,1.011582,-0.002983304,0.4318983,-0.2423764,0.873481,-18.87702,-24.37519,-23.61081
74.648318767,-0.1694798,1.01033,-0.003018098,0.4280373,-0.2482527,0.8715569,-19.62069,-24.74985,-23.60577
74.658227444,-0.231205,0.892611900000002,-0.1870645,0.4311192,-0.2598462,0.8724114,-19.62069,-24.74985,-23.60577
74.668137073,-0.4165926,0.949706099999999,-0.1868296,0.4297336,-0.2612856,0.8786567,-19.62069,-24.74985,-23.60577
74.678046226,-0.4161471,0.890352800000002,-0.3706065,0.426881,-0.2651826,0.8820182,-19.62069,-24.74985,-23.60577
74.687954903,-0.1060509,0.889106399999999,-0.1861101,0.4247533,-0.2648087,0.8657151,-19.62069,-24.74985,-23.60577
74.697864056,0.2036558,1.120943,-0.0632276499999998,0.4233949,-0.2676975,0.8729107,-19.25128,-24.37522,-23.60887
74.707773209,0.3889807,0.886709700000002,-0.00184316,0.4188767,-0.2619601,0.8681892,-19.25128,-24.37522,-23.60887
74.717681885,0.698007299999999,0.5362489,-0.001840828,0.4212458,-0.2556274,0.8682095,-19.25128,-24.37522,-23.60887
74.730068684,0.573152199999998,-0.2213197,0.0593130000000002,0.4143264,-0.2494101,0.8683149,-19.25128,-24.37522,-23.60887
74.73997736,0.634292499999998,-0.3376005,0.365976,0.419597,-0.2445208,0.8634971,-18.87217,-24.74978,-23.60966
74.749886513,0.6954339,-0.5117127,0.1814661,0.4236161,-0.241977,0.8769214,-18.87217,-24.74978,-23.60966
74.759795666,0.694793800000001,-0.685588099999998,0.4266127,0.4250128,-0.2385805,0.8740501,-18.87217,-24.74978,-23.60966
74.769704342,0.4464413,-0.742942300000002,0.4260576,0.429495,-0.243361,0.8763776,-18.87217,-24.74978,-23.60966
74.779613972,0.01254762,-0.3344284,0.5482675,0.4314076,-0.2360419,0.88073,-18.87217,-24.74978,-23.60966
74.789523125,-0.2970417,-0.159289,0.854219899999999,0.4284295,-0.2356139,0.8769192,-18.8784,-24.37676,-23.99628
74.799431801,-0.606222600000001,0.01546565,1.221209,0.4235337,-0.2371418,0.8745535,-18.8784,-24.37676,-23.99628
74.809340954,-0.915112600000002,0.2482162,1.097084,0.4270083,-0.2390231,0.8773898,-18.8784,-24.37676,-23.99628
74.819250107,-0.604370100000001,0.1897074,1.218393,0.4295408,-0.2496786,0.8734542,-18.8784,-24.37676,-23.99628
74.829158783,-0.851129799999998,0.0730566799999999,0.971507600000002,0.4221687,-0.2497901,0.8696803,-18.8784,-24.37676,-23.99628
74.839068413,-1.097735,-0.04355727,0.970287300000001,0.4256851,-0.2584789,0.8686295,-18.88187,-24.00059,-23.61197
74.848977089,-0.848604099999999,-0.1598967,0.969145699999999,0.4262529,-0.2667245,0.8666487,-18.88187,-24.00059,-23.61197
74.858886242,-0.538023,-0.3343237,0.722669500000002,0.4214301,-0.2706534,0.8685878,-18.88187,-24.00059,-23.61197
74.868795395,-0.2897312,-0.6250172,0.783144099999999,0.4302604,-0.2739427,0.8675239,-18.88187,-24.00059,-23.61197
74.878704071,-0.04173179,-0.682356100000001,0.598283599999997,0.4303597,-0.2773058,0.8732625,-18.88187,-24.00059,-23.61197
74.888613224,0.2059756,-0.798002999999999,0.720180899999998,0.4380671,-0.2709267,0.8693925,-18.87702,-24.37519,-23.61081
74.898522854,0.4533134,-0.680533200000001,0.841982799999999,0.4327078,-0.2729352,0.8689485,-18.87702,-24.37519,-23.61081
74.90843153,0.824119400000003,-0.3303131,0.8408867,0.4341041,-0.2666121,0.8694578,-18.87702,-24.37519,-23.61081
74.918340683,0.8231038,-0.1551423,0.778429199999998,0.4311014,-0.2554652,0.8758019,-18.87702,-24.37519,-23.61081
74.928249836,0.884066299999997,0.01988161,0.654686999999999,0.4368729,-0.2491002,0.8738703,-18.87702,-24.37519,-23.61081
74.938158512,0.573615800000001,0.1363423,0.715189100000001,0.433888,-0.2423342,0.876824,-18.87217,-24.74978,-23.60966
74.948067665,0.0775465500000001,0.485573,0.2849432,0.4342304,-0.2345995,0.8715906,-18.87217,-24.74978,-23.60966
74.957977295,-0.2321049,0.659645799999999,0.03932641,0.4268151,-0.2298554,0.8692899,-18.87217,-24.74978,-23.60966
74.967885971,-0.2936931,0.6587624,-0.4512793,0.4322616,-0.2326795,0.8725818,-18.87217,-24.74978,-23.60966
74.977795124,-0.4790216,0.890924499999999,-0.757430699999999,0.4303685,-0.2399884,0.8701499,-18.87217,-24.74978,-23.60966
74.987704277,-0.664078500000002,0.773466200000002,-1.063217,0.4285467,-0.2487237,0.8729895,-18.87564,-24.37362,-23.22535
75.000090599,-0.724721199999998,0.713945199999999,-1.368189,0.4197734,-0.2551608,0.8682262,-18.87564,-24.37362,-23.22535
75.009999752,-0.723888799999998,0.712993599999998,-1.182439,0.4237751,-0.2618942,0.8691046,-18.87564,-24.37362,-23.22535
75.019908428,-0.5372432,0.712171199999998,-0.9355603,0.4274193,-0.2734435,0.8771567,-18.87564,-24.37362,-23.22535
75.029817581,-0.4127506,0.653097900000001,-0.750354300000001,0.4199982,-0.2735804,0.8685815,-18.87564,-24.37362,-23.22535
75.039726734,0.08299986,0.3611275,-0.688029699999998,0.4103064,-0.2775598,0.8724859,-18.50276,-24.37516,-23.61276
75.04963541,0.4543099,0.01121704,-0.4416753,0.4099089,-0.2819086,0.8763019,-18.50276,-24.37516,-23.61276
75.05954504,0.949010299999998,-0.1051912,-0.441005,0.4137414,-0.2765349,0.8748618,-18.50276,-24.37516,-23.61276
75.069454193,1.071617,-0.338012,-0.1951728,0.4160775,-0.2629024,0.8802127,-18.50276,-24.37516,-23.61276
75.079362869,1.132209,-0.3375692,-0.1336419,0.4148976,-0.2542392,0.8706782,-18.50276,-24.37516,-23.61276
75.089272022,1.316562,-0.628276799999999,0.1118813,0.4137467,-0.2426342,0.867405,-18.87564,-24.37362,-23.22535
75.099181175,1.438609,-0.918619500000003,0.05041638,0.4224158,-0.2328366,0.8659497,-18.87564,-24.37362,-23.22535
75.109089851,0.941492200000002,-1.033878,0.2956698,0.4297398,-0.2278721,0.8707166,-18.87564,-24.37362,-23.22535
75.118999481,0.50686,-0.916093799999998,0.2953176,0.4317754,-0.2287818,0.8774139,-18.87564,-24.37362,-23.22535
75.128908634,-0.05100505,-0.856746100000001,0.2336994,0.4361089,-0.2272982,0.8725821,-18.87564,-24.37362,-23.22535
75.13881731,-0.3604367,-0.6811337,0.2334059,0.4406832,-0.2422747,0.8719599,-18.87702,-24.37519,-23.61081
75.148726463,-0.731417699999998,-0.3309677,0.2332284,0.4481617,-0.2494249,0.877605,-18.87702,-24.37519,-23.61081
75.158635616,-0.4210033,0.0770288000000001,0.1104794,0.4438096,-0.251406,0.8800328,-18.87702,-24.37519,-23.61081
75.168544292,-0.2966374,0.4262609,0.1103407,0.4424917,-0.2630542,0.8809277,-18.87702,-24.37519,-23.61081
75.178453922,-0.2962842,0.8914301,0.3556152,0.4395456,-0.264073,0.8785474,-18.87702,-24.37519,-23.61081
75.188363075,-0.543567,1.181369,-0.0128355,0.4346152,-0.262692,0.8762015,-19.2499,-24.37365,-23.2234
75.198271751,-0.3572646,1.005001,0.04838935,0.4267902,-0.2637664,0.8748261,-19.2499,-24.37365,-23.2234
75.208180904,0.0763808699999999,1.003593,-0.07430091,0.422349,-0.265306,0.869095,-19.2499,-24.37365,-23.2234
75.218090057,0.2001999,1.002241,-0.0742268600000001,0.4139222,-0.2635185,0.8600619,-19.2499,-24.37365,-23.2234
75.227998734,0.1997928,0.884496099999999,0.04849581,0.4198638,-0.2643821,0.8662433,-19.2499,-24.37365,-23.2234
75.237908363,0.1995419,0.3592821,-0.07419457,0.4178869,-0.2634419,0.8653075,-18.50761,-24.00056,-23.61391
75.24781704,0.3231479,0.591619100000001,0.04847025,0.4173571,-0.2624936,0.8624378,-18.50761,-24.00056,-23.61391
75.257726193,0.756191600000003,0.4744087,-0.01297282,0.4193811,-0.2624337,0.8691416,-18.50761,-24.00056,-23.61391
75.270112991,0.9406047,0.2991458,-0.1969641,0.4257047,-0.2584687,0.87055,-18.50761,-24.00056,-23.61391
75.280021191,0.9394038,0.1822296,-0.2580796,0.425182,-0.2506876,0.8763686,-18.50761,-24.00056,-23.61391
75.289930821,0.938185,0.4731874,-0.3804812,0.4304518,-0.245311,0.8720343,-18.8784,-24.37676,-23.99628
75.299839974,1.060883,0.4144691,-0.3799647,0.4280471,-0.2482476,0.8725171,-18.8784,-24.37676,-23.99628
75.30974865,0.935713,0.5303976,-0.4407733,0.4285631,-0.2443249,0.8797408,-18.8784,-24.37676,-23.99628
75.319657803,0.5629483,0.646162100000003,-0.3174939,0.4315123,-0.2423289,0.8835681,-18.8784,-24.37676,-23.99628
75.329567432,0.2526483,0.936463899999998,-0.2557707,0.4349486,-0.244718,0.8820799,-18.8784,-24.37676,-23.99628
75.339475632,0.2521559,1.226401,-0.2554687,0.4340185,-0.2466566,0.8844765,-18.88187,-24.00059,-23.61197
75.349385262,0.4374977,1.39958,-0.2552635,0.4256419,-0.2482575,0.8763806,-18.88187,-24.00059,-23.61197
75.359294415,0.3131498,1.397785,-0.0709505000000002,0.4245694,-0.2473434,0.8682339,-18.88187,-24.00059,-23.61197
75.369203091,0.06519882,1.628983,-0.0709192100000001,0.4231366,-0.249783,0.8687111,-18.88187,-24.00059,-23.61197
75.379112244,0.1270161,1.452291,-0.00954430400000001,0.4138451,-0.2508756,0.8673492,-18.88187,-24.00059,-23.61197
75.389021874,0.1267787,1.159316,-0.1322003,0.4211847,-0.2463909,0.8730731,-18.87702,-24.37519,-23.61081
75.398930073,-0.1210938,0.691990899999998,-0.1321306,0.4183068,-0.2498132,0.8745174,-18.87702,-24.37519,-23.61081
75.408839703,-0.2447789,0.865749499999997,-0.4386636,0.4153669,-0.2542433,0.8687532,-18.87702,-24.37519,-23.61081
75.418748856,-0.0587156999999997,0.4570264,-0.3769038,0.4305239,-0.2525905,0.8705447,-18.87702,-24.37519,-23.61081
75.428657532,0.1270555,0.3400399,-0.2537046,0.4300052,-0.2496853,0.8710489,-18.87702,-24.37519,-23.61081
75.438566685,0.2506553,0.5142955,-0.1306409,0.4198597,-0.2541402,0.8778353,-18.49654,-24.74819,-23.22614
75.448475361,0.1264254,0.4554707,-0.3145462,0.4140882,-0.2605053,0.8797669,-18.49654,-24.74819,-23.22614
75.458384991,-0.0595086099999998,0.571494,-0.3753598,0.4214363,-0.2579673,0.8840373,-18.49654,-24.74819,-23.22614
75.468294144,0.002406899,0.5124876,-0.4362127,0.4277011,-0.2540329,0.8796841,-18.49654,-24.74819,-23.22614
75.47820282,-0.183313,0.861044600000002,-0.3744561,0.4369699,-0.2539277,0.8776785,-18.49654,-24.74819,-23.22614
75.488111973,-0.430582,1.267544,-0.128592,0.4345136,-0.2554277,0.8748103,-18.87217,-24.74978,-23.60966
75.498021126,-0.4298662,1.440616,-0.1284305,0.428093,-0.2545651,0.8695937,-18.87217,-24.74978,-23.60966
75.507929802,0.06600312,1.49704,-0.1896898,0.4179675,-0.2619365,0.87492,-18.87217,-24.74978,-23.60966
75.517839432,0.499292,1.26217,-0.1282428,0.4179305,-0.2604923,0.8730093,-18.87217,-24.74978,-23.60966
75.527748585,0.6844206,1.085884,-0.1895025,0.4197676,-0.2493102,0.8745072,-18.87217,-24.74978,-23.60966
75.537657261,0.621700800000002,0.735118200000001,-0.4960019,0.4163913,-0.2503045,0.877893,-19.62852,-24.37865,-24.4421
75.550043583,0.3113263,0.5592998,-0.3725553,0.4202724,-0.2473445,0.8783569,-19.62852,-24.37865,-24.4421
75.559953213,0.2489972,0.4421849,-0.3720873,0.4197012,-0.2425154,0.8759936,-19.62852,-24.37865,-24.4421
75.569861889,0.4963394,0.2086765,-0.1877432,0.424019,-0.2405522,0.8702049,-19.62852,-24.37865,-24.4421
75.579771042,0.310038,0.441221,-0.00351507,0.419073,-0.2386916,0.8669019,-19.62852,-24.37865,-24.4421
75.589680195,0.0619936699999998,0.2660207,-0.0648542899999998,0.4148063,-0.2445306,0.8731445,-18.50414,-24.37673,-23.99823
75.599588871,-2.800953e-06,-0.02559157,0.4257257,0.4187346,-0.2459364,0.8730988,-18.50414,-24.37673,-23.99823
75.609498024,-0.1237622,-0.0839211399999998,0.4865153,0.4162556,-0.243058,0.8731409,-18.50414,-24.37673,-23.99823
75.619407654,-0.3093431,0.1489726,0.4244835,0.422593,-0.243964,0.8701953,-18.50414,-24.37673,-23.99823
75.62931633,-0.3708926,0.03237303,0.3011089,0.4201117,-0.2371843,0.8745849,-18.50414,-24.37673,-23.99823
75.639225483,-0.618023300000002,0.1487814,0.3620358,0.4192328,-0.2429987,0.8774352,-18.87217,-24.74978,-23.60966
75.649134636,-0.617169200000001,-0.1424823,0.1775886,0.4133976,-0.2440309,0.8794029,-18.87217,-24.74978,-23.60966
75.659043312,-0.678390399999998,-0.2586426,0.1773849,0.4222991,-0.2541124,0.8773328,-18.87217,-24.74978,-23.60966
75.668952465,-0.4299612,-0.3746204,0.2997144,0.4238027,-0.2555384,0.87923,-18.87217,-24.74978,-23.60966
75.678862095,-0.5533556,-0.1994123,0.5446162,0.4277679,-0.2583884,0.881095,-18.87217,-24.74978,-23.60966
75.688770771,-0.5527578,-0.0826944900000003,0.421399,0.4233419,-0.2574812,0.8797014,-18.13335,-24.00053,-23.61586
75.698679924,-0.366405,0.1504172,0.4209275,0.4301103,-0.2588989,0.8705065,-18.13335,-24.00053,-23.61586
75.708589077,-0.2419714,0.09199461,0.5431054,0.4172703,-0.2498559,0.8687648,-18.13335,-24.00053,-23.61586
75.718498707,-0.4892641,-0.02466145,0.4198901,0.4182716,-0.2547095,0.8653621,-18.13335,-24.00053,-23.61586
75.728407383,-0.179076,-0.2574737,0.4806871,0.4192774,-0.256634,0.8658202,-18.13335,-24.00053,-23.61586
75.738316536,-0.2407892,-0.5483369,0.602770599999998,0.4208267,-0.2536459,0.8773496,-19.25289,-24.37705,-24.05858
75.748225212,-0.3643045,-0.780674300000002,0.2340866,0.408964,-0.24703,0.8727017,-19.25289,-24.37705,-24.05858
75.758134365,-0.5495638,-0.954376399999999,0.04987728,0.41385,-0.2508731,0.8678294,-19.25289,-24.37705,-24.05858
75.768043518,-0.3011796,-1.127714,-0.0728533600000002,0.4182689,-0.2532475,0.8668123,-19.25289,-24.37705,-24.05858
75.777952194,-0.2388828,-1.417484,-0.1341054,0.4221865,-0.2488052,0.8725676,-19.25289,-24.37705,-24.05858
75.787861824,-0.2385633,-1.590515,-0.1340334,0.4226496,-0.2507638,0.8677487,-18.88534,-23.62443,-23.22765
75.797770977,-0.1144459,-1.588517,-0.195093,0.4246455,-0.254133,0.8677078,-18.88534,-23.62443,-23.22765
75.807679653,-0.1762596,-1.353532,-0.4401069,0.4222885,-0.2589961,0.8705782,-18.88534,-23.62443,-23.22765
75.820065975,-0.1140838,-1.584195,-0.4394931,0.4246647,-0.2511963,0.8730089,-18.88534,-23.62443,-23.22765
75.829974651,-0.05206083,-1.17457,-0.3162923,0.4272394,-0.2554883,0.880639,-18.88534,-23.62443,-23.22765
75.839884281,-0.05205378,-1.056719,-0.5611925,0.4213414,-0.2516752,0.8821594,-18.50437,-24.37699,-24.06247
75.849793434,-0.1758061,-0.880727100000003,-0.5605648,0.4203374,-0.2453595,0.8870124,-18.50437,-24.37699,-24.06247
75.859702587,-0.4851004,-0.588416000000003,-0.4984592,0.4183463,-0.2473535,0.8812556,-18.50437,-24.37699,-24.06247
75.869611263,-0.9178047,-0.587512300000001,-0.743246200000001,0.424706,-0.2497113,0.8787803,-18.50437,-24.37699,-24.06247
75.879520416,-1.102408,-0.2955877,-0.865096299999999,0.4203307,-0.2497532,0.8812213,-18.50437,-24.37699,-24.06247
75.889429092,-1.163019,-0.2370194,-0.741457300000003,0.410915,-0.2499349,0.8688231,-18.49306,-25.12435,-23.61045
75.899338722,-1.161617,-0.5279266,-0.863193999999998,0.4139083,-0.2532818,0.8706937,-18.49306,-25.12435,-23.61045
75.909247875,-0.912600200000003,-0.876701999999999,-0.739422500000002,0.4213611,-0.2623967,0.8715244,-18.49306,-25.12435,-23.61045
75.919156551,-0.663798900000001,-1.108664,-0.799741000000002,0.4331245,-0.2656496,0.8704336,-18.49306,-25.12435,-23.61045
75.929065704,-0.1675581,-1.398494,-0.4920954,0.4306838,-0.2676293,0.8685223,-18.49306,-25.12435,-23.61045
75.938974857,0.3278844,-1.513315,-0.4914581,0.4360657,-0.2646334,0.8723338,-18.87564,-24.37362,-23.22535
75.948883533,0.4511931,-1.453254,-0.6136823,0.433568,-0.2622525,0.869972,-18.87564,-24.37362,-23.22535
75.958793163,0.3886688,-1.509717,-0.3062896,0.4369909,-0.2573315,0.875735,-18.87564,-24.37362,-23.22535
75.968702316,0.4500798,-1.041969,0.000716920899999999,0.4388853,-0.2480706,0.8805808,-18.87564,-24.37362,-23.22535
75.978611469,0.3256773,-0.4001818,0.184824,0.4354281,-0.2422778,0.8840124,-18.87564,-24.37362,-23.22535
75.988520145,0.2015478,0.00784671599999998,0.2459548,0.4355077,-0.245651,0.8878304,-18.88348,-24.00242,-24.06168
75.998429775,-0.1082206,0.881158900000002,0.3681982,0.4330359,-0.2413054,0.8902831,-18.88348,-24.00242,-24.06168
76.008338928,-0.603413899999999,1.695232,0.5517666,0.4306663,-0.2500774,0.8873656,-18.88348,-24.00242,-24.06168
76.018247604,-0.788489600000001,2.042541,0.4283863,0.4292109,-0.2535045,0.8844753,-18.88348,-24.00242,-24.06168
76.028156757,-0.663642599999999,2.44752,0.611821300000001,0.4340519,-0.2568831,0.8757652,-18.88348,-24.00242,-24.06168
76.03806591,-0.7247471,2.269726,0.733759299999998,0.4257969,-0.2632988,0.8738782,-18.49516,-24.74662,-22.84067
76.047974586,-0.5381783,1.800988,1.039537,0.4203486,-0.2648659,0.8652752,-18.49516,-24.74662,-22.84067
76.057884216,-0.599576500000001,1.856923,0.609018100000001,0.4101181,-0.2630236,0.871144,-18.49516,-24.74662,-22.84067
76.067793369,0.0202069,1.330616,0.4241453,0.4153781,-0.2576522,0.8658494,-18.49516,-24.74662,-22.84067
76.077702045,0.3297356,1.037922,0.5462613,0.4139484,-0.2591146,0.8677736,-18.49516,-24.74662,-22.84067
76.090088367,0.4530552,0.3959055,0.3614692,0.4076364,-0.2640491,0.8663586,-18.49791,-24.74976,-23.61161
76.099997044,0.5142102,0.1041851,0.606370399999999,0.4169261,-0.2619818,0.8686872,-18.49791,-24.74976,-23.61161
76.109906673,1.25651,0.0459303,0.2989677,0.4252836,-0.2633177,0.871482,-18.49791,-24.74976,-23.61161
76.119815826,1.131191,0.04598239,0.1145035,0.4189591,-0.2614294,0.8768348,-18.49791,-24.74976,-23.61161
76.129724979,1.191611,0.04588802,0.05301604,0.4198553,-0.2570694,0.8739746,-18.87217,-24.74978,-23.60966
76.139633656,1.190134,0.1041006,0.1142545,0.4221816,-0.2488077,0.8720875,-18.87217,-24.74978,-23.60966
76.149542809,1.126799,0.3369594,0.2982768,0.4261125,-0.2463097,0.8768694,-18.87217,-24.74978,-23.60966
76.159452438,0.939783000000002,0.2200323,0.05248913,0.4251664,-0.244842,0.8816894,-18.87217,-24.74978,-23.60966
76.169361115,0.5672078,0.3362415,0.2363963,0.4197061,-0.2425129,0.8764737,-18.87217,-24.74978,-23.60966
76.179270268,0.2570385,0.2193702,0.05216484,0.4108692,-0.2436173,0.8717465,-18.86732,-25.12438,-23.60851
76.189179421,0.3185953,-0.3048803,-0.07060722,0.4089258,-0.2475377,0.8683773,-18.86732,-25.12438,-23.60851
76.199088097,0.3182146,-0.5373771,-0.1318429,0.4113829,-0.246525,0.8707621,-18.86732,-25.12438,-23.60851
76.20899725,0.3176982,-1.177163,-0.0703529299999998,0.410399,-0.2484917,0.8678772,-18.86732,-25.12438,-23.60851
76.218906879,0.4411753,-1.525068,-0.3155813,0.4073919,-0.2456397,0.8640827,-18.86732,-25.12438,-23.60851
76.228815556,0.2549043,-2.105471,-0.4380071,0.4078674,-0.2436894,0.8650516,-18.49791,-24.74976,-23.61161
76.238724709,0.130708,-2.393903,-0.621391499999997,0.4094093,-0.2446076,0.8712733,-18.49791,-24.74976,-23.61161
76.248633862,0.00668720200000001,-2.68201,-0.681954599999999,0.4216705,-0.247362,0.8716217,-18.49791,-24.74976,-23.61161
76.258542538,0.006639897,-2.736856,-0.803727499999999,0.4241361,-0.2429303,0.8788308,-18.49791,-24.74976,-23.61161
76.268451691,-0.4267403,-2.383907,-0.618667800000001,0.4339401,-0.2466974,0.8767945,-18.49791,-24.74976,-23.61161
76.278361321,-0.5501387,-2.264482,-0.6791958,0.4300618,-0.2511193,0.8748801,-19.25128,-24.37522,-23.60887
76.288269997,-0.4257662,-1.854057,-0.923640100000001,0.4349722,-0.2549497,0.8724084,-19.25128,-24.37522,-23.60887
76.29817915,-0.4872278,-1.560523,-1.045167,0.4349954,-0.2568888,0.8723953,-19.25128,-24.37522,-23.60887
76.308088303,-0.6103752,-1.733172,-1.105179,0.4320354,-0.2530367,0.874369,-19.25128,-24.37522,-23.60887
76.317996979,-0.609647499999998,-1.556349,-1.16525,0.431596,-0.2559439,0.8757942,-19.25128,-24.37522,-23.60887
76.327906609,-0.732641000000001,-1.205029,-0.918354,0.4272456,-0.2588997,0.8772552,-18.87702,-24.37519,-23.61081
76.337815762,-0.607922600000001,-1.087048,-0.855857,0.4330774,-0.2612839,0.8709432,-18.87702,-24.37519,-23.61081
76.347724438,-0.1118686,-1.085738,-0.732210299999998,0.4311343,-0.2627651,0.8704712,-18.87702,-24.37519,-23.61081
76.36011076,0.1978028,-1.200409,-0.731099399999998,0.4285502,-0.2506731,0.8710558,-18.87702,-24.37519,-23.61081
76.37002039,-0.0500228,-1.315332,-0.791467000000002,0.4268912,-0.2420109,0.8624861,-18.87702,-24.37519,-23.61081
76.379929066,-0.2974982,-1.31379,-0.729090600000002,0.4279977,-0.2453464,0.8710964,-18.87863,-24.37702,-24.06053
76.389838219,-0.235167,-0.962719299999997,-0.9121287,0.4274206,-0.2400325,0.8687364,-18.87863,-24.37702,-24.06053
76.399747372,0.0747407699999999,-1.136101,-0.604476899999999,0.432767,-0.2390063,0.8667731,-18.87863,-24.37702,-24.06053
76.409656048,0.3223213,-1.192926,-0.2970572,0.4308516,-0.2394976,0.8701487,-18.87863,-24.37702,-24.06053
76.419565201,0.0742809499999999,-0.900259599999997,-0.1739198,0.4393706,-0.2461152,0.8825099,-18.87863,-24.37702,-24.06053
76.429474831,-0.1115681,-0.4914565,-0.05103334,0.4448741,-0.2532999,0.8862525,-18.87079,-24.74822,-23.22419
76.439383507,-0.606679499999998,0.5572204,0.2557104,0.4484274,-0.2527013,0.899668,-18.87079,-24.74822,-23.22419
76.44929266,-0.4820025,1.255288,0.4394394,0.442579,-0.262521,0.8900535,-18.87079,-24.74822,-23.22419
76.459201813,-0.1099438,1.835938,0.684319699999998,0.44709,-0.2697255,0.8923646,-18.87079,-24.74822,-23.22419
76.469110489,-0.04792605,2.823275,0.8062631,0.4386195,-0.2655216,0.8819074,-18.87079,-24.74822,-23.22419
76.479019642,0.2616493,3.227237,0.682505300000003,0.4273289,-0.269588,0.8728617,-18.88672,-23.626,-23.61312
76.488929272,0.1375029,3.0485,0.742972399999999,0.4192992,-0.265891,0.8571154,-18.88672,-23.626,-23.61312
76.498837948,0.3231443,2.345977,0.680734200000001,0.4158807,-0.2625169,0.8614909,-18.88672,-23.626,-23.61312
76.508747101,0.5703545,1.644354,0.618612499999999,0.4195891,-0.2508665,0.8552922,-18.88672,-23.626,-23.61312
76.518656254,0.5076806,0.943631399999999,0.5564727,0.420118,-0.2513273,0.8586454,-18.88672,-23.626,-23.61312
76.52856493,0.2592713,0.942482700000002,0.2491519,0.4185552,-0.2416395,0.860645,-18.88187,-24.00059,-23.61197
76.538474083,0.1350306,0.883211600000003,0.3716034,0.4176251,-0.2435781,0.8630415,-18.88187,-24.00059,-23.61197
76.548383713,0.3823408,0.1834263,0.2486613,0.420272,-0.2497838,0.8754598,-18.88187,-24.00059,-23.61197
76.558292389,0.1341279,0.649138499999999,0.4937042,0.4359775,-0.2539475,0.8762471,-18.88187,-24.00059,-23.61197
76.568201542,-0.2374354,1.055922,0.861107300000002,0.4409752,-0.2572447,0.8829011,-18.88187,-24.00059,-23.61197
76.578110695,-0.5465745,1.520246,0.798643600000001,0.4346761,-0.2611969,0.8838933,-19.24643,-24.74981,-23.60772
76.588020325,-0.2363145,2.042293,0.981671299999999,0.4331926,-0.2626873,0.880536,-19.24643,-24.74981,-23.60772
76.597929001,-0.05026187,2.330932,1.348442,0.4293088,-0.2588193,0.8878,-19.24643,-24.74981,-23.60772
76.607838154,-0.1120784,2.386256,1.162776,0.4257007,-0.2535928,0.8758643,-19.24643,-24.74981,-23.60772
76.617747307,-0.1118598,2.092109,0.9771877,0.4108901,-0.247021,0.8698031,-19.24643,-24.74981,-23.60772
76.627655983,-0.359277,1.972978,0.730624400000002,0.4093389,-0.2383028,0.8717961,-18.87355,-24.75135,-23.99513
76.640042782,-0.4205344,1.329365,0.606809400000001,0.4033198,-0.2326014,0.863727,-18.87355,-24.75135,-23.99513
76.649951935,-0.5439017,0.803720399999998,0.667333100000002,0.4019066,-0.2350309,0.8661247,-18.87355,-24.75135,-23.99513
76.659860611,-0.914671800000002,-0.01243237,0.6665527,0.4063719,-0.2412837,0.8650814,-18.87355,-24.75135,-23.99513
76.669769764,-1.09924,-0.2453331,0.604313999999999,0.4122574,-0.2436398,0.864051,-18.87355,-24.75135,-23.99513
76.679678917,-1.159642,-0.4195064,0.7875474,0.4163584,-0.2537362,0.8706681,-18.50437,-24.37699,-24.06247
76.689587593,-1.281905,-0.651731200000002,0.663870899999999,0.4237164,-0.2619248,0.8633431,-18.50437,-24.37699,-24.06247
76.699497223,-0.7849854,-0.942044299999999,0.724361400000003,0.4288018,-0.2729812,0.8694645,-18.50437,-24.37699,-24.06247
76.709406376,-0.4126434,-0.824320600000002,0.723316700000002,0.4371819,-0.2786955,0.8693489,-18.50437,-24.37699,-24.06247
76.719315052,0.2069247,-0.590332200000002,0.783713300000001,0.434844,-0.2806217,0.8775203,-18.50437,-24.37699,-24.06247
76.729224205,0.5162188,-0.0655609100000002,0.4761264,0.4288659,-0.2705088,0.8786033,-18.88049,-23.99903,-23.2265
76.739133835,0.825007800000002,0.1092773,0.230308,0.4150552,-0.2600109,0.8792811,-18.88049,-23.99903,-23.2265
76.749042034,0.762052999999997,0.05096129,0.04598785,0.4161095,-0.2589833,0.887921,-18.88049,-23.99903,-23.2265
76.758951664,0.451639,0.283777,0.04591081,0.4204492,-0.2555453,0.8859832,-18.88049,-23.99903,-23.2265
76.768860817,0.2652965,0.2833291,0.3523979,0.4222702,-0.2516885,0.8773493,-18.88049,-23.99903,-23.2265
76.778769493,0.574692400000002,0.632411800000001,0.4747003,0.4182436,-0.247407,0.8711729,-18.88187,-24.00059,-23.61197
76.788678646,0.4502112,0.3986645,0.1673666,0.4162026,-0.2435734,0.867376,-18.88187,-24.00059,-23.61197
76.798588276,0.0780952400000002,0.2234628,-0.01681669,0.4269447,-0.2444221,0.8648703,-18.88187,-24.00059,-23.61197
76.808496475,0.3255159,0.1067514,0.1057953,0.435368,-0.2496261,0.8695593,-18.88187,-24.00059,-23.61197
76.818406105,0.0774910200000002,0.04856658,0.1670639,0.4358511,-0.2437694,0.8758359,-18.88187,-24.00059,-23.61197
76.828315258,0.0772575700000003,0.2232432,-0.01727317,0.4427517,-0.2451184,0.8796043,-19.25289,-24.37705,-24.05858
76.838224411,0.1391375,0.630543500000002,-0.0786143699999997,0.4432659,-0.2455869,0.8815171,-19.25289,-24.37705,-24.05858
76.848133087,-0.2942145,0.862594800000001,-0.01722982,0.4350279,-0.2505305,0.8830008,-19.25289,-24.37705,-24.05858
76.858042717,-0.5414221,1.152588,-0.0785325499999998,0.4334633,-0.2452338,0.8796895,-19.25289,-24.37705,-24.05858
76.86795187,-0.6646571,1.617065,0.2896086,0.4321071,-0.2520238,0.8825377,-19.25289,-24.37705,-24.05858
76.877860546,-0.849519700000002,2.255512,0.2893219,0.4213873,-0.2579927,0.879236,-18.12851,-24.37513,-23.61471
76.887769699,-0.848549899999998,2.660315,0.1049084,0.413139,-0.2653806,0.8768623,-18.12851,-24.37513,-23.61471
76.897678852,-0.723705200000002,2.482364,0.104661,0.4101537,-0.2664198,0.8706409,-18.12851,-24.37513,-23.61471
76.910065174,-0.351077,2.070996,0.04313377,0.3985288,-0.2772412,0.8687557,-18.12851,-24.37513,-23.61471
76.919974327,0.454189,1.486223,-0.01832186,0.3990915,-0.2801234,0.8725725,-18.12851,-24.37513,-23.61471
76.92988348,0.886970900000002,0.785570400000002,-0.3251326,0.3989856,-0.2757883,0.8673207,-18.50276,-24.37516,-23.61276
76.939792156,1.25731,0.2606087,-0.2635541,0.3950827,-0.2748571,0.8692836,-18.50276,-24.37516,-23.61276
76.949701309,1.81292,-0.3799962,-0.2632616,0.4076435,-0.262582,0.868769,-18.50276,-24.37516,-23.61276
76.959610939,2.120217,-0.728829400000002,-0.3855025,0.4022014,-0.2514629,0.8756157,-18.50276,-24.37516,-23.61276
76.969519615,1.684162,-1.368374,-0.3850761,0.4078327,-0.2354148,0.8713491,-18.50276,-24.37516,-23.61276
76.979428768,1.434295,-1.657769,-0.0778742699999997,0.4229451,-0.2254924,0.8784778,-19.24643,-24.74981,-23.60772
76.989337921,0.875362100000003,-1.655669,0.1062545,0.4263836,-0.226417,0.87892,-19.24643,-24.74981,-23.60772
76.999246597,0.5029455,-1.478961,0.2288661,0.4346516,-0.2243848,0.8769365,-19.24643,-24.74981,-23.60772
77.009156227,-0.05489519,-0.8948218,0.4125131,0.4435718,-0.2286029,0.883548,-19.24643,-24.74981,-23.60772
77.01906538,-0.2404264,0.2124856,0.289327,0.4446207,-0.2300171,0.8888107,-19.24643,-24.74981,-23.60772
77.028974533,-0.549445,1.26026,-0.0790981800000001,0.4407637,-0.2354035,0.8878501,-19.63039,-24.00065,-23.60808
77.038883209,-0.796273599999999,1.607933,-0.0790759199999998,0.4359512,-0.2422539,0.8873689,-19.63039,-24.00065,-23.60808
77.048792362,-0.7952346,2.013366,-0.1403202,0.4349923,-0.2525002,0.8772262,-19.63039,-24.00065,-23.60808
77.058701992,-0.979991600000002,1.777866,0.04390619,0.4296272,-0.2593898,0.8705077,-19.63039,-24.00065,-23.60808
77.068610668,-0.978760700000002,1.601023,0.04390884,0.4243196,-0.2628348,0.8734148,-19.63039,-24.00065,-23.60808
77.078519821,-0.668210599999999,1.424275,-0.01748995,0.4179288,-0.2648835,0.8676983,-18.87378,-24.75161,-24.05937
77.088428974,-0.2340384,0.956616299999998,-0.0787345299999999,0.4135744,-0.2683292,0.8681958,-18.87378,-24.75161,-24.05937
77.09833765,0.01383266,0.722644700000002,-0.2013614,0.415602,-0.2702186,0.872966,-18.87378,-24.75161,-24.05937
77.108246803,0.07567552,0.5470177,0.105494,0.4140268,-0.2644396,0.8691778,-18.87378,-24.75161,-24.05937
77.118156433,0.07565829,0.255272,0.1052652,0.4169208,-0.2590578,0.8715877,-18.87378,-24.75161,-24.05937
77.128065586,0.1992837,0.1967909,0.227801,0.4135102,-0.254704,0.8778903,-18.87702,-24.37519,-23.61081
77.137974262,0.07519622,0.02193422,-0.01785971,0.4095299,-0.2543009,0.8716878,-18.87702,-24.37519,-23.61081
77.147883415,0.1370204,-0.1527943,-0.0790267500000001,0.410021,-0.2474644,0.8798914,-18.87702,-24.37519,-23.61081
77.157793045,0.07496856,-0.1526573,-0.01756457,0.4154163,-0.2464128,0.8827295,-18.87702,-24.37519,-23.61081
77.167701244,-0.04878773,-0.0943050399999998,-0.01760032,0.4075197,-0.2431342,0.8794633,-18.87702,-24.37519,-23.61081
77.180088043,-0.1104936,-0.2106975,0.1050568,0.4129795,-0.2479026,0.8817818,-18.87702,-24.37519,-23.61081
77.189997196,-0.1722151,-0.5016927,-0.01766604,0.4164056,-0.2527361,0.8764362,-18.87702,-24.37519,-23.61081
77.199905872,-0.2337812,-0.5011905,-0.140254,0.4164453,-0.2556423,0.8768966,-18.87702,-24.37519,-23.61081
77.209815502,-0.2332736,-0.3840937,-0.3853946,0.4188322,-0.2590564,0.8672486,-18.87702,-24.37519,-23.61081
77.219724655,-0.04724424,-0.674688100000003,-0.2623582,0.419801,-0.2595367,0.865796,-18.88049,-23.99903,-23.2265
77.229633331,0.2004311,-1.081293,-0.5073646,0.4207471,-0.2610044,0.8609759,-18.88049,-23.99903,-23.2265
77.239542484,0.1382802,-1.196439,-0.5680903,0.4163304,-0.2571655,0.8639233,-18.88049,-23.99903,-23.2265
77.249451637,-0.04768813,-1.369619,-0.690063999999997,0.4241304,-0.258543,0.8600006,-18.88049,-23.99903,-23.2265
77.259360313,0.1998516,-1.658957,-0.6278729,0.4232902,-0.2560446,0.8763505,-18.88049,-23.99903,-23.2265
77.269269943,0.1994839,-1.424067,-0.811153699999998,0.4261687,-0.2555488,0.8715256,-18.87702,-24.37519,-23.61081
77.279179096,0.2611519,-1.189508,-0.626180999999999,0.4237123,-0.251683,0.8749351,-18.87702,-24.37519,-23.61081
77.289088249,-0.04869126,-1.129744,-0.747985299999998,0.4198664,-0.2497465,0.8836264,-18.87702,-24.37519,-23.61081
77.298996925,0.01321069,-0.8954086,-0.808524399999998,0.4246771,-0.2472873,0.8787968,-18.87702,-24.37519,-23.61081
77.308906078,-0.04864669,-0.4866301,-0.684917900000002,0.4174693,-0.2541426,0.8831391,-18.87702,-24.37519,-23.61081
77.318815708,-0.2961822,-0.2531208,-0.622675500000003,0.4164902,-0.2561067,0.8807343,-18.87378,-24.75161,-24.05937
77.328724384,-0.4815854,-0.01990478,-0.437766,0.4130201,-0.256662,0.875481,-18.87378,-24.75161,-24.05937
77.338633537,-0.2953609,-0.1946357,-0.743857299999999,0.4101034,-0.2576655,0.8759815,-18.87378,-24.75161,-24.05937
77.34854269,-0.1711138,-0.3691288,-0.681540800000002,0.4120161,-0.2557122,0.8740562,-18.87378,-24.75161,-24.05937
77.358451367,-0.2328563,-0.834571099999997,-0.987248699999998,0.4104685,-0.2543091,0.8678378,-18.87378,-24.75161,-24.05937
77.368360519,0.01503272,-0.833504500000001,-0.8634178,0.4202542,-0.2561345,0.8662946,-19.25128,-24.37522,-23.60887
77.378270149,0.0150333,-0.832457599999997,-0.6169588,0.4222711,-0.2575417,0.870588,-19.25128,-24.37522,-23.60887
77.388178825,-0.04694311,-0.5984591,-0.4934387,0.4290943,-0.2540529,0.8724688,-19.25128,-24.37522,-23.60887
77.398087978,0.2007124,-0.4228783,-0.4314561,0.4261553,-0.2482387,0.8787767,-19.25128,-24.37522,-23.60887
77.407997131,0.1386001,-0.5387413,-0.3082847,0.4334789,-0.2457135,0.8806465,-19.25128,-24.37522,-23.60887
77.417906761,0.0765268699999998,-0.3051849,-0.0624458899999999,0.4321316,-0.2520111,0.8849384,-19.25128,-24.37522,-23.60887
77.427815437,-0.1092083,0.04461875,-0.0623289100000001,0.4327148,-0.2553705,0.8901924,-19.25613,-24.00062,-23.61002
77.43772459,-0.04713312,0.2191723,0.1831046,0.4272946,-0.2588742,0.8820564,-19.25613,-24.00062,-23.61002
77.447633743,0.01490303,0.801069000000003,0.1215503,0.4253637,-0.2588858,0.8844751,-19.25613,-24.00062,-23.61002
77.460019589,0.4481153,1.090815,0.3052748,0.4254265,-0.2637311,0.8849223,-19.25613,-24.00062,-23.61002
77.469929218,0.1998781,1.14766,0.2435092,0.4218686,-0.2565272,0.8802016,-18.11743,-25.12275,-23.22693
77.479838371,0.2615261,1.320993,0.3044121,0.4164297,-0.2551626,0.8759396,-18.11743,-25.12275,-23.22693
77.489747048,0.1992012,1.144761,0.2426861,0.4148478,-0.2537774,0.8663603,-18.11743,-25.12275,-23.22693
77.499656201,0.4466254,0.735815499999998,0.1196747,0.4142391,-0.2499433,0.8591891,-18.11743,-25.12275,-23.22693
77.509565354,0.508022,0.21077,0.1807331,0.4069672,-0.2539051,0.8606704,-18.11743,-25.12275,-23.22693
77.51947403,0.5074811,-0.3718863,0.3031741,0.4182231,-0.2522957,0.863458,-18.13011,-24.37696,-24.06442
77.529383659,0.3830648,-0.604298900000002,0.425442,0.4178705,-0.257109,0.8711117,-18.13011,-24.37696,-24.06442
77.539292812,0.3826226,-0.603576500000003,0.3022975,0.4178281,-0.2527407,0.8721015,-18.13011,-24.37696,-24.06442
77.549201965,0.3822198,-0.661088600000001,0.3632615,0.4140018,-0.2561599,0.8764356,-18.13011,-24.37696,-24.06442
77.559110641,0.443775,-0.5436995,-0.1278668,0.4202546,-0.2536952,0.8691918,-18.13011,-24.37696,-24.06442
77.569020271,0.1955238,-0.3683339,-0.1278604,0.4173562,-0.2566405,0.869199,-18.12851,-24.37513,-23.61471
77.578929424,0.1952004,-0.659057899999998,-0.250387,0.4144096,-0.2547326,0.8701993,-18.12851,-24.37513,-23.61471
77.5888381,0.2567376,-0.891018300000001,-0.3727213,0.4257247,-0.2560193,0.8753678,-18.12851,-24.37513,-23.61471
77.598747253,0.627985099999998,-0.889917499999998,-0.3724073,0.4242274,-0.2526389,0.8763645,-18.12851,-24.37513,-23.61471
77.608656406,0.5034564,-0.947015100000003,-0.2492715,0.41735,-0.2532291,0.8725829,-18.12851,-24.37513,-23.61471
77.618566036,0.4408082,-0.829303399999998,-0.4941788,0.4173437,-0.2498177,0.8759668,-18.87863,-24.37702,-24.06053
77.628474712,0.1925996,-0.8866417,-0.616110499999999,0.4217088,-0.2522201,0.8696684,-18.87863,-24.37702,-24.06053
77.638383865,0.00662131699999998,-0.769042500000001,-0.5540893,0.4231527,-0.2531893,0.8662874,-18.87863,-24.37702,-24.06053
77.648293018,0.2542874,-0.5351053,-0.6147178,0.424727,-0.2531151,0.8768369,-18.87863,-24.37702,-24.06053
77.658201694,0.2540652,-0.767495899999997,-0.6754048,0.4182022,-0.248892,0.8654015,-18.87863,-24.37702,-24.06053
77.668110847,0.1299673,-0.824930199999999,-0.674633599999999,0.4211829,-0.2454162,0.8740399,-18.49791,-24.74976,-23.61161
77.678020477,0.0678659799999999,-0.823820900000003,-0.6124041,0.4257537,-0.2530774,0.8816291,-18.49791,-24.74976,-23.61161
77.687929153,-0.05609536,-0.881019799999998,-0.4888705,0.4267301,-0.2550172,0.8792064,-18.49791,-24.74976,-23.61161
77.697838306,-0.1798037,-0.4724788,-0.426855,0.4291205,-0.2550149,0.8739026,-18.49791,-24.74976,-23.61161
77.707747459,-0.2415743,0.1103781,-0.794380699999999,0.4248138,-0.2603869,0.8767876,-18.49791,-24.74976,-23.61161
77.717657089,0.00626736400000001,0.2267617,-0.4867803,0.4222546,-0.2512088,0.8763922,-18.87564,-24.37362,-23.22535
77.730042934,0.3155977,-0.006455775,-0.3632904,0.4226215,-0.2488272,0.8672817,-18.87564,-24.37362,-23.22535
77.739952087,0.2532243,-0.4722438,-0.4241392,0.4210512,-0.2430457,0.8639737,-18.87564,-24.37362,-23.22535
77.74986124,-0.3661241,-0.588117999999999,-0.5461589,0.4244696,-0.235688,0.8721538,-18.87564,-24.37362,-23.22535
77.759769916,-0.4274661,-0.4708021,-0.4840135,0.4246192,-0.2478053,0.8725518,-18.87564,-24.37362,-23.22535
77.769679546,-0.4269097,-0.2372213,-0.2994518,0.4335394,-0.2520234,0.8791634,-18.50437,-24.37699,-24.06247
77.779588699,-0.3645521,0.3453219,-0.0538553,0.4277474,-0.2579113,0.8796579,-18.50437,-24.37699,-24.06247
77.789497375,-0.3640359,0.577859399999999,0.00759452000000002,0.4266344,-0.2536036,0.8715342,-18.50437,-24.37699,-24.06247
77.799406528,-0.4253222,0.751779800000002,-0.1149867,0.4227542,-0.2570508,0.8705868,-18.50437,-24.37699,-24.06247
77.809315681,0.00873951000000002,0.750872099999999,-0.1762629,0.4268107,-0.2588778,0.8825411,-18.50437,-24.37699,-24.06247
77.819225311,0.0706471099999999,1.099221,0.1305803,0.4287016,-0.2583992,0.8767649,-18.87702,-24.37519,-23.61081
77.829133987,-0.1770966,1.563527,0.1303199,0.4209096,-0.2614077,0.8763368,-18.87702,-24.37519,-23.61081
77.83904314,-0.1150528,1.794608,0.3753766,0.4258721,-0.2642353,0.8801132,-18.87702,-24.37519,-23.61081
77.848952293,0.1327078,2.258204,0.4974959,0.424239,-0.2589743,0.8700801,-18.87702,-24.37519,-23.61081
77.85886097,-0.05319527,2.604752,0.2515158,0.4212186,-0.2541781,0.867259,-18.87702,-24.37519,-23.61081
77.868770122,-0.4865197,2.601608,0.1899526,0.4211812,-0.2498073,0.868729,-18.50276,-24.37516,-23.61276
77.878679752,-1.228796,2.190778,0.0669882000000003,0.4245436,-0.2439422,0.8696973,-18.50276,-24.37516,-23.61276
77.888588428,-1.536806,2.653749,0.128267,0.4319949,-0.2496431,0.874392,-18.50276,-24.37516,-23.61276
77.898497581,-2.215864,3.174263,-0.178593,0.424686,-0.2521608,0.8739626,-18.50276,-24.37516,-23.61276
77.908406734,-2.522557,3.111932,-0.2395582,0.4236273,-0.2507516,0.8677397,-18.50276,-24.37516,-23.61276
77.918316364,-1.962296,3.457352,-0.3006202,0.4196015,-0.2469575,0.8610801,-19.25613,-24.00062,-23.61002
77.928224564,-1.402661,3.627802,0.006417748,0.4176251,-0.2435781,0.8630415,-19.25613,-24.00062,-23.61002
77.938134193,-0.843729399999997,3.506742,0.00629405100000002,0.4153696,-0.2557054,0.867303,-19.25613,-24.00062,-23.61002
77.948043346,-0.656913799999998,2.978179,0.4355952,0.4250529,-0.2651406,0.8945196,-19.25613,-24.00062,-23.61002
77.957952023,-1.274963,2.392102,0.557639,0.4343853,-0.2650023,0.8987556,-19.25613,-24.00062,-23.61002
77.967861176,-1.087489,2.330845,0.802197499999999,0.4348261,-0.265509,0.8934664,-18.88187,-24.00059,-23.61197
77.977770805,0.02841115,2.09491,0.5559309,0.4298244,-0.2627018,0.8858488,-18.88187,-24.00059,-23.61197
77.987679958,0.5236853,2.208764,0.739109299999999,0.4259504,-0.2641945,0.8877953,-18.88187,-24.00059,-23.61197
78.000065804,1.389198,2.55468,0.5542073,0.4215262,-0.264262,0.885435,-18.88187,-24.00059,-23.61197
78.009974957,1.511252,2.376771,0.6147584,0.4141162,-0.2570761,0.8865117,-18.88187,-24.00059,-23.61197
78.019884586,1.571253,2.082635,0.736750500000001,0.4052085,-0.2543148,0.8794101,-18.87863,-24.37702,-24.06053
78.029793262,1.693078,1.556063,0.981083999999997,0.4071532,-0.2538083,0.8789154,-18.87863,-24.37702,-24.06053
78.039702415,2.000388,1.728937,1.593269,0.4165654,-0.2516773,0.8932472,-18.87863,-24.37702,-24.06053
78.049611568,2.307371,1.785091,1.713897,0.4199603,-0.2501855,0.8922655,-18.87863,-24.37702,-24.06053
78.059520245,2.923562,1.433429,1.589115,0.4112253,-0.2561148,0.8918266,-18.87863,-24.37702,-24.06053
78.069429398,4.034464,1.314996,1.280516,0.4196794,-0.2647175,0.8955324,-18.12526,-24.75155,-24.06327
78.079339027,4.83424,2.128487,1.463016,0.4244527,-0.2632534,0.8858948,-18.12526,-24.75155,-24.06327
78.08924818,5.201275,2.825304,1.155016,0.4221762,-0.2719769,0.8920998,-18.12526,-24.75155,-24.06327
78.099156857,5.201275,2.825304,0.970926899999998,0.4232119,-0.2821785,0.8857802,-18.12526,-24.75155,-24.06327
78.10906601,4.643833,2.708801,1.400467,0.4291321,-0.2767118,0.8972857,-18.12526,-24.75155,-24.06327
78.118975639,4.70577,4.572864,1.523193,0.4404138,-0.2785037,0.8986099,-17.81823,-24.37693,-24.06604
78.128884316,5.263213,5.621399,2.014096,0.4238045,-0.2618789,0.8719854,-17.81823,-24.37693,-24.06604
78.138793469,5.75871800000001,4.106848,2.320911,0.4064351,-0.2436898,0.868426,-17.81823,-24.37693,-24.06604
78.148702621,6.68778800000003,3.466076,2.014096,0.4035415,-0.2359007,0.8814688,-17.81823,-24.37693,-24.06604
78.158611774,5.201275,3.87384,1.768645,0.393335,-0.2418508,0.8805633,-17.81823,-24.37693,-24.06604
78.168520451,3.46701,3.87384,1.523193,0.3941627,-0.2321607,0.8772591,-18.49952,-24.75159,-24.06132
78.17843008,2.785691,3.524328,1.277742,0.3966146,-0.2282239,0.8825443,-18.49952,-24.75159,-24.06132
78.188339233,3.46701,3.058312,1.03229,0.407517,-0.2416722,0.8809135,-18.49952,-24.75159,-24.06132
78.19824791,3.652824,3.640832,0.6641124,0.4129119,-0.2430598,0.8808544,-18.49952,-24.75159,-24.06132
78.208157063,3.962514,3.932092,1.155016,0.4059881,-0.2344058,0.8833768,-18.49952,-24.75159,-24.06132
78.218066216,4.519957,4.339856,1.155016,0.4125618,-0.2332375,0.9058912,-18.12366,-24.74973,-23.61355
78.227975845,4.519957,4.339856,1.277742,0.4190934,-0.2437985,0.910562,-18.12366,-24.74973,-23.61355
78.237884522,4.519957,4.980627,1.707282,0.4170765,-0.2477572,0.8999909,-18.12366,-24.74973,-23.61355
78.247793675,4.210266,4.864123,2.014096,0.4008127,-0.2538796,0.8804139,-18.12366,-24.74973,-23.61355
78.257702828,3.528948,4.1651,1.400467,0.3854665,-0.2512406,0.8652084,-18.12366,-24.74973,-23.61355
78.27008915,3.033443,3.815588,1.155016,0.3707227,-0.2490243,0.860558,-17.81823,-24.37693,-24.06604
78.279998303,2.847629,2.242785,0.970926899999998,0.3656622,-0.2408817,0.8534567,-17.81823,-24.37693,-24.06604
78.289907456,3.46701,0.728233800000001,0.970926899999998,0.3740681,-0.2392655,0.8644333,-17.81823,-24.37693,-24.06604
78.299816608,4.08639,-0.02904177,1.707282,0.3841281,-0.2516799,0.8772219,-17.81823,-24.37693,-24.06604
78.309725285,4.767709,0.5534779,2.136822,0.40187,-0.2411431,0.9030566,-17.81823,-24.37693,-24.06604
78.319634914,4.39608,1.951525,2.198185,0.4190862,-0.2345339,0.9207072,-17.06624,-24.75304,-24.45425
78.329544067,3.528948,4.456359,2.382274,0.4479197,-0.2363713,0.9646028,-17.06624,-24.75304,-24.45425
78.339452744,2.909567,8.70875300000002,2.750451,0.4516093,-0.2252184,0.9560002,-17.06624,-24.75304,-24.45425
78.349361897,3.033443,11.03883,2.505,0.4362355,-0.2235693,0.936947,-17.06624,-24.75304,-24.45425
78.35927105,4.767709,12.37863,1.584556,0.4076189,-0.2303997,0.9040353,-17.06624,-24.75304,-24.45425
78.369180679,5.139337,12.08737,0.4800237,0.3700864,-0.2300827,0.8683726,-17.06624,-24.75304,-24.45425
78.379089356,4.024452,8.300988,0.295935,0.3304578,-0.2225461,0.8274956,-17.06624,-24.75304,-24.45425
78.388998509,0.9275496,6.49517799999999,0.357298,0.3316586,-0.2085199,0.8179749,-17.06624,-24.75304,-24.45425
78.398907662,-0.1873353,4.514612,0.5413867,0.3280167,-0.2116036,0.7930198,-17.06624,-24.75304,-24.45425
78.408816338,0.184293,2.242785,0.5413867,0.3310051,-0.2303146,0.8240777,-17.06624,-24.75304,-24.45425
78.418725968,2.166311,0.02921019,0.725475400000002,0.3526619,-0.2506983,0.8616742,-17.07109,-24.37844,-24.4554
78.42863512,2.971505,-0.669813299999998,1.093653,0.398972,-0.2677422,0.9230728,-17.07109,-24.37844,-24.4554
78.438544273,2.599877,1.310753,2.259548,0.4382039,-0.2801149,0.9672822,-17.07109,-24.37844,-24.4554
78.44845295,1.980497,4.048596,3.302717,0.458021,-0.2787597,0.9939969,-17.07109,-24.37844,-24.4554
78.458362103,1.670806,7.66021699999997,4.100435,0.4643909,-0.2733073,1.001657,-17.07109,-24.37844,-24.4554
78.468271732,1.918558,12.20387,4.284524,0.4709808,-0.2601838,0.99208,-16.31288,-25.12757,-24.45699
78.478180409,1.85662,16.45626,4.284524,0.4424029,-0.2433399,0.9430003,-16.31288,-25.12757,-24.45699
78.488089562,1.670806,16.68927,3.486806,0.3752831,-0.2115734,0.8722891,-16.31288,-25.12757,-24.45699
78.497998715,2.228249,13.89318,2.566363,0.3172937,-0.2024523,0.8071045,-16.31288,-25.12757,-24.45699
78.507907868,3.46701,10.28156,1.952734,0.2883943,-0.2174741,0.7847043,-16.31288,-25.12757,-24.45699
78.517816544,4.39608,6.320422,2.320911,0.2942045,-0.2342553,0.8071061,-17.07109,-24.37844,-24.4554
78.527726174,5.82065500000003,3.58258,2.995903,0.3261444,-0.2423076,0.8605348,-17.07109,-24.37844,-24.4554
78.540112496,4.953523,2.242785,3.118629,0.3960187,-0.2541305,0.9371153,-17.07109,-24.37844,-24.4554
78.550021172,2.599877,4.631115,3.179991,0.4384384,-0.2509728,0.9765972,-17.07109,-24.37844,-24.4554
78.559930801,2.290187,8.59224800000002,3.241354,0.4618148,-0.2495038,1.016724,-16.69683,-24.37841,-24.45735
78.569839954,1.85662,13.60192,3.36408,0.468454,-0.2600088,1.031958,-16.69683,-24.37841,-24.45735
78.579749107,0.617859400000003,17.09703,3.36408,0.4492812,-0.2585985,0.9759659,-16.69683,-24.37841,-24.45735
78.589657783,0.803673499999997,17.56305,2.443637,0.4032774,-0.2435947,0.8943843,-16.69683,-24.37841,-24.45735
78.599566936,1.980497,14.12618,1.891371,0.3293519,-0.2428645,0.8388943,-16.69683,-24.37841,-24.45735
78.609476566,4.891585,10.63107,1.768645,0.307511,-0.2257428,0.8272064,-15.5819,-24.00713,-25.29952
78.619385242,6.19228400000003,9.52428000000003,1.645919,0.3205642,-0.2514998,0.877811,-15.5819,-24.00713,-25.29952
78.629294395,7.678797,9.52428000000003,2.259548,0.385781,-0.2483896,0.9468514,-15.5819,-24.00713,-25.29952
78.639203548,7.926549,11.5631,2.995903,0.448151,-0.2389294,1.031806,-15.5819,-24.00713,-25.29952
78.649112701,6.25422200000001,16.165,4.039073,0.4678266,-0.2405747,1.041216,-15.5819,-24.00713,-25.29952
78.659021377,4.272204,20.00963,4.40725,0.4340048,-0.2639675,1.005841,-16.32694,-24.38335,-25.67994
78.668931007,5.325151,21.69894,5.143605,0.3996406,-0.2949508,1.004032,-16.32694,-24.38335,-25.67994
78.67884016,8.05042500000003,22.22321,5.695871,0.3583853,-0.3438529,0.9291831,-16.32694,-24.38335,-25.67994
78.688749313,12.26221,20.18439,5.87996000000001,0.3502691,-0.3865424,0.850708,-16.32694,-24.38335,-25.67994
78.698657989,16.78369,18.55333,6.493589,0.3192417,-0.3789909,0.8856166,-16.32694,-24.38335,-25.67994
78.708567619,22.48199,18.78634,7.96629900000001,0.2925166,-0.3221759,0.873278,-15.59701,-22.94734,-25.68826
78.718476772,26.38409,17.79606,9.07083100000001,0.3098843,-0.2203747,0.9218114,-15.59701,-22.94734,-25.68826
78.728385448,26.0744,18.37858,9.19355699999998,0.3145282,-0.1328847,0.9526013,-15.59701,-22.94734,-25.68826
78.738294601,22.29618,17.15529,7.29130600000002,0.3053666,-0.06708925,0.9468824,-15.59701,-22.94734,-25.68826
78.748203754,17.21726,18.84459,4.714065,0.3132168,-0.05039192,0.9690083,-15.59701,-22.94734,-25.68826
78.758113384,11.64283,19.42711,4.039073,0.3054053,-0.07487396,0.9415483,-14.46188,-24.01017,-26.07629
78.76802206,7.74073499999998,19.66012,3.670895,0.3021273,-0.1133782,0.910592,-14.46188,-24.01017,-26.07629
78.777931213,6.50197400000001,18.32033,3.425443,0.3031679,-0.1396748,0.8859191,-14.46188,-24.01017,-26.07629
78.787840366,5.263213,16.63102,3.793621,0.2767831,-0.1295121,0.8521396,-14.46188,-24.01017,-26.07629
78.797749519,4.210266,14.53395,1.523193,0.2540431,-0.1338252,0.8230315,-14.46188,-24.01017,-26.07629
78.807658195,2.847629,11.91261,-0.317694,0.2579465,-0.1745078,0.8222442,-14.09949,-23.32678,-26.91554
78.820044994,4.148328,9.58253199999999,-0.317694,0.2507679,-0.1967093,0.8591349,-14.09949,-23.32678,-26.91554
78.829954147,4.458018,7.25245400000001,-0.808597299999997,0.2694845,-0.1925034,0.8772359,-14.09949,-23.32678,-26.91554
78.839862823,5.015461,5.85440700000002,-0.992685999999998,0.2682231,-0.189488,0.9007953,-14.09949,-23.32678,-26.91554
78.849772453,4.39608,4.223351,-0.0722423999999999,0.243299,-0.1519931,0.8983947,-14.09949,-23.32678,-26.91554
78.859681606,2.847629,3.58258,0.05048341,0.2068104,-0.09480459,0.8880695,-13.35284,-22.94873,-26.0854
78.869590759,-0.5589636,2.009777,-1.544952,0.1939713,-0.08624894,0.8858445,-13.35284,-22.94873,-26.0854
78.879499435,-3.53199,0.902989699999998,-2.77221,0.1945333,-0.1101073,0.8650335,-13.35284,-22.94873,-26.0854
78.889408588,-5.266255,-0.786317200000002,-3.079025,0.1861836,-0.1577875,0.8532693,-13.35284,-22.94873,-26.0854
78.899318218,-5.76175999999997,-2.184364,-3.447202,0.1793408,-0.1927454,0.860302,-13.35284,-22.94873,-26.0854
78.909226894,-5.45207,-4.048427,-3.201751,0.199756,-0.2162054,0.8685998,-12.60593,-22.9505,-26.53901
78.919136047,-3.779742,-5.388222,-2.404033,0.2055404,-0.2034923,0.8753532,-12.60593,-22.9505,-26.53901
78.9290452,-3.717804,-6.90277300000003,-2.219944,0.1869021,-0.186194,0.8900456,-12.60593,-22.9505,-26.53901
78.938954353,-4.956565,-7.77655300000002,-1.91313,0.2348668,-0.1733746,0.9093739,-12.60593,-22.9505,-26.53901
78.948863029,-6.19532599999999,-8.41732399999999,-2.035856,0.2574503,-0.1798748,0.9105622,-12.60593,-22.9505,-26.53901
78.958772659,-6.44307900000002,-8.70858499999998,-2.465396,0.2675948,-0.1902939,0.9339267,-12.59704,-23.63726,-26.53689
78.968681812,-5.885636,-7.71830100000001,-2.894936,0.283059,-0.1804368,0.9276074,-12.59704,-23.63726,-26.53689
78.978590965,-7.31021099999999,-7.19403299999999,-2.833573,0.2742519,-0.1844525,0.9223803,-12.59704,-23.63726,-26.53689
78.988499641,-7.68183900000002,-7.71830100000001,-3.263114,0.2773565,-0.2004244,0.9203246,-12.59704,-23.63726,-26.53689
78.998409271,-7.06245899999999,-8.359073,-3.385839,0.2782466,-0.2348437,0.9191266,-12.59704,-23.63726,-26.53689
79.008318424,-6.56695499999999,-8.359073,-2.710848,0.3170254,-0.240623,0.9268922,-13.34209,-24.01348,-26.91731
79.0182271,-6.257265,-8.18431700000001,-2.219944,0.3388799,-0.2357863,0.9656152,-13.34209,-24.01348,-26.91731
79.028136253,-4.708813,-7.252285,-1.974493,0.3360802,-0.2077089,0.9639075,-13.34209,-24.01348,-26.91731
79.038045406,-5.328194,-6.20374999999999,-1.667678,0.3171658,-0.178847,0.9652351,-13.34209,-24.01348,-26.91731
79.047955036,-6.44307900000002,-5.679482,-1.729041,0.323932,-0.1709976,0.9666653,-13.34209,-24.01348,-26.91731
79.057863712,-8.42509700000002,-5.562978,-1.729041,0.3221222,-0.1943607,0.953562,-13.3496,-23.32516,-26.53396
79.067772865,-8.42509700000002,-5.85423800000001,-1.238138,0.3286195,-0.2103055,0.948594,-13.3496,-23.32516,-26.53396
79.077682018,-6.257265,-5.679482,-0.992685999999998,0.3314022,-0.2137619,0.9298192,-13.3496,-23.32516,-26.53396
79.090067863,-3.53199,-5.32997,-1.115412,0.3089649,-0.2281614,0.9184069,-13.3496,-23.32516,-26.53396
79.099977493,-2.417105,-5.446474,-0.5631457,0.3040348,-0.2189754,0.9252359,-13.3496,-23.32516,-26.53396
79.109886646,-1.364158,-3.990175,-0.4404199,0.3250346,-0.212384,0.9303674,-12.98019,-22.95053,-26.53706
79.119795799,-1.178344,-3.815419,-0.624508600000002,0.3047797,-0.2122552,0.9103889,-12.98019,-22.95053,-26.53706
79.129704475,-2.045477,-5.97074199999998,-1.422226,0.2874252,-0.2155217,0.8831586,-12.98019,-22.95053,-26.53706
79.139614105,-2.045477,-7.42704099999999,-1.606315,0.2654459,-0.2057891,0.8493356,-12.98019,-22.95053,-26.53706
79.149523258,-1.61191,-8.359073,-1.974493,0.2680764,-0.2163936,0.8550025,-12.98019,-22.95053,-26.53706
79.159432411,-2.169353,-9.81537200000001,-2.526759,0.2850108,-0.2399267,0.85757,-12.97374,-23.3233,-26.08619
79.169341087,-2.231291,-10.57265,-2.526759,0.3100202,-0.2490846,0.9014522,-12.97374,-23.3233,-26.08619
79.17925024,-2.602919,-10.68915,-2.34267,0.3459729,-0.2619132,0.9591335,-12.97374,-23.3233,-26.08619
79.18915987,-2.602919,-8.82508900000001,-0.808597299999997,0.3750204,-0.2602246,1.028019,-12.97374,-23.3233,-26.08619
79.199069023,-2.107415,-6.32025299999999,-0.1336053,0.4150617,-0.2448679,1.088251,-12.97374,-23.3233,-26.08619
79.208977699,-2.107415,-1.077577,1.216379,0.4248147,-0.2562269,1.024704,-13.71497,-24.01194,-26.5299
79.218886852,-2.417105,-1.135829,2.505,0.3443601,-0.2395774,0.8757496,-13.71497,-24.01194,-26.5299
79.228796005,-3.717804,-5.213466,1.584556,0.2634823,-0.2521592,0.7943067,-13.71497,-24.01194,-26.5299
79.238705635,-0.1253972,-8.18431700000001,1.768645,0.2113137,-0.2595655,0.8005017,-13.71497,-24.01194,-26.5299
79.248614311,4.39608,-13.95126,1.523193,0.2038431,-0.2407038,0.8093393,-13.71497,-24.01194,-26.5299
79.258523464,5.510965,-18.26191,1.155016,0.2765526,-0.2157164,0.8717341,-14.47077,-23.32342,-26.07841
79.268432617,3.7767,-17.03862,1.584556,0.3663149,-0.2039567,0.9602917,-14.47077,-23.32342,-26.07841
79.278341293,1.299178,-14.70854,0.909564100000003,0.3897379,-0.1671019,0.9987333,-14.47077,-23.32342,-26.07841
79.288250923,-0.992529999999999,-11.85419,-1.238138,0.3868536,-0.1510153,1.022395,-14.47077,-23.32342,-26.07841
79.298160076,-3.593928,-6.55326099999999,-2.465396,0.3915263,-0.1742333,1.021717,-14.47077,-23.32342,-26.07841
79.308069229,-7.37214899999997,-3.873671,-3.447202,0.369647,-0.1868878,0.9714183,-14.08486,-24.00701,-25.3073
79.317977905,-10.7168,-4.514442,-3.201751,0.3461643,-0.1864609,0.9231423,-14.08486,-24.00701,-25.3073
79.327887058,-10.53099,-7.31053700000002,-2.956299,0.3147517,-0.1939924,0.8552002,-14.08486,-24.00701,-25.3073
79.337796688,-7.12439699999997,-10.86391,-2.956299,0.2775635,-0.2183744,0.8241714,-14.08486,-24.00701,-25.3073
79.347705841,-3.84168,-13.36874,-2.34267,0.2805327,-0.2246607,0.8202608,-14.08486,-24.00701,-25.3073
79.357614517,-2.107415,-14.65028,-2.894936,0.3075982,-0.2144779,0.8488879,-14.82853,-24.38166,-25.30226
79.370000839,-2.107415,-13.48525,-3.385839,0.3521889,-0.2326472,0.8843662,-14.82853,-24.38166,-25.30226
79.379910469,-3.655866,-12.2037,-3.324476,0.3729745,-0.2395775,0.9004532,-14.82853,-24.38166,-25.30226
79.389819145,-4.399123,-12.14545,-3.263114,0.3694687,-0.2313709,0.9019808,-14.82853,-24.38166,-25.30226
79.399728298,-4.522999,-11.85419,-2.588122,0.382656,-0.216579,0.9178026,-14.82853,-24.38166,-25.30226
79.409637451,-3.84168,-12.43671,-0.992685999999998,0.3710856,-0.2063963,0.9458266,-14.83338,-24.00707,-25.30341
79.419547081,-2.602919,-13.71825,0.7868383,0.3932879,-0.1913831,0.9826934,-14.83338,-24.00707,-25.30341
79.429455757,-2.912609,-11.21342,1.216379,0.4247126,-0.1884839,0.9987476,-14.83338,-24.00707,-25.30341
79.43936491,-7.55796299999999,-5.679482,2.627725,0.4430349,-0.2198446,0.9844445,-14.83338,-24.00707,-25.30341
79.449274063,-10.34518,0.961241700000001,0.848201199999998,0.3922361,-0.1924182,0.8789821,-14.83338,-24.00707,-25.30341
79.459183216,-11.02649,0.8447377,-2.404033,0.3014585,-0.178356,0.8170146,-16.32258,-24.37838,-24.45929
79.469091892,-11.39812,-4.339687,-6.45398499999999,0.2601599,-0.2163006,0.7984176,-16.32258,-24.37838,-24.45929
79.479001522,-10.65487,-9.64061499999999,-8.04941899999998,0.2717347,-0.2496473,0.7913663,-16.32258,-24.37838,-24.45929
79.488910675,-11.08843,-14.9998,-5.349452,0.3047089,-0.2598574,0.8001162,-16.32258,-24.37838,-24.45929
79.498819828,-12.76076,-21.64052,-0.5017827,0.3793299,-0.2816892,0.8986734,-16.32258,-24.37838,-24.45929
79.508728504,-8.79672499999999,-17.9124,0.295935,0.4589277,-0.2834231,0.9339376,-16.70791,-23.63079,-24.84512
79.518637657,-6.31920200000002,-12.96098,2.136822,0.429738,-0.2790838,0.9059072,-16.70791,-23.63079,-24.84512
79.528547287,-4.275247,-10.7474,1.523193,0.3874718,-0.2670396,0.8991759,-16.70791,-23.63079,-24.84512
79.53845644,-5.266255,-11.50468,0.970926899999998,0.3592775,-0.2716989,0.909969,-16.70791,-23.63079,-24.84512
79.548365116,-5.45207,-13.60175,0.5413867,0.3725889,-0.2524523,0.9431051,-16.70791,-23.63079,-24.84512
79.558274269,-5.514008,-15.1163,0.05048341,0.4143679,-0.2179206,0.9568734,-17.06971,-24.37687,-24.06993
79.568183899,-4.399123,-13.19398,-1.238138,0.4377167,-0.207446,0.9572074,-17.06971,-24.37687,-24.06993
79.578093052,-6.56695499999999,-10.28139,-1.483589,0.440418,-0.2326477,0.952693,-17.06971,-24.37687,-24.06993
79.588001728,-5.142379,-6.90277300000003,-1.974493,0.3960922,-0.2126377,0.8975379,-17.06971,-24.37687,-24.06993
79.597910881,-5.45207,-9.05809599999998,-3.631291,0.3418365,-0.2023363,0.8640171,-17.06971,-24.37687,-24.06993
79.607820034,-7.18633500000002,-13.71825,-4.613097,0.3330935,-0.2092455,0.8616512,-17.4502,-24.00388,-24.45461
79.617729664,-7.99152999999997,-18.0289,-4.981275,0.3538889,-0.2215364,0.8724206,-17.4502,-24.00388,-24.45461
79.630115509,-7.18633500000002,-21.52402,-4.367646,0.3986997,-0.2481322,0.871829,-17.4502,-24.00388,-24.45461
79.640024662,-4.832689,-21.87353,-4.919912,0.429055,-0.2640689,0.904573,-17.4502,-24.00388,-24.45461
79.649934292,-3.098423,-21.52402,-4.981275,0.4353029,-0.2877,0.9139609,-17.82632,-23.62591,-23.61864
79.659842491,-2.850671,-20.76674,-4.919912,0.4247038,-0.2979964,0.9173514,-17.82632,-23.62591,-23.61864
79.669752121,-3.903618,-19.19394,-4.797186,0.4186687,-0.2888888,0.911706,-17.82632,-23.62591,-23.61864
79.679661274,-6.505017,-16.80561,-5.410815,0.4371324,-0.28579,0.9038734,-17.82632,-23.62591,-23.61864
79.689570427,-7.92959199999999,-13.95126,-5.533541,0.449347,-0.2924711,0.8950731,-17.82632,-23.62591,-23.61864
79.699479103,-7.37214899999997,-10.45614,-5.71763,0.4697782,-0.2932443,0.8838354,-18.88187,-24.00059,-23.61197
79.709388733,-5.514008,-7.77655300000002,-5.226727,0.4697488,-0.2878937,0.8872324,-18.88187,-24.00059,-23.61197
79.719297886,-3.84168,-5.388222,-3.999468,0.4608624,-0.2807311,0.8873622,-18.88187,-24.00059,-23.61197
79.729207039,-2.788733,-4.106679,-4.060831,0.4504142,-0.2643681,0.8890084,-18.88187,-24.00059,-23.61197
79.739115715,-2.169353,-3.116396,-4.490372,0.4391369,-0.259647,0.891545,-18.88187,-24.00059,-23.61197
79.749024868,-3.098423,-2.94164,-4.551734,0.4369949,-0.2514758,0.8829764,-18.88672,-23.626,-23.61312
79.758934498,-4.027494,-2.184364,-5.042638,0.4369565,-0.2412518,0.8912075,-18.88672,-23.626,-23.61312
79.768843651,-4.956565,-2.35912,-4.981275,0.4384139,-0.2548969,0.8742976,-18.88672,-23.626,-23.61312
79.778752327,-5.142379,-1.951357,-4.797186,0.4369231,-0.2471228,0.8810853,-18.88672,-23.626,-23.61312
79.78866148,-5.266255,-0.728065300000002,-4.429008,0.4397144,-0.2417944,0.8734125,-18.88672,-23.626,-23.61312
79.79857111,-4.584937,-0.4368055,-4.551734,0.4472695,-0.2586609,0.875151,-19.24643,-24.74981,-23.60772
79.808480263,-3.655866,1.252501,-4.67446,0.4488785,-0.2614954,0.8856806,-19.24643,-24.74981,-23.60772
79.818388939,-3.470052,1.718517,-4.24492,0.4519337,-0.2692003,0.888482,-19.24643,-24.74981,-23.60772
79.828298092,-3.346176,2.359289,-3.81538,0.4535321,-0.2769184,0.892257,-19.24643,-24.74981,-23.60772
79.838207245,-2.850671,3.87384,-4.122194,0.4546029,-0.2768579,0.9013706,-19.24643,-24.74981,-23.60772
79.848116875,-1.797725,3.757336,-3.569928,0.454581,-0.2622351,0.9163531,-18.88348,-24.00242,-24.06168
79.858025551,-0.682839699999999,5.563147,-3.140388,0.4701298,-0.2664803,0.9017763,-18.88348,-24.00242,-24.06168
79.867934704,-0.3731494,6.20391800000002,-2.035856,0.4662749,-0.2596705,0.9153017,-18.88348,-24.00242,-24.06168
79.877843857,0.0604169300000001,7.89322499999998,-1.91313,0.4579127,-0.263703,0.905749,-18.88348,-24.00242,-24.06168
79.887753487,0.9275496,9.29127200000002,-1.91313,0.4515187,-0.2667289,0.8985856,-18.88348,-24.00242,-24.06168
79.897661686,1.85662,9.46602800000001,-1.729041,0.43838,-0.2578413,0.8675561,-18.87863,-24.37702,-24.06053
79.910048485,1.732744,8.65049999999997,-1.974493,0.4327336,-0.2395115,0.8629288,-18.87863,-24.37702,-24.06053
79.919957638,1.794682,7.89322499999998,-2.526759,0.4152436,-0.2223607,0.8463993,-18.87863,-24.37702,-24.06053
79.929866314,1.23724,7.01944600000001,-2.77221,0.4131421,-0.2175829,0.8378077,-18.87863,-24.37702,-24.06053
79.939775944,0.3081691,5.679651,-2.833573,0.4063203,-0.2191198,0.8383407,-18.87863,-24.37702,-24.06053
79.949685097,-0.1873353,4.339856,-2.894936,0.4034869,-0.2361774,0.8281699,-19.24804,-24.75164,-24.05743
79.95959425,-0.868653900000002,2.592297,-2.34267,0.4052046,-0.2448091,0.8425013,-19.24804,-24.75164,-24.05743
79.969502926,-0.682839699999999,1.543761,-1.974493,0.4127847,-0.2592236,0.8495376,-19.24804,-24.75164,-24.05743
79.979412079,-0.5589636,1.194249,-1.606315,0.4178175,-0.2576244,0.8653468,-19.24804,-24.75164,-24.05743
79.989321709,-0.682839699999999,1.485509,-1.483589,0.4248561,-0.2647552,0.8757978,-19.24804,-24.75164,-24.05743
79.999230862,-0.3112114,1.951525,-0.9313231,0.4304073,-0.2738663,0.8819277,-18.12526,-24.75155,-24.06327
80.009139538,0.4320453,2.126281,-0.685871500000001,0.4281237,-0.284057,0.8857222,-18.12526,-24.75155,-24.06327
80.019048691,1.299178,2.708801,-0.4404199,0.4217609,-0.2826764,0.8867506,-18.12526,-24.75155,-24.06327
80.028958321,2.228249,2.592297,-0.2563311,0.4216175,-0.2793364,0.8766909,-18.12526,-24.75155,-24.06327
80.038867474,3.095381,2.825304,0.1732092,0.4215075,-0.2701253,0.8767533,-18.12526,-24.75155,-24.06327
80.04877615,3.590886,3.00006,0.295935,0.424349,-0.2628195,0.8762955,-18.13011,-24.37696,-24.06442
80.058685303,3.7767,3.058312,0.1118463,0.4215699,-0.2459509,0.8634693,-18.13011,-24.37696,-24.06442
80.068594456,3.46701,2.767052,0.05048341,0.4170597,-0.2445996,0.854397,-18.13011,-24.37696,-24.06442
80.078504086,2.785691,2.417541,0.357298,0.4159573,-0.2407742,0.8467502,-18.13011,-24.37696,-24.06442
80.088412762,2.166311,1.660265,0.5413867,0.4119361,-0.2394168,0.8376734,-18.13011,-24.37696,-24.06442
80.098321915,2.042435,0.5534779,0.848201199999998,0.4124596,-0.2423195,0.8376492,-17.81476,-24.7531,-24.45036
80.108231068,2.042435,-0.08729373,0.6641124,0.4062037,-0.2457614,0.843446,-17.81476,-24.7531,-24.45036
80.118140221,1.918558,-0.902821199999998,0.970926899999998,0.4043199,-0.2447728,0.8516327,-17.81476,-24.7531,-24.45036
80.128048897,1.794682,-1.660097,0.7868383,0.4087718,-0.2437154,0.8578407,-17.81476,-24.7531,-24.45036
80.137958527,1.608868,-2.067861,1.03229,0.4181153,-0.2362543,0.8717286,-17.81476,-24.7531,-24.45036
80.14786768,1.732744,-2.184364,0.970926899999998,0.4128188,-0.2377423,0.8780097,-18.50575,-24.37856,-24.44794
80.157776833,1.23724,-1.834853,0.970926899999998,0.4173971,-0.2414972,0.8909066,-18.50575,-24.37856,-24.44794
80.167686462,0.9275496,-1.601845,1.216379,0.4287518,-0.2456901,0.8965356,-18.50575,-24.37856,-24.44794
80.180072308,0.5559213,-0.611561399999997,1.216379,0.4297478,-0.2476197,0.8960333,-18.50575,-24.37856,-24.44794
80.189981461,0.5559213,0.2622181,1.339105,0.4203352,-0.2468241,0.885082,-18.50575,-24.37856,-24.44794
80.199890614,0.617859400000003,0.5534779,1.093653,0.417837,-0.2468825,0.879823,-18.87863,-24.37702,-24.06053
80.20979929,0.2462311,0.669981799999998,1.03229,0.4226487,-0.2502765,0.8682321,-18.87863,-24.37702,-24.06053
80.21970892,-0.2492733,0.786485700000002,0.909564100000003,0.4210784,-0.2498608,0.8586463,-18.87863,-24.37702,-24.06053
80.229618073,0.3081691,0.669981799999998,1.155016,0.416683,-0.2469863,0.8625473,-18.87863,-24.37702,-24.06053
80.239527226,0.7417355,0.378722,1.400467,0.4239051,-0.2425627,0.8567481,-18.87863,-24.37702,-24.06053
80.249435902,0.184293,-0.02904177,1.523193,0.4064213,-0.2549164,0.8539465,-17.81961,-24.3785,-24.45151
80.259345055,0.5559213,-1.310585,1.952734,0.4140348,-0.2688257,0.8648271,-17.81961,-24.3785,-24.45151
80.269254685,0.865611599999997,-2.242616,2.505,0.4165851,-0.2677647,0.8763344,-17.81961,-24.3785,-24.45151
80.279163837,0.865611599999997,-2.475624,2.505,0.4179069,-0.2502608,0.8826808,-17.81961,-24.3785,-24.45151
80.28907299,0.9275496,-2.35912,2.382274,0.4192626,-0.2405441,0.8832132,-17.81961,-24.3785,-24.45151
80.298981667,1.484992,-1.543593,2.014096,0.4212768,-0.2404892,0.8889568,-18.87863,-24.37702,-24.06053
80.308891296,0.803673499999997,-0.611561399999997,1.830008,0.4132244,-0.253141,0.8995105,-18.87863,-24.37702,-24.06053
80.318800449,0.5559213,-0.4368055,2.627725,0.4279624,-0.2602384,0.8978864,-18.87863,-24.37702,-24.06053
80.328709602,0.7417355,-0.2037977,2.93454,0.4413313,-0.2590106,0.9155368,-18.87863,-24.37702,-24.06053
80.338618279,1.175302,1.252501,3.057266,0.4363123,-0.2601148,0.9016513,-18.87863,-24.37702,-24.06053
80.348527432,1.608868,2.184533,2.995903,0.4289753,-0.2660616,0.8944771,-18.88348,-24.00242,-24.06168
80.358437061,2.599877,2.592297,3.36408,0.4242653,-0.2806636,0.8949035,-18.88348,-24.00242,-24.06168
80.368346214,4.024452,2.767052,4.039073,0.4339922,-0.2771537,0.8938767,-18.88348,-24.00242,-24.06168
80.378254891,4.767709,3.699084,4.775427,0.4392273,-0.2688683,0.8895621,-18.88348,-24.00242,-24.06168
80.388164044,5.263213,4.631115,5.020879,0.4173843,-0.2585771,0.869666,-18.88348,-24.00242,-24.06168
80.398073673,6.19228400000003,4.339856,4.83679,0.3947144,-0.2477317,0.8651463,-18.13011,-24.37696,-24.06442
80.407982826,6.563912,3.524328,3.732258,0.3902059,-0.2258916,0.8802184,-18.13011,-24.37696,-24.06442
80.417891502,5.387089,2.417541,2.627725,0.3894552,-0.2060339,0.8779569,-18.13011,-24.37696,-24.06442
80.427800655,2.847629,1.135997,1.830008,0.3850697,-0.1977885,0.889096,-18.13011,-24.37696,-24.06442
80.437709808,1.361116,0.0874621599999998,1.891371,0.4013206,-0.208746,0.8874322,-18.13011,-24.37696,-24.06442
80.450096607,0.0604169300000001,0.436974,2.505,0.4156202,-0.2299696,0.8741943,-18.51246,-23.62597,-23.61507
80.460005283,0.5559213,0.786485700000002,2.566363,0.4180151,-0.2584971,0.8835852,-18.51246,-23.62597,-23.61507
80.469914436,2.042435,1.252501,2.873177,0.4173188,-0.272997,0.8940586,-18.51246,-23.62597,-23.61507
80.479824066,4.210266,0.786485700000002,2.689088,0.4080456,-0.286763,0.8796479,-18.51246,-23.62597,-23.61507
80.489733219,5.75871800000001,-0.728065300000002,3.302717,0.400738,-0.2980604,0.8690767,-18.51246,-23.62597,-23.61507
80.499641895,6.31616,-3.640663,5.082242,0.3902769,-0.2880455,0.8620378,-17.81338,-24.75153,-24.06489
80.509551048,6.99747800000001,-3.2329,4.591339,0.3910363,-0.2805815,0.897132,-17.81338,-24.75153,-24.06489
80.519460201,7.49298299999998,-3.524159,4.161798,0.3867314,-0.2608351,0.8819383,-17.81338,-24.75153,-24.06489
80.529369831,7.678797,-4.397939,3.916347,0.4069136,-0.245392,0.9130648,-17.81338,-24.75153,-24.06489
80.539278507,6.68778800000003,-2.825136,4.161798,0.4316523,-0.2090853,0.9361256,-17.81338,-24.75153,-24.06489
80.54918766,5.572903,-0.2037977,3.670895,0.4530812,-0.1912993,0.94853,-18.13149,-24.37853,-24.44989
80.559096813,5.139337,2.941808,3.302717,0.4493555,-0.1754023,0.9376267,-18.13149,-24.37853,-24.44989
80.569006443,5.015461,6.02916199999998,2.320911,0.433621,-0.1741804,0.9305781,-18.13149,-24.37853,-24.44989
80.578914642,4.148328,8.24273700000001,1.216379,0.4203991,-0.1914293,0.9084981,-18.13149,-24.37853,-24.44989
80.588824272,2.166311,8.88350799999998,0.6641124,0.4057703,-0.2145191,0.8854319,-18.13149,-24.37853,-24.44989
80.598733425,1.175302,9.34952399999998,0.4186608,0.4032713,-0.2248218,0.8681008,-18.12713,-24.37356,-23.22924
80.608642578,1.980497,8.00972799999998,-0.0722423999999999,0.3853445,-0.217406,0.8452684,-18.12713,-24.37356,-23.22924
80.618551254,1.54693,6.26216999999998,0.05048341,0.3794916,-0.224789,0.8380709,-18.12713,-24.37356,-23.22924
80.628460884,1.299178,3.932092,-0.0722423999999999,0.3675303,-0.2252931,0.8631464,-18.12713,-24.37356,-23.22924
80.638370037,1.54693,2.534045,-0.624508600000002,0.3639538,-0.2185868,0.8560218,-18.12713,-24.37356,-23.22924
80.64827919,-0.3112114,0.611729900000002,-0.9313231,0.360258,-0.2163327,0.8320631,-17.81338,-24.75153,-24.06489
80.658188343,-0.620901599999999,-1.776601,-1.054049,0.3603697,-0.2418799,0.8607013,-17.81338,-24.75153,-24.06489
80.668097019,-0.4970255,-3.582412,-0.0722423999999999,0.4004082,-0.2565202,0.9332175,-17.81338,-24.75153,-24.06489
80.678006649,-0.5589636,-1.543593,1.523193,0.4629017,-0.2482198,0.9811909,-17.81338,-24.75153,-24.06489
80.687915802,-0.868653900000002,4.339856,2.689088,0.4991167,-0.2423842,0.9909781,-17.81338,-24.75153,-24.06489
80.697824955,-1.735787,10.51456,2.259548,0.4913163,-0.2541775,0.9794479,-17.81823,-24.37693,-24.06604
80.707733631,-1.054468,14.88346,1.523193,0.457848,-0.2625127,0.9484916,-17.81823,-24.37693,-24.06604
80.717642784,-0.2492733,15.58248,0.848201199999998,0.415089,-0.2724279,0.9156901,-17.81823,-24.37693,-24.06604
80.730029583,-0.806715800000002,18.02907,1.093653,0.4102476,-0.2614928,0.8855577,-17.81823,-24.37693,-24.06604
80.739938736,-0.001521119,18.32033,1.46183,0.3759403,-0.2392846,0.8562531,-17.82308,-24.00234,-24.0672
80.749847412,1.732744,14.65045,1.216379,0.3325063,-0.2278392,0.8303224,-17.82308,-24.00234,-24.0672
80.759757042,2.661815,8.88350799999998,0.295935,0.3298345,-0.2340812,0.8485516,-17.82308,-24.00234,-24.0672
80.769666195,2.723753,7.543713,0.295935,0.3519789,-0.2464151,0.8477845,-17.82308,-24.00234,-24.0672
80.779575348,2.290187,6.55343,0.6641124,0.3640465,-0.2631683,0.8605255,-17.82308,-24.00234,-24.0672
80.789484024,2.290187,6.37867499999998,1.645919,0.3700201,-0.2493811,0.8869708,-17.07109,-24.37844,-24.4554
80.799393177,2.537939,5.388391,1.768645,0.3963478,-0.2498174,0.9265776,-17.07109,-24.37844,-24.4554
80.809302807,3.095381,6.66993399999997,2.382274,0.4301549,-0.2578912,0.971346,-17.07109,-24.37844,-24.4554
80.81921196,3.962514,9.52428000000003,3.36408,0.4503528,-0.2482935,0.9971516,-17.07109,-24.37844,-24.4554
80.829120636,4.458018,12.96115,1.830008,0.4540883,-0.217365,0.9685136,-17.07109,-24.37844,-24.4554
80.839029789,3.590886,16.45626,0.357298,0.4377297,-0.2171953,0.947059,-16.69821,-24.37998,-24.84282
80.848939419,3.15732,18.49508,-0.5631457,0.398549,-0.2140642,0.8970256,-16.69821,-24.37998,-24.84282
80.858848572,4.024452,16.74752,-0.685871500000001,0.3355485,-0.2096973,0.8621056,-16.69821,-24.37998,-24.84282
80.868757725,3.343134,13.77667,-2.34267,0.3138809,-0.2149246,0.8411442,-16.69821,-24.37998,-24.84282
80.878666401,0.4320453,10.86407,-1.667678,0.2998691,-0.2437952,0.8237957,-16.69821,-24.37998,-24.84282
80.888575554,0.9275496,6.90294199999998,-0.3790569,0.309579,-0.2302897,0.8804546,-16.69821,-24.37998,-24.84282
80.898485184,0.865611599999997,6.786438,0.848201199999998,0.346908,-0.2238833,0.90416,-15.95939,-23.63073,-24.84901
80.908394337,0.5559213,7.543713,0.7868383,0.3717348,-0.2504488,0.9575311,-15.95939,-23.63073,-24.84901
80.918303013,0.2462311,10.2233,1.400467,0.4174377,-0.2670726,1.007894,-15.95939,-23.63073,-24.84901
80.928212166,0.184293,14.06793,1.400467,0.463992,-0.2742422,1.009337,-15.95939,-23.63073,-24.84901
80.938121796,3.900576,16.0485,1.891371,0.4560282,-0.2536859,0.972095,-15.95939,-23.63073,-24.84901
80.948030949,6.19228400000003,17.03878,0.295935,0.4051098,-0.2346056,0.9405224,-15.94783,-24.75792,-25.68073
80.957939625,6.68778800000003,15.64074,0.1118463,0.33217,-0.2436152,0.874395,-15.94783,-24.75792,-25.68073
80.967848778,6.44003600000003,11.38834,-0.5631457,0.300854,-0.2423159,0.8261973,-15.94783,-24.75792,-25.68073
80.977757931,4.39608,10.39806,0.5413867,0.2776572,-0.2956384,0.7905249,-15.94783,-24.75792,-25.68073
80.987667561,5.944531,7.25245400000001,2.443637,0.2874923,-0.3364536,0.8434596,-15.94783,-24.75792,-25.68073
81.000053406,11.08539,7.83497300000002,4.652701,0.4004468,-0.3825846,0.9323773,-15.58626,-24.01209,-26.52017
81.009962559,13.81066,9.58253199999999,7.41403199999999,0.4519206,-0.3369944,0.9984668,-15.58626,-24.01209,-26.52017
81.019872189,16.72175,13.25241,8.27311300000002,0.4607217,-0.2742057,1.024252,-15.58626,-24.01209,-26.52017
81.029781342,17.52695,15.11647,6.61631399999999,0.3977281,-0.2154493,1.00602,-15.58626,-24.01209,-26.52017
81.039690495,17.46501,14.4757,5.327693,0.3049216,-0.1438974,0.9089224,-14.46454,-23.69644,-25.69179
81.049599171,16.53594,13.71842,3.732258,0.2649843,-0.09359461,0.8880197,-14.46454,-23.69644,-25.69179
81.059508324,14.80167,12.90289,2.075459,0.2935866,-0.1557918,0.8863806,-14.46454,-23.69644,-25.69179
81.069417954,12.69578,12.02911,4.345887,0.3030862,-0.1906886,0.8658935,-14.46454,-23.69644,-25.69179
81.079327106,13.62485,12.61163,4.284524,0.2849714,-0.1709272,0.8868395,-14.46454,-23.69644,-25.69179
81.089235783,12.75772,11.5631,3.057266,0.2757995,-0.1597624,0.9114868,-14.08624,-24.00858,-25.69277
81.099144936,10.83764,9.52428000000003,2.505,0.2642377,-0.1307992,0.9146677,-14.08624,-24.00858,-25.69277
81.109054089,7.926549,8.70875300000002,1.645919,0.2850394,-0.09431522,0.8878294,-14.08624,-24.00858,-25.69277
81.118963718,3.900576,7.31070600000002,0.4186608,0.2860666,-0.1393949,0.8875196,-14.08624,-24.00858,-25.69277
81.128872395,3.095381,-0.02904177,7.84357299999999,0.2458464,-0.1280065,0.9364635,-14.08624,-24.00858,-25.69277
81.138781548,2.785691,4.922375,0.602749500000002,0.2394312,-0.08861334,0.881567,-13.7174,-23.69795,-26.08115
81.148690701,0.617859400000003,3.116564,-0.5631457,0.2597806,-0.1557617,0.8799712,-13.7174,-23.69795,-26.08115
81.15860033,-0.930591899999999,1.485509,-0.685871500000001,0.2708745,-0.177403,0.8874069,-13.7174,-23.69795,-26.08115
81.168509483,-1.178344,0.728233800000001,-1.544952,0.2737734,-0.1881161,0.8714635,-13.7174,-23.69795,-26.08115
81.17841816,-0.868653900000002,-1.135829,-2.097219,0.2590417,-0.189796,0.8634259,-13.7174,-23.69795,-26.08115
81.188327313,-0.1253972,-2.300868,-1.729041,0.271244,-0.1764835,0.8768461,-14.09408,-23.63738,-26.52911
81.198236466,-0.3112114,-4.572695,-0.869960200000002,0.2904436,-0.1503233,0.9200571,-14.09408,-23.63738,-26.52911
81.208146095,-1.116406,-5.32997,-2.465396,0.2543034,-0.149539,0.8776625,-14.09408,-23.63738,-26.52911
81.218054771,-1.735787,-6.90277300000003,-3.876743,0.2581324,-0.173675,0.88899,-14.09408,-23.63738,-26.52911
81.227963924,-2.479043,-6.84452100000001,-3.754017,0.2604614,-0.1929685,0.9027646,-14.09408,-23.63738,-26.52911
81.237873077,-3.470052,-6.786269,-3.263114,0.2815533,-0.196573,0.9049463,-13.33448,-24.38494,-26.14523
81.247782707,-3.965556,-6.96102499999999,-2.526759,0.2861806,-0.1949366,0.9289224,-13.33448,-24.38494,-26.14523
81.25769186,-4.027494,-5.73773399999998,-2.158581,0.2985071,-0.1771691,0.9596568,-13.33448,-24.38494,-26.14523
81.270077705,-5.575946,-4.980458,-2.219944,0.2957071,-0.1676285,0.9362185,-13.33448,-24.38494,-26.14523
81.279986858,-7.37214899999997,-4.514442,-2.649485,0.2767398,-0.1814726,0.9300597,-13.33448,-24.38494,-26.14523
81.289896488,-7.867654,-4.048427,-3.140388,0.2755396,-0.2252547,0.9048109,-13.7174,-23.69795,-26.08115
81.299805641,-6.38114099999997,-5.271718,-3.017662,0.2962843,-0.2680555,0.9225798,-13.7174,-23.69795,-26.08115
81.309714317,-3.593928,-4.922206,-2.465396,0.3150178,-0.2362842,0.9269397,-13.7174,-23.69795,-26.08115
81.31962347,-3.098423,-3.640663,-2.465396,0.3187456,-0.208526,0.9414949,-13.7174,-23.69795,-26.08115
81.3295331,-2.788733,-2.825136,-2.526759,0.3174789,-0.2025865,0.9679549,-13.7174,-23.69795,-26.08115
81.339442253,-3.408114,-2.475624,-2.158581,0.3368878,-0.1843706,0.9746189,-13.3391,-24.01008,-26.08213
81.349350929,-4.151371,-1.368837,-1.91313,0.3326171,-0.1699722,0.9565083,-13.3391,-24.01008,-26.08213
81.359260082,-5.080441,-2.300868,-1.606315,0.3276657,-0.1759193,0.9435502,-13.3391,-24.01008,-26.08213
81.369169235,-4.956565,-1.951357,-1.91313,0.3389084,-0.1991949,0.9159222,-13.3391,-24.01008,-26.08213
81.379078865,-3.779742,-1.951357,-1.544952,0.3412247,-0.2202068,0.8787887,-13.3391,-24.01008,-26.08213
81.388988018,-2.045477,-2.417372,-0.4404199,0.3329759,-0.2300339,0.8735177,-14.08762,-24.01015,-26.07824
81.398896694,-1.488034,-3.873671,-0.9313231,0.3146618,-0.2298885,0.8520809,-14.08762,-24.01015,-26.07824
81.408805847,-1.116406,-5.155214,-0.808597299999997,0.3030145,-0.2124288,0.8811144,-14.08762,-24.01015,-26.07824
81.418715,-1.61191,-4.223183,-0.992685999999998,0.3155187,-0.2087153,0.9127139,-14.08762,-24.01015,-26.07824
81.42862463,-2.293229,-4.980458,-1.790404,0.3282982,-0.2275458,0.8971053,-14.08762,-24.01015,-26.07824
81.438533783,-0.4350875,-5.096962,-0.317694,0.3450748,-0.2077464,0.9350146,-13.70851,-24.38471,-26.07903
81.448442459,-2.664857,-6.262002,-0.9313231,0.3352851,-0.2117767,0.9293163,-13.70851,-24.38471,-26.07903
81.458351612,-2.479043,-5.679482,-0.4404199,0.3326582,-0.2238489,0.9451054,-13.70851,-24.38471,-26.07903
81.468261242,-2.974547,-6.262002,-0.3790569,0.3296669,-0.2222127,0.8937671,-13.70851,-24.38471,-26.07903
81.478170395,-3.2223,-7.893057,0.5413867,0.3124833,-0.207102,0.8570544,-13.70851,-24.38471,-26.07903
81.488079071,-1.488034,-8.59207999999998,1.584556,0.2887274,-0.2087597,0.875029,-14.46939,-23.32185,-25.69294
81.497988224,-0.06345917,-9.349356,2.075459,0.2903097,-0.2177013,0.9234508,-14.46939,-23.32185,-25.69294
81.507897377,-0.992529999999999,-9.990128,2.995903,0.3118241,-0.2145049,0.9271144,-14.46939,-23.32185,-25.69294
81.517807007,-3.284238,-10.16488,3.793621,0.3359849,-0.2092219,0.9528546,-14.46939,-23.32185,-25.69294
81.527715683,-4.522999,-6.90277300000003,4.714065,0.3661987,-0.2227932,0.9745721,-14.46939,-23.32185,-25.69294
81.537624836,-5.018503,-5.388222,3.732258,0.3633245,-0.228901,0.9255819,-14.08624,-24.00858,-25.69277
81.550011635,-5.080441,-8.82508900000001,-0.317694,0.3171395,-0.2186213,0.8684584,-14.08624,-24.00858,-25.69277
81.559920788,-4.832689,-11.50468,-1.729041,0.293883,-0.2553894,0.8463413,-14.08624,-24.00858,-25.69277
81.569829941,-4.151371,-13.07748,-0.808597299999997,0.2988646,-0.2552803,0.8554189,-14.08624,-24.00858,-25.69277
81.579738617,-2.788733,-13.60175,0.357298,0.3117237,-0.2191958,0.8641833,-14.08624,-24.00858,-25.69277
81.58964777,-2.540981,-12.14545,1.46183,0.3332429,-0.1838018,0.9059939,-14.83476,-24.00863,-25.68888
81.5995574,-3.2223,-9.40760800000002,3.670895,0.3396728,-0.1710011,0.9281069,-14.83476,-24.00863,-25.68888
81.609466553,-4.832689,-8.82508900000001,2.198185,0.3996493,-0.1371634,0.9513054,-14.83476,-24.00863,-25.68888
81.619375229,-7.867654,-3.058144,0.1732092,0.4194849,-0.1592133,0.9524156,-14.83476,-24.00863,-25.68888
81.629284382,-11.58394,-3.058144,-1.2995,0.3772472,-0.1734957,0.9176595,-14.83476,-24.00863,-25.68888
81.639194012,-13.56596,-5.446474,-1.054049,0.3675723,-0.1913644,0.9546022,-15.58327,-24.00869,-25.68499
81.649103165,-13.13239,-6.20374999999999,-1.606315,0.3753772,-0.1981053,0.9448819,-15.58327,-24.00869,-25.68499
81.659012318,-13.44208,-8.00956100000003,-1.238138,0.3641095,-0.2226477,0.9140924,-15.58327,-24.00869,-25.68499
81.668920994,-11.58394,-6.32025299999999,-0.5017827,0.376088,-0.2182321,0.8952849,-15.58327,-24.00869,-25.68499
81.678830147,-10.34518,-7.36878899999998,0.2345721,0.3588947,-0.2399513,0.8621683,-15.58327,-24.00869,-25.68499
81.688739777,-8.85866299999998,-9.990128,-0.869960200000002,0.3345851,-0.2596976,0.8526584,-15.5819,-24.00713,-25.29952
81.69864893,-8.30122099999999,-12.84447,-1.790404,0.3178217,-0.2646078,0.88111,-15.5819,-24.00713,-25.29952
81.708558083,-8.30122099999999,-14.70854,-1.790404,0.3252819,-0.2590846,0.899804,-15.5819,-24.00713,-25.29952
81.718466759,-9.04447699999999,-17.03862,-3.140388,0.3619617,-0.2454505,0.9163612,-15.5819,-24.00713,-25.29952
81.728375912,-9.47804399999998,-13.13573,-1.91313,0.39594,-0.2619764,0.9202582,-15.5819,-24.00713,-25.29952
81.738285541,-9.29223000000002,-7.66004899999999,-5.656267,0.4286904,-0.2757176,0.9030584,-16.32396,-24.37995,-24.84476
81.748194694,-9.230291,-4.74745,-3.754017,0.4081739,-0.2879201,0.843147,-16.32396,-24.37995,-24.84476
81.758103371,-7.92959199999999,-7.13578099999997,-3.263114,0.3913673,-0.2933406,0.866794,-16.32396,-24.37995,-24.84476
81.768012524,-4.584937,-10.51439,-2.710848,0.3774928,-0.2667783,0.8800635,-16.32396,-24.37995,-24.84476
81.777922153,-0.06345917,-13.5435,-2.404033,0.3608339,-0.2411505,0.9067971,-16.32396,-24.37995,-24.84476
81.787831306,0.865611599999997,-16.74736,-3.140388,0.3527836,-0.2101471,0.9210026,-16.69336,-24.75458,-24.84166
81.797740459,-1.488034,-20.41723,-3.999468,0.3504906,-0.2125377,0.9330119,-16.69336,-24.75458,-24.84166
81.807649136,-4.708813,-20.76674,-4.183557,0.3825817,-0.2161299,0.9110841,-16.69336,-24.75458,-24.84166
81.820035934,-6.13338899999997,-17.03862,-3.754017,0.3983487,-0.2170953,0.8739597,-16.69336,-24.75458,-24.84166
81.829945087,-4.337185,-13.42699,-3.631291,0.394104,-0.2321912,0.8714975,-16.69336,-24.75458,-24.84166
81.83985424,-4.275247,-11.85419,-3.692654,0.3854487,-0.2468597,0.8685989,-17.07109,-24.37844,-24.4554
81.849762917,-6.13338899999997,-11.38818,-4.183557,0.4110311,-0.2618213,0.9138777,-17.07109,-24.37844,-24.4554
81.859672546,-10.15936,-9.58236400000001,-4.306283,0.4357983,-0.2618368,0.9448587,-17.07109,-24.37844,-24.4554
81.869581699,-12.38913,-9.116348,-5.042638,0.4287677,-0.259092,0.9300572,-17.07109,-24.37844,-24.4554
81.879490852,-12.38913,-10.04838,-7.12897700000001,0.4090423,-0.2308917,0.8992172,-17.07109,-24.37844,-24.4554
81.889400482,-10.2213,-13.13573,-7.86533200000002,0.3912599,-0.2487667,0.8608499,-17.82584,-24.00548,-24.83813
81.899308681,-7.37214899999997,-16.98036,-8.17214600000003,0.3962501,-0.2613361,0.8559184,-17.82584,-24.00548,-24.83813
81.909218311,-4.151371,-18.43666,-8.35623499999998,0.4096925,-0.2815334,0.8556595,-17.82584,-24.00548,-24.83813
81.919127464,-2.355167,-19.25219,-7.43579100000002,0.430499,-0.2918673,0.8698031,-17.82584,-24.00548,-24.83813
81.929036617,-1.549972,-17.85414,-6.45398499999999,0.4572364,-0.2972168,0.8959289,-17.82584,-24.00548,-24.83813
81.938946247,-1.116406,-14.47553,-5.104001,0.4758284,-0.2945392,0.9000962,-18.50761,-24.00056,-23.61391
81.948854923,-0.992529999999999,-10.57265,-4.24492,0.4647563,-0.2606914,0.9090669,-18.50761,-24.00056,-23.61391
81.958764076,-0.744777700000002,-7.252285,-3.938106,0.4485392,-0.262887,0.8986388,-18.50761,-24.00056,-23.61391
81.968673229,-1.797725,-7.48529300000001,-3.938106,0.4141878,-0.2560631,0.8946805,-18.50761,-24.00056,-23.61391
81.978582382,-1.983539,-8.41732399999999,-3.201751,0.4137252,-0.2516653,0.9023966,-18.50761,-24.00056,-23.61391
81.988491058,-2.788733,-9.52411199999999,-3.508565,0.4296187,-0.2467112,0.8845168,-18.87426,-24.37205,-22.83988
81.998400688,-3.470052,-9.75711999999999,-4.122194,0.4384921,-0.2494903,0.8882574,-18.87426,-24.37205,-22.83988
82.008309841,-3.965556,-8.999845,-4.060831,0.4496764,-0.2596256,0.8703207,-18.87426,-24.37205,-22.83988
82.018218994,-3.717804,-7.48529300000001,-3.263114,0.4513434,-0.2726738,0.8745397,-18.87426,-24.37205,-22.83988
82.028128624,-3.160362,-6.61151300000001,-2.526759,0.4571666,-0.2677454,0.8759592,-18.87426,-24.37205,-22.83988
82.0380373,-2.664857,-3.873671,-3.140388,0.4710667,-0.2762456,0.8863375,-18.87564,-24.37362,-23.22535
82.047946453,-2.788733,-2.65038,-2.588122,0.4636941,-0.2680646,0.892222,-18.87564,-24.37362,-23.22535
82.057855606,-2.788733,-1.660097,-2.219944,0.4662167,-0.2733593,0.893604,-18.87564,-24.37362,-23.22535
82.067764759,-2.479043,0.02921019,-1.667678,0.461849,-0.2694949,0.9013526,-18.87564,-24.37362,-23.22535
82.077674389,-1.61191,1.602013,-1.238138,0.464308,-0.2748227,0.8964928,-18.87564,-24.37362,-23.22535
82.090060234,-1.61191,2.825304,-1.2995,0.4645382,-0.2854347,0.9065033,-18.50276,-24.37516,-23.61276
82.099969387,-1.549972,4.631115,-1.115412,0.4649954,-0.2761768,0.9142433,-18.50276,-24.37516,-23.61276
82.109879017,-0.5589636,6.61168200000002,-0.747234399999999,0.4594648,-0.2729086,0.9032726,-18.50276,-24.37516,-23.61276
82.11978817,-0.1873353,8.767004,-1.176775,0.4622137,-0.2685778,0.8903117,-18.50276,-24.37516,-23.61276
82.129697323,0.3081691,10.1068,-0.685871500000001,0.4528696,-0.2570149,0.8986378,-19.61584,-25.12444,-23.60461
82.139605999,1.23724,11.15533,-0.01087949,0.4528785,-0.2565224,0.9000815,-19.61584,-25.12444,-23.60461
82.149515152,1.484992,11.33009,0.295935,0.4548379,-0.2613741,0.8947493,-19.61584,-25.12444,-23.60461
82.159424782,1.85662,11.44659,0.6641124,0.4389695,-0.2485146,0.8882595,-19.61584,-25.12444,-23.60461
82.169333935,1.54693,11.09708,0.602749500000002,0.433978,-0.2539947,0.8719438,-19.61584,-25.12444,-23.60461
82.179243088,2.166311,10.92233,0.602749500000002,0.4285178,-0.2570314,0.8604503,-19.99495,-24.74988,-23.60382
82.189151764,2.228249,10.2233,0.4186608,0.423532,-0.2522646,0.8566869,-19.99495,-24.74988,-23.60382
82.199061394,1.85662,9.81553900000002,0.2345721,0.4176746,-0.2518451,0.8581843,-19.99495,-24.74988,-23.60382
82.208970547,1.980497,9.23302000000001,0.295935,0.4109966,-0.2335554,0.8482847,-19.99495,-24.74988,-23.60382
82.2188797,2.228249,8.300988,-0.1949682,0.3993177,-0.2390389,0.8473958,-19.99495,-24.74988,-23.60382
82.228788376,1.980497,6.61168200000002,-0.3790569,0.3925092,-0.24252,0.8469554,-18.87863,-24.37702,-24.06053
82.238697529,1.732744,5.213635,-0.5017827,0.3903574,-0.2343538,0.8374265,-18.87863,-24.37702,-24.06053
82.248607159,1.299178,3.815588,-0.9313231,0.3934099,-0.2352309,0.847956,-18.87863,-24.37702,-24.06053
82.258516312,0.989487599999997,2.883556,-1.360863,0.394856,-0.2347356,0.8465054,-18.87863,-24.37702,-24.06053
82.268425465,0.803673499999997,2.417541,-1.176775,0.4014102,-0.2389433,0.8608215,-18.87863,-24.37702,-24.06053
82.278334141,0.4320453,2.009777,-1.2995,0.4025211,-0.2500814,0.860737,-18.49605,-25.12775,-24.44563
82.288243294,0.184293,1.485509,-1.238138,0.4060754,-0.2607018,0.8611135,-18.49605,-25.12775,-24.44563
82.298152924,0.3701072,1.252501,-1.115412,0.4130886,-0.2619922,0.875925,-18.49605,-25.12775,-24.44563
82.308062077,0.6797974,1.135997,-1.176775,0.411078,-0.2586305,0.8745255,-18.49605,-25.12775,-24.44563
82.31797123,0.865611599999997,1.369005,-1.115412,0.4199648,-0.2633539,0.8772929,-18.49605,-25.12775,-24.44563
82.327879906,1.113364,1.252501,-0.869960200000002,0.4213268,-0.2570487,0.8744413,-19.25128,-24.37522,-23.60887
82.337789536,1.113364,1.135997,-0.685871500000001,0.4140317,-0.2590713,0.8759358,-19.25128,-24.37522,-23.60887
82.347698689,1.361116,1.135997,-0.5017827,0.416415,-0.2551702,0.8744992,-19.25128,-24.37522,-23.60887
82.360085487,1.54693,1.077745,-0.5631457,0.4182551,-0.2483767,0.8711663,-19.25128,-24.37522,-23.60887
82.36999464,1.54693,1.019494,-0.624508600000002,0.4138135,-0.2416238,0.8750937,-19.25128,-24.37522,-23.60887
82.379903317,1.361116,0.611729900000002,-0.869960200000002,0.4082245,-0.2305811,0.8675364,-18.87378,-24.75161,-24.05937
82.38981247,0.865611599999997,0.1457141,-1.115412,0.4030758,-0.2224845,0.8517927,-18.87378,-24.75161,-24.05937
82.399721623,0.2462311,-1.019325,-1.176775,0.390865,-0.2284844,0.8461038,-18.87378,-24.75161,-24.05937
82.409631252,-0.1873353,-1.951357,-1.2995,0.3967972,-0.2322796,0.8479443,-18.87378,-24.75161,-24.05937
82.419540405,-0.3731494,-2.592128,-1.054049,0.4047201,-0.2311543,0.8589221,-18.87378,-24.75161,-24.05937
82.429449082,-0.682839699999999,-3.116396,-1.176775,0.4082446,-0.2388634,0.8597985,-18.18902,-24.75313,-24.44841
82.439358235,-1.054468,-3.524159,-1.115412,0.4068448,-0.2432371,0.8612228,-18.18902,-24.75313,-24.44841
82.449267387,-1.178344,-3.815419,-1.238138,0.4147351,-0.2484701,0.8615951,-18.18902,-24.75313,-24.44841
82.459177017,-1.116406,-3.931923,-1.054049,0.4198201,-0.2565999,0.8710971,-18.18902,-24.75313,-24.44841
82.46908617,-0.868653900000002,-3.815419,-0.869960200000002,0.4263423,-0.2593609,0.8839826,-18.18902,-24.75313,-24.44841
82.478994846,-0.806715800000002,-3.582412,-0.4404199,0.4386084,-0.2621128,0.8848112,-18.49952,-24.75159,-24.06132
82.488903999,-0.5589636,-3.174648,-0.1949682,0.4298414,-0.2665954,0.8829418,-18.49952,-24.75159,-24.06132
82.498813629,0.0604169300000001,-2.825136,-0.01087949,0.4283249,-0.2607859,0.8849151,-18.49952,-24.75159,-24.06132
82.508722782,0.6797974,-2.708632,0.1118463,0.4254282,-0.25934,0.8902333,-18.49952,-24.75159,-24.06132
82.518631935,1.361116,-2.417372,0.295935,0.4347647,-0.2587118,0.8954329,-18.49952,-24.75159,-24.06132
82.528540611,0.9275496,-1.543593,0.4800237,0.4395807,-0.2484449,0.9002583,-18.50437,-24.37699,-24.06247
82.538449764,0.4939833,-0.902821199999998,0.848201199999998,0.4365354,-0.2407349,0.8984172,-18.50437,-24.37699,-24.06247
82.548359394,-0.06345917,-0.5533094,1.093653,0.4350309,-0.2441874,0.8907256,-18.50437,-24.37699,-24.06247
82.558268547,-0.06345917,0.1457141,1.339105,0.4296058,-0.2476936,0.8821095,-18.50437,-24.37699,-24.06247
82.5681777,0.3701072,0.4952259,1.339105,0.4229808,-0.244986,0.8591413,-18.50437,-24.37699,-24.06247
82.578086376,0.3701072,0.728233800000001,1.155016,0.4135646,-0.2368753,0.8564014,-18.50575,-24.37856,-24.44794
82.587996006,0.184293,0.728233800000001,0.909564100000003,0.4140098,-0.2344529,0.854973,-18.50575,-24.37856,-24.44794
82.597905159,-0.3112114,-0.08729373,0.7868383,0.4080358,-0.2345818,0.8444639,-18.50575,-24.37856,-24.44794
82.607814312,-0.620901599999999,-0.902821199999998,0.970926899999998,0.4159947,-0.2397791,0.851558,-18.50575,-24.37856,-24.44794
82.617723465,-0.5589636,-2.242616,1.216379,0.4098933,-0.2553358,0.858233,-18.50575,-24.37856,-24.44794
82.627632141,-0.1253972,-2.999892,1.584556,0.4139693,-0.2625183,0.8658301,-18.50437,-24.37699,-24.06247
82.64001894,-0.1253972,-3.407655,1.707282,0.4214394,-0.2623559,0.8792064,-18.50437,-24.37699,-24.06247
82.649928093,0.0604169300000001,-3.582412,2.259548,0.432831,-0.2626271,0.8930238,-18.50437,-24.37699,-24.06247
82.659837723,0.7417355,-2.825136,2.750451,0.4409039,-0.265814,0.9135748,-18.50437,-24.37699,-24.06247
82.669746876,1.484992,-0.961073099999999,2.627725,0.4477369,-0.267686,0.910138,-18.50437,-24.37699,-24.06247
82.679655552,1.608868,1.951525,2.382274,0.4484377,-0.2556227,0.8972477,-18.18118,-25.12432,-23.61208
82.689564705,1.484992,3.990344,1.768645,0.4338533,-0.2340596,0.8831214,-18.18118,-25.12432,-23.61208
82.699473858,1.608868,4.456359,1.155016,0.4204291,-0.2211698,0.8766093,-18.18118,-25.12432,-23.61208
82.709383488,2.104373,3.699084,1.216379,0.4102235,-0.2329732,0.8689424,-18.18118,-25.12432,-23.61208
82.719292641,1.23724,2.068029,2.075459,0.4079476,-0.2499891,0.865489,-18.18118,-25.12432,-23.61208
82.729201317,0.5559213,0.669981799999998,2.443637,0.4129783,-0.2605862,0.8668124,-18.50276,-24.37516,-23.61276
82.73911047,1.175302,-0.902821199999998,3.670895,0.412258,-0.2887571,0.8589488,-18.50276,-24.37516,-23.61276
82.7490201,2.599877,-2.067861,4.714065,0.4184649,-0.306068,0.8717404,-18.50276,-24.37516,-23.61276
82.758929253,3.900576,-2.067861,5.511782,0.4230236,-0.3044672,0.8889946,-18.50276,-24.37516,-23.61276
82.768838406,5.201275,-1.660097,5.81859699999997,0.4229118,-0.2889156,0.8963016,-18.50276,-24.37516,-23.61276
82.778747082,5.201275,-0.8445692,6.06404799999999,0.42923,-0.271295,0.913166,-18.51188,-23.68866,-23.67912
82.788656235,4.643833,1.077745,6.00268599999998,0.431477,-0.2572209,0.9103581,-18.51188,-23.68866,-23.67912
82.798565865,4.334142,2.883556,5.941323,0.4219362,-0.2452725,0.8999625,-18.51188,-23.68866,-23.67912
82.808475018,3.590886,4.223351,5.389057,0.4198663,-0.2443807,0.8899043,-18.51188,-23.68866,-23.67912
82.81838417,3.343134,4.339856,5.082242,0.3992446,-0.2519994,0.8727585,-18.51188,-23.68866,-23.67912
82.828292847,3.838638,3.233068,4.591339,0.4002913,-0.2548782,0.8760908,-18.18279,-25.12615,-24.06179
82.838202476,4.210266,3.29132,4.529976,0.4150828,-0.2536551,0.8894065,-18.18279,-25.12615,-24.06179
82.848111629,3.900576,3.640832,4.959516,0.4358516,-0.2520618,0.8661775,-18.18279,-25.12615,-24.06179
82.858020782,3.838638,2.592297,5.511782,0.4282145,-0.2486482,0.8883581,-18.18279,-25.12615,-24.06179
82.867929935,4.024452,3.00006,5.389057,0.4214536,-0.2594216,0.8840274,-18.18279,-25.12615,-24.06179
82.877838612,3.7767,3.932092,5.204968,0.4175183,-0.259483,0.8816626,-18.19249,-24.37696,-24.06409
82.887748241,4.024452,5.155383,4.591339,0.3936418,-0.23072,0.8758331,-18.19249,-24.37696,-24.06409
82.897657394,4.458018,4.1651,3.425443,0.3743558,-0.2257057,0.8606797,-18.19249,-24.37696,-24.06409
82.910044193,4.70577,0.5534779,2.505,0.3862941,-0.2200871,0.8870155,-18.19249,-24.37696,-24.06409
82.919953346,4.334142,-0.902821199999998,1.830008,0.3878555,-0.2209951,0.8951576,-18.19249,-24.37696,-24.06409
82.929862022,3.343134,-1.427089,0.909564100000003,0.3773089,-0.2232198,0.8654706,-18.49791,-24.74976,-23.61161
82.939771175,2.847629,-2.126112,0.725475400000002,0.3733353,-0.2237888,0.8587813,-18.49791,-24.74976,-23.61161
82.949680328,2.290187,-3.524159,1.03229,0.397485,-0.2258286,0.8748698,-18.49791,-24.74976,-23.61161
82.959589958,0.865611599999997,-3.2329,1.830008,0.4145467,-0.2439296,0.8961985,-18.49791,-24.74976,-23.61161
82.969499111,0.9275496,-1.543593,2.505,0.4361814,-0.2475,0.9036572,-18.49791,-24.74976,-23.61161
82.979407787,1.23724,0.611729900000002,2.566363,0.4461215,-0.2399767,0.9281034,-18.19596,-24.0008,-23.67978
82.98931694,1.732744,3.932092,2.505,0.4471749,-0.2438276,0.930949,-18.19596,-24.0008,-23.67978
82.99922657,1.175302,6.08741399999999,2.689088,0.4319623,-0.2445337,0.924843,-18.19596,-24.0008,-23.67978
83.009135723,1.423054,7.42720900000003,2.136822,0.4242789,-0.2218804,0.9173823,-18.19596,-24.0008,-23.67978
83.019044876,2.661815,8.24273700000001,0.4186608,0.4043201,-0.2254999,0.9218642,-18.19596,-24.0008,-23.67978
83.028953552,0.9275496,8.00972799999998,-0.5631457,0.4041568,-0.235341,0.8944312,-17.43427,-25.12609,-24.06568
83.038862705,-1.364158,7.07769800000002,-0.1336053,0.4047454,-0.2469904,0.8905069,-17.43427,-25.12609,-24.06568
83.048772335,-1.735787,8.300988,0.725475400000002,0.4149549,-0.2346972,0.8991371,-17.43427,-25.12609,-24.06568
83.058681488,-2.107415,10.51456,1.155016,0.4205751,-0.2152402,0.8977744,-17.43427,-25.12609,-24.06568
83.068590641,-1.240282,11.09708,0.602749500000002,0.3980015,-0.2248325,0.8787129,-17.43427,-25.12609,-24.06568
83.078500271,0.184293,9.75728799999997,0.2345721,0.3901231,-0.2288616,0.8686756,-18.18902,-24.75313,-24.44841
83.088408947,1.23724,8.47574399999998,-0.1336053,0.3834282,-0.2274056,0.8850726,-18.18902,-24.75313,-24.44841
83.0983181,0.5559213,8.53399700000003,-0.869960200000002,0.3995112,-0.2450314,0.9068937,-18.18902,-24.75313,-24.44841
83.108227253,-1.178344,8.47574399999998,-0.2563311,0.4028036,-0.2511495,0.9346716,-18.18902,-24.75313,-24.44841
83.118136406,-2.169353,9.34952399999998,0.357298,0.4299943,-0.2584626,0.9550182,-18.18902,-24.75313,-24.44841
83.128046036,-1.240282,12.26212,1.03229,0.4402359,-0.2583479,0.9525235,-17.4405,-24.75307,-24.4523
83.137954712,0.3701072,14.35919,0.7868383,0.4363264,-0.2618104,0.9486953,-17.4405,-24.75307,-24.4523
83.147863865,1.732744,17.09703,0.725475400000002,0.4130125,-0.270564,0.9061186,-17.4405,-24.75307,-24.4523
83.157773018,1.113364,15.64074,0.970926899999998,0.3870355,-0.2797013,0.8894924,-17.4405,-24.75307,-24.4523
83.167682648,2.599877,13.42716,0.602749500000002,0.3731465,-0.2746099,0.8762103,-17.4405,-24.75307,-24.4523
83.18006897,3.838638,12.96115,1.46183,0.3654174,-0.2878296,0.8699517,-17.45424,-23.69172,-24.45557
83.189977646,4.767709,13.1359,2.443637,0.3594018,-0.273346,0.8725047,-17.45424,-23.69172,-24.45557
83.199886799,5.201275,12.37863,3.057266,0.3676255,-0.2391416,0.9038667,-17.45424,-23.69172,-24.45557
83.209796429,4.334142,13.95143,2.566363,0.3829922,-0.2215304,0.8971197,-17.45424,-23.69172,-24.45557
83.219705582,3.095381,13.25241,1.584556,0.3751638,-0.2313872,0.8851225,-17.07893,-24.00725,-25.29174
83.229614735,2.909567,13.60192,1.216379,0.361045,-0.2339719,0.8881168,-17.07893,-24.00725,-25.29174
83.239523411,3.652824,12.96115,1.891371,0.3615201,-0.2551882,0.9095781,-17.07893,-24.00725,-25.29174
83.249433041,3.962514,11.15533,1.891371,0.3736338,-0.2543563,0.9474042,-17.07893,-24.00725,-25.29174
83.259342194,3.281196,11.97086,0.970926899999998,0.4066825,-0.2757473,0.9503171,-17.07893,-24.00725,-25.29174
83.269251347,3.590886,12.96115,0.6641124,0.4019052,-0.2523443,0.8933784,-16.71356,-23.32046,-25.2958
83.2791605,4.519957,13.54366,-0.317694,0.3727163,-0.2477562,0.9133654,-16.71356,-23.32046,-25.2958
83.289070129,5.263213,13.48541,-1.238138,0.334898,-0.256608,0.8867673,-16.71356,-23.32046,-25.2958
83.298978806,7.74073499999998,12.14562,-0.0722423999999999,0.3152514,-0.2681183,0.8647851,-16.71356,-23.32046,-25.2958
83.308887959,7.12135500000001,9.23302000000001,0.05048341,0.3140942,-0.2845609,0.8757299,-16.71356,-23.32046,-25.2958
83.318797112,6.563912,7.07769800000002,1.891371,0.3332185,-0.2681959,0.9001501,-16.33041,-24.00719,-25.29563
83.328706741,8.79368099999997,5.73790299999999,3.241354,0.3635969,-0.2277836,0.9534359,-16.33041,-24.00719,-25.29563
83.338615894,10.52795,7.776721,2.689088,0.3896531,-0.2037314,0.9475933,-16.33041,-24.00719,-25.29563
83.348524571,9.16530999999997,10.1068,2.136822,0.3982145,-0.2093514,0.9652426,-16.33041,-24.00719,-25.29563
83.358433724,8.174301,13.19415,0.6641124,0.3719823,-0.2203244,0.9692532,-16.33041,-24.00719,-25.29563
83.368342877,6.563912,10.68932,-0.624508600000002,0.3579162,-0.2409306,0.9562818,-15.9602,-23.69499,-25.29854
83.378252506,6.19228400000003,13.89318,1.768645,0.3667701,-0.2598174,0.9392685,-15.9602,-23.69499,-25.29854
83.388161659,6.68778800000003,12.37863,3.670895,0.3333068,-0.2949793,0.8774034,-15.9602,-23.69499,-25.29854
83.398070812,9.66081399999997,11.09708,4.898153,0.3191678,-0.3239162,0.8475716,-15.9602,-23.69499,-25.29854
83.407979488,13.93454,8.94175999999999,6.06404799999999,0.3149616,-0.3567925,0.8757208,-15.9602,-23.69499,-25.29854
83.417889118,18.45602,8.70875300000002,6.06404799999999,0.3255616,-0.3408815,0.9266255,-15.20715,-24.38666,-26.52096
83.427798271,21.6768,9.81553900000002,6.73904000000002,0.3432142,-0.2347901,0.9603,-15.20715,-24.38666,-26.52096
83.437707424,21.6768,12.26212,5.81859699999997,0.3171511,-0.1420298,0.9592384,-15.20715,-24.38666,-26.52096
83.450094223,17.34113,12.20387,5.450419,0.2921841,-0.0235903,0.9520956,-15.20715,-24.38666,-26.52096
83.460002899,11.89058,12.37863,4.284524,0.2731514,-0.01039973,0.92355,-15.20715,-24.38666,-26.52096
83.469912052,7.55492100000003,10.57281,2.689088,0.2753252,-0.08611111,0.9038192,-14.84018,-23.69804,-26.07531
83.479821205,5.077399,10.74757,2.014096,0.2882553,-0.1543711,0.8926814,-14.84018,-23.69804,-26.07531
83.489730835,4.70577,9.75728799999997,1.830008,0.2932991,-0.1908151,0.8650229,-14.84018,-23.69804,-26.07531
83.499639988,4.148328,8.24273700000001,1.093653,0.2751879,-0.1891007,0.8652018,-14.84018,-23.69804,-26.07531
83.509549141,3.714762,6.20391800000002,0.4800237,0.2731386,-0.1833201,0.8628585,-14.84018,-23.69804,-26.07531
83.519457817,4.581894,4.980627,-0.5631457,0.280938,-0.1449463,0.8577603,-14.09674,-23.32365,-26.1446
83.52936697,3.962514,4.398108,-0.624508600000002,0.267203,-0.1275797,0.8738483,-14.09674,-23.32365,-26.1446
83.5392766,1.484992,1.951525,-1.2995,0.2598678,-0.08694468,0.8737066,-14.09674,-23.32365,-26.1446
83.549185753,-1.364158,0.2622181,-2.833573,0.2560415,-0.1010956,0.865485,-14.09674,-23.32365,-26.1446
83.559094906,-4.461061,-1.310585,-5.226727,0.2786148,-0.141499,0.87365,-14.09674,-23.32365,-26.1446
83.569003582,-4.956565,-1.485341,-4.613097,0.2719999,-0.172436,0.9075963,-13.71012,-24.38654,-26.52875
83.578913212,-6.38114099999997,-1.660097,-4.429008,0.2828743,-0.1839476,0.9054984,-13.71012,-24.38654,-26.52875
83.588822365,-4.770751,-6.84452100000001,-2.404033,0.2333754,-0.4092641,0.5832292,-13.71012,-24.38654,-26.52875
83.598731518,-9.29223000000002,-4.106679,-3.692654,0.2536688,-0.1262062,0.8907881,-13.71012,-24.38654,-26.52875
83.608640671,-8.42509700000002,-7.019277,-6.20853299999999,0.2509598,-0.1917314,0.8836544,-13.71012,-24.38654,-26.52875
83.618550301,-8.30122099999999,-6.96102499999999,-4.67446,0.2736256,-0.2030667,0.8872105,-13.34822,-23.32359,-26.14849
83.628458977,-7.80571600000002,-8.475576,-4.183557,0.2614922,-0.2139044,0.8834092,-13.34822,-23.32359,-26.14849
83.63836813,-7.80571600000002,-9.87362400000002,-3.692654,0.2533422,-0.2134362,0.8998131,-13.34822,-23.32359,-26.14849
83.648277283,-7.06245899999999,-10.16488,-2.956299,0.2784508,-0.2152253,0.9619895,-13.34822,-23.32359,-26.14849
83.658186912,-7.18633500000002,-8.12606399999997,-2.833573,0.3176979,-0.2205213,0.9683136,-13.34822,-23.32359,-26.14849
83.668096065,-7.000521,-6.61151300000001,-1.974493,0.3232327,-0.2393971,0.9614143,-13.34822,-23.32359,-26.14849
83.678004742,-6.00951199999997,-5.32997,-1.974493,0.317816,-0.250216,0.945067,-13.34822,-23.32359,-26.14849
83.687913895,-4.832689,-4.048427,-2.34267,0.3244638,-0.2473063,0.9291797,-13.34822,-23.32359,-26.14849
83.697823048,-3.903618,-2.300868,-2.649485,0.3245168,-0.2467909,0.9349446,-13.34822,-23.32359,-26.14849
83.707732677,-2.664857,-2.009609,-2.34267,0.3303506,-0.2369789,0.9431186,-13.34822,-23.32359,-26.14849
83.71764183,-2.107415,-1.252333,-1.054049,0.3317014,-0.2218989,0.9494487,-13.71602,-23.69638,-25.69568
83.730028629,-0.992529999999999,-1.368837,-0.5631457,0.337695,-0.216394,0.9681561,-13.71602,-23.69638,-25.69568
83.739937305,-0.5589636,-1.077577,0.05048341,0.3510106,-0.2288525,0.9645889,-13.71602,-23.69638,-25.69568
83.749846458,0.4320453,-0.4950575,0.7868383,0.336673,-0.2142385,0.9187236,-13.71602,-23.69638,-25.69568
83.759755611,-1.549972,-1.310585,-0.1949682,0.3078136,-0.2197317,0.8637357,-13.71602,-23.69638,-25.69568
83.769664764,-0.2492733,-2.65038,-0.747234399999999,0.283051,-0.2221528,0.8303375,-13.71763,-23.69821,-26.14539
83.779574394,1.794682,-3.116396,-0.808597299999997,0.2858448,-0.2182865,0.8212144,-13.71763,-23.69821,-26.14539
83.78948307,1.918558,-3.873671,-0.808597299999997,0.2887538,-0.2258191,0.8576294,-13.71763,-23.69821,-26.14539
83.799392223,1.670806,-5.446474,-0.1336053,0.306871,-0.2248431,0.9088453,-13.71763,-23.69821,-26.14539
83.809301376,1.175302,-6.20374999999999,0.05048341,0.3457101,-0.2047373,0.9527946,-13.71763,-23.69821,-26.14539
83.819211006,-0.3731494,-7.19403299999999,-0.624508600000002,0.3450262,-0.1892351,0.9519439,-13.71359,-24.01038,-26.14443
83.829120159,-0.4970255,-8.41732399999999,-0.1949682,0.3448515,-0.1788337,0.9947488,-13.71359,-24.01038,-26.14443
83.839029312,-0.06345917,-7.60179699999998,0.2345721,0.3661639,-0.203787,0.9934251,-13.71359,-24.01038,-26.14443
83.848937988,-1.426096,-6.49500899999998,-0.1336053,0.363461,-0.1890782,0.9378498,-13.71359,-24.01038,-26.14443
83.858847141,-3.965556,-4.805702,-0.0722423999999999,0.3760804,-0.2321341,0.9259225,-13.71359,-24.01038,-26.14443
83.868756771,-1.735787,-3.931923,0.725475400000002,0.3533502,-0.2371782,0.8492738,-15.58892,-23.69836,-26.13566
83.878665924,-0.868653900000002,-4.572695,0.909564100000003,0.3054667,-0.2414232,0.800232,-15.58892,-23.69836,-26.13566
83.888575077,-1.178344,-6.90277300000003,1.216379,0.2651465,-0.2322864,0.789142,-15.58892,-23.69836,-26.13566
83.898484707,0.0604169300000001,-9.69886799999998,1.645919,0.2424485,-0.2241342,0.8263783,-15.58892,-23.69836,-26.13566
83.908393383,0.184293,-13.31049,1.707282,0.2540528,-0.2328269,0.898717,-15.58892,-23.69836,-26.13566
83.918302536,-1.178344,-15.29106,2.075459,0.310918,-0.2135042,0.9352921,-14.84041,-23.6983,-26.13955
83.928211689,-4.275247,-14.65028,1.891371,0.3696697,-0.1912662,0.9685079,-14.84041,-23.6983,-26.13955
83.938120842,-6.93858300000002,-11.97069,0.357298,0.3870493,-0.1962794,0.9884804,-14.84041,-23.6983,-26.13955
83.948030472,-9.04447699999999,-10.7474,-0.01087949,0.3889692,-0.2143224,0.9638544,-14.84041,-23.6983,-26.13955
83.957939625,-8.79672499999999,-10.16488,-0.4404199,0.3849149,-0.2056651,0.9601083,-14.84041,-23.6983,-26.13955
83.967848301,-8.30122099999999,-7.019277,-0.808597299999997,0.3813255,-0.199941,0.9505765,-15.20764,-24.0071,-25.30147
83.977757454,-7.867654,-5.97074199999998,-0.2563311,0.3771662,-0.1774403,0.9051498,-15.20764,-24.0071,-25.30147
83.987667084,-6.38114099999997,-5.91249000000003,0.6641124,0.3575783,-0.1781884,0.9014847,-15.20764,-24.0071,-25.30147
84.000053406,-7.43408700000002,-7.252285,0.602749500000002,0.3034036,-0.2061331,0.8787521,-15.20764,-24.0071,-25.30147
84.009963036,-8.734787,-10.45614,-0.9313231,0.2999402,-0.1922991,0.8433445,-15.20764,-24.0071,-25.30147
84.019871235,-8.115406,-12.61147,-1.851767,0.3143791,-0.2327141,0.8688703,-15.21168,-23.69493,-25.30243
84.029780865,-7.55796299999999,-14.53378,-1.176775,0.3412537,-0.2648215,0.8770506,-15.21168,-23.69493,-25.30243
84.039690018,-7.18633500000002,-15.46581,-0.0722423999999999,0.3784728,-0.2860288,0.9053747,-15.21168,-23.69493,-25.30243
84.049599171,-6.56695499999999,-12.14545,1.584556,0.4238627,-0.2689174,0.9170728,-15.21168,-23.69493,-25.30243
84.059508801,-7.000521,-6.43675799999999,1.400467,0.4493761,-0.254895,0.9418985,-15.21168,-23.69493,-25.30243
84.069417954,-6.44307900000002,-0.611561399999997,0.970926899999998,0.4331052,-0.2363913,0.9027994,-16.33307,-23.69345,-24.91112
84.07932663,-4.956565,0.611729900000002,0.4186608,0.3704247,-0.186013,0.8576194,-16.33307,-23.69345,-24.91112
84.089235783,-3.408114,-3.640663,-0.5631457,0.3174665,-0.1757725,0.9028322,-16.33307,-23.69345,-24.91112
84.099145412,-2.417105,-6.66976500000002,-2.035856,0.3214503,-0.1773889,0.9556019,-16.33307,-23.69345,-24.91112
84.109054565,-4.522999,-8.24256899999997,-3.938106,0.339585,-0.1786033,0.9583071,-16.33307,-23.69345,-24.91112
84.118963718,-7.31021099999999,-7.71830100000001,-3.447202,0.3815745,-0.226153,0.9441575,-16.32903,-24.00562,-24.91016
84.128872871,-10.40711,-11.91244,-1.544952,0.3956409,-0.2538393,0.9006287,-16.32903,-24.00562,-24.91016
84.138781548,-8.85866299999998,-11.09692,-1.054049,0.4148268,-0.3079258,0.8962497,-16.32903,-24.00562,-24.91016
84.148691654,-6.257265,-10.39789,0.1118463,0.3832756,-0.3060128,0.8735067,-16.32903,-24.00562,-24.91016
84.15860033,-4.584937,-13.19398,0.4800237,0.3527109,-0.2614045,0.8539199,-16.32903,-24.00562,-24.91016
84.168509483,-4.275247,-16.6891,-0.317694,0.3485457,-0.2430487,0.8507195,-15.94508,-24.75478,-24.9098
84.178419113,-5.328194,-17.97065,-1.606315,0.3652295,-0.2708543,0.871507,-15.94508,-24.75478,-24.9098
84.188328266,-6.81470699999999,-15.1163,-3.263114,0.4019567,-0.3145083,0.8732773,-15.94508,-24.75478,-24.9098
84.198236942,-9.04447699999999,-9.465859,-4.060831,0.3849885,-0.3307445,0.8685245,-15.94508,-24.75478,-24.9098
84.208146095,-9.97354799999998,-8.82508900000001,-5.165364,0.3461224,-0.2886735,0.847077,-15.94508,-24.75478,-24.9098
84.218055248,-7.37214899999997,-10.86391,-6.63807300000003,0.359102,-0.2508146,0.9173122,-17.44696,-24.3803,-24.90317
84.227964878,-3.408114,-13.71825,-7.55851699999999,0.3734313,-0.2220271,0.9178516,-17.44696,-24.3803,-24.90317
84.237874031,-1.797725,-19.07743,-6.392622,0.3947121,-0.222367,0.894605,-17.44696,-24.3803,-24.90317
84.247783184,-2.231291,-21.69877,-3.999468,0.4238676,-0.2374559,0.906719,-17.44696,-24.3803,-24.90317
84.25769186,-3.779742,-19.25219,-2.097219,0.4519808,-0.2467368,0.9193614,-17.44696,-24.3803,-24.90317
84.26760149,-4.151371,-13.60175,-1.360863,0.4359858,-0.2236993,0.9124604,-17.82308,-24.00234,-24.0672
84.279987812,-3.779742,-10.86391,-3.324476,0.399731,-0.184438,0.9039342,-17.82308,-24.00234,-24.0672
84.289896965,-4.584937,-11.09692,-5.410815,0.4015801,-0.177152,0.9020451,-17.82308,-24.00234,-24.0672
84.299806595,-6.13338899999997,-11.62118,-6.69943600000001,0.40102,-0.1703659,0.9030557,-17.82308,-24.00234,-24.0672
84.309715748,-6.38114099999997,-11.67943,-6.88352500000002,0.4249899,-0.202007,0.9146272,-17.81823,-24.37693,-24.06604
84.319624424,-5.699822,-11.09692,-6.392622,0.4412079,-0.2478553,0.9165726,-17.81823,-24.37693,-24.06604
84.329533577,-5.328194,-10.39789,-6.26989599999998,0.4410148,-0.2701465,0.9193068,-17.81823,-24.37693,-24.06604
84.339443207,-6.19532599999999,-9.93187500000001,-5.84035499999998,0.4446075,-0.3070884,0.8926188,-17.81823,-24.37693,-24.06604
84.34935236,-6.00951199999997,-9.40760800000002,-5.104001,0.44949,-0.314348,0.8834022,-17.81823,-24.37693,-24.06604
84.359261513,-5.018503,-7.019277,-4.613097,0.4607895,-0.315155,0.8876138,-18.50299,-24.37542,-23.67701
84.369170666,-3.903618,-4.922206,-3.754017,0.4685218,-0.3116897,0.8827637,-18.50299,-24.37542,-23.67701
84.379079342,-2.479043,-2.126112,-3.140388,0.4725136,-0.291599,0.914071,-18.50299,-24.37542,-23.67701
84.388988972,-1.983539,-0.3203016,-1.667678,0.4562814,-0.2962416,0.8993053,-18.50299,-24.37542,-23.67701
84.398898125,-1.797725,0.786485700000002,-1.790404,0.4479493,-0.2846486,0.9109833,-18.50299,-24.37542,-23.67701
84.408807278,-2.045477,1.776769,-1.729041,0.4487614,-0.2852104,0.8941666,-18.18465,-24.74816,-23.22776
84.418716908,-1.921601,2.009777,-1.729041,0.4428634,-0.2760314,0.9019648,-18.18465,-24.74816,-23.22776
84.428626061,-2.107415,4.048596,-2.404033,0.4485165,-0.2585086,0.9015491,-18.18465,-24.74816,-23.22776
84.438534737,-2.045477,5.97091099999999,-3.263114,0.4455838,-0.2614716,0.8981954,-18.18465,-24.74816,-23.22776
84.44844389,-1.983539,6.96119399999999,-2.77221,0.4446363,-0.2673217,0.8943239,-18.18465,-24.74816,-23.22776
84.458353043,-0.682839699999999,7.25245400000001,-1.790404,0.4451007,-0.2619625,0.8981966,-19.25151,-24.37548,-23.67311
84.468262673,-0.001521119,7.66021699999997,-1.790404,0.4465922,-0.2594923,0.903481,-19.25151,-24.37548,-23.67311
84.478171826,0.5559213,8.82525600000002,-2.035856,0.4391662,-0.2596318,0.8944257,-19.25151,-24.37548,-23.67311
84.488080979,1.113364,10.1068,-1.974493,0.4364614,-0.2585738,0.9179856,-19.25151,-24.37548,-23.67311
84.497989655,0.617859400000003,10.28156,-1.2995,0.4210907,-0.2559475,0.9003794,-19.25151,-24.37548,-23.67311
84.507899284,0.4320453,10.1068,-0.5017827,0.4301173,-0.2674274,0.9088622,-18.88001,-24.37859,-24.446
84.517808437,0.3081691,10.86407,0.357298,0.4286147,-0.2664888,0.9064816,-18.88001,-24.37859,-24.446
84.52771759,0.4320453,11.21359,0.6641124,0.4260956,-0.2685093,0.8968883,-18.88001,-24.37859,-24.446
84.537626743,1.484992,10.68932,0.5413867,0.414985,-0.2751694,0.8546927,-18.88001,-24.37859,-24.446
84.550013542,3.281196,9.46602800000001,0.4186608,0.3970653,-0.2609206,0.8405486,-18.88001,-24.37859,-24.446
84.559922218,3.7767,8.53399700000003,-0.2563311,0.3889808,-0.2406667,0.8388377,-18.19734,-24.00237,-24.06525
84.569831371,3.714762,6.61168200000002,-0.747234399999999,0.3797432,-0.2263698,0.8130898,-18.19734,-24.00237,-24.06525
84.579741001,3.095381,4.456359,-1.422226,0.3782209,-0.2200755,0.8150665,-18.19734,-24.00237,-24.06525
84.589650154,2.166311,2.650548,-1.667678,0.3782667,-0.2156614,0.8246986,-18.19734,-24.00237,-24.06525
84.599559307,1.299178,1.194249,-1.667678,0.3910711,-0.2159425,0.8332212,-18.19734,-24.00237,-24.06525
84.609468937,0.6797974,-0.08729373,-1.790404,0.3917772,-0.2221648,0.8470978,-18.19548,-24.38036,-24.89927
84.61937809,-0.1873353,-0.961073099999999,-1.422226,0.4034133,-0.2408454,0.8631911,-18.19548,-24.38036,-24.89927
84.629286766,-0.3731494,-1.135829,-1.238138,0.4208477,-0.2516838,0.8816838,-18.19548,-24.38036,-24.89927
84.639195919,-0.3731494,-0.728065300000002,-0.9313231,0.4250533,-0.2627014,0.8974168,-18.19548,-24.38036,-24.89927
84.649105072,-0.1253972,0.2039661,-0.685871500000001,0.4281076,-0.2645531,0.9069794,-18.19548,-24.38036,-24.89927
84.659014702,0.6797974,0.961241700000001,-0.5017827,0.4278181,-0.2771384,0.9116997,-17.8285,-23.69175,-24.45362
84.668923855,1.732744,2.242785,-0.0722423999999999,0.4239526,-0.2698463,0.9247484,-17.8285,-23.69175,-24.45362
84.678833008,2.537939,3.058312,0.4800237,0.4255185,-0.2839227,0.9179178,-17.8285,-23.69175,-24.45362
84.688741684,3.46701,4.106848,0.848201199999998,0.4224228,-0.2728242,0.9151394,-17.8285,-23.69175,-24.45362
84.698651314,4.08639,4.864123,0.970926899999998,0.4098882,-0.2546023,0.9062538,-17.8285,-23.69175,-24.45362
84.708560467,4.519957,5.330139,1.155016,0.4080517,-0.237252,0.8905411,-18.20138,-23.69021,-24.06621
84.71846962,4.334142,5.73790299999999,1.216379,0.4005161,-0.2311071,0.8781677,-18.20138,-23.69021,-24.06621
84.728378773,3.900576,5.155383,1.400467,0.3914891,-0.2220664,0.8667876,-18.20138,-23.69021,-24.06621
84.738288402,2.971505,4.456359,1.277742,0.3932277,-0.2133745,0.8557858,-18.20138,-23.69021,-24.06621
84.748197079,2.228249,3.699084,1.277742,0.3883939,-0.2192603,0.8543507,-18.20138,-23.69021,-24.06621
84.758106232,1.732744,2.592297,0.970926899999998,0.3846295,-0.2270376,0.8596155,-18.51625,-23.69363,-24.89977
84.768015385,1.484992,2.242785,0.848201199999998,0.3886512,-0.2313216,0.8653117,-18.51625,-23.69363,-24.89977
84.777925014,1.299178,2.009777,0.4800237,0.3893609,-0.2341274,0.8835325,-18.51625,-23.69363,-24.89977
84.787834167,0.5559213,2.126281,0.5413867,0.4001876,-0.2383468,0.8853248,-18.51625,-23.69363,-24.89977
84.79774332,0.122355,2.301037,0.5413867,0.3979953,-0.2528802,0.8929308,-18.51625,-23.69363,-24.89977
84.807652473,0.3701072,2.417541,0.602749500000002,0.4036051,-0.2619607,0.9048225,-17.45909,-23.31712,-24.45673
84.820038795,0.9275496,2.475793,0.848201199999998,0.4026413,-0.2668437,0.9004773,-17.45909,-23.31712,-24.45673
84.829947948,1.794682,3.058312,0.725475400000002,0.3982993,-0.2663805,0.9067627,-17.45909,-23.31712,-24.45673
84.839857101,2.414063,3.524328,0.725475400000002,0.3952388,-0.2611173,0.900584,-17.45909,-23.31712,-24.45673
84.849766731,2.599877,3.757336,0.602749500000002,0.3936177,-0.2543866,0.8934414,-17.45909,-23.31712,-24.45673
84.859675884,2.537939,3.640832,0.4186608,0.3890782,-0.2476848,0.8877661,-18.20033,-24.00577,-24.90043
84.869585037,2.352125,3.524328,0.4800237,0.3872626,-0.2337383,0.87011,-18.20033,-24.00577,-24.90043
84.879493713,1.980497,2.708801,0.5413867,0.3820329,-0.2242204,0.8481346,-18.20033,-24.00577,-24.90043
84.889402866,1.175302,1.369005,0.1118463,0.3704966,-0.2171951,0.8281214,-18.20033,-24.00577,-24.90043
84.899312496,0.4320453,-0.2620496,-0.1949682,0.3625185,-0.2095687,0.8220039,-18.20033,-24.00577,-24.90043
84.909221649,-0.2492733,-1.660097,-0.5631457,0.3732423,-0.2084757,0.8199914,-17.81961,-24.3785,-24.45151
84.919130802,-1.116406,-3.116396,-0.624508600000002,0.3796576,-0.2117802,0.8218307,-17.81961,-24.3785,-24.45151
84.929040432,-2.045477,-4.456191,-0.5631457,0.3825766,-0.2093121,0.8232605,-17.81961,-24.3785,-24.45151
84.938949585,-2.355167,-5.446474,-0.747234399999999,0.3853268,-0.2237568,0.8361032,-17.81961,-24.3785,-24.45151
84.948858261,-1.983539,-5.97074199999998,-1.238138,0.3877453,-0.2464184,0.854656,-17.81961,-24.3785,-24.45151
84.958767414,-1.364158,-6.66976500000002,-1.422226,0.3925025,-0.2569094,0.8771096,-17.82446,-24.00391,-24.45266
84.968677044,-1.364158,-6.32025299999999,-1.483589,0.4094915,-0.2594384,0.9095863,-17.82446,-24.00391,-24.45266
84.978586197,-2.850671,-5.85423800000001,-1.422226,0.4224521,-0.2620772,0.9305758,-17.82446,-24.00391,-24.45266
84.98849535,-3.2223,-4.805702,-1.238138,0.4235585,-0.2600469,0.9454641,-17.82446,-24.00391,-24.45266
84.998404503,-2.479043,-3.174648,-0.2563311,0.4320187,-0.2613293,0.9583416,-17.82446,-24.00391,-24.45266
85.008313179,-1.61191,-1.427089,0.4186608,0.4375321,-0.2685089,0.9630443,-18.19548,-24.38036,-24.89927
85.018222809,-1.426096,0.2622181,1.03229,0.4362952,-0.2662168,0.9405037,-18.19548,-24.38036,-24.89927
85.028131962,-0.992529999999999,2.068029,1.093653,0.4268671,-0.2649415,0.9285954,-18.19548,-24.38036,-24.89927
85.038041115,-0.06345917,3.640832,1.46183,0.4208409,-0.2660731,0.9118379,-18.19548,-24.38036,-24.89927
85.047950745,1.608868,5.213635,1.523193,0.4178174,-0.2622541,0.90757,-18.19548,-24.38036,-24.89927
85.057859898,2.909567,5.504895,1.03229,0.4048415,-0.2513306,0.8947985,-18.19872,-24.00394,-24.45072
85.067769051,3.281196,5.097131,0.05048341,0.3950448,-0.2361008,0.8633001,-18.19872,-24.00394,-24.45072
85.077677727,3.838638,3.58258,-0.3790569,0.3776211,-0.2257447,0.8452842,-18.19872,-24.00394,-24.45072
85.090064526,4.891585,3.466076,0.357298,0.3898974,-0.2206863,0.856248,-18.19872,-24.00394,-24.45072
85.099973679,4.210266,3.233068,0.4186608,0.391966,-0.2288959,0.8576146,-18.19872,-24.00394,-24.45072
85.109882832,4.334142,2.009777,0.1118463,0.4014013,-0.2340699,0.8656556,-17.83011,-23.69357,-24.90334
85.119792461,3.962514,2.359289,-0.2563311,0.4109043,-0.2494526,0.8683462,-17.83011,-23.69357,-24.90334
85.129701614,4.210266,2.708801,0.05048341,0.4141981,-0.2643505,0.8859823,-17.83011,-23.69357,-24.90334
85.139610291,4.829647,2.009777,0.7868383,0.4113313,-0.2658158,0.8908007,-17.83011,-23.69357,-24.90334
85.149519444,5.449027,0.961241700000001,1.093653,0.4019569,-0.2591467,0.8904517,-17.83011,-23.69357,-24.90334
85.159428597,6.62584999999998,-0.5533094,0.909564100000003,0.3826477,-0.2782863,0.8924234,-17.44535,-24.37847,-24.45345
85.169338226,8.11236300000001,-2.475624,1.46183,0.3807226,-0.2895143,0.882283,-17.44535,-24.37847,-24.45345
85.179247379,10.03244,-4.048427,1.891371,0.3772604,-0.2783582,0.8915123,-17.44535,-24.37847,-24.45345
85.189156532,10.58988,-4.689198,2.873177,0.3787951,-0.264646,0.914157,-17.44535,-24.37847,-24.45345
85.199066162,10.58988,-5.32997,3.916347,0.3931595,-0.267787,0.928408,-17.44535,-24.37847,-24.45345
85.208974838,10.58988,-4.514442,4.223161,0.4012124,-0.2473301,0.9270293,-17.44535,-24.37847,-24.45345
85.218883991,8.79368099999997,-2.708632,3.854984,0.4001665,-0.2134797,0.9123795,-17.44535,-24.37847,-24.45345
85.228793144,6.99747800000001,-1.660097,3.118629,0.3948981,-0.1908112,0.9020159,-17.44535,-24.37847,-24.45345
85.238702297,5.82065500000003,-1.310585,2.627725,0.3767295,-0.1925412,0.8925692,-17.44535,-24.37847,-24.45345
85.248611927,4.39608,-0.902821199999998,2.443637,0.3687577,-0.193692,0.87679,-17.44535,-24.37847,-24.45345
85.25852108,3.281196,-2.184364,3.36408,0.3663357,-0.2059059,0.8647271,-17.44259,-24.37534,-23.68252
85.268430233,3.714762,-4.805702,2.995903,0.3578025,-0.2075884,0.841267,-17.44259,-24.37534,-23.68252
85.278338909,4.70577,-8.999845,1.707282,0.3624815,-0.2342177,0.8372051,-17.44259,-24.37534,-23.68252
85.288248539,4.953523,-11.79594,2.627725,0.3901884,-0.2698033,0.8271086,-17.44259,-24.37534,-23.68252
85.298157692,4.024452,-12.0872,1.400467,0.3914624,-0.2442711,0.8858462,-17.44259,-24.37534,-23.68252
85.308066845,4.953523,-9.87362400000002,1.03229,0.4025695,-0.2203001,0.900308,-17.43427,-25.12609,-24.06568
85.317976475,4.39608,-9.990128,2.382274,0.4116646,-0.2210126,0.9280683,-17.43427,-25.12609,-24.06568
85.327885628,4.024452,-7.77655300000002,3.609532,0.4399179,-0.2185133,0.9681569,-17.43427,-25.12609,-24.06568
85.337794781,3.46701,-4.980458,4.83679,0.4460132,-0.241736,0.9631442,-17.43427,-25.12609,-24.06568
85.347703457,3.15732,-2.592128,5.143605,0.4409513,-0.2355453,0.9536292,-17.43427,-25.12609,-24.06568
85.360090256,3.095381,1.194249,3.732258,0.443743,-0.2277777,0.9488534,-17.81524,-24.37354,-23.23086
85.369999409,2.785691,5.73790299999999,2.382274,0.4339835,-0.2115528,0.922163,-17.81524,-24.37354,-23.23086
85.379908562,2.042435,7.25245400000001,0.909564100000003,0.4070325,-0.2019243,0.8802224,-17.81524,-24.37354,-23.23086
85.389818192,1.54693,6.26216999999998,0.725475400000002,0.4016363,-0.1917569,0.8904234,-17.81524,-24.37354,-23.23086
85.399727345,2.599877,5.97091099999999,0.6641124,0.3837154,-0.1955576,0.8550321,-17.81524,-24.37354,-23.23086
85.409636021,2.414063,4.048596,1.093653,0.3640091,-0.2012454,0.8340495,-18.19111,-24.3754,-23.67863
85.419545174,2.847629,1.718517,1.03229,0.3539785,-0.1888157,0.8241417,-18.19111,-24.3754,-23.67863
85.429454327,3.590886,-0.4368055,0.1118463,0.3582905,-0.1810018,0.8246341,-18.19111,-24.3754,-23.67863
85.439363957,1.54693,-1.368837,-1.176775,0.3788312,-0.2087867,0.8401042,-18.19111,-24.3754,-23.67863
85.44927311,1.113364,-2.067861,-0.5631457,0.384348,-0.2332772,0.8725408,-18.19111,-24.3754,-23.67863
85.459182263,1.113364,-3.465908,-1.2995,0.4279231,-0.2334296,0.9254344,-17.812,-24.74996,-23.67942
85.469091892,0.3701072,0.1457141,-0.808597299999997,0.4621876,-0.248343,0.9591094,-17.812,-24.74996,-23.67942
85.479001045,-0.4350875,4.631115,0.05048341,0.4550875,-0.2344149,0.950625,-17.812,-24.74996,-23.67942
85.488909721,-1.488034,6.786438,0.4186608,0.4432563,-0.2209534,0.9570662,-17.812,-24.74996,-23.67942
85.498818874,-2.231291,10.63107,0.848201199999998,0.438926,-0.2214597,0.9633449,-17.812,-24.74996,-23.67942
85.508728027,-0.992529999999999,13.54366,1.584556,0.4126704,-0.2022098,0.9051367,-17.43912,-24.7515,-24.06683
85.518637657,-0.001521119,13.42716,1.155016,0.393696,-0.186062,0.8857332,-17.43912,-24.7515,-24.06683
85.52854681,-0.3731494,14.30094,0.4186608,0.3844833,-0.1900405,0.8886728,-17.43912,-24.7515,-24.06683
85.538455963,-0.4970255,13.19415,0.1118463,0.3654714,-0.1956151,0.8878512,-17.43912,-24.7515,-24.06683
85.548365593,-1.240282,10.45631,-0.0722423999999999,0.356395,-0.1890393,0.8687727,-17.43912,-24.7515,-24.06683
85.558274269,-2.912609,7.60196500000001,-0.869960200000002,0.3459045,-0.1844055,0.8525751,-17.43912,-24.7515,-24.06683
