Time (s),Gyroscope X (deg/s),Gyroscope Y (deg/s),Gyroscope Z (deg/s),Accelerometer X (g),Accelerometer Y (g),Accelerometer Z (g),Magnetometer X (uT),Magnetometer Y (uT),Magnetometer Z (uT)
14.829022884,-7.47823899999999,-9.25477200000002,-2.671887,-0.002051783,-0.1183213,0.05512634,-31.32395,-13.41006,-33.48432
14.839020729,-2.001781,-22.19359,-7.12275300000002,0.02741287,-0.1295719,0.08953536,-31.32395,-13.41006,-33.48432
14.849018097,4.582274,-33.88601,-11.57362,0.04106213,-0.1289821,0.1244475,-31.32395,-13.41006,-33.48432
14.859016418,8.45886800000002,-45.87518,-16.51225,0.0558583,-0.111208,0.1761033,-30.20787,-13.02073,-33.41351
14.869014263,11.16633,-58.7546500000002,-20.1705,0.1039244,-0.1269461,0.2109596,-30.20787,-13.02073,-33.41351
14.879011631,18.24265,-67.9542700000002,-23.52389,0.155729,-0.1600955,0.246771,-30.20787,-13.02073,-33.41351
14.889009476,20.76551,-74.2456199999999,-25.90175,0.2204392,-0.1798695,0.2825566,-30.20787,-13.02073,-33.41351
14.899006844,24.02678,-78.3409299999999,-27.91378,0.2548746,-0.1956181,0.3456726,-30.20787,-13.02073,-33.41351
14.909004688,23.22684,-83.0297699999999,-30.23067,0.2878945,-0.2402319,0.3906127,-30.59555,-12.63338,-32.25731
14.91900301,26.48811,-90.74557,-32.12077,0.3184305,-0.2825528,0.4259849,-30.59555,-12.63338,-32.25731
14.928999901,29.6263,-101.9038,-33.27921,0.3533058,-0.2959112,0.4838353,-30.59555,-12.63338,-32.25731
14.938998222,35.22582,-113.5962,-33.76698,0.3926615,-0.2882375,0.5469367,-30.59555,-12.63338,-32.25731
14.94899559,40.82535,-125.7635,-34.92542,0.4483046,-0.2920931,0.589434,-30.59555,-12.63338,-32.25731
14.958993435,45.50187,-138.4055,-35.96192,0.508517,-0.2534324,0.6481839,-33.95088,-14.15287,-29.0492
14.96899128,45.80954,-152.472,-36.32775,0.5666562,-0.2343293,0.6983282,-33.95088,-14.15287,-29.0492
14.978988647,45.50187,-162.74,-35.77901,0.6548167,-0.2568748,0.7522594,-33.95088,-14.15287,-29.0492
14.988986492,48.20934,-164.8767,-34.1328,0.783402,-0.3052003,0.7692764,-33.95088,-14.15287,-29.0492
14.99898386,56.70092,-158.1699,-32.6695,0.8300399,-0.2973748,0.7802003,-33.95088,-14.15287,-29.0492
15.008982182,59.8391200000001,-151.0476,-33.21824,0.797203,-0.2360424,0.7563129,-36.86402,-16.40909,-23.38279
15.018980026,66.8539000000002,-150.276,-35.1693,0.7214541,-0.0962274,0.6927584,-36.86402,-16.40909,-23.38279
15.028977394,67.34617,-156.8641,-37.85202,0.6748646,0.04746876,0.6186234,-36.86402,-16.40909,-23.38279
15.038975239,53.50119,-167.8443,-40.47376,0.7456324,0.09441479,0.6572525,-36.86402,-16.40909,-23.38279
15.048972607,40.45615,-175.6195,-41.44929,0.8539296,0.03636784,0.6647359,-36.86402,-16.40909,-23.38279
15.058970451,31.16463,-179.8928,-41.93706,0.8915757,-0.1278384,0.5881404,-40.20818,-19.04568,-17.33059
15.068968773,29.50323,-181.6734,-40.41279,0.9092771,-0.2931431,0.5407731,-40.20818,-19.04568,-17.33059
15.078965664,40.33308,-180.8425,-39.01046,0.9602084,-0.3588249,0.5282582,-40.20818,-19.04568,-17.33059
15.088963985,52.51666,-178.409,-36.69357,1.069001,-0.3132512,0.5471998,-40.20818,-19.04568,-17.33059
15.098961353,61.1313099999997,-172.6518,-32.60853,1.15237,-0.1585228,0.6010938,-40.20818,-19.04568,-17.33059
15.108959198,60.2083100000002,-163.6896,-28.40155,1.147144,0.01650592,0.6221152,-43.1945,-21.28167,-9.213631
15.118957043,46.8556,-155.9738,-24.68233,1.054917,0.178104,0.5849054,-43.1945,-21.28167,-9.213631
15.128954411,23.22684,-154.5494,-21.51185,0.9970855,0.2208706,0.5510163,-43.1945,-21.28167,-9.213631
15.138952255,2.674744,-155.2616,-18.82914,0.9991322,0.1619006,0.4749344,-43.1945,-21.28167,-9.213631
15.148949623,-8.52430299999999,-158.526,-18.95108,0.9951742,0.03169253,0.3270948,-43.1945,-21.28167,-9.213631
15.158947945,-15.96982,-164.5799,-19.92661,1.068376,-0.07984626,0.2470737,-44.67986,-23.51022,-1.537048
15.168945789,-18.55422,-170.5152,-21.75574,1.159159,-0.1663063,0.2143945,-44.67986,-23.51022,-1.537048
15.178943157,-18.92342,-174.3731,-24.07262,1.245908,-0.2447728,0.2142635,-44.67986,-23.51022,-1.537048
15.188941002,-13.01623,-174.5511,-25.59689,1.325836,-0.3234354,0.2074444,-44.67986,-23.51022,-1.537048
15.19893837,-3.355512,-173.0079,-24.56039,1.34952,-0.3125346,0.2322862,-44.67986,-23.51022,-1.537048
15.208936214,2.736278,-170.3965,-20.96312,1.327712,-0.2145948,0.2552707,-44.68787,-24.59027,5.69307
15.218934059,-1.017249,-167.8443,-17.73167,1.295628,-0.1144721,0.2734867,-44.68787,-24.59027,5.69307
15.228931427,-13.01623,-167.0134,-15.41478,1.255417,-0.0492267,0.2682757,-44.68787,-24.59027,5.69307
15.238929749,-18.55422,-166.5979,-13.52468,1.215282,-0.06701538,0.216664,-44.68787,-24.59027,5.69307
15.248927116,-17.75429,-164.3425,-11.08585,1.164579,-0.1191297,0.1540724,-43.56041,-26.04877,12.15955
15.258924961,-17.13896,-160.8407,-9.378671,1.144064,-0.06540782,0.1215511,-43.56041,-26.04877,12.15955
15.268922806,-21.07708,-158.5853,-9.01284600000001,1.139317,0.005287955,0.1043124,-43.56041,-26.04877,12.15955
15.278920174,-30.98393,-157.5763,-10.11032,1.194591,0.01996005,0.1013409,-43.56041,-26.04877,12.15955
15.288918018,-41.19845,-155.9145,-12.91498,1.254092,-0.03477398,0.09837976,-43.56041,-26.04877,12.15955
15.298915386,-45.87498,-151.1663,-15.65866,1.287429,-0.14853,0.1275441,-41.32077,-26.74521,17.79182
15.308913231,-39.29092,-145.231,-15.90254,1.291023,-0.2094069,0.1581824,-41.32077,-26.74521,17.79182
15.318910599,-28.09187,-138.8803,-14.62216,1.267801,-0.192363,0.1591756,-41.32077,-26.74521,17.79182
15.32890892,-19.23109,-132.9451,-13.15886,1.233189,-0.1402678,0.1386438,-41.32077,-26.74521,17.79182
15.338906765,-15.47756,-127.6627,-11.8175,1.209757,-0.08643691,0.1243135,-41.32077,-26.74521,17.79182
15.348904133,-18.36962,-122.321,-10.47614,1.186212,-0.02683833,0.1032818,-39.42264,-28.90849,22.71958
15.358901978,-25.63054,-118.1664,-9.80546599999998,1.164754,-9.780272e-05,0.098048,-39.42264,-28.90849,22.71958
15.368899822,-32.09153,-115.8516,-9.62255399999997,1.170942,-0.01856853,0.08416326,-39.42264,-28.90849,22.71958
15.37889719,-32.03,-112.5872,-9.92740700000002,1.186686,-0.07928967,0.05256542,-39.42264,-28.90849,22.71958
15.388895512,-28.1534,-109.7383,-10.59809,1.200108,-0.146545,0.002308856,-39.42264,-28.90849,22.71958
15.398892403,-23.29228,-105.1682,-10.781,1.225321,-0.192514,-0.03074501,-36.78996,-30.00262,25.97014
15.408890724,-18.24655,-100.1233,-10.72003,1.237045,-0.2207433,-0.06090847,-36.78996,-30.00262,25.97014
15.418888092,-12.7701,-95.8498799999999,-10.11032,1.241222,-0.2357908,-0.06809052,-36.78996,-30.00262,25.97014
15.428885937,-7.60130500000002,-91.69521,-9.19575899999999,1.230715,-0.2207894,-0.05228305,-36.78996,-30.00262,25.97014
15.438883782,-3.170913,-87.2437899999998,-8.15925599999997,1.213489,-0.1591739,-0.0259472,-36.78996,-30.00262,25.97014
15.448881149,-1.755648,-83.32653,-7.244694,1.193374,-0.09965575,-0.01013446,-34.96555,-31.10994,28.37618
15.458878994,-3.478579,-78.9344599999998,-6.26916200000001,1.166334,-0.06075416,-0.001961541,-34.96555,-31.10994,28.37618
15.468876362,-7.29363900000002,-74.1862600000001,-5.049747,1.140898,-0.05609118,-0.02154002,-34.96555,-31.10994,28.37618
15.478874683,-11.04717,-68.9632599999997,-4.074214,1.12797,-0.06864867,-0.0382644,-34.96555,-31.10994,28.37618
15.488872528,-12.5855,-62.5532000000002,-3.70839,1.124786,-0.1073203,-0.06217771,-34.96555,-31.10994,28.37618
15.498869896,-10.3703,-56.91472,-3.586449,1.104341,-0.1088672,-0.08080612,-33.06942,-32.59987,30.4622
15.508867741,-6.73984000000002,-51.75107,-3.830332,1.075237,-0.08998258,-0.07836737,-33.06942,-32.59987,30.4622
15.518865585,-3.663178,-46.17194,-3.464507,1.053022,-0.07497662,-0.08981834,-33.06942,-32.59987,30.4622
15.528862953,-1.755648,-41.72052,-2.610917,1.018617,-0.05982206,-0.1117768,-33.06942,-32.59987,30.4622
15.538860798,-1.201849,-37.15038,-2.549946,1.004055,-0.06313507,-0.1237149,-33.06942,-32.59987,30.4622
15.548858166,-1.817181,-31.92738,-1.879267,0.9994928,-0.07978231,-0.1275313,-31.19659,-32.94927,32.47764
15.558856487,-0.894183000000003,-26.94178,-1.147618,0.9909261,-0.09062473,-0.1255993,-31.19659,-32.94927,32.47764
15.568854332,2.120945,-22.25294,-0.3549984,0.9879476,-0.08780303,-0.1294234,-31.19659,-32.94927,32.47764
15.5788517,5.87447300000001,-17.20799,0.4376215,0.9745653,-0.07598906,-0.1370603,-31.19659,-32.94927,32.47764
15.588849545,7.35127000000003,-12.63786,1.413154,0.9708031,-0.05778184,-0.1571587,-31.19659,-32.94927,32.47764
15.598846913,7.59740300000001,-8.66124800000001,2.449656,0.9547706,-0.03499272,-0.1810654,-31.19042,-33.32636,32.86667
15.608844757,3.290077,-5.100106,3.608101,0.9587219,-0.03783907,-0.1820287,-31.19042,-33.32636,32.86667
15.618842125,-1.078783,-1.242202,5.0714,0.96705,-0.06646791,-0.195436,-31.19042,-33.32636,32.86667
15.62883997,-2.617113,2.437645,5.92499000000001,0.9794068,-0.1016931,-0.1949699,-31.19042,-33.32636,32.86667
15.638838291,0.1518819,6.71101499999999,6.10790299999999,0.9864179,-0.1117594,-0.1949795,-31.19042,-33.32636,32.86667
15.648835659,1.874812,10.50957,6.16887299999999,0.9964463,-0.1008749,-0.1954783,-30.43505,-33.69728,33.32577
15.658833504,2.059412,14.36747,5.742078,1.010718,-0.1083768,-0.1964585,-30.43505,-33.69728,33.32577
15.668831348,2.182479,17.5725,5.742078,1.013155,-0.1346923,-0.2098561,-30.43505,-33.69728,33.32577
15.678828716,4.028476,20.54012,5.98596099999998,1.018608,-0.1401054,-0.2290072,-30.43505,-33.69728,33.32577
15.688826561,6.79747099999997,23.21097,6.35178600000003,1.014325,-0.1198989,-0.2419265,-30.43505,-33.69728,33.32577
15.698823929,7.41280299999999,25.0509,6.65663900000001,1.003473,-0.08713945,-0.2495732,-30.43505,-33.69728,33.32577
15.70882225,6.24367199999998,25.94118,6.77858100000002,0.9991263,-0.08990067,-0.2763652,-30.43505,-33.69728,33.32577
15.718820095,5.93600600000003,26.77212,6.90052199999999,0.9896445,-0.1043119,-0.2907022,-30.43505,-33.69728,33.32577
15.728817463,6.36673800000001,27.24693,6.96149300000002,0.9782242,-0.09280914,-0.2835067,-30.43505,-33.69728,33.32577
15.738815308,6.12060500000003,27.30629,7.57120099999999,0.9732132,-0.08494446,-0.2629212,-30.43505,-33.69728,33.32577
15.748812675,5.81293900000002,27.60305,8.42479100000002,0.9612876,-0.07247542,-0.2552464,-31.57303,-32.94881,32.86186
15.75881052,6.98206999999997,28.25592,9.52226500000001,0.9754038,-0.0453206,-0.2390064,-31.57303,-32.94881,32.86186
15.768808365,8.27426799999999,29.32427,7.81508400000003,0.9692791,-0.003855841,-0.2083775,-31.57303,-32.94881,32.86186
15.778805733,10.1818,29.73973,6.77858100000002,0.9107447,0.0506692,-0.230304,-31.57303,-32.94881,32.86186
15.788804054,2.551678,31.22355,6.29081499999999,0.9378357,0.03513766,-0.2336973,-31.57303,-32.94881,32.86186
15.798801422,-1.694115,32.46994,6.53469799999998,0.9144735,0.007314229,-0.249921,-31.95225,-32.57781,32.08305
15.808799267,-3.663178,32.41059,6.53469799999998,0.9141071,0.001055546,-0.2427401,-31.95225,-32.57781,32.08305
15.818797111,-5.632242,33.06347,7.44925899999998,0.9077713,-0.02482015,-0.2422438,-31.95225,-32.57781,32.08305
15.828794479,-6.98597300000001,33.12282,8.36382100000002,0.894118,-0.0504115,-0.2479563,-31.95225,-32.57781,32.08305
15.838792324,-7.17057299999998,33.30088,9.88808900000002,0.8920211,-0.06839767,-0.2441194,-32.33566,-31.83353,30.46371
15.848789692,-6.61677399999998,33.59764,10.92459,0.9041502,-0.09146569,-0.2422203,-32.33566,-31.83353,30.46371
15.858787537,-5.386109,33.41958,11.65624,0.9176355,-0.08289438,-0.2374603,-32.33566,-31.83353,30.46371
15.868785858,-5.078443,33.24152,11.77818,0.9333562,-0.06357066,-0.2307926,-32.33566,-31.83353,30.46371
15.878783226,-7.60130500000002,33.47894,11.5343,0.9549066,-0.04308092,-0.215521,-32.33566,-31.83353,30.46371
15.888781071,-12.70856,33.7757,10.55877,0.9659832,-0.03603258,-0.2126707,-33.44836,-32.2294,29.61889
15.898778439,-16.70822,33.7757,9.52226500000001,0.9685008,-0.04035631,-0.2126739,-33.44836,-32.2294,29.61889
15.908776283,-19.96948,34.13181,8.668674,0.9700637,-0.04563132,-0.2083681,-33.44836,-32.2294,29.61889
15.918774128,-22.80001,34.07246,7.754113,0.9634722,-0.05791446,-0.2088321,-33.44836,-32.2294,29.61889
15.928771496,-25.19981,33.47894,6.83955100000002,0.9489619,-0.06346755,-0.200191,-33.44836,-32.2294,29.61889
15.938769817,-26.79967,32.648,6.10790299999999,0.9412534,-0.06789244,-0.1891691,-33.84132,-31.1015,28.38452
15.948766708,-28.21494,32.05448,5.0714,0.934476,-0.09621094,-0.18915,-33.84132,-31.1015,28.38452
15.95876503,-28.03034,31.10484,3.730042,0.9387659,-0.1434117,-0.2054169,-33.84132,-31.1015,28.38452
15.968762875,-25.50747,30.45196,2.69354,0.953504,-0.175661,-0.20352,-33.84132,-31.1015,28.38452
15.978760242,-20.83095,28.96815,1.1083,0.9767433,-0.1937115,-0.2083417,-33.84132,-31.1015,28.38452
15.988758087,-14.49303,27.00952,-0.720822899999998,0.9914204,-0.1968231,-0.2083664,-34.95064,-31.50392,26.7657
15.998755455,-8.46277000000003,24.63543,-2.549946,0.9928185,-0.193372,-0.2059769,-34.95064,-31.50392,26.7657
16.0087533,-3.663178,22.61745,-3.891303,1.004121,-0.1721216,-0.1916448,-34.95064,-31.50392,26.7657
16.018751621,-1.263382,20.83688,-4.988776,1.006684,-0.1524842,-0.1753827,-34.95064,-31.50392,26.7657
16.028748989,-0.709583300000001,19.35307,-5.84236700000003,1.003381,-0.1320258,-0.1629393,-34.95064,-31.50392,26.7657
16.038746834,-0.4634504,18.64084,-6.63498599999997,0.986766,-0.1294033,-0.1590824,-34.95314,-31.13391,25.53816
16.048744202,1.25948,18.22537,-6.63498599999997,0.9674342,-0.1117133,-0.1490031,-34.95314,-31.13391,25.53816
16.058742046,1.813279,17.92861,-6.26916200000001,0.9632388,-0.09567682,-0.139907,-34.95314,-31.13391,25.53816
16.068739891,1.07488,17.63185,-5.659454,0.9732125,-0.08187778,-0.1404065,-34.95314,-31.13391,25.53816
16.078737259,0.5826145,17.27574,-5.110718,0.9789384,-0.07547374,-0.1432896,-34.95314,-31.13391,25.53816
16.088735104,-0.1557842,16.68221,-4.257127,0.9657232,-0.07231571,-0.141353,-34.94358,-31.51754,25.15319
16.098732471,-0.4019172,15.73257,-3.525478,0.9465438,-0.06296702,-0.1403649,-34.94358,-31.51754,25.15319
16.108730793,-1.386449,14.54553,-2.732858,0.9329435,-0.06510931,-0.1326834,-34.94358,-31.51754,25.15319
16.118728638,-2.124848,13.47719,-1.879267,0.9250761,-0.06139914,-0.1350635,-34.94358,-31.51754,25.15319
16.128726006,-2.678647,13.06172,-1.330531,0.9359406,-0.06888938,-0.1274233,-34.94358,-31.51754,25.15319
16.13872385,-2.247914,12.88366,-1.147618,0.9492289,-0.07593351,-0.129359,-34.93822,-31.52789,23.92768
16.148721695,-0.709583300000001,12.64625,-0.964705900000002,0.9693823,-0.08527172,-0.131306,-34.93822,-31.52789,23.92768
16.158719063,1.197947,12.76496,-0.720822899999998,0.9689208,-0.08679129,-0.1370477,-34.93822,-31.52789,23.92768
16.168717384,2.551678,12.88366,-0.4769399,0.965281,-0.07477607,-0.1437445,-34.93822,-31.52789,23.92768
16.178714275,1.44408,12.5869,-0.659852100000001,0.9701994,-0.07705598,-0.1380096,-34.93822,-31.52789,23.92768
16.188712597,0.767214200000001,12.29014,-1.025677,0.95474,-0.08415581,-0.1370237,-34.93822,-31.52789,23.92768
16.198710442,1.197947,11.93402,-1.208589,0.9284561,-0.08559435,-0.1312346,-34.93822,-31.52789,23.92768
16.208707809,1.013347,10.98439,-1.147618,0.9253489,-0.1016436,-0.1259607,-34.93822,-31.52789,23.92768
16.218705654,3.105477,10.2128,-1.147618,0.9498298,-0.1080333,-0.1336589,-34.93822,-31.52789,23.92768
16.228703022,3.843876,10.45021,-0.659852100000001,0.9629864,-0.08198333,-0.12986,-34.93822,-31.52789,23.92768
16.238700867,1.628679,10.92503,-0.7817937,0.9341292,-0.0762099,-0.1269397,-34.56965,-31.14799,23.54144
16.248699188,0.0903486900000002,10.68762,-0.4769399,0.911977,-0.06386395,-0.1106327,-34.56965,-31.14799,23.54144
16.258696556,-1.571049,11.04374,0.2547093,0.8705984,-0.03978001,-0.09764518,-34.56965,-31.14799,23.54144
16.268694401,-4.770776,10.56892,1.718008,0.8400888,-0.0238213,-0.09328891,-34.56965,-31.14799,23.54144
16.278691769,-7.97050500000002,11.3405,2.998394,0.8446418,-0.006683914,-0.08899409,-34.56965,-31.14799,23.54144
16.288689613,-11.23177,12.76496,3.791013,0.8600293,0.003566073,-0.1172595,-34.92698,-31.91478,23.15571
16.298687458,-17.50816,14.13006,4.400721,0.9196851,-0.0338026,-0.1345826,-34.92698,-31.91478,23.15571
16.308684826,-23.47688,15.61387,4.217809,1.003171,-0.09445457,-0.1457198,-34.92698,-31.91478,23.15571
16.318683148,-23.53841,16.91962,2.75451,1.06133,-0.1555104,-0.1462841,-34.92698,-31.91478,23.15571
16.328680039,-17.63122,16.26675,1.047329,1.06678,-0.1858986,-0.1333642,-34.92698,-31.91478,23.15571
16.33867836,-7.17057299999998,13.89265,-0.5379106,1.049637,-0.2071065,-0.1304574,-35.30421,-31.54759,21.92539
16.348676205,5.62834,10.98439,-0.598881400000002,1.059379,-0.15487,-0.1252235,-35.30421,-31.54759,21.92539
16.358673573,12.15086,9.32251899999998,-0.964705900000002,1.016917,-0.07366377,-0.1337847,-35.30421,-31.54759,21.92539
16.368671417,11.53553,7.60130100000003,-1.086647,0.9463128,-0.02449887,-0.1312814,-35.30421,-31.54759,21.92539
16.378668785,6.55133799999999,5.345911,-1.025677,0.939136,-0.03137804,-0.1240885,-34.55304,-31.54523,21.54395
16.38866663,2.367078,4.514977,-1.086647,1.025586,-0.06810767,-0.1294941,-34.55304,-31.54523,21.54395
16.398664951,1.997879,6.71101499999999,-1.940238,1.053172,-0.08417241,-0.1391096,-34.55304,-31.54523,21.54395
16.408662319,0.3980148,9.50057699999998,-3.830332,0.9829193,-0.07970716,-0.1365954,-34.55304,-31.54523,21.54395
16.418660164,-2.247914,9.61928199999999,-3.525478,0.9071296,-0.06553159,-0.1230668,-34.55304,-31.54523,21.54395
16.428658009,-3.047846,8.076119,-2.428004,0.8628805,-0.04450336,-0.1191664,-34.1783,-31.54242,21.54673
16.438655377,-3.109379,7.36389100000001,-0.3549984,0.8353564,-0.03268902,-0.1492718,-34.1783,-31.54242,21.54673
16.448653221,-3.909311,8.49158700000002,1.718008,0.8442428,0.01167997,-0.2052921,-34.1783,-31.54242,21.54673
16.458650589,-12.9547,10.86568,2.022861,0.8780235,0.05507953,-0.2087122,-34.1783,-31.54242,21.54673
16.468648434,-27.90727,10.98439,2.144803,0.8928907,0.09454687,-0.1762051,-34.1783,-31.54242,21.54673
16.478646755,-45.81344,7.72000599999998,4.583633,0.8460928,0.122013,-0.1536375,-34.55304,-31.54523,21.54395
16.488644123,-62.0582200000003,3.031168,7.937025,0.7685034,0.07563312,-0.1688047,-34.55304,-31.54523,21.54395
16.498641968,-71.22667,-2.369897,10.98556,0.7161217,-0.01608958,-0.2017116,-34.55304,-31.54523,21.54395
16.508639336,-72.2727400000002,-7.41484800000003,13.30245,0.7202203,-0.104371,-0.1930816,-34.55304,-31.54523,21.54395
16.51863718,-64.4580200000003,-9.848295,14.88769,0.7454904,-0.1531624,-0.2160848,-34.55304,-31.54523,21.54395
16.528635025,-55.41263,-11.98498,16.04613,0.7498383,-0.09983347,-0.2390777,-33.78667,-31.9374,19.48753
16.538632393,-50.30537,-13.40944,15.55837,0.7660316,-0.00170769,-0.2247739,-33.78667,-31.9374,19.48753
16.548630715,-54.67423,-15.0713,13.60731,0.8019584,0.08300421,-0.232037,-33.78667,-31.9374,19.48753
16.558627606,-64.2118800000002,-17.02993,10.37586,0.8313711,0.09962577,-0.231614,-33.78667,-31.9374,19.48753
16.568625927,-71.1651400000002,-19.99755,7.99799599999998,0.8280051,0.04501539,-0.2445156,-33.78667,-31.9374,19.48753
16.578623772,-72.2727400000002,-24.80509,6.59566799999998,0.802997,-0.05320749,-0.3564335,-33.38496,-33.08219,18.72239
16.58862114,-64.1503400000001,-32.58025,6.16887299999999,0.7790275,-0.3117408,-0.5180839,-33.38496,-33.08219,18.72239
16.598618984,-39.10632,-43.79785,3.425189,0.7600692,-0.4981188,-0.6118038,-33.38496,-33.08219,18.72239
16.608616352,-10.0011,-56.02444,0.01082622,0.9036982,-0.6435519,-0.4593509,-33.38496,-33.08219,18.72239
16.618614197,26.11891,-58.0424200000002,-1.757326,1.09581,-0.5117199,-0.1161022,-33.38496,-33.08219,18.72239
16.628612518,53.25506,-48.8428,-4.440039,1.157676,-0.3790819,-0.04015056,-32.24751,-33.46446,17.50726
16.638609886,74.1763599999999,-54.59998,-5.415571,1.110176,-0.3949943,-0.1362575,-32.24751,-33.46446,17.50726
16.648607731,68.5768400000001,-58.0424200000002,-6.93983999999998,1.66727,0.02120543,0.1718244,-32.24751,-33.46446,17.50726
16.658605575,59.1007199999998,-56.79602,-14.25633,1.829156,0.0226534,0.4577302,-32.24751,-33.46446,17.50726
16.668602943,60.0852499999998,-51.3356,-15.23186,1.77426,0.010749,0.3377064,-32.24751,-33.46446,17.50726
16.678600788,51.10139,-48.07122,-18.52429,1.506114,0.06319457,0.06393629,-30.36092,-34.57076,19.97826
16.688598156,38.67168,-48.54604,-18.7072,1.290717,0.007005225,-0.1409829,-30.36092,-34.57076,19.97826
16.698596001,34.48742,-47.89316,-14.19536,1.182456,0.01025896,-0.1886526,-30.36092,-34.57076,19.97826
16.708594322,24.70364,-43.56044,-12.2443,1.209841,0.03286573,-0.1140483,-30.36092,-34.57076,19.97826
16.71859169,7.65893599999998,-35.19176,-8.95187600000001,1.577774,0.06094119,0.03461881,-30.36092,-34.57076,19.97826
16.728589535,26.54964,-24.21157,-11.63459,1.70694,-0.2803887,-0.05357647,-27.36754,-34.90465,22.84054
16.738586903,64.1464399999999,-15.48677,-16.87807,1.795878,-0.1957148,-0.2853841,-27.36754,-34.90465,22.84054
16.748584747,68.76144,-10.32311,-19.98759,1.506945,0.2941529,-0.3472215,-27.36754,-34.90465,22.84054
16.758582592,39.65622,-9.90764799999999,-12.91498,0.9379344,0.3102796,-0.4352489,-27.36754,-34.90465,22.84054
16.76857996,12.45853,-11.51016,-3.159653,0.742892,0.3443481,-0.3798814,-27.36754,-34.90465,22.84054
16.778578281,-13.26236,-11.56951,3.303247,0.7690943,0.2227297,-0.2918377,-26.99787,-34.89203,24.00433
16.788575172,-24.83061,-11.2134,5.254312,0.8992434,0.01452177,-0.2259675,-26.99787,-34.89203,24.00433
16.798573494,-11.72403,-9.49218100000001,5.86401899999998,0.9859853,-0.1682916,-0.2648363,-26.99787,-34.89203,24.00433
16.808571339,3.474676,-9.49218100000001,7.26634699999998,1.020624,-0.1969699,-0.2873824,-26.99787,-34.89203,24.00433
16.818568706,9.99719900000002,-8.542543,7.14440499999997,1.112341,-0.04613075,-0.2516879,-26.99787,-34.89203,24.00433
16.828566551,3.35161,-7.83031500000001,6.77858100000002,1.140483,0.03870807,-0.2283086,-25.50088,-34.87696,24.46695
16.838563919,-9.878035,-8.245782,7.14440499999997,1.115094,0.04174403,-0.2134292,-25.50088,-34.87696,24.46695
16.848561764,-18.86189,-7.83031500000001,6.71760999999998,1.047943,-0.04205772,-0.2515767,-25.50088,-34.87696,24.46695
16.858560085,-22.06161,-6.58391499999997,6.16887299999999,0.9828794,-0.1330152,-0.2796758,-25.50088,-34.87696,24.46695
16.868557453,-22.61541,-5.278163,4.583633,0.9506108,-0.2058397,-0.308794,-25.50088,-34.87696,24.46695
16.878555298,-21.20015,-7.11808599999999,4.461692,0.9578064,-0.2512006,-0.2896518,-25.50088,-34.87696,24.46695
16.888553143,-14.12383,-3.675649,2.69354,0.9804628,-0.2381316,-0.2911304,-25.50088,-34.87696,24.46695
16.89855051,-6.80137299999998,-2.310545,0.31568,0.9915913,-0.2068983,-0.2476074,-25.50088,-34.87696,24.46695
16.908548355,-2.494047,-1.123497,-2.976741,1.000019,-0.1888309,-0.2562411,-25.50088,-34.87696,24.46695
16.918545723,2.244012,0.3603118,-4.379068,1.001556,-0.1926223,-0.2490641,-25.50088,-34.87696,24.46695
16.928543568,8.15120200000001,1.369302,-5.598484,0.9940392,-0.1823652,-0.2801611,-25.50676,-34.50042,24.01342
16.938541889,11.96626,1.844121,-6.513045,1.016008,-0.1065532,-0.2739974,-25.50676,-34.50042,24.01342
16.948539257,9.99719900000002,3.090521,-7.79343099999999,1.006279,-0.05580924,-0.2835651,-25.50676,-34.50042,24.01342
16.958537102,8.028135,0.8351307,-6.20819099999998,0.9720815,-0.02394778,-0.2327846,-25.50676,-34.50042,24.01342
16.96853447,5.87447300000001,0.4196641,-7.30566500000003,0.9761645,-0.0086021,-0.2639031,-25.4989,-34.88078,24.01545
16.978532314,1.07488,0.657073599999999,-7.67149000000001,1.007927,-0.01254009,-0.2318929,-25.4989,-34.88078,24.01545
16.988530159,-2.801713,0.597721199999998,-7.42760699999997,1.016942,-0.05033905,-0.1869127,-25.4989,-34.88078,24.01545
16.998527527,-2.801713,1.666064,-7.00081100000001,1.003222,-0.07261786,-0.2021975,-25.4989,-34.88078,24.01545
17.008525848,-0.586516899999998,2.734407,-6.513045,0.9832575,-0.07433069,-0.2399698,-25.4989,-34.88078,24.01545
17.018523693,-2.92478,2.022178,-5.964308,0.9874308,-0.03668599,-0.2241937,-25.50874,-34.49661,24.46492
17.028521061,-7.47823899999999,1.191245,-5.78139599999999,0.9861501,-0.04571609,-0.1993032,-25.50874,-34.49661,24.46492
17.038518906,-8.955036,0.775778400000001,-5.90333699999997,0.9896263,-0.1010228,-0.1969022,-25.50874,-34.49661,24.46492
17.048516274,-5.816842,0.5383689,-5.476542,0.9918611,-0.1423495,-0.2040741,-25.50874,-34.49661,24.46492
17.058514118,-1.263382,-1.301555,-5.476542,0.9748427,-0.1184062,-0.2059648,-25.50874,-34.49661,24.46492
17.06851244,1.013347,-2.369897,-5.964308,0.9882299,-0.07878044,-0.2059984,-25.12247,-34.88123,23.63123
17.078509331,1.813279,-2.132488,-7.244694,0.99693,-0.07532978,-0.2194146,-25.12247,-34.88123,23.63123
17.088507652,1.197947,-2.369897,-7.18372300000002,0.985399,-0.05803299,-0.2160489,-25.12247,-34.88123,23.63123
17.09850502,1.505613,-2.844716,-7.85440200000002,0.9841222,-0.0420704,-0.2213151,-25.12247,-34.88123,23.63123
17.108502865,1.25948,-3.913059,-7.244694,0.9443506,-0.02650961,-0.2403928,-25.12247,-34.88123,23.63123
17.11850071,1.07488,-5.218811,-6.08625000000001,0.946871,0.04695245,-0.2365875,-24.74155,-35.25551,24.02304
17.128498077,-3.909311,-5.278163,-6.87886999999998,0.9780951,0.01883738,-0.2433348,-24.74155,-35.25551,24.02304
17.138495922,-6.92443900000002,-5.040754,-6.33013299999999,0.9788253,-0.04643104,-0.2615052,-24.74155,-35.25551,24.02304
17.148494244,-6.06297400000002,-4.862697,-5.720425,1.007609,-0.04834033,-0.2668191,-24.74155,-35.25551,24.02304
17.158491612,-4.524643,-3.319535,-5.964308,0.9958216,-0.06952132,-0.272536,-24.74155,-35.25551,24.02304
17.168489456,-2.986313,-2.488602,-5.78139599999999,0.9757655,-0.06485199,-0.2500092,-25.49104,-35.26114,24.01748
17.178486824,-2.863246,-1.776374,-5.78139599999999,0.9846779,-0.04608293,-0.2361509,-25.49104,-35.26114,24.01748
17.188484669,-3.663178,-0.589326100000003,-5.78139599999999,0.9889768,-0.04171664,-0.2462097,-25.49104,-35.26114,24.01748
17.198482513,-7.17057299999998,-0.05515479,-5.84236700000003,1.001985,-0.03360999,-0.2380986,-25.49104,-35.26114,24.01748
17.208479881,-10.12417,1.191245,-6.08625000000001,1.001792,-0.0491157,-0.2328299,-25.49104,-35.26114,24.01748
17.218477726,-13.20083,1.962826,-5.90333699999997,0.9585255,-0.05574574,-0.2796533,-25.1146,-35.26159,23.63326
17.228475094,-13.8777,2.259588,-6.33013299999999,0.9659178,-0.0598635,-0.2677007,-25.1146,-35.26159,23.63326
17.238473415,-12.4009,3.32793,-7.61051899999998,0.9885184,-0.09597225,-0.2796952,-25.1146,-35.26159,23.63326
17.24847126,-6.80137299999998,3.209226,-8.28119799999998,0.992695,-0.1623409,-0.2662852,-25.1146,-35.26159,23.63326
17.258468628,4.274609,2.675054,-9.98837900000002,0.9740826,-0.1830655,-0.2605045,-25.1146,-35.26159,23.63326
17.268466473,10.48946,1.666064,-11.14682,0.9666504,-0.07222471,-0.2394628,-23.96062,-36.77131,24.03671
17.278464317,8.028135,-0.2332119,-12.12236,0.9683042,-0.02877122,-0.1676904,-23.96062,-36.77131,24.03671
17.288461685,5.62834,-0.826735599999998,-12.12236,0.9760109,-0.07645616,-0.1911418,-23.96062,-36.77131,24.03671
17.298460007,8.45886800000002,-0.886087999999999,-11.45168,0.9771356,-0.05996552,-0.2500129,-23.96062,-36.77131,24.03671
17.308456898,7.843536,-1.18285,-10.65906,0.9935825,0.02372644,-0.2735133,-23.96062,-36.77131,24.03671
17.318455219,1.197947,-0.9454404,-9.86643700000001,0.9958161,0.08648334,-0.270662,-23.97465,-36.01386,23.64566
17.328453064,-5.93990799999998,-1.064145,-8.890904,0.9774501,0.07905947,-0.2457421,-23.97465,-36.01386,23.64566
17.338450432,-10.80103,-1.301555,-8.28119799999998,1.011419,0.008800668,-0.2438689,-23.97465,-36.01386,23.64566
17.348448277,-8.33970399999999,1.606712,-7.976343,1.011426,-0.07099984,-0.3084561,-23.97465,-36.01386,23.64566
17.358445644,-2.801713,0.716426,-6.63498599999997,0.9633473,-0.1310416,-0.2872995,-23.97465,-36.01386,23.64566
17.368443489,-0.1557842,0.3603118,-6.513045,0.9241108,-0.06576822,-0.2915551,-23.23303,-35.62788,23.64919
17.378441811,-0.709583300000001,-0.2925643,-8.58605100000002,0.9434069,-0.02788958,-0.2298622,-23.23303,-35.62788,23.64919
17.388439179,-3.232446,-1.657669,-9.25672899999999,0.9837463,-0.04708104,-0.1839842,-23.23303,-35.62788,23.64919
17.398437023,-3.909311,-2.785364,-9.25672899999999,0.9955383,-0.02497537,-0.13041,-23.23303,-35.62788,23.64919
17.408434868,-3.293979,-4.20982,-9.43964200000003,0.9700766,-0.04522752,-0.1643393,-23.23303,-35.62788,23.64919
17.418432236,-3.232446,-6.58391499999997,-8.890904,0.9562529,0.01620957,-0.1648096,-23.95892,-36.77457,23.64971
17.428430081,-7.90897099999997,-8.83930499999998,-8.829934,0.9789357,0.05343136,-0.1820874,-23.95892,-36.77457,23.64971
17.438427448,-13.01623,-10.38247,-7.73246000000002,0.9850314,0.03978752,-0.1993233,-23.95892,-36.77457,23.64971
17.448425293,-16.46209,-10.73858,-7.54954800000001,0.9877119,0.02667619,-0.2041103,-23.95892,-36.77457,23.64971
17.458423615,-16.76976,-9.90764799999999,-7.61051899999998,0.9805786,-0.009884987,-0.254339,-23.95892,-36.77457,23.64971
17.468420982,-14.98529,-9.67023799999998,-7.79343099999999,0.951496,-0.04471674,-0.280601,-23.19988,-37.15257,23.2703
17.478418827,-15.78522,-10.32311,-8.34216799999998,0.9593616,-0.0212966,-0.2341988,-23.19988,-37.15257,23.2703
17.488416195,-12.33936,-10.56052,-8.95187600000001,0.986681,-0.07383319,-0.1930754,-23.19988,-37.15257,23.2703
17.49841404,-6.55523999999999,-11.03534,-9.86643700000001,0.9935107,-0.07415349,-0.1897372,-23.19988,-37.15257,23.2703
17.508411884,-5.01691,-12.63786,-10.3542,0.9835216,-0.03483167,-0.1725012,-22.82345,-37.15303,22.88608
17.518409252,-4.83231,-14.24037,-11.08585,0.9688009,-0.0292298,-0.1657769,-22.82345,-37.15303,22.88608
17.528407574,-1.571049,-15.48677,-11.08585,0.964743,0.003636601,-0.2294289,-22.82345,-37.15303,22.88608
17.538405419,-5.386109,-16.13965,-11.08585,0.9635451,0.06641687,-0.2696434,-22.82345,-37.15303,22.88608
17.548402786,-10.12417,-15.84289,-11.02488,0.9825471,0.06539933,-0.3156195,-22.82345,-37.15303,22.88608
17.558400631,-11.90863,-14.59649,-10.3542,0.9590875,0.01582409,-0.3720379,-22.81728,-37.53012,23.27511
17.568397999,-13.3239,-14.24037,-9.98837900000002,0.9764829,0.0241139,-0.3534058,-22.81728,-37.53012,23.27511
17.578395844,-14.61609,-13.35009,-9.07381699999998,0.971742,0.04370792,-0.3261237,-22.81728,-37.53012,23.27511
17.588393688,-17.13896,-14.41843,-8.52507999999999,0.9740715,0.1032942,-0.2452638,-22.81728,-37.53012,23.27511
17.598391056,-19.41569,-15.42742,-8.64702100000002,0.991977,0.05948522,-0.1859403,-22.81728,-37.53012,23.27511
17.608389378,-16.40056,-16.67382,-8.098285,0.9771091,-0.004878236,-0.1777621,-21.69306,-37.52168,23.28345
17.618386745,-11.6625,-17.5641,-8.70799300000002,1.0285,-0.04269437,-0.1730561,-21.69306,-37.52168,23.28345
17.62838459,-4.401577,-17.08928,-8.76896300000003,0.9820399,-0.03627242,-0.2734778,-21.69306,-37.52168,23.28345
17.638382435,-4.340044,-18.39504,-10.04935,0.9477465,0.02440932,-0.3121983,-21.69306,-37.52168,23.28345
17.648379803,-11.90863,-18.39504,-10.11032,0.9708388,0.06615744,-0.313685,-21.69306,-37.52168,23.28345
17.658377647,-16.09289,-16.91123,-9.62255399999997,0.9898419,0.03952975,-0.3438616,-21.30428,-38.27631,23.67729
17.668375969,-18.92342,-15.78353,-9.31770000000002,0.9564348,0.05313215,-0.3782643,-21.30428,-38.27631,23.67729
17.67837286,-19.10802,-14.24037,-9.68352500000001,0.9464927,0.0628817,-0.4064855,-21.30428,-38.27631,23.67729
17.688371181,-19.10802,-12.87527,-9.43964200000003,0.9472384,0.07503181,-0.4079256,-21.30428,-38.27631,23.67729
17.698368549,-22.49235,-12.69721,-9.25672899999999,0.9721945,0.07136289,-0.3318746,-21.30428,-38.27631,23.67729
17.708366394,-23.41535,-12.40045,-8.58605100000002,1.042364,-0.006446077,-0.3305411,-20.55479,-38.27068,23.68285
17.718364239,-20.58482,-12.75656,-8.03731400000003,1.006356,0.01734135,-0.30847,-20.55479,-38.27068,23.68285
17.728361607,-22.00008,-13.23138,-8.15925599999997,0.9492097,0.1029731,-0.2796779,-20.55479,-38.27068,23.68285
17.738359451,-27.59961,-14.00296,-8.46410900000001,0.9274793,0.1186851,-0.2681582,-20.55479,-38.27068,23.68285
17.748357773,-32.46073,-14.29972,-8.890904,0.9391598,0.04089767,-0.2973517,-20.55479,-38.27068,23.68285
17.758355141,-30.86087,-13.8249,-9.68352500000001,0.9134052,-0.04153885,-0.3288716,-19.40529,-39.40659,23.31027
17.768352985,-24.52294,-13.46879,-11.26876,0.9276189,-0.04700694,-0.372924,-19.40529,-39.40659,23.31027
17.778350353,-21.07708,-12.5785,-12.79303,0.9421079,0.03789456,-0.366271,-19.40529,-39.40659,23.31027
17.788348198,-25.50747,-12.69721,-13.76857,0.956985,0.1017767,-0.3739706,-19.40529,-39.40659,23.31027
17.798346043,-33.1376,-12.69721,-13.2808,0.978703,0.1136324,-0.3467327,-19.40529,-39.40659,23.31027
17.80834341,-38.73712,-12.87527,-12.97595,0.9844508,0.09276715,-0.3558303,-19.40162,-39.41367,22.47177
17.818341732,-44.70584,-13.17203,-13.03692,0.9705794,0.05321955,-0.3462244,-19.40162,-39.41367,22.47177
17.828338623,-45.32118,-12.93462,-13.95148,0.9408538,0.02738523,-0.343773,-19.40162,-39.41367,22.47177
17.838336945,-45.56731,-12.28174,-15.17089,0.9132831,0.06801397,-0.3580927,-19.40162,-39.41367,22.47177
17.848334789,-49.13624,-12.75656,-16.02448,0.951202,0.1253999,-0.3289804,-19.40162,-39.41367,22.47177
17.858332157,-53.5051,-12.5785,-17.00002,1.027032,0.08375018,-0.3180947,-18.25042,-40.55283,21.71219
17.868330002,-53.3205,-11.0947,-17.79264,1.017371,0.05198094,-0.3702345,-18.25042,-40.55283,21.71219
17.878327846,-54.2435,-10.85729,-18.21943,1.02139,0.04585715,-0.3577969,-18.25042,-40.55283,21.71219
17.888325214,-54.2435,-9.78894299999998,-17.2439,0.9839338,0.09413581,-0.3644441,-18.25042,-40.55283,21.71219
17.898323536,-58.5508200000002,-10.91664,-16.51225,0.9701362,0.1292019,-0.326143,-18.25042,-40.55283,21.71219
17.908320904,-58.9815600000002,-11.74757,-17.73167,1.008046,0.05729652,-0.3003474,-17.85459,-41.32109,20.49352
17.918318748,-54.48963,-12.5785,-18.46332,1.021796,0.02615744,-0.2812204,-17.85459,-41.32109,20.49352
17.928316593,-51.72063,-14.65584,-18.89011,1.060578,0.03729073,-0.2635835,-17.85459,-41.32109,20.49352
17.938313961,-51.72063,-16.49576,-19.01205,1.058555,0.06749757,-0.2506662,-17.85459,-41.32109,20.49352
17.948311806,-52.27443,-18.6918,-18.76817,1.040964,0.07004812,-0.2525505,-17.85459,-41.32109,20.49352
17.958310127,-51.78217,-20.82848,-18.21943,1.03751,0.1245106,-0.2410727,-16.74278,-43.2356,18.06053
17.968307018,-52.5821,-22.66841,-18.15846,1.038281,0.2392739,-0.2339249,-16.74278,-43.2356,18.06053
17.97830534,-54.18196,-25.10185,-19.49982,1.038707,0.2684125,-0.2368046,-16.74278,-43.2356,18.06053
17.988302708,-49.0747,-26.22955,-19.31691,1.016881,0.1839431,-0.2865168,-16.74278,-43.2356,18.06053
17.998300552,-42.42912,-28.48494,-17.36584,1.006269,0.1513148,-0.3242974,-16.74278,-43.2356,18.06053
18.008298397,-42.98291,-32.10543,-13.15886,1.056354,0.1044759,-0.3468657,-16.34107,-44.38039,17.29539
18.018295765,-44.52124,-35.66658,-8.890904,1.0457,0.02235523,-0.3764977,-16.34107,-44.38039,17.29539
18.02829361,-44.27511,-42.90756,-2.428004,1.016211,-0.06743448,-0.3539301,-16.34107,-44.38039,17.29539
18.038291931,-37.32186,-46.2313,2.75451,0.9851929,-0.1811323,-0.3916543,-16.34107,-44.38039,17.29539
18.048289299,-29.8148,-50.50467,9.27838200000003,0.9333814,-0.1210106,-0.4006724,-16.34107,-44.38039,17.29539
18.058287144,-35.72199,-55.54962,17.26555,0.9134343,0.006800521,-0.4097635,-15.94891,-45.14156,16.91522
18.068284512,-50.9207,-61.4255099999999,26.59408,0.9113919,0.06282234,-0.4432746,-15.94891,-45.14156,16.91522
18.078282356,-70.2421299999997,-66.47046,35.86163,0.9026553,0.06131473,-0.4298589,-15.94891,-45.14156,16.91522
18.088280201,-83.7179100000002,-68.7851999999998,43.48298,0.9130177,-0.02435717,-0.468141,-15.94891,-45.14156,16.91522
18.098277569,-90.4250300000001,-69.14131,49.58006,0.9024065,-0.08259564,-0.490122,-15.92782,-45.91262,15.69378
18.108275414,-91.16344,-69.0226099999998,54.33577,0.8890634,-0.09905324,-0.5073233,-15.92782,-45.91262,15.69378
18.118272781,-88.5790400000001,-68.0136200000003,58.9085799999999,0.9018669,-0.08116258,-0.5446791,-15.92782,-45.91262,15.69378
18.128271103,-87.7175800000001,-65.99564,63.7862400000001,0.8927621,-0.01205021,-0.5662169,-15.92782,-45.91262,15.69378
18.138268948,-95.28616,-64.5711799999999,69.3345900000003,0.8622967,0.0791382,-0.5719302,-15.92782,-45.91262,15.69378
18.148266315,-114.9768,-60.0010499999998,75.9194300000001,0.8728822,0.193257,-0.4441982,-16.98254,-45.93422,14.07339
18.15826416,-140.39,-54.30322,82.0774800000003,0.8425577,0.2259958,-0.4120892,-16.98254,-45.93422,14.07339
18.168262005,-154.4196,-50.0892,85.3699000000002,0.7865801,0.1181616,-0.4454642,-16.98254,-45.93422,14.07339
18.178259373,-158.3577,-44.09461,88.3574600000001,0.8039661,-0.07976256,-0.3928002,-16.98254,-45.93422,14.07339
18.188257694,-141.8668,-35.36981,91.64988,0.8467075,-0.2017648,-0.3823146,-16.98254,-45.93422,14.07339
18.198254585,-117.192,-26.70437,92.4425000000001,0.8359486,-0.1481607,-0.3957098,-20.33914,-45.99058,10.37185
18.208252907,-99.1012200000003,-19.28532,92.1376499999998,0.799798,-0.01313493,-0.3779742,-20.33914,-45.99058,10.37185
18.218250752,-90.1173699999999,-12.34109,93.2960999999999,0.8184515,0.05708199,-0.3919035,-20.33914,-45.99058,10.37185
18.228248119,-87.8406399999999,-5.45622,94.0887099999998,0.8503077,0.0996471,-0.376177,-20.33914,-45.99058,10.37185
18.238245964,-85.6254399999998,1.07254,92.3205600000002,0.8674989,0.1713465,-0.3312393,-20.33914,-45.99058,10.37185
18.248244286,-85.37931,7.12648200000003,88.5403699999999,0.8525522,0.2155746,-0.2982028,-23.33898,-45.27906,7.18503
18.258241177,-84.0871100000001,12.40884,84.33339,0.8620959,0.2001121,-0.3092227,-23.33898,-45.27906,7.18503
18.268239498,-82.7949100000001,16.08869,81.2848499999998,0.8620828,0.1476424,-0.3608954,-23.33898,-45.27906,7.18503
18.278236866,-77.2569299999998,19.70918,79.6996199999998,0.8437817,0.08324522,-0.4020045,-23.33898,-45.27906,7.18503
18.288234711,-67.84234,23.09227,79.0898999999998,0.8521903,0.0494252,-0.4517823,-23.33898,-45.27906,7.18503
18.298232555,-60.33529,26.00053,79.2728199999999,0.8920576,0.1068497,-0.4226735,-26.3464,-44.18774,3.931685
18.308229923,-62.6120099999997,28.55269,79.15088,0.8878212,0.2039289,-0.3724406,-26.3464,-44.18774,3.931685
18.318227768,-70.0575299999998,29.62103,78.3582500000002,0.87216,0.3116038,-0.3609552,-26.3464,-44.18774,3.931685
18.32822609,-84.0255800000002,31.10484,74.6390400000001,0.867206,0.3679102,-0.3571325,-26.3464,-44.18774,3.931685
18.338222981,-96.0860900000001,32.11383,68.6638999999998,0.8958644,0.3464731,-0.3720128,-26.3464,-44.18774,3.931685
18.348221302,-98.3628200000001,33.24152,61.4693500000002,0.9189854,0.2570395,-0.3710729,-29.75921,-41.94453,2.281983
18.35821867,-89.6251100000003,34.54728,54.15286,0.9413693,0.1813731,-0.3509922,-29.75921,-41.94453,2.281983
18.368216515,-73.9956699999998,36.09044,47.50705,0.9844775,0.1697614,-0.3323999,-29.75921,-41.94453,2.281983
18.378214359,-55.96643,40.06705,43.48298,1.012671,0.2251728,-0.3386848,-29.75921,-41.94453,2.281983
18.388211727,-47.35178,44.16236,40.43444,0.9822999,0.3123668,-0.3032397,-29.75921,-41.94453,2.281983
18.398209572,-47.65944,46.3584,38.11755,0.9716017,0.3632407,-0.2965341,-33.1554,-40.09858,-1.365199
18.408207893,-53.38203,47.96091,37.02008,0.9612744,0.3684523,-0.2888602,-33.1554,-40.09858,-1.365199
18.418205261,-61.9966899999998,50.51307,35.67872,0.9662789,0.3090952,-0.3075181,-33.1554,-40.09858,-1.365199
18.428203106,-68.5192000000001,52.5904,32.8131,0.9695256,0.2402433,-0.2979345,-33.1554,-40.09858,-1.365199
18.438200474,-62.2428200000002,56.03283,25.06981,0.9478404,0.3809597,-0.3797694,-33.1554,-40.09858,-1.365199
18.448198319,-45.44424,47.7235,8.91255800000001,0.8885707,0.6031674,-0.4495955,-34.66357,-38.99654,-4.671922
18.458196163,-49.93617,36.03109,0.1327677,1.006628,0.4938001,-0.3894725,-34.66357,-38.99654,-4.671922
18.468193531,-42.67525,27.30629,-2.793829,0.979916,0.2821202,-0.3640069,-34.66357,-38.99654,-4.671922
18.478191853,-20.95402,23.74514,-8.15925599999997,0.9925279,0.3397124,-0.2577999,-34.66357,-38.99654,-4.671922
18.488189697,0.02881546,21.25234,-11.63459,0.9820579,0.3815353,-0.1257054,-34.66357,-38.99654,-4.671922
18.498187065,10.85866,20.12465,-14.19536,0.9347793,0.2786543,-0.1145892,-35.42789,-37.87799,-6.683077
18.50818491,13.99686,16.62286,-14.68313,0.9366621,0.1771507,-0.1652954,-35.42789,-37.87799,-6.683077
18.518182278,7.720469,12.34949,-14.01245,0.9982423,0.1406121,-0.2022437,-35.42789,-37.87799,-6.683077
18.528180122,-0.0942510000000003,9.20381500000001,-10.23226,1.061988,0.06750932,-0.2037718,-35.42789,-37.87799,-6.683077
18.538177967,-11.78556,9.02575799999998,-5.659454,1.064245,0.0245849,-0.2262577,-35.42789,-37.87799,-6.683077
18.548175335,-24.95368,8.84769999999998,-1.818297,1.05582,0.03147509,-0.2516093,-34.69075,-37.11819,-7.455576
18.558173657,-37.50646,9.38187199999997,0.4985923,1.058721,0.0324034,-0.2626218,-34.69075,-37.11819,-7.455576
18.568171501,-46.79797,10.50957,0.864416900000002,1.04229,-0.0002775362,-0.2405703,-34.69075,-37.11819,-7.455576
18.578168869,-44.89045,11.2218,-0.4769399,1.026407,-0.06286205,-0.2481837,-34.69075,-37.11819,-7.455576
18.588166714,-32.953,12.82431,-2.732858,0.9732862,-0.08883055,-0.2629203,-34.69075,-37.11819,-7.455576
18.598164082,-18.12349,12.88366,-5.110718,0.948142,-0.0733088,-0.2647948,-35.05227,-37.51171,-8.681833
18.608161926,-3.786245,12.23079,-7.244694,0.9669265,-0.009791592,-0.2677153,-35.05227,-37.51171,-8.681833
18.618160248,5.197607,11.99338,-8.58605100000002,0.9697349,0.07364845,-0.2892776,-35.05227,-37.51171,-8.681833
18.628157139,7.28973700000001,11.51856,-8.95187600000001,0.9686755,0.1556069,-0.3050899,-35.05227,-37.51171,-8.681833
18.63815546,2.920877,9.97539500000001,-7.85440200000002,0.9515328,0.2121058,-0.3069889,-34.666,-37.89634,-9.51553
18.648153305,-5.93990799999998,8.254177,-6.75692799999998,0.9428194,0.2354212,-0.2892723,-34.666,-37.89634,-9.51553
18.658150673,-15.60063,5.108501,-4.988776,0.9373481,0.1897486,-0.2768081,-34.666,-37.89634,-9.51553
18.668148518,-18.36962,2.140883,-2.06218,0.9786643,0.1193649,-0.1983755,-34.666,-37.89634,-9.51553
18.678145885,-15.10836,-0.2332119,-2.488975,0.9630908,0.06666327,-0.1887633,-34.666,-37.89634,-9.51553
18.68814373,-11.2933,-3.972411,-2.976741,0.9860551,0.03827192,-0.1548171,-34.67217,-37.51925,-9.904558
18.698142052,-7.41670600000002,-6.70261999999998,-3.464507,0.9985108,0.02407135,-0.1404779,-34.67217,-37.51925,-9.904558
18.708139419,-4.401577,-10.26376,-3.952273,1.0103,0.01967294,-0.1156113,-34.67217,-37.51925,-9.904558
18.718137264,-4.709243,-16.25835,-3.952273,1.002924,-0.002891894,-0.1227713,-34.67217,-37.51925,-9.904558
18.728135109,-1.755648,-22.5497,-3.220624,1.021942,-0.05469957,-0.09024795,-34.67217,-37.51925,-9.904558
18.738132477,5.566806,-29.55328,-4.318098,1.025909,-0.1106317,-0.1041192,-34.29742,-37.51644,-9.901777
18.748130321,14.61219,-35.42916,-3.70839,1.063106,-0.09263002,-0.07595266,-34.29742,-37.51644,-9.901777
18.758127689,26.18044,-38.57484,-5.232659,1.008625,-0.04700432,-0.1232485,-34.29742,-37.51644,-9.901777
18.768125534,33.37983,-43.67915,-7.18372300000002,1.00273,0.05929163,-0.1242227,-34.29742,-37.51644,-9.901777
18.778123856,37.31795,-45.93454,-10.17129,1.04766,0.1579194,-0.1171478,-34.29742,-37.51644,-9.901777
18.788121223,36.39495,-46.29065,-11.57362,1.050418,0.1659103,-0.1525693,-34.67555,-37.51271,-9.130554
18.798119068,33.62596,-46.76547,-11.26876,1.022354,0.1271181,-0.2420041,-34.67555,-37.51271,-9.130554
18.808116913,31.53383,-47.53705,-10.84197,1.021957,0.1214183,-0.2798095,-34.67555,-37.51271,-9.130554
18.818114281,23.78064,-46.17194,-8.829934,1.062593,0.08606945,-0.2478066,-34.67555,-37.51271,-9.130554
18.828112125,13.68919,-41.89857,-5.232659,1.080516,0.03972053,-0.2535688,-34.67555,-37.51271,-9.130554
18.838109493,7.59740300000001,-35.96334,-0.4159691,1.0891,0.07675245,-0.2081286,-33.91489,-38.62418,-6.280896
18.848107815,-1.386449,-27.35724,2.571598,1.097545,0.1217672,-0.1397185,-33.91489,-38.62418,-6.280896
18.858105659,-12.09323,-15.66483,5.498195,1.086449,0.09078989,-0.1023623,-33.91489,-38.62418,-6.280896
18.868103027,-20.64635,-4.625287,8.18090799999998,1.051002,0.006608488,-0.09127155,-33.91489,-38.62418,-6.280896
18.878100872,-18.92342,6.77036799999997,10.55877,1.043233,-0.07277979,-0.09410902,-33.91489,-38.62418,-6.280896
18.888098717,-9.44730199999998,17.86926,11.65624,1.05324,-0.1130863,-0.1127806,-34.28097,-39.37409,-4.667113
18.898096085,4.090009,27.30629,11.71721,1.039987,-0.08314175,-0.1572727,-34.28097,-39.37409,-4.667113
18.908094406,13.93533,30.74873,11.16848,1.014832,-0.01666748,-0.2199395,-34.28097,-39.37409,-4.667113
18.918092251,14.48913,37.09943,10.55877,1.062841,0.07530218,-0.1506533,-34.28097,-39.37409,-4.667113
18.928089619,11.22786,44.34042,10.55877,1.062537,0.09201119,-0.1295997,-34.28097,-39.37409,-4.667113
18.938087463,11.6586,50.33501,10.13197,1.029078,0.05656317,-0.1606397,-35.03242,-39.3759,-4.221172
18.948084831,13.93533,56.15154,10.25391,1.020735,0.0334626,-0.1711479,-35.03242,-39.3759,-4.221172
18.958082676,16.15052,61.5525999999999,10.55877,1.037433,0.02646389,-0.1754824,-35.03242,-39.3759,-4.221172
18.968080521,17.19659,66.7162599999999,10.43683,1.04435,0.02118502,-0.1831503,-35.03242,-39.3759,-4.221172
18.978077888,18.11959,69.0903499999998,10.071,1.029226,0.02089402,-0.2352886,-35.03242,-39.3759,-4.221172
18.98807621,21.31931,68.6748900000001,8.91255800000001,0.9934732,0.05520521,-0.2850071,-34.66805,-38.62273,-5.447953
18.998074055,20.82705,65.64791,7.937025,0.9602753,0.1096747,-0.3146349,-34.66805,-38.62273,-5.447953
19.008071423,16.58125,58.1695199999999,7.69314200000002,0.9244693,0.1741229,-0.3102819,-34.66805,-38.62273,-5.447953
19.018069267,11.22786,52.41234,7.32731800000001,0.91374,0.2263356,-0.3164982,-34.66805,-38.62273,-5.447953
19.028066635,-1.571049,48.25768,8.91255800000001,0.9488929,0.2241681,-0.257694,-34.66805,-38.62273,-5.447953
19.03806448,-11.97016,47.54544,10.80265,0.974354,0.1923411,-0.2328443,-35.4035,-39.3858,-5.062456
19.048062801,-17.50816,46.83322,11.71721,0.970311,0.1479747,-0.2400044,-35.4035,-39.3858,-5.062456
19.058059692,-21.13862,46.06164,12.26595,0.9724894,0.1102854,-0.2213341,-35.4035,-39.3858,-5.062456
19.068058014,-23.96914,44.75588,11.65624,1.005888,0.07075248,-0.2060677,-35.4035,-39.3858,-5.062456
19.078055859,-22.80001,43.9843,11.16848,1.006228,0.0528671,-0.1964922,-35.4035,-39.3858,-5.062456
19.088053226,-20.33868,42.44114,10.19294,0.9941973,0.04489382,-0.1921619,-35.03126,-39.01298,-6.28721
19.098051071,-16.52362,40.71992,9.58323599999998,0.9832383,0.05791616,-0.1792246,-35.03126,-39.01298,-6.28721
19.108048439,-15.78522,38.82065,9.339353,0.9898763,0.06856352,-0.1452601,-35.03126,-39.01298,-6.28721
19.118046284,-15.16989,37.69295,9.03449899999999,1.014048,0.07949149,-0.1185047,-35.03126,-39.01298,-6.28721
19.128044605,-15.04683,38.34583,9.339353,1.018816,0.08561876,-0.09650013,-35.03126,-39.01298,-6.28721
19.138041973,-15.78522,39.71093,9.58323599999998,1.019738,0.08862279,-0.08884528,-36.13271,-39.79575,-7.904003
19.148039818,-16.46209,41.19474,9.76614900000002,1.015863,0.08769281,-0.07591674,-36.13271,-39.79575,-7.904003
19.158037663,-16.21596,43.39078,10.68071,1.004883,0.0759668,-0.05914442,-36.13271,-39.79575,-7.904003
19.16803503,-16.15442,46.23969,11.41236,0.992122,0.08118284,-0.04572339,-36.13271,-39.79575,-7.904003
19.178032875,-18.43115,48.79184,11.5343,0.9731933,0.07755204,-0.02989644,-36.13271,-39.79575,-7.904003
19.188030243,-22.36928,51.10659,10.80265,0.9997438,0.0393197,-0.01701133,-36.12933,-39.80228,-8.678007
19.198028088,-22.86155,54.48967,9.09546899999999,1.054924,-0.01816094,0.00779323,-36.12933,-39.80228,-8.678007
19.208026409,-15.84676,57.6353499999998,7.14440499999997,1.076734,-0.06320678,0.02978131,-36.12933,-39.80228,-8.678007
19.218023777,-2.863246,59.4752700000001,5.98596099999998,1.065253,-0.04818957,0.04941908,-36.12933,-39.80228,-8.678007
19.228021622,6.305205,61.0777799999999,5.559165,1.039304,-0.01564068,0.05137023,-36.13602,-39.05901,-10.74607
19.238019466,10.1818,61.0777799999999,6.10790299999999,1.005674,0.01106116,0.06817214,-36.13602,-39.05901,-10.74607
19.248016834,8.95113399999999,60.7216700000003,7.14440499999997,0.9806891,0.01844786,0.07969963,-36.13602,-39.05901,-10.74607
19.258014679,8.08966899999999,61.0777799999999,9.46129399999998,0.9917375,0.0261561,0.04857093,-36.13602,-39.05901,-10.74607
19.268013001,6.36673800000001,61.0777799999999,11.5343,1.00345,0.05040385,0.01791541,-36.13602,-39.05901,-10.74607
19.278010368,-0.832649800000001,59.8907400000001,13.36342,0.9930453,0.08500623,-0.001696984,-37.56746,-39.07959,-11.91774
19.288008213,-9.324236,58.8223999999999,14.0341,0.9632114,0.09068141,-0.007389349,-37.56746,-39.07959,-11.91774
19.298005581,-16.33902,57.8727599999998,13.79022,0.9379202,0.06188307,-0.01978082,-37.56746,-39.07959,-11.91774
19.308003426,-18.49269,58.7630400000001,13.30245,0.9491428,0.06115923,-0.01692874,-37.56746,-39.07959,-11.91774
19.31800127,-19.23109,61.4338999999997,12.08304,0.9540989,0.08262103,-0.01885721,-37.56746,-39.07959,-11.91774
19.327998638,-21.75395,63.1551100000002,11.29042,0.9380149,0.08277604,-0.02026494,-37.23997,-39.47177,-13.5904
19.337996483,-23.29228,63.21447,11.77818,0.9334505,0.06605419,-0.03221708,-37.23997,-39.47177,-13.5904
19.347994804,-22.86155,63.3925200000002,11.77818,0.9543615,0.01563991,-0.06382658,-37.23997,-39.47177,-13.5904
19.357992172,-17.13896,63.9860500000001,12.5708,0.9504974,0.0127303,-0.1078481,-37.23997,-39.47177,-13.5904
19.367990017,-13.75463,64.5795699999997,12.20498,0.9298687,0.04730176,-0.1087782,-37.23997,-39.47177,-13.5904
19.377987385,-13.07776,63.3331700000002,11.29042,0.8991905,0.04622287,-0.1072887,-37.54351,-39.491,-15.59223
19.38798523,-5.447642,61.6713099999998,9.15644099999999,0.8722246,0.05487474,-0.1125082,-37.54351,-39.491,-15.59223
19.397983074,3.720809,59.41592,6.04693200000002,0.8549048,0.09483501,-0.1158384,-37.54351,-39.491,-15.59223
19.407980442,7.04360400000002,55.91413,4.27878,0.8416113,0.1017123,-0.1320886,-37.54351,-39.491,-15.59223
19.417978764,8.88960099999997,50.03825,2.937423,0.8803114,0.06438927,-0.1522466,-37.54351,-39.491,-15.59223
19.427976608,16.51972,43.50948,2.266744,0.919723,0.06609938,-0.2097449,-37.55836,-38.36683,-17.59782
19.437973976,20.39631,36.62461,2.266744,0.9012241,0.09018794,-0.2456121,-37.55836,-38.36683,-17.59782
19.447971821,12.95079,27.60305,2.998394,0.8905061,0.1419851,-0.244171,-37.55836,-38.36683,-17.59782
19.457969666,-0.4019172,18.22537,5.0714,0.9395162,0.1532766,-0.2313378,-37.55836,-38.36683,-17.59782
19.467967033,-14.12383,8.72899499999998,8.36382100000002,0.9917268,0.09735207,-0.2424216,-37.55836,-38.36683,-17.59782
19.477965355,-13.5085,-5.040754,6.04693200000002,1.083509,0.05528117,-0.5239736,-37.23454,-38.75192,-18.43198
19.487962246,-3.724712,-32.58025,6.10790299999999,1.182789,-0.2843458,-0.8920842,-37.23454,-38.75192,-18.43198
19.497960568,14.67372,-63.0873700000003,1.778978,1.378322,-0.3680302,-0.8478959,-37.23454,-38.75192,-18.43198
19.507958412,22.61151,-64.3931300000002,-1.696355,1.89449,-0.03622862,0.2547153,-37.23454,-38.75192,-18.43198
19.51795578,56.57785,-32.87701,-8.098285,1.581702,0.5615671,0.4087296,-37.23454,-38.75192,-18.43198
19.527953625,43.53281,-37.6252,2.75451,0.7355567,0.4069358,-0.003723886,-37.53646,-39.50462,-17.20473
19.53795147,-6.18604100000003,-47.18093,3.973926,0.6023909,0.3913749,0.1233349,-37.53646,-39.50462,-17.20473
19.547948837,-27.10734,-53.29423,4.949458,0.8944868,-0.03482112,0.1267641,-37.53646,-39.50462,-17.20473
19.557947159,-11.04717,-51.15754,6.29081499999999,1.100183,-0.3006716,-0.003220172,-37.53646,-39.50462,-17.20473
19.567944527,17.31965,-44.15396,4.888487,1.143396,-0.2933655,-0.04158347,-37.53646,-39.50462,-17.20473
19.577942372,37.50255,-40.53347,4.461692,1.070138,-0.1300095,-0.08696255,-39.05035,-39.1219,-15.60538
19.587940216,40.70228,-37.74391,4.705575,1.037673,0.01547716,-0.1022578,-39.05035,-39.1219,-15.60538
19.597937584,36.27189,-34.30147,3.54713,0.9881129,0.1381377,-0.07923138,-39.05035,-39.1219,-15.60538
19.607935429,28.21103,-32.16478,3.973926,0.9637483,0.1909705,-0.04139501,-39.05035,-39.1219,-15.60538
19.61793375,18.85798,-27.89142,6.22984400000002,0.9969724,0.1614161,0.00258368,-39.05035,-39.1219,-15.60538
19.627930641,11.53553,-26.88243,6.53469799999998,1.006909,-0.00544713,-0.0390268,-39.81055,-39.10682,-13.15993
19.637928963,11.59706,-24.09286,6.77858100000002,1.031115,-0.07499711,-0.04479399,-39.81055,-39.10682,-13.15993
19.647926807,14.91986,-20.65043,6.35178600000003,1.015749,-0.1132962,-0.05480744,-39.81055,-39.10682,-13.15993
19.657924175,18.11959,-18.86986,5.620136,1.004328,-0.07540791,-0.03182564,-39.81055,-39.10682,-13.15993
19.66792202,17.81192,-18.27633,5.010429,1.006716,-0.02016861,-0.001215157,-39.81055,-39.10682,-13.15993
19.677919388,16.95045,-18.27633,4.705575,1.037422,-0.01976277,0.02983865,-39.80975,-39.47356,-11.54539
19.687917232,18.30419,-18.75115,4.949458,1.006523,0.01718901,0.04567602,-39.80975,-39.47356,-11.54539
19.697915554,14.24299,-20.53172,6.04693200000002,0.9808955,0.1112843,0.08158967,-39.80975,-39.47356,-11.54539
19.707912922,6.12060500000003,-22.5497,7.937025,0.9868886,0.1293299,0.07583166,-39.80975,-39.47356,-11.54539
19.717910767,2.428612,-23.55869,7.99799599999998,1.000662,0.04221841,-0.02084229,-39.80975,-39.47356,-11.54539
19.727908611,2.367078,-24.86444,7.44925899999998,1.028501,0.0124909,-0.03715475,-40.55672,-39.84919,-10.32342
19.737905979,1.321013,-26.64502,6.473727,0.9992952,0.03665743,-0.04141724,-40.55672,-39.84919,-10.32342
19.747903824,-4.955376,-30.20616,5.86401899999998,1.003237,0.009427034,0.001176166,-40.55672,-39.84919,-10.32342
19.757902145,-4.032378,-31.03709,5.742078,0.9825462,-0.08155017,0.03425741,-40.55672,-39.84919,-10.32342
19.767899036,6.428272,-31.57126,3.242276,0.9828107,-0.09872587,-0.09064697,-40.55672,-39.84919,-10.32342
19.777897358,6.92053700000001,-34.06406,0.925387699999998,1.004066,-0.03558341,-0.03374974,-40.57584,-39.08194,-9.553473
19.787894726,3.966942,-34.06406,1.291212,0.996231,-0.03164358,0.04187792,-40.57584,-39.08194,-9.553473
19.79789257,2.182479,-32.93637,1.596066,0.9760532,-0.07358851,0.01560221,-40.57584,-39.08194,-9.553473
19.807890415,1.997879,-31.92738,1.474125,0.9846544,-0.143224,-0.01885233,-40.57584,-39.08194,-9.553473
19.817887783,5.074541,-32.81766,0.1327677,1.005588,-0.1680619,-0.01696812,-40.94807,-39.45475,-8.328718
19.827885628,8.82806800000001,-32.87701,-0.7817937,1.020256,-0.1442714,0.002143226,-40.94807,-39.45475,-8.328718
19.837883949,10.7356,-31.86802,-1.26956,1.012165,-0.1026272,0.003582336,-40.94807,-39.45475,-8.328718
19.847881317,10.98173,-30.97774,-1.574414,0.9882742,-0.07662241,-0.02366155,-40.94807,-39.45475,-8.328718
19.857879162,11.59706,-31.3932,-1.757326,0.9705888,-0.04366117,-0.04756801,-40.94807,-39.45475,-8.328718
19.867877007,9.62799900000003,-33.88601,-2.184121,0.9741617,-0.001086516,-0.07582118,-41.33773,-39.06359,-6.72102
19.877874374,6.98206999999997,-36.02269,-1.635384,0.9736837,0.0497042,-0.1002408,-41.33773,-39.06359,-6.72102
19.887872219,6.05907200000001,-38.10002,-2.367033,0.9850574,0.09189001,-0.134729,-41.33773,-39.06359,-6.72102
19.897869587,0.4595481,-37.98132,-1.696355,1.030392,0.1179415,-0.09413574,-41.33773,-39.06359,-6.72102
19.907867908,-5.201509,-35.90398,-0.1720861,1.028232,0.07696573,-0.1065644,-41.33773,-39.06359,-6.72102
19.917865753,-10.3703,-34.89499,0.986358399999998,1.013586,0.0002563429,-0.1203978,-41.71167,-39.43314,-5.109263
19.927863121,-9.07810300000001,-33.05507,0.986358399999998,1.012415,-0.0674311,-0.1332999,-41.71167,-39.43314,-5.109263
19.937860966,-4.524643,-29.85004,0.681504599999997,1.012103,-0.1037961,-0.1768404,-41.71167,-39.43314,-5.109263
19.94785881,1.44408,-27.11983,0.1937385,0.9965093,-0.105077,-0.2299349,-41.71167,-39.43314,-5.109263
19.957856178,3.843876,-26.11085,0.2547093,0.9826121,-0.03976703,-0.2318418,-41.71167,-39.43314,-5.109263
19.967854023,0.2749484,-26.46696,0.01082622,0.9879805,0.03836164,-0.2021995,-42.08221,-39.80922,-4.271512
19.977852345,-2.370981,-26.64502,-0.4159691,1.017222,0.0386201,-0.1840647,-42.08221,-39.80922,-4.271512
19.987849712,-1.817181,-25.81408,-0.964705900000002,1.021094,0.01459252,-0.1630079,-42.08221,-39.80922,-4.271512
19.997847557,-1.263382,-24.68639,-1.086647,1.020814,-0.04795471,-0.1471983,-42.08221,-39.80922,-4.271512
20.007844925,0.767214200000001,-23.97416,-0.598881400000002,1.000917,-0.1298807,-0.1356567,-42.08221,-39.80922,-4.271512
20.01784277,5.751406,-22.60905,-0.903735200000002,0.9957747,-0.1425212,-0.1782377,-42.10499,-39.03489,-2.66306
20.027840614,7.96660199999998,-21.60007,-1.757326,1.002682,-0.09451687,-0.1514619,-42.10499,-39.03489,-2.66306
20.037837982,8.08966899999999,-21.24395,-2.671887,1.016782,-0.06711768,-0.1615436,-42.10499,-39.03489,-2.66306
20.047836304,5.320673,-21.77812,-2.793829,0.9989501,-0.0256176,-0.1548231,-42.10499,-39.03489,-2.66306
20.057834148,1.567146,-23.08387,-2.793829,0.9970114,0.001063052,-0.1026618,-42.10499,-39.03489,-2.66306
20.067831516,-0.7711166,-23.38064,-2.549946,1.009135,0.004231385,-0.1012481,-42.46739,-39.79188,-1.887782
20.077829361,-0.03271778,-22.78711,-2.488975,1.017043,-0.002065595,-0.1160961,-42.46739,-39.79188,-1.887782
20.087827206,-1.017249,-22.19359,-1.696355,1.016672,-0.009218233,-0.1534225,-42.46739,-39.79188,-1.887782
20.097824574,-1.878715,-20.53172,-2.001209,1.006916,-0.03549926,-0.1897705,-42.46739,-39.79188,-1.887782
20.107822418,-3.232446,-18.75115,-1.879267,1.01209,-0.05214714,-0.2146612,-42.46739,-39.79188,-1.887782
20.117819786,-3.047846,-17.02993,-2.123151,1.005724,-0.07665334,-0.2237368,-42.47275,-39.78153,-0.6622753
20.127818108,0.2749484,-17.08928,-2.610917,0.9777896,-0.06861619,-0.2409189,-42.47275,-39.78153,-0.6622753
20.137815952,3.843876,-16.97058,-3.525478,0.9604865,-0.02967136,-0.2490345,-42.47275,-39.78153,-0.6622753
20.14781332,4.459208,-17.26734,-3.647419,0.9599137,0.0009930492,-0.2423414,-42.47275,-39.78153,-0.6622753
20.157811165,6.12060500000003,-18.39504,-4.074214,0.962088,0.01446253,-0.2619702,-42.47275,-39.78153,-0.6622753
20.16780901,4.951474,-20.59108,-3.098683,0.9776915,0.06732801,-0.2007533,-42.09015,-40.15907,-0.6574669
20.177806377,-0.2173175,-21.95618,-2.91577,0.9956162,0.0995096,-0.1744712,-42.09015,-40.15907,-0.6574669
20.187804699,-7.41670600000002,-22.13424,-1.879267,1.008672,0.0795861,-0.1496028,-42.09015,-40.15907,-0.6574669
20.197802544,-14.61609,-22.25294,-1.452472,1.009037,0.03375251,-0.167299,-42.09015,-40.15907,-0.6574669
20.207799912,-17.50816,-21.24395,-0.7817937,0.9939041,-0.01807478,-0.2222955,-42.09015,-40.15907,-0.6574669
20.217797756,-18.98495,-19.99755,-0.659852100000001,0.9830561,-0.03802504,-0.2548146,-42.84331,-40.15761,0.1754761
20.227795124,-21.32322,-18.86986,-1.086647,0.9886718,-0.05145466,-0.2476423,-42.84331,-40.15761,0.1754761
20.237792969,-20.70788,-17.38605,-2.123151,1.005237,-0.05101333,-0.2352283,-42.84331,-40.15761,0.1754761
20.247790814,-17.50816,-16.13965,-3.342566,1.003585,-0.01440296,-0.213699,-42.84331,-40.15761,0.1754761
20.257788181,-17.93889,-15.78353,-4.744893,1.003079,-0.01347179,-0.2170483,-42.84331,-40.15761,0.1754761
20.267786503,-17.26202,-15.0713,-5.3546,0.9837581,-0.02338467,-0.2495553,-42.08595,-40.53234,0.1830654
20.277784348,-15.60063,-15.01195,-6.02527899999998,0.9620488,-0.009323063,-0.2590926,-42.08595,-40.53234,0.1830654
20.287781715,-14.67763,-15.54612,-6.39110400000002,0.9582028,-0.01166646,-0.241378,-42.08595,-40.53234,0.1830654
20.29777956,-12.9547,-15.84289,-6.75692799999998,0.988318,-0.03244413,-0.240468,-42.08595,-40.53234,0.1830654
20.307777405,-10.43183,-16.0803,-7.30566500000003,0.9968166,-0.06962354,-0.232816,-42.08595,-40.53234,0.1830654
20.317774773,-6.12450699999998,-16.0803,-7.54954800000001,0.9814336,-0.08127081,-0.250972,-42.46408,-40.52862,0.9542875
20.327773094,-2.801713,-16.73317,-7.30566500000003,0.9623838,-0.05302048,-0.2557319,-42.46408,-40.52862,0.9542875
20.337770939,-1.324916,-17.38605,-7.244694,0.9479137,-0.03475724,-0.2466184,-42.46408,-40.52862,0.9542875
20.347768307,0.767214200000001,-17.74216,-7.12275300000002,0.947781,-0.02811021,-0.26337,-42.46408,-40.52862,0.9542875
20.357766152,3.16701,-18.98856,-6.93983999999998,0.9260613,0.03845043,-0.2710066,-41.33369,-40.89727,1.35166
20.367763519,-2.063314,-22.66841,-6.695957,0.9483893,0.1218394,-0.2342166,-41.33369,-40.89727,1.35166
20.377761364,-9.26270200000001,-25.0425,-6.39110400000002,0.9801356,0.1181633,-0.2266138,-41.33369,-40.89727,1.35166
20.387759686,-16.70822,-28.12883,-4.988776,0.9852883,0.1039325,-0.1998188,-41.33369,-40.89727,1.35166
20.397756577,-23.47688,-29.79069,-4.257127,0.9993721,0.05545524,-0.1644163,-41.33369,-40.89727,1.35166
20.407754898,-24.09221,-29.43458,-4.50101,1.014075,-0.02840645,-0.2266352,-41.71996,-40.51264,2.185355
20.417752743,-22.49235,-29.31587,-4.622952,0.9823464,-0.02802824,-0.3289952,-41.71996,-40.51264,2.185355
20.427750111,-23.41535,-29.13782,-4.866835,0.9505525,0.0293013,-0.3677192,-41.71996,-40.51264,2.185355
20.437747955,-31.59927,-28.72235,-4.805864,0.9363416,0.05972697,-0.3576522,-41.71996,-40.51264,2.185355
20.4477458,-37.56799,-28.663,-5.3546,0.9543886,-0.01841092,-0.3327776,-41.71996,-40.51264,2.185355
20.457743168,-32.5838,-28.663,-6.63498599999997,0.9530677,-0.1289641,-0.3035537,-41.33288,-41.264,2.966195
20.46774149,-18.67729,-28.60365,-8.46410900000001,0.9420874,-0.1663529,-0.2767246,-41.33288,-41.264,2.966195
20.477738857,-4.093911,-29.61263,-10.72003,0.9290963,-0.1226336,-0.2503916,-41.33288,-41.264,2.966195
20.487736702,6.24367199999998,-31.57126,-12.61012,0.9342437,-0.08496965,-0.2346172,-41.33288,-41.264,2.966195
20.497734547,12.58159,-33.58924,-13.64662,0.932657,-0.001191901,-0.262872,-41.33288,-41.264,2.966195
20.507731915,11.59706,-35.1324,-12.97595,0.915509,0.1320672,-0.319827,-41.32699,-41.64054,3.419725
20.517729759,1.505613,-35.72593,-12.18333,0.9406521,0.2190869,-0.3701437,-41.32699,-41.64054,3.419725
20.527728081,-12.7701,-36.20074,-11.39071,0.9391147,0.1700194,-0.4184646,-41.32699,-41.64054,3.419725
20.537724972,-21.50782,-36.43816,-10.3542,0.936492,0.07619397,-0.4170001,-41.32699,-41.64054,3.419725
20.547723293,-23.04615,-36.14139,-10.23226,0.9495413,0.03120754,-0.3696323,-41.32699,-41.64054,3.419725
20.557721138,-23.29228,-36.2601,-11.51265,0.9766804,-0.01154799,-0.3213324,-41.69726,-42.01717,4.192977
20.567718506,-16.89282,-34.06406,-13.46371,1.005992,-0.067303,-0.3175405,-41.69726,-42.01717,4.192977
20.577716351,-11.97016,-34.30147,-13.82954,0.9700499,-0.02273377,-0.3610398,-41.69726,-42.01717,4.192977
20.587714195,-12.64703,-34.89499,-15.04895,0.9851686,0.02865459,-0.3539007,-41.69726,-42.01717,4.192977
20.597711563,-14.67763,-35.07305,-15.84157,0.9662525,0.02310563,-0.3883238,-41.69726,-42.01717,4.192977
20.607709885,-18.49269,-35.25111,-16.32934,0.946281,0.02193561,-0.4198747,-40.55479,-43.13945,5.432908
20.617707252,-21.69242,-34.83564,-17.42681,0.9284473,0.01130831,-0.4274981,-40.55479,-43.13945,5.432908
20.627705097,-22.67695,-34.89499,-18.40234,0.9495459,0.003393968,-0.4351901,-40.55479,-43.13945,5.432908
20.637702942,-21.56935,-33.17377,-19.68273,0.9744012,0.002746468,-0.4534191,-40.55479,-43.13945,5.432908
20.64770031,-19.90795,-30.85903,-20.47535,0.9769976,0.0195864,-0.4773567,-40.55479,-43.13945,5.432908
20.657698154,-22.30775,-29.55328,-21.207,0.9973817,0.04947365,-0.4946288,-39.79745,-43.51419,5.440497
20.667696476,-23.66148,-28.48494,-19.92661,1.029682,0.04251221,-0.4755402,-39.79745,-43.51419,5.440497
20.677693367,-23.96914,-27.47595,-19.19496,1.011587,0.04683962,-0.4415309,-39.79745,-43.51419,5.440497
20.687691688,-21.87701,-26.52631,-18.15846,1.006065,0.0562529,-0.4099377,-39.79745,-43.51419,5.440497
20.697689533,-19.96948,-24.68639,-17.48778,0.9911665,0.09659341,-0.4300223,-39.79745,-43.51419,5.440497
20.707686901,-19.23109,-22.01553,-16.69516,1.00601,0.1353102,-0.4793514,-39.40448,-44.64209,6.674868
20.717684746,-21.63088,-18.8105,-14.7441,0.9161515,0.2217779,-0.553875,-39.40448,-44.64209,6.674868
20.727682114,-32.70687,-16.85188,-14.37827,0.8564239,0.3143539,-0.5571447,-39.40448,-44.64209,6.674868
20.737679958,-42.12145,-13.8249,-15.10992,0.892094,0.2572228,-0.5581493,-39.40448,-44.64209,6.674868
20.74767828,-43.84438,-10.73858,-16.39031,0.90653,0.1896911,-0.5347069,-39.40448,-44.64209,6.674868
20.757675648,-37.99872,-7.77096299999999,-17.18293,0.9092833,0.06934167,-0.5227163,-39.39294,-45.02953,5.838392
20.767673492,-26.55354,-5.931039,-18.15846,0.9212463,0.03008611,-0.4839623,-39.39294,-45.02953,5.838392
20.777671337,-15.16989,-5.159458,-18.58526,0.8961239,0.04551712,-0.442765,-39.39294,-45.02953,5.838392
20.787668705,-7.66283799999999,-5.99039199999999,-18.64623,0.8586639,0.09522817,-0.3991621,-39.39294,-45.02953,5.838392
20.79766655,-4.83231,-7.71161000000001,-18.03652,0.8520293,0.1639307,-0.3647107,-39.39294,-45.02953,5.838392
20.807664871,-4.032378,-8.542543,-17.79264,0.8582702,0.1689046,-0.36568,-38.61818,-46.16824,5.463036
20.817662239,-5.509175,-9.61088600000001,-17.36584,0.8481012,0.2164742,-0.4025249,-38.61818,-46.16824,5.463036
20.827660084,-9.75496900000002,-10.20441,-17.06099,0.8602307,0.2182935,-0.4422683,-38.61818,-46.16824,5.463036
20.837657928,-14.00076,-10.61988,-16.45128,0.866761,0.2076441,-0.4518485,-38.61818,-46.16824,5.463036
20.847655296,-18.24655,-11.45081,-16.26837,0.8808957,0.1817746,-0.4418163,-38.61818,-46.16824,5.463036
20.857653141,-20.33868,-11.3321,-16.14643,0.9399853,0.1239949,-0.4050541,-37.92329,-46.54344,5.470161
20.867650509,-14.24689,-11.3321,-16.26837,0.9679978,0.08504235,-0.420886,-37.92329,-46.54344,5.470161
20.877648354,-6.18604100000003,-11.45081,-15.65866,0.9763876,0.1314208,-0.4156482,-37.92329,-46.54344,5.470161
20.887646675,0.02881546,-12.28174,-15.35381,0.9286464,0.2088063,-0.4055348,-37.92329,-46.54344,5.470161
20.897644043,1.382547,-13.76555,-15.71963,0.8749561,0.2656691,-0.3949271,-37.92329,-46.54344,5.470161
20.907641888,0.951813900000003,-14.9526,-16.69516,0.8769743,0.2360753,-0.3939659,-37.16595,-46.91817,5.477751
20.917639732,3.720809,-14.59649,-18.03652,0.9128056,0.1693329,-0.4366045,-37.16595,-46.91817,5.477751
20.9276371,9.074201,-13.23138,-18.52429,0.8980283,0.1762501,-0.4983168,-37.16595,-46.91817,5.477751
20.937634945,5.320673,-13.88426,-17.85361,0.8783047,0.2397196,-0.5294062,-37.16595,-46.91817,5.477751
20.947633266,-5.75530800000001,-15.60548,-15.71963,0.9401494,0.2426932,-0.4974502,-37.47206,-47.2976,5.864463
20.957630634,-15.96982,-15.84289,-13.82954,0.9634098,0.1716974,-0.4998654,-37.47206,-47.2976,5.864463
20.967628479,-22.55388,-20.35367,-11.45168,0.9473979,0.06536783,-0.4553024,-37.47206,-47.2976,5.864463
20.977626324,-15.78522,-20.23496,-8.890904,0.9508205,0.04019375,-0.3993085,-37.47206,-47.2976,5.864463
20.987623692,-5.386109,-22.5497,-9.13478800000001,0.8860019,0.06660303,-0.4001595,-37.47206,-47.2976,5.864463
20.997621536,-1.694115,-27.11983,-8.95187600000001,0.8638501,0.1574356,-0.3565938,-36.39654,-48.04653,6.3279
21.007618904,-3.047846,-33.47054,-7.42760699999997,0.8793195,0.1904923,-0.335572,-36.39654,-48.04653,6.3279
21.017616749,-7.232106,-39.93995,-5.537513,0.906743,0.184017,-0.3059464,-36.39654,-48.04653,6.3279
21.02761507,-11.97016,-48.60539,-3.464507,0.9148729,0.1412797,-0.2676635,-36.39654,-48.04653,6.3279
21.037612438,-11.17023,-52.22588,-3.403537,0.9228405,0.07938916,-0.3040332,-36.39654,-48.04653,6.3279
21.047610283,-6.678307,-57.21148,-2.549946,0.9283295,0.07201987,-0.3246196,-36.39823,-48.04326,6.714901
21.057608128,-4.155444,-61.4255099999999,-1.208589,0.9300605,0.1094102,-0.3313324,-36.39823,-48.04326,6.714901
21.067605495,-4.770776,-64.3931300000002,-0.720822899999998,0.899607,0.1730132,-0.3777175,-36.39823,-48.04326,6.714901
21.07760334,-11.60097,-68.3103799999998,-0.3549984,0.8841844,0.2144986,-0.4308233,-36.39823,-48.04326,6.714901
21.087601662,-18.73882,-71.39671,-0.3549984,0.9136276,0.2033475,-0.438529,-36.39823,-48.04326,6.714901
21.09759903,-21.38475,-70.5657700000001,0.1937385,0.9584165,0.128058,-0.4256661,-36.77555,-48.40627,9.10066
21.107596874,-23.23075,-64.9272999999997,2.998394,1.02114,0.03475107,-0.2965359,-36.77555,-48.40627,9.10066
21.117594719,-16.40056,-53.8284,6.10790299999999,1.014433,-0.1009021,-0.2902678,-36.77555,-48.40627,9.10066
21.127592087,-6.49370699999998,-42.25469,11.22945,1.012203,-0.1891726,-0.2667909,-36.77555,-48.40627,9.10066
21.137589932,0.2749484,-27.5353,16.47293,1.067155,-0.2057973,-0.1314454,-36.77555,-48.40627,9.10066
21.147588253,7.78200200000001,-8.364487,20.00924,1.12096,-0.1618949,-0.01717083,-36.03312,-48.38703,10.71873
21.157585144,15.84286,11.2218,20.67991,1.129686,-0.158377,0.0297135,-36.03312,-48.38703,10.71873
21.167583466,24.27291,29.38362,21.5335,1.139635,-0.1694668,0.01773462,-36.03312,-48.38703,10.71873
21.177580833,32.82603,44.51847,21.83836,1.109632,-0.1303142,-0.04635235,-36.03312,-48.38703,10.71873
21.187578678,41.93295,54.66773,20.67991,1.061416,-0.03155511,-0.1951309,-36.03312,-48.38703,10.71873
21.197576523,48.02473,56.56701,18.18011,1.01338,0.1087265,-0.3735921,-37.16242,-48.38566,11.87139
21.207573891,46.1172,53.71809,15.37546,0.9917174,0.2221912,-0.4597273,-37.16242,-48.38566,11.87139
21.217571735,39.10242,49.80083,14.39993,0.9834937,0.2176455,-0.5137908,-37.16242,-48.38566,11.87139
21.227570057,35.22582,45.46811,13.97313,0.949463,0.1608355,-0.5414743,-37.16242,-48.38566,11.87139
21.237567425,40.39462,42.55984,13.91216,0.9516017,0.09934302,-0.5218406,-37.16242,-48.38566,11.87139
21.24756527,51.03986,42.67855,14.4609,0.9576394,0.08928385,-0.5189771,-39.00711,-46.87401,12.30134
21.257563114,56.33172,43.15337,15.0706,0.9612914,0.1545818,-0.5070359,-39.00711,-46.87401,12.30134
21.267560482,52.57819,44.28107,15.68031,1.033643,0.196149,-0.4224647,-39.00711,-46.87401,12.30134
21.277558327,45.13267,47.48609,17.02167,1.070433,0.1327983,-0.362212,-39.00711,-46.87401,12.30134
21.287556648,44.64041,50.27565,19.39953,1.012494,0.1558147,-0.3769527,-39.00711,-46.87401,12.30134
21.297554016,35.59502,52.29364,22.02127,1.027649,0.2837291,-0.3444689,-41.27298,-46.12691,12.66761
21.307551861,18.42725,54.13356,24.82593,1.041486,0.3260478,-0.3167466,-41.27298,-46.12691,12.66761
21.317549229,-0.832649800000001,56.74506,28.60611,1.040625,0.2674897,-0.3416159,-41.27298,-46.12691,12.66761
21.327547073,-10.7395,59.7126800000001,31.71562,1.046243,0.1756481,-0.3535665,-41.27298,-46.12691,12.66761
21.337544918,-11.04717,62.56159,34.4593,1.03566,0.1416152,-0.3856038,-41.27298,-46.12691,12.66761
21.347542286,-10.61643,66.3601500000003,35.73969,1.053168,0.1434189,-0.3856348,-44.28298,-45.39578,11.8028
21.357540131,-9.07810300000001,69.5058200000003,36.47134,1.062746,0.1508042,-0.4488255,-44.28298,-45.39578,11.8028
21.367538452,-9.878035,70.3961,35.61775,1.083043,0.1577311,-0.5321349,-44.28298,-45.39578,11.8028
21.37753582,-5.93990799999998,65.88532,32.69115,1.012249,0.1635504,-0.5927921,-44.28298,-45.39578,11.8028
21.387533665,0.951813900000003,60.7216700000003,29.33776,0.9500859,0.2296839,-0.612801,-44.28298,-45.39578,11.8028
21.397531509,-3.355512,56.03283,28.36223,0.9305525,0.2603475,-0.5122738,-46.93505,-43.53384,9.386684
21.407529354,-6.24757399999999,55.37996,29.27679,0.8941355,0.2019457,-0.4964023,-46.93505,-43.53384,9.386684
21.417526722,-9.63190200000001,60.4249100000002,30.43524,0.8946748,0.2541031,-0.3739012,-46.93505,-43.53384,9.386684
21.427525044,-14.24689,68.5561800000002,30.31329,0.9318309,0.1698194,-0.3715514,-46.93505,-43.53384,9.386684
21.437522411,-12.64703,77.2216300000001,29.82553,0.9605939,0.09110899,-0.3792385,-46.93505,-43.53384,9.386684
21.447520256,-8.33970399999999,85.8277200000001,27.81349,0.9827582,0.1047857,-0.3663591,-49.18541,-42.8167,6.20543
21.457518101,-5.201509,91.2881400000002,24.58204,0.9885281,0.1087083,-0.3749846,-49.18541,-42.8167,6.20543
21.467515469,-1.571049,93.5435299999999,21.10671,0.9560133,0.1267106,-0.4084328,-49.18541,-42.8167,6.20543
21.477513313,0.890280700000001,93.5435299999999,17.81429,0.9237993,0.1550859,-0.424177,-49.18541,-42.8167,6.20543
21.487510681,-1.509515,93.5435299999999,14.88769,0.9260547,0.1392786,-0.4040766,-51.10255,-39.82551,1.724782
21.497508526,0.3980148,93.4841799999998,12.81469,0.8996419,0.09177301,-0.4403901,-51.10255,-39.82551,1.724782
21.507506847,3.290077,92.3564799999998,12.14401,0.8700445,0.05915119,-0.4365016,-51.10255,-39.82551,1.724782
21.517504215,6.612871,92.3564799999998,10.74168,0.8750092,0.0552355,-0.397266,-51.10255,-39.82551,1.724782
21.52750206,11.8432,93.4248200000001,9.40032399999997,0.8790617,0.02066019,-0.4140143,-51.10255,-39.82551,1.724782
21.537499905,20.21172,93.1874199999998,6.90052199999999,0.8705522,0.03107656,-0.4786099,-52.19945,-40.2519,-2.732054
21.547497273,28.7033,89.32951,2.327715,0.8478375,0.09774379,-0.5254879,-52.19945,-40.2519,-2.732054
21.557495117,28.21103,84.4626199999998,-1.513443,0.8717919,0.146799,-0.4738561,-52.19945,-40.2519,-2.732054
21.567493439,25.93431,84.2252000000001,-3.403537,0.8956353,0.1495779,-0.4341766,-52.19945,-40.2519,-2.732054
21.577490807,22.98071,84.1065,-5.049747,0.898553,0.09896262,-0.3958825,-52.19945,-40.2519,-2.732054
21.587488651,26.05737,84.34391,-5.232659,0.8706769,0.07701194,-0.4508645,-53.33904,-38.76997,-6.425025
21.597486496,30.11857,81.6730499999997,-5.964308,0.8683179,0.09960376,-0.4197588,-53.33904,-38.76997,-6.425025
21.607483864,32.21069,82.2072199999998,-5.3546,0.9017524,0.08454408,-0.3853557,-53.33904,-38.76997,-6.425025
21.617481708,33.37983,84.58132,-5.659454,0.8979779,0.104687,-0.3532897,-53.33904,-38.76997,-6.425025
21.62748003,28.64177,86.0651300000002,-5.110718,0.9069548,0.1200733,-0.3375163,-53.33904,-38.76997,-6.425025
21.637477398,22.91918,87.6676399999999,-3.220624,0.9312263,0.1528277,-0.2624306,-52.95805,-38.41404,-9.649288
21.647475243,11.22786,91.7036100000002,-1.330531,0.9520101,0.164373,-0.1610117,-52.95805,-38.41404,-9.649288
21.65747261,-4.155444,96.6298499999998,1.352183,0.9759027,0.1143178,-0.05383944,-52.95805,-38.41404,-9.649288
21.667470455,-16.89282,101.4374,4.461692,1.024914,0.04873063,0.001128257,-52.95805,-38.41404,-9.649288
21.6774683,-18.24655,105.5921,8.97352800000002,1.047002,0.04052534,0.01257769,-52.95805,-38.41404,-9.649288
21.687465668,-14.61609,108.9158,12.5708,1.005106,0.1172465,-0.009383527,-52.18572,-38.45254,-14.86825
21.697463512,-22.98461,108.8564,15.0706,0.949898,0.2025963,-0.01553075,-52.18572,-38.45254,-14.86825
21.707461834,-42.79832,104.4644,18.97273,0.8985055,0.2916371,-0.05135729,-52.18572,-38.45254,-14.86825
21.717459202,-68.3961399999997,96.4517899999999,23.30166,0.9264992,0.3305742,-0.1050166,-52.18572,-38.45254,-14.86825
21.727457046,-87.65604,87.0741199999997,28.60611,0.8230289,0.2334765,-0.1899978,-52.18572,-38.45254,-14.86825
21.737454891,-93.8709000000003,73.8979000000001,31.83756,0.6674778,0.1327315,-0.295466,-51.81143,-37.35334,-20.16058
21.747452259,-83.8409800000003,60.1875000000002,29.09388,0.5512873,0.06392145,-0.3947895,-51.81143,-37.35334,-20.16058
21.757450104,-62.7966199999999,43.62819,21.10671,0.5672175,0.04410547,-0.4704272,-51.81143,-37.35334,-20.16058
21.767448425,-36.27579,24.69478,9.52226500000001,0.5834579,-0.02095587,-0.6585193,-51.81143,-37.35334,-20.16058
21.777445793,-11.1087,1.013188,-0.903735200000002,0.625635,0.04260775,-0.6538234,-51.81143,-37.35334,-20.16058
21.787443638,-6.49370699999998,-19.99755,-11.63459,1.136874,0.09215826,-0.5920339,-50.71939,-34.72654,-25.39096
21.797441482,-3.847778,-57.5082500000001,-2.06218,2.268217,-1.181131,-0.9779748,-50.71939,-34.72654,-25.39096
21.80743885,59.7775799999999,-63.5621899999997,18.72885,2.441717,-0.7981409,-0.1255533,-50.71939,-34.72654,-25.39096
21.817436695,141.8629,-37.92197,-19.19496,1.112726,0.9513617,-0.003564427,-50.71939,-34.72654,-25.39096
21.827435017,79.1605500000002,-40.83023,-17.42681,0.7028407,1.401396,0.197079,-50.71939,-34.72654,-25.39096
21.837431908,-29.9994,-53.17552,1.535095,0.6613954,0.6455914,0.003522586,-50.37331,-33.57285,-24.23326
21.847430229,-73.7495299999998,-57.4488899999997,8.85158600000001,0.7610778,0.05846281,-0.0644578,-50.37331,-33.57285,-24.23326
21.857428074,-52.7667,-52.76006,9.94906,1.281808,-0.6091878,-0.1767019,-50.37331,-33.57285,-24.23326
21.867425442,18.67338,-41.72052,4.888487,1.289281,-0.5151315,-0.2164609,-50.37331,-33.57285,-24.23326
21.877423286,55.40872,-33.82665,-4.074214,1.068375,0.01344693,-0.1779259,-50.37331,-33.57285,-24.23326
21.887420654,43.96354,-32.87701,-5.049747,1.005692,0.239324,-0.1051312,-51.85325,-35.08155,-21.39825
21.897418499,15.10446,-30.26551,-1.574414,1.033632,0.2042707,-0.1195282,-51.85325,-35.08155,-21.39825
21.907416821,-12.33936,-27.47595,3.303247,1.038143,0.1213832,-0.05347118,-51.85325,-35.08155,-21.39825
21.917414188,-25.13828,-24.44898,6.96149300000002,0.9821386,0.04220678,-0.03516727,-51.85325,-35.08155,-21.39825
21.927412033,-30.30707,-22.78711,8.24187900000002,0.9533647,-0.03328787,0.007974171,-51.85325,-35.08155,-21.39825
21.937409878,-27.47654,-22.31229,6.83955100000002,0.9852647,-0.1734876,0.0711267,-52.62749,-34.30904,-19.34386
21.947407246,-9.07810300000001,-20.29431,3.851984,1.02452,-0.2917721,0.07061016,-52.62749,-34.30904,-19.34386
21.95740509,17.13505,-19.04791,0.5595631,1.009771,-0.284748,0.07350551,-52.62749,-34.30904,-19.34386
21.967403412,35.71809,-20.11626,-2.488975,1.010293,-0.156186,0.1021861,-52.62749,-34.30904,-19.34386
21.97740078,38.67168,-22.37165,-3.830332,1.002134,-0.05844484,0.1270611,-52.62749,-34.30904,-19.34386
21.987398624,34.05669,-25.27991,-2.732858,0.9958483,-0.06097241,0.1299441,-53.37866,-34.31139,-18.96242
21.997396469,29.2571,-26.76372,-1.574414,0.9785694,-0.04922667,0.1232712,-53.37866,-34.31139,-18.96242
22.007393837,22.54998,-28.30688,-0.5379106,0.9742836,-0.05549794,0.08451559,-53.37866,-34.31139,-18.96242
22.017391682,19.41178,-29.79069,0.31568,0.9640844,-0.0329708,0.01944123,-53.37866,-34.31139,-18.96242
22.027390003,17.31965,-30.85903,0.4376215,0.9694189,-0.006423741,-0.01168235,-53.37866,-34.31139,-18.96242
22.037386894,18.48878,-31.51191,-1.086647,1.010548,-0.04390059,-0.0538591,-53.37169,-35.05521,-16.95886
22.047385216,27.2265,-33.17377,-3.403537,1.02399,-0.06001762,-0.09168588,-53.37169,-35.05521,-16.95886
22.05738306,34.17976,-34.18277,-5.232659,1.006303,0.0008493652,-0.03998451,-53.37169,-35.05521,-16.95886
22.067380428,38.85628,-34.06406,-5.537513,1.013134,0.05262572,-0.02565247,-53.37169,-35.05521,-16.95886
22.077378273,39.53315,-34.71694,-5.3546,1.008069,0.0618848,-0.06488926,-54.5128,-34.66586,-14.90521
22.087375641,34.36436,-35.96334,-4.561981,0.9741367,0.1045641,-0.05383385,-54.5128,-34.66586,-14.90521
22.097373486,27.28804,-36.3788,-4.135185,1.003706,0.06013461,-0.08737427,-54.5128,-34.66586,-14.90521
22.107371807,22.11925,-35.48852,-2.610917,1.029623,0.02810954,-0.1381403,-54.5128,-34.66586,-14.90521
22.117369175,17.56579,-34.30147,-2.245092,1.002748,0.006245397,-0.1328235,-54.5128,-34.66586,-14.90521
22.12736702,17.68885,-31.80867,-1.696355,0.9942961,-0.01101726,-0.1423758,-54.13108,-35.40687,-12.89887
22.137364864,19.35025,-27.47595,-1.452472,1.002042,-0.03568328,-0.1993335,-54.13108,-35.40687,-12.89887
22.147362232,21.07318,-24.98315,-2.123151,1.005122,-0.07024711,-0.2127301,-54.13108,-35.40687,-12.89887
22.157360077,25.07284,-23.08387,-2.8548,1.014154,-0.08416534,-0.2132208,-54.13108,-35.40687,-12.89887
22.167358398,28.39564,-20.41302,-3.403537,1.031803,-0.03746798,-0.1931634,-54.13108,-35.40687,-12.89887
22.17735529,28.94943,-18.21698,-3.525478,1.02824,-0.002799651,-0.167323,-54.86572,-36.53667,-10.89884
22.187353611,29.68783,-17.08928,-2.732858,1.028375,0.0675461,-0.1802629,-54.86572,-36.53667,-10.89884
22.197351456,24.58057,-16.31771,-2.245092,1.0013,0.1084346,-0.1673047,-54.86572,-36.53667,-10.89884
22.207348824,18.79645,-16.97058,-2.184121,0.9962832,0.09126273,-0.1213482,-54.86572,-36.53667,-10.89884
22.217346668,15.53519,-17.26734,-1.818297,1.019705,0.03786053,-0.1132395,-54.86572,-36.53667,-10.89884
22.22734499,15.78132,-16.49576,-1.574414,1.011722,-0.004088166,-0.1132148,-54.87108,-36.52632,-9.673332
22.237341881,17.87345,-16.61447,-1.452472,0.9988691,0.00597233,-0.1012306,-54.87108,-36.52632,-9.673332
22.247340202,17.31965,-16.67382,-1.818297,0.999577,-0.006390316,-0.1261146,-54.87108,-36.52632,-9.673332
22.257338047,16.21206,-16.91123,-1.452472,0.9940709,-0.02519297,-0.1509861,-54.87108,-36.52632,-9.673332
22.267335415,15.53519,-17.02993,-1.147618,0.9774116,0.006318502,-0.1232078,-54.87108,-36.52632,-9.673332
22.27733326,15.78132,-16.73317,-0.903735200000002,0.9848016,0.0021349,-0.1184338,-55.61807,-36.90195,-8.451359
22.287331104,18.05805,-16.13965,-0.05014454,0.9912506,-0.03053264,-0.1442798,-55.61807,-36.90195,-8.451359
22.297328472,19.41178,-15.78353,0.3766508,0.9752263,-0.007493332,-0.1409077,-55.61807,-36.90195,-8.451359
22.307326794,20.64245,-15.66483,0.7424754,0.9775642,0.0236268,-0.1437913,-55.61807,-36.90195,-8.451359
22.317323685,20.82705,-15.96159,0.3766508,1.024258,0.002147758,-0.1491315,-55.61807,-36.90195,-8.451359
22.327322006,20.70398,-15.0713,0.681504599999997,1.009891,0.01439751,-0.1601168,-55.62512,-36.88833,-6.83885
22.337319851,18.55032,-15.30871,0.5595631,0.9859051,0.02027157,-0.1567265,-55.62512,-36.88833,-6.83885
22.347317219,14.48913,-15.66483,0.1937385,1.006514,0.01228176,-0.1715962,-55.62512,-36.88833,-6.83885
22.357315064,10.61253,-15.78353,0.0717969800000001,1.016981,-0.02499817,-0.1261402,-55.62512,-36.88833,-6.83885
22.367313385,13.19693,-15.19001,-1.025677,1.025781,-0.1054038,-0.1696852,-55.62512,-36.88833,-6.83885
22.377310276,16.21206,-14.29972,-1.696355,1.021678,-0.1213684,-0.2060457,-55.62431,-37.25507,-5.224315
22.387308598,15.35059,-14.77454,-2.671887,0.9984479,-0.07661631,-0.1509805,-55.62431,-37.25507,-5.224315
22.397306442,18.05805,-14.71519,-3.525478,1.00097,-0.05516751,-0.1490761,-55.62431,-37.25507,-5.224315
22.40730381,20.64245,-15.19001,-4.622952,0.9918626,-0.01099954,-0.1351929,-55.62431,-37.25507,-5.224315
22.417301655,22.48845,-16.25835,-5.3546,0.9962085,0.01662708,-0.1524364,-55.62431,-37.25507,-5.224315
22.4272995,21.07318,-17.02993,-5.29363,0.9823732,0.02718042,-0.1375791,-56.01058,-36.87044,-4.390619
22.437296867,21.31931,-18.21698,-4.988776,0.9761531,-0.005097948,-0.1466529,-56.01058,-36.87044,-4.390619
22.447295189,21.13471,-18.03892,-5.232659,0.9650789,-0.03925903,-0.1916109,-56.01058,-36.87044,-4.390619
22.457293034,21.93465,-18.21698,-5.415571,0.9967304,-0.03819162,-0.1964521,-56.01058,-36.87044,-4.390619
22.467290402,18.91952,-18.75115,-4.379068,1.042283,0.02821492,-0.1539554,-56.01058,-36.87044,-4.390619
22.477288246,13.25846,-17.50475,-3.70839,1.016189,0.01728501,-0.1237568,-55.6429,-36.85401,-2.775331
22.487286091,16.27359,-16.97058,-4.196156,0.9858776,-0.03110375,-0.1949993,-55.6429,-36.85401,-2.775331
22.497283459,18.48878,-17.86087,-4.318098,0.9715548,-0.02134425,-0.2126842,-55.6429,-36.85401,-2.775331
22.50728178,15.53519,-17.50475,-4.196156,0.9674418,-0.01044186,-0.2337371,-55.6429,-36.85401,-2.775331
22.517279625,12.33546,-17.14864,-4.013244,0.9639831,-0.0074147,-0.2141103,-55.6429,-36.85401,-2.775331
22.527276993,11.90473,-17.5641,-4.257127,0.970876,-0.01115289,-0.2126856,-55.63225,-37.60491,-1.610271
22.537274838,11.04326,-18.45439,-4.988776,0.9716923,-0.002192426,-0.1911534,-55.63225,-37.60491,-1.610271
22.547272682,10.30486,-20.17561,-5.049747,0.9788066,0.00890203,-0.1624541,-55.63225,-37.60491,-1.610271
22.55727005,7.22820399999999,-21.65942,-4.622952,0.9911987,-0.00266049,-0.1782658,-55.63225,-37.60491,-1.610271
22.567267895,4.459208,-23.14323,-4.866835,0.9941807,-0.006143531,-0.1935845,-55.63225,-37.60491,-1.610271
22.577265263,1.874812,-24.21157,-4.744893,0.966503,0.01397704,-0.2184274,-55.26286,-37.59175,-0.3819838
22.587263584,-2.92478,-24.9238,-4.561981,0.9723414,0.03951831,-0.2543373,-55.26286,-37.59175,-0.3819838
22.597261429,-9.13963599999997,-24.80509,-3.891303,0.9577439,0.06382431,-0.2748969,-55.26286,-37.59175,-0.3819838
22.607258797,-15.04683,-24.98315,-3.464507,0.9740132,0.001980314,-0.2710807,-55.26286,-37.59175,-0.3819838
22.617256641,-13.93923,-24.33027,-3.159653,0.9812895,-0.04779632,-0.2567233,-55.26286,-37.59175,-0.3819838
22.627254486,-7.90897099999997,-23.43999,-3.403537,1.003318,-0.05168977,-0.198853,-54.50302,-38.33648,0.8531399
22.637251854,0.5826145,-21.65942,-3.647419,1.013678,-0.05971633,-0.2486409,-54.50302,-38.33648,0.8531399
22.647250175,2.920877,-22.84646,-3.952273,0.9829714,0.04551232,-0.2064998,-54.50302,-38.33648,0.8531399
22.65724802,-1.755648,-22.78711,-3.891303,0.993879,0.06115513,-0.219923,-54.50302,-38.33648,0.8531399
22.667245388,-7.17057299999998,-22.37165,-3.098683,0.9774992,0.07519388,-0.2964702,-55.25616,-38.33503,1.686082
22.677243233,-19.47722,-23.97416,-1.147618,1.026075,0.05632994,-0.3386647,-55.25616,-38.33503,1.686082
22.687241077,-27.415,-23.49934,-1.025677,1.01268,-0.03407859,-0.3122964,-55.25616,-38.33503,1.686082
22.697238445,-23.29228,-21.60007,-1.940238,0.9663284,-0.05761964,-0.3418813,-55.25616,-38.33503,1.686082
22.707236767,-23.23075,-21.83747,-2.123151,0.9324409,0.06184464,-0.2772452,-55.25616,-38.33503,1.686082
22.717234611,-26.12281,-22.5497,-3.830332,0.9538083,-0.01208226,-0.2772634,-55.2691,-37.94486,2.84506
22.727231979,-21.38475,-23.85546,-4.50101,0.9707115,-0.02883426,-0.232781,-55.2691,-37.94486,2.84506
22.737229824,-19.60028,-25.69538,-5.171688,1.001331,-0.04907561,-0.1744429,-55.2691,-37.94486,2.84506
22.747227669,-15.04683,-26.58566,-6.87886999999998,0.983012,-0.1124793,-0.2131593,-55.2691,-37.94486,2.84506
22.757225037,-10.43183,-28.60365,-7.61051899999998,0.9398087,-0.04407131,-0.2379875,-55.2691,-37.94486,2.84506
22.767222881,-12.33936,-29.73134,-8.03731400000003,0.951651,-0.0009175211,-0.2739125,-54.88651,-38.32241,2.849869
22.777221203,-15.10836,-30.91838,-8.34216799999998,0.9488871,0.01575071,-0.3050194,-54.88651,-38.32241,2.849869
22.787218571,-14.30843,-31.3932,-9.13478800000001,0.9558293,-0.01748514,-0.3409161,-54.88651,-38.32241,2.849869
22.797216415,-10.80103,-31.57126,-9.80546599999998,0.9514196,0.03599535,-0.3284792,-54.88651,-38.32241,2.849869
22.80721426,-11.41637,-31.98673,-10.84197,0.9062263,0.08127569,-0.327455,-54.88651,-38.32241,2.849869
22.817211628,-14.80069,-33.29248,-11.14682,0.9163525,0.1131497,-0.3179093,-54.884,-38.69241,4.077403
22.827209473,-19.16955,-33.41119,-11.75653,0.9512477,-0.006017386,-0.299275,-54.884,-38.69241,4.077403
22.837207794,-12.46243,-33.41119,-12.06138,0.9754599,-0.1289823,-0.3538432,-54.884,-38.69241,4.077403
22.847205162,-7.04750599999997,-34.83564,-12.42721,0.9673795,-0.009306421,-0.3217953,-54.884,-38.69241,4.077403
22.857203007,-8.33970399999999,-34.65759,-13.15886,0.9427092,0.03222429,-0.349999,-54.884,-38.69241,4.077403
22.867200851,-13.8777,-35.90398,-13.2808,0.9213513,0.08002897,-0.3370525,-54.49889,-39.43996,5.309745
22.877198219,-20.33868,-36.20074,-14.19536,0.9263545,0.07269394,-0.3528523,-54.49889,-39.43996,5.309745
22.887196064,-25.44594,-35.84463,-13.95148,0.9394241,0.1814356,-0.3399816,-54.49889,-39.43996,5.309745
22.897194386,-40.09085,-36.14139,-13.95148,0.9517272,0.3045648,-0.3462563,-54.49889,-39.43996,5.309745
22.907191277,-56.76636,-37.15038,-13.89051,1.008357,0.2218746,-0.3180977,-54.49889,-39.43996,5.309745
22.917189598,-63.47348,-38.45613,-13.95148,1.019499,-0.009078457,-0.3563437,-54.13568,-39.04971,6.149002
22.927186966,-55.84336,-40.118,-14.56119,1.033503,-0.15877,-0.3888728,-54.13568,-39.04971,6.149002
22.937184811,-42.85985,-39.64318,-15.71963,1.053298,-0.1236017,-0.411888,-54.13568,-39.04971,6.149002
22.947182655,-41.75225,-42.55145,-14.86604,1.037868,-0.05514849,-0.438679,-54.13568,-39.04971,6.149002
22.957180023,-45.32118,-39.16837,-13.40274,1.086477,0.002395074,-0.4684503,-54.13568,-39.04971,6.149002
22.967177868,-45.56731,-36.02269,-11.69556,1.047141,0.07226711,-0.5009429,-54.09807,-40.94822,6.546144
22.977176189,-48.82857,-31.51191,-10.84197,0.976524,0.1210326,-0.5419898,-54.09807,-40.94822,6.546144
22.987173557,-48.89011,-27.83206,-9.92740700000002,0.930654,0.202211,-0.546238,-54.09807,-40.94822,6.546144
22.997171402,-48.33631,-24.33027,-11.63459,0.8818455,0.3107941,-0.5232092,-54.09807,-40.94822,6.546144
23.007169247,-48.45937,-21.95618,-12.42721,0.8712698,0.3041855,-0.47916,-54.09807,-40.94822,6.546144
23.017166615,-43.59825,-19.46338,-13.2808,0.8399399,0.2077132,-0.4924807,-52.95194,-42.07758,6.947572
23.027164459,-38.86019,-18.45439,-14.13439,0.8501624,0.2084757,-0.484363,-52.95194,-42.07758,6.947572
23.037162781,-40.58312,-17.86087,-15.04895,0.8703792,0.1708498,-0.4446667,-52.95194,-42.07758,6.947572
23.047160149,-40.52159,-16.43641,-15.7806,0.916835,0.03299889,-0.4217405,-52.95194,-42.07758,6.947572
23.057157993,-35.96813,-15.30871,-14.62216,0.9408321,-0.0261233,-0.455746,-52.95194,-42.07758,6.947572
23.067155838,-31.4762,-15.36807,-14.25633,0.8798146,-0.01979406,-0.428841,-52.60526,-40.55988,6.168236
23.077153206,-24.39988,-15.24936,-14.19536,0.9039908,0.01691961,-0.3987423,-52.60526,-40.55988,6.168236
23.087151051,-22.92308,-14.65584,-14.13439,0.9244471,0.1205968,-0.4241692,-52.60526,-40.55988,6.168236
23.097149372,-25.19981,-14.59649,-14.56119,0.9430141,0.1437591,-0.4289933,-52.60526,-40.55988,6.168236
23.107146263,-22.49235,-13.64685,-14.19536,0.9650468,0.1641136,-0.4295155,-52.60526,-40.55988,6.168236
23.117144585,-23.04615,-13.05332,-13.46371,1.014654,0.2208892,-0.4391882,-52.17548,-43.21956,6.185213
23.127142429,-23.66148,-13.23138,-13.34177,0.9514359,0.2408822,-0.4012756,-52.17548,-43.21956,6.185213
23.137139797,-20.89248,-14.06231,-14.3173,0.8955396,0.2086698,-0.3490051,-52.17548,-43.21956,6.185213
23.147137642,-17.32355,-15.48677,-15.71963,0.9197083,0.1938604,-0.3203288,-52.17548,-43.21956,6.185213
23.157135487,-13.5085,-15.54612,-16.32934,0.9330741,0.1823039,-0.3375779,-52.17548,-43.21956,6.185213
23.167132855,-9.324236,-15.84289,-16.02448,0.8979311,0.1840077,-0.393989,-51.78304,-43.98127,5.740548
23.177131176,-6.30910700000001,-15.84289,-15.90254,0.879261,0.2173915,-0.4226797,-51.78304,-43.98127,5.740548
23.187129021,-7.232106,-16.02094,-15.7806,0.8769224,0.2367645,-0.4777168,-51.78304,-43.98127,5.740548
23.197126389,-8.27817099999997,-15.96159,-15.96351,0.8795235,0.2281128,-0.4729333,-51.78304,-43.98127,5.740548
23.207124233,-7.90897099999997,-15.54612,-16.26837,0.857576,0.203483,-0.4618815,-51.3847,-45.11953,5.749412
23.217122078,-8.03203799999998,-16.67382,-16.45128,0.8391159,0.2008245,-0.4470128,-51.3847,-45.11953,5.749412
23.227119446,-8.58583600000001,-18.33569,-16.39031,0.8552972,0.1703554,-0.4130543,-51.3847,-45.11953,5.749412
23.237117767,-5.324575,-20.0569,-16.14643,0.8725349,0.1083507,-0.4288613,-51.3847,-45.11953,5.749412
23.247115612,-2.494047,-22.84646,-15.04895,0.8837548,0.1083145,-0.4039949,-51.3847,-45.11953,5.749412
23.25711298,0.3364816,-25.75473,-14.68313,0.8815298,0.09788688,-0.370488,-51.01981,-44.73254,6.201667
23.267110825,4.459208,-28.90041,-14.25633,0.8805451,0.1247258,-0.356136,-51.01981,-44.73254,6.201667
23.277108669,3.16701,-33.35183,-12.73206,0.886582,0.2187546,-0.3427705,-51.01981,-44.73254,6.201667
23.287106037,-2.55558,-38.33743,-11.45168,0.9337521,0.249793,-0.3452537,-51.01981,-44.73254,6.201667
23.297104359,-9.81650199999998,-42.19534,-9.378671,0.9614794,0.277886,-0.3620594,-51.01981,-44.73254,6.201667
23.307102203,-17.20049,-45.63777,-8.098285,0.9674926,0.2693719,-0.3496247,-50.25378,-45.85437,7.82582
23.317099571,-21.20015,-48.90215,-7.12275300000002,0.9538236,0.2448354,-0.3462445,-50.25378,-45.85437,7.82582
23.327097416,-23.90761,-52.582,-7.00081100000001,0.9478733,0.2242732,-0.3500575,-50.25378,-45.85437,7.82582
23.337095261,-25.01521,-56.2025,-7.61051899999998,0.9687842,0.2010375,-0.3323806,-50.25378,-45.85437,7.82582
23.347092629,-24.21528,-59.2294700000002,-8.829934,1.009226,0.1750177,-0.3424945,-50.25378,-45.85437,7.82582
23.357090473,-25.56901,-63.3841299999998,-11.20779,1.020735,0.1329286,-0.3468109,-49.89368,-45.45812,9.37458
23.367087841,-29.01487,-70.3877100000001,-12.67109,1.027725,0.04606126,-0.3491937,-49.89368,-45.45812,9.37458
23.377086163,-21.13862,-72.0495800000002,-12.54915,1.07074,-0.03771636,-0.3042609,-49.89368,-45.45812,9.37458
23.387084007,-3.355512,-74.7204399999999,-16.45128,0.9910998,-0.1339723,-0.4548487,-49.89368,-45.45812,9.37458
23.397081375,22.18078,-75.6700700000003,-18.09749,0.9574427,-0.1345558,-0.5519409,-49.89368,-45.45812,9.37458
23.40707922,39.47161,-80.7150300000001,-17.91458,0.8911799,-0.03302177,-0.6241165,-49.53384,-45.06134,10.98784
23.417077065,45.44034,-82.6142999999999,-17.00002,0.8596882,0.0603743,-0.6518431,-49.53384,-45.06134,10.98784
23.427074432,45.748,-80.2995600000001,-13.76857,0.841343,0.1010308,-0.736051,-49.53384,-45.06134,10.98784
23.437072754,40.51768,-76.1448900000003,-7.91537200000002,0.8755546,0.1247453,-0.6083369,-49.53384,-45.06134,10.98784
23.447070599,28.3341,-65.75823,-0.05014454,0.9331299,0.1242787,-0.4653428,-49.53384,-45.06134,10.98784
23.457067967,6.612871,-53.70969,9.52226500000001,0.9555863,0.04779291,-0.3227466,-48.43078,-45.01204,15.83371
23.467065811,-9.63190200000001,-34.71694,18.60691,0.9499074,-0.0340721,-0.1231494,-48.43078,-45.01204,15.83371
23.477063656,-8.955036,-9.551534,24.4601,0.9188761,-0.117153,-0.001515632,-48.43078,-45.01204,15.83371
23.487061024,-0.2173175,16.56351,28.4232,0.9008229,-0.1410138,0.03202231,-48.43078,-45.01204,15.83371
23.497058869,8.76653499999999,41.96632,31.59368,0.922227,-0.06069908,0.05350024,-48.43078,-45.01204,15.83371
23.50705719,12.27393,65.7072699999998,34.82513,0.9753678,0.01409456,-0.01265516,-48.0412,-46.1334,17.84208
23.517054558,11.474,86.4806000000001,38.48338,0.9952689,0.0417907,-0.1088908,-48.0412,-46.1334,17.84208
23.527052403,10.24333,101.7935,41.53191,0.996909,0.03044372,-0.1840271,-48.0412,-46.1334,17.84208
23.537050247,14.18146,114.2575,42.8123,1.020676,0.007511629,-0.2984423,-48.0412,-46.1334,17.84208
23.547047615,23.22684,122.8043,42.50745,1.036826,0.02655681,-0.4291267,-48.0412,-46.1334,17.84208
23.55704546,33.07216,128.9769,39.8857,1.02555,0.1048748,-0.5549927,-50.3028,-45.02937,15.4328
23.567043781,40.51768,128.5021,36.47134,1.01254,0.2241444,-0.6626804,-50.3028,-45.02937,15.4328
23.577041149,35.34889,124.0507,33.72766,1.058472,0.2956845,-0.6441144,-50.3028,-45.02937,15.4328
23.587038994,27.28804,119.6586,32.44727,1.03886,0.328534,-0.6230313,-50.3028,-45.02937,15.4328
23.597036839,19.71945,115.0291,31.47174,1.002039,0.3178255,-0.598557,-50.3028,-45.02937,15.4328
23.607034207,14.30453,109.0345,31.28883,0.9657916,0.3013706,-0.6190683,-53.68577,-43.57412,10.56214
23.617032051,11.22786,102.0903,30.86203,0.9550717,0.3010491,-0.631014,-53.68577,-43.57412,10.56214
23.627030373,5.62834,95.0866900000002,29.64261,0.9856088,0.2844042,-0.6042627,-53.68577,-43.57412,10.56214
23.637027264,2.859344,89.7449700000003,28.48417,0.9894909,0.2591461,-0.6114416,-53.68577,-43.57412,10.56214
23.647025585,2.182479,81.9698200000001,27.87446,0.9377148,0.2395872,-0.6190034,-53.68577,-43.57412,10.56214
23.65702343,2.367078,77.5777400000002,27.26476,0.9281744,0.2551594,-0.5960191,-57.10806,-40.21709,5.681339
23.667020798,-2.370981,75.3223499999999,27.81349,0.9260724,0.2649648,-0.5290174,-57.10806,-40.21709,5.681339
23.677018642,-7.29363900000002,74.8475299999999,28.72805,0.8967313,0.2451844,-0.503118,-57.10806,-40.21709,5.681339
23.687016964,-11.53943,74.4914199999997,29.03291,0.8960206,0.1805279,-0.4514139,-57.10806,-40.21709,5.681339
23.697013855,-9.81650199999998,76.6281099999999,28.78902,0.9519475,0.1352281,-0.4246995,-57.10806,-40.21709,5.681339
23.707012176,-7.90897099999997,79.9518399999998,28.36223,0.9990342,0.1200794,-0.3764415,-58.62688,-38.36415,1.209555
23.717010021,-5.201509,82.7413899999999,27.02087,1.028512,0.1333489,-0.3707534,-58.62688,-38.36415,1.209555
23.727007389,-3.909311,84.2845599999999,24.94787,1.057761,0.1330645,-0.3588399,-58.62688,-38.36415,1.209555
23.737005234,-0.832649800000001,83.3349199999998,23.17971,1.024061,0.1365573,-0.3822323,-58.62688,-38.36415,1.209555
23.747003078,0.767214200000001,81.2575799999998,22.08224,0.9944764,0.1812662,-0.371185,-58.62688,-38.36415,1.209555
23.757000446,-1.447982,80.4860099999999,21.77739,0.9831925,0.2118857,-0.3462873,-60.46075,-36.14301,-4.42758
23.766998768,-6.49370699999998,80.54536,21.5335,0.9568372,0.2143815,-0.3352347,-60.46075,-36.14301,-4.42758
23.776996612,-10.43183,80.0111800000002,20.80186,0.9377291,0.1933752,-0.3591248,-60.46075,-36.14301,-4.42758
23.78699398,-11.97016,79.5957199999999,18.78982,0.9283525,0.1737742,-0.3567105,-60.46075,-36.14301,-4.42758
23.796991825,-11.35483,79.2989599999999,15.92419,0.9529831,0.1340856,-0.3395145,-60.48479,-33.90555,-9.728773
23.80698967,-8.70890300000002,79.2989599999999,13.05857,0.9812155,0.1106928,-0.3017502,-60.48479,-33.90555,-9.728773
23.816987038,-2.55558,80.9014700000002,10.25391,1.010659,0.07466315,-0.2668562,-60.48479,-33.90555,-9.728773
23.826985359,6.18213799999999,83.5723299999999,7.69314200000002,1.009343,0.06762876,-0.2362232,-60.48479,-33.90555,-9.728773
23.836983204,13.75073,85.8277200000001,6.473727,0.9856741,0.08284285,-0.2218286,-60.48479,-33.90555,-9.728773
23.846980572,19.53485,87.5489300000001,6.29081499999999,0.9598474,0.1092041,-0.2059973,-60.50295,-32.04463,-14.57644
23.856978416,20.39631,89.0327499999999,7.14440499999997,0.9521025,0.1331386,-0.1758397,-60.50295,-32.04463,-14.57644
23.866976261,18.67338,90.5759100000002,7.63217200000002,0.9696735,0.1314981,-0.1806557,-60.50295,-32.04463,-14.57644
23.876973629,17.19659,92.0597199999998,7.87605399999997,0.9680539,0.1396262,-0.1916622,-60.50295,-32.04463,-14.57644
23.886971474,14.91986,90.5759100000002,6.473727,0.9365203,0.1578672,-0.2011834,-60.50295,-32.04463,-14.57644
23.896969795,14.30453,87.3708799999998,2.75451,0.9353336,0.117651,-0.1858566,-59.447,-30.92992,-18.63816
23.906967163,23.41144,84.6406700000001,-0.8427644,0.9457083,0.0580062,-0.1944737,-59.447,-30.92992,-18.63816
23.916965008,37.25642,83.8097399999999,-4.440039,0.9467219,0.05539913,-0.2160107,-59.447,-30.92992,-18.63816
23.926962852,47.71707,82.1478699999998,-7.30566500000003,0.9078259,0.1020205,-0.2413194,-59.447,-30.92992,-18.63816
23.93696022,50.7322,80.1892499999998,-8.28119799999998,0.8900907,0.1644618,-0.2298188,-59.447,-30.92992,-18.63816
23.946958065,45.07114,78.0525600000003,-7.244694,0.8863172,0.1838644,-0.22551,-58.31734,-30.20163,-23.4714
23.956956387,36.45649,76.6874500000003,-4.379068,0.887886,0.1780027,-0.2322113,-58.31734,-30.20163,-23.4714
23.966953754,24.88824,74.4320700000002,-0.4159691,0.8679315,0.1765927,-0.2369619,-58.31734,-30.20163,-23.4714
23.976951599,9.62799900000003,70.9896200000002,3.54713,0.8599659,0.1857121,-0.2321646,-58.31734,-30.20163,-23.4714
23.986949444,-6.862906,65.1137399999999,6.22984400000002,0.8581669,0.1259539,-0.2268817,-58.31734,-30.20163,-23.4714
23.996946812,-14.73916,59.1191599999999,7.205376,0.8820834,0.04637331,-0.2130242,-56.04691,-30.59235,-26.6777
24.006944656,-13.1393,53.89615,5.559165,0.9191144,-0.03180182,-0.2331688,-56.04691,-30.59235,-26.6777
24.016942978,-3.601645,49.86019,3.425189,0.9222479,-0.04365692,-0.2609286,-56.04691,-30.59235,-26.6777
24.026940346,5.689873,44.81524,3.669072,0.892416,0.01337019,-0.283863,-56.04691,-30.59235,-26.6777
24.03693819,3.905409,37.69295,6.22984400000002,0.8798395,0.1115178,-0.3111452,-56.04691,-30.59235,-26.6777
24.046936035,-10.0011,27.89981,11.59527,0.8642581,0.1626847,-0.3149598,-53.79391,-30.21909,-29.50106
24.056933403,-26.98427,17.6912,17.32652,0.7688665,0.155638,-0.3478135,-53.79391,-30.21909,-29.50106
24.066931248,-43.78285,5.108501,22.87486,0.7147274,0.1570015,-0.4003628,-53.79391,-30.21909,-29.50106
24.076929569,-58.3046899999999,-7.65225799999999,25.55757,0.6527616,0.135394,-0.3973777,-53.79391,-30.21909,-29.50106
24.08692646,-64.58108,-18.39504,25.25272,0.7352098,0.1581519,-0.3190409,-53.79391,-30.21909,-29.50106
24.096924782,-66.2424799999998,-25.93279,21.10671,0.9150791,0.1284509,-0.3423184,-52.68124,-29.15368,-31.94948
24.106922627,-62.4274200000001,-36.20074,17.5704,1.04664,-0.05564099,-0.4583158,-52.68124,-29.15368,-31.94948
24.116919994,-40.64465,-46.52806,8.36382100000002,1.343571,-0.06176763,-0.3358378,-52.68124,-29.15368,-31.94948
24.126917839,-2.186381,-49.19891,-9.01284600000001,1.842099,0.02641029,0.1504609,-52.68124,-29.15368,-31.94948
24.136915684,49.68613,-30.97774,-6.93983999999998,2.027984,-0.3217818,0.1985627,-52.68124,-29.15368,-31.94948
24.146913052,123.2183,-19.70079,-6.57401600000003,1.219535,0.143382,0.04670791,-53.52087,-24.96832,-31.13884
24.156911373,114.296,-25.27991,-4.135185,0.7524496,0.520394,0.03833214,-53.52087,-24.96832,-31.13884
24.166909218,61.5005100000001,-34.59823,-0.720822899999998,0.7964253,0.5380505,-0.03879981,-53.52087,-24.96832,-31.13884
24.176906586,4.213075,-35.48852,6.10790299999999,1.033139,0.3097507,-0.06212533,-53.52087,-24.96832,-31.13884
24.18690443,-27.29194,-34.18277,12.38789,1.069915,0.03772807,-0.07695525,-53.52087,-24.96832,-31.13884
24.196902275,-30.86087,-30.74033,12.5708,1.071376,-0.2497557,-0.1649418,-54.6199,-26.85129,-27.91203
24.206899643,-10.80103,-28.54429,8.48576300000002,1.01081,-0.2942625,-0.1715248,-54.6199,-26.85129,-27.91203
24.216897965,17.31965,-23.6774,2.998394,0.9963002,-0.2205535,-0.1040393,-54.6199,-26.85129,-27.91203
24.226895809,34.97969,-20.53172,0.986358399999998,0.9779095,-0.07026526,-0.0499668,-54.6199,-26.85129,-27.91203
24.236893177,38.24095,-18.27633,1.657037,0.9760128,0.08209431,-0.0705815,-54.6199,-26.85129,-27.91203
24.246891022,31.4723,-16.37706,3.425189,0.9720451,0.2141911,-0.1237305,-56.1144,-27.23636,-27.14712
24.256888866,12.2124,-16.37706,5.80304899999998,0.9854428,0.2790202,-0.1309492,-56.1144,-27.23636,-27.14712
24.266886234,-6.06297400000002,-15.54612,7.14440499999997,1.037388,0.186637,-0.08985845,-56.1144,-27.23636,-27.14712
24.276884556,-10.7395,-15.36807,6.59566799999998,1.038935,0.001362486,-0.05439881,-56.1144,-27.23636,-27.14712
24.286882401,-3.109379,-15.13066,4.949458,1.026824,-0.07913517,-0.009849397,-56.1144,-27.23636,-27.14712
24.296879768,4.151542,-16.91123,3.364218,1.001621,-0.08493365,0.04810373,-56.49619,-27.22555,-25.53739
24.306877613,7.53587,-20.17561,2.144803,0.9785649,-0.07578782,0.08834197,-56.49619,-27.22555,-25.53739
24.316875458,10.48946,-24.03351,1.169271,0.970161,-0.09541783,0.08549021,-56.49619,-27.22555,-25.53739
24.326872826,15.71979,-27.35724,0.31568,0.9863189,-0.1002036,0.05866301,-56.49619,-27.22555,-25.53739
24.33687067,21.81158,-29.61263,-0.720822899999998,0.9951576,-0.07834149,0.03902036,-56.49986,-27.21847,-24.69889
24.346868992,27.0419,-30.91838,-1.635384,0.9927901,-0.05678847,0.009825798,-56.49986,-27.21847,-24.69889
24.35686636,29.6263,-33.05507,-2.245092,1.009332,-0.02990594,-0.008874428,-56.49986,-27.21847,-24.69889
24.366864204,31.22616,-32.93637,-2.123151,1.001738,0.03692939,-0.01701419,-56.49986,-27.21847,-24.69889
24.376862049,27.7803,-33.17377,-1.818297,0.9902252,0.07890429,-0.02514072,-56.49986,-27.21847,-24.69889
24.386859417,21.01165,-34.95435,-1.452472,1.021185,0.09128821,-0.01323348,-57.25808,-27.2072,-22.70494
24.396857262,16.33512,-36.2601,-0.8427644,1.021955,0.07626557,-0.0103595,-57.25808,-27.2072,-22.70494
24.406855583,14.61219,-36.85362,-0.4159691,0.9960252,0.05581211,-0.01222333,-57.25808,-27.2072,-22.70494
24.416852951,13.56613,-38.15937,0.01082622,0.975911,0.03687437,-0.02031919,-57.25808,-27.2072,-22.70494
24.426850796,13.56613,-39.82124,0.1937385,0.9937002,-0.002087185,-0.01507583,-57.25808,-27.2072,-22.70494
24.436848641,15.78132,-41.3644,-0.2330568,1.005067,-0.03706095,-0.03805829,-57.62614,-27.95329,-20.63965
24.446846008,18.55032,-42.55145,0.3766508,1.014827,-0.03785756,-0.0399894,-57.62614,-27.95329,-20.63965
24.456843853,25.38051,-41.60181,0.4985923,1.002279,-0.01805026,-0.02561535,-57.62614,-27.95329,-20.63965
24.466842175,27.53417,-39.16837,0.681504599999997,0.9850531,-0.01081826,-0.1007236,-57.62614,-27.95329,-20.63965
24.476839066,23.22684,-39.10901,1.169271,0.9701327,-0.02245733,-0.1720024,-57.62614,-27.95329,-20.63965
24.486837387,18.67338,-40.65217,1.352183,0.9831712,0.009925053,-0.1662906,-58.7608,-27.94157,-18.26148
24.496835232,14.91986,-38.21873,0.5595631,1.010306,-0.007316904,-0.144319,-58.7608,-27.94157,-18.26148
24.5068326,18.98105,-37.15038,0.4985923,1.028844,-0.06046564,-0.1510377,-58.7608,-27.94157,-18.26148
24.516830444,25.01131,-35.19176,-0.2330568,1.012156,-0.05470619,-0.175896,-58.7608,-27.94157,-18.26148
24.526828766,25.01131,-35.07305,-0.964705900000002,0.9884529,-0.01106691,-0.1351869,-58.7608,-27.94157,-18.26148
24.536825657,31.16463,-32.5209,-1.086647,1.009843,-0.0360809,-0.2065256,-59.50697,-28.68394,-15.42498
24.546823979,35.71809,-30.20616,-0.4769399,0.9883423,0.01805918,-0.2443096,-59.50697,-28.68394,-15.42498
24.556821823,34.24129,-27.95077,-0.5379106,1.006914,0.06623604,-0.2768975,-59.50697,-28.68394,-15.42498
24.566819191,27.34957,-23.85546,0.620533899999998,0.9949338,0.1057272,-0.3429303,-59.50697,-28.68394,-15.42498
24.576817036,17.62732,-21.54071,1.474125,0.9982455,0.1632697,-0.3281151,-59.50697,-28.68394,-15.42498
24.586814881,8.88960099999997,-18.39504,2.449656,0.9868976,0.1700978,-0.3539402,-59.88876,-28.67313,-13.81525
24.596812248,-0.586516899999998,-15.30871,3.181306,1.019154,0.1391839,-0.3501598,-59.88876,-28.67313,-13.81525
24.60681057,-6.61677399999998,-11.86628,4.095867,1.017769,0.109751,-0.3243067,-59.88876,-28.67313,-13.81525
24.616808414,-9.07810300000001,-8.66124800000001,5.437224,0.985386,0.0954215,-0.3333395,-59.88876,-28.67313,-13.81525
24.626805782,-17.01589,-7.71161000000001,7.26634699999998,0.9928849,0.1638603,-0.3051342,-59.88876,-28.67313,-13.81525
24.636803627,-28.39954,-6.64326800000002,8.79061600000001,1.023815,0.1535457,-0.2247847,-60.26887,-28.66559,-12.59252
24.646801472,-34.55286,-4.328525,9.339353,1.033468,0.02965994,-0.189355,-60.26887,-28.66559,-12.59252
24.656798839,-30.5532,-2.904068,8.48576300000002,1.01533,-0.06839021,-0.1912125,-60.26887,-28.66559,-12.59252
24.666797161,-22.80001,-2.963421,7.205376,1.006904,-0.1127993,-0.1935792,-60.26887,-28.66559,-12.59252
24.676795006,-17.13896,-3.319535,6.473727,0.9779513,-0.07512574,-0.1562095,-60.26887,-28.66559,-12.59252
24.686792374,-14.06229,-3.556944,5.315282,0.9803438,-0.04692456,-0.159571,-60.22214,-27.90441,-12.59612
24.696790218,-16.21596,-4.150468,4.827517,0.9884937,-0.06647317,-0.1892519,-60.22214,-27.90441,-12.59612
24.706788063,-18.49269,-5.040754,3.730042,1.002819,-0.1025787,-0.183046,-60.22214,-27.90441,-12.59612
24.716785431,-16.27749,-5.040754,2.510627,1.008841,-0.111583,-0.1710898,-60.22214,-27.90441,-12.59612
24.726783276,-15.29296,-5.515573,0.986358399999998,0.9913164,-0.1123494,-0.1638804,-60.22214,-27.90441,-12.59612
24.736781597,-13.3239,-7.05873399999998,-0.4159691,1.001195,-0.09304895,-0.1471525,-60.23169,-27.52079,-12.21114
24.746778965,-11.60097,-8.48319099999998,-1.025677,0.9826994,-0.0416633,-0.1208118,-60.23169,-27.52079,-12.21114
24.75677681,-11.97016,-10.26376,-2.06218,0.9914859,-0.04168176,-0.08876248,-60.23169,-27.52079,-12.21114
24.766774654,-7.66283799999999,-11.80692,-2.91577,0.9878828,-0.08366236,-0.1016669,-60.23169,-27.52079,-12.21114
24.776772022,-1.878715,-13.64685,-3.830332,0.9640817,-0.08819997,-0.1212459,-60.23169,-27.52079,-12.21114
24.786769867,1.813279,-15.30871,-4.683922,0.9696192,-0.07149398,-0.1131241,-60.6143,-27.14324,-12.21595
24.796768188,5.44374,-16.79252,-5.3546,0.9753749,-0.04159841,-0.1509493,-60.6143,-27.14324,-12.21595
24.806765556,6.612871,-18.75115,-6.26916200000001,0.9924831,-0.07044323,-0.1538432,-60.6143,-27.14324,-12.21595
24.816763401,10.42793,-18.98856,-6.695957,0.984155,-0.12183,-0.2284733,-60.6143,-27.14324,-12.21595
24.826761246,15.10446,-17.86087,-7.06178199999999,0.9686202,-0.1002485,-0.2791808,-60.6143,-27.14324,-12.21595
24.836758614,17.44272,-17.86087,-7.12275300000002,0.9594436,0.02484659,-0.2897257,-60.60841,-27.51979,-11.76242
24.846756458,12.27393,-17.02993,-7.366636,0.9885741,0.1086058,-0.2802265,-60.60841,-27.51979,-11.76242
24.85675478,5.44374,-16.55511,-6.63498599999997,1.01408,0.1007357,-0.23959,-60.60841,-27.51979,-11.76242
24.866752148,4.151542,-15.24936,-6.08625000000001,1.020631,0.01148255,-0.2362284,-60.60841,-27.51979,-11.76242
24.876749992,10.61253,-14.35908,-6.513045,1.008504,-0.04307722,-0.2247074,-60.60841,-27.51979,-11.76242
24.886747837,14.67372,-13.05332,-6.63498599999997,0.9886814,-0.02705306,-0.2892847,-60.6076,-27.88652,-10.14788
24.896745205,12.0278,-12.22239,-6.63498599999997,0.9657272,0.02807061,-0.2696373,-60.6076,-27.88652,-10.14788
24.90674305,5.99753899999999,-11.92563,-6.14722099999998,0.9583243,0.03262585,-0.2868543,-60.6076,-27.88652,-10.14788
24.916741371,1.813279,-12.4598,-4.927805,0.9799879,0.02176411,-0.2462103,-60.6076,-27.88652,-10.14788
24.926738262,0.890280700000001,-12.87527,-5.049747,0.9761314,-0.03219457,-0.2399682,-60.98573,-27.88279,-9.376661
24.936736584,4.889941,-12.69721,-5.476542,0.9895474,-0.09809652,-0.248589,-60.98573,-27.88279,-9.376661
24.946734428,11.1048,-13.52814,-5.84236700000003,0.9816571,-0.06714338,-0.247626,-60.98573,-27.88279,-9.376661
24.956731796,10.3664,-13.8249,-6.39110400000002,0.9857619,0.05223466,-0.2213423,-60.98573,-27.88279,-9.376661
24.966729641,3.413143,-14.9526,-6.33013299999999,0.9882556,0.1271759,-0.2151444,-60.98573,-27.88279,-9.376661
24.979227066,-5.263042,-15.72418,-5.476542,1.000041,0.06983522,-0.2405147,-60.9894,-27.87571,-8.538158
24.986724854,-6.43217400000002,-16.31771,-5.049747,0.9924024,0.009361748,-0.2476645,-60.9894,-27.87571,-8.538158
24.996723175,-3.786245,-16.73317,-5.476542,0.9809015,-0.02677251,-0.2418922,-60.9894,-27.87571,-8.538158
25.009220123,3.474676,-16.91123,-6.63498599999997,0.936061,-0.05259059,-0.258079,-60.9894,-27.87571,-8.538158
25.016718388,7.22820399999999,-17.14864,-7.30566500000003,0.9322956,-0.008063632,-0.2695697,-60.9894,-27.87571,-8.538158
25.026716232,4.274609,-18.03892,-7.06178199999999,0.9435098,0.04300633,-0.2887454,-61.35011,-28.63597,-8.149879
25.039213657,-2.74018,-18.92921,-6.695957,0.9752066,0.01599092,-0.2825723,-61.35011,-28.63597,-8.149879
25.049211502,-4.032378,-19.16662,-7.18372300000002,0.972527,-0.02215751,-0.2504932,-61.35011,-28.63597,-8.149879
25.05920887,-2.617113,-19.40403,-7.79343099999999,0.9855365,-0.01401137,-0.238075,-61.35011,-28.63597,-8.149879
25.069206715,-2.432514,-20.76913,-7.85440200000002,0.9813378,0.05320592,-0.2648852,-61.35011,-28.63597,-8.149879
25.079205036,-8.46277000000003,-22.19359,-6.45207400000002,0.9959868,0.1035824,-0.2610951,-60.98072,-28.6228,-6.921595
25.089202404,-11.53943,-23.02452,-7.244694,0.9741946,0.01864627,-0.255771,-60.98072,-28.6228,-6.921595
25.099200249,-4.46311,-23.14323,-8.15925599999997,0.9374192,-0.02166088,-0.2796252,-60.98072,-28.6228,-6.921595
25.109198093,-1.201849,-23.91481,-9.07381699999998,0.9182014,0.04163093,-0.2781723,-60.98072,-28.6228,-6.921595
25.119195461,-4.83231,-24.80509,-9.50061200000003,0.9273431,0.04752002,-0.2915899,-60.98072,-28.6228,-6.921595
25.129193306,-8.70890300000002,-25.45797,-9.56158399999997,0.9258637,-0.003594478,-0.2982742,-61.33686,-29.69621,-6.080125
25.139191628,-8.15510499999999,-26.46696,-10.47614,0.9392104,-0.03985097,-0.3064239,-61.33686,-29.69621,-6.080125
25.149188519,-5.509175,-26.70437,-11.69556,0.9614039,-0.02757444,-0.2873227,-61.33686,-29.69621,-6.080125
25.15918684,-4.216978,-26.94178,-12.12236,0.9594275,-0.0005279654,-0.3012049,-61.33686,-29.69621,-6.080125
25.169184685,-6.001441,-28.95976,-12.18333,0.9638788,0.04832081,-0.2830394,-61.33686,-29.69621,-6.080125
25.179182053,-5.570708,-29.25652,-12.79303,0.9491745,0.02648219,-0.301194,-60.59442,-29.67696,-4.462055
25.189179897,-2.247914,-29.79069,-12.854,0.928225,0.07723596,-0.3384995,-60.59442,-29.67696,-4.462055
25.199177742,-6.30910700000001,-30.56227,-13.76857,0.9228081,0.1319745,-0.3456828,-60.59442,-29.67696,-4.462055
25.20917511,-12.52396,-30.44357,-13.82954,0.9202743,0.1365646,-0.3696084,-60.59442,-29.67696,-4.462055
25.219173431,-21.81548,-32.46155,-13.46371,0.9192231,0.1674959,-0.3327641,-60.59442,-29.67696,-4.462055
25.229171276,-29.261,-34.59823,-14.01245,0.9264859,0.06677846,-0.3093007,-60.22476,-29.66434,-3.29827
25.239168644,-26.24587,-35.84463,-15.04895,0.9183132,-0.09543404,-0.3346092,-60.22476,-29.66434,-3.29827
25.249166489,-18.36962,-36.91298,-16.51225,0.884208,-0.12199,-0.3484216,-60.22476,-29.66434,-3.29827
25.259164333,-11.90863,-38.8716,-19.07302,0.8682126,-0.04829811,-0.3326197,-60.22476,-29.66434,-3.29827
25.269161701,-10.86257,-39.9993,-21.26797,0.9584948,-0.002336635,-0.2844527,-60.22476,-29.66434,-3.29827
25.279160023,-6.49370699999998,-38.51549,-21.99962,1.00616,0.0002145302,-0.3740302,-60.58913,-30.41751,-2.071488
25.289157867,-5.816842,-38.33743,-22.36544,0.9791523,0.1404198,-0.3941194,-60.58913,-30.41751,-2.071488
25.299155235,-11.4779,-36.02269,-23.58486,0.9910933,0.1781775,-0.4357861,-60.58913,-30.41751,-2.071488
25.30915308,-20.52328,-34.24212,-22.85321,0.980354,0.178017,-0.4831463,-60.58913,-30.41751,-2.071488
25.319150925,-30.98393,-33.52989,-22.6703,0.9900376,0.1553603,-0.4841145,-60.5726,-31.54496,-0.4528971
25.329148293,-39.72165,-32.69896,-22.97515,1.019598,0.06090595,-0.4616486,-60.5726,-31.54496,-0.4528971
25.339146614,-41.99838,-30.68097,-23.76777,1.06776,-0.09082025,-0.4717437,-60.5726,-31.54496,-0.4528971
25.349144459,-36.09119,-32.34284,-21.81671,1.065153,-0.133661,-0.4745995,-60.5726,-31.54496,-0.4528971
25.359141827,-28.76874,-32.04608,-20.04856,1.023544,0.03381162,-0.4042194,-60.5726,-31.54496,-0.4528971
25.369139671,-25.50747,-29.13782,-20.23147,1.009223,0.1477381,-0.4027881,-60.16222,-33.43685,0.3985281
25.379137516,-26.73814,-28.30688,-19.13399,0.9676782,0.2317948,-0.4204446,-60.16222,-33.43685,0.3985281
25.389135838,-31.16853,-26.88243,-18.34137,0.9483082,0.3026657,-0.4400507,-60.16222,-33.43685,0.3985281
25.399132729,-37.93719,-26.11085,-17.48778,0.9357115,0.2983758,-0.4567778,-60.16222,-33.43685,0.3985281
25.40913105,-40.82925,-23.6774,-17.42681,0.9428132,0.2826589,-0.4902865,-60.16222,-33.43685,0.3985281
25.419128895,-42.98291,-22.25294,-18.52429,0.9431194,0.2660201,-0.5036829,-60.15971,-33.80685,1.626062
25.429126263,-43.29058,-20.47237,-19.13399,0.9821114,0.2139193,-0.4932088,-60.15971,-33.80685,1.626062
25.439124107,-38.67559,-17.50475,-18.76817,0.9361067,0.1206289,-0.4988475,-60.15971,-33.80685,1.626062
25.449121952,-33.1376,-15.13066,-19.19496,0.927765,0.1239621,-0.4883051,-60.15971,-33.80685,1.626062
25.45911932,-31.16853,-13.23138,-18.64623,0.9307513,0.1470271,-0.4701303,-60.15971,-33.80685,1.626062
25.469117642,-31.59927,-11.27275,-17.79264,0.8996363,0.1949451,-0.4767885,-58.70747,-34.55678,1.640777
25.479115486,-35.16819,-9.78894299999998,-16.75613,0.8661792,0.2116113,-0.4949204,-58.70747,-34.55678,1.640777
25.489112854,-37.56799,-9.01736299999997,-15.53672,0.8731762,0.2026438,-0.4810515,-58.70747,-34.55678,1.640777
25.499110699,-36.15273,-8.42383900000002,-14.7441,0.8819432,0.2035618,-0.4528311,-58.70747,-34.55678,1.640777
25.509108544,-34.55286,-7.94901899999999,-13.95148,0.894567,0.2063857,-0.4370608,-58.70747,-34.55678,1.640777
25.519105911,-32.33767,-7.83031500000001,-13.76857,0.9133101,0.2204062,-0.4323113,-58.30547,-35.70212,0.8111372
25.529104233,-29.50714,-6.46521000000002,-14.07342,0.8967084,0.2219079,-0.4447257,-58.30547,-35.70212,0.8111372
25.539102078,-26.73814,-6.10909600000003,-14.56119,0.8702273,0.2304948,-0.4580819,-58.30547,-35.70212,0.8111372
25.549099445,-24.95368,-5.515573,-14.68313,0.8538889,0.2442906,-0.4551855,-58.30547,-35.70212,0.8111372
25.55909729,-24.83061,-5.634277,-14.62216,0.8593326,0.24013,-0.4437081,-58.30547,-35.70212,0.8111372
25.569095135,-24.39988,-5.574925,-14.3173,0.882627,0.2191737,-0.4475719,-57.92118,-36.08293,0.4289446
25.579092503,-23.10768,-6.16844799999999,-14.68313,0.888928,0.1693427,-0.4370414,-57.92118,-36.08293,0.4289446
25.589090824,-18.06195,-6.70261999999998,-15.17089,0.8758265,0.1411624,-0.4082968,-57.92118,-36.08293,0.4289446
25.599088669,-12.4009,-7.83031500000001,-15.35381,0.8725318,0.1618534,-0.3704888,-57.92118,-36.08293,0.4289446
25.609086037,-7.29363900000002,-9.31412399999998,-16.2074,0.8830696,0.1719032,-0.3571096,-57.92118,-36.08293,0.4289446
25.619083881,-2.55558,-9.49218100000001,-16.39031,0.8885597,0.2158552,-0.3982881,-58.28806,-36.4661,0.4281921
25.629081726,-2.986313,-9.96700000000001,-16.14643,0.8746116,0.2834228,-0.4188599,-58.28806,-36.4661,0.4281921
25.639079094,-7.724371,-11.45081,-15.53672,0.8616222,0.3256527,-0.4489985,-58.28806,-36.4661,0.4281921
25.649076939,-14.80069,-12.51915,-14.80507,0.8705388,0.3181415,-0.4394406,-58.28806,-36.4661,0.4281921
25.65907526,-19.60028,-13.64685,-14.07342,0.8818679,0.2602059,-0.4226952,-58.28806,-36.4661,0.4281921
25.669072628,-19.84642,-15.30871,-12.91498,0.8760278,0.2081956,-0.4116644,-57.14194,-37.59546,0.8296194
25.679070473,-19.41569,-16.73317,-12.12236,0.8747028,0.1752176,-0.4016035,-57.14194,-37.59546,0.8296194
25.689068317,-19.23109,-18.15763,-11.26876,0.8953639,0.1401222,-0.3518586,-57.14194,-37.59546,0.8296194
25.699065685,-14.36996,-19.76014,-9.86643700000001,0.8800212,0.1522913,-0.3695423,-57.14194,-37.59546,0.8296194
25.70906353,-13.75463,-24.9238,-8.890904,0.8608559,0.2125983,-0.3757459,-57.14194,-37.59546,0.8296194
25.719061851,-17.56969,-29.79069,-7.79343099999999,0.8727741,0.227084,-0.3585416,-57.52454,-37.21791,0.82481
25.729059219,-20.27715,-34.42017,-6.87886999999998,0.8699909,0.2190478,-0.3810278,-57.52454,-37.21791,0.82481
25.739057064,-23.41535,-39.88059,-6.08625000000001,0.8774477,0.211556,-0.366203,-57.52454,-37.21791,0.82481
25.749054909,-26.92274,-44.27267,-5.659454,0.8528588,0.1958604,-0.4350711,-57.52454,-37.21791,0.82481
25.759052753,-36.39886,-61.1287499999998,-1.26956,0.8880217,0.1170775,-0.305418,-57.52454,-37.21791,0.82481
25.769050121,-32.27613,-61.24745,-3.586449,0.8734787,0.05921122,-0.3843428,-56.39415,-37.58656,1.222183
25.779048443,-18.55422,-65.8769300000001,-4.927805,0.8908589,-0.03631625,-0.3996629,-56.39415,-37.58656,1.222183
25.789046287,-6.001441,-66.2924000000001,-5.232659,0.8943437,-0.06803194,-0.4743186,-56.39415,-37.58656,1.222183
25.799043655,8.88960099999997,-67.12334,-4.805864,0.9338565,-0.0164887,-0.3968715,-56.39415,-37.58656,1.222183
25.8090415,11.96626,-59.94169,-1.513443,0.9981952,0.03733182,-0.283575,-56.39415,-37.58656,1.222183
25.819039345,7.843536,-49.91114,4.949458,1.033491,0.02729992,-0.2348192,-56.39083,-38.3233,4.064252
25.829036713,4.951474,-40.23671,12.69274,1.037782,-0.01911217,-0.2180645,-56.39083,-38.3233,4.064252
25.839035034,1.874812,-27.17919,19.4605,1.047984,-0.04152958,-0.1410258,-56.39083,-38.3233,4.064252
25.849032879,1.751746,-12.10369,24.82593,1.079952,-0.08165472,-0.08124919,-56.39083,-38.3233,4.064252
25.859030247,8.15120200000001,3.090521,27.75252,1.06676,-0.1313849,-0.07068472,-56.39083,-38.3233,4.064252
25.869028091,17.75039,17.45379,29.15485,1.041935,-0.1856842,-0.1093921,-56.78585,-37.92179,6.897457
25.879025936,30.9185,30.86743,31.47174,1.065364,-0.2147946,-0.1548902,-56.78585,-37.92179,6.897457
25.889023304,44.825,41.84762,33.23989,1.062851,-0.1605645,-0.2238147,-56.78585,-37.92179,6.897457
25.899021149,57.43932,49.26666,33.11795,1.025878,-0.0626463,-0.3295408,-56.78585,-37.92179,6.897457
25.90901947,60.1467800000003,51.64076,33.05698,1.041335,0.0733762,-0.3674103,-57.56509,-36.40926,6.496782
25.919016838,56.39325,51.64076,30.55718,0.9979789,0.2021651,-0.3783751,-57.56509,-36.40926,6.496782
25.929014683,50.05533,50.75047,27.32573,0.9552358,0.2969274,-0.444847,-57.56509,-36.40926,6.496782
25.939012527,40.88688,46.95192,26.10631,0.9536907,0.378149,-0.48698,-57.56509,-36.40926,6.496782
25.949009895,28.39564,42.97531,25.55757,0.9638857,0.3795933,-0.5104484,-57.56509,-36.40926,6.496782
25.95900774,21.13471,38.70194,27.3867,1.009869,0.2655082,-0.5444781,-59.49099,-33.40118,4.015644
25.969006062,23.16531,36.50591,29.4597,0.9983625,0.17715,-0.5635784,-59.49099,-33.40118,4.015644
25.979003429,32.08763,35.25951,31.28883,0.9889147,0.1358425,-0.543451,-59.49099,-33.40118,4.015644
25.989001274,43.59434,34.66598,32.20339,0.9639623,0.1419387,-0.5137373,-59.49099,-33.40118,4.015644
25.998999119,51.10139,34.48792,31.83756,0.9557734,0.1641268,-0.4610854,-59.49099,-33.40118,4.015644
26.008996487,56.45479,35.08145,30.06941,0.9623079,0.1800254,-0.4371721,-60.97548,-30.76309,2.378281
26.018994331,59.8391200000001,37.33684,27.69155,0.9709265,0.1886365,-0.4175677,-60.97548,-30.76309,2.378281
