Time (s),Gyroscope X (deg/s),Gyroscope Y (deg/s),Gyroscope Z (deg/s),Accelerometer X (g),Accelerometer Y (g),Accelerometer Z (g),Magnetometer X (uT),Magnetometer Y (uT),Magnetometer Z (uT)
17.964084625,-5.263042,8.13547199999999,1.839949,1.071906,-0.04169892,-0.05205232,-39.31549,-28.87323,26.78403
17.974081039,-7.04750599999997,14.96099,2.083832,1.092343,-0.06605621,-0.04968879,-39.31549,-28.87323,26.78403
17.98407793,-8.03203799999998,21.90522,3.364218,1.128428,-0.09287968,-0.03203748,-38.17752,-29.62169,27.24792
17.994075298,-8.77043599999998,30.09585,5.315282,1.145662,-0.1277936,-0.008129731,-38.17752,-29.62169,27.24792
18.004071712,-5.87837500000002,37.21813,8.11993799999998,1.11712,-0.1391622,-0.02052002,-38.17752,-29.62169,27.24792
18.014068604,-3.109379,43.27208,11.35139,1.093857,-0.1459523,-0.02191345,-38.17752,-29.62169,27.24792
18.024065018,-2.063314,50.0976,14.4609,1.105628,-0.1493879,0.001995718,-38.55814,-29.24796,26.79161
18.034061909,-2.001781,58.9411,16.83875,1.111347,-0.1416568,0.03787696,-38.55814,-29.24796,26.79161
18.044059277,-1.878715,68.3187700000002,18.18011,1.10513,-0.1474179,0.05894663,-38.55814,-29.24796,26.79161
18.054055691,-0.6480501,77.8151500000003,18.97273,1.103851,-0.1571533,0.05990852,-38.55814,-29.24796,26.79161
18.064052582,1.197947,87.4895900000002,19.76535,1.107099,-0.1482808,0.06660064,-38.55814,-29.24796,26.79161
18.074048996,1.751746,96.2143900000002,20.74088,1.112799,-0.1403492,0.07137442,-39.66238,-29.66018,24.01179
18.084045887,1.628679,103.9895,21.41156,1.13086,-0.1419054,0.07469337,-39.66238,-29.66018,24.01179
18.094042301,1.382547,111.5866,22.75292,1.152464,-0.1507861,0.0665222,-39.66238,-29.66018,24.01179
18.104039669,0.644147799999998,118.5902,24.27719,1.157411,-0.1544881,0.07608605,-39.66238,-29.66018,24.01179
18.11403656,0.1518819,125.0003,25.86243,1.178668,-0.1705375,0.08179604,-39.66238,-29.66018,24.01179
18.124032974,0.951813900000003,130.8762,27.93543,1.193913,-0.1516302,0.09707903,-40.79298,-28.56078,20.06284
18.134029865,0.5210813,135.9805,29.70359,1.198727,-0.122304,0.1051989,-40.79298,-28.56078,20.06284
18.144026279,-1.078783,140.0164,31.28883,1.227683,-0.1334516,0.09892979,-40.79298,-28.56078,20.06284
18.154023647,-1.694115,143.815,32.50824,1.256015,-0.1373486,0.08978846,-40.79298,-28.56078,20.06284
18.164020062,-1.940248,146.3078,32.75212,1.308171,-0.1639159,0.1007116,-40.79298,-28.56078,20.06284
18.174016953,-3.355512,149.5722,33.4228,1.353715,-0.1747216,0.1489712,-42.65986,-27.85772,14.88486
18.184013367,-3.232446,153.252,33.91057,1.374217,-0.1760191,0.1752575,-42.65986,-27.85772,14.88486
18.194010258,-2.063314,156.1009,34.76416,1.349386,-0.1505047,0.202573,-42.65986,-27.85772,14.88486
18.204007626,-2.247914,158.8905,35.12998,1.326954,-0.1494155,0.2107476,-42.65986,-27.85772,14.88486
18.21400404,-3.047846,161.5614,35.61775,1.302342,-0.1619845,0.2179724,-42.65986,-27.85772,14.88486
18.224000931,-2.986313,164.707,36.10551,1.282114,-0.1744713,0.224711,-44.84349,-26.78318,8.928525
18.233997345,-3.540112,167.9714,36.47134,1.261029,-0.193301,0.2304955,-44.84349,-26.78318,8.928525
18.243994236,-4.155444,171.6512,36.47134,1.258834,-0.2058824,0.2410312,-44.84349,-26.78318,8.928525
18.25399065,-6.001441,174.9156,36.47134,1.265014,-0.2230744,0.2606465,-44.84349,-26.78318,8.928525
18.263988018,-4.64771,177.8833,36.65425,1.286585,-0.2291136,0.2974608,-44.84349,-26.78318,8.928525
18.273984909,-2.247914,180.9696,37.14202,1.276246,-0.2227067,0.3295418,-45.96365,-25.70394,2.593069
18.283981323,0.3364816,184.1746,37.50784,1.264154,-0.2272314,0.3391355,-45.96365,-25.70394,2.593069
18.293978214,0.0903486900000002,188.2699,38.91017,1.263752,-0.2571615,0.361637,-45.96365,-25.70394,2.593069
18.303974629,3.659276,193.7303,40.43444,1.239317,-0.2531743,0.3722072,-45.96365,-25.70394,2.593069
18.313971996,7.10513699999998,198.5972,40.73929,1.211834,-0.2431582,0.3578953,-45.96365,-25.70394,2.593069
18.323968411,7.78200200000001,199.5469,41.65385,1.208099,-0.2512868,0.380397,-45.97613,-23.48882,-5.352637
18.333965302,7.53587,199.7843,41.59288,1.244045,-0.2444339,0.4143114,-45.97613,-23.48882,-5.352637
18.343961716,5.87447300000001,199.9623,40.55638,1.271236,-0.2645641,0.4391552,-45.97613,-23.48882,-5.352637
18.353958607,6.305205,199.903,39.82473,1.24883,-0.2898502,0.4856226,-45.97613,-23.48882,-5.352637
18.363955021,10.85866,200.1404,40.00764,1.219627,-0.2904789,0.5330527,-45.97613,-23.48882,-5.352637
18.373952389,12.82773,200.1997,40.49541,1.1744,-0.2944275,0.5709401,-44.85204,-22.01943,-12.51194
18.38394928,19.10412,200.3778,41.77579,1.150598,-0.2718173,0.5972974,-44.85204,-22.01943,-12.51194
18.393945694,22.42691,202.8706,41.349,1.117507,-0.2745552,0.5820414,-44.85204,-22.01943,-12.51194
18.403942585,25.99584,204.0576,40.80027,1.04105,-0.172897,0.5984201,-44.85204,-22.01943,-12.51194
18.413938999,12.45853,198.2411,37.99561,0.958463,-0.05635276,0.6085841,-44.85204,-22.01943,-12.51194
18.423936367,-10.43183,187.0235,36.59328,0.9021956,-0.0701033,0.6082072,-42.66617,-20.54208,-19.66337
18.433933258,-21.20015,177.9426,35.67872,0.8784199,-0.153862,0.5872129,-42.66617,-20.54208,-19.66337
18.443929672,-25.87667,169.6333,34.27639,0.8274716,-0.2961777,0.5452237,-42.66617,-20.54208,-19.66337
18.453926563,-16.46209,162.689,33.91057,0.774774,-0.3187362,0.5304855,-42.66617,-20.54208,-19.66337
18.463922978,-5.75530800000001,156.8725,33.11795,0.7063553,-0.2829249,0.5028381,-42.66617,-20.54208,-19.66337
18.473920345,-3.601645,149.9876,32.50824,0.6238571,-0.1977336,0.4852527,-38.54649,-19.1065,-25.96159
18.48391676,-4.278511,143.3402,33.54474,0.5511757,-0.09130903,0.4303158,-38.54649,-19.1065,-25.96159
18.493913651,-14.12383,136.0398,33.23989,0.4542947,-0.04566319,0.3706509,-38.54649,-19.1065,-25.96159
18.503910065,-24.27681,124.7629,32.50824,0.3616128,-0.04157623,0.3272609,-38.54649,-19.1065,-25.96159
18.513906956,-30.61473,110.6964,30.98397,0.3151615,-0.05976072,0.2991106,-38.54649,-19.1065,-25.96159
18.52390337,-33.07607,95.6802099999998,29.15485,0.2978379,-0.1240333,0.2694857,-34.80626,-17.60381,-31.48892
18.533900738,-29.93787,82.2665800000002,27.75252,0.2884299,-0.1679495,0.269992,-34.80626,-17.60381,-31.48892
18.543897629,-24.03068,71.6425000000001,26.10631,0.2859525,-0.1654547,0.2824386,-34.80626,-17.60381,-31.48892
18.553894043,-19.16955,63.5705800000002,23.17971,0.2653547,-0.1586471,0.274337,-34.80626,-17.60381,-31.48892
18.563890934,-13.75463,56.50765,19.70438,0.230903,-0.1403234,0.2801352,-34.80626,-17.60381,-31.48892
18.573887348,-9.07810300000001,49.38537,15.4974,0.1805371,-0.1055387,0.2605925,-31.52322,-15.70061,-34.24801
18.583884716,-6.43217400000002,41.4915,11.35139,0.1468349,-0.1021337,0.2276286,-31.52322,-15.70061,-34.24801
18.593881607,-5.509175,33.47894,7.754113,0.1384827,-0.0991296,0.2022778,-31.52322,-15.70061,-34.24801
18.603878021,-4.83231,25.28831,4.949458,0.1431241,-0.1133539,0.177866,-31.52322,-15.70061,-34.24801
18.613874912,-5.01691,15.31711,2.327715,0.1187694,-0.1402294,0.1611653,-31.52322,-15.70061,-34.24801
18.623871326,-4.155444,3.624692,-0.5379106,0.1195648,-0.1303809,0.1736043,-29.28512,-14.93337,-35.46088
18.633868694,-2.432514,-8.067724,-3.586449,0.1235135,-0.1325396,0.1946553,-29.28512,-14.93337,-35.46088
18.643865585,-1.817181,-19.99755,-7.00081100000001,0.1113458,-0.1581094,0.241105,-29.28512,-14.93337,-35.46088
18.653861999,3.905409,-30.26551,-10.59809,0.1489988,-0.1643782,0.2711913,-29.28512,-14.93337,-35.46088
18.66385889,7.720469,-38.93095,-14.68313,0.1808712,-0.1997818,0.316131,-28.53564,-14.92775,-35.45532
18.673855305,13.50459,-47.71511,-18.34137,0.2152143,-0.2114746,0.3447887,-28.53564,-14.92775,-35.45532
18.683851719,22.54998,-56.2025,-20.96312,0.2286365,-0.199481,0.3519408,-28.53564,-14.92775,-35.45532
18.693849087,29.93397,-64.0963599999998,-23.28,0.246422,-0.1600876,0.3700856,-28.53564,-14.92775,-35.45532
18.703845978,30.3647,-74.12691,-26.08466,0.2600896,-0.134824,0.3930269,-28.53564,-14.92775,-35.45532
18.713842392,26.98037,-85.3445100000002,-27.91378,0.2973626,-0.1462352,0.4460868,-29.65539,-15.31001,-34.68764
18.723839283,27.53417,-93.7132,-28.27961,0.3598963,-0.2067319,0.444079,-29.65539,-15.31001,-34.68764
18.733835697,28.76484,-96.62146,-27.97475,0.4114254,-0.2253655,0.4736657,-29.65539,-15.31001,-34.68764
18.743833065,27.90337,-97.6304500000001,-27.36505,0.4390315,-0.2151397,0.5224296,-29.65539,-15.31001,-34.68764
18.753829956,25.01131,-100.1233,-26.75534,0.4624916,-0.1919632,0.5616261,-29.65539,-15.31001,-34.68764
18.76382637,18.36572,-105.7617,-27.48699,0.4844236,-0.1911483,0.6032237,-31.53535,-15.67718,-31.47449
18.773823261,13.50459,-115.1988,-28.95029,0.5387486,-0.2293091,0.6170176,-31.53535,-15.67718,-31.47449
18.783819675,16.88892,-125.1699,-30.53553,0.5982468,-0.2833686,0.6346351,-31.53535,-15.67718,-31.47449
18.793817043,24.45751,-135.7347,-31.633,0.6640341,-0.3091587,0.6479272,-31.53535,-15.67718,-31.47449
18.803813934,34.54896,-144.6969,-31.57203,0.7205505,-0.3076693,0.6885072,-31.53535,-15.67718,-31.47449
18.813810348,44.76347,-151.6411,-31.45009,0.7647254,-0.2720183,0.7185714,-34.81561,-17.95093,-27.55237
18.823807239,49.6246,-156.0332,-29.74291,0.7415609,-0.1793234,0.7554382,-34.81561,-17.95093,-27.55237
18.833803654,43.16361,-158.526,-28.64543,0.7360021,-0.06461944,0.7697756,-34.81561,-17.95093,-27.55237
18.843801022,32.57989,-159.1195,-28.64543,0.7989342,-0.0168266,0.7586464,-34.81561,-17.95093,-27.55237
18.853797436,23.04224,-155.9738,-30.23067,0.8849741,-0.03245926,0.7230858,-34.81561,-17.95093,-27.55237
18.863794327,15.22752,-150.1573,-32.6695,0.9165532,-0.1059616,0.6943352,-37.41551,-20.14577,-22.39998
18.873790741,13.50459,-143.8659,-34.1328,0.8876202,-0.1484514,0.6805178,-37.41551,-20.14577,-22.39998
18.883787632,9.62799900000003,-142.026,-32.91339,0.8508971,-0.1653403,0.6667075,-37.41551,-20.14577,-22.39998
18.893785,4.643808,-142.7976,-30.65747,0.8402245,-0.1952208,0.6107404,-37.41551,-20.14577,-22.39998
18.903781414,0.8287475,-144.222,-27.6699,0.8722006,-0.2389467,0.5427381,-37.41551,-20.14577,-22.39998
18.913778305,-2.063314,-146.0026,-24.56039,0.923955,-0.2705831,0.5316488,-40.781,-21.64565,-16.86987
18.923774719,-0.7711166,-146.1213,-24.80427,0.9671874,-0.2891052,0.5382782,-40.781,-21.64565,-16.86987
18.93377161,4.213075,-144.9343,-27.2431,1.033839,-0.3090734,0.5486958,-40.781,-21.64565,-16.86987
18.943768024,14.67372,-140.9577,-28.88931,1.079709,-0.2868953,0.5366458,-40.781,-21.64565,-16.86987
18.953765392,22.30384,-137.0404,-29.98679,1.071898,-0.234761,0.5155886,-40.781,-21.64565,-16.86987
18.963762283,21.56545,-134.9037,-29.43805,1.02916,-0.1911136,0.4922017,-43.79562,-22.00111,-11.27856
18.973758698,17.38119,-134.0728,-27.60893,1.005197,-0.1355512,0.4558574,-43.79562,-22.00111,-11.27856
18.983755589,10.61253,-133.2419,-25.90175,0.9892287,-0.1425787,0.4128151,-43.79562,-22.00111,-11.27856
18.993752003,8.58193500000002,-133.0045,-23.64583,0.9707595,-0.1198772,0.3846055,-43.79562,-22.00111,-11.27856
19.003749371,2.797811,-134.785,-21.45088,1.005623,-0.0558932,0.3979284,-43.79562,-22.00111,-11.27856
19.013745785,-9.26270200000001,-136.9811,-18.95108,1.104181,-0.009926131,0.4288522,-44.16149,-23.48176,-6.113201
19.023742676,-21.56935,-137.7526,-16.75613,1.214716,-0.005102038,0.4516299,-44.16149,-23.48176,-6.113201
19.03373909,-29.50714,-136.1501,-16.2074,1.275855,-0.04329486,0.447226,-44.16149,-23.48176,-6.113201
19.043735981,-29.4456,-133.4793,-17.18293,1.274044,-0.103448,0.4094371,-44.16149,-23.48176,-6.113201
19.053733349,-23.47688,-131.2832,-18.40234,1.237083,-0.1341409,0.3745734,-44.16149,-23.48176,-6.113201
19.063729763,-19.53875,-129.0872,-19.92661,1.186917,-0.162122,0.3459535,-44.84132,-24.96149,-0.5631599
19.073726654,-16.76976,-126.4163,-21.57282,1.15462,-0.1814583,0.3206502,-44.84132,-24.96149,-0.5631599
19.083723068,-12.64703,-122.7365,-22.36544,1.121837,-0.2007604,0.3001336,-44.84132,-24.96149,-0.5631599
19.093719959,-6.30910700000001,-118.4038,-23.40195,1.076814,-0.1912268,0.2710165,-44.84132,-24.96149,-0.5631599
19.103717327,-1.017249,-114.902,-23.21903,1.0317,-0.1768268,0.2428554,-44.84132,-24.96149,-0.5631599
19.113713741,2.920877,-112.3498,-22.73127,1.004464,-0.1542678,0.2180111,-45.23695,-24.92398,4.207082
19.123710632,3.35161,-110.7473,-22.12156,0.999922,-0.1205302,0.1974316,-45.23695,-24.92398,4.207082
19.133707047,2.490145,-109.0261,-21.207,1.047388,-0.1049089,0.2088307,-45.23695,-24.92398,4.207082
19.143703938,0.2134152,-106.3552,-19.80467,1.083486,-0.08080033,0.2164187,-45.23695,-24.92398,4.207082
19.153700352,-5.632242,-102.438,-19.25594,1.101984,-0.08003665,0.2068148,-45.23695,-24.92398,4.207082
19.16369772,-9.878035,-98.9361999999998,-18.46332,1.100044,-0.1070079,0.184332,-44.85135,-26.40282,8.926497
19.173694611,-11.78556,-95.8498799999999,-18.15846,1.102454,-0.1318486,0.1728484,-44.85135,-26.40282,8.926497
19.183691025,-10.80103,-92.2887300000002,-17.91458,1.106096,-0.1445778,0.1546594,-44.85135,-26.40282,8.926497
19.193687916,-8.33970399999999,-88.78695,-18.52429,1.10232,-0.151653,0.1331319,-44.85135,-26.40282,8.926497
19.20368433,-4.83231,-85.9380299999998,-19.13399,1.091257,-0.1598221,0.1140103,-44.85135,-26.40282,8.926497
19.213681698,-0.5249836,-83.5045899999999,-19.86564,1.079279,-0.1451481,0.09727719,-43.39104,-28.26385,12.49481
19.223678112,2.490145,-81.0711400000003,-20.29244,1.078403,-0.1249225,0.07908762,-43.39104,-28.26385,12.49481
19.233675003,3.290077,-78.81575,-21.69477,1.107266,-0.1312783,0.06563882,-43.39104,-28.26385,12.49481
19.243671417,4.828408,-76.7977700000002,-22.97515,1.134109,-0.1337469,0.05649971,-43.39104,-28.26385,12.49481
19.253668308,5.81293900000002,-74.4236799999998,-23.88971,1.185167,-0.1278042,0.06454497,-43.03629,-27.85726,15.26908
19.263665676,7.28973700000001,-70.5657700000001,-23.95068,1.231833,-0.1214096,0.07834068,-43.03629,-27.85726,15.26908
19.27366209,8.27426799999999,-66.23305,-23.76777,1.225775,-0.110436,0.06925546,-43.03629,-27.85726,15.26908
19.283658981,9.62799900000003,-61.6035600000001,-22.97515,1.206547,-0.09874193,0.06115018,-43.03629,-27.85726,15.26908
19.293655396,10.79713,-56.73666,-20.96312,1.174904,-0.07469375,0.04923475,-43.03629,-27.85726,15.26908
19.303652287,10.48946,-51.69172,-18.2804,1.141737,-0.04718634,0.0468926,-41.54159,-28.20294,18.05574
19.313649654,7.78200200000001,-46.76547,-15.65866,1.10541,-0.007150757,0.03976698,-41.54159,-28.20294,18.05574
19.323646069,1.874812,-42.96692,-12.854,1.070596,0.02992011,0.02402512,-41.54159,-28.20294,18.05574
19.33364296,-6.06297400000002,-39.88059,-10.17129,1.055652,0.04704858,0.01638954,-41.54159,-28.20294,18.05574
19.343639374,-13.38543,-36.61621,-7.85440200000002,1.054605,0.02447717,-0.005138745,-41.54159,-28.20294,18.05574
19.353636265,-16.21596,-32.87701,-5.84236700000003,1.038815,0.00839577,-0.02903588,-41.16604,-28.56686,19.67306
19.363633156,-17.81582,-29.25652,-4.196156,1.048622,-0.0211801,-0.04292407,-41.16604,-28.56686,19.67306
19.373630047,-16.64669,-25.63603,-3.281595,1.068338,-0.05924137,-0.0496487,-41.16604,-28.56686,19.67306
19.383626461,-12.2163,-21.42201,-2.610917,1.075448,-0.07471245,-0.05635718,-41.16604,-28.56686,19.67306
19.393623352,-8.21663800000001,-17.92022,-2.123151,1.079584,-0.06155416,-0.06115353,-41.16604,-28.56686,19.67306
19.403619766,-7.724371,-14.18102,-1.879267,1.074419,-0.04616749,-0.06784856,-40.39804,-29.6925,20.84571
19.413617134,-8.64737,-11.74757,-1.940238,1.080108,-0.0378204,-0.07073209,-40.39804,-29.6925,20.84571
19.423614025,-9.75496900000002,-9.848295,-1.452472,1.079006,-0.03105654,-0.0726462,-40.39804,-29.6925,20.84571
19.433610439,-11.04717,-7.77096299999999,-0.7817937,1.06966,-0.026373,-0.07167397,-40.39804,-29.6925,20.84571
19.44360733,-11.04717,-6.405858,0.803446099999999,1.056812,-0.01692994,-0.07404688,-40.39804,-29.6925,20.84571
19.453603745,-10.30877,-4.506582,2.205774,1.043681,-0.0188358,-0.09460227,-39.64687,-29.69014,20.46427
19.463601112,-11.2933,-2.369897,3.608101,1.033793,-0.03767679,-0.1142018,-39.64687,-29.69014,20.46427
19.473598003,-10.49337,-0.1738595,4.888487,1.031543,-0.04810585,-0.1338168,-39.64687,-29.69014,20.46427
19.483594418,-8.83197000000002,1.903473,6.22984400000002,1.050826,-0.03707805,-0.138639,-39.64687,-29.69014,20.46427
19.493591309,-6.98597300000001,3.802749,7.32731800000001,1.069916,-0.01584925,-0.1434635,-39.64687,-29.69014,20.46427
19.503587723,-5.693775,5.286559,8.97352800000002,1.085274,0.04860284,-0.1430283,-40.01205,-30.07658,20.07652
19.513585091,-10.0011,6.473606,10.74168,1.095448,0.1037679,-0.1373173,-40.01205,-30.07658,20.07652
19.523581982,-16.83129,7.06713000000001,12.08304,1.088589,0.1318916,-0.1291768,-40.01205,-30.07658,20.07652
19.533578396,-24.21528,7.00777700000002,13.30245,1.080328,0.130831,-0.1210264,-40.01205,-30.07658,20.07652
19.54357481,-29.75327,6.59230999999998,14.15604,1.080037,0.0943402,-0.1253237,-40.01205,-30.07658,20.07652
19.553571701,-29.4456,6.77036799999997,14.27798,1.072913,0.05807747,-0.1430092,-40.38849,-30.07612,20.46074
19.563569069,-26.18434,7.304539,13.85119,1.071428,0.03320809,-0.1492217,-40.38849,-30.07612,20.46074
19.573565483,-22.61541,8.49158700000002,13.54634,1.082406,0.01921862,-0.1616802,-40.38849,-30.07612,20.46074
19.583562374,-19.60028,10.0941,12.87566,1.101283,-0.0005557337,-0.1861154,-40.38849,-30.07612,20.46074
19.593558788,-16.64669,11.87467,12.20498,1.101506,-0.01286656,-0.2042985,-40.38849,-30.07612,20.46074
19.603555679,-14.30843,13.00237,11.59527,1.078162,0.01041759,-0.2114425,-40.38341,-30.08593,19.29973
19.613552094,-14.86223,12.7056,11.1075,1.059188,0.03484766,-0.2090228,-40.38341,-30.08593,19.29973
19.623549461,-17.69275,11.93402,11.22945,1.041878,0.07511955,-0.1783741,-40.38341,-30.08593,19.29973
19.633546352,-24.52294,10.92503,11.35139,1.023649,0.08605448,-0.1654236,-40.38341,-30.08593,19.29973
19.643542766,-30.5532,9.916043,11.22945,1.016417,0.03001516,-0.1668323,-40.38341,-30.08593,19.29973
19.653539658,-33.01453,10.03475,10.98556,1.006398,-0.03339466,-0.1711057,-40.74662,-30.47618,18.46047
19.663536072,-31.04547,10.98439,10.74168,1.003834,-0.07871244,-0.1792253,-40.74662,-30.47618,18.46047
19.67353344,-26.43047,13.06172,10.74168,1.010487,-0.09554509,-0.1744469,-40.74662,-30.47618,18.46047
19.683530331,-22.73848,15.55452,10.55877,1.022016,-0.0864958,-0.1663335,-40.74662,-30.47618,18.46047
19.693526745,-21.07708,17.45379,10.43683,1.029066,-0.07279402,-0.1711351,-40.74662,-30.47618,18.46047
19.703523636,-22.00008,19.53113,10.37586,1.022068,-0.06308623,-0.1572467,-41.13371,-29.72482,17.67963
19.71352005,-24.64601,20.36206,9.88808900000002,0.9980325,-0.08055152,-0.155286,-41.13371,-29.72482,17.67963
19.723517418,-25.44594,20.65882,9.339353,0.9740061,-0.09850255,-0.1533251,-41.13371,-29.72482,17.67963
19.733513832,-23.96914,21.13364,9.03449899999999,0.969696,-0.1024489,-0.1504452,-41.13371,-29.72482,17.67963
19.743510723,-22.73848,21.4304,8.60770299999997,0.963819,-0.126884,-0.1528215,-41.13371,-29.72482,17.67963
19.753507137,-19.96948,21.48975,7.63217200000002,0.9880815,-0.1736551,-0.1652947,-41.12048,-30.11552,16.45616
19.763504028,-14.12383,21.84587,5.98596099999998,1.019202,-0.2221949,-0.1734723,-41.12048,-30.11552,16.45616
19.773501396,-6.80137299999998,22.6768,3.608101,1.033417,-0.2268129,-0.1778031,-41.12048,-30.11552,16.45616
19.78349781,-1.817181,23.03292,1.96189,1.027219,-0.2078915,-0.167747,-41.12048,-30.11552,16.45616
19.793494701,1.25948,22.43939,0.4376215,1.006793,-0.1839717,-0.1648461,-41.12048,-30.11552,16.45616
19.803491116,0.951813900000003,21.60846,0.01082622,0.9886765,-0.153111,-0.1519009,-41.49801,-29.74779,15.29034
19.813488007,-1.263382,20.0653,-0.1720861,0.9772918,-0.1435776,-0.1475763,-41.49801,-29.74779,15.29034
19.823485374,-4.709243,19.11566,-0.05014454,0.9705757,-0.1489591,-0.1370346,-41.49801,-29.74779,15.29034
19.833481789,-7.47823899999999,18.28473,0.0717969800000001,0.9396679,-0.1635831,-0.1283626,-41.49801,-29.74779,15.29034
19.84347868,-9.69343500000003,17.21638,0.4376215,0.9085034,-0.1902905,-0.1120298,-41.49801,-29.74779,15.29034
19.853475094,-9.44730199999998,15.91063,1.047329,0.867477,-0.2109106,-0.09950998,-41.49801,-29.74779,15.29034
19.863471985,-7.29363900000002,14.13006,1.718008,0.8232801,-0.2185168,-0.09177376,-41.49801,-29.74779,15.29034
19.873468876,-4.770776,12.64625,2.69354,0.8365577,-0.2251191,-0.09849527,-41.49801,-29.74779,15.29034
19.883465767,-2.617113,12.29014,2.876452,0.8609079,-0.2504456,-0.1042741,-41.49801,-29.74779,15.29034
19.893462181,0.3364816,12.52755,2.510627,0.895084,-0.2542579,-0.1167757,-42.62054,-29.75949,14.895
19.903459072,3.720809,12.17143,2.205774,0.9078983,-0.2360249,-0.1168027,-42.62054,-29.75949,14.895
19.913455486,6.305205,11.69661,1.96189,0.9217779,-0.2226346,-0.1173089,-42.62054,-29.75949,14.895
19.923452854,7.96660199999998,10.68762,1.718008,0.9083341,-0.2073457,-0.1168109,-42.62054,-29.75949,14.895
19.933449745,6.55133799999999,9.08511,0.925387699999998,0.8781763,-0.184047,-0.1076713,-42.62054,-29.75949,14.895
19.943446159,5.87447300000001,6.77036799999997,0.3766508,0.8520669,-0.1946755,-0.09757299,-41.8598,-30.14076,14.12858
19.95344305,7.59740300000001,4.218216,-0.1720861,0.8395226,-0.2011836,-0.09132795,-41.8598,-30.14076,14.12858
19.963439465,9.32033300000002,2.675054,-0.2940276,0.8431669,-0.2138294,-0.100424,-41.8598,-30.14076,14.12858
19.973436832,11.6586,1.07254,0.1937385,0.851624,-0.1971623,-0.1028359,-41.8598,-30.14076,14.12858
19.983433723,11.474,-0.708030899999999,0.31568,0.850271,-0.1766391,-0.08752441,-41.8598,-30.14076,14.12858
19.993430138,10.61253,-2.488602,0.925387699999998,0.8438088,-0.1436131,-0.07555725,-42.61716,-29.76603,14.12099
20.003427029,9.19726699999998,-4.031764,1.778978,0.8565528,-0.1214106,-0.06649223,-42.61716,-29.76603,14.12099
20.013423443,6.92053700000001,-5.45622,2.327715,0.8564146,-0.08775175,-0.05214338,-42.61716,-29.76603,14.12099
20.023420811,3.474676,-7.236791,1.413154,0.8535781,-0.0664132,-0.0507082,-42.61716,-29.76603,14.12099
20.033417702,1.567146,-9.90764799999999,0.2547093,0.8668136,-0.07047693,-0.04546589,-42.61716,-29.76603,14.12099
20.043414116,2.551678,-11.86628,-1.147618,0.9111977,-0.07243673,-0.03692839,-42.61885,-29.76276,14.508
20.053411007,3.35161,-13.11268,-2.306063,0.9552124,-0.05510653,-0.04370965,-42.61885,-29.76276,14.508
20.063407421,2.736278,-15.19001,-3.342566,0.9870403,-0.03752677,-0.04999115,-42.61885,-29.76276,14.508
20.073404789,-0.3403839,-17.26734,-3.769361,1.024278,-0.02209878,-0.03761705,-42.61885,-29.76276,14.508
20.083401203,-4.278511,-19.40403,-4.561981,1.073838,-0.06628147,-0.03434204,-42.61885,-29.76276,14.508
20.093398094,-3.970845,-21.42201,-5.90333699999997,1.106274,-0.1333971,-0.05735296,-42.62672,-29.38241,14.50597
20.103394508,2.797811,-22.96517,-7.54954800000001,1.127558,-0.1773507,-0.0741289,-42.62672,-29.38241,14.50597
20.113391399,11.2894,-23.97416,-8.829934,1.158826,-0.1294914,-0.06270991,-42.62672,-29.38241,14.50597
20.123388767,14.85832,-25.0425,-9.378671,1.163589,-0.0457934,-0.06034689,-42.62672,-29.38241,14.50597
20.133385181,12.70466,-26.82307,-9.50061200000003,1.152433,0.003666279,-0.0478972,-42.62672,-29.38241,14.50597
20.143382072,6.612871,-28.12883,-9.19575899999999,1.144306,0.02083731,-0.06559476,-42.99867,-29.75577,15.66622
20.153378487,-0.586516899999998,-28.90041,-8.64702100000002,1.171474,0.0007759095,-0.08621573,-42.99867,-29.75577,15.66622
20.163375378,-5.816842,-28.06947,-8.52507999999999,1.201259,-0.05463735,-0.09917494,-42.99867,-29.75577,15.66622
20.173372746,-5.570708,-26.2889,-8.890904,1.183112,-0.1008981,-0.1235388,-42.99867,-29.75577,15.66622
20.18336916,-2.617113,-24.80509,-9.07381699999998,1.141768,-0.1052306,-0.1359086,-42.99867,-29.75577,15.66622
20.193366051,0.5210813,-23.55869,-8.22022599999998,1.095248,-0.09299854,-0.1324806,-43.00234,-29.74869,16.50473
20.203362465,2.797811,-21.95618,-6.75692799999998,1.040901,-0.05318737,-0.1252175,-43.00234,-29.74869,16.50473
20.213359833,2.736278,-20.35367,-5.171688,0.9965034,-0.02447035,-0.1304118,-43.00234,-29.74869,16.50473
20.223356247,0.767214200000001,-18.5731,-3.098683,0.9577928,-0.01311733,-0.1336973,-43.00234,-29.74869,16.50473
20.233353138,-1.447982,-16.199,-1.330531,0.9380905,-0.001813283,-0.1303158,-43.00234,-29.74869,16.50473
20.243349552,-3.909311,-13.58749,-0.1720861,0.9807208,0.01172485,-0.1236935,-41.86577,-30.49442,17.29113
20.253346443,-7.04750599999997,-10.38247,0.864416900000002,1.015959,0.003731125,-0.1175314,-41.86577,-30.49442,17.29113
20.263342857,-10.06263,-7.65225799999999,1.657037,1.019036,-0.004495408,-0.1204061,-41.86577,-30.49442,17.29113
20.273340225,-11.90863,-5.45622,2.571598,1.023125,-0.01459307,-0.1175392,-41.86577,-30.49442,17.29113
20.283337116,-12.0317,-3.378887,3.791013,1.008461,-0.01184432,-0.1041142,-41.86577,-30.49442,17.29113
20.29333353,-12.64703,-2.013783,4.461692,0.9859031,-0.003888622,-0.08876248,-41.86746,-30.49115,17.67813
20.303330422,-11.53943,-1.18285,5.315282,0.9527532,-0.003063811,-0.08631203,-41.86746,-30.49115,17.67813
20.313326836,-8.955036,-0.4706214,5.315282,0.9266371,-0.01390299,-0.09918527,-41.86746,-30.49115,17.67813
20.323324204,-6.001441,0.894483100000001,4.522663,0.9268821,-0.02706244,-0.1039681,-41.86746,-30.49115,17.67813
20.333321095,-3.847778,2.734407,2.75451,0.9334422,-0.03909453,-0.1054121,-41.86746,-30.49115,17.67813
20.343317509,-2.309447,3.862102,-0.1111153,0.9715469,-0.07056297,-0.121742,-41.13371,-29.72482,17.67963
20.3533144,2.305545,5.998787,-3.220624,1.007367,-0.08406602,-0.1347226,-41.13371,-29.72482,17.67963
20.363311768,6.18213799999999,7.60130100000003,-6.08625000000001,1.029121,-0.07491997,-0.1381129,-41.13371,-29.72482,17.67963
20.373308182,7.90506900000002,8.254177,-7.79343099999999,1.026682,-0.04866591,-0.1314153,-41.13371,-29.72482,17.67963
20.383305073,6.12060500000003,7.779358,-8.890904,1.017063,-0.02938319,-0.1275749,-41.13371,-29.72482,17.67963
20.393301487,2.613211,7.12648200000003,-9.378671,1.013516,-0.02217292,-0.1285277,-41.50506,-29.73417,16.90285
20.403297901,-0.7711166,5.998787,-9.378671,1.010401,-0.03771881,-0.1213396,-41.50506,-29.73417,16.90285
20.413295269,-2.986313,4.693035,-9.19575899999999,1.007164,-0.04702003,-0.1218102,-41.50506,-29.73417,16.90285
20.42329216,-4.46311,3.505987,-9.01284600000001,1.002312,-0.04805267,-0.1179729,-41.50506,-29.73417,16.90285
20.433288574,-6.12450699999998,2.259588,-8.28119799999998,0.9984887,-0.05200697,-0.117008,-41.50506,-29.73417,16.90285
20.443285465,-6.73984000000002,1.013188,-7.67149000000001,0.9916957,-0.05362533,-0.1198672,-41.10843,-30.86916,17.29872
20.45328188,-7.232106,-0.1145072,-7.18372300000002,0.9980661,-0.05539938,-0.1150921,-41.10843,-30.86916,17.29872
20.463279247,-7.47823899999999,-1.004793,-6.695957,0.998902,-0.04814199,-0.1203598,-41.10843,-30.86916,17.29872
20.473276138,-7.724371,-1.420259,-6.57401600000003,1.00675,-0.05091574,-0.1218085,-41.10843,-30.86916,17.29872
20.483272553,-8.46277000000003,-1.776374,-7.54954800000001,1.031789,-0.08688422,-0.1237572,-41.10843,-30.86916,17.29872
20.493269444,-5.01691,-1.123497,-8.64702100000002,1.03756,-0.08291335,-0.1271183,-41.09062,-31.57301,16.52843
20.503265858,-2.678647,-0.9454404,-9.74449500000001,1.029037,-0.06982534,-0.1122709,-41.09062,-31.57301,16.52843
20.513263226,-1.632582,-1.420259,-10.47614,1.03299,-0.07264975,-0.1108414,-41.09062,-31.57301,16.52843
20.523260117,0.0903486900000002,-1.717021,-11.14682,1.027425,-0.08788528,-0.1175278,-41.09062,-31.57301,16.52843
20.533256531,2.244012,-1.360907,-11.75653,1.017671,-0.08766662,-0.1256467,-41.46537,-31.57582,16.52565
20.543253422,4.090009,-0.4706214,-12.00041,1.00414,-0.09381789,-0.1313644,-41.46537,-31.57582,16.52565
20.553249836,5.751406,0.3603118,-12.00041,1.004761,-0.1011869,-0.1414137,-41.46537,-31.57582,16.52565
20.563247204,8.76653499999999,1.191245,-11.93944,1.007728,-0.1036018,-0.146204,-41.46537,-31.57582,16.52565
20.573243618,11.8432,2.615702,-12.12236,1.012773,-0.08709418,-0.15866,-41.46537,-31.57582,16.52565
20.583240509,13.31999,4.040159,-12.2443,1.013553,-0.07694857,-0.1667998,-40.72543,-31.18657,16.91618
20.593236923,13.68919,5.286559,-12.36624,1.012352,-0.06479305,-0.1634508,-40.72543,-31.18657,16.91618
20.603233814,12.82773,6.23619700000001,-11.8175,1.012447,-0.04388253,-0.1620206,-40.72543,-31.18657,16.91618
20.613231182,11.35093,7.24518699999998,-10.59809,1.018239,-0.04080419,-0.1567671,-40.72543,-31.18657,16.91618
20.623227596,10.67406,7.89806300000001,-8.829934,1.024861,-0.02985543,-0.1429028,-40.72543,-31.18657,16.91618
20.633224487,9.32033300000002,8.55093899999998,-6.513045,1.03387,-0.01655263,-0.1424434,-40.33497,-31.94447,16.92302
20.643220901,6.85900399999999,8.90705299999997,-3.769361,1.043104,0.01089954,-0.136245,-40.33497,-31.94447,16.92302
20.653217792,3.105477,8.78834800000002,-0.8427644,1.04679,0.02214026,-0.1372115,-40.33497,-31.94447,16.92302
20.66321516,-0.6480501,8.55093899999998,2.388686,1.043797,0.02603006,-0.1305072,-40.33497,-31.94447,16.92302
20.673211574,-4.64771,8.254177,5.681107,1.042528,0.04148056,-0.1386448,-40.33497,-31.94447,16.92302
20.683208466,-10.0011,7.60130100000003,8.42479100000002,1.03638,0.0316885,-0.1333672,-40.32513,-32.32864,16.47355
20.69320488,-14.36996,7.06713000000001,10.55877,1.043285,0.001162365,-0.1386357,-40.32513,-32.32864,16.47355
20.703201771,-15.53909,7.06713000000001,12.44886,1.041693,-0.01779888,-0.1362352,-40.32513,-32.32864,16.47355
20.713199139,-15.72369,7.18583399999999,13.54634,1.044025,-0.03816674,-0.1367126,-40.32513,-32.32864,16.47355
20.723195553,-14.12383,7.12648200000003,13.91216,1.05561,-0.05838248,-0.1405562,-40.32513,-32.32864,16.47355
20.733191967,-11.72403,7.18583399999999,13.30245,1.057435,-0.07783673,-0.1462973,-40.69032,-32.71508,16.08579
20.743188858,-7.97050500000002,7.72000599999998,12.26595,1.047783,-0.08291315,-0.1491506,-40.69032,-32.71508,16.08579
20.753185272,-4.401577,8.19482400000001,10.86362,1.030681,-0.08028714,-0.1438571,-40.69032,-32.71508,16.08579
20.76318264,-1.817181,8.55093899999998,9.52226500000001,1.017283,-0.0674402,-0.1447942,-40.69032,-32.71508,16.08579
20.773179531,-0.2173175,8.55093899999998,8.36382100000002,0.9976734,-0.06093672,-0.1351902,-40.69032,-32.71508,16.08579
20.783175945,0.767214200000001,8.31352900000002,7.26634699999998,0.9864075,-0.05771384,-0.1303856,-40.69649,-32.33799,15.69676
20.793172836,1.567146,8.19482400000001,6.83955100000002,0.976428,-0.04528092,-0.13085,-40.69649,-32.33799,15.69676
20.80316925,1.197947,7.72000599999998,6.65663900000001,0.9656568,-0.04258246,-0.1313105,-40.69649,-32.33799,15.69676
20.813166618,0.2749484,7.06713000000001,6.59566799999998,0.9598318,-0.04360364,-0.1241214,-40.69649,-32.33799,15.69676
20.823163509,0.0903486900000002,6.65166300000002,6.71760999999998,0.9627103,-0.0410688,-0.1188628,-40.69649,-32.33799,15.69676
20.833159924,-0.0942510000000003,5.998787,6.53469799999998,0.9699154,-0.03562057,-0.1231839,-41.08527,-31.58336,15.30292
20.843156815,-0.03271778,5.345911,6.473727,0.971261,-0.02918464,-0.1131378,-41.08527,-31.58336,15.30292
20.853154182,-0.6480501,4.396273,6.04693200000002,0.9764554,-0.0203219,-0.1117134,-41.08527,-31.58336,15.30292
20.863150597,-1.386449,3.743397,5.620136,0.9841844,-0.01679393,-0.1145993,-41.08527,-31.58336,15.30292
20.873147488,-2.186381,3.090521,5.193341,0.9930865,-0.02399051,-0.1237059,-41.08527,-31.58336,15.30292
20.883143902,-2.678647,2.55635,4.705575,0.9987,-0.03749475,-0.1246693,-41.84092,-31.2119,14.90833
20.893140793,-1.755648,2.022178,4.034896,0.9993502,-0.04626393,-0.1284968,-41.84092,-31.2119,14.90833
20.903137684,-0.4634504,1.547359,3.303247,1.001677,-0.04036035,-0.1256309,-41.84092,-31.2119,14.90833
20.913134575,-0.03271778,1.191245,2.632569,0.9982582,-0.03993757,-0.1251465,-41.84092,-31.2119,14.90833
20.923130989,0.02881546,0.4196641,1.778978,0.9966791,-0.0336252,-0.1222739,-41.84092,-31.2119,14.90833
20.93312788,-0.6480501,-0.1145072,1.047329,0.988336,-0.0303402,-0.1169959,-41.47273,-30.89212,14.90942
20.943124294,-0.955716300000001,-0.826735599999998,0.3766508,0.9903308,-0.03270856,-0.1146059,-41.47273,-30.89212,14.90942
20.953121662,-0.586516899999998,-1.004793,-0.1720861,0.9894208,-0.03611497,-0.1131677,-41.47273,-30.89212,14.90942
20.963118553,-0.4634504,-1.479612,-0.5379106,0.9839994,-0.03279856,-0.1107662,-41.47273,-30.89212,14.90942
20.973114967,-0.6480501,-2.132488,-0.903735200000002,0.98547,-0.03325106,-0.1102901,-41.47273,-30.89212,14.90942
20.983111858,-1.140316,-2.488602,-1.208589,0.9865437,-0.03860591,-0.1136406,-41.84747,-30.89494,14.90664
20.993108273,-0.832649800000001,-2.785364,-1.391501,0.9949065,-0.04281855,-0.1141327,-41.84747,-30.89494,14.90664
21.00310564,-0.7711166,-2.666659,-1.940238,1.002366,-0.05098919,-0.1203651,-41.84747,-30.89494,14.90664
21.013102531,-0.832649800000001,-2.488602,-2.367033,1.015195,-0.05950023,-0.1222995,-41.84747,-30.89494,14.90664
21.023098946,-0.03271778,-2.488602,-3.037712,1.020698,-0.06718411,-0.1242215,-41.84747,-30.89494,14.90664
21.033095837,1.44408,-2.251192,-3.647419,1.019381,-0.07504661,-0.1309172,-41.84092,-31.2119,14.90833
21.043092251,3.16701,-1.835726,-4.318098,1.015368,-0.06875603,-0.1251689,-41.84092,-31.2119,14.90833
21.053089619,4.213075,-1.598316,-4.561981,1.012319,-0.06194289,-0.1175082,-41.84092,-31.2119,14.90833
21.063086033,4.336142,-1.657669,-4.744893,1.006337,-0.05477196,-0.1174996,-41.84092,-31.2119,14.90833
21.073082924,4.090009,-1.776374,-4.561981,1.008575,-0.04394931,-0.1079347,-41.84092,-31.2119,14.90833
21.083079338,3.474676,-1.95443,-3.952273,1.004493,-0.03439885,-0.1175016,-41.46618,-31.20909,14.91111
21.093076706,2.059412,-2.132488,-3.220624,1.004442,-0.03135261,-0.103145,-41.46618,-31.20909,14.91111
21.103073597,1.013347,-2.369897,-2.184121,1.00222,-0.01681826,-0.1031449,-41.46618,-31.20909,14.91111
21.113070011,-0.5249836,-2.488602,-1.147618,1.004811,-0.02500614,-0.1007544,-41.46618,-31.20909,14.91111
21.123066902,-2.186381,-2.666659,-0.1111153,1.008156,-0.02158234,-0.1055469,-41.46786,-31.20582,15.29811
21.133063316,-3.540112,-2.607306,0.7424754,1.010808,-0.03326272,-0.1132057,-41.46786,-31.20582,15.29811
21.143060684,-3.724712,-2.488602,1.291212,1.01487,-0.04190749,-0.1108177,-41.46786,-31.20582,15.29811
21.153057575,-3.724712,-2.073135,1.413154,1.017369,-0.04525969,-0.1108212,-41.46786,-31.20582,15.29811
21.163053989,-3.478579,-1.776374,1.535095,1.010677,-0.05222581,-0.1141578,-41.46786,-31.20582,15.29811
21.17305088,-3.047846,-1.004793,1.352183,1.008792,-0.05566024,-0.113675,-41.83475,-31.58899,15.29736
21.183047295,-2.494047,-0.708030899999999,0.803446099999999,1.01234,-0.06282663,-0.1079364,-41.83475,-31.58899,15.29736
21.193044663,-1.817181,-0.2332119,0.3766508,1.006973,-0.06245551,-0.1088843,-41.83475,-31.58899,15.29736
21.203041554,-0.955716300000001,0.1229023,-0.05014454,1.011312,-0.05991375,-0.1060211,-41.83475,-31.58899,15.29736
21.213037968,-0.1557842,0.5383689,-0.2940276,1.011772,-0.0584249,-0.1036294,-41.83475,-31.58899,15.29736
21.223034859,-0.0942510000000003,0.716426,-0.903735200000002,1.008215,-0.05077714,-0.1098467,-41.47273,-30.89212,14.90942
21.233031273,-0.4019172,1.013188,-0.964705900000002,1.002768,-0.04593761,-0.1002669,-41.47273,-30.89212,14.90942
21.243028641,-1.017249,0.8351307,-1.330531,1.002215,-0.04261713,-0.107924,-41.47273,-30.89212,14.90942
21.253025055,-1.571049,1.013188,-1.330531,0.998282,-0.0407379,-0.1064819,-41.47273,-30.89212,14.90942
21.263021946,-2.001781,0.894483100000001,-1.452472,1.002343,-0.04940901,-0.1069653,-41.47273,-30.89212,14.90942
21.27301836,-1.940248,0.894483100000001,-1.696355,1.006212,-0.0478879,-0.1084082,-41.83305,-31.59225,14.91036
21.283015251,-1.571049,1.131893,-1.513443,1.001524,-0.05769498,-0.1079189,-41.83305,-31.59225,14.91036
21.293012619,-1.017249,1.131893,-1.818297,1.007965,-0.063399,-0.1079287,-41.83305,-31.59225,14.91036
21.303009033,0.0903486900000002,1.191245,-1.879267,1.007901,-0.06002501,-0.1108009,-41.83305,-31.59225,14.91036
21.313005924,0.5210813,1.250597,-2.306063,1.008848,-0.05854848,-0.1108029,-41.83305,-31.59225,14.91036
21.323002338,1.197947,1.30995,-2.245092,1.009849,-0.06000407,-0.1127186,-41.09143,-31.20628,14.91389
21.332999706,1.751746,1.191245,-2.549946,1.012706,-0.05658111,-0.116553,-41.09143,-31.20628,14.91389
21.342996597,1.813279,1.250597,-2.367033,1.009757,-0.05515962,-0.1141554,-41.09143,-31.20628,14.91389
21.352993012,1.628679,1.369302,-2.367033,1.006319,-0.05380921,-0.1184569,-41.09143,-31.20628,14.91389
21.362989903,1.813279,1.428654,-2.245092,1.010069,-0.04597759,-0.1203798,-41.09143,-31.20628,14.91389
21.372986317,1.136414,1.428654,-1.818297,1.010438,-0.03963113,-0.1179892,-41.08357,-31.58663,14.91592
21.382983685,0.4595481,1.131893,-1.330531,1.013931,-0.04391807,-0.1160799,-41.08357,-31.58663,14.91592
21.392980099,-0.1557842,0.657073599999999,-0.7817937,1.015815,-0.04047484,-0.1156055,-41.08357,-31.58663,14.91592
21.40297699,-0.4634504,0.3603118,-0.1720861,1.014336,-0.03951464,-0.1136888,-41.08357,-31.58663,14.91592
21.412973404,-0.709583300000001,0.1822547,0.2547093,1.012525,-0.04682638,-0.1122481,-41.08357,-31.58663,14.91592
21.422970295,-0.709583300000001,0.1229023,0.4376215,1.005751,-0.04941187,-0.1146285,-41.07571,-31.96699,14.91795
21.432967663,-0.4634504,0.1822547,0.7424754,1.010813,-0.05952979,-0.1160704,-41.07571,-31.96699,14.91795
21.442964077,0.4595481,0.4790165,0.5595631,1.013383,-0.06683392,-0.1232517,-41.07571,-31.96699,14.91795
21.452960968,1.690213,1.013188,0.3766508,1.013283,-0.0614686,-0.12086,-41.07571,-31.96699,14.91795
21.462957382,2.059412,0.775778400000001,0.2547093,1.008799,-0.05622062,-0.1218107,-41.07571,-31.96699,14.91795
21.47295475,1.690213,0.8351307,0.1327677,1.002284,-0.04662172,-0.1208446,-41.44875,-31.97307,14.52817
21.482951641,0.951813900000003,0.775778400000001,0.2547093,0.9964567,-0.04772191,-0.1222699,-41.44875,-31.97307,14.52817
21.492948055,0.3364816,0.5383689,0.4985923,0.9900526,-0.04391703,-0.117474,-41.44875,-31.97307,14.52817
21.502944946,0.02881546,0.4196641,0.7424754,0.9902089,-0.05213986,-0.1136435,-41.44875,-31.97307,14.52817
21.512941361,0.5210813,0.4790165,0.986358399999998,0.9941066,-0.05203653,-0.1107789,-41.44875,-31.97307,14.52817
21.522938728,1.013347,0.3009594,1.230241,0.9998319,-0.04565004,-0.1155763,-41.46618,-31.20909,14.91111
21.532935619,1.25948,0.2416071,1.1083,1.003565,-0.03680302,-0.1127136,-41.46618,-31.20909,14.91111
21.542932034,0.3364816,0.1229023,0.986358399999998,1.008455,-0.03766513,-0.1112862,-41.46618,-31.20909,14.91111
21.552928925,0.0903486900000002,0.004197581,0.5595631,1.008076,-0.04355656,-0.1170269,-41.46618,-31.20909,14.91111
21.562925339,0.2749484,0.2416071,0.5595631,1.009638,-0.0488579,-0.1155925,-41.46618,-31.20909,14.91111
21.572922707,0.8287475,0.3603118,0.0717969800000001,1.002882,-0.05240173,-0.116537,-41.09798,-30.88931,14.9122
21.582919121,1.874812,0.1822547,0.01082622,1.007275,-0.05281844,-0.1184589,-41.09798,-30.88931,14.9122
21.592916012,2.428612,0.1229023,-0.2330568,1.008194,-0.04988463,-0.1184612,-41.09798,-30.88931,14.9122
21.602912426,2.244012,-0.1145072,-0.1720861,1.004621,-0.04119512,-0.1170215,-41.09798,-30.88931,14.9122
21.612909317,1.44408,-0.2332119,-0.05014454,1.006389,-0.03137556,-0.1098485,-41.09798,-30.88931,14.9122
21.622906685,0.0903486900000002,-0.2332119,0.01082622,1.005277,-0.02412594,-0.1117627,-41.46001,-31.58617,15.30014
21.632903099,-0.7711166,-0.4706214,0.1327677,1.004937,-0.03186825,-0.1074529,-41.46001,-31.58617,15.30014
21.64289999,-0.709583300000001,-0.411269,0.0717969800000001,1.009025,-0.04200542,-0.1088932,-41.46001,-31.58617,15.30014
21.652896404,-0.586516899999998,-0.5299737,0.1327677,1.0075,-0.03864273,-0.1098485,-41.46001,-31.58617,15.30014
21.662893772,-0.586516899999998,-0.4706214,0.1327677,1.003098,-0.03773149,-0.1069696,-41.46001,-31.58617,15.30014
21.672890663,-0.4019172,-0.4706214,0.01082622,1.005532,-0.03774482,-0.1136739,-40.715,-31.20673,14.52967
21.682887077,-0.4019172,-0.411269,-0.1720861,1.003124,-0.03923706,-0.1122336,-40.715,-31.20673,14.52967
21.692883968,-0.0942510000000003,-0.1738595,0.01082622,0.9996419,-0.03540078,-0.1103142,-40.715,-31.20673,14.52967
21.702880382,-0.1557842,0.06354995,-0.1720861,0.9992098,-0.03831619,-0.1093556,-40.715,-31.20673,14.52967
21.71287775,-0.03271778,0.2416071,-0.2330568,0.9992375,-0.0397647,-0.1083981,-40.715,-31.20673,14.52967
21.722874165,0.0903486900000002,0.2416071,-0.2940276,1.001213,-0.04119226,-0.1093583,-41.46001,-31.58617,15.30014
21.732871056,0.2134152,0.597721199999998,-0.3549984,1.004063,-0.03723087,-0.10745,-41.46001,-31.58617,15.30014
21.74286747,0.0903486900000002,0.4196641,-0.4159691,1.002079,-0.03530437,-0.1050542,-41.46001,-31.58617,15.30014
21.752864361,-0.3403839,0.2416071,-0.3549984,1.009367,-0.03421483,-0.1079386,-41.46001,-31.58617,15.30014
21.762861729,-0.894183000000003,0.4790165,-0.2940276,1.008943,-0.03762918,-0.1084156,-41.47273,-30.89212,14.90942
21.772858143,-1.324916,0.4790165,-0.4159691,1.013832,-0.03851323,-0.109381,-41.47273,-30.89212,14.90942
21.782855034,-1.386449,0.5383689,-0.4159691,1.01569,-0.03361274,-0.1089069,-41.47273,-30.89212,14.90942
21.792851448,-1.386449,0.597721199999998,-0.5379106,1.011928,-0.04101565,-0.1132057,-41.47273,-30.89212,14.90942
21.802848816,-1.201849,0.775778400000001,-0.720822899999998,1.01257,-0.04928592,-0.1155975,-41.47273,-30.89212,14.90942
21.812845707,-1.201849,0.894483100000001,-1.208589,1.009141,-0.04839493,-0.1170275,-40.72155,-30.88977,14.52798
21.822842121,-0.832649800000001,1.07254,-1.635384,1.007321,-0.05521213,-0.1146297,-40.72155,-30.88977,14.52798
21.832839012,-0.2788507,1.131893,-1.757326,1.006789,-0.05278417,-0.1136723,-40.72155,-30.88977,14.52798
21.842835426,0.02881546,1.250597,-2.06218,0.9999514,-0.0519386,-0.1127034,-40.72155,-30.88977,14.52798
21.852832794,0.5210813,1.30995,-1.940238,0.9994087,-0.04906,-0.1155747,-40.72155,-30.88977,14.52798
21.862829685,0.5210813,1.191245,-2.184121,0.9985081,-0.05294339,-0.1131792,-41.08357,-31.58663,14.91592
21.872826099,0.3364816,1.30995,-2.06218,1.001312,-0.04657075,-0.1131857,-41.08357,-31.58663,14.91592
21.88282299,0.705681,1.013188,-2.06218,1.003847,-0.0519055,-0.117496,-41.08357,-31.58663,14.91592
21.892819405,0.4595481,0.8351307,-1.818297,1.006725,-0.04938385,-0.113673,-41.08357,-31.58663,14.91592
21.902816772,0.0903486900000002,0.597721199999998,-1.391501,1.008626,-0.04696482,-0.1189413,-41.08357,-31.58663,14.91592
21.912813187,-0.2788507,0.4196641,-1.086647,1.011659,-0.05273182,-0.1184665,-41.82519,-31.97261,14.91239
21.922810078,-0.3403839,-0.05515479,-0.720822899999998,1.011164,-0.05219424,-0.1117657,-41.82519,-31.97261,14.91239
21.932806492,-0.1557842,-0.2332119,-0.2330568,1.011714,-0.05563322,-0.1170301,-41.82519,-31.97261,14.91239
21.94280386,-0.0942510000000003,-0.2332119,-0.05014454,1.010325,-0.05957452,-0.1198982,-41.82519,-31.97261,14.91239
21.952800751,0.0903486900000002,-0.5299737,0.1327677,1.008368,-0.05910531,-0.117502,-41.82519,-31.97261,14.91239
21.962797165,0.2749484,-0.589326100000003,0.4985923,1.00482,-0.05191259,-0.1203691,-40.70882,-31.58382,14.9187
21.972794056,0.2134152,-0.767383199999997,0.864416900000002,1.000897,-0.0504884,-0.1155769,-40.70882,-31.58382,14.9187
21.98279047,-0.1557842,-0.767383199999997,0.864416900000002,1.001845,-0.04899432,-0.1136646,-40.70882,-31.58382,14.9187
21.992787838,-0.3403839,-0.886087999999999,1.230241,0.9979104,-0.04715899,-0.1170083,-40.70882,-31.58382,14.9187
22.002784729,-0.4019172,-0.589326100000003,1.352183,0.9994553,-0.05145808,-0.1122241,-40.70882,-31.58382,14.9187
22.012781143,-0.2788507,-0.4706214,1.413154,1.010153,-0.05027483,-0.112243,-41.45045,-31.9698,14.91517
22.022778034,-0.3403839,-0.411269,1.657037,1.007627,-0.045439,-0.1093684,-41.45045,-31.9698,14.91517
22.032774448,-0.2173175,-0.589326100000003,1.718008,1.010055,-0.04487878,-0.1065013,-41.45045,-31.9698,14.91517
22.042771816,-0.3403839,-0.2925643,1.718008,1.012968,-0.04433967,-0.1069851,-41.45045,-31.9698,14.91517
22.05276823,-0.1557842,-0.5299737,1.90092,1.012949,-0.04341204,-0.1117711,-41.45045,-31.9698,14.91517
22.062765121,-0.4634504,-0.4706214,1.718008,1.01546,-0.0471754,-0.1036387,-41.46618,-31.20909,14.91111
22.072761536,-0.2173175,-0.3519166,1.657037,1.016018,-0.05110892,-0.1098602,-41.46618,-31.20909,14.91111
22.082758904,0.2749484,-0.4706214,1.596066,1.011589,-0.04874039,-0.1069816,-41.46618,-31.20909,14.91111
22.092755795,0.5210813,0.06354995,1.291212,1.010589,-0.04724969,-0.1012373,-41.46618,-31.20909,14.91111
22.102752209,0.644147799999998,-0.05515479,1.047329,1.005112,-0.04105821,-0.1031437,-41.46618,-31.20909,14.91111
22.1127491,0.8287475,0.4196641,0.864416900000002,1.002342,-0.04943096,-0.1093582,-41.45045,-31.9698,14.91517
22.122745514,0.5826145,0.775778400000001,0.681504599999997,0.9998611,-0.04705027,-0.1093545,-41.45045,-31.9698,14.91517
22.132742882,0.3364816,1.013188,0.620533899999998,1.001321,-0.04705651,-0.1131856,-41.45045,-31.9698,14.91517
22.142739773,0.644147799999998,1.606712,0.620533899999998,1.004686,-0.04455595,-0.1127136,-41.45045,-31.9698,14.91517
22.152736187,1.013347,2.022178,0.3766508,1.009123,-0.04742341,-0.1170277,-41.45045,-31.9698,14.91517
22.162733078,0.890280700000001,2.140883,0.31568,1.007074,-0.04214486,-0.119897,-41.08974,-31.20955,14.52689
22.172729492,0.5210813,2.259588,0.2547093,1.007461,-0.03676992,-0.1175062,-41.08974,-31.20955,14.52689
22.18272686,0.0903486900000002,2.734407,0.0717969800000001,1.004631,-0.0416326,-0.1117571,-41.08974,-31.20955,14.52689
22.192723751,0.0903486900000002,2.55635,0.01082622,1.005559,-0.03920649,-0.1141522,-41.08974,-31.20955,14.52689
22.202720165,0.1518819,3.090521,0.2547093,0.9996517,-0.03586459,-0.1079213,-41.08974,-31.20955,14.52689
22.212716579,0.1518819,2.971816,0.1937385,0.9986295,-0.03352965,-0.1160559,-41.46449,-31.21236,14.52411
22.222713947,0.3980148,2.793759,0.4376215,0.9943098,-0.03699904,-0.1141331,-41.46449,-31.21236,14.52411
22.232710838,0.3980148,2.615702,0.4376215,1.001825,-0.04807108,-0.1189292,-41.46449,-31.21236,14.52411
22.242707253,0.2134152,2.022178,0.4985923,1.007543,-0.04113737,-0.1170266,-41.46449,-31.21236,14.52411
22.252704144,0.1518819,1.30995,0.4376215,1.008049,-0.04207294,-0.1141558,-41.46449,-31.21236,14.52411
22.262700558,-0.1557842,0.657073599999999,0.3766508,1.010532,-0.04442291,-0.1108095,-41.09143,-31.20628,14.91389
22.272697926,-0.3403839,-0.05515479,0.3766508,1.012995,-0.04580134,-0.1074634,-41.09143,-31.20628,14.91389
22.282694817,-0.4634504,-0.4706214,0.4985923,1.017866,-0.04571388,-0.1084291,-41.09143,-31.20628,14.91389
22.292691231,0.0903486900000002,-0.5299737,0.4985923,1.014392,-0.04241165,-0.1117739,-41.09143,-31.20628,14.91389
22.302688122,-0.0942510000000003,-0.826735599999998,0.4985923,1.011497,-0.04390034,-0.108897,-41.09143,-31.20628,14.91389
22.31268549,-0.586516899999998,-0.886087999999999,0.3766508,0.9984259,-0.04857593,-0.1136588,-41.46618,-31.20909,14.91111
22.322681904,-0.894183000000003,-1.064145,0.1937385,1.002259,-0.04508982,-0.1127092,-41.46618,-31.20909,14.91111
22.332678795,-1.017249,-0.886087999999999,0.1937385,0.9999682,-0.05295402,-0.1174889,-41.46618,-31.20909,14.91111
22.342675209,-0.894183000000003,-0.767383199999997,0.0717969800000001,0.9945478,-0.04960689,-0.1117374,-41.46618,-31.20909,14.91111
22.3526721,-0.2788507,-0.5299737,0.0717969800000001,1.002478,-0.05675248,-0.1131851,-41.46618,-31.20909,14.91111
22.362668991,0.2134152,-0.3519166,0.31568,0.9990055,-0.05338441,-0.1093514,-41.46449,-31.21236,14.52411
22.372665882,0.5826145,-0.3519166,0.0717969800000001,1.006681,-0.04691115,-0.1088878,-41.46449,-31.21236,14.52411
22.382662296,0.4595481,-0.3519166,0.01082622,1.01488,-0.04235375,-0.1065104,-41.46449,-31.21236,14.52411
22.392659187,0.2134152,-0.2332119,0.0717969800000001,1.020726,-0.04222948,-0.1055635,-41.46449,-31.21236,14.52411
22.402656555,0.1518819,-0.2332119,0.1327677,1.027022,-0.04013498,-0.1027035,-41.09143,-31.20628,14.91389
22.412652969,0.02881546,-0.2925643,0.1327677,1.024705,-0.04651995,-0.1050907,-41.09143,-31.20628,14.91389
22.42264986,0.0903486900000002,-0.1738595,-0.2330568,1.023892,-0.05537946,-0.1156157,-41.09143,-31.20628,14.91389
22.432646275,0.3980148,-0.1738595,-0.5379106,1.020509,-0.05691728,-0.1170451,-41.09143,-31.20628,14.91389
22.442643166,0.5826145,-0.1738595,-0.720822899999998,1.012228,-0.05708528,-0.1175092,-41.09143,-31.20628,14.91389
22.452640534,0.890280700000001,0.1822547,-0.903735200000002,1.004859,-0.05378103,-0.1122329,-41.46618,-31.20909,14.91111
22.462636948,0.3980148,0.004197581,-0.8427644,0.9951559,-0.05583754,-0.1036011,-41.46618,-31.20909,14.91111
22.472633839,0.2749484,0.1822547,-1.025677,0.9878023,-0.05359698,-0.1083746,-41.46618,-31.20909,14.91111
22.482630253,0.2749484,0.06354995,-0.8427644,0.9755903,-0.05182431,-0.1006966,-41.46618,-31.20909,14.91111
22.492627621,-0.0942510000000003,-0.05515479,-0.5379106,0.9736684,-0.05334642,-0.1035643,-41.46618,-31.20909,14.91111
22.502624512,-0.03271778,0.06354995,-0.598881400000002,0.9858825,-0.05505327,-0.1040637,-41.10585,-30.50896,14.91018
22.512620926,0.2134152,0.1229023,-0.3549984,0.9956881,-0.05827428,-0.1055157,-41.10585,-30.50896,14.91018
22.522617817,0.2749484,0.06354995,-0.1111153,1.007269,-0.05222295,-0.1064946,-41.10585,-30.50896,14.91018
22.532614231,0.2134152,-0.2925643,0.0717969800000001,1.013142,-0.05354719,-0.1045902,-41.10585,-30.50896,14.91018
22.542611599,0.3980148,-0.1738595,0.1327677,1.016893,-0.04570241,-0.1050773,-41.10585,-30.50896,14.91018
22.552608013,-0.03271778,-0.3519166,0.31568,1.018399,-0.04813746,-0.1089079,-41.09143,-31.20628,14.91389
22.562604904,0.02881546,0.004197581,0.1937385,1.021521,-0.05880158,-0.1127392,-41.09143,-31.20628,14.91389
22.572601318,0.4595481,0.3009594,-0.1111153,1.018562,-0.05690749,-0.1117774,-41.09143,-31.20628,14.91389
22.58259821,0.705681,0.3603118,0.1327677,1.012717,-0.05702298,-0.1117672,-41.09143,-31.20628,14.91389
22.592595577,0.951813900000003,0.5383689,-0.05014454,1.015548,-0.05212079,-0.1132091,-41.09143,-31.20628,14.91389
22.602591992,1.197947,0.953835399999999,0.01082622,1.008638,-0.04737158,-0.1103268,-41.09798,-30.88931,14.9122
22.612588883,1.25948,1.07254,0.1937385,1.007059,-0.04107238,-0.10889,-41.09798,-30.88931,14.9122
22.622585297,0.5210813,0.8351307,0.4376215,1.011381,-0.03751082,-0.1007626,-41.09798,-30.88931,14.9122
22.632582664,0.2134152,0.953835399999999,0.986358399999998,1.009827,-0.03272597,-0.1055469,-41.09798,-30.88931,14.9122
22.642579555,-0.03271778,1.07254,1.291212,1.009302,-0.03082328,-0.1088965,-41.09798,-30.88931,14.9122
22.65257597,-0.4019172,1.07254,1.839949,1.012711,-0.03079542,-0.1132097,-41.45662,-31.59271,14.52614
22.662572861,-0.6480501,1.131893,1.778978,1.01025,-0.02933358,-0.1074628,-41.45662,-31.59271,14.52614
22.672569275,-1.017249,1.07254,1.96189,1.006949,-0.03524325,-0.1088913,-41.45662,-31.59271,14.52614
22.682566643,-1.078783,1.131893,1.96189,1.001625,-0.03734922,-0.115103,-41.45662,-31.59271,14.52614
22.692563057,-0.955716300000001,1.191245,1.718008,0.9935545,-0.04868094,-0.1146074,-41.45662,-31.59271,14.52614
22.702559948,-1.201849,1.547359,1.352183,0.9915971,-0.04822928,-0.1141255,-41.46449,-31.21236,14.52411
22.712556362,-0.955716300000001,1.606712,0.803446099999999,0.9834082,-0.05322856,-0.1117171,-41.46449,-31.21236,14.52411
22.72255373,-0.955716300000001,1.428654,0.4376215,0.9828207,-0.04789481,-0.1117174,-41.46449,-31.21236,14.52411
22.732550621,-1.140316,0.953835399999999,0.0717969800000001,0.9778583,-0.04313783,-0.1121886,-41.46449,-31.21236,14.52411
22.742547035,-1.386449,0.4790165,-0.3549984,0.9843647,-0.05222023,-0.1098047,-41.46449,-31.21236,14.52411
22.752543926,-1.201849,-0.1738595,-0.903735200000002,0.9838985,-0.05311798,-0.1007107,-41.46618,-31.20909,14.91111
22.76254034,-0.5249836,-0.4706214,-1.26956,0.983043,-0.05944774,-0.100229,-41.46618,-31.20909,14.91111
22.772537708,-0.0942510000000003,-0.767383199999997,-1.574414,0.9829959,-0.05706721,-0.1054939,-41.46618,-31.20909,14.91111
22.782534599,0.2749484,-1.004793,-2.001209,0.9797204,-0.0645044,-0.1145792,-41.46618,-31.20909,14.91111
22.792531013,0.890280700000001,-1.538964,-2.123151,0.9691408,-0.07200254,-0.1145588,-41.46618,-31.20909,14.91111
22.802527904,1.505613,-2.132488,-2.549946,0.970104,-0.07155459,-0.1207821,-41.45831,-31.58944,14.91314
22.812525272,2.059412,-2.073135,-2.8548,0.9725283,-0.07109094,-0.1284437,-41.45831,-31.58944,14.91314
22.822521687,2.797811,-1.657669,-3.220624,0.9681278,-0.07014897,-0.1222147,-41.45831,-31.58944,14.91314
22.832518578,2.428612,-1.479612,-3.220624,0.9619833,-0.05417727,-0.1159867,-41.45831,-31.58944,14.91314
22.842514992,1.25948,-2.013783,-3.037712,0.9565264,-0.04888709,-0.1102356,-41.45831,-31.58944,14.91314
22.852511883,0.5210813,-1.835726,-2.428004,0.964276,-0.04626041,-0.105464,-41.46449,-31.21236,14.52411
22.862508774,-0.709583300000001,-1.835726,-1.757326,0.9709147,-0.03635778,-0.09973525,-41.46449,-31.21236,14.52411
22.872505665,-2.678647,-2.073135,-1.086647,0.988677,-0.02179172,-0.08636983,-41.46449,-31.21236,14.52411
22.882502079,-4.155444,-2.132488,-0.3549984,0.9987681,-0.0143471,-0.09117509,-41.46449,-31.21236,14.52411
22.89249897,-6.30910700000001,-1.776374,0.681504599999997,1.006991,-0.01136549,-0.1017189,-41.46449,-31.21236,14.52411
22.902496338,-8.46277000000003,-1.479612,1.596066,1.029595,-0.02173243,-0.1151557,-41.4617,-31.5829,15.68715
22.912492752,-9.07810300000001,-0.5299737,2.083832,1.045653,-0.04681574,-0.1295345,-41.4617,-31.5829,15.68715
22.922489643,-7.84743800000001,0.4196641,2.327715,1.059998,-0.05819931,-0.1300352,-41.4617,-31.5829,15.68715
22.932486057,-6.30910700000001,0.775778400000001,2.144803,1.072994,-0.04967275,-0.1291029,-41.4617,-31.5829,15.68715
22.942482948,-5.201509,0.2416071,1.657037,1.08327,-0.05188629,-0.1276845,-41.4617,-31.5829,15.68715
22.952480316,-3.232446,-0.2925643,0.986358399999998,1.095017,-0.05450404,-0.1205257,-41.08357,-31.58663,14.91592
22.96247673,-0.2788507,-0.4706214,0.3766508,1.107762,-0.05868712,-0.1272469,-41.08357,-31.58663,14.91592
22.972473621,2.797811,-0.4706214,-0.1111153,1.103879,-0.05988048,-0.1430328,-41.08357,-31.58663,14.91592
22.982470036,4.705341,-1.004793,-0.4769399,1.08267,-0.04617211,-0.1391708,-41.08357,-31.58663,14.91592
22.992467403,5.751406,-1.835726,-0.659852100000001,1.04557,-0.0168162,-0.1434208,-41.45662,-31.59271,14.52614
23.002463818,4.090009,-3.082125,-0.659852100000001,1.002708,0.008105047,-0.1419168,-41.45662,-31.59271,14.52614
23.012460709,0.3980148,-4.387877,-0.4159691,0.9719111,0.01332788,-0.1418645,-41.45662,-31.59271,14.52614
23.022457123,-2.986313,-5.218811,-0.1111153,0.9483803,-0.005116853,-0.1418187,-41.45662,-31.59271,14.52614
23.032454014,-5.263042,-5.75298199999998,0.2547093,0.9374413,-0.01942967,-0.1422745,-41.45662,-31.59271,14.52614
23.042451382,-5.93990799999998,-5.99039199999999,0.4376215,0.9293354,-0.02877445,-0.1369936,-41.82967,-31.59879,14.13636
23.052447796,-5.447642,-5.99039199999999,0.4376215,0.9328617,-0.03508344,-0.1436982,-41.82967,-31.59879,14.13636
23.062444687,-5.01691,-6.287153,-0.1720861,0.9469522,-0.03283497,-0.1408519,-41.82967,-31.59879,14.13636
23.072441101,-4.955376,-6.10909600000003,-0.7817937,0.955593,-0.02584352,-0.1389545,-41.82967,-31.59879,14.13636
23.082438469,-5.139976,-6.64326800000002,-1.696355,0.9692062,-0.02406849,-0.1337143,-41.82967,-31.59879,14.13636
23.09243536,-4.46311,-7.236791,-2.793829,0.9789588,-0.02431788,-0.1289455,-41.09143,-31.20628,14.91389
23.102431774,-3.478579,-7.65225799999999,-3.70839,0.9963323,-0.01517066,-0.1227567,-41.09143,-31.20628,14.91389
23.112428665,-3.170913,-8.72059999999997,-4.744893,1.00936,-0.007991652,-0.1098597,-41.09143,-31.20628,14.91389
23.122425079,-3.663178,-9.848295,-5.720425,1.016405,0.006314399,-0.1017398,-41.09143,-31.20628,14.91389
23.132422447,-3.601645,-10.50117,-6.57401600000003,1.024765,0.002013979,-0.1118034,-41.09143,-31.20628,14.91389
23.142419338,-3.417045,-10.97599,-7.12275300000002,1.018873,0.004287798,-0.1161009,-40.70097,-31.96417,14.92073
23.152415752,-3.724712,-11.45081,-7.42760699999997,1.008424,0.01572641,-0.1179999,-40.70097,-31.96417,14.92073
23.162412643,-4.893843,-11.92563,-8.098285,1.00742,0.01709422,-0.1256558,-40.70097,-31.96417,14.92073
23.172409534,-6.55523999999999,-11.68822,-8.52507999999999,1.00842,0.01561229,-0.1304429,-40.70097,-31.96417,14.92073
23.182406426,-8.33970399999999,-11.39146,-9.378671,1.000087,0.01845104,-0.1208576,-40.70097,-31.96417,14.92073
23.19240284,-10.24723,-11.03534,-9.50061200000003,1.005676,0.006483097,-0.113207,-41.4617,-31.5829,15.68715
23.202399731,-11.35483,-10.79793,-9.80546599999998,1.017604,-0.005915727,-0.1132246,-41.4617,-31.5829,15.68715
23.212396145,-10.67797,-10.50117,-10.17129,1.033438,-0.01871893,-0.1127703,-41.4617,-31.5829,15.68715
23.222393513,-8.40123700000001,-9.72959,-10.59809,1.046506,-0.01414869,-0.1194944,-41.4617,-31.5829,15.68715
23.232390404,-7.41670600000002,-9.01736299999997,-10.41517,1.041715,0.007738077,-0.1070487,-41.4617,-31.5829,15.68715
23.242386818,-9.01656900000002,-8.364487,-10.17129,1.040051,0.01833012,-0.1142271,-41.0774,-31.96372,15.30495
23.252383709,-10.86257,-7.94901899999999,-9.68352500000001,1.044742,0.001821842,-0.1228454,-41.0774,-31.96372,15.30495
23.262381077,-11.1087,-6.70261999999998,-8.95187600000001,1.041741,-0.02014868,-0.1276203,-41.0774,-31.96372,15.30495
23.272377491,-10.12417,-6.287153,-8.03731400000003,1.041092,-0.03777384,-0.1405362,-41.0774,-31.96372,15.30495
23.282374382,-8.64737,-6.22780099999998,-7.244694,1.045569,-0.04250095,-0.135757,-41.0774,-31.96372,15.30495
23.292370796,-7.04750599999997,-6.04974400000001,-6.45207400000002,1.050017,-0.04581027,-0.1352853,-40.32175,-32.33518,15.69954
23.302368164,-6.370641,-5.87168699999998,-5.415571,1.048366,-0.03557232,-0.1281064,-40.32175,-32.33518,15.69954
23.312364578,-7.60130500000002,-5.81233500000002,-4.440039,1.045859,-0.03168606,-0.1228387,-40.32175,-32.33518,15.69954
23.322361469,-8.83197000000002,-5.040754,-3.403537,1.062458,-0.05966992,-0.1367392,-40.32175,-32.33518,15.69954
23.332357884,-8.58583600000001,-3.853706,-2.8548,1.063009,-0.08949009,-0.1573112,-40.32175,-32.33518,15.69954
23.342354775,-7.78590499999999,-2.42925,-2.428004,1.034946,-0.1003151,-0.1644382,-40.29646,-33.47952,15.31863
23.352352142,-7.17057299999998,-1.479612,-2.06218,1.004498,-0.08784451,-0.1696526,-40.29646,-33.47952,15.31863
23.362348557,-7.78590499999999,-0.2925643,-1.26956,0.9811482,-0.06398242,-0.1667466,-40.29646,-33.47952,15.31863
23.372345448,-10.0011,0.8351307,-0.659852100000001,0.9627588,-0.0705928,-0.1590557,-40.29646,-33.47952,15.31863
23.382341862,-12.15476,1.725416,0.1327677,0.9487928,-0.0789762,-0.142279,-40.29646,-33.47952,15.31863
23.39233923,-12.33936,2.259588,1.169271,0.9472396,-0.09981027,-0.1322208,-39.54698,-33.47389,15.32419
23.402336121,-9.57036899999999,2.31894,2.083832,0.942147,-0.1139725,-0.1288583,-39.54698,-33.47389,15.32419
23.412332535,-5.632242,2.496997,2.75451,0.9530457,-0.1234804,-0.1293534,-39.54698,-33.47389,15.32419
23.422329426,-0.832649800000001,3.32793,2.876452,0.9788128,-0.1206688,-0.1432777,-39.54698,-33.47389,15.32419
23.43232584,2.982411,4.218216,2.510627,0.9865462,-0.09135512,-0.1428202,-39.54698,-33.47389,15.32419
23.442323208,4.766874,5.049149,1.96189,0.9827297,-0.07021578,-0.1610049,-39.91216,-33.86033,14.93643
23.452320099,5.074541,5.345911,1.291212,0.9819927,-0.05722396,-0.1734499,-39.91216,-33.86033,14.93643
23.462316513,5.62834,5.76137699999998,0.4985923,0.9794419,-0.0516229,-0.1930685,-39.91216,-33.86033,14.93643
23.472313404,5.197607,6.23619700000001,0.31568,0.9762471,-0.03705953,-0.1878023,-39.91216,-33.86033,14.93643
23.482310295,3.659276,5.702025,0.4985923,0.967679,-0.02152954,-0.1715198,-39.91216,-33.86033,14.93643
23.492307186,1.25948,4.633682,1.230241,0.9716937,-0.001377477,-0.1552604,-39.92003,-33.47997,14.9344
23.5023036,-0.955716300000001,3.090521,2.205774,0.9844607,-0.006413573,-0.1490599,-39.92003,-33.47997,14.9344
23.512300491,-1.755648,1.488007,3.181306,1.006745,-0.02544168,-0.1524439,-39.92003,-33.47997,14.9344
23.522297859,-0.2173175,0.3009594,3.608101,1.025407,-0.03340414,-0.1601316,-39.92003,-33.47997,14.9344
23.532294274,2.059412,-0.648678499999998,4.034896,1.041677,-0.01755013,-0.1620783,-39.92003,-33.47997,14.9344
23.542291165,3.290077,-1.123497,4.095867,1.04631,-0.004846043,-0.1644826,-40.29308,-33.48605,14.54462
23.552287579,2.920877,-1.657669,4.27878,1.028448,0.01237391,-0.1558415,-40.29308,-33.48605,14.54462
23.56228447,1.628679,-2.251192,4.461692,1.003349,0.02544491,-0.1601083,-40.29308,-33.48605,14.54462
23.572281838,-0.1557842,-2.607306,4.766546,0.9979603,0.02670416,-0.1701493,-40.29308,-33.48605,14.54462
23.582278252,-1.447982,-3.022773,4.766546,0.984777,0.002137851,-0.1710772,-40.66951,-33.4856,14.92884
23.592275143,-2.186381,-3.556944,5.010429,0.9868972,-0.007105789,-0.1768214,-40.66951,-33.4856,14.92884
23.602271557,-2.678647,-4.269173,5.376253,0.9845569,-0.01188423,-0.1629374,-40.66951,-33.4856,14.92884
23.612268925,-2.801713,-5.159458,5.193341,0.9801636,-0.01149386,-0.163887,-40.66951,-33.4856,14.92884
23.622265339,-4.093911,-6.405858,5.315282,0.9816827,-0.014283,-0.1533602,-40.66951,-33.4856,14.92884
23.63226223,-4.83231,-6.88067700000001,5.010429,0.9950619,-0.02619352,-0.1562519,-40.67738,-33.10524,14.92682
23.642258644,-4.401577,-6.88067700000001,4.461692,1.006132,-0.04501428,-0.1658379,-40.67738,-33.10524,14.92682
23.652255535,-3.293979,-6.64326800000002,3.303247,1.016533,-0.05408553,-0.1706395,-40.67738,-33.10524,14.92682
23.662252903,-2.001781,-6.64326800000002,1.718008,1.021975,-0.0582813,-0.1629907,-40.67738,-33.10524,14.92682
23.672249317,0.2134152,-6.46521000000002,0.01082622,1.020511,-0.05839795,-0.1725596,-40.67738,-33.10524,14.92682
23.682246208,2.982411,-6.16844799999999,-1.513443,1.010839,-0.03616555,-0.1648912,-39.92619,-33.10289,14.54537
23.692242622,3.597743,-6.16844799999999,-2.610917,0.9919415,-0.01547235,-0.1461992,-39.92619,-33.10289,14.54537
23.70223999,2.982411,-6.46521000000002,-2.8548,0.9790071,-0.00102244,-0.1323016,-39.92619,-33.10289,14.54537
23.712236881,1.936346,-6.70261999999998,-2.91577,0.9771672,-0.006920796,-0.1356469,-39.92619,-33.10289,14.54537
23.722233295,2.613211,-5.75298199999998,-2.06218,0.9841654,-0.01661541,-0.1480996,-39.92619,-33.10289,14.54537
23.732230186,3.413143,-4.506582,-1.696355,0.9942465,-0.008711353,-0.1557764,-40.30264,-33.10243,14.9296
23.742227554,2.920877,-4.328525,-1.086647,1.001984,-0.005677917,-0.1596193,-40.30264,-33.10243,14.9296
23.752223968,2.305545,-4.269173,-0.4769399,1.010033,0.007255936,-0.1443222,-40.30264,-33.10243,14.9296
23.762220859,1.321013,-4.150468,-0.4159691,1.014415,0.007303049,-0.1486371,-40.30264,-33.10243,14.9296
23.772217274,0.767214200000001,-3.378887,-0.2330568,1.022309,0.002100485,-0.1500852,-40.30264,-33.10243,14.9296
23.782214165,0.0903486900000002,-2.013783,0.2547093,1.025077,0.0104425,-0.1472207,-39.93127,-33.09308,15.70638
23.792211056,-1.447982,-1.538964,0.986358399999998,1.011779,0.01793729,-0.1491138,-39.93127,-33.09308,15.70638
23.802207947,-3.109379,-1.301555,1.596066,0.9904827,0.01022303,-0.1495533,-39.93127,-33.09308,15.70638
23.812204361,-4.093911,-1.360907,1.96189,0.9957694,-0.01215304,-0.1634354,-39.93127,-33.09308,15.70638
23.822201252,-4.032378,-1.18285,1.718008,1.006207,-0.02318928,-0.1706294,-39.93127,-33.09308,15.70638
23.83219862,-2.678647,-0.589326100000003,1.413154,1.028436,-0.03928966,-0.1725783,-40.31388,-32.71554,15.70157
23.842195034,-0.832649800000001,0.1229023,0.864416900000002,1.050907,-0.04225168,-0.1730953,-40.31388,-32.71554,15.70157
23.852191925,1.197947,0.775778400000001,0.3766508,1.059124,-0.0386658,-0.1707177,-40.31388,-32.71554,15.70157
23.862188339,1.874812,1.547359,-0.05014454,1.057398,-0.02460759,-0.1707183,-40.31388,-32.71554,15.70157
23.87218523,1.505613,1.962826,-0.2330568,1.030622,0.0001893706,-0.1644565,-40.31388,-32.71554,15.70157
23.882182598,-0.7711166,1.903473,-0.05014454,0.9963377,0.009870313,-0.1476491,-39.94083,-32.70945,16.09135
23.892179012,-3.170913,1.606712,0.2547093,0.9819213,-0.001228048,-0.1610212,-39.94083,-32.70945,16.09135
23.902175903,-3.540112,1.666064,0.681504599999997,0.9736543,-0.02814448,-0.1638713,-39.94083,-32.70945,16.09135
23.912172317,-3.355512,1.903473,1.352183,0.9680085,-0.03898622,-0.1681659,-39.94083,-32.70945,16.09135
23.922169685,-3.417045,2.022178,1.839949,0.9619186,-0.02592909,-0.1619371,-39.94083,-32.70945,16.09135
23.9321661,-3.417045,1.903473,1.718008,0.9718063,-0.03352196,-0.1633881,-39.91386,-33.85706,15.32343
23.942162991,-2.986313,2.140883,1.596066,0.9905777,-0.04734868,-0.1749031,-39.91386,-33.85706,15.32343
23.952159405,-1.940248,2.853111,1.169271,0.9974524,-0.05011534,-0.1734787,-39.91386,-33.85706,15.32343
23.962156773,-1.017249,3.209226,0.864416900000002,1.004155,-0.04361304,-0.1677491,-39.91386,-33.85706,15.32343
23.972153664,-0.2173175,3.32793,0.4985923,1.002756,-0.04708613,-0.1725315,-39.91386,-33.85706,15.32343
23.982150078,0.02881546,3.090521,0.0717969800000001,1.000808,-0.04712902,-0.1730067,-40.31219,-32.7188,15.31457
23.992146969,0.2134152,2.437645,-0.2330568,0.9963539,-0.04322421,-0.1615141,-40.31219,-32.7188,15.31457
24.002144337,0.1518819,1.725416,-0.598881400000002,0.9939827,-0.04665948,-0.1600734,-40.31219,-32.7188,15.31457
24.012140751,0.705681,1.428654,-1.208589,0.9981526,-0.06117728,-0.1624698,-40.31219,-32.7188,15.31457
24.022137642,1.505613,1.488007,-1.696355,1.000116,-0.06222881,-0.1753945,-40.31219,-32.7188,15.31457
24.032134056,1.813279,1.369302,-2.001209,1.007864,-0.05964603,-0.1754087,-40.67568,-33.10851,14.53981
24.042130947,2.305545,1.191245,-2.06218,1.016695,-0.06287751,-0.1759018,-40.67568,-33.10851,14.53981
24.052128315,3.043944,1.191245,-2.367033,1.019247,-0.06921452,-0.1835619,-40.67568,-33.10851,14.53981
24.062124729,4.828408,1.962826,-2.610917,1.022987,-0.06094543,-0.1907491,-40.67568,-33.10851,14.53981
24.07212162,5.81293900000002,2.437645,-2.488975,1.006784,-0.028068,-0.1739792,-40.67568,-33.10851,14.53981
24.082118034,4.582274,2.55635,-1.879267,0.9916946,-0.002374348,-0.1481164,-40.31049,-32.72207,14.92757
24.092115402,1.690213,2.437645,-0.964705900000002,0.9814219,-7.741619e-05,-0.1404419,-40.31049,-32.72207,14.92757
24.102111816,-0.0942510000000003,2.022178,0.1937385,0.970862,-0.00850758,-0.1361141,-40.31049,-32.72207,14.92757
24.112108707,-0.894183000000003,2.081531,1.839949,0.9715043,-0.01675151,-0.1356345,-40.31049,-32.72207,14.92757
24.122105122,-0.03271778,2.378292,2.876452,0.9877416,-0.02522152,-0.1404464,-40.31049,-32.72207,14.92757
24.13210249,0.644147799999998,2.496997,3.608101,1.006799,-0.02835625,-0.1524432,-40.31219,-32.7188,15.31457
24.142099381,1.136414,2.971816,3.791013,1.030795,-0.03471167,-0.1553549,-40.31219,-32.7188,15.31457
24.152095795,1.321013,3.031168,3.791013,1.052797,-0.03864168,-0.1544351,-40.31219,-32.7188,15.31457
24.162092686,2.244012,2.675054,3.669072,1.060167,-0.04189326,-0.1539685,-40.31219,-32.7188,15.31457
24.1720891,3.290077,2.912464,3.608101,1.062936,-0.03355123,-0.151104,-40.31219,-32.7188,15.31457
24.182086468,3.16701,2.675054,3.912955,1.043688,-0.0201848,-0.1357595,-40.68693,-32.72161,15.31179
24.192083359,1.751746,2.081531,4.522663,1.026792,-0.002424718,-0.1232916,-40.68693,-32.72161,15.31179
24.202079773,-0.832649800000001,1.606712,5.315282,1.006198,0.004501393,-0.1184717,-40.68693,-32.72161,15.31179
24.212076664,-2.92478,1.428654,5.98596099999998,0.9966017,-0.003463265,-0.118453,-40.68693,-32.72161,15.31179
24.222074032,-5.201509,1.250597,6.90052199999999,0.9841006,-0.01247475,-0.1203432,-40.31219,-32.7188,15.31457
24.232070446,-6.73984000000002,1.428654,7.51023000000002,0.9739695,-0.01809045,-0.1279812,-40.31219,-32.7188,15.31457
24.24206686,-6.92443900000002,2.200235,7.69314200000002,0.9651036,-0.03925759,-0.138489,-40.31219,-32.7188,15.31457
24.252063751,-6.43217400000002,3.268578,7.937025,0.9609535,-0.05207935,-0.1499643,-40.31219,-32.7188,15.31457
24.262061119,-4.83231,4.455625,7.32731800000001,0.9641386,-0.06617452,-0.1571449,-40.31219,-32.7188,15.31457
24.272057533,-2.74018,5.82073000000003,6.65663900000001,0.9715723,-0.07285277,-0.159549,-40.68523,-32.72488,14.92479
24.282054424,-0.955716300000001,6.82971999999999,5.681107,0.98611,-0.06875696,-0.1681898,-40.68523,-32.72488,14.92479
24.292050839,1.013347,7.83871000000002,4.705575,0.9983252,-0.0704287,-0.1648606,-40.68523,-32.72488,14.92479
24.30204773,2.613211,8.66964300000001,3.608101,1.01148,-0.07006351,-0.1533978,-40.68523,-32.72488,14.92479
24.312045097,3.474676,8.610291,2.876452,1.027758,-0.05470404,-0.1563016,-40.68523,-32.72488,14.92479
24.322041512,3.843876,8.254177,2.388686,1.031935,-0.04335273,-0.1462617,-40.69479,-32.34126,15.30976
24.332038403,3.35161,7.72000599999998,2.144803,1.023977,-0.03479374,-0.1496001,-40.69479,-32.34126,15.30976
24.342034817,1.936346,7.00777700000002,2.510627,1.018942,-0.02611116,-0.1457649,-40.69479,-32.34126,15.30976
24.352032185,0.0903486900000002,6.71101499999999,2.815481,1.004903,-0.03140587,-0.1629678,-40.69479,-32.34126,15.30976
24.362029076,-1.632582,6.53295800000002,2.998394,0.9880908,-0.04437689,-0.1634137,-40.69479,-32.34126,15.30976
24.37202549,-1.263382,6.473606,2.998394,0.9717621,-0.05746556,-0.1777392,-40.70266,-31.9609,15.30773
24.382022381,-0.3403839,6.77036799999997,3.181306,0.9710277,-0.07003561,-0.1691203,-40.70266,-31.9609,15.30773
24.392019272,1.321013,6.77036799999997,3.303247,0.9709443,-0.06570326,-0.1734284,-40.70266,-31.9609,15.30773
24.402016163,2.305545,6.77036799999997,3.120335,0.9649765,-0.05885129,-0.1552339,-40.70266,-31.9609,15.30773
24.412012577,2.797811,6.35490099999999,3.54713,0.9617295,-0.04129434,-0.1413541,-40.70266,-31.9609,15.30773
24.422009468,3.16701,5.642673,3.973926,0.9697941,-0.02938907,-0.1322782,-41.05829,-32.73097,14.535
24.432006836,2.120945,4.693035,4.461692,0.9730471,-0.02111643,-0.138029,-41.05829,-32.73097,14.535
24.44200325,1.25948,4.099511,4.583633,0.980877,-0.02291427,-0.1389993,-41.05829,-32.73097,14.535
24.452000141,0.5210813,3.387283,4.766546,0.9834267,-0.02931712,-0.153838,-41.05829,-32.73097,14.535
24.461996555,-0.1557842,2.734407,4.461692,0.9839478,-0.03132955,-0.1624527,-41.05829,-32.73097,14.535
24.471993446,-0.894183000000003,1.666064,3.912955,0.98399,-0.03386369,-0.173938,-41.08018,-31.59317,14.14192
24.481990814,-1.509515,0.894483100000001,3.48616,0.9880152,-0.04056981,-0.172029,-41.08018,-31.59317,14.14192
24.491987229,-2.063314,0.1822547,2.876452,0.9755339,-0.05050452,-0.1686546,-41.08018,-31.59317,14.14192
24.50198412,-2.186381,-0.2925643,2.266744,0.9800745,-0.05862757,-0.1633961,-41.08018,-31.59317,14.14192
24.511980534,-1.755648,-0.708030899999999,1.169271,0.9787973,-0.06831899,-0.1576485,-41.08018,-31.59317,14.14192
24.521977902,0.2134152,-1.360907,0.1327677,0.9885949,-0.07101914,-0.155272,-41.07401,-31.97026,14.53095
24.531974793,1.997879,-1.776374,-0.964705900000002,0.9913275,-0.06071213,-0.150015,-41.07401,-31.97026,14.53095
24.541971207,2.982411,-2.844716,-1.574414,0.9890073,-0.04076419,-0.1423589,-41.07401,-31.97026,14.53095
24.551968098,2.490145,-3.853706,-2.001209,0.983826,-0.02434454,-0.1423541,-41.07401,-31.97026,14.53095
24.561964989,1.013347,-4.803344,-2.488975,0.9837505,-0.02053746,-0.1509693,-41.07401,-31.97026,14.53095
24.57196188,-0.2788507,-5.396868,-2.793829,0.979954,-0.02595782,-0.1509613,-41.08188,-31.5899,14.52892
24.581958294,-0.4634504,-6.287153,-3.098683,0.974803,-0.03731958,-0.1600424,-41.08188,-31.5899,14.52892
24.591955185,0.02881546,-7.29614399999999,-3.525478,0.9861064,-0.04245478,-0.1614965,-41.08188,-31.5899,14.52892
24.601951599,1.197947,-8.245782,-4.196156,0.9983768,-0.04702352,-0.1562523,-41.08188,-31.5899,14.52892
24.611948967,2.182479,-9.01736299999997,-4.805864,1.007478,-0.03856516,-0.1543561,-41.08188,-31.5899,14.52892
24.621945858,2.367078,-9.61088600000001,-5.537513,1.019503,-0.02997006,-0.1438506,-41.08805,-31.21281,14.13989
24.631942272,2.920877,-10.14506,-5.84236700000003,1.02625,-0.02594486,-0.1433848,-41.08805,-31.21281,14.13989
24.641939163,3.413143,-10.38247,-5.84236700000003,1.026576,-0.01784847,-0.1620519,-41.08805,-31.21281,14.13989
24.651936531,3.290077,-11.0947,-6.08625000000001,1.010256,-0.005024161,-0.1591553,-41.08805,-31.21281,14.13989
24.661932945,2.120945,-12.10369,-6.02527899999998,0.9978508,0.006888056,-0.1581796,-41.08805,-31.21281,14.13989
24.671929836,0.3364816,-12.75656,-6.08625000000001,0.9925442,0.003771062,-0.1686982,-41.0774,-31.96372,15.30495
24.68192625,-1.263382,-12.69721,-6.14722099999998,0.9824097,-0.001178922,-0.1567149,-41.0774,-31.96372,15.30495
24.691923618,-2.617113,-12.4598,-6.08625000000001,0.9736601,-0.002319282,-0.1562208,-41.0774,-31.96372,15.30495
24.701920032,-3.109379,-12.40045,-5.84236700000003,0.9834105,-0.002638904,-0.1591091,-41.0774,-31.96372,15.30495
24.711916923,-2.801713,-12.34109,-6.02527899999998,0.9889016,-0.009942357,-0.172517,-41.0774,-31.96372,15.30495
24.721913338,-1.940248,-11.80692,-6.33013299999999,1.008973,-0.0149131,-0.1749436,-40.71221,-31.57728,15.69271
24.731910706,-1.140316,-11.03534,-7.18372300000002,1.019378,0.001775001,-0.1792732,-40.71221,-31.57728,15.69271
24.741907597,-1.201849,-10.26376,-7.91537200000002,1.020172,0.01157532,-0.1720985,-40.71221,-31.57728,15.69271
24.751904011,-1.694115,-9.61088600000001,-8.22022599999998,1.004041,0.01415035,-0.1744639,-40.71221,-31.57728,15.69271
24.761900902,-2.309447,-9.49218100000001,-8.46410900000001,0.9918219,0.01645707,-0.1615216,-40.71221,-31.57728,15.69271
24.77189827,-3.293979,-9.373476,-8.829934,0.9825043,0.01971405,-0.157199,-41.0555,-33.10152,15.69804
24.781894684,-4.155444,-9.72959,-8.64702100000002,0.9884416,0.01499826,-0.1543367,-41.0555,-33.10152,15.69804
24.791891575,-4.524643,-10.02635,-8.76896300000003,1.007739,-0.0006960378,-0.1586735,-41.0555,-33.10152,15.69804
24.801887989,-3.847778,-10.44182,-9.19575899999999,1.02393,-0.006741632,-0.1639645,-41.0555,-33.10152,15.69804
24.81188488,-2.617113,-10.73858,-9.86643700000001,1.039895,-0.0006124671,-0.1659082,-39.93914,-32.71272,15.70435
24.821882248,-2.063314,-10.79793,-10.59809,1.036301,0.008987111,-0.1711687,-39.93914,-32.71272,15.70435
24.831878662,-2.678647,-10.73858,-11.26876,1.020142,0.01297115,-0.1787988,-39.93914,-32.71272,15.70435
24.841875553,-4.340044,-10.56052,-11.8175,0.9992321,0.01058356,-0.1821118,-39.93914,-32.71272,15.70435
24.851871967,-6.43217400000002,-10.38247,-12.2443,0.9873451,-0.005236514,-0.1859156,-39.93914,-32.71272,15.70435
24.861869335,-7.10903899999999,-10.20441,-12.54915,0.9819294,-0.02816083,-0.1835074,-39.93494,-33.08599,16.54488
24.871865749,-6.12450699999998,-9.90764799999999,-12.854,0.9896024,-0.04739865,-0.1782514,-39.93494,-33.08599,16.54488
24.88186264,-5.078443,-9.31412399999998,-12.97595,1.007237,-0.05244823,-0.1840238,-39.93494,-33.08599,16.54488
24.891859055,-3.601645,-8.77995300000002,-13.09789,1.020815,-0.04869943,-0.1754341,-39.93494,-33.08599,16.54488
24.901856422,-2.124848,-8.30513400000001,-12.73206,1.037104,-0.03375988,-0.1711591,-39.93494,-33.08599,16.54488
24.911853313,-1.755648,-7.53355299999998,-12.30527,1.044767,-0.02688425,-0.1797886,-39.91922,-33.84671,16.54894
24.921849728,-2.309447,-6.405858,-11.32973,1.038334,-0.02167476,-0.1807359,-39.91922,-33.84671,16.54894
24.931846619,-3.109379,-5.396868,-10.17129,1.030087,-0.02386481,-0.1898139,-39.91922,-33.84671,16.54894
24.941843986,-4.155444,-4.684639,-9.19575899999999,1.024496,-0.03761673,-0.1936292,-39.91922,-33.84671,16.54894
24.951840401,-4.032378,-3.794354,-8.03731400000003,1.017952,-0.05228478,-0.1893069,-39.91922,-33.84671,16.54894
24.961837292,-3.170913,-3.082125,-7.00081100000001,1.008205,-0.05185983,-0.1749327,-39.16187,-34.22144,16.55653
24.971833706,-3.355512,-2.844716,-5.964308,1.017158,-0.06131843,-0.1658529,-39.16187,-34.22144,16.55653
24.981831074,-2.92478,-2.310545,-5.3546,1.04232,-0.07782488,-0.165414,-39.16187,-34.22144,16.55653
24.991827488,-1.017249,-0.886087999999999,-4.805864,1.054851,-0.09661237,-0.1745239,-39.16187,-34.22144,16.55653
25.001824379,1.321013,0.5383689,-3.952273,1.044759,-0.07843808,-0.1845611,-39.16187,-34.22144,16.55653
25.011820793,2.120945,1.428654,-2.91577,1.027802,-0.05797413,-0.1950655,-39.53831,-34.22098,16.94075
25.021817684,2.182479,2.378292,-2.123151,1.004723,-0.04877705,-0.2022063,-39.53831,-34.22098,16.94075
25.031815052,0.1518819,3.149873,-1.452472,0.9924914,-0.04608113,-0.1997927,-39.53831,-34.22098,16.94075
25.041811466,-1.878715,3.56534,-0.4769399,0.9712275,-0.05510344,-0.1839603,-39.53831,-34.22098,16.94075
25.051808357,-1.694115,4.455625,0.4376215,0.9658317,-0.07894661,-0.175809,-39.53831,-34.22098,16.94075
25.061804771,0.705681,5.227206,1.474125,0.954916,-0.094844,-0.1901432,-38.77927,-34.59898,16.56134
25.071802139,3.966942,5.998787,2.205774,0.9716573,-0.1043198,-0.1997414,-38.77927,-34.59898,16.56134
25.08179903,8.028135,6.948425,2.75451,0.9742041,-0.0844029,-0.2059725,-38.77927,-34.59898,16.56134
25.091795445,9.99719900000002,7.423244,2.937423,0.9903001,-0.05931065,-0.2069642,-38.77927,-34.59898,16.56134
25.101792336,10.05873,6.948425,2.815481,0.9853045,-0.02686003,-0.207921,-38.77927,-34.59898,16.56134
25.111789703,8.705001,6.53295800000002,3.303247,0.9821894,-0.01674752,-0.2112682,-38.77927,-34.59898,16.56134
25.121786118,7.28973700000001,5.702025,3.851984,0.9761356,-0.005646594,-0.2064747,-38.77927,-34.59898,16.56134
25.131783009,5.99753899999999,4.930444,5.193341,0.971346,-0.01013663,-0.2088581,-38.77927,-34.59898,16.56134
25.141779423,4.397675,3.268578,6.71760999999998,0.9683984,-0.008662474,-0.2007175,-38.77927,-34.59898,16.56134
25.151776791,3.474676,1.962826,8.54673300000003,0.9698476,-0.008240012,-0.2107703,-38.77927,-34.59898,16.56134
25.161773205,2.059412,0.5383689,9.88808900000002,0.9706858,-0.0009080126,-0.2079021,-39.15401,-34.6018,16.55856
25.171770096,0.5826145,-0.708030899999999,11.1075,0.9764482,0.00355299,-0.2107848,-39.15401,-34.6018,16.55856
25.18176651,-0.1557842,-1.598316,11.59527,0.977564,-0.004336005,-0.2256206,-39.15401,-34.6018,16.55856
25.191763401,0.1518819,-2.132488,11.77818,0.9701462,0.001296101,-0.231352,-39.15401,-34.6018,16.55856
25.201760769,-0.03271778,-2.132488,11.77818,0.9685155,0.01061959,-0.2179514,-39.15401,-34.6018,16.55856
25.211757183,-0.5249836,-2.369897,11.65624,0.9649778,0.01734849,-0.2184256,-39.16187,-34.22144,16.55653
25.221754074,-2.432514,-3.141478,11.41236,0.9590371,0.02273,-0.2016665,-39.16187,-34.22144,16.55653
25.231750488,-3.909311,-4.625287,11.1075,0.9797816,0.008172167,-0.1911702,-39.16187,-34.22144,16.55653
25.241747856,-2.863246,-5.69363,10.74168,1.010114,-0.02431205,-0.1955219,-39.16187,-34.22144,16.55653
25.251744747,0.8287475,-6.16844799999999,10.19294,1.039169,-0.04087756,-0.2099256,-39.16187,-34.22144,16.55653
25.261741161,3.105477,-6.04974400000001,9.46129399999998,1.04555,-0.01743507,-0.2108999,-39.92708,-33.46635,16.54691
25.274237156,3.290077,-6.04974400000001,8.24187900000002,1.026362,0.01805777,-0.2204471,-39.92708,-33.46635,16.54691
25.284234524,0.951813900000003,-6.46521000000002,7.38828800000001,0.994761,0.04035603,-0.2113048,-39.92708,-33.46635,16.54691
25.294230938,-2.063314,-7.53355299999998,6.77858100000002,0.9704544,0.03754698,-0.2002544,-39.92708,-33.46635,16.54691
25.304227829,-4.64771,-8.245782,5.86401899999998,0.9522292,0.02218851,-0.1930401,-39.5602,-33.08318,16.54766
25.314224243,-5.93990799999998,-8.60189500000002,5.13237,0.9447975,0.003282966,-0.1719649,-39.5602,-33.08318,16.54766
25.324221134,-5.693775,-8.95800999999999,4.33975,0.9533365,-0.01007135,-0.1628834,-39.5602,-33.08318,16.54766
25.334218502,-4.155444,-8.77995300000002,3.608101,0.9662009,-0.02053861,-0.1662532,-39.5602,-33.08318,16.54766
25.344214916,-2.309447,-8.60189500000002,2.449656,0.9872799,-0.02752532,-0.1787311,-39.5602,-33.08318,16.54766
25.354211807,-0.3403839,-7.59290600000003,0.925387699999998,1.006806,-0.02969646,-0.1926433,-39.5619,-33.07991,16.93467
25.364208222,1.382547,-6.04974400000001,-0.903735200000002,1.008003,-0.01558051,-0.192649,-39.5619,-33.07991,16.93467
25.374205589,2.367078,-4.328525,-2.793829,1.008303,-0.005987336,-0.2070093,-39.5619,-33.07991,16.93467
25.38420248,3.043944,-3.319535,-4.622952,0.996116,-0.005742169,-0.2069881,-39.5619,-33.07991,16.93467
25.394198895,3.782343,-2.251192,-5.720425,0.9943925,0.008390654,-0.1988529,-39.5619,-33.07991,16.93467
25.404195786,3.105477,-1.420259,-6.26916200000001,1.000629,0.0139952,-0.1840294,-39.56359,-33.07665,17.32167
25.414193153,2.613211,-0.589326100000003,-6.695957,1.014458,0.004011011,-0.1897939,-39.56359,-33.07665,17.32167
25.424189568,3.290077,0.8351307,-6.695957,1.02789,-0.01086675,-0.1984278,-39.56359,-33.07665,17.32167
25.434186459,4.705341,2.259588,-6.33013299999999,1.044404,-0.008180963,-0.2061145,-39.56359,-33.07665,17.32167
25.444182873,5.566806,3.209226,-6.02527899999998,1.04211,0.01027897,-0.2018081,-39.56359,-33.07665,17.32167
25.454180241,4.705341,3.743397,-5.78139599999999,1.040265,0.03063452,-0.2037244,-39.92091,-33.84344,16.93594
25.464176655,2.120945,4.040159,-5.415571,1.030646,0.04991723,-0.199884,-39.92091,-33.84344,16.93594
25.474173546,-0.832649800000001,4.514977,-4.927805,1.012827,0.03896219,-0.1902786,-39.92091,-33.84344,16.93594
25.48416996,-3.109379,4.693035,-4.196156,0.9941868,0.01969045,-0.1849768,-39.92091,-33.84344,16.93594
25.494167328,-3.540112,4.633682,-3.403537,0.985197,0.005442463,-0.1825646,-39.92091,-33.84344,16.93594
25.504164219,-3.786245,4.989797,-2.367033,0.9869914,-0.01264229,-0.1978775,-39.93047,-33.45982,17.32092
25.514160633,-3.355512,5.108501,-1.696355,0.9911765,-0.02822377,-0.2103237,-39.93047,-33.45982,17.32092
25.524157524,-2.370981,5.464615,-1.26956,0.9921428,-0.02768365,-0.2064969,-39.93047,-33.45982,17.32092
25.534154892,-1.632582,5.88008199999999,-1.086647,0.9981716,-0.03725267,-0.203155,-39.93047,-33.45982,17.32092
25.544151306,-0.2788507,6.117492,-1.26956,0.9966815,-0.03586815,-0.2079385,-39.93047,-33.45982,17.32092
25.554148197,0.3364816,6.41425300000001,-1.391501,0.9960299,-0.02714285,-0.2088967,-39.17142,-33.83781,16.9415
25.564144611,-0.03271778,6.65166300000002,-1.574414,0.9940359,-0.02474815,-0.2084153,-39.17142,-33.83781,16.9415
25.574141979,-0.3403839,6.65166300000002,-1.330531,0.9780474,-0.02931469,-0.1949861,-39.17142,-33.83781,16.9415
25.58413887,-0.709583300000001,6.473606,-1.086647,0.9698128,-0.03188954,-0.1930568,-39.17142,-33.83781,16.9415
25.594135285,-1.386449,5.93943499999998,-0.659852100000001,0.9672966,-0.02751753,-0.1877892,-39.17142,-33.83781,16.9415
25.604131699,-1.509515,5.523968,-0.3549984,0.9747753,-0.03664653,-0.1925856,-39.55403,-33.46027,16.9367
25.61412859,-1.694115,5.464615,-0.3549984,0.9876727,-0.04916655,-0.2079193,-39.55403,-33.46027,16.9367
25.624125957,-0.832649800000001,5.345911,-0.659852100000001,0.9957464,-0.06416334,-0.2179797,-39.55403,-33.46027,16.9367
25.634122372,0.705681,5.642673,-0.8427644,1.010827,-0.0629286,-0.2218349,-39.55403,-33.46027,16.9367
25.644119263,1.936346,5.523968,-1.208589,1.012125,-0.05414725,-0.2208823,-39.55403,-33.46027,16.9367
25.654115677,2.182479,5.345911,-1.26956,1.008582,-0.04682285,-0.2093921,-39.55036,-33.46735,16.09819
25.664113045,2.859344,4.989797,-1.147618,1.001014,-0.03275285,-0.1955039,-39.55036,-33.46735,16.09819
25.674109936,2.613211,4.158864,-0.7817937,0.9836434,-0.01540476,-0.1739421,-39.55036,-33.46735,16.09819
25.68410635,1.321013,3.031168,-0.1111153,0.9791538,-0.009543733,-0.1610142,-39.55036,-33.46735,16.09819
25.694103241,-0.1557842,2.140883,0.864416900000002,0.9783251,-0.01734833,-0.1624465,-39.55036,-33.46735,16.09819
25.704100609,-0.955716300000001,1.428654,1.839949,0.9781075,-0.03206247,-0.1767996,-39.1776,-33.46073,16.55247
25.714097023,-0.7711166,0.953835399999999,2.388686,0.9880749,-0.04410181,-0.1863854,-39.1776,-33.46073,16.55247
25.724093914,0.3980148,0.8351307,2.632569,1.000881,-0.051773,-0.2026774,-39.1776,-33.46073,16.55247
25.734090328,1.25948,1.013188,2.571598,1.011656,-0.05511962,-0.219924,-39.1776,-33.46073,16.55247
25.744087696,2.059412,1.131893,2.205774,1.019847,-0.05007206,-0.2170682,-39.1776,-33.46073,16.55247
25.75408411,2.982411,1.369302,2.144803,1.024672,-0.04753824,-0.2161201,-39.55036,-33.46735,16.09819
25.764081001,3.474676,1.488007,1.90092,1.023058,-0.03925211,-0.2098979,-39.55036,-33.46735,16.09819
25.774077415,3.474676,1.488007,2.144803,1.013119,-0.02861299,-0.1940903,-39.55036,-33.46735,16.09819
25.784074783,3.228544,1.844121,2.75451,0.9992307,-0.01510558,-0.1749265,-39.55036,-33.46735,16.09819
25.794071674,2.182479,1.725416,3.912955,0.9897954,-0.005498589,-0.1667767,-39.55036,-33.46735,16.09819
25.804068088,0.4595481,1.488007,4.827517,0.9858323,-0.002249866,-0.1749065,-39.55823,-33.087,16.09616
25.81406498,-0.709583300000001,1.725416,5.559165,0.9810503,-0.007273945,-0.1825541,-39.55823,-33.087,16.09616
25.824062347,-1.632582,2.022178,6.10790299999999,0.9749341,-0.01914072,-0.1916333,-39.55823,-33.087,16.09616
25.834058762,-0.955716300000001,2.259588,5.98596099999998,0.9854786,-0.03606755,-0.205526,-39.55823,-33.087,16.09616
25.844055653,0.5210813,2.853111,5.620136,0.9963656,-0.04517308,-0.2151142,-39.55823,-33.087,16.09616
25.854052067,1.44408,3.149873,4.644604,1.003158,-0.0435635,-0.2132121,-39.55403,-33.46027,16.9367
25.864049435,2.428612,3.387283,3.973926,1.007005,-0.04042271,-0.1969481,-39.55403,-33.46027,16.9367
25.874046326,3.35161,3.446635,3.669072,1.008007,-0.04186074,-0.1969494,-39.55403,-33.46027,16.9367
25.88404274,4.028476,3.32793,3.059364,1.006836,-0.03107035,-0.18355,-39.55403,-33.46027,16.9367
25.894039631,4.213075,2.496997,3.120335,1.001178,-0.01511097,-0.1797157,-39.92708,-33.46635,16.54691
25.904036522,3.16701,2.200235,3.303247,0.9897404,-0.002592799,-0.1677345,-39.92708,-33.46635,16.54691
25.914033413,0.951813900000003,1.488007,3.851984,0.9882314,-0.0002587022,-0.1749112,-39.92708,-33.46635,16.54691
25.924029827,-1.447982,0.775778400000001,4.217809,0.9833774,-0.001361577,-0.178731,-39.92708,-33.46635,16.54691
25.934026718,-2.678647,0.4196641,4.644604,0.9865177,-0.01300161,-0.1830407,-39.92708,-33.46635,16.54691
25.944024086,-2.92478,0.4790165,4.827517,0.9831804,-0.01697262,-0.1849482,-40.31755,-32.70845,16.54008
25.9540205,-3.355512,0.06354995,5.010429,0.978411,-0.02237273,-0.1806313,-40.31755,-32.70845,16.54008
25.964017391,-2.92478,0.1822547,5.254312,0.9799918,-0.02863242,-0.177761,-40.31755,-32.70845,16.54008
25.974013805,-1.694115,0.2416071,5.0714,0.978559,-0.03008346,-0.1739295,-40.31755,-32.70845,16.54008
25.984011173,-0.6480501,0.775778400000001,4.705575,0.9819776,-0.03050625,-0.1744139,-40.31755,-32.70845,16.54008
25.994008064,0.5210813,1.07254,4.095867,0.9800388,-0.03101734,-0.1729747,-39.94083,-32.70945,16.09135
26.004004478,1.25948,1.428654,3.608101,0.9745725,-0.02525017,-0.1681809,-39.94083,-32.70945,16.09135
26.014001369,1.44408,1.488007,3.242276,0.9756735,-0.0320623,-0.1715311,-39.94083,-32.70945,16.09135
26.023998261,1.197947,1.606712,2.75451,0.9847239,-0.0213156,-0.1849497,-39.94083,-32.70945,16.09135
26.033995152,0.5826145,1.725416,2.449656,0.9930145,-0.0216202,-0.1830498,-39.94083,-32.70945,16.09135
26.043991566,-0.4019172,1.666064,2.449656,0.9970105,-0.0269217,-0.186884,-40.32344,-32.33191,16.08655
26.053988457,-0.2788507,1.725416,1.96189,1.004857,-0.02973934,-0.1931184,-40.32344,-32.33191,16.08655
26.063984871,-0.6480501,2.081531,1.778978,0.998902,-0.02403886,-0.1945453,-40.32344,-32.33191,16.08655
26.073982239,-1.940248,1.784769,1.474125,0.9924537,-0.01776129,-0.1849641,-40.32344,-32.33191,16.08655
26.08397913,-3.293979,1.725416,1.291212,0.9914621,-0.01678268,-0.1820912,-40.32344,-32.33191,16.08655
26.093975544,-3.970845,1.903473,1.047329,0.9879455,-0.03735382,-0.1921299,-41.07124,-32.34081,15.69398
26.103972435,-3.540112,2.022178,0.803446099999999,0.9877227,-0.0514593,-0.193083,-41.07124,-32.34081,15.69398
26.113969803,-1.386449,1.784769,0.7424754,0.9897708,-0.05678612,-0.1954781,-41.07124,-32.34081,15.69398
26.123966217,1.136414,1.547359,0.620533899999998,0.9897625,-0.05627403,-0.1926067,-41.07124,-32.34081,15.69398
26.133963108,2.551678,0.775778400000001,0.681504599999997,0.9836428,-0.04183862,-0.1949927,-41.07124,-32.34081,15.69398
26.143959522,2.305545,-0.05515479,0.31568,0.979549,-0.03111035,-0.1820667,-41.08079,-31.95718,16.07896
26.15395689,1.25948,-0.648678499999998,0.4985923,0.975623,-0.02978712,-0.1882817,-41.08079,-31.95718,16.07896
26.163953781,0.8287475,-0.826735599999998,0.3766508,0.9704812,-0.04163026,-0.1968841,-41.08079,-31.95718,16.07896
26.173950195,1.013347,-1.242202,0.803446099999999,0.9613418,-0.04822018,-0.2069165,-41.08079,-31.95718,16.07896
26.183947086,1.25948,-1.420259,0.5595631,0.9631681,-0.04197652,-0.2188857,-41.08079,-31.95718,16.07896
26.193943977,0.644147799999998,-1.657669,0.7424754,0.9596928,-0.03869623,-0.2246234,-39.95656,-31.94874,16.0873
26.203940868,-1.017249,-1.895078,0.5595631,0.9625356,-0.0341964,-0.2169723,-39.95656,-31.94874,16.0873
26.213937283,-2.863246,-2.251192,0.4985923,0.9639522,-0.03171239,-0.214104,-39.95656,-31.94874,16.0873
26.223934174,-3.601645,-2.904068,0.4985923,0.9753794,-0.04300008,-0.1978494,-39.95656,-31.94874,16.0873
26.233931541,-3.355512,-3.43824,0.31568,0.9955793,-0.05473637,-0.1964459,-39.95656,-31.94874,16.0873
26.243927956,-1.140316,-3.853706,-0.1111153,1.012334,-0.06457064,-0.1921654,-41.07124,-32.34081,15.69398
26.253924847,1.628679,-4.387877,-0.720822899999998,1.022012,-0.06097784,-0.1921832,-41.07124,-32.34081,15.69398
26.263921261,3.597743,-5.159458,-1.635384,1.033454,-0.04771471,-0.2012995,-41.07124,-32.34081,15.69398
26.273918629,4.643808,-6.04974400000001,-2.671887,1.039153,-0.0398446,-0.2032257,-41.07124,-32.34081,15.69398
26.28391552,4.951474,-6.04974400000001,-3.220624,1.035145,-0.03412318,-0.2065702,-41.07124,-32.34081,15.69398
26.293911934,4.828408,-6.761972,-3.830332,1.021017,-0.03446372,-0.2132456,-40.70604,-31.95437,16.08174
26.303908825,4.705341,-7.29614399999999,-4.074214,1.01033,-0.03606688,-0.2060479,-40.70604,-31.95437,16.08174
26.313906193,4.459208,-7.77096299999999,-3.952273,0.9952757,-0.03878525,-0.2050638,-40.70604,-31.95437,16.08174
26.323902607,3.843876,-8.364487,-3.525478,0.9799222,-0.02541205,-0.1973833,-40.70604,-31.95437,16.08174
26.333899498,2.797811,-8.66124800000001,-2.976741,0.9714181,-0.013278,-0.1806214,-40.70604,-31.95437,16.08174
26.343895912,0.644147799999998,-9.07671499999999,-2.428004,0.9629915,-0.005660645,-0.1796515,-40.69818,-32.33472,16.08377
26.35389328,-1.324916,-8.95800999999999,-1.940238,0.9594096,0.003536566,-0.1758191,-40.69818,-32.33472,16.08377
26.363889694,-3.478579,-8.66124800000001,-1.391501,0.9531171,0.001573752,-0.1643218,-40.69818,-32.33472,16.08377
26.373886585,-4.64771,-8.30513400000001,-1.208589,0.959619,-0.007649112,-0.1772523,-40.69818,-32.33472,16.08377
26.383883,-5.078443,-8.364487,-0.8427644,0.9660879,-0.01482359,-0.1786974,-40.69818,-32.33472,16.08377
26.393880367,-4.278511,-8.18642900000001,-0.964705900000002,0.9881995,-0.02458273,-0.1777763,-39.5602,-33.08318,16.54766
26.403877258,-3.109379,-8.00837199999998,-1.452472,1.0067,-0.02374004,-0.1787659,-39.5602,-33.08318,16.54766
26.413873673,-1.571049,-7.889668,-2.306063,1.031456,-0.01825116,-0.1634961,-39.5602,-33.08318,16.54766
26.423870564,-0.03271778,-7.35549600000001,-2.732858,1.033664,-0.006059007,-0.1635031,-39.5602,-33.08318,16.54766
26.433867931,0.1518819,-7.236791,-3.464507,1.025984,0.01375674,-0.158709,-39.5602,-33.08318,16.54766
26.443864346,-0.6480501,-6.82132499999999,-4.135185,1.031248,0.01861049,-0.1706838,-39.96192,-31.93839,17.3128
26.453861237,-2.247914,-6.405858,-4.50101,1.012202,0.02057618,-0.1802226,-39.96192,-31.93839,17.3128
26.463857651,-3.847778,-5.574925,-4.988776,1.010953,0.008678362,-0.2031891,-39.96192,-31.93839,17.3128
26.473855019,-4.709243,-4.803344,-5.171688,0.9940871,-0.001360532,-0.2017214,-39.96192,-31.93839,17.3128
26.483851433,-5.263042,-3.675649,-5.537513,0.9863191,-0.003020077,-0.2069717,-39.96192,-31.93839,17.3128
26.493848324,-5.632242,-2.904068,-5.659454,0.9842891,0.001330836,-0.205055,-39.95406,-32.31875,17.31483
26.503844738,-6.73984000000002,-1.835726,-5.537513,0.9812754,0.006135094,-0.2045724,-39.95406,-32.31875,17.31483
26.513842106,-7.35517199999998,-1.004793,-6.08625000000001,0.9878348,-0.005918942,-0.2084093,-39.95406,-32.31875,17.31483
26.523838997,-6.12450699999998,0.3603118,-6.39110400000002,0.9928309,-0.01270676,-0.2175093,-39.95406,-32.31875,17.31483
26.533835411,-4.340044,1.369302,-6.63498599999997,0.9853883,-0.00553836,-0.2146267,-39.94619,-32.6991,17.31686
26.543832302,-3.847778,1.725416,-6.63498599999997,0.9797118,0.01138815,-0.2112711,-39.94619,-32.6991,17.31686
26.55382967,-4.770776,1.428654,-6.63498599999997,0.9733612,0.01223456,-0.2112602,-39.94619,-32.6991,17.31686
26.563826084,-5.447642,1.369302,-6.57401600000003,0.9793415,0.005006569,-0.2174903,-39.94619,-32.6991,17.31686
26.573822975,-5.324575,1.369302,-6.45207400000002,0.9825217,-0.008471168,-0.2103137,-39.94619,-32.6991,17.31686
26.583819389,-4.709243,1.013188,-6.02527899999998,0.9977416,-0.014457,-0.2069887,-39.93664,-33.08273,16.93188
26.593816757,-3.786245,0.1229023,-5.78139599999999,1.011515,-0.02153979,-0.2141895,-39.93664,-33.08273,16.93188
26.603813648,-3.170913,-0.411269,-5.90333699999997,1.023368,-0.03011397,-0.220908,-39.93664,-33.08273,16.93188
26.613810063,-2.55558,-0.886087999999999,-6.26916200000001,1.039009,-0.03277763,-0.2271561,-39.93664,-33.08273,16.93188
26.623806953,-3.663178,-0.767383199999997,-6.75692799999998,1.03106,-0.02466051,-0.2257086,-39.93664,-33.08273,16.93188
26.633803844,-5.01691,-1.004793,-7.06178199999999,1.018569,-0.03412702,-0.2242486,-39.93047,-33.45982,17.32092
26.643800735,-6.12450699999998,-1.004793,-7.42760699999997,1.002697,-0.04507869,-0.2184753,-39.93047,-33.45982,17.32092
26.65379715,-5.87837500000002,-0.886087999999999,-7.30566500000003,0.9840015,-0.0614622,-0.2160456,-39.93047,-33.45982,17.32092
26.663794041,-5.324575,-0.767383199999997,-7.30566500000003,0.9822851,-0.07352182,-0.2026394,-39.93047,-33.45982,17.32092
26.673791408,-4.586177,-0.589326100000003,-7.18372300000002,0.9939073,-0.09567622,-0.2060039,-39.93047,-33.45982,17.32092
26.683787823,-2.309447,-0.1738595,-7.244694,1.019476,-0.1077573,-0.2007811,-38.78883,-34.21535,16.94631
26.693784714,1.751746,0.2416071,-7.18372300000002,1.043074,-0.1190195,-0.2079979,-38.78883,-34.21535,16.94631
26.703781128,5.81293900000002,1.606712,-7.12275300000002,1.047595,-0.1005653,-0.2190178,-38.78883,-34.21535,16.94631
26.713778496,8.705001,2.971816,-6.87886999999998,1.040788,-0.07543077,-0.2190124,-38.78883,-34.21535,16.94631
26.723775387,8.95113399999999,4.099511,-5.90333699999997,1.017047,-0.03067217,-0.215154,-38.78883,-34.21535,16.94631
26.733771801,6.305205,4.396273,-4.744893,1.002648,-0.01635648,-0.2127397,-39.16973,-33.84108,16.5545
26.743768692,4.213075,4.811739,-3.281595,0.9946122,-0.02966198,-0.2155937,-39.16973,-33.84108,16.5545
26.75376606,3.413143,5.405263,-1.330531,0.9824262,-0.02939047,-0.2127011,-39.16973,-33.84108,16.5545
26.763762474,1.997879,5.464615,0.5595631,0.9849191,-0.03217353,-0.2036117,-39.16973,-33.84108,16.5545
26.773758888,1.505613,5.642673,2.205774,0.9942586,-0.03628791,-0.1954912,-39.16973,-33.84108,16.5545
26.783755779,1.44408,6.53295800000002,3.669072,0.9997406,-0.04310999,-0.2093777,-38.78883,-34.21535,16.94631
26.793753147,2.059412,7.18583399999999,4.705575,1.005457,-0.03621579,-0.2117823,-38.78883,-34.21535,16.94631
26.803749561,1.936346,7.779358,5.620136,0.9974799,-0.02669405,-0.216078,-38.78883,-34.21535,16.94631
26.813746452,1.751746,8.01676800000001,5.86401899999998,0.9929282,-0.01814669,-0.2280367,-38.78883,-34.21535,16.94631
26.823742866,0.951813900000003,8.43223400000003,6.16887299999999,0.9858034,-0.001611921,-0.2112784,-38.78883,-34.21535,16.94631
26.833740234,-1.140316,8.19482400000001,6.77858100000002,0.9803133,0.00572226,-0.1945205,-38.78516,-34.22244,16.10781
26.843737125,-2.124848,7.304539,7.26634699999998,0.9763494,-0.01669621,-0.1930721,-38.78516,-34.22244,16.10781
26.85373354,-1.140316,6.23619700000001,7.63217200000002,0.9806451,-0.03807611,-0.202167,-38.78516,-34.22244,16.10781
26.863730431,1.382547,5.227206,7.51023000000002,0.9787694,-0.04200947,-0.2031199,-38.78516,-34.22244,16.10781
26.873727798,3.905409,4.158864,7.205376,0.9796057,-0.03473453,-0.2064733,-38.78516,-34.22244,16.10781
26.883724213,5.320673,3.446635,7.08343500000003,0.979843,-0.02171908,-0.2184414,-39.16187,-34.22144,16.55653
26.893721104,6.05907200000001,2.496997,6.59566799999998,0.9728286,-0.01175378,-0.229439,-39.16187,-34.22144,16.55653
26.903717518,6.05907200000001,2.022178,5.742078,0.9601406,-0.01118609,-0.2461672,-39.16187,-34.22144,16.55653
26.913714886,5.197607,0.716426,5.193341,0.9365045,0.001970834,-0.2442151,-39.16187,-34.22144,16.55653
26.9237113,2.613211,-0.886087999999999,4.888487,0.9199121,0.003762237,-0.2250436,-39.16187,-34.22144,16.55653
26.933708191,1.07488,-2.785364,4.644604,0.9107072,0.001295422,-0.2092339,-39.54448,-33.84389,16.55172
26.943704605,-0.586516899999998,-4.150468,4.461692,0.9269838,-0.009034237,-0.2049524,-39.54448,-33.84389,16.55172
26.953701973,-0.832649800000001,-4.981401,4.522663,0.9489453,-0.03679812,-0.2064193,-39.54448,-33.84389,16.55172
26.963698864,0.644147799999998,-5.75298199999998,4.27878,0.9738947,-0.04221983,-0.2155543,-39.54448,-33.84389,16.55172
26.973695278,2.367078,-6.34650599999999,4.156838,0.9882219,-0.02696908,-0.2261119,-39.54448,-33.84389,16.55172
26.983692169,2.920877,-6.88067700000001,3.669072,0.9860604,-0.01593601,-0.2371182,-40.30968,-33.08881,16.5421
26.993689537,2.613211,-7.47420100000002,3.54713,0.9829912,-0.008239131,-0.2390292,-40.30968,-33.08881,16.5421
27.003685951,1.44408,-8.30513400000001,3.303247,0.9754156,0.006334193,-0.2232267,-40.30968,-33.08881,16.5421
27.013682842,-0.4634504,-9.49218100000001,3.242276,0.9691079,0.005439462,-0.201201,-40.30968,-33.08881,16.5421
27.023679256,-1.940248,-11.0947,3.48616,0.969758,-0.002558672,-0.1739212,-40.30968,-33.08881,16.5421
27.033676624,-2.74018,-12.22239,3.608101,0.9924311,-0.01615478,-0.1686929,-39.9445,-32.70237,16.92986
27.043673515,-1.324916,-12.81591,3.851984,1.02982,-0.0354932,-0.1855033,-39.9445,-32.70237,16.92986
27.05366993,1.382547,-12.4598,3.730042,1.049822,-0.03725674,-0.2089879,-39.9445,-32.70237,16.92986
27.063666821,2.859344,-11.92563,3.120335,1.04868,-0.02862885,-0.2195168,-39.9445,-32.70237,16.92986
27.073663712,2.428612,-11.0947,2.144803,1.039404,-0.002291492,-0.2420005,-39.9445,-32.70237,16.92986
27.083660603,0.8287475,-9.96700000000001,1.230241,1.025969,0.01249849,-0.242938,-39.56528,-33.07338,17.70867
27.093657017,-1.263382,-8.89865800000003,0.1327677,1.002335,-0.0006774892,-0.2510292,-39.56528,-33.07338,17.70867
27.103653908,-1.386449,-7.94901899999999,-0.598881400000002,0.9924461,-0.01876936,-0.2419144,-39.56528,-33.07338,17.70867
27.113651276,-0.586516899999998,-6.88067700000001,-0.7817937,0.9729218,-0.01654994,-0.2227379,-39.56528,-33.07338,17.70867
27.12364769,-0.1557842,-6.58391499999997,-0.659852100000001,0.9652929,0.0009862313,-0.2016718,-39.56359,-33.07665,17.32167
27.133644581,0.3980148,-6.22780099999998,-0.4159691,0.9720154,0.006565291,-0.1906777,-39.56359,-33.07665,17.32167
27.143641949,0.8287475,-5.81233500000002,-0.5379106,0.9939501,0.005921498,-0.2022016,-39.56359,-33.07665,17.32167
27.153638363,1.197947,-5.159458,-0.3549984,0.9996394,0.0142642,-0.2055636,-39.56359,-33.07665,17.32167
27.163635254,1.567146,-3.913059,-0.659852100000001,1.012715,0.01830041,-0.2175519,-39.56359,-33.07665,17.32167
27.173631668,1.382547,-2.785364,-0.720822899999998,1.003952,0.0175273,-0.2299794,-39.56697,-33.07011,18.09567
27.183629036,0.0903486900000002,-2.073135,-0.964705900000002,0.9974458,0.02660971,-0.2323633,-39.56697,-33.07011,18.09567
27.19362545,-1.324916,-1.538964,-1.208589,0.9804969,0.02091633,-0.233768,-39.56697,-33.07011,18.09567
27.203622341,-2.678647,-1.301555,-1.208589,0.980765,0.006938983,-0.2218005,-39.56697,-33.07011,18.09567
27.213618755,-3.355512,-0.5299737,-1.208589,0.9869851,-0.0128398,-0.2194133,-39.56697,-33.07011,18.09567
27.223616123,-2.678647,0.1822547,-1.208589,0.9974996,-0.02762168,-0.211292,-39.19054,-33.07056,17.71145
27.233613014,-1.878715,0.3009594,-1.025677,1.001252,-0.01972862,-0.2065149,-39.19054,-33.07056,17.71145
27.243609428,-1.571049,-0.1145072,-1.452472,1.014441,-0.02138549,-0.203666,-39.19054,-33.07056,17.71145
27.253606319,-1.078783,0.5383689,-2.245092,1.024867,-0.03199742,-0.2175601,-39.19054,-33.07056,17.71145
27.263603687,0.02881546,1.07254,-3.159653,1.027102,-0.02126694,-0.2180454,-39.19054,-33.07056,17.71145
27.273600102,0.3364816,1.488007,-4.074214,1.004132,-0.01792095,-0.2275777,-39.57653,-32.68649,18.48065
27.283596993,-0.03271778,1.428654,-4.257127,0.9832857,-0.02370449,-0.2304113,-39.57653,-32.68649,18.48065
27.293593407,-0.832649800000001,1.191245,-4.379068,0.9668427,-0.0303466,-0.230381,-39.57653,-32.68649,18.48065
27.303590775,-1.201849,0.953835399999999,-4.196156,0.9577987,-0.04166246,-0.2260551,-39.57653,-32.68649,18.48065
27.313587666,-0.955716300000001,0.4196641,-4.013244,0.963845,-0.05222494,-0.2251058,-39.57653,-32.68649,18.48065
27.32358408,-0.0942510000000003,0.4790165,-3.586449,0.9659742,-0.06195434,-0.2308499,-39.57314,-32.69302,17.70664
27.333580971,0.705681,0.4196641,-3.342566,0.9715499,-0.04713873,-0.2169847,-39.57314,-32.69302,17.70664
27.343577862,0.5210813,0.4196641,-3.098683,0.9786488,-0.03575603,-0.2098214,-39.57314,-32.69302,17.70664
27.353574753,0.02881546,0.4196641,-2.976741,0.9828241,-0.0244574,-0.2055244,-39.57314,-32.69302,17.70664
27.363571167,-1.386449,0.597721199999998,-2.732858,0.9833094,-0.02450484,-0.2117467,-39.57314,-32.69302,17.70664
27.373568058,-2.309447,0.716426,-2.306063,0.9884012,-0.0360142,-0.2060097,-39.55742,-33.45374,17.7107
27.383565426,-1.447982,0.8351307,-1.574414,0.9931645,-0.05644806,-0.2189343,-39.55742,-33.45374,17.7107
27.39356184,0.3980148,1.30995,-0.8427644,0.9961848,-0.06181709,-0.2280311,-39.55742,-33.45374,17.7107
27.403558731,1.874812,1.488007,-0.2940276,0.9940538,-0.05214475,-0.2285085,-39.55742,-33.45374,17.7107
27.413555145,2.244012,1.666064,-0.1720861,0.9986173,-0.03545362,-0.2199063,-39.55742,-33.45374,17.7107
27.423552513,1.751746,1.784769,0.1937385,1.002009,-0.03441912,-0.2203911,-39.56528,-33.07338,17.70867
27.433549404,1.25948,2.081531,0.1937385,1.007496,-0.04108319,-0.2170489,-39.56528,-33.07338,17.70867
27.443545818,1.936346,2.615702,0.1937385,1.010148,-0.05275917,-0.2242292,-39.56528,-33.07338,17.70867
27.453542709,3.413143,3.090521,-0.1111153,1.012563,-0.05182293,-0.2333266,-39.56528,-33.07338,17.70867
27.463540077,4.582274,3.624692,-0.2330568,1.008004,-0.04272398,-0.2381067,-39.56528,-33.07338,17.70867
27.473536492,3.905409,3.446635,-0.05014454,0.9989203,-0.02578144,-0.2256523,-39.56528,-33.07338,17.70867
27.483533383,2.120945,3.268578,0.31568,0.995176,-0.007779079,-0.2151217,-39.56528,-33.07338,17.70867
27.493529797,0.02881546,3.149873,1.291212,0.9864269,-0.008901885,-0.2127133,-39.56528,-33.07338,17.70867
27.503527165,-1.632582,3.268578,2.083832,0.9861152,-0.01807952,-0.2060103,-39.56528,-33.07338,17.70867
27.513523579,-1.571049,3.802749,2.937423,0.9906186,-0.02428147,-0.2031451,-39.56528,-33.07338,17.70867
27.52352047,-0.832649800000001,4.514977,3.364218,0.9917167,-0.03118139,-0.2160668,-39.55742,-33.45374,17.7107
27.533517838,-0.1557842,5.227206,3.54713,0.9926737,-0.0301599,-0.2127187,-39.55742,-33.45374,17.7107
27.543514252,0.3980148,5.88008199999999,3.791013,0.9984961,-0.02922212,-0.2290007,-39.55742,-33.45374,17.7107
27.553511143,0.644147799999998,6.473606,3.912955,1.001476,-0.0320131,-0.2218265,-39.55742,-33.45374,17.7107
27.563507557,1.382547,6.77036799999997,4.27878,1.001394,-0.02763686,-0.2213489,-39.55742,-33.45374,17.7107
27.573504925,1.936346,7.18583399999999,4.400721,1.003858,-0.02898897,-0.2151314,-39.18098,-33.45419,17.32648
27.583501816,1.997879,7.60130100000003,4.705575,1.006493,-0.01327275,-0.2026971,-39.18098,-33.45419,17.32648
27.59349823,1.25948,7.24518699999998,4.827517,0.9961994,-0.01007452,-0.2026799,-39.18098,-33.45419,17.32648
27.603495121,0.3364816,6.82971999999999,5.254312,0.9937198,-0.00764555,-0.1974119,-39.18098,-33.45419,17.32648
27.613492012,-0.832649800000001,6.473606,5.559165,0.9885243,-0.0165434,-0.2026649,-39.18098,-33.45419,17.32648
27.623488903,-1.263382,5.88008199999999,5.86401899999998,0.9847445,-0.02298356,-0.207921,-39.94619,-32.6991,17.31686
27.633485317,-1.201849,5.76137699999998,5.681107,0.9790974,-0.0338648,-0.2165227,-39.94619,-32.6991,17.31686
27.643482208,-0.586516899999998,5.998787,5.498195,0.9811908,-0.04162922,-0.2198744,-39.94619,-32.6991,17.31686
27.653479576,0.705681,6.117492,5.315282,0.9832205,-0.04598891,-0.2227483,-39.94619,-32.6991,17.31686
27.66347599,1.505613,5.88008199999999,4.766546,0.9827051,-0.04457197,-0.2260978,-39.94619,-32.6991,17.31686
27.673472881,2.059412,5.76137699999998,4.461692,0.9818031,-0.04849925,-0.2284881,-39.5619,-33.07991,16.93467
27.683469295,2.244012,5.464615,4.461692,0.9737749,-0.03594005,-0.2193844,-39.5619,-33.07991,16.93467
27.693466663,2.182479,5.167854,4.27878,0.9801375,-0.03718444,-0.2098236,-39.5619,-33.07991,16.93467
27.703463554,1.628679,4.57433,4.583633,0.9796132,-0.03527296,-0.212216,-39.5619,-33.07991,16.93467
27.713459969,1.25948,3.684045,4.827517,0.9792622,-0.04259095,-0.2146064,-39.5619,-33.07991,16.93467
27.72345686,0.5826145,2.912464,5.010429,0.9810466,-0.03380436,-0.2141332,-39.57932,-32.31594,17.31761
27.733454227,0.02881546,2.378292,4.949458,0.9767903,-0.04069164,-0.214124,-39.57932,-32.31594,17.31761
27.743450642,-0.4019172,1.725416,5.010429,0.9742895,-0.03738332,-0.2189063,-39.57932,-32.31594,17.31761
27.753447533,-1.078783,1.30995,4.888487,0.9744355,-0.0451555,-0.2189046,-39.57932,-32.31594,17.31761
27.763443947,-0.955716300000001,0.953835399999999,5.0714,0.9716301,-0.05157204,-0.2236838,-40.70185,-32.32764,16.92227
27.773441315,-0.709583300000001,0.3603118,5.0714,0.9679357,-0.06227871,-0.2174531,-40.70185,-32.32764,16.92227
27.783437729,0.02881546,0.1229023,4.705575,0.9708146,-0.0597351,-0.2112373,-40.70185,-32.32764,16.92227
27.79343462,0.951813900000003,0.004197581,4.400721,0.9762055,-0.06169079,-0.2241677,-40.70185,-32.32764,16.92227
27.803431034,1.690213,0.3009594,4.217809,0.9741564,-0.0563947,-0.2251227,-40.70185,-32.32764,16.92227
27.813428402,2.428612,0.1822547,3.912955,0.9721344,-0.05256465,-0.2270344,-40.31924,-32.70518,16.92708
27.823425293,2.490145,0.004197581,3.730042,0.9684702,-0.03899998,-0.2236815,-40.31924,-32.70518,16.92708
27.833421707,2.059412,-0.411269,3.608101,0.9658972,-0.03177924,-0.2255932,-40.31924,-32.70518,16.92708
27.843418598,1.197947,-0.648678499999998,3.425189,0.96044,-0.02649783,-0.2207993,-40.31924,-32.70518,16.92708
27.853415966,0.5210813,-1.064145,3.120335,0.9628215,-0.0235132,-0.2184113,-40.31924,-32.70518,16.92708
27.86341238,0.5210813,-1.301555,2.937423,0.9716548,-0.02669641,-0.2136401,-41.08446,-31.9501,16.91746
27.873409271,1.197947,-1.598316,2.510627,0.9664232,-0.03363805,-0.2174578,-41.08446,-31.9501,16.91746
27.883406639,1.936346,-1.717021,2.266744,0.9701455,-0.02437109,-0.2217739,-41.08446,-31.9501,16.91746
27.893403053,1.874812,-2.19184,1.718008,0.9818075,-0.02271795,-0.2256232,-41.08446,-31.9501,16.91746
27.903399944,1.013347,-2.607306,1.291212,0.9850897,-0.01584553,-0.2251522,-41.08446,-31.9501,16.91746
27.913396358,0.3980148,-2.963421,0.7424754,0.990593,-0.02353819,-0.2280312,-40.33327,-31.94774,16.53602
27.923393726,-0.4019172,-3.022773,0.3766508,0.9910505,-0.02214151,-0.2356896,-40.33327,-31.94774,16.53602
27.933390141,-0.955716300000001,-3.497592,0.0717969800000001,0.980464,-0.02908805,-0.2284907,-40.33327,-31.94774,16.53602
27.943387032,-1.817181,-3.853706,-0.4159691,0.9741335,-0.0291561,-0.2222582,-40.33327,-31.94774,16.53602
27.953383446,-2.186381,-4.625287,-0.4769399,0.9752259,-0.03546492,-0.2236942,-40.33327,-31.94774,16.53602
27.963380814,-2.370981,-5.159458,-1.208589,0.9666519,-0.04576452,-0.2155408,-40.70354,-32.32437,17.30927
27.973377705,-1.817181,-5.87168699999998,-1.818297,0.9701365,-0.04952618,-0.2093244,-40.70354,-32.32437,17.30927
27.983374119,-0.586516899999998,-6.52456300000001,-2.732858,0.9735383,-0.04893355,-0.2050233,-40.70354,-32.32437,17.30927
27.99337101,0.5826145,-7.35549600000001,-3.647419,0.9742585,-0.0352691,-0.2002423,-40.70354,-32.32437,17.30927
28.003368378,1.136414,-7.77096299999999,-4.318098,0.9809576,-0.02887652,-0.2064771,-40.70354,-32.32437,17.30927
28.013364792,1.197947,-8.245782,-5.232659,0.9789874,-0.02805322,-0.2184383,-40.33497,-31.94447,16.92302
28.023361683,0.8287475,-8.60189500000002,-6.26916200000001,0.9910018,-0.0190382,-0.2151116,-40.33497,-31.94447,16.92302
28.033358097,0.5210813,-9.25477200000002,-7.30566500000003,0.9895393,-0.01910219,-0.2189376,-40.33497,-31.94447,16.92302
28.043355465,0.644147799999998,-9.43282899999999,-7.976343,0.9904781,-0.01710917,-0.2155897,-40.33497,-31.94447,16.92302
28.053351879,0.4595481,-9.49218100000001,-8.58605100000002,0.9928401,-0.01319252,-0.2175092,-40.33497,-31.94447,16.92302
28.06334877,0.1518819,-9.43282899999999,-9.01284600000001,0.9966569,-0.008677837,-0.2103383,-39.96192,-31.93839,17.3128
28.073345184,-0.1557842,-9.373476,-9.43964200000003,0.9970198,-0.001757827,-0.1983763,-39.96192,-31.93839,17.3128
28.083342552,-0.4634504,-9.78894299999998,-9.92740700000002,0.9954141,0.006033763,-0.1931112,-39.96192,-31.93839,17.3128
28.093339443,-0.832649800000001,-9.67023799999998,-10.23226,1.006121,0.00673125,-0.19313,-39.96192,-31.93839,17.3128
28.103335857,-1.017249,-9.25477200000002,-10.3542,1.007463,0.01303113,-0.1979198,-39.96192,-31.93839,17.3128
28.113332748,-1.078783,-8.48319099999998,-10.3542,1.007828,0.01926347,-0.2079721,-40.33666,-31.9412,17.31002
28.123330116,-1.324916,-7.889668,-10.47614,1.012183,0.02075909,-0.2132444,-40.33666,-31.9412,17.31002
28.13332653,-1.817181,-6.99938200000001,-10.29323,1.010664,0.02352628,-0.226164,-40.33666,-31.9412,17.31002
28.143323422,-2.801713,-6.64326800000002,-10.23226,1.013604,0.02259055,-0.2285618,-40.33666,-31.9412,17.31002
28.153320789,-3.601645,-6.287153,-10.11032,1.023447,0.01747477,-0.224749,-40.33666,-31.9412,17.31002
28.163317204,-2.92478,-5.931039,-9.74449500000001,1.030249,0.01861175,-0.2214112,-39.94958,-32.69257,18.09086
28.173314095,-2.494047,-5.634277,-9.13478800000001,1.029437,0.03618609,-0.2108856,-39.94958,-32.69257,18.09086
28.183310509,-3.047846,-5.159458,-8.40313799999999,1.018446,0.05051209,-0.2146987,-39.94958,-32.69257,18.09086
28.193307877,-4.83231,-4.506582,-7.42760699999997,1.010759,0.07084433,-0.2065548,-39.94958,-32.69257,18.09086
28.203304291,-8.21663800000001,-4.031764,-6.33013299999999,0.9928305,0.06498247,-0.2242293,-39.94958,-32.69257,18.09086
28.213301182,-11.17023,-3.497592,-5.415571,0.9767211,0.04024431,-0.237595,-39.18436,-33.44765,18.10048
28.223297596,-12.64703,-2.904068,-4.988776,0.9646322,0.009426235,-0.2337374,-39.18436,-33.44765,18.10048
28.233294964,-12.64703,-2.785364,-4.318098,0.9654953,-0.01041891,-0.2270337,-39.18436,-33.44765,18.10048
28.243291855,-11.78556,-2.251192,-4.135185,0.971118,-0.02440451,-0.2275185,-39.18436,-33.44765,18.10048
28.253288269,-10.0011,-1.657669,-4.379068,0.9929029,-0.04303987,-0.2399946,-39.18436,-33.44765,18.10048
28.26328516,-7.724371,-0.4706214,-4.805864,1.013011,-0.04994927,-0.2419422,-38.80962,-33.44484,18.10326
28.273282528,-5.509175,0.2416071,-5.84236700000003,1.01928,-0.04641066,-0.2405183,-38.80962,-33.44484,18.10326
28.283278942,-3.909311,1.547359,-6.93983999999998,1.020756,-0.04746744,-0.2529636,-38.80962,-33.44484,18.10326
28.293275833,-2.986313,2.081531,-7.976343,1.011334,-0.03896364,-0.2591709,-38.80962,-33.44484,18.10326
28.303273201,-2.863246,2.437645,-8.64702100000002,0.9986967,-0.04067992,-0.2601056,-38.80962,-33.44484,18.10326
28.313269615,-3.355512,2.675054,-8.76896300000003,0.9886322,-0.04960817,-0.2581714,-38.8158,-33.06775,17.71423
28.323266506,-3.970845,2.734407,-8.58605100000002,0.9856936,-0.04861978,-0.2500307,-38.8158,-33.06775,17.71423
28.33326292,-4.524643,2.675054,-7.91537200000002,0.9789746,-0.05409788,-0.2500176,-38.8158,-33.06775,17.71423
28.343260288,-4.216978,2.615702,-7.366636,0.9823893,-0.08028881,-0.2519311,-38.8158,-33.06775,17.71423
28.353256703,-1.755648,3.149873,-7.30566500000003,1.003065,-0.09159993,-0.2581857,-38.79052,-34.21209,17.33331
28.363253594,-0.03271778,3.684045,-7.06178199999999,1.004756,-0.07801719,-0.2644137,-38.79052,-34.21209,17.33331
28.373250008,1.013347,3.743397,-6.81789900000001,1.015788,-0.06850492,-0.2577353,-38.79052,-34.21209,17.33331
28.383247376,1.136414,3.980806,-6.81789900000001,1.013696,-0.06070979,-0.2510336,-38.79052,-34.21209,17.33331
28.393244267,0.644147799999998,3.56534,-6.14722099999998,1.001475,-0.05843819,-0.2419199,-38.79052,-34.21209,17.33331
28.403240681,0.3364816,3.268578,-5.171688,1.000588,-0.06267127,-0.2246885,-38.80624,-33.45138,17.32926
28.413237572,1.197947,3.56534,-3.769361,0.9834418,-0.08398887,-0.2337461,-38.80624,-33.45138,17.32926
28.42323494,2.428612,3.149873,-2.06218,0.979445,-0.07871371,-0.2327834,-38.80624,-33.45138,17.32926
28.433231354,3.720809,2.971816,-0.598881400000002,0.9856855,-0.07374854,-0.2347098,-38.80624,-33.45138,17.32926
28.443228245,4.766874,2.615702,0.1937385,0.9973387,-0.07160524,-0.2380807,-38.80624,-33.45138,17.32926
28.453224659,5.320673,2.734407,0.803446099999999,1.008016,-0.06954703,-0.2486285,-38.7748,-34.9728,17.33737
28.463222027,6.18213799999999,2.912464,1.230241,1.003992,-0.06279264,-0.2452732,-38.7748,-34.9728,17.33737
28.473218441,7.843536,3.624692,1.839949,1.00636,-0.05946709,-0.2586783,-38.7748,-34.9728,17.33737
28.483215332,8.33580199999998,3.862102,2.327715,0.9860148,-0.03992351,-0.256255,-38.7748,-34.9728,17.33737
28.4932127,6.55133799999999,3.624692,3.181306,0.9655212,-0.01192447,-0.2322977,-38.7748,-34.9728,17.33737
28.503209114,4.459208,2.378292,4.583633,0.9537513,-0.007695804,-0.2227068,-38.40174,-34.96672,17.72715
28.513206005,2.613211,1.547359,6.10790299999999,0.9427139,-0.0166038,-0.2164637,-38.40174,-34.96672,17.72715
28.523202419,1.382547,0.657073599999999,7.754113,0.9486523,-0.02128448,-0.2097728,-38.40174,-34.96672,17.72715
28.533199787,1.44408,0.3009594,9.03449899999999,0.9608744,-0.02351219,-0.2141007,-38.40174,-34.96672,17.72715
28.543196678,2.120945,-0.05515479,10.071,0.9623657,-0.02562827,-0.2361173,-38.40174,-34.96672,17.72715
28.553193092,2.859344,-0.2332119,10.43683,0.9690189,-0.01681567,-0.2433098,-38.78435,-34.58918,17.72234
28.563189983,3.105477,-0.2925643,10.43683,0.9697867,-0.006289627,-0.2629355,-38.78435,-34.58918,17.72234
28.573187351,2.982411,-0.411269,9.88808900000002,0.9668012,-0.002916317,-0.2595811,-38.78435,-34.58918,17.72234
28.583183766,2.182479,-0.5299737,9.52226500000001,0.9638886,-0.003429096,-0.2562259,-38.78435,-34.58918,17.72234
28.593180657,2.490145,-0.886087999999999,8.91255800000001,0.9673814,-0.007707247,-0.2533594,-38.78435,-34.58918,17.72234
28.603177071,2.859344,-1.420259,8.42479100000002,0.9689363,-0.01246137,-0.2452251,-39.54955,-33.83409,17.71273
28.613174439,3.966942,-2.132488,8.05896700000001,0.9850236,-0.01251543,-0.2328101,-39.54955,-33.83409,17.71273
28.623170853,4.951474,-3.082125,7.44925899999998,1.001564,-0.01130448,-0.2424108,-39.54955,-33.83409,17.71273
28.633167744,5.566806,-3.972411,6.90052199999999,1.010058,0.003424031,-0.2443437,-39.54955,-33.83409,17.71273
28.643164158,5.074541,-4.684639,6.41275599999997,1.010252,0.01896046,-0.2462624,-39.54955,-33.83409,17.71273
28.653161526,4.028476,-5.218811,5.681107,0.9998661,0.02695046,-0.2534249,-38.80177,-33.8252,18.10529
28.663158417,1.936346,-5.396868,5.193341,0.983698,0.03142026,-0.2610551,-38.80177,-33.8252,18.10529
28.673154831,0.3980148,-5.69363,5.010429,0.9582714,0.03636854,-0.2495262,-38.80177,-33.8252,18.10529
28.683152199,-1.755648,-5.81233500000002,5.010429,0.9417206,0.03561263,-0.2432757,-38.80177,-33.8252,18.10529
28.69314909,-3.970845,-6.52456300000001,5.193341,0.9377685,0.01278741,-0.2332128,-38.80177,-33.8252,18.10529
28.703145504,-4.340044,-6.58391499999997,5.437224,0.9582245,-0.01252825,-0.2294134,-39.18606,-33.44438,18.48748
28.713142395,-2.370981,-6.34650599999999,5.681107,0.9759689,-0.02339819,-0.2342273,-39.18606,-33.44438,18.48748
28.723139763,-0.5249836,-5.81233500000002,5.742078,0.996299,-0.01621529,-0.2366574,-39.18606,-33.44438,18.48748
28.733136177,0.951813900000003,-5.218811,5.193341,1.013124,-0.004373801,-0.25344,-39.18606,-33.44438,18.48748
28.743133068,1.813279,-4.44723,4.644604,1.009909,0.01109526,-0.2553526,-39.18606,-33.44438,18.48748
28.753129482,1.690213,-3.913059,3.791013,1.004235,0.02809639,-0.2438613,-39.55294,-33.82755,18.48673
28.76312685,0.2749484,-4.091116,3.364218,0.9952154,0.04165614,-0.2294918,-39.55294,-33.82755,18.48673
28.773123264,-1.694115,-4.269173,2.998394,0.9870039,0.03826778,-0.2103336,-39.55294,-33.82755,18.48673
28.783120155,-3.847778,-4.387877,3.120335,0.9822372,0.03295107,-0.1969238,-39.55294,-33.82755,18.48673
28.793116569,-4.401577,-4.743992,3.181306,0.9928638,0.01165238,-0.2108155,-39.55294,-33.82755,18.48673
28.803113937,-2.92478,-3.794354,2.815481,1.011816,-0.01195978,-0.2299855,-40.32601,-32.69211,18.47508
28.813110828,-1.632582,-2.844716,2.083832,1.026027,-0.01671388,-0.2491521,-40.32601,-32.69211,18.47508
28.823107243,-0.894183000000003,-1.717021,0.986358399999998,1.029115,0.0002849114,-0.2568191,-40.32601,-32.69211,18.47508
28.83310461,-1.140316,-0.648678499999998,-0.1111153,1.012369,0.009593925,-0.2654066,-40.32601,-32.69211,18.47508
28.843101501,-1.447982,0.4196641,-0.659852100000001,0.9958348,0.007822597,-0.2639416,-40.32601,-32.69211,18.47508
28.853097916,-2.124848,0.953835399999999,-1.513443,0.9767635,0.0120693,-0.2366306,-39.18803,-33.44057,18.93898
28.863094807,-2.801713,1.606712,-1.635384,0.9613258,0.004107667,-0.2236802,-39.18803,-33.44057,18.93898
28.873092175,-3.417045,1.725416,-1.940238,0.9554131,-0.01836246,-0.2236641,-39.18803,-33.44057,18.93898
28.883088589,-1.755648,1.547359,-2.367033,0.9621736,-0.04108569,-0.2255843,-39.18803,-33.44057,18.93898
28.893085003,0.767214200000001,1.962826,-2.732858,0.974255,-0.03614988,-0.2433139,-39.18803,-33.44057,18.93898
28.903081894,2.059412,1.903473,-3.159653,0.986156,-0.02142862,-0.2533886,-39.20178,-32.68367,18.48343
28.913079262,2.428612,1.666064,-3.525478,0.9973843,-0.02274795,-0.2625007,-39.20178,-32.68367,18.48343
28.923075676,1.936346,1.666064,-4.257127,0.994413,-0.02046906,-0.2725462,-39.20178,-32.68367,18.48343
28.933072567,0.951813900000003,1.606712,-4.561981,0.9880537,-0.01911933,-0.2706212,-39.20178,-32.68367,18.48343
28.943068981,0.02881546,1.369302,-4.805864,0.9732822,-0.01047999,-0.2504975,-39.20178,-32.68367,18.48343
28.953066349,-1.017249,1.013188,-4.440039,0.9652184,-0.02236332,-0.2571805,-39.56866,-33.06684,18.48267
28.96306324,-1.755648,0.894483100000001,-4.135185,0.9610913,-0.03600736,-0.252384,-39.56866,-33.06684,18.48267
28.973059654,-1.878715,0.716426,-4.013244,0.9589544,-0.05216022,-0.2605119,-39.56866,-33.06684,18.48267
28.983057022,-1.263382,0.1822547,-3.769361,0.9658016,-0.05347399,-0.2595663,-39.56866,-33.06684,18.48267
28.993053913,-1.017249,-0.1145072,-3.891303,0.9769407,-0.04986987,-0.261501,-39.56081,-33.4472,18.4847
29.003050327,-0.586516899999998,-0.708030899999999,-4.013244,0.9974327,-0.05150089,-0.2715864,-39.56081,-33.4472,18.4847
29.013047218,0.5826145,-0.5299737,-4.257127,1.016217,-0.06568608,-0.2692226,-39.56081,-33.4472,18.4847
29.023044109,2.674744,-0.4706214,-4.50101,1.017551,-0.05884337,-0.2677909,-39.56081,-33.4472,18.4847
29.033041,3.843876,-0.411269,-4.440039,1.003163,-0.04495639,-0.2591551,-39.56081,-33.4472,18.4847
29.043037415,3.16701,-0.4706214,-3.830332,0.9932125,-0.03393246,-0.2543548,-39.18436,-33.44765,18.10048
29.053034306,2.244012,-0.826735599999998,-3.342566,0.9767322,-0.03865347,-0.2567177,-39.18436,-33.44765,18.10048
29.063031673,1.751746,-1.004793,-2.488975,0.9679665,-0.03875647,-0.2490452,-39.18436,-33.44765,18.10048
29.073028088,1.382547,-1.18285,-1.696355,0.9596469,-0.03704726,-0.2566884,-39.18436,-33.44765,18.10048
29.083024979,0.0903486900000002,-1.598316,-0.903735200000002,0.9532914,-0.0355834,-0.2423204,-39.18436,-33.44765,18.10048
29.093021393,-0.2173175,-1.420259,-0.5379106,0.9622865,-0.04758054,-0.2452044,-39.18017,-33.82093,18.94101
29.103018761,0.2134152,-1.123497,-0.3549984,0.97812,-0.06040131,-0.2466644,-39.18017,-33.82093,18.94101
