Time (s),Gyroscope X (deg/s),Gyroscope Y (deg/s),Gyroscope Z (deg/s),Accelerometer X (g),Accelerometer Y (g),Accelerometer Z (g),Magnetometer X (uT),Magnetometer Y (uT),Magnetometer Z (uT)
22.375690937,-15.05225,14.89022,-4.406127,0.9739795,0.1825778,-0.2089576,-29.49652,-43.376,2.722533
22.385550022,-16.35669,14.23562,-4.957854,0.9429336,0.2178806,-0.1943204,-29.49652,-43.376,2.722533
22.395409107,-14.18263,14.17612,-5.509581,0.9293067,0.2361968,-0.2088268,-29.49652,-43.376,2.722533
22.405268669,-8.77854399999999,13.46201,-6.36782300000001,0.9261429,0.1923004,-0.2283202,-29.49652,-43.376,2.722533
22.415128708,0.4146104,14.41415,-6.12261100000003,0.9419472,0.1477002,-0.2207754,-29.13124,-43.02464,1.820638
22.424987793,8.48967900000002,14.23562,-5.509581,0.9503046,0.1634088,-0.20399,-29.13124,-43.02464,1.820638
22.434846878,10.10469,13.34299,-5.570884,0.9623062,0.2171571,-0.1735179,-29.13124,-43.02464,1.820638
22.447171211,4.949072,11.49821,-5.81609599999999,0.983242,0.249538,-0.1524582,-29.13124,-43.02464,1.820638
22.457030773,-2.566953,9.65343599999998,-6.36782300000001,0.9871359,0.2456613,-0.1573384,-29.13124,-43.02464,1.820638
22.466890335,-7.28776300000003,8.10620399999998,-6.61303499999999,0.9878207,0.1814106,-0.1636408,-29.50095,-43.75662,1.830111
22.47674942,-6.977184,6.79700699999999,-7.59388300000003,0.9803001,0.1457881,-0.1724598,-29.50095,-43.75662,1.830111
22.486608982,-0.951939799999999,6.32093599999998,-7.90039899999997,0.9786413,0.1185151,-0.1745832,-29.50095,-43.75662,1.830111
22.496468067,6.19139099999999,5.84486400000001,-7.71648900000002,0.9774683,0.1492092,-0.1618482,-29.50095,-43.75662,1.830111
22.506327152,12.58933,5.547319,-8.26821599999997,0.9649472,0.1875877,-0.1493659,-29.50095,-43.75662,1.830111
22.516187191,14.88762,4.95223,-8.14561100000001,0.9558666,0.241001,-0.1583697,-29.1332,-43.77251,0.9960003
22.526046276,11.84394,4.297632,-8.08430800000001,0.9412315,0.2821115,-0.1908789,-29.1332,-43.77251,0.9960003
22.535905838,3.76887,3.702542,-7.65518600000002,0.9416088,0.3030777,-0.1806442,-29.1332,-43.77251,0.9960003
22.545764923,-3.933504,3.107453,-6.98085300000002,0.9409518,0.2952138,-0.1998691,-29.1332,-43.77251,0.9960003
22.555624485,-8.59219699999999,2.809908,-6.36782300000001,0.9567295,0.2626766,-0.2195366,-29.1332,-43.77251,0.9960003
22.565484047,-6.72872000000001,3.82156,-5.509581,0.9610634,0.2267024,-0.2203812,-29.1332,-43.77251,0.9960003
22.575343609,-2.132142,4.892721,-5.570884,0.9529979,0.2314473,-0.2336437,-29.1332,-43.77251,0.9960003
22.585202694,-0.5171283,5.78535500000003,-5.203066,0.9424359,0.2586146,-0.2308679,-29.1332,-43.77251,0.9960003
22.595062256,-2.504838,6.558971,-4.590036,0.9448852,0.2786545,-0.2130033,-29.1332,-43.77251,0.9960003
22.604921341,-7.84680700000002,6.79700699999999,-4.46743,0.9362481,0.2854597,-0.1946132,-29.1332,-43.77251,0.9960003
22.617246151,-14.0584,7.21356999999998,-4.773945,0.934505,0.2278925,-0.2295766,-28.75747,-44.14498,0.997839
22.627105236,-10.64202,9.47490899999998,-4.651339,0.9547721,0.150149,-0.2468143,-28.75747,-44.14498,0.997839
22.636964321,-1.448867,12.80741,-4.712642,0.9597059,0.1229988,-0.2317794,-28.75747,-44.14498,0.997839
22.646823883,5.445999,13.75955,-4.590036,0.9474339,0.1705895,-0.2288069,-28.75747,-44.14498,0.997839
22.656683922,7.55793999999999,14.35464,-4.590036,0.948912,0.2598158,-0.1854261,-28.75747,-44.14498,0.997839
22.666543007,3.271943,13.22397,-4.835248,0.9385666,0.3093681,-0.1829437,-28.38574,-43.78115,0.992137
22.676402092,-2.31849,11.31969,-5.141763,0.9371025,0.2816623,-0.1711767,-28.38574,-43.78115,0.992137
22.686261654,-2.566953,8.82031100000003,-4.896551,0.9352899,0.2261634,-0.173536,-28.38574,-43.78115,0.992137
22.696120739,-0.827707900000002,7.33258699999997,-4.773945,0.9291008,0.2129736,-0.1726007,-28.38574,-43.78115,0.992137
22.705979824,-1.759447,4.714194,-4.835248,0.9207762,0.2677141,-0.08911858,-28.38574,-43.78115,0.992137
22.715839863,-7.10141600000002,0.965131299999997,-5.632187,0.9149376,0.3134292,-0.08241997,-28.75944,-44.89286,0.1732006
22.725699425,-11.51165,-2.188842,-5.81609599999999,0.9174209,0.3294379,-0.1014882,-28.75944,-44.89286,0.1732006
22.73555851,-15.11437,-5.461833,-5.203066,0.9080837,0.304579,-0.09054337,-28.75944,-44.89286,0.1732006
22.745417595,-17.599,-9.56794999999997,-6.06130799999997,0.9269029,0.2646395,-0.144819,-28.75944,-44.89286,0.1732006
22.755277157,-14.74167,-9.03236999999999,-4.957854,0.9510601,0.2234059,-0.1675545,-28.75944,-44.89286,0.1732006
22.765137196,-12.94031,-10.75813,-4.651339,0.9246732,0.231127,-0.1225477,-28.01997,-44.54493,-0.6666126
22.774996281,-14.36898,-12.78143,-5.264369,0.9319629,0.2987715,-0.1383735,-28.01997,-44.54493,-0.6666126
22.784855366,-17.90959,-12.42438,-4.46743,0.9383938,0.3206832,-0.149781,-28.01997,-44.54493,-0.6666126
22.797179699,-25.98465,-15.10228,-5.019157,0.9115264,0.3210791,-0.1105796,-28.01997,-44.54493,-0.6666126
22.807039261,-28.53141,-15.16179,-4.528733,0.9242886,0.3331395,-0.1686428,-28.01997,-44.54493,-0.6666126
22.816898823,-30.457,-13.97161,-4.528733,0.9269524,0.2746361,-0.2041561,-27.64825,-44.18109,-0.6723146
22.826757908,-29.89796,-15.16179,-4.528733,0.9280365,0.2069465,-0.2200772,-27.64825,-44.18109,-0.6723146
22.836616993,-26.60581,-13.43603,-4.099612,0.966075,0.1681926,-0.2631159,-27.64825,-44.18109,-0.6723146
22.846476555,-22.2577,-13.2575,-3.977006,0.9667148,0.1434755,-0.2379361,-27.64825,-44.18109,-0.6723146
22.856336594,-17.84747,-12.48389,-3.977006,0.9801978,0.1718529,-0.228784,-27.64825,-44.18109,-0.6723146
22.866195679,-17.599,-12.12683,-4.099612,0.9670216,0.1906507,-0.2456887,-27.64624,-44.54924,-0.6685448
22.876054764,-13.93417,-10.87715,-4.344824,0.9710337,0.2004779,-0.2298494,-27.64624,-44.54924,-0.6685448
22.885914326,-11.3253,-8.85384299999998,-4.160915,0.9593466,0.2251536,-0.2400169,-27.64624,-44.54924,-0.6685448
22.895773411,-9.02700799999998,-7.30661099999998,-3.915704,0.9613062,0.2490949,-0.218758,-27.64624,-44.54924,-0.6685448
22.90563345,-6.79083600000002,-2.605405,-3.24137,0.9556779,0.2831525,-0.2068896,-27.64624,-44.54924,-0.6685448
22.915492535,-5.67275,-0.641609900000002,-3.609189,0.943911,0.2508181,-0.2371843,-27.27573,-44.55979,-1.118572
22.925352097,-1.138287,3.345489,-3.363976,0.9648952,0.2335489,-0.220378,-27.27573,-44.55979,-1.118572
22.935211182,3.830986,5.90437299999999,-3.486583,0.9429939,0.2220215,-0.2580199,-27.27573,-44.55979,-1.118572
22.945070744,9.794114,11.97428,-1.708796,0.9673492,0.2312669,-0.1859298,-27.27573,-44.55979,-1.118572
22.954929829,10.9122,19.94848,-4.160915,0.9629854,0.2950615,-0.1628069,-27.27573,-44.55979,-1.118572
22.967254639,13.21049,13.70004,-0.789250600000002,0.956174,0.2326536,-0.1790501,-27.27694,-44.93417,-1.562899
22.977113724,17.80707,15.18777,0.927233400000001,0.9317615,0.2243684,-0.2544856,-27.27694,-44.93417,-1.562899
22.986972809,18.55246,17.27058,1.662869,0.9682996,0.2505263,-0.2428056,-27.27694,-44.93417,-1.562899
22.996832848,19.23573,15.48531,2.030687,0.9501942,0.2659877,-0.2294787,-27.27694,-44.93417,-1.562899
23.006691933,16.87533,14.17612,2.214596,0.9505546,0.2763432,-0.1939357,-27.27694,-44.93417,-1.562899
23.016551495,14.08011,12.27183,1.295051,0.9457044,0.2520356,-0.1763413,-28.02118,-44.91931,-1.110938
23.02641058,14.76339,10.54607,0.3142034,0.9479282,0.2350412,-0.1717244,-28.02118,-44.91931,-1.110938
23.036270142,15.26031,9.47490899999998,0.2529004,0.9370219,0.2632219,-0.1574344,-28.02118,-44.91931,-1.110938
23.046129227,14.63916,8.10620399999998,-0.1149176,0.9363632,0.2890452,-0.1471439,-28.02118,-44.91931,-1.110938
23.055989265,12.89991,6.49946299999999,-0.05361458,0.9203227,0.3112548,-0.1558326,-28.02118,-44.91931,-1.110938
23.065848351,10.41527,5.190266,-0.05361458,0.9295644,0.2909517,-0.1417597,-26.902,-44.56411,-1.120503
23.075707912,8.73814300000001,3.524015,0.0689914200000002,0.9289777,0.2997077,-0.1411982,-26.902,-44.56411,-1.120503
23.085566998,6.99889700000002,2.036292,0.1915974,0.9297518,0.2937993,-0.1613855,-26.902,-44.56411,-1.120503
23.095426083,6.93678100000001,1.322185,0.682021400000003,0.9361486,0.2637314,-0.1492712,-26.902,-44.56411,-1.120503
23.105286121,7.620056,-0.820136700000001,0.988536299999999,0.9167444,0.2781163,-0.160374,-26.902,-44.56411,-1.120503
23.115145683,6.99889700000002,-2.843441,1.111142,0.9135703,0.270834,-0.1484103,-27.64745,-44.92363,-1.11287
23.125004768,6.75043299999998,-3.855092,1.601566,0.9244671,0.2753617,-0.1346306,-27.64745,-44.92363,-1.11287
23.137328625,4.638493,-6.47348499999999,0.988536299999999,0.9135772,0.2965767,-0.1611315,-27.64745,-44.92363,-1.11287
23.147188664,2.588667,-7.12808399999997,1.356354,0.9397936,0.2638247,-0.1330296,-27.64745,-44.92363,-1.11287
23.157047749,2.775015,-7.96120899999999,0.804627399999999,0.9379042,0.2426977,-0.1825385,-27.64745,-44.92363,-1.11287
23.166907311,3.396174,-9.62745900000001,1.049839,0.9301178,0.2426399,-0.1795528,-27.64624,-44.54924,-0.6685448
23.176766396,3.334059,-10.28206,1.049839,0.9283343,0.2791538,-0.1705937,-27.64624,-44.54924,-0.6685448
23.186625481,-0.0823169599999999,-12.36487,1.172445,0.8942745,0.3222198,-0.1548896,-27.64624,-44.54924,-0.6685448
23.196485519,-4.927359,-14.62621,1.172445,0.911269,0.3267293,-0.160365,-27.64624,-44.54924,-0.6685448
23.206345081,-7.90892299999997,-15.34032,1.540263,0.920426,0.302008,-0.1563913,-27.64624,-44.54924,-0.6685448
23.216204166,-9.02700799999998,-15.75688,1.785475,0.9452258,0.2770691,-0.1176609,-27.26774,-44.91636,-0.2826223
23.226063252,-8.53008099999998,-16.70902,1.356354,0.9353673,0.268526,-0.1664708,-27.26774,-44.91636,-0.2826223
23.235922813,-9.58605199999997,-18.19674,1.356354,0.9404858,0.2504345,-0.201678,-27.26774,-44.91636,-0.2826223
23.245782852,-8.40584900000001,-18.5538,1.724172,0.9543262,0.2312027,-0.1723272,-27.26774,-44.91636,-0.2826223
23.255641937,-6.79083600000002,-19.02987,1.417657,0.9567195,0.2318327,-0.1397704,-27.26774,-44.91636,-0.2826223
23.265501022,-8.03315400000002,-19.98201,1.233748,0.9598773,0.2630336,-0.1318849,-27.63825,-44.9058,0.1674051
23.275360584,-10.57991,-21.70777,0.682021400000003,0.9584401,0.2345769,-0.1905669,-27.63825,-44.9058,0.1674051
23.285219669,-8.96489200000003,-23.13599,0.804627399999999,0.967434,0.196627,-0.2101834,-27.63825,-44.9058,0.1674051
23.295079708,-5.300054,-23.9096,0.682021400000003,0.9526567,0.2091619,-0.2065126,-27.63825,-44.9058,0.1674051
23.304938793,-2.442722,-25.51634,0.0689914200000002,0.9300349,0.2177168,-0.2075556,-27.63825,-44.9058,0.1674051
23.317263126,-2.504838,-28.13474,-0.4827355,0.9210721,0.2546991,-0.1865101,-27.26452,-44.91012,0.1654739
23.327122212,-4.119852,-30.75313,-0.789250600000002,0.9201858,0.3024277,-0.1736355,-27.26452,-44.91012,0.1654739
23.33698225,-7.34987899999998,-33.25251,-0.850553500000001,0.9112062,0.3369641,-0.1559649,-27.26452,-44.91012,0.1654739
23.346841335,-10.64202,-37.12059,-1.340978,0.9028437,0.3222305,-0.1722628,-27.26452,-44.91012,0.1654739
23.35670042,-13.18878,-41.34572,-2.015311,0.9038166,0.2722206,-0.1449052,-28.00921,-44.89614,0.5534201
23.366559982,-13.18878,-45.33282,-3.793097,0.885754,0.2510772,-0.1606398,-28.00921,-44.89614,0.5534201
23.376419067,-13.87205,-51.10519,-3.118764,0.8779547,0.2938445,-0.1568133,-28.00921,-44.89614,0.5534201
23.386279106,-19.46248,-57.23461,-3.793097,0.8791897,0.3437255,-0.09411398,-28.00921,-44.89614,0.5534201
23.396138191,-28.71775,-61.1622000000002,-5.08046,0.8573467,0.3618614,-0.1372568,-28.00921,-44.89614,0.5534201
23.405997753,-33.81126,-64.3756799999998,-2.689644,0.8840555,0.3461501,-0.2374435,-28.00921,-44.89614,0.5534201
23.415856838,-33.1901,-64.0781299999998,-2.321826,0.903884,0.2158234,-0.2613484,-27.25456,-44.51881,1.826062
23.4257164,-22.31981,-66.6965299999998,-2.321826,0.9256106,0.116879,-0.2260739,-27.25456,-44.51881,1.826062
23.435575962,-8.53008099999998,-64.8517499999999,-2.137917,0.9184811,0.1493142,-0.2539713,-27.25456,-44.51881,1.826062
23.445435524,-1.386751,-66.6370199999999,-2.444432,0.9075814,0.1944496,-0.2601438,-27.25456,-44.51881,1.826062
23.455294609,2.837131,-69.6719699999998,-1.463584,0.9166039,0.2618296,-0.2208886,-27.25456,-44.51881,1.826062
23.465154171,2.464436,-75.3848300000002,1.417657,0.9046784,0.3104956,-0.191556,-26.8744,-44.51065,2.720325
23.475013256,-1.945794,-73.48055,-2.934855,0.8662087,0.3381152,-0.2616961,-26.8744,-44.51065,2.720325
23.484873295,-3.871388,-76.2774700000001,-4.46743,0.8718238,0.2430253,-0.328229,-26.8744,-44.51065,2.720325
23.497197151,3.085595,-79.4909500000002,-4.896551,0.8584238,0.1576843,-0.3455302,-26.8744,-44.51065,2.720325
23.507056236,10.04258,-81.4547400000002,-4.038309,0.8264986,0.2098244,-0.3805751,-26.86042,-44.85564,4.388454
23.516915798,13.76953,-82.8234500000002,-3.670491,0.8215336,0.2335481,-0.4009097,-26.86042,-44.85564,4.388454
23.52677536,13.95588,-85.5013499999998,-2.812249,0.8189096,0.2875337,-0.4023335,-26.86042,-44.85564,4.388454
23.536634922,12.96203,-85.2633100000002,-3.731794,0.8186218,0.2952632,-0.4166402,-26.86042,-44.85564,4.388454
23.546494007,9.66988199999998,-86.2749600000002,-4.528733,0.7519665,0.3272142,-0.4331509,-26.86042,-44.85564,4.388454
23.556353569,5.75657900000002,-85.9774199999998,-4.038309,0.7626378,0.3791183,-0.5018697,-25.72204,-45.20733,6.498885
23.566212654,2.899247,-83.7160799999997,-3.180068,0.7487064,0.3126666,-0.5415263,-25.72204,-45.20733,6.498885
23.576072693,1.905392,-81.3952299999998,0.3142034,0.6483122,0.2080552,-0.8203515,-25.72204,-45.20733,6.498885
23.585931778,8.241216,-78.6578200000002,-3.24137,0.6813873,0.2328947,-0.6332464,-25.72204,-45.20733,6.498885
23.59579134,11.03643,-78.0032300000002,-1.831402,0.7144151,0.2581564,-0.5927719,-25.72204,-45.20733,6.498885
23.605650425,8.80025999999999,-75.8013899999997,-0.4214326,0.76386,0.2936216,-0.5950941,-24.95618,-45.18032,9.055574
23.61550951,7.49582399999998,-74.67072,1.601566,0.8096618,0.3135061,-0.5912663,-24.95618,-45.18032,9.055574
23.625369549,3.023479,-72.17135,2.582414,0.9049955,0.2518939,-0.5068891,-24.95618,-45.18032,9.055574
23.635229111,10.04258,-69.7314800000003,1.908081,0.882805,0.2124551,-0.5902864,-24.95618,-45.18032,9.055574
23.645088196,14.08011,-68.6008099999999,3.072838,0.89187,0.216866,-0.6033167,-24.95618,-45.18032,9.055574
23.654947281,15.69513,-67.2916200000002,2.398505,0.8625399,0.2268649,-0.5927511,-24.95618,-45.18032,9.055574
23.667272091,16.81321,-68.6603199999998,4.973231,0.9019926,0.3501475,-0.6406721,-24.19429,-45.53305,10.78385
23.677131176,11.90605,-65.4468400000003,5.15714,0.8751596,0.2865956,-0.6552021,-24.19429,-45.53305,10.78385
23.686990738,10.72585,-63.1855000000002,5.341049,0.8726566,0.2567758,-0.6856076,-24.19429,-45.53305,10.78385
23.696849823,12.96203,-61.9953199999999,5.15714,0.8770044,0.182859,-0.682939,-24.19429,-45.53305,10.78385
23.706708908,15.38455,-61.2217100000001,7.42535099999997,0.8909406,0.2351536,-0.6553819,-23.05838,-45.51749,12.8265
23.716568947,11.78182,-61.6382700000003,8.83531999999998,0.9134368,0.3377435,-0.6016456,-23.05838,-45.51749,12.8265
23.726428509,6.874665,-60.98367,10.30659,0.8898774,0.3894831,-0.6334587,-23.05838,-45.51749,12.8265
23.736287594,4.390029,-59.7934899999998,10.91962,0.8726259,0.3741594,-0.6563438,-23.05838,-45.51749,12.8265
23.746146679,5.632347,-56.99657,10.5518,0.8774316,0.3390258,-0.6936071,-23.05838,-45.51749,12.8265
23.756006241,7.55793999999999,-55.62786,11.53265,0.9007683,0.3372397,-0.7059348,-23.42094,-44.74748,14.93335
23.76586628,8.241216,-53.188,12.82001,0.9451627,0.3405285,-0.7122901,-23.42094,-44.74748,14.93335
23.775725365,12.0924,-50.09353,15.45604,0.9874163,0.3088657,-0.6911164,-23.42094,-44.74748,14.93335
23.78558445,8.36544800000002,-53.48554,16.00777,1.13971,0.3138103,-0.6405333,-23.42094,-44.74748,14.93335
23.795444012,4.327913,-53.06898,16.00777,1.263525,0.3683555,-0.6614848,-23.42094,-44.74748,14.93335
23.805303097,4.886956,-54.73523,20.42159,1.3566,0.3677507,-0.6532325,-22.35605,-44.74812,15.76005
23.815163135,2.153856,-56.34197,16.92732,1.52087,0.3406437,-0.6136329,-22.35605,-44.74812,15.76005
23.825022221,2.775015,-58.18675,17.11123,1.608642,0.3583484,-0.5117066,-22.35605,-44.74812,15.76005
23.834881782,1.284233,-62.2333600000001,12.69741,1.673019,0.3003297,-0.4340459,-22.35605,-44.74812,15.76005
23.847206116,3.334059,-66.8155399999999,7.18013899999999,1.721909,0.1871857,-0.3566296,-22.35605,-44.74812,15.76005
23.857065678,16.19205,-70.3265700000001,1.908081,1.83061,0.1335474,-0.2536869,-21.9699,-44.72839,17.4865
23.866924763,31.09987,-72.5284000000003,-2.873553,1.872923,0.103013,-0.1912933,-21.9699,-44.72839,17.4865
23.876783848,43.21248,-69.37443,-6.490429,1.860611,0.08953376,0.006198568,-21.9699,-44.72839,17.4865
23.88664341,57.6854899999998,-65.56586,-9.61688199999998,1.709335,0.06893313,-0.1988334,-21.9699,-44.72839,17.4865
23.896503448,68.6178899999999,-67.7081799999998,-5.93870199999998,1.541993,0.03871764,-0.3347128,-21.9699,-44.72839,17.4865
23.906362534,81.5379899999999,-64.4351900000003,0.3142034,1.405756,0.08097876,-0.4220247,-20.82433,-44.69411,20.87343
23.916221619,87.1284299999998,-62.1738500000002,9.50965299999998,1.306371,0.1226873,-0.3546059,-20.82433,-44.69411,20.87343
23.926081181,72.4690700000002,-56.46099,18.76641,1.128851,0.2772582,-0.5002816,-20.82433,-44.69411,20.87343
23.935940266,49.61042,-51.58126,25.08061,1.053519,0.3054799,-0.5823504,-20.82433,-44.69411,20.87343
23.945800304,20.85075,-37.95371,32.80479,1.001856,0.2808512,-0.4102685,-20.82433,-44.69411,20.87343
23.955659389,-0.641360199999998,-22.83844,34.33737,1.005978,0.1906236,-0.4743431,-18.17589,-43.91764,25.90946
23.965518951,-7.41199499999999,-8.02071800000003,38.32206,0.8495028,0.1387504,-0.4423611,-18.17589,-43.91764,25.90946
23.975378036,-14.92802,7.33258699999997,40.16115,0.7288666,-0.01711517,-0.4568124,-18.17589,-43.91764,25.90946
23.985237598,-2.194258,20.12701,48.80487,0.5397074,-0.09385142,-0.6191294,-18.17589,-43.91764,25.90946
23.99509716,16.62686,32.14781,50.39875,0.3805805,-0.02084104,-0.8869929,-18.17589,-43.91764,25.90946
24.004956722,22.65211,40.12201,60.8815699999998,0.1308365,0.4264882,-1.299916,-16.29165,-42.79291,28.89714
24.017280579,-71.8261900000002,17.50862,77.9238000000002,-0.01215776,1.296433,-1.513364,-16.29165,-42.79291,28.89714
24.027139664,-116.4254,5.368793,57.4485999999998,0.3286995,1.262331,-0.5131496,-16.29165,-42.79291,28.89714
24.036999702,-106.4869,32.92143,29.24922,0.7022921,0.3239287,-0.0246719,-16.29165,-42.79291,28.89714
24.046858788,-101.2691,35.36129,37.0347,0.4690942,-0.2112927,-0.6267813,-16.29165,-42.79291,28.89714
24.056718349,-90.3988599999999,43.75206,49.72442,0.5810816,-0.5352904,-0.09009556,-17.04111,-42.41613,28.89723
24.066577435,-43.50134,66.6034900000001,65.6018899999998,0.432454,-0.2399814,-0.1458642,-17.04111,-42.41613,28.89723
24.076436996,-17.47477,73.44701,63.7015000000001,0.4005787,-0.1004869,-0.2439061,-17.04111,-42.41613,28.89723
24.086296558,-18.15805,82.1948200000003,65.7244900000001,0.450631,-0.09476548,-0.2637391,-17.04111,-42.41613,28.89723
24.09615612,-12.69185,90.3475499999998,72.0387,0.4861037,-0.09584659,-0.2465235,-17.04111,-42.41613,28.89723
24.106015205,-12.56762,98.3812600000002,76.7590400000001,0.4742025,0.02494864,-0.1878305,-19.28269,-43.13277,28.46827
24.115874767,-22.75463,104.2726,75.5942800000001,0.4594595,0.1592797,-0.1462339,-19.28269,-43.13277,28.46827
24.125733852,-42.07267,111.7708,70.50613,0.4680368,0.2547147,-0.150822,-19.28269,-43.13277,28.46827
24.135593891,-66.0494199999998,119.0904,64.0693199999998,0.4939812,0.2751018,-0.09591174,-19.28269,-43.13277,28.46827
24.145452976,-86.1128599999998,126.2909,61.4332900000001,0.4883832,0.388967,-0.08337022,-19.28269,-43.13277,28.46827
24.155312538,-97.9769999999997,135.9909,56.52905,0.5659516,0.4730296,-0.1690638,-22.96969,-41.99746,27.64377
24.165171623,-104.5613,148.0712,49.66312,0.6121212,0.444632,-0.3242637,-22.96969,-41.99746,27.64377
24.175030708,-99.3435499999998,156.4025,47.57882,0.5596732,0.3663753,-0.4363093,-22.96969,-41.99746,27.64377
24.184890747,-84.5599599999997,160.0325,43.165,0.5604292,0.346386,-0.5778526,-22.96969,-41.99746,27.64377
24.197214603,-63.2542000000002,161.5202,37.21861,0.5748442,0.3233073,-0.7967678,-22.96969,-41.99746,27.64377
24.207074165,-45.11636,158.9613,33.72434,0.5522203,0.3203619,-0.8798509,-29.3507,-41.97755,23.83578
24.216933727,-30.39488,154.0221,29.37182,0.5991775,0.3318705,-0.9062998,-29.3507,-41.97755,23.83578
24.226793289,-16.48092,150.4516,25.26452,0.6988882,0.2946488,-0.9458918,-29.3507,-41.97755,23.83578
24.236652374,0.04191487,145.9884,20.78941,0.7522828,0.2342487,-0.9581841,-29.3507,-41.97755,23.83578
24.246511936,16.75109,141.0492,17.04992,0.7846955,0.2145534,-0.9664795,-29.3507,-41.97755,23.83578
24.256371021,31.47257,137.4191,11.96177,0.7340311,0.257127,-0.9131654,-34.985,-42.33975,19.64361
24.26623106,41.47323,134.9197,6.81232100000002,0.692663,0.3368886,-0.8270844,-34.985,-42.33975,19.64361
24.276090145,41.349,133.075,-0.4827355,0.7158511,0.4047413,-0.8249254,-34.985,-42.33975,19.64361
24.285949707,34.64048,132.0038,-4.835248,0.7291732,0.4219788,-0.8014891,-34.985,-42.33975,19.64361
24.295808792,21.72037,131.8848,-11.33337,0.7983454,0.4757273,-0.7761446,-34.985,-42.33975,19.64361
24.305667877,6.37773799999999,126.529,-18.38321,0.8744106,0.4338567,-0.8317316,-39.8659,-41.58298,17.10063
24.315527916,-10.08298,121.5897,-22.79703,0.8119593,0.4101846,-0.7682661,-39.8659,-41.58298,17.10063
24.325387478,-24.6181,114.2701,-25.12654,0.7585112,0.4179761,-0.7703138,-39.8659,-41.58298,17.10063
24.335246563,-34.743,107.3076,-23.77787,0.8341663,0.2953484,-0.8193885,-39.8659,-41.58298,17.10063
24.345105648,-34.743,104.4512,-22.55181,0.8793632,0.1788976,-0.8363498,-39.8659,-41.58298,17.10063
24.35496521,-26.23312,99.5714300000001,-23.16484,0.899352,0.08243941,-0.78282,-42.88409,-41.9754,12.89494
24.367289543,-4.368315,91.8947799999997,-21.69357,0.8504325,0.005977747,-0.8139161,-42.88409,-41.9754,12.89494
24.377149105,12.77568,87.6696500000002,-20.83533,0.8295619,0.04405525,-0.7323126,-42.88409,-41.9754,12.89494
24.38700819,23.08692,82.7899199999998,-21.08054,0.803566,0.1166869,-0.6374061,-42.88409,-41.9754,12.89494
24.396868229,24.08077,77.9101899999999,-21.69357,0.8024692,0.1735491,-0.5242986,-42.88409,-41.9754,12.89494
24.406727314,15.88147,73.9826000000002,-23.71657,0.7939335,0.1916124,-0.4885638,-45.14236,-43.46842,9.592896
24.416586876,7.930636,72.25684,-22.3066,0.7663746,0.2480924,-0.414856,-45.14236,-43.46842,9.592896
24.426445961,-8.46796500000002,71.95929,-20.65142,0.7464632,0.3175548,-0.2711846,-45.14236,-43.46842,9.592896
24.436305046,-27.47544,76.6009899999999,-17.15715,0.7220985,0.3521341,0.05339336,-45.14236,-43.46842,9.592896
24.446165085,-41.3894,75.5893300000003,-17.77018,0.5519001,0.3989498,-0.2959974,-45.14236,-43.46842,9.592896
24.456024647,-46.8556,61.4262100000002,-12.49812,0.4512091,0.4173474,-0.9906839,-45.53371,-44.24228,6.59372
24.465883732,-79.3422200000003,66.7820100000001,-8.39082200000002,0.44864,0.3964017,-0.7310978,-45.53371,-44.24228,6.59372
24.475742817,-95.6165899999997,73.9826000000002,-1.708796,0.9137591,0.3086991,-0.1730118,-45.53371,-44.24228,6.59372
24.485602379,-106.3005,105.1653,2.827626,1.218692,0.06702446,0.4497915,-45.53371,-44.24228,6.59372
24.495462418,-113.009,129.3854,4.728019,1.347369,-0.3569709,0.3643529,-45.53371,-44.24228,6.59372
24.505321503,-88.10057,130.278,19.31813,1.035573,-0.3732355,0.2670693,-46.62016,-45.39952,1.937497
24.515180588,-71.4535000000001,132.9559,20.05377,1.039451,-0.1430905,0.2517051,-46.62016,-45.39952,1.937497
24.52504015,-53.06719,129.0879,21.52504,1.178263,0.03226811,0.360464,-46.62016,-45.39952,1.937497
24.534899235,-48.4085,125.3983,14.78171,1.280153,-0.1016243,0.3597987,-46.62016,-45.39952,1.937497
24.547224045,-28.03448,113.08,9.325744,1.133945,-0.2981411,0.3357849,-46.62016,-45.39952,1.937497
24.55708313,2.09174,99.0953699999998,5.89277599999998,1.14238,-0.457819,0.1680349,-47.43359,-45.14658,-6.96033
24.566942215,41.59746,85.46782,15.70126,1.036696,-0.08838371,0.3130643,-47.43359,-45.14658,-6.96033
24.576802254,41.22477,72.25684,5.095838,0.9892734,0.2999455,0.2983288,-47.43359,-45.14658,-6.96033
24.586661816,12.40298,65.82987,3.992383,0.9420763,0.2257928,0.3597131,-47.43359,-45.14658,-6.96033
24.596520901,-3.622924,61.4857200000001,7.91577499999999,0.9382012,-0.03595066,0.3834361,-47.43359,-45.14658,-6.96033
24.606379986,1.284233,60.23603,9.20313699999998,0.9284835,-0.1491519,0.3246362,-48.21343,-44.82861,-11.18515
24.616239548,17.18591,61.7832599999999,9.44834999999999,0.9527105,-0.1270314,0.3268736,-48.21343,-44.82861,-11.18515
24.626099586,32.40431,63.1519699999998,6.751019,0.9515277,-0.1586979,0.3199144,-48.21343,-44.82861,-11.18515
24.635958671,48.49233,59.22438,5.708868,0.9194968,-0.1219934,0.191776,-48.21343,-44.82861,-11.18515
24.645817757,57.4991399999999,54.93974,4.54411,0.9190994,-0.03959637,0.2351258,-48.21343,-44.82861,-11.18515
24.655677318,56.1947,48.86982,4.421504,0.9303656,0.03715909,0.3036593,-49.35101,-45.21944,-13.73613
24.665536404,46.25616,41.3717,5.218443,0.9268883,0.07958939,0.3371317,-49.35101,-45.21944,-13.73613
24.675396442,31.47257,31.79076,7.36404799999998,0.9076584,0.1736877,0.3013016,-49.35101,-45.21944,-13.73613
24.685255527,6.129274,19.17487,8.03838099999998,0.8733619,0.2864501,0.2174445,-49.35101,-45.21944,-13.73613
24.695115089,-27.41332,5.547319,9.325744,0.8890997,0.3340534,0.1577221,-49.35101,-45.21944,-13.73613
24.704974174,-59.71359,-8.08022700000001,9.325744,0.9625428,0.2916226,0.0887501,-49.73716,-45.23918,-15.46258
24.71483326,-82.8828299999999,-22.42188,9.57095500000001,0.9335403,0.2365104,-0.005703947,-49.73716,-45.23918,-15.46258
24.72715807,-97.5421799999998,-45.92791,6.62841199999998,0.8858695,0.1853347,-0.1741346,-49.73716,-45.23918,-15.46258
24.737017155,-97.4800700000001,-64.4947000000002,1.724172,0.9056878,0.1647512,-0.3892722,-49.73716,-45.23918,-15.46258
24.746876717,-86.6718999999998,-74.6112100000001,1.47896,1.205873,0.2414059,-0.1216767,-49.73716,-45.23918,-15.46258
24.756736755,-47.35253,-91.5712599999999,-18.2606,0.8684204,0.6686599,-0.4903914,-51.62301,-44.87886,-17.56915
24.76659584,-33.06587,-108.5908,-30.09208,0.84321,0.8315451,-0.7249027,-51.62301,-44.87886,-17.56915
24.776454925,-24.6181,-109.3644,-29.17254,1.344197,0.1555817,0.1521256,-51.62301,-44.87886,-17.56915
24.786314487,13.33472,-114.7202,-41.98486,1.329851,-0.3123631,-0.4146784,-51.62301,-44.87886,-17.56915
24.796173572,73.2144600000001,-119.3619,-46.58259,1.305479,-0.4218126,-0.2173454,-51.62301,-44.87886,-17.56915
24.806033611,128.8703,-115.0178,-35.67065,1.393829,-0.1504708,0.04245306,-54.60124,-42.96171,-14.5639
24.815892696,147.7536,-111.5663,-44.06916,1.023086,0.0006553438,-0.1762113,-54.60124,-42.96171,-14.5639
24.825752258,162.5372,-108.1743,-37.38714,0.8127934,0.1033723,-0.1876816,-54.60124,-42.96171,-14.5639
24.835611343,156.6983,-107.2816,-22.42921,0.8079181,0.1259495,0.2639843,-54.60124,-42.96171,-14.5639
24.845471382,130.858,-95.3203300000002,-22.3066,0.7908522,0.3197224,0.331034,-54.60124,-42.96171,-14.5639
24.855330467,96.57005,-86.6320200000001,-16.48282,0.6483082,0.535293,0.1489555,-55.64764,-45.4082,-6.081883
24.865190029,46.93943,-81.57376,-17.15715,0.6965024,0.573684,0.02160475,-55.64764,-45.4082,-6.081883
24.875049114,12.40298,-83.89461,-21.38706,0.7364245,0.7556656,-0.3349112,-55.64764,-45.4082,-6.081883
24.884908199,-16.85361,-87.0485800000003,-27.76257,1.021503,0.6780884,-0.4139049,-55.64764,-45.4082,-6.081883
24.897233009,-45.42693,-86.4534899999999,-25.73957,1.452019,0.01042466,-0.141031,-55.64764,-45.4082,-6.081883
24.907092094,-31.07816,-83.2400099999997,-22.91963,1.332747,-0.3169078,-0.2063063,-55.95411,-47.50585,1.624329
24.916951656,12.21663,-84.9657699999999,-35.36414,1.003356,0.2084285,-0.6509801,-55.95411,-47.50585,1.624329
24.926810741,32.65277,-90.2620599999998,-42.7818,0.8745659,0.6966497,-0.6967777,-55.95411,-47.50585,1.624329
24.93667078,16.75109,-81.6927799999998,-50.32207,0.9535062,0.507418,-0.3482466,-55.95411,-47.50585,1.624329
24.946529865,37.18723,-68.89836,-35.73196,1.074804,-0.137175,-0.2001548,-55.95411,-47.50585,1.624329
24.956389427,65.4499699999998,-68.89836,-48.7282,0.93705,0.09606876,-0.4818259,-55.54399,-48.55581,5.85862
24.966248512,75.14006,-69.07688,-56.32977,0.9534163,0.388017,-0.1369676,-55.54399,-48.55581,5.85862
24.976108551,48.11963,-62.8284499999999,-49.34122,1.192859,0.4954482,-0.6014219,-55.54399,-48.55581,5.85862
24.985967636,25.13674,-57.65117,-41.00402,1.030678,0.58635,-0.5034618,-55.54399,-48.55581,5.85862
24.995827198,-4.057736,-59.4364400000001,-39.53275,0.9219728,0.7609847,-0.3926188,-55.54399,-48.55581,5.85862
25.005686283,-47.22829,-57.23461,-29.47905,0.9796104,0.6418558,-0.5041823,-55.11974,-51.00453,11.00356
25.015545845,-54.55797,-48.30827,-19.11885,1.091247,0.383241,-0.4379928,-55.11974,-51.00453,11.00356
25.025405407,-23.8106,-38.5488,-15.62458,1.161376,0.2314183,-0.3439546,-55.11974,-51.00453,11.00356
25.035264969,-2.815417,-26.76603,-9.55557899999999,1.128742,0.3343494,-0.4581078,-55.11974,-51.00453,11.00356
25.045124054,-19.58672,-20.04152,-4.038309,1.128571,0.471222,-0.4219687,-55.11974,-51.00453,11.00356
25.054983139,-33.31433,-10.10353,1.233748,1.169875,0.4157708,-0.383731,-52.86134,-52.85958,11.843
25.064842701,-34.743,0.370042,1.785475,1.218495,0.3126672,-0.3531877,-52.86134,-52.85958,11.843
25.077167034,-29.52526,9.17736400000001,5.095838,1.382549,0.1572825,-0.2629142,-52.86134,-52.85958,11.843
25.087026596,-33.12798,13.70004,12.94262,1.658533,0.0511977,-0.1369215,-52.86134,-52.85958,11.843
25.096885681,-29.15257,20.12701,13.98477,1.641232,0.1606584,-0.2330286,-52.86134,-52.85958,11.843
25.10674572,-23.50002,24.59018,13.92347,1.570406,0.2493231,-0.0391119,-52.47678,-55.44716,11.41937
25.116604805,-14.61744,29.94598,10.73571,1.475163,0.2177625,-0.05527198,-52.47678,-55.44716,11.41937
25.126464367,-6.35602500000002,32.0288,9.632258,1.421924,0.1285089,0.01613428,-52.47678,-55.44716,11.41937
25.136323452,4.576376,34.58768,9.264441,1.332053,0.1104458,0.08291304,-52.47678,-55.44716,11.41937
25.146183014,16.87533,36.61098,8.83531999999998,1.249666,0.05573727,0.09225114,-52.47678,-55.44716,11.41937
25.156042576,28.98793,37.14656,8.77401600000001,1.129267,0.02549608,0.09802471,-52.13551,-52.91008,8.83049
25.165902138,39.36129,38.93183,8.83531999999998,0.9930959,0.03094131,0.0549667,-52.13551,-52.91008,8.83049
25.175761223,45.94558,39.16987,8.89662299999997,0.9121176,0.03676894,0.1131947,-52.13551,-52.91008,8.83049
25.185620785,52.71621,39.16987,10.12268,0.8551922,0.07131503,-0.01269023,-52.13551,-52.91008,8.83049
25.195480347,57.6854899999998,40.18152,7.793169,0.7978146,0.02500932,-0.02759763,-52.13551,-52.91008,8.83049
25.205339909,62.9653400000002,41.3717,7.793169,0.7487254,0.02661558,-0.002445262,-52.526,-51.4501,7.601076
25.215198994,62.8411099999998,39.64594,10.12268,0.6773262,0.1403998,-0.1154752,-52.526,-51.4501,7.601076
25.225058079,58.3066400000002,37.20607,9.325744,0.5416334,0.2141455,-0.242782,-52.526,-51.4501,7.601076
25.234917641,50.48004,31.43371,11.71656,0.4479145,0.2271252,-0.3232798,-52.526,-51.4501,7.601076
25.247241974,42.83978,23.69754,9.87747100000001,0.318454,0.3472725,-0.4191358,-52.526,-51.4501,7.601076
25.257101536,37.00089,12.80741,8.83531999999998,0.2579383,0.4095698,-0.5327554,-52.91098,-49.97944,7.139829
25.266960621,30.0439,3.940578,7.24144199999999,0.2141077,0.5070992,-0.5039932,-52.91098,-49.97944,7.139829
25.27682066,22.03095,-5.99741399999999,5.341049,0.2202809,0.5605369,-0.5424454,-52.91098,-49.97944,7.139829
25.286679745,22.46576,-12.24585,-0.3601296,0.2437543,0.5581664,-0.5811359,-52.91098,-49.97944,7.139829
25.296539307,27.86984,-18.43478,-5.93870199999998,0.2844342,0.5634303,-0.5711289,-52.91098,-49.97944,7.139829
25.306398392,29.79544,-24.5642,-10.35252,0.3271613,0.689059,-0.5203617,-52.90901,-49.23156,7.964468
25.316257954,20.72651,-35.69237,-14.58243,0.3842075,0.8176453,-0.4932544,-52.90901,-49.23156,7.964468
25.326117516,6.129274,-41.2267,-18.44451,0.5095723,0.6578651,-0.4455945,-52.90901,-49.23156,7.964468
25.335977078,-0.951939799999999,-46.16594,-21.08054,0.5754288,0.4388831,-0.4728203,-52.90901,-49.23156,7.964468
25.345836163,-1.821563,-49.31992,-21.14185,0.6819614,0.2711925,-0.4139372,-52.90901,-49.23156,7.964468
25.355695248,-2.380606,-52.35487,-21.20315,0.7923596,0.1359637,-0.4017966,-54.39243,-48.50995,10.07774
25.36555481,-5.73486500000002,-54.55671,-20.71272,0.9243058,0.004890588,-0.2408972,-54.39243,-48.50995,10.07774
25.375414848,-0.951939799999999,-55.2113,-21.32575,0.9648842,0.004537174,-0.1715154,-54.39243,-48.50995,10.07774
25.385273934,2.029624,-56.10394,-20.65142,0.9695756,0.1098451,-0.1294824,-54.39243,-48.50995,10.07774
25.395133019,-2.753301,-59.0793800000001,-18.50582,1.002053,0.1935371,-0.07796461,-54.39243,-48.50995,10.07774
25.404992581,-5.610633,-60.7456299999998,-16.85064,0.9961204,0.3014482,-0.09517892,-52.50015,-49.53988,12.5753
25.414852619,-8.84066099999998,-60.5671099999998,-16.36021,0.9894478,0.3552254,-0.1425499,-52.50015,-49.53988,12.5753
25.427176476,-11.94646,-59.67447,-15.80848,0.9632071,0.2157617,-0.2880712,-52.50015,-49.53988,12.5753
25.437035561,-3.933504,-56.46099,-14.0307,0.9833806,-0.1718973,-0.5489603,-52.50015,-49.53988,12.5753
25.446895599,17.18591,-51.99782,-8.94255000000001,0.9700159,-0.4769605,-0.5058205,-52.50015,-49.53988,12.5753
25.456754685,37.18723,-48.5463,-8.26821599999997,0.9832044,-0.3545746,-0.4714316,-52.1,-50.98115,15.149
25.466614246,39.60975,-47.8917,-9.003853,0.9890255,0.2805938,-0.05979305,-52.1,-50.98115,15.149
25.476473332,25.50944,-43.90461,-7.59388300000003,1.109303,0.7476057,-0.1208203,-52.1,-50.98115,15.149
25.486332893,9.54565000000002,-39.61996,-11.76249,1.141115,0.6977395,-0.1279242,-52.1,-50.98115,15.149
25.496192455,12.15452,-41.64326,-16.115,1.125011,0.6699139,-0.1135535,-52.1,-50.98115,15.149
25.506052017,14.14223,-40.57211,-19.24145,0.8967928,0.755297,-0.1632506,-50.58069,-50.95119,18.53401
25.515911102,8.241216,-44.14264,-18.1993,0.7423261,0.7575967,-0.2233256,-50.58069,-50.95119,18.53401
25.525770188,-6.85295199999998,-50.03403,-17.40236,0.6653789,0.6555945,-0.2513625,-50.58069,-50.95119,18.53401
25.535629749,-11.44953,-57.7106799999999,-17.15715,0.5951399,0.5446068,-0.2259005,-50.58069,-50.95119,18.53401
25.545489788,-16.66727,-66.2799700000002,-15.25676,0.5317284,0.4626971,-0.2482104,-50.58069,-50.95119,18.53401
25.555348873,-18.46863,-74.3731800000002,-12.13031,0.5220796,0.412985,-0.2460964,-50.18177,-51.65082,21.48425
25.565207958,-15.6113,-79.4909500000002,-13.17246,0.6107569,0.2874092,-0.2038545,-50.18177,-51.65082,21.48425
25.57506752,-4.678895,-79.2529100000001,-12.92724,0.7072249,0.3064902,-0.1446892,-50.18177,-51.65082,21.48425
25.584927559,-7.28776300000003,-79.3719299999998,-12.80464,0.8764945,0.3705679,-0.1963977,-50.18177,-51.65082,21.48425
25.597251415,-18.59286,-75.0277799999999,-9.06515500000003,1.050677,0.3304323,-0.4100667,-47.909,-52.73394,24.87671
25.6071105,-28.03448,-70.9216599999999,-8.206914,1.19224,0.1072889,-0.5577273,-47.909,-52.73394,24.87671
25.616970539,-26.66793,-70.1480500000001,-5.570884,1.175428,-0.129512,-0.599739,-47.909,-52.73394,24.87671
25.626829624,-20.51845,-68.7793400000002,-1.279675,1.050686,-0.1216104,-0.6635447,-47.909,-52.73394,24.87671
25.636689186,-14.12051,-63.1259900000003,-4.773945,0.9007229,-0.1376605,-0.6965243,-47.909,-52.73394,24.87671
25.646548271,-7.10141600000002,-64.8517499999999,-2.260523,0.7813229,-0.1802277,-0.7359138,-47.909,-52.73394,24.87671
25.656407833,-2.132142,-59.97202,-2.076613,0.8206421,-0.01236686,-0.5750049,-46.0219,-53.83591,26.60674
25.666267395,10.47739,-64.5542100000001,-0.6666446,0.8409122,0.1914097,-0.5237374,-46.0219,-53.83591,26.60674
25.676126957,27.86984,-67.1725999999998,-4.528733,0.8258098,0.2862271,-0.5073876,-46.0219,-53.83591,26.60674
25.685986042,36.37973,-69.2554100000002,-4.712642,0.9404401,0.3694963,-0.2438005,-46.0219,-53.83591,26.60674
25.695845127,35.8828,-66.9345600000002,-8.57473199999998,0.8914859,0.8103574,-0.00169925,-46.0219,-53.83591,26.60674
25.705704689,17.37226,-80.2050599999998,-19.30276,1.002373,0.9220707,-0.05936161,-44.56007,-55.28406,29.55905
25.715564728,20.04324,-70.5050999999998,-18.2606,1.095188,0.9289633,-0.3864819,-44.56007,-55.28406,29.55905
25.725423813,13.95588,-83.3590300000001,-30.4599,1.154885,0.410098,-0.3040181,-44.56007,-55.28406,29.55905
25.735282898,19.29785,-84.1326399999999,-24.3296,1.159493,0.3293679,-0.431753,-44.56007,-55.28406,29.55905
25.74514246,18.11765,-86.6320200000001,-25.37175,1.014373,0.1765087,-0.6245713,-44.56007,-55.28406,29.55905
25.755002499,14.57704,-89.6074699999998,-22.12269,0.9797461,0.1163143,-0.6336905,-43.03236,-54.49376,34.66489
25.767326355,14.70127,-91.5712599999999,-19.79318,0.9612892,0.1070463,-0.5961282,-43.03236,-54.49376,34.66489
25.77718544,15.88147,-92.64243,-14.58243,1.036428,0.2887373,-0.5947073,-43.03236,-54.49376,34.66489
25.787045479,14.32858,-91.9283100000001,-12.92724,1.090985,0.4044604,-0.617989,-43.03236,-54.49376,34.66489
25.796904564,13.14837,-93.2375100000001,-13.66288,1.062786,0.4094114,-0.5288934,-40.00613,-55.57393,38.88565
25.806764126,14.88762,-94.5467100000001,-12.19161,1.055448,0.4820921,-0.4649211,-40.00613,-55.57393,38.88565
25.816623211,10.9122,-95.2608199999997,-12.19161,1.047015,0.5351493,-0.5702562,-40.00613,-55.57393,38.88565
25.826482773,7.24736100000001,-94.2491600000001,-13.72418,1.039012,0.4868307,-0.589718,-40.00613,-55.57393,38.88565
25.836342335,9.54565000000002,-94.0111300000002,-17.15715,1.006392,0.4043446,-0.5789275,-40.00613,-55.57393,38.88565
25.846201897,15.01185,-91.0951899999998,-18.93494,1.033436,0.4346223,-0.6140391,-40.00613,-55.57393,38.88565
25.856060982,24.14289,-87.2271099999999,-22.3679,1.109108,0.4447969,-0.5450686,-35.87349,-55.57953,41.87306
25.865920067,31.47257,-85.4418399999999,-25.73957,1.106413,0.4965917,-0.4818179,-35.87349,-55.57953,41.87306
25.875780106,38.49167,-77.1105899999998,-28.19169,1.077659,0.5377613,-0.724494,-35.87349,-55.57953,41.87306
25.885639667,50.97697,-71.6952699999997,-34.68981,1.16901,0.3140556,-0.6443032,-35.87349,-55.57953,41.87306
25.895498753,70.2329000000003,-63.42353,-37.01932,1.21585,0.2340671,-0.5445347,-35.87349,-55.57953,41.87306
25.905357838,84.70591,-56.63952,-36.5902,1.248443,0.226764,-0.4928282,-32.48232,-55.56492,45.6965
25.9152174,88.7434499999999,-52.29536,-34.68981,1.265358,0.2100392,-0.4510409,-32.48232,-55.56492,45.6965
25.925077438,89.2403699999999,-50.86715,-30.64381,1.278685,0.1691789,-0.4784108,-32.48232,-55.56492,45.6965
25.934936523,88.5571,-52.11684,-24.94263,1.302974,0.1728998,-0.4518904,-32.48232,-55.56492,45.6965
25.94726038,87.81171,-54.97327,-16.48282,1.382545,0.2693861,-0.3439111,-29.83911,-54.42654,50.28066
25.957120419,85.3891799999999,-56.5205,-10.84294,1.395624,0.4181352,-0.5455436,-29.83911,-54.42654,50.28066
25.966979504,69.2390399999997,-59.8530000000002,-8.88124700000001,1.351149,0.4663877,-0.6791575,-29.83911,-54.42654,50.28066
25.976839066,60.2943499999998,-64.4351900000003,-5.754793,1.420852,0.4320538,-0.6564808,-29.83911,-54.42654,50.28066
25.986698151,43.52306,-59.0793800000001,-5.448278,1.503284,0.4696572,-0.4263641,-29.83911,-54.42654,50.28066
25.996557713,38.05686,-51.58126,-11.57858,1.39206,0.4426117,-0.4983247,-27.95971,-50.70696,54.52222
26.006417274,35.82068,-43.42854,-15.07285,1.171615,0.348569,-0.5304788,-27.95971,-50.70696,54.52222
26.016276836,35.63433,-30.27706,-12.74334,0.9724196,0.2818441,-0.5948116,-27.95971,-50.70696,54.52222
26.026135921,34.3299,-20.5771,-7.28736799999999,0.8600678,0.235759,-0.5509505,-27.95971,-50.70696,54.52222
26.035995007,26.25483,-4.450181,-5.325672,0.7752087,0.2398262,-0.5636035,-27.95971,-50.70696,54.52222
26.045855045,34.01932,16.43745,-2.996159,0.6379554,0.1873521,-0.736998,-24.9744,-48.20799,55.76128
26.055714607,67.9967299999998,32.80241,-6.490429,0.3643677,0.05429602,-1.184669,-24.9744,-48.20799,55.76128
26.065573692,104.0861,40.95514,-11.39467,0.2991692,-0.01295804,-1.576293,-24.9744,-48.20799,55.76128
26.075432777,92.2219299999998,32.0288,-0.911856500000002,0.2860341,0.3342706,-1.73179,-24.9744,-48.20799,55.76128
26.085292816,32.15585,19.82946,-2.934855,0.4673657,0.5812155,-1.060932,-24.9744,-48.20799,55.76128
26.095152378,3.582522,24.82821,-10.72034,0.444386,0.5560554,-0.5797005,-24.9744,-48.20799,55.76128
26.105011463,5.073304,35.4208,-21.20315,0.4872886,0.1389006,-0.455407,-26.09642,-46.33649,57.0285
26.114870548,15.1982,56.36795,-16.54412,0.4898238,-0.2140704,-0.5082587,-26.09642,-46.33649,57.0285
26.127195358,33.58451,79.6954499999997,-9.18776100000002,0.4936345,-0.4292681,-0.4181229,-26.09642,-46.33649,57.0285
26.137054443,62.3441800000001,101.9518,3.685868,0.5199594,-0.3734024,-0.3758571,-26.09642,-46.33649,57.0285
26.146914005,87.3147700000001,122.6014,7.97707799999999,0.5300403,-0.2673382,-0.4043368,-29.11474,-43.38083,55.28541
26.15677309,99.6758399999997,139.3829,10.4292,0.4982205,-0.1851684,-0.4769865,-29.11474,-43.38083,55.28541
26.166633129,96.2594700000002,145.3338,11.53265,0.4494675,-0.1325253,-0.5975641,-29.11474,-43.38083,55.28541
26.176492214,79.2397100000002,145.6909,14.22998,0.4884035,-0.1424882,-0.6212047,-29.11474,-43.38083,55.28541
26.186351776,48.05752,149.2614,21.70895,0.5363222,-0.08117668,-0.6050774,-29.11474,-43.38083,55.28541
26.196210861,11.03643,149.797,25.57104,0.5489876,0.1208589,-0.6107409,-34.75113,-41.14284,52.73121
26.2060709,-28.15871,149.4399,25.08061,0.5351925,0.2044144,-0.6160686,-34.75113,-41.14284,52.73121
26.215929985,-63.8132400000002,147.1786,28.32967,0.468819,0.2159401,-0.6298805,-34.75113,-41.14284,52.73121
26.225789547,-89.0944200000002,144.2031,31.76264,0.4435385,0.2726119,-0.6400636,-34.75113,-41.14284,52.73121
26.235648632,-103.2569,142.4179,31.94655,0.4319233,0.2726788,-0.5948527,-34.75113,-41.14284,52.73121
26.245507717,-105.8036,140.3351,31.21091,0.3980264,0.2345278,-0.566898,-42.66628,-37.83331,45.95237
26.255367756,-99.71624,139.2639,28.63619,0.3627531,0.1788136,-0.5476975,-42.66628,-37.83331,45.95237
26.265227318,-91.3305999999998,137.9547,25.63234,0.3483636,0.1126367,-0.5130693,-42.66628,-37.83331,45.95237
26.275086403,-79.2801099999999,136.705,22.13807,0.3464464,0.02697312,-0.513765,-42.66628,-37.83331,45.95237
26.284945488,-61.7634200000002,136.348,19.99247,0.3504034,-0.05082574,-0.5072899,-42.66628,-37.83331,45.95237
26.297270298,-38.46995,138.3118,18.03077,0.3693685,-0.06227136,-0.4899265,-49.7732,-39.37251,35.37754
26.307129383,-22.19558,140.216,13.12653,0.3893494,-0.03309209,-0.5417185,-49.7732,-39.37251,35.37754
26.316988945,-4.492547,141.2872,10.24529,0.3904601,-0.07063913,-0.5650528,-49.7732,-39.37251,35.37754
26.326848984,8.05486800000002,140.7516,9.14183399999998,0.3795383,0.0379594,-0.5170192,-49.7732,-39.37251,35.37754
26.336708069,11.59548,138.7878,6.56710899999998,0.3854865,0.1511671,-0.4476229,-49.7732,-39.37251,35.37754
26.346567154,7.930636,138.0142,3.992383,0.4033286,0.224976,-0.4017304,-56.17529,-41.62562,26.98318
26.356426716,-0.2065488,137.7167,2.766323,0.4310074,0.2964457,-0.354081,-56.17529,-41.62562,26.98318
26.366285801,-11.94646,138.3118,2.888929,0.4774789,0.3456795,-0.3111998,-56.17529,-41.62562,26.98318
26.37614584,-25.98465,138.4903,2.153293,0.5185391,0.3442167,-0.2792118,-56.17529,-41.62562,26.98318
26.386004925,-39.77439,138.4903,0.4368094,0.5834128,0.3370628,-0.2639041,-56.17529,-41.62562,26.98318
26.395864487,-49.65082,139.6805,-2.62834,0.6400452,0.3346037,-0.2747952,-59.59602,-42.44156,18.49427
26.405723572,-55.36548,142.4774,-5.509581,0.7023192,0.3112727,-0.2849844,-59.59602,-42.44156,18.49427
26.415583611,-57.6016499999999,147.2976,-7.04215600000001,0.7884752,0.2853347,-0.2682217,-59.59602,-42.44156,18.49427
26.425442696,-55.92452,153.6651,-8.26821599999997,0.8886726,0.2296992,-0.2883288,-59.59602,-42.44156,18.49427
26.435302258,-45.11636,162.7104,-8.697337,1.0098,0.1277031,-0.3929854,-59.59602,-42.44156,18.49427
26.445161343,-23.18944,169.3159,-6.67433799999998,1.111374,0.04289639,-0.4095249,-62.65855,-42.5478,8.395543
26.455020428,5.197536,173.303,-7.226065,1.187538,0.01597098,-0.3729808,-62.65855,-42.5478,8.395543
26.464880467,36.50396,173.422,-11.63988,1.197976,0.07504936,-0.3448374,-62.65855,-42.5478,8.395543
26.477204323,58.3687600000003,167.4711,-14.33721,1.2214,0.2471796,-0.3053826,-62.65855,-42.5478,8.395543
26.487063885,60.1080100000002,161.2227,-14.45982,1.256415,0.3318959,-0.2462253,-62.65855,-42.5478,8.395543
26.496923447,53.89642,154.9743,-14.27591,1.225732,0.3834137,-0.1907244,-63.46512,-45.25786,-1.752395
26.506783009,46.4425,146.0479,-15.68588,1.114996,0.4266242,-0.3445213,-63.46512,-45.25786,-1.752395
26.516642094,38.74013,128.3738,-17.15715,1.029734,0.3983013,-0.5587057,-63.46512,-45.25786,-1.752395
26.526501656,28.18042,122.0658,-17.52497,1.075267,0.367386,-0.4757556,-63.46512,-45.25786,-1.752395
26.536361218,20.78863,119.5069,-19.42536,1.093847,0.2986777,-0.285879,-63.46512,-45.25786,-1.752395
26.546220779,11.78182,116.4125,-16.29891,1.135164,0.2079124,-0.06248927,-62.77288,-45.37341,-9.437915
26.556079864,-0.0823169599999999,117.1266,-13.9694,1.174558,0.1333336,0.07001652,-62.77288,-45.37341,-9.437915
26.565939426,-8.90277699999999,122.3038,-9.37167100000003,1.205101,0.0848405,0.04281597,-62.77288,-45.37341,-9.437915
26.575798988,-12.44338,124.6247,-4.344824,1.315752,0.0488241,-0.09036568,-62.77288,-45.37341,-9.437915
26.58565855,-7.97103800000001,123.8511,-2.076613,1.31231,0.1078117,-0.1832627,-62.77288,-45.37341,-9.437915
26.595517635,-1.076172,116.472,-4.773945,1.264668,0.1978766,-0.1894908,-60.93975,-47.32393,-15.76609
26.605377197,1.719045,102.7254,-9.55557899999999,1.221006,0.2899483,-0.1890499,-60.93975,-47.32393,-15.76609
26.615236282,0.849421699999999,86.77702,-14.45982,1.218441,0.2625521,-0.2218301,-60.93975,-47.32393,-15.76609
26.625096321,-1.573099,68.2697399999998,-15.07285,1.148352,0.2076181,-0.1719372,-60.93975,-47.32393,-15.76609
26.634955406,-0.4550124,50.06,-13.60158,1.072047,0.1256813,-0.171062,-60.93975,-47.32393,-15.76609
26.647279262,4.390029,33.3975,-10.78164,1.029238,0.02910493,-0.1305349,-58.73937,-48.17521,-22.17152
26.657139301,13.76953,19.11536,-8.94255000000001,0.9082338,0.04390879,-0.3088644,-58.73937,-48.17521,-22.17152
26.666998386,22.34153,4.059596,-8.697337,0.8751261,0.02971827,-0.3813506,-58.73937,-48.17521,-22.17152
26.676857948,25.63367,-6.05692300000003,-8.81994299999999,0.8392692,0.04197151,-0.2733954,-58.73937,-48.17521,-22.17152
26.686717033,30.16813,-17.72067,-9.12645800000002,0.7253879,0.0199442,-0.4281772,-58.73937,-48.17521,-22.17152
26.696577072,31.28622,-35.51385,-9.98470000000001,0.721557,-0.01606049,-0.4178841,-57.62613,-48.94762,-23.83413
26.706436157,34.64048,-40.75063,-8.206914,0.6830146,0.03754957,-0.4346128,-57.62613,-48.94762,-23.83413
26.716295719,37.00089,-55.92541,-7.47127699999998,0.6647375,0.07110907,-0.5255961,-57.62613,-48.94762,-23.83413
26.726154804,34.82683,-67.1725999999998,-8.26821599999997,0.7162971,0.1037074,-0.5188679,-57.62613,-48.94762,-23.83413
26.736014843,43.58517,-50.45059,-3.486583,1.183356,0.6131788,0.06100234,-57.62613,-48.94762,-23.83413
26.745873928,71.7236800000002,-66.4584900000002,-15.80848,1.327748,0.3345226,0.9330485,-57.97749,-48.52794,-20.44323
26.75573349,4.949072,-77.28912,3.747171,1.601641,0.09211438,0.7857352,-57.97749,-48.52794,-20.44323
26.765592575,11.90605,-100.8547,-42.90441,1.21728,0.1864108,-0.4098231,-57.97749,-48.52794,-20.44323
26.775452137,37.37358,-112.0423,-12.0077,1.184194,0.4551276,-0.3035766,-57.97749,-48.52794,-20.44323
26.785311699,14.26646,-113.9466,-11.82379,1.216713,0.4457155,-0.2950148,-57.97749,-48.52794,-20.44323
26.795171261,9.54565000000002,-118.7073,-22.3066,1.007545,0.05230101,-0.1223628,-59.03613,-52.05225,-14.44708
26.805030346,24.51558,-114.8988,-15.56327,0.8711792,0.02033729,0.1102852,-59.03613,-52.05225,-14.44708
26.814889908,34.08144,-102.5804,-13.47897,0.7920027,-0.04660769,0.09311827,-59.03613,-52.05225,-14.44708
26.827214241,49.5483,-87.4056400000002,-12.68203,0.6734636,0.09339697,0.205726,-59.03613,-52.05225,-14.44708
26.837073326,47.62271,-87.2271099999999,-16.54412,0.6574246,0.4132679,0.02847508,-59.03613,-52.05225,-14.44708
26.846932888,27.37292,-89.6074699999998,-21.38706,0.870954,0.5992655,-0.1862423,-60.84718,-54.15135,-8.077432
26.856792927,6.25350600000003,-92.9994699999999,-23.22615,1.084653,0.6612191,-0.390029,-60.84718,-54.15135,-8.077432
26.866652012,-15.2386,-97.3436300000001,-23.96178,1.149891,0.5048245,-0.3357331,-60.84718,-54.15135,-8.077432
26.876511097,-27.97236,-97.8792100000001,-23.22615,1.102919,0.2362559,-0.2136967,-60.84718,-54.15135,-8.077432
26.886370659,-19.95941,-95.2013099999999,-24.207,1.029614,-0.009410262,-0.2803755,-60.84718,-54.15135,-8.077432
26.896230698,10.60162,-91.8688000000002,-26.96563,0.9035763,0.01019219,-0.4648223,-61.16809,-55.90492,-2.103361
26.906089783,39.67187,-88.2982699999998,-28.86602,0.9519102,0.1613207,-0.3751047,-61.16809,-55.90492,-2.103361
26.915948868,55.26297,-87.4651500000001,-28.98863,0.9446827,0.2624328,-0.3856491,-61.16809,-55.90492,-2.103361
26.92580843,63.83496,-84.5492099999997,-28.80472,0.9983903,0.1988395,-0.3419065,-61.16809,-55.90492,-2.103361
26.935667515,69.98444,-77.5271499999999,-22.3679,1.042655,0.2453782,-0.1044618,-61.16809,-55.90492,-2.103361
26.945527554,69.4875100000003,-72.8259499999998,-21.20315,1.012039,0.4602834,-0.07968935,-61.48421,-58.02129,4.258561
26.955386639,44.0821,-67.5296599999998,-22.55181,0.8701162,0.66526,0.02565356,-61.48421,-58.02129,4.258561
26.965246201,10.72585,-63.4830399999999,-19.30276,1.013823,0.697102,-0.3863206,-61.48421,-58.02129,4.258561
26.975105286,-12.94031,-61.4002300000001,-21.26445,0.970874,0.4499767,-0.5243659,-61.48421,-58.02129,4.258561
26.984965324,-18.84132,-56.28246,-18.75103,1.039537,0.3540171,-0.4528368,-61.48421,-58.02129,4.258561
26.994824409,-24.43176,-50.86715,-20.83533,0.9861649,0.3048431,-0.4635127,-59.94123,-59.43363,9.835118
27.007148266,-26.91639,-50.5101,-26.78172,1.004884,0.23957,-0.6550518,-59.94123,-59.43363,9.835118
27.017008305,-17.84747,-39.08438,-25.37175,1.001788,0.2001394,-0.522123,-59.94123,-59.43363,9.835118
27.026867867,-11.51165,-38.84634,-28.86602,1.006987,0.232005,-0.4716122,-59.94123,-59.43363,9.835118
27.036726952,-5.548518,-30.39608,-24.3909,1.101132,0.2910815,-0.5117498,-59.94123,-59.43363,9.835118
27.046586037,-0.889823900000002,-20.87465,-23.83918,1.101472,0.3665004,-0.3846095,-58.79005,-61.62072,12.34849
27.056446075,-6.91506799999999,-17.66117,-22.91963,1.125742,0.3349284,-0.426433,-58.79005,-61.62072,12.34849
27.066305637,-3.809272,-5.93790500000001,-18.07669,1.106619,0.3106886,-0.4867442,-58.79005,-61.62072,12.34849
27.076164722,-2.566953,-0.2250474,-12.62073,1.187563,0.2926977,-0.4147321,-58.79005,-61.62072,12.34849
27.086023808,6.93678100000001,15.90187,-6.61303499999999,1.235302,0.3949691,-0.3757343,-58.79005,-61.62072,12.34849
27.095883846,20.72651,27.03004,-6.429126,1.263373,0.4491924,-0.3862191,-56.91463,-62.37325,12.73045
27.105743408,37.49781,36.61098,-5.141763,1.375895,0.2975114,-0.4839844,-56.91463,-62.37325,12.73045
27.115602493,35.32376,37.80116,-0.6666446,1.555305,0.2053494,-0.1806316,-56.91463,-62.37325,12.73045
27.125461578,40.10668,46.78701,5.463655,1.497356,0.3941011,-0.3176598,-56.91463,-62.37325,12.73045
27.13532114,37.37358,50.41706,3.747171,1.479395,0.3526688,-0.1644096,-56.91463,-62.37325,12.73045
27.145181179,42.9019,58.3912500000001,3.256747,1.384117,0.2938926,-0.1712149,-56.1727,-62.39257,11.95842
27.155040264,54.39334,62.6163899999999,3.992383,1.303927,0.2552459,-0.1660854,-56.1727,-62.39257,11.95842
27.164899349,66.2574799999999,64.2231300000002,6.62841199999998,1.234965,0.2224685,-0.04989205,-56.1727,-62.39257,11.95842
27.177224159,77.43835,64.8777200000003,9.81616800000001,1.15045,0.2796328,0.08117878,-56.1727,-62.39257,11.95842
27.187083244,80.29568,64.6396899999998,13.92347,1.051133,0.398313,0.04190553,-56.1727,-62.39257,11.95842
27.196942806,75.3264099999999,64.5801799999999,15.82386,0.9576219,0.4428689,0.07619988,-57.68163,-60.9143,11.11889
27.206801891,73.8356200000002,64.7587100000002,16.00777,0.8707192,0.4240826,0.07296711,-57.68163,-60.9143,11.11889
27.21666193,76.5687300000001,64.4611699999998,16.92732,0.7641118,0.3543083,0.01495615,-57.68163,-60.9143,11.11889
27.226521015,80.7926,64.8182200000001,16.92732,0.6735895,0.3393417,0.0007856293,-57.68163,-60.9143,11.11889
27.236380577,80.1714500000001,64.2826400000001,17.29513,0.5428318,0.3693378,-0.1260023,-57.68163,-60.9143,11.11889
27.246239662,73.2144600000001,62.1403199999998,17.84686,0.421703,0.3892588,-0.2371988,-58.0646,-59.81177,10.66141
27.256099701,63.9591899999999,56.48697,18.6438,0.3277769,0.3855797,-0.3475446,-58.0646,-59.81177,10.66141
27.265958786,56.62952,48.86982,18.03077,0.2565767,0.4155809,-0.4838069,-58.0646,-59.81177,10.66141
27.275818348,47.87117,37.50362,16.5595,0.2060122,0.4496128,-0.5024463,-58.0646,-59.81177,10.66141
27.285677433,38.67802,26.49446,15.88517,0.1708569,0.4794546,-0.5069644,-58.0646,-59.81177,10.66141
27.295537472,29.79544,15.12826,9.08053200000002,0.1767416,0.4588701,-0.559934,-58.83009,-57.60584,9.810471
27.305396557,20.41593,1.61973,6.19929100000001,0.1449171,0.4317282,-0.5855863,-58.83009,-57.60584,9.810471
27.315256119,13.52107,-10.99616,3.195444,0.150519,0.4657444,-0.6112559,-58.83009,-57.60584,9.810471
27.325115204,4.762724,-22.83844,-1.402281,0.1819012,0.4725249,-0.5642051,-58.83009,-57.60584,9.810471
27.334975243,-0.889823900000002,-33.31202,-5.019157,0.2459924,0.4439362,-0.5533799,-58.83009,-57.60584,9.810471
27.344834328,-9.83451600000002,-42.83344,-7.40997399999998,0.3639175,0.4174305,-0.5035307,-60.33429,-55.37434,10.17966
27.357158184,-13.43724,-51.58126,-11.14946,0.5075752,0.3313175,-0.448801,-60.33429,-55.37434,10.17966
27.367018223,-7.97103800000001,-59.4364400000001,-15.13415,0.5590992,0.263113,-0.4616118,-60.33429,-55.37434,10.17966
27.376877308,-10.33144,-66.0419300000001,-17.95409,0.6429834,0.1670033,-0.2067675,-60.33429,-55.37434,10.17966
27.38673687,-25.67407,-73.1234900000001,-16.66673,0.7300145,0.1263151,-0.1029275,-60.33429,-55.37434,10.17966
27.396595955,-44.30885,-81.09769,-12.80464,0.7630039,0.07518464,-0.06070121,-59.56286,-56.45267,12.68364
27.406455517,-63.6269,-90.5596099999999,-7.53257999999997,0.7919896,0.0655758,-0.09617697,-59.56286,-56.45267,12.68364
27.416315079,-81.2057,-95.7368899999998,-4.528733,0.8166313,0.03161604,-0.2563882,-59.56286,-56.45267,12.68364
27.426174641,-89.5913499999999,-98.5338099999998,-3.363976,0.7767225,0.05128397,-0.3673069,-59.56286,-56.45267,12.68364
27.436033726,-84.0630300000001,-94.5467100000001,-8.51342899999998,0.7813313,-0.02708756,-0.3852852,-59.56286,-56.45267,12.68364
27.445893288,-54.30951,-90.02403,-14.092,0.9352793,-0.0186893,-0.06682399,-58.0395,-58.27504,15.25532
27.45575285,-20.89115,-81.3952299999998,-14.52112,1.043612,0.1278534,-0.1735135,-58.0395,-58.27504,15.25532
27.465612412,-3.68504,-80.2050599999998,-16.97324,1.052285,0.2326746,-0.2705092,-58.0395,-58.27504,15.25532
27.475471497,9.23507000000002,-79.5504600000001,-18.50582,1.061274,0.3455329,-0.3013121,-58.0395,-58.27504,15.25532
27.485331535,11.84394,-78.5387999999999,-23.47136,0.9246323,0.4053901,-0.3669057,-58.0395,-58.27504,15.25532
27.495190621,13.52107,-80.1455499999999,-24.69742,0.823368,0.3490224,-0.2365543,-56.88589,-59.71336,18.65734
27.505050182,9.483534,-79.3719299999998,-21.75488,0.8986954,0.2480536,-0.2188329,-56.88589,-59.71336,18.65734
27.514909268,-2.691185,-86.2749600000002,-14.21461,0.97262,0.2328829,-0.1567602,-56.88589,-59.71336,18.65734
27.527234078,-9.21335600000002,-79.8479999999999,-9.55557899999999,1.061694,0.3753819,-0.3878012,-56.88589,-59.71336,18.65734
27.537093163,-7.66045899999998,-80.4430900000003,-11.02685,1.120409,0.3277062,-0.3933532,-56.88589,-59.71336,18.65734
27.546952248,4.576376,-77.28912,-12.43682,1.017962,0.3694354,-0.4428152,-54.97563,-61.14249,23.33577
27.556811809,14.39069,-76.99157,-11.88509,0.9693671,0.3920412,-0.3988039,-54.97563,-61.14249,23.33577
27.566671848,6.129274,-68.9578699999999,-13.23376,1.04479,0.5572659,-0.2475367,-54.97563,-61.14249,23.33577
27.576530933,4.762724,-67.3511300000001,-13.66288,1.091525,0.4940123,-0.3560773,-54.97563,-61.14249,23.33577
27.586390018,-2.070026,-68.0057200000001,-13.11115,1.168283,0.3855875,-0.3834839,-54.97563,-61.14249,23.33577
27.59624958,-0.5171283,-69.5529600000003,-11.70118,1.097895,0.3230571,-0.5416234,-53.44712,-61.09472,28.00106
27.606109619,-1.386751,-68.8388500000001,-10.10731,1.016623,0.3189013,-0.5496049,-53.44712,-61.09472,28.00106
27.615968704,0.911537699999999,-70.5646100000002,-10.78164,0.9847899,0.2888802,-0.4348759,-53.44712,-61.09472,28.00106
27.625827789,7.74428800000002,-71.9333099999999,-10.35252,1.107663,0.3256331,-0.3970226,-53.44712,-61.09472,28.00106
27.635687351,14.76339,-75.97992,-12.86594,1.239576,0.3427836,-0.2875837,-53.44712,-61.09472,28.00106
27.64554739,12.83779,-81.0381800000001,-13.78549,1.260614,0.3894351,-0.3540986,-51.55129,-62.17976,30.94735
27.655406475,14.08011,-84.3111700000001,-15.86979,1.191182,0.3827001,-0.4288794,-51.55129,-62.17976,30.94735
27.66526556,17.5586,-86.8105499999998,-16.91194,1.130468,0.3447717,-0.5375916,-51.55129,-62.17976,30.94735
27.675125122,20.91286,-86.39398,-16.72803,1.175908,0.366506,-0.5586613,-51.55129,-62.17976,30.94735
27.684985161,24.39135,-84.9657699999999,-16.72803,1.144087,0.3532532,-0.6436172,-51.55129,-62.17976,30.94735
27.697309017,25.88214,-84.1326399999999,-17.64757,1.083583,0.3187197,-0.6262743,-49.2701,-62.50253,36.06063
27.707168102,24.88828,-84.37068,-17.21845,1.10511,0.3118581,-0.5605095,-49.2701,-62.50253,36.06063
27.717028141,24.08077,-83.8351000000001,-17.21845,1.08829,0.361186,-0.6025023,-49.2701,-62.50253,36.06063
27.726887226,25.13674,-82.4068799999997,-19.05754,1.066208,0.3549776,-0.6487222,-49.2701,-62.50253,36.06063
27.736746788,31.53468,-80.5026000000002,-22.49051,1.061671,0.2835363,-0.6137998,-49.2701,-62.50253,36.06063
27.746605873,41.22477,-77.5271499999999,-25.06524,1.040013,0.26649,-0.5666734,-45.87295,-62.47634,40.71625
27.756465912,47.37424,-75.2658200000001,-27.76257,0.9526458,0.3443229,-0.626588,-45.87295,-62.47634,40.71625
27.766324997,52.2814,-71.3382299999997,-30.58251,0.9998517,0.3436967,-0.6454757,-45.87295,-62.47634,40.71625
27.776184559,59.4868500000001,-68.3627800000001,-34.07678,1.057106,0.2917509,-0.6184573,-45.87295,-62.47634,40.71625
27.786043644,68.8042399999998,-66.5180000000001,-37.01932,1.141798,0.3211058,-0.5168681,-45.87295,-62.47634,40.71625
27.795903683,74.39467,-65.5063500000002,-38.98102,1.273907,0.3891706,-0.4558805,-42.16435,-62.45374,45.37027
27.805762768,78.3700899999998,-66.2799700000002,-43.70135,1.427921,0.394824,-0.350208,-42.16435,-62.45374,45.37027
27.81562233,86.3209199999998,-66.4584900000002,-49.21862,1.569142,0.3700732,-0.2767161,-42.16435,-62.45374,45.37027
27.825481415,99.6137299999999,-65.74438,-57.24931,1.726907,0.4267081,-0.2099612,-42.16435,-62.45374,45.37027
27.8353405,107.0676,-64.25666,-64.7282800000003,1.660576,0.4634158,-0.1267629,-42.16435,-62.45374,45.37027
27.845200539,120.7331,-60.8646500000002,-78.6440599999999,1.60451,0.3866735,-0.2157426,-38.38506,-61.67151,51.74479
27.855060101,146.0764,-55.62786,-83.9161100000001,1.411325,0.3190946,-0.5216848,-38.38506,-61.67151,51.74479
27.864919186,151.0457,-61.9953199999999,-87.6555999999999,1.272604,0.2290965,-0.8357804,-38.38506,-61.67151,51.74479
27.877243519,151.5426,-67.7081799999998,-82.8126600000002,1.063802,0.1579415,-0.890909,-38.38506,-61.67151,51.74479
27.887103081,144.4614,-70.6241099999999,-73.5559099999999,0.8327334,0.2641815,-0.9518902,-38.38506,-61.67151,51.74479
27.896962166,121.7891,-71.8142900000001,-67.91604,0.7470572,0.403307,-0.7621279,-34.23456,-59.41032,58.87046
27.906821728,100.7318,-66.0419300000001,-65.7704299999997,0.7732379,0.4498554,-0.7386276,-34.23456,-59.41032,58.87046
27.91668129,83.0287800000002,-62.4118800000001,-67.4869199999999,0.7597427,0.3256469,-0.8688672,-34.23456,-59.41032,58.87046
27.926540852,76.2581400000001,-53.66407,-65.8317300000002,0.793258,0.03632912,-0.8899961,-34.23456,-59.41032,58.87046
27.936399937,87.1905400000002,-41.76228,-61.1727000000003,0.7157832,-0.199981,-0.7878584,-34.23456,-59.41032,58.87046
27.946259975,108.4342,-31.94331,-59.2110100000001,0.5021245,-0.2827213,-1.065843,-28.99043,-54.23917,64.35983
27.956119061,127.8144,-32.18135,-53.14201,0.2993942,-0.1851108,-1.029544,-28.99043,-54.23917,64.35983
27.965978622,118.9318,-21.46974,-45.29523,0.3866417,-0.1096221,-0.6999825,-28.99043,-54.23917,64.35983
27.975837708,117.3168,-5.461833,-48.7282,0.3810782,-0.1037803,-0.8158201,-28.99043,-54.23917,64.35983
27.985697269,112.0369,6.49946299999999,-44.43699,0.3825927,-0.1633479,-0.613643,-28.99043,-54.23917,64.35983
27.995556831,107.9994,22.0908,-43.57874,0.3660122,-0.1464752,-0.4872349,-24.13207,-50.9472,66.79733
28.005416393,101.1666,38.15821,-42.59789,0.3563529,-0.08709782,-0.4616777,-24.13207,-50.9472,66.79733
28.015275478,91.41443,56.01089,-41.98486,0.3319727,-0.007846079,-0.4218462,-24.13207,-50.9472,66.79733
28.025134563,78.74278,75.2917899999999,-41.06532,0.3347654,0.04096199,-0.3893678,-24.13207,-50.9472,66.79733
28.034994602,62.8411099999998,93.1444699999999,-40.26838,0.3333651,0.06329142,-0.4006602,-24.13207,-50.9472,66.79733
28.044854164,48.86502,109.9855,-40.82011,0.3292193,0.05098484,-0.4284985,-23.39997,-45.83907,68.46967
28.05717802,32.96335,129.7425,-41.43314,0.3572733,0.05442761,-0.4849356,-23.39997,-45.83907,68.46967
28.067038059,22.96269,144.2626,-41.67835,0.4032288,0.04150953,-0.5345779,-23.39997,-45.83907,68.46967
28.076897144,16.75109,159.616,-41.00402,0.4475456,-0.01136976,-0.596035,-23.39997,-45.83907,68.46967
28.086756229,15.75724,172.8864,-38.5519,0.4633878,-0.03998284,-0.6075239,-23.39997,-45.83907,68.46967
28.096615791,15.44666,182.1698,-36.95802,0.4692943,-0.001838825,-0.5713461,-26.79356,-42.51006,66.78877
28.10647583,14.45281,188.9539,-37.57105,0.4836513,0.06495214,-0.5719455,-26.79356,-42.51006,66.78877
28.116334915,12.21663,196.69,-38.91972,0.5171393,0.1001924,-0.5965646,-26.79356,-42.51006,66.78877
28.126194,11.16066,204.8427,-38.30668,0.5586381,0.09907255,-0.6038743,-26.79356,-42.51006,66.78877
28.136053562,8.92449099999999,210.139,-37.50975,0.5846479,0.08920821,-0.5707842,-26.79356,-42.51006,66.78877
28.145913601,6.37773799999999,212.2814,-39.28753,0.615,0.06507188,-0.5905885,-35.81229,-42.5018,59.98565
28.155772686,12.0924,215.9114,-40.6362,0.6530799,0.03658254,-0.6215613,-35.81229,-42.5018,59.98565
28.165631771,16.31628,216.1494,-39.22623,0.6771852,0.01353365,-0.5962225,-35.81229,-42.5018,59.98565
28.175491333,22.27941,214.2451,-40.26838,0.6875792,0.02635307,-0.5761361,-35.81229,-42.5018,59.98565
28.185350895,27.6835,212.6384,-42.35268,0.7127499,0.05956641,-0.6025705,-35.81229,-42.5018,59.98565
28.195210457,32.40431,210.9127,-44.13047,0.7469679,0.05267429,-0.5748436,-44.08825,-44.37142,51.14908
28.205069542,34.26778,207.6992,-45.78565,0.7340441,0.06240289,-0.5453462,-44.08825,-44.37142,51.14908
28.214929104,33.83297,202.2243,-47.86995,0.7239972,0.08958191,-0.5406607,-44.08825,-44.37142,51.14908
28.227253437,28.8637,194.6667,-48.29907,0.7089959,0.1321051,-0.4552698,-44.08825,-44.37142,51.14908
28.237112999,19.60843,189.0134,-49.64774,0.7008094,0.1778266,-0.4413497,-51.93343,-45.88417,41.85839
28.246972561,9.98046100000001,183.479,-50.9351,0.6972474,0.1723865,-0.4562,-51.93343,-45.88417,41.85839
28.256832123,2.278088,178.6588,-49.09601,0.702784,0.1428319,-0.4349644,-51.93343,-45.88417,41.85839
28.266691208,-2.566953,174.3147,-46.45998,0.6885683,0.1306274,-0.4118632,-51.93343,-45.88417,41.85839
28.27655077,-6.35602500000002,168.8398,-44.43699,0.6743218,0.1319493,-0.4150034,-51.93343,-45.88417,41.85839
28.286409855,-10.14509,164.2576,-42.16877,0.6685604,0.1255814,-0.412579,-57.22398,-48.16894,32.11394
28.296269894,-11.88434,160.4491,-39.04232,0.6657764,0.1354982,-0.3568685,-57.22398,-48.16894,32.11394
28.306128979,-12.07069,158.6043,-36.89672,0.6646629,0.1805031,-0.2913017,-57.22398,-48.16894,32.11394
28.315988541,-11.94646,153.7246,-35.60935,0.6001142,0.2647845,-0.5019558,-57.22398,-48.16894,32.11394
28.325847626,-12.38127,145.2743,-33.03463,0.6201743,0.310804,-0.6048812,-57.22398,-48.16894,32.11394
28.335707665,-21.69866,143.132,-29.47905,0.6564393,0.3210429,-0.555475,-57.22398,-48.16894,32.11394
28.34556675,-27.22697,139.859,-29.11123,0.7217742,0.2499801,-0.4549364,-59.51978,-51.90482,21.98441
28.355425835,-24.36964,138.6688,-25.98478,0.7857985,0.1668785,-0.3175823,-59.51978,-51.90482,21.98441
28.365285397,-16.97785,138.6093,-22.00009,0.8666206,0.1816995,-0.1897045,-59.51978,-51.90482,21.98441
28.375145435,-10.20721,142.2989,-20.2223,0.9244691,0.2302276,-0.102426,-59.51978,-51.90482,21.98441
28.385004521,-4.057736,143.1915,-18.138,0.9296358,0.3250128,-0.1424316,-59.51978,-51.90482,21.98441
28.394863606,-0.3307806,143.9056,-19.85448,1.019708,0.3941269,-0.2212416,-61.06259,-54.95658,13.12438
28.407188416,2.588667,139.2639,-23.53266,1.096703,0.4233969,-0.2537191,-61.06259,-54.95658,13.12438
28.417047501,8.36544800000002,132.8369,-28.19169,1.159898,0.39287,-0.2385847,-61.06259,-54.95658,13.12438
28.426907063,16.12994,129.6234,-34.07678,1.175614,0.3557034,-0.195036,-61.06259,-54.95658,13.12438
28.436767101,24.76405,122.9585,-38.18408,1.139769,0.3147432,-0.133054,-62.23326,-56.52759,5.143535
28.446626186,36.00703,118.3763,-41.73965,1.064123,0.3166463,-0.2254037,-62.23326,-56.52759,5.143535
28.456485272,40.47938,105.5818,-42.16877,1.020755,0.3355679,-0.2677539,-62.23326,-56.52759,5.143535
28.466344833,39.05071,95.7628600000002,-42.96571,1.07534,0.3343123,-0.2124761,-62.23326,-56.52759,5.143535
28.476204872,37.063,86.47947,-41.55574,1.105409,0.2666954,-0.147825,-62.23326,-56.52759,5.143535
28.486063957,34.26778,75.2917899999999,-38.98102,1.086091,0.1843534,-0.130035,-62.25597,-60.29192,-0.7720423
28.495923042,30.29236,62.55688,-36.5289,1.032643,0.1367573,-0.1090693,-62.25597,-60.29192,-0.7720423
28.505782604,25.57156,48.45326,-31.44075,0.9660888,0.1365143,-0.1464588,-62.25597,-60.29192,-0.7720423
28.515641689,19.60843,32.0288,-24.207,0.9378588,0.2092674,-0.1435257,-62.25597,-60.29192,-0.7720423
28.525501728,8.17909999999999,15.72335,-19.85448,0.9253562,0.2667747,-0.2204924,-62.25597,-60.29192,-0.7720423
28.535360813,-12.07069,-1.950806,-16.72803,0.9971524,0.2149208,-0.2032645,-58.89275,-63.67973,-3.316044
28.545220375,-23.87271,-19.08938,-12.37552,1.019989,0.1019467,-0.2783402,-58.89275,-63.67973,-3.316044
28.555079937,-25.54984,-34.50219,-11.45597,1.008042,0.01110901,-0.3373989,-58.89275,-63.67973,-3.316044
28.564939499,-20.14576,-48.36777,-10.84294,0.9886919,-0.01194906,-0.3416305,-58.89275,-63.67973,-3.316044
28.577263355,-13.37512,-62.3523799999999,-9.24906400000001,0.9778621,-0.03194578,-0.3282273,-58.89275,-63.67973,-3.316044
28.587123394,-9.71028300000003,-72.0523300000002,-7.10345900000001,0.9408972,-0.04686099,-0.3254303,-57.01603,-66.28993,-4.131487
28.596982479,-7.22564700000002,-81.0381800000001,-4.038309,0.9072559,-0.02919857,-0.3372609,-57.01603,-66.28993,-4.131487
28.606842041,-9.08912500000002,-57.4726399999998,4.360201,1.599499,0.3564452,1.076475,-57.01603,-66.28993,-4.131487
28.616701126,-6.72872000000001,-35.75188,-4.957854,1.345734,0.6378614,1.586105,-57.01603,-66.28993,-4.131487
28.626561165,-48.84331,-35.09728,-15.31806,1.004412,0.3595454,1.102233,-57.01603,-66.28993,-4.131487
28.63642025,-102.4493,-74.3136699999997,3.563262,1.017723,-0.1604574,0.4727791,-56.99281,-67.73312,-2.003949
28.646279812,-103.6295,-82.1688499999998,19.25683,1.492503,-0.1279665,0.2305204,-56.99281,-67.73312,-2.003949
28.656138897,-81.7026299999997,-87.7626899999999,17.78556,1.507158,-0.2112161,-0.2031081,-56.99281,-67.73312,-2.003949
28.665998936,-47.72522,-107.2221,8.28359300000002,1.147977,-0.1643824,-0.4908637,-56.99281,-67.73312,-2.003949
28.675858021,-7.22564700000002,-121.7423,3.072838,1.123671,0.1019641,-0.388596,-56.99281,-67.73312,-2.003949
28.685717106,23.70808,-124.2417,-5.08046,1.159878,0.2532314,-0.3629171,-57.74149,-68.09888,-2.444412
28.695576668,44.95172,-125.4914,-11.70118,0.9202882,0.322339,-0.1844905,-57.74149,-68.09888,-2.444412
28.705436706,50.85273,-123.7656,-12.43682,0.7904575,0.482385,-0.02123681,-57.74149,-68.09888,-2.444412
28.715295792,46.19404,-113.7681,-12.68203,0.7264477,0.5399376,0.03526913,-57.74149,-68.09888,-2.444412
28.725154877,35.75857,-103.7111,-11.02685,0.678502,0.4214958,-0.03309342,-57.74149,-68.09888,-2.444412
28.735014439,27.37292,-96.2129599999998,-11.39467,0.7014995,0.2465628,-0.1508638,-58.44017,-67.9958,4.344915
28.744874477,32.40431,-90.02403,-9.67818499999998,0.829303,0.1454721,-0.159768,-58.44017,-67.9958,4.344915
28.757198334,38.67802,-85.3228200000001,-9.12645800000002,0.9204742,0.186312,-0.2546459,-58.44017,-67.9958,4.344915
28.767057419,44.14421,-85.2037999999997,-15.93109,0.872363,0.4664117,-0.4509433,-58.44017,-67.9958,4.344915
28.776917458,27.93196,-88.7743500000001,-14.45982,0.8418239,0.5871938,-0.610979,-58.44017,-67.9958,4.344915
28.786776543,-5.05159,-93.1184899999997,-18.93494,1.057338,0.4155261,-0.3131244,-57.63947,-68.6454,11.19807
28.796636105,-14.92802,-83.2995200000002,-9.49427599999999,1.181416,0.1338328,-0.07239926,-57.63947,-68.6454,11.19807
28.80649519,-8.34373400000002,-67.3511300000001,-10.65903,1.048897,0.4258574,-0.1336963,-57.63947,-68.6454,11.19807
28.816355228,-15.79764,-68.06523,-18.50582,0.8949773,0.5864762,-0.4090412,-57.63947,-68.6454,11.19807
28.826214313,-28.77987,-61.3407200000002,-19.30276,1.013682,0.4887766,-0.4005359,-57.63947,-68.6454,11.19807
28.836073875,-21.20173,-52.94996,-16.91194,0.9873533,0.3065417,-0.6619039,-56.49235,-68.98016,14.52476
28.84593296,-26.10889,-47.71318,-19.67057,1.095443,0.2298349,-0.4805585,-56.49235,-68.98016,14.52476
28.855792999,0.911537699999999,-33.31202,-20.2836,1.048827,0.1555776,-0.4484144,-56.49235,-68.98016,14.52476
28.865652084,23.27327,-24.38568,-22.12269,1.050417,0.2194783,-0.6702463,-56.49235,-68.98016,14.52476
28.875511646,17.86918,-20.99367,-17.58627,1.074538,0.3784597,-0.3759783,-56.49235,-68.98016,14.52476
28.885371208,-6.977184,-16.11393,-13.04985,1.150855,0.5232988,-0.2129159,-54.98141,-70.82658,15.36807
28.89523077,-28.84199,-11.59125,-1.340978,1.216749,0.6012824,-0.3349136,-54.98141,-70.82658,15.36807
28.905089855,-29.89796,2.452855,-1.708796,1.243067,0.39795,-0.3777366,-54.98141,-70.82658,15.36807
28.914949417,-21.13961,5.428301,-5.141763,1.235163,0.1534147,-0.1678815,-54.98141,-70.82658,15.36807
28.924808979,4.638493,19.59143,-0.973159599999999,1.211783,0.1995122,-0.406759,-54.98141,-70.82658,15.36807
28.937133312,26.56541,25.12576,-0.1762206,1.296341,0.2624336,-0.1778966,-55.72966,-70.07542,15.81249
28.946992397,40.35514,25.54232,-0.6053416,1.36846,0.2578422,-0.2748031,-55.72966,-70.07542,15.81249
28.956852436,33.02547,26.01839,0.8659304,1.47973,0.3106113,0.03841121,-55.72966,-70.07542,15.81249
28.966711521,30.97564,27.32759,2.643717,1.386737,0.4238323,-0.04412621,-55.72966,-70.07542,15.81249
28.976571083,28.491,26.79201,-0.911856500000002,1.336905,0.3566571,-0.06219248,-55.72966,-70.07542,15.81249
28.986430168,37.12512,30.12451,-3.180068,1.177176,0.2260624,-0.1228348,-53.87148,-69.37318,14.8991
28.996290207,50.16946,29.76746,-3.363976,1.049416,0.1769795,-0.063445,-53.87148,-69.37318,14.8991
29.006149292,64.3318899999997,32.0883,-0.973159599999999,0.9785544,0.2505294,-0.1365694,-53.87148,-69.37318,14.8991
29.016008377,68.5557699999998,32.98094,1.049839,0.931869,0.3099739,-0.1354024,-53.87148,-69.37318,14.8991
29.025867939,70.29501,33.87357,3.072838,0.9028965,0.3718267,-0.05300356,-53.87148,-69.37318,14.8991
29.035727978,73.8356200000002,36.90853,3.93108,0.8942254,0.3814164,-0.07052942,-53.86507,-68.24468,16.61616
29.045587063,78.1837399999999,38.27723,3.134141,0.8564351,0.3628482,-0.131485,-53.86507,-68.24468,16.61616
29.055446148,84.0226400000001,40.7171,4.482807,0.8406084,0.320455,-0.1095741,-53.86507,-68.24468,16.61616
29.06530571,90.9174999999997,40.41956,3.747171,0.8050789,0.3060318,-0.1087102,-53.86507,-68.24468,16.61616
29.075165749,92.0976999999999,39.28889,3.685868,0.7599547,0.3120815,-0.07590966,-53.86507,-68.24468,16.61616
29.085024834,89.7373000000001,39.4079,4.053687,0.7002781,0.326907,-0.1338755,-53.48297,-66.37263,19.15593
29.094883919,85.3891799999999,36.84902,3.31805,0.6361321,0.3232572,-0.1770784,-53.48297,-66.37263,19.15593
29.107208729,79.6123999999998,32.86192,3.440656,0.5818468,0.3630329,-0.2123882,-53.48297,-66.37263,19.15593
29.117067814,70.48136,28.27973,3.808474,0.4968817,0.4291574,-0.2858535,-53.48297,-66.37263,19.15593
29.126927376,62.3441800000001,22.0908,3.992383,0.4321405,0.4800192,-0.3247543,-53.48297,-66.37263,19.15593
29.136787415,54.82815,15.36629,3.869777,0.3475369,0.5733172,-0.4195594,-54.98278,-62.64448,21.2384
29.1466465,44.82749,6.61847999999998,4.54411,0.2724184,0.6635522,-0.5749047,-54.98278,-62.64448,21.2384
29.156505585,27.86984,-3.43853,3.747171,0.1616966,0.6818674,-0.7495174,-54.98278,-62.64448,21.2384
29.166365147,24.08077,-10.75813,-0.4827355,0.06561892,0.7832193,-0.7458551,-54.98278,-62.64448,21.2384
29.176224709,11.96817,-20.87465,-3.302674,0.1371824,0.7454576,-0.733297,-54.98278,-62.64448,21.2384
29.186084271,-1.883678,-29.14639,-2.689644,0.1705918,0.7077117,-0.7561349,-54.60789,-61.15839,22.50166
29.195943356,-15.36283,-37.35862,-2.873553,0.2071155,0.5628207,-0.6807271,-54.60789,-61.15839,22.50166
29.205802918,-24.9908,-42.35737,-0.6053416,0.3571211,0.4818307,-0.4429905,-54.60789,-61.15839,22.50166
29.215662479,-33.1901,-44.85675,-2.260523,0.4940376,0.4230283,-0.356307,-54.60789,-61.15839,22.50166
29.225522041,-51.57641,-45.39233,-3.302674,0.6020134,0.2814376,-0.3480193,-54.60789,-61.15839,22.50166
29.235381126,-71.4535000000001,-45.45184,-3.180068,0.7192922,0.07616164,-0.2158098,-53.111,-60.42778,23.31857
29.245240688,-81.8268600000002,-46.523,-3.547885,0.838473,-0.2294171,-0.104121,-53.111,-60.42778,23.31857
29.25510025,-78.6589499999998,-48.12974,-4.712642,0.9688545,-0.4121175,-0.2110283,-53.111,-60.42778,23.31857
29.264959812,-55.0549,-45.68987,-4.406127,1.114216,-0.5173786,-0.3352258,-53.111,-60.42778,23.31857
29.274818897,-32.87952,-49.37943,-5.69349,1.064218,-0.393622,-0.305196,-53.111,-60.42778,23.31857
29.287143707,-6.60448799999999,-50.80764,-7.59388300000003,0.8219048,0.02515093,-0.3058754,-53.46867,-63.36864,23.35067
29.297002792,-11.38741,-54.31867,-7.83909500000001,0.7748261,0.2921148,-0.1151053,-53.46867,-63.36864,23.35067
29.306862354,-3.37446,-56.04443,-7.10345900000001,0.7851238,0.4406338,0.01730201,-53.46867,-63.36864,23.35067
29.316721916,-0.1444329,-58.7818399999998,-10.41382,0.8329585,0.5464852,0.1023319,-53.46867,-63.36864,23.35067
29.326581478,0.4146104,-60.5671099999998,-7.04215600000001,0.964511,0.6640553,0.1302011,-53.46867,-63.36864,23.35067
29.336440563,2.153856,-60.3290700000003,-10.16861,1.02382,0.5855505,-0.181828,-52.70075,-64.82581,25.09026
29.346299648,11.09855,-61.8168,-18.1993,1.112592,0.3257919,-0.1071759,-52.70075,-64.82581,25.09026
29.356159687,29.42274,-64.8517499999999,-20.161,1.153167,0.2134679,0.07866488,-52.70075,-64.82581,25.09026
29.366019249,41.10054,-62.7094300000001,-19.05754,1.205285,0.230227,-0.2463545,-52.70075,-64.82581,25.09026
29.375878334,45.88346,-68.8388500000001,-16.97324,1.237129,0.1666995,-0.2631581,-52.70075,-64.82581,25.09026
29.385737419,43.89575,-73.0044699999997,-18.62842,1.263626,0.08102864,-0.3327843,-52.29185,-66.25015,28.88023
29.395597458,53.33737,-73.3615300000003,-18.2606,1.093021,0.1458453,-0.5526335,-52.29185,-66.25015,28.88023
29.40545702,54.82815,-80.8001500000002,-21.26445,1.009598,0.3643527,-0.09196494,-52.29185,-66.25015,28.88023
29.415316105,32.65277,-85.6203700000002,-24.3909,1.060658,0.7288029,0.1701092,-52.29185,-66.25015,28.88023
29.42517519,25.57156,-69.1363899999999,-22.12269,1.087121,0.9289607,-0.3681574,-52.29185,-66.25015,28.88023
29.435035229,16.31628,-76.0394299999999,-27.39475,1.131162,0.6112709,-0.3240254,-49.99864,-67.66578,34.83701
29.444894791,17.9313,-78.4197800000001,-25.92348,1.127112,0.2933315,-0.3625909,-49.99864,-67.66578,34.83701
29.457218647,23.27327,-83.7755900000002,-19.11885,0.9046931,0.3027184,-0.4484727,-49.99864,-67.66578,34.83701
29.467078686,9.17295499999997,-84.6087200000002,-16.97324,0.8223988,0.4940499,-0.3594292,-49.99864,-67.66578,34.83701
29.476937771,-5.300054,-81.27621,-11.70118,0.8301381,0.6247514,-0.4303164,-49.99864,-67.66578,34.83701
29.486796856,-12.00857,-75.8609000000002,-11.21076,0.8308811,0.5096893,-0.6205819,-46.66254,-68.38051,39.11641
29.496656895,-7.47411100000001,-71.4572399999998,-10.72034,0.8368834,0.3360226,-0.6202162,-46.66254,-68.38051,39.11641
29.50651598,3.644638,-65.5063500000002,-11.33337,0.8067102,0.2412179,-0.656047,-46.66254,-68.38051,39.11641
29.516375542,12.0924,-62.5904099999998,-12.25291,0.7653574,0.236791,-0.5711559,-46.66254,-68.38051,39.11641
29.526234627,11.03643,-59.0793800000001,-11.14946,0.7657608,0.3522102,-0.5476652,-46.66254,-68.38051,39.11641
29.536094666,4.079449,-54.79474,-10.65903,0.7849035,0.3997031,-0.6448147,-42.90408,-68.38269,42.04173
29.545953751,2.029624,-50.45059,-10.046,0.8075943,0.3242809,-0.6975282,-42.90408,-68.38269,42.04173
29.555813312,8.05486800000002,-46.523,-11.51728,0.8603832,0.2227495,-0.6469046,-42.90408,-68.38269,42.04173
29.565672398,16.62686,-43.42854,-12.86594,0.8720784,0.2028233,-0.6678451,-42.90408,-68.38269,42.04173
29.575532436,25.94425,-40.21505,-14.52112,0.8623928,0.1577126,-0.7361341,-42.90408,-68.38269,42.04173
29.585391521,36.62819,-37.12059,-17.52497,0.8743879,0.1126192,-0.7213512,-40.63727,-69.47739,44.602
29.595251083,47.80906,-35.09728,-21.20315,0.8558334,0.1455287,-0.725601,-40.63727,-69.47739,44.602
29.605110168,56.38105,-33.25251,-24.75872,0.895814,0.1284051,-0.7148145,-40.63727,-69.47739,44.602
29.614970207,62.9653400000002,-32.06233,-28.31429,0.9288699,0.1072934,-0.7130678,-40.63727,-69.47739,44.602
29.624829292,71.5994499999998,-31.11018,-31.50205,0.9406998,0.1507399,-0.7042442,-40.63727,-69.47739,44.602
29.637154102,79.2397100000002,-31.40773,-35.24154,0.9298391,0.2305504,-0.6770599,-39.11797,-69.44744,47.98701
29.647013187,81.2274199999999,-32.77644,-37.50975,0.9236046,0.3268456,-0.5472537,-39.11797,-69.44744,47.98701
29.656872749,76.1339100000002,-37.1801,-39.41014,0.8859774,0.5166615,-0.4487964,-39.11797,-69.44744,47.98701
29.666731834,65.8847899999997,-43.48804,-41.18792,0.9664355,0.649695,-0.4588836,-39.11797,-69.44744,47.98701
29.676591873,61.3503200000001,-42.11934,-38.79711,1.087768,0.5886334,-0.5483425,-39.11797,-69.44744,47.98701
29.686450958,62.0957100000001,-48.66532,-35.30284,1.188197,0.5077286,-0.4301776,-36.47032,-67.92844,53.46359
29.69631052,65.0772800000003,-53.36653,-30.03078,1.261214,0.5432098,-0.3542469,-36.47032,-67.92844,53.46359
29.706169605,61.9093699999999,-58.0677300000002,-30.58251,1.328483,0.6388915,-0.4315493,-36.47032,-67.92844,53.46359
29.716029644,54.76604,-65.9824200000002,-32.05378,1.450945,0.5989279,-0.3478553,-36.47032,-67.92844,53.46359
29.725888729,47.25001,-69.2554100000002,-38.42929,1.492658,0.3788429,-0.3527032,-36.47032,-67.92844,53.46359
29.735748291,54.82815,-74.3731800000002,-44.55959,1.524097,0.1637668,-0.4249295,-32.34098,-65.70823,57.64463
29.745607376,65.1393999999998,-74.7302299999999,-50.38337,1.460696,0.1346712,-0.5076521,-32.34098,-65.70823,57.64463
29.755467415,76.3823800000002,-75.2658200000001,-56.39107,1.361763,0.1243512,-0.5604787,-32.34098,-65.70823,57.64463
29.7653265,88.7434499999999,-70.20756,-62.2148499999998,1.240663,0.1518742,-0.5911061,-32.34098,-65.70823,57.64463
29.775186062,93.3400200000001,-67.6486699999999,-65.9543400000002,1.118344,0.1358677,-0.6776705,-32.34098,-65.70823,57.64463
29.785045147,95.4519699999999,-65.5063500000002,-65.2187000000002,0.9874269,0.1607181,-0.7489123,-27.4625,-63.12138,62.33015
29.794905186,96.4458200000001,-63.5425499999998,-63.4409199999999,0.9101056,0.2329888,-0.7587012,-27.4625,-63.12138,62.33015
29.807229042,98.5577499999999,-50.45059,-60.8661900000001,0.8866794,0.3420765,-0.5509117,-27.4625,-63.12138,62.33015
29.817089081,87.2526600000002,-44.91626,-58.78189,0.7373984,0.3749914,-0.6342831,-27.4625,-63.12138,62.33015
29.826948166,68.2451900000001,-50.33157,-60.3144600000001,0.6194723,0.3362095,-0.7057679,-27.4625,-63.12138,62.33015
29.836807251,56.00835,-52.77143,-56.45237,0.5322206,0.3344943,-0.8272139,-21.16714,-58.34932,66.47353
29.846666813,46.87732,-52.5334,-52.65158,0.5743709,0.3164724,-0.8016107,-21.16714,-58.34932,66.47353
29.856526852,40.78996,-45.15429,-50.01556,0.6765531,0.2861672,-0.6897525,-21.16714,-58.34932,66.47353
29.866385937,40.41726,-35.15679,-49.15731,0.6888978,0.2194737,-0.5965682,-21.16714,-58.34932,66.47353
29.876245022,43.08825,-25.81389,-50.13816,0.5983688,0.1950938,-0.6553837,-21.16714,-58.34932,66.47353
29.886104584,50.66639,-20.04152,-52.83549,0.4869198,0.1964667,-0.9341154,-16.33037,-52.12286,68.11269
29.895964622,60.1080100000002,-12.18634,-50.8125,0.6244459,0.1282089,-0.7751613,-16.33037,-52.12286,68.11269
29.905823708,68.8663500000002,-1.474735,-48.60559,0.702368,0.06964464,-0.745139,-16.33037,-52.12286,68.11269
29.915682793,79.0533599999997,4.535667,-48.05386,0.7040161,-0.0219423,-0.7766041,-16.33037,-52.12286,68.11269
29.925542831,88.4949799999999,12.0933,-44.6822,0.7242712,-0.06719588,-0.6943732,-16.33037,-52.12286,68.11269
29.935402393,97.5017899999999,21.4362,-42.16877,0.7254922,-0.03977735,-0.6524689,-12.23511,-48.17049,68.88277
29.945261478,104.2724,34.23063,-38.91972,0.7239173,0.01814286,-0.6452488,-12.23511,-48.17049,68.88277
29.955120563,105.5147,48.27473,-36.5902,0.7052001,0.0648115,-0.6134403,-12.23511,-48.17049,68.88277
29.964980602,101.8499,62.55688,-34.19938,0.6772393,0.09188324,-0.5950829,-12.23511,-48.17049,68.88277
29.974840164,94.8308000000001,77.25558,-33.15723,0.6551531,0.1053379,-0.588425,-12.23511,-48.17049,68.88277
29.987164021,85.6376499999999,96.3579600000003,-31.25684,0.639019,0.1091033,-0.5843297,-12.24402,-43.72332,70.94998
29.997023582,77.6868100000002,110.9972,-29.84687,0.6256312,0.1095585,-0.5611334,-12.24402,-43.72332,70.94998
30.006883144,68.9905899999997,124.4462,-29.23384,0.6218162,0.11834,-0.5461498,-12.24402,-43.72332,70.94998
30.016742229,60.23224,138.5498,-29.41775,0.6210824,0.1498655,-0.5722292,-12.24402,-43.72332,70.94998
30.026601791,55.26297,150.2731,-30.15339,0.6140278,0.158399,-0.6156638,-12.24402,-43.72332,70.94998
30.036461353,44.95172,159.0209,-30.15339,0.5783782,0.1848174,-0.6235584,-16.03469,-35.59873,69.60606
30.046320915,32.40431,165.9239,-29.96948,0.5786328,0.1853783,-0.6043893,-16.03469,-35.59873,69.60606
30.05618,21.72037,172.7079,-29.41775,0.5829193,0.1604846,-0.63485,-16.03469,-35.59873,69.60606
30.066040039,14.51492,179.7895,-27.21084,0.5930113,0.1453889,-0.6614772,-16.03469,-35.59873,69.60606
30.075899124,10.9122,185.2048,-25.18784,0.5839282,0.1325378,-0.6930833,-16.03469,-35.59873,69.60606
30.085758686,9.17295499999997,188.4183,-23.16484,0.5588974,0.109482,-0.6833373,-24.68416,-30.76699,65.76065
30.095617771,9.60776600000003,190.144,-20.09969,0.5273967,0.1161201,-0.6555179,-24.68416,-30.76699,65.76065
30.10547781,10.53951,189.0729,-17.83148,0.5119292,0.1769278,-0.6241154,-24.68416,-30.76699,65.76065
30.115336895,8.80025999999999,187.4066,-16.29891,0.5158933,0.2287289,-0.5748565,-24.68416,-30.76699,65.76065
30.125196457,4.949072,185.9784,-14.58243,0.5149437,0.2527867,-0.5156983,-24.68416,-30.76699,65.76065
30.135055542,-1.759447,182.2293,-12.62073,0.5109777,0.2787483,-0.460794,-34.40083,-30.03145,57.73727
30.144915581,-7.22564700000002,178.3018,-11.82379,0.5177609,0.25842,-0.4476446,-34.40083,-30.03145,57.73727
30.157239437,-8.28161699999999,175.5643,-8.02300500000002,0.5147925,0.2239907,-0.4085985,-34.40083,-30.03145,57.73727
30.167099476,-9.58605199999997,173.303,-6.429126,0.5060212,0.2113637,-0.3812657,-34.40083,-30.03145,57.73727
30.176958561,-8.90277699999999,171.2202,-4.590036,0.4897769,0.2074213,-0.3561491,-34.40083,-30.03145,57.73727
30.186818123,-9.33758799999999,169.792,-3.363976,0.5153166,0.1964464,-0.3585225,-43.81525,-29.31733,48.432
30.196677208,-8.59219699999999,169.0779,-4.038309,0.557173,0.2018582,-0.4414957,-43.81525,-29.31733,48.432
30.206537247,-3.747156,167.2926,-3.8544,0.5779909,0.181477,-0.4755084,-43.81525,-29.31733,48.432
30.216396332,-1.386751,163.5435,-3.363976,0.5755503,0.2195386,-0.4416084,-43.81525,-29.31733,48.432
30.226255894,-2.939649,157.1761,-4.344824,0.5492079,0.2904716,-0.4094864,-43.81525,-29.31733,48.432
30.236114979,-7.59834299999997,150.5706,-5.019157,0.5500244,0.3172866,-0.3977709,-50.92697,-29.3777,38.29018
30.245975018,-14.12051,144.2031,-4.712642,0.5884845,0.3211286,-0.3724099,-50.92697,-29.3777,38.29018
30.255834103,-19.89729,139.0854,-4.773945,0.6247008,0.3118246,-0.3437734,-50.92697,-29.3777,38.29018
30.265693665,-22.87886,135.8124,-4.651339,0.6468229,0.2750804,-0.3324188,-50.92697,-29.3777,38.29018
30.275553227,-21.76077,134.3247,-3.915704,0.6846082,0.2511714,-0.3091992,-50.92697,-29.3777,38.29018
30.285412788,-19.02767,133.075,-2.321826,0.7332501,0.2483785,-0.2605585,-55.85058,-30.93584,28.15218
30.295271874,-18.40651,130.2185,-2.62834,0.7692183,0.2907557,-0.2046471,-55.85058,-30.93584,28.15218
30.305131435,-20.95326,127.1836,-4.651339,0.8185743,0.3326777,-0.171932,-55.85058,-30.93584,28.15218
30.314990997,-26.29523,125.1603,-6.55173199999999,0.8621666,0.3623725,-0.1421131,-55.85058,-30.93584,28.15218
30.324850559,-33.00375,124.2081,-8.45212599999999,0.9256989,0.3523121,-0.120102,-55.85058,-30.93584,28.15218
30.337174416,-38.03514,122.2443,-10.84294,0.9781005,0.3255869,-0.1038232,-57.78962,-31.05057,18.36773
30.347034454,-37.97302,119.864,-12.62073,1.028594,0.3139933,-0.07061753,-57.78962,-31.05057,18.36773
30.35689354,-30.39488,121.9468,-13.66288,1.05437,0.3587959,0.1368866,-57.78962,-31.05057,18.36773
30.366752625,-27.16486,118.4358,-22.91963,0.9525008,0.4646779,-0.06490692,-57.78962,-31.05057,18.36773
30.376612663,-21.57442,91.7757599999999,-28.55951,0.9502162,0.5232148,-0.5397462,-57.78962,-31.05057,18.36773
30.386472225,-23.25155,84.5751899999998,-30.15339,0.8721907,0.5778436,-0.5808218,-58.99078,-29.33231,8.624567
30.39633131,-30.0843,76.24393,-35.85456,0.9435135,0.5738886,-0.3767744,-58.99078,-29.33231,8.624567
30.406190395,-23.00309,76.6009899999999,-41.24923,1.146943,0.5048994,-0.04960838,-58.99078,-29.33231,8.624567
30.416050434,-19.77306,90.4070599999997,-43.82396,1.319658,0.3548919,0.2859372,-58.99078,-29.33231,8.624567
30.425909996,-11.01472,104.2131,-52.46768,1.31078,0.148701,0.6015537,-58.99078,-29.33231,8.624567
30.435769081,-1.510983,114.5082,-45.05001,1.331259,-0.2583475,0.4895275,-57.53736,-31.29009,1.466147
30.445628166,26.1306,118.3167,-36.34499,1.162271,-0.1978693,0.2768067,-57.53736,-31.29009,1.466147
30.455488205,46.38039,112.3659,-38.18408,1.087082,-0.0953659,0.01949643,-57.53736,-31.29009,1.466147
30.465347767,59.3626099999999,108.6168,-30.95033,1.146857,-0.07812811,-0.06650753,-57.53736,-31.29009,1.466147
30.475206852,72.4069599999998,99.988,-20.89663,1.090447,0.103739,-0.09675426,-57.53736,-31.29009,1.466147
30.485066891,57.9339500000001,87.8481799999999,-22.42921,1.077747,0.227018,-0.02269455,-54.96247,-32.88823,-5.38177
30.494925976,35.63433,74.5181699999998,-18.81233,1.038662,0.2154563,-0.02894385,-54.96247,-32.88823,-5.38177
30.507249832,-1.510983,52.49987,-8.45212599999999,0.9650804,0.1473732,-0.1032248,-54.96247,-32.88823,-5.38177
30.517109871,-30.457,31.90978,-7.40997399999998,0.9382296,0.04888174,-0.2215564,-54.96247,-32.88823,-5.38177
30.526968956,-46.42079,10.60558,-5.203066,0.9136233,0.04466497,-0.3793771,-52.00903,-31.87712,-9.633445
30.536828518,-51.32795,-9.15138699999998,-4.835248,0.8826689,0.07310624,-0.5076005,-52.00903,-31.87712,-9.633445
30.546688557,-51.82487,-27.59916,-4.651339,0.8448666,0.07010546,-0.699246,-52.00903,-31.87712,-9.633445
30.556547642,-46.04809,-35.51385,-4.712642,1.169549,0.416271,-0.1201624,-52.00903,-31.87712,-9.633445
30.566406727,-21.01538,-64.0781299999998,-24.88133,0.5763466,0.5786809,-1.215371,-52.00903,-31.87712,-9.633445
30.576266289,-51.26583,-89.7264900000002,-12.069,0.9892067,0.3739493,0.1791544,-49.03564,-31.19941,-11.38481
30.586126327,-65.4903700000001,-60.3885800000002,3.440656,1.878231,-0.66833,1.205696,-49.03564,-31.19941,-11.38481
30.595985413,-53.56412,-88.2982699999998,-5.203066,1.200624,-0.5800272,-0.1170335,-49.03564,-31.19941,-11.38481
30.605844498,6.06715799999999,-100.4976,-6.06130799999997,1.201147,-0.3903108,0.1241599,-49.03564,-31.19941,-11.38481
30.61570406,26.75176,-97.1650999999999,8.467502,1.410072,0.1189093,-0.1797704,-49.03564,-31.19941,-11.38481
30.625564098,37.80839,-108.4123,-16.23761,1.219853,-0.06350346,-0.6204206,-49.03564,-31.19941,-11.38481
30.635423183,61.9093699999999,-129.4785,-12.25291,1.22721,0.07983541,-0.5646871,-47.90281,-30.44577,-9.221679
30.645282268,63.2137999999999,-130.3116,-20.03839,1.255088,0.4408802,-0.2476826,-47.90281,-30.44577,-9.221679
30.655142307,58.4308799999998,-132.3944,-28.49821,0.9999128,0.6320907,-0.1719897,-47.90281,-30.44577,-9.221679
30.665001869,46.4425,-125.7294,-26.90433,0.7477077,0.6961804,-0.1338311,-47.90281,-30.44577,-9.221679
30.674860954,24.5777,-116.565,-25.92348,0.7054037,0.4768502,-0.1283704,-47.90281,-30.44577,-9.221679
30.687185287,19.79478,-105.3178,-25.24915,0.8710202,0.1796495,-0.2276413,-47.55582,-29.63645,-3.725642
30.697044849,40.66573,-99.7834900000002,-24.57481,0.9603725,0.2103414,-0.4289611,-47.55582,-29.63645,-3.725642
30.706903934,62.9653400000002,-95.8558999999999,-21.81618,1.069208,0.2572334,-0.1200745,-47.55582,-29.63645,-3.725642
30.716763496,62.53053,-89.8455000000003,-19.24145,1.038318,0.3297384,0.0822414,-47.55582,-29.63645,-3.725642
30.726623058,62.3441800000001,-84.2516600000002,-21.01924,0.9038274,0.2713824,-0.1089724,-47.14327,-29.93764,1.397301
30.73648262,56.94009,-91.5712599999999,-24.08439,0.971429,0.2091912,-0.3725829,-47.14327,-29.93764,1.397301
30.746341705,51.28754,-87.5841600000002,-15.44067,1.078403,0.2093061,-0.2054283,-47.14327,-29.93764,1.397301
30.756201744,44.4548,-77.8842099999998,-15.44067,1.079195,0.3751233,-0.1091588,-47.14327,-29.93764,1.397301
30.766060829,47.06366,-75.2658200000001,-21.01924,0.9511265,0.471339,-0.2315925,-47.14327,-29.93764,1.397301
30.775920391,33.39816,-73.9566200000001,-26.65911,0.9403108,0.5003344,-0.3893295,-45.60673,-31.36246,6.077665
30.785779476,22.46576,-72.2903699999998,-25.43305,0.9483624,0.3868461,-0.4368844,-45.60673,-31.36246,6.077665
30.795639515,17.9313,-71.2787199999999,-20.40621,0.9393731,0.3105523,-0.5174264,-45.60673,-31.36246,6.077665
30.8054986,35.57222,-64.1971500000001,-20.59012,0.9819853,0.2247158,-0.4099799,-45.60673,-31.36246,6.077665
30.815358162,56.50528,-58.7223299999999,-20.161,0.8970849,0.3179816,-0.3830644,-45.60673,-31.36246,6.077665
30.825218201,51.59813,-53.00947,-15.99239,0.8626543,0.5095283,-0.479193,-44.84212,-30.59381,9.010897
30.835077286,32.09373,-49.14139,-14.76633,0.965264,0.5100509,-0.4523782,-44.84212,-30.59381,9.010897
30.844936371,14.018,-46.70153,-5.632187,1.058676,0.3530917,-0.4852238,-44.84212,-30.59381,9.010897
30.854795933,11.34701,-30.87215,-8.14561100000001,1.121022,0.3956921,-0.4320825,-44.84212,-30.59381,9.010897
30.867120266,21.53402,-25.27831,-8.94255000000001,1.1048,0.2948693,-0.4188054,-44.84212,-30.59381,9.010897
30.876979828,24.32924,-19.2084,-10.47512,1.07039,0.3097887,-0.38177,-43.33002,-30.94982,11.1194
30.886838913,15.63301,-19.2084,-13.72418,1.077395,0.4236507,-0.2702138,-43.33002,-30.94982,11.1194
30.896698952,9.11083900000002,-11.35322,-12.92724,1.163291,0.57823,-0.2571951,-43.33002,-30.94982,11.1194
30.906558037,0.3524944,-0.4035742,-9.86209499999999,1.276139,0.677185,-0.2181948,-43.33002,-30.94982,11.1194
30.916417599,-17.16419,4.059596,-7.226065,1.396121,0.5102513,-0.248628,-43.33002,-30.94982,11.1194
30.926277161,-10.64202,20.18652,4.421504,1.244792,0.4527481,-0.5617905,-41.82912,-30.9555,11.94385
30.936136723,-17.72324,16.79451,5.89277599999998,1.255867,0.3313865,-0.2510137,-41.82912,-30.9555,11.94385
30.945995808,-2.939649,32.32634,12.75871,1.227582,0.5036696,-0.3080981,-41.82912,-30.9555,11.94385
30.95585537,-0.0823169599999999,33.45701,12.88132,1.288325,0.4477014,-0.06456532,-41.82912,-30.9555,11.94385
30.965714931,9.17295499999997,41.60973,14.90432,1.283824,0.3969416,-0.2240238,-41.82912,-30.9555,11.94385
30.975574493,12.65145,41.3717,14.22998,1.301167,0.2510111,-0.121037,-41.82912,-30.9555,11.94385
30.985433578,22.34153,44.52567,15.82386,1.293198,0.2105662,0.01243186,-41.82912,-30.9555,11.94385
30.995293617,29.91967,47.08456,16.37559,1.248112,0.1676689,-0.03089473,-41.82912,-30.9555,11.94385
31.005152702,36.62819,47.50112,16.5595,1.166752,0.1396998,-0.03045038,-41.82912,-30.9555,11.94385
31.015012264,43.64729,50.00049,15.51735,1.051171,0.1479159,-0.03208813,-41.82912,-30.9555,11.94385
31.024871349,47.9954,49.28638,15.45604,0.9202374,0.149462,-0.08915048,-42.2136,-30.59997,10.72575
31.037196159,52.96468,51.3692,15.33344,0.7620422,0.1828912,-0.1441176,-42.2136,-30.59997,10.72575
31.047055244,57.8097200000002,51.84527,15.14953,0.6127397,0.2231232,-0.2226349,-42.2136,-30.59997,10.72575
31.056915283,59.6731899999997,52.26183,15.21083,0.4841604,0.3015342,-0.2905829,-42.2136,-30.59997,10.72575
31.066774368,55.82201,49.58393,15.14953,0.378574,0.3758903,-0.3263072,-42.2136,-30.59997,10.72575
31.07663393,47.68482,46.19192,15.39474,0.2861004,0.4443424,-0.4101883,-41.84589,-29.49984,10.7125
31.086493015,38.74013,39.11036,14.72041,0.2147511,0.4710186,-0.5244333,-41.84589,-29.49984,10.7125
31.096353054,28.73947,30.24353,14.78171,0.1615678,0.4711567,-0.6214308,-41.84589,-29.49984,10.7125
31.106212139,18.05553,19.53192,14.72041,0.1011051,0.5049342,-0.6844968,-41.84589,-29.49984,10.7125
31.116071701,9.35930300000001,10.12951,8.89662299999997,0.08635256,0.5340759,-0.6643934,-41.84589,-29.49984,10.7125
31.125930786,0.973653600000002,0.727095499999998,4.973231,0.1631078,0.4936488,-0.5963446,-42.22853,-28.45868,10.25566
31.135790825,-11.26318,-8.73482500000002,1.846778,0.3043603,0.4387723,-0.5111274,-42.22853,-28.45868,10.25566
31.14564991,-22.56828,-16.76853,-2.812249,0.4408554,0.3127448,-0.4427357,-42.22853,-28.45868,10.25566
31.155509472,-20.51845,-21.70777,-5.448278,0.5922026,0.14651,-0.3609982,-42.22853,-28.45868,10.25566
31.165369034,-12.5055,-25.69487,-8.32951900000003,0.7432278,-0.02616354,-0.3085416,-42.22853,-28.45868,10.25566
31.175228596,-2.815417,-31.11018,-8.88124700000001,0.8178937,-0.1126742,-0.3266286,-41.8576,-27.35231,10.69051
31.185087681,1.656929,-35.75188,-9.18776100000002,0.8310077,-0.07729657,-0.266617,-41.8576,-27.35231,10.69051
31.194946766,7.24736100000001,-42.11934,-11.14946,0.7933048,0.03584619,-0.2411648,-41.8576,-27.35231,10.69051
31.207271576,4.82484,-49.55795,-12.19161,0.7769042,0.1659863,-0.1454305,-41.8576,-27.35231,10.69051
31.217130661,-1.821563,-56.28246,-11.39467,0.7955365,0.3541306,0.02313236,-41.8576,-27.35231,10.69051
31.2269907,-6.231793,-60.9241600000001,-13.60158,0.8291681,0.5398683,0.03380453,-42.2226,-27.33107,11.9087
31.236850262,-6.666604,-62.29287,-16.23761,0.8766469,0.5501437,-0.06310453,-42.2226,-27.33107,11.9087
31.246709347,-0.2686647,-64.1376400000002,-17.77018,0.9001952,0.5244948,-0.08090779,-42.2226,-27.33107,11.9087
31.256568432,4.762724,-64.7327300000001,-19.11885,0.8526303,0.5441421,-0.1792583,-42.2226,-27.33107,11.9087
31.266428471,2.40232,-65.4468400000003,-19.60927,0.8048174,0.5335838,-0.2864859,-42.2226,-27.33107,11.9087
31.276288033,-6.35602500000002,-64.6732299999999,-21.44836,0.7742019,0.5090928,-0.2570251,-41.08174,-28.73209,13.58172
31.286147118,-3.063881,-62.1738500000002,-22.00009,0.8451233,0.3767548,-0.1594792,-41.08174,-28.73209,13.58172
31.296007156,-6.85295199999998,-61.45974,-20.34491,0.9318913,0.2414933,-0.2299037,-41.08174,-28.73209,13.58172
31.305866242,-5.73486500000002,-60.3885800000002,-15.62458,1.012078,0.1951876,-0.3100261,-41.08174,-28.73209,13.58172
31.315725803,-10.08298,-58.1272400000001,-14.0307,1.025209,0.2046416,-0.4150781,-41.08174,-28.73209,13.58172
31.325584889,-16.85361,-58.18675,-14.1533,0.9843263,0.2499602,-0.4313642,-40.69358,-29.08049,15.31193
31.335444927,-10.82837,-55.03278,-15.37936,0.9944327,0.2515208,-0.2987568,-40.69358,-29.08049,15.31193
31.345304012,-9.33758799999999,-53.36653,-13.84679,0.9255103,0.3347124,-0.4005795,-40.69358,-29.08049,15.31193
31.355163097,-11.38741,-56.5205,-11.76249,0.8241374,0.411412,-0.3405043,-40.69358,-29.08049,15.31193
31.365023136,-14.36898,-57.1751,-9.49427599999999,0.8064907,0.4906089,-0.2015749,-40.69358,-29.08049,15.31193
31.374882698,-10.9526,-53.60456,-10.16861,0.7687948,0.6338885,-0.1849733,-39.93291,-29.8076,16.59589
31.387206555,-25.11503,-49.2009,-11.76249,0.8494758,0.5728065,-0.3136265,-39.93291,-29.8076,16.59589
31.397066593,-27.10274,-47.8322,-14.33721,1.039988,0.3184226,-0.343407,-39.93291,-29.8076,16.59589
31.406925678,-3.809272,-44.67822,-17.21845,1.170493,0.1123751,-0.318254,-39.93291,-29.8076,16.59589
31.416784763,9.11083900000002,-44.14264,-19.73188,1.142862,0.1357176,-0.3866679,-39.93291,-29.8076,16.59589
31.426644802,9.66988199999998,-47.77269,-16.85064,1.096791,0.2143782,-0.3235307,-39.54918,-30.53663,17.43368
31.436504364,1.594813,-48.60581,-16.29891,1.019398,0.1991008,-0.4514612,-39.54918,-30.53663,17.43368
31.446363449,-5.85909699999999,-51.28371,-13.84679,0.9641063,0.2386419,-0.4172747,-39.54918,-30.53663,17.43368
31.456222534,-10.82837,-51.22421,-12.55943,0.931079,0.3153672,-0.5115172,-39.54918,-30.53663,17.43368
31.466082573,-8.46796500000002,-50.03403,-12.069,0.9102222,0.2526036,-0.5893799,-39.54918,-30.53663,17.43368
31.475942135,9.35930300000001,-46.22545,-12.49812,0.937855,0.1175927,-0.583246,-38.78574,-31.2584,19.10171
31.48580122,27.80773,-47.65367,-15.93109,0.9195547,0.1806792,-0.3270394,-38.78574,-31.2584,19.10171
31.495661259,32.59066,-46.93956,-13.84679,0.937074,0.6606311,-0.1986468,-38.78574,-31.2584,19.10171
31.505520344,16.3784,-48.01072,-18.56712,0.9322911,0.7462239,-0.3305945,-38.78574,-31.2584,19.10171
31.515379429,3.45829,-48.48679,-18.44451,0.9884831,0.5303366,-0.4180357,-38.78574,-31.2584,19.10171
31.525238991,5.94292600000003,-49.79599,-19.67057,0.9997783,0.2482234,-0.4119519,-37.65536,-31.25353,20.37619
31.53509903,13.21049,-51.64077,-16.48282,0.9737519,0.3160469,-0.4311349,-37.65536,-31.25353,20.37619
31.544958115,11.84394,-55.33032,-14.70503,1.033979,0.3838361,-0.4036276,-37.65536,-31.25353,20.37619
31.5548172,4.700608,-58.0082200000003,-15.50197,1.035131,0.3433715,-0.4265079,-37.65536,-31.25353,20.37619
31.56714201,6.874665,-63.3640299999999,-15.74718,1.009325,0.2389661,-0.4375637,-37.65536,-31.25353,20.37619
31.577001095,13.14837,-66.5180000000001,-16.48282,1.043668,0.2318394,-0.4726156,-36.88669,-32.3372,22.4961
31.586860657,22.15518,-70.5646100000002,-18.38321,1.091989,0.2279785,-0.4484185,-36.88669,-32.3372,22.4961
31.596720695,30.72718,-73.3615300000003,-20.40621,1.129508,0.2808629,-0.4489861,-36.88669,-32.3372,22.4961
31.60657978,38.11897,-78.30077,-23.59397,1.15327,0.3070272,-0.4054968,-36.88669,-32.3372,22.4961
31.616438866,41.349,-83.5375500000001,-27.45605,1.209768,0.4292979,-0.2447384,-36.88669,-32.3372,22.4961
31.626298904,40.78996,-88.8933600000002,-30.5212,1.260586,0.5517361,-0.2851613,-35.00441,-31.96034,24.65914
31.636158466,40.72784,-91.9283100000001,-36.28368,1.261912,0.5260507,-0.3898625,-35.00441,-31.96034,24.65914
31.646017551,50.85273,-94.5467100000001,-40.45229,1.346686,0.4447365,-0.343837,-35.00441,-31.96034,24.65914
31.655876636,64.82882,-95.9154099999997,-48.36037,1.377596,0.3461958,-0.3522972,-35.00441,-31.96034,24.65914
31.665736675,82.7803100000002,-95.9749200000002,-52.46768,1.423703,0.3239622,-0.2913252,-35.00441,-31.96034,24.65914
31.67559576,96.57005,-95.1417999999999,-57.12671,1.437841,0.3060093,-0.3108462,-31.99341,-31.95389,27.58832
31.685455322,107.9373,-94.3681799999999,-59.8240400000001,1.434094,0.2915106,-0.2754544,-31.99341,-31.95389,27.58832
31.695315361,121.6649,-90.5596099999999,-62.0309399999999,1.449955,0.2755968,-0.2743772,-31.99341,-31.95389,27.58832
31.705174446,136.9454,-86.6320200000001,-65.0348000000001,1.448594,0.3111196,-0.2711828,-31.99341,-31.95389,27.58832
31.715033531,154.7105,-82.2283599999998,-67.4256099999998,1.406977,0.4006573,-0.3024196,-31.99341,-31.95389,27.58832
31.724893093,158.0027,-83.7160799999997,-68.0999499999999,1.395421,0.3778774,-0.3805566,-27.85678,-31.57976,31.40413
31.737217426,161.1085,-89.1313900000001,-63.5635200000002,1.279472,0.3869949,-0.659638,-27.85678,-31.57976,31.40413
31.747076988,163.0341,-89.5479599999999,-57.6784299999998,1.465469,0.5190583,-0.7881622,-27.85678,-31.57976,31.40413
31.756937027,145.8901,-87.8221999999998,-59.5788200000001,1.401693,0.7064107,-0.6361619,-27.85678,-31.57976,31.40413
31.766796112,121.7891,-89.48845,-71.5329100000002,1.430492,0.6214789,-0.6439979,-27.85678,-31.57976,31.40413
31.776655197,102.2847,-78.5983099999998,-66.5673700000001,1.230335,0.2277128,-0.4566221,-23.05474,-27.59343,35.17932
31.786514759,88.1222800000001,-63.30452,-55.10371,0.7461953,0.2346452,-0.5790473,-23.05474,-27.59343,35.17932
31.796374798,71.6615699999998,-59.4364400000001,-49.03471,0.5884179,0.4266796,-0.6432242,-23.05474,-27.59343,35.17932
31.806233883,44.01999,-46.70153,-38.6745,0.7282153,0.4381399,-0.6422448,-23.05474,-27.59343,35.17932
31.816092968,28.42889,-24.26666,-39.22623,0.7621585,0.2916717,-0.721595,-23.05474,-27.59343,35.17932
31.825953007,44.57903,-6.17594099999999,-46.58259,0.630827,0.06171511,-1.26268,-16.34251,-23.23554,36.37958
31.835812092,80.60625,2.15531,-42.23008,0.4483573,-0.0387413,-1.278178,-16.34251,-23.23554,36.37958
31.845671654,81.60011,19.05585,-35.42544,0.5221674,0.0612467,-0.8720253,-16.34251,-23.23554,36.37958
31.855530739,75.2642899999998,37.3846,-39.77796,0.5018196,0.1174025,-0.7720672,-16.34251,-23.23554,36.37958
31.865390778,63.83496,45.4183,-40.20708,0.3682011,0.08137015,-0.5926839,-16.34251,-23.23554,36.37958
31.875249863,52.65409,59.4624099999999,-36.46759,0.5625352,-0.09879471,-0.5639093,-11.5105,-20.73867,34.5997
31.885109425,62.7168700000002,81.0641600000002,-36.83541,0.5623117,-0.2338269,-0.6273417,-11.5105,-20.73867,34.5997
31.894969463,76.8171800000001,97.6076400000001,-35.97717,0.4787185,-0.2412512,-0.5931481,-11.5105,-20.73867,34.5997
31.90729332,86.3209199999998,117.6622,-29.54036,0.4569801,-0.01724144,-0.6268878,-11.5105,-20.73867,34.5997
31.917153358,78.6806599999999,131.9443,-25.61696,0.4905787,0.05646509,-0.6454334,-11.5105,-20.73867,34.5997
31.927012444,65.7605500000002,143.8461,-21.63227,0.5287321,0.007491177,-0.6890392,-8.908455,-18.19185,34.55979
31.936871529,58.1203,153.0105,-16.36021,0.5491577,-0.05556026,-0.681716,-8.908455,-18.19185,34.55979
31.946731091,51.41178,158.9613,-13.17246,0.5741549,-0.1015718,-0.6829398,-8.908455,-18.19185,34.55979
31.956591129,42.46709,163.008,-10.84294,0.5934539,-0.1246396,-0.6513032,-8.908455,-18.19185,34.55979
31.966450214,27.43503,166.3405,-7.04215600000001,0.5666254,-0.09019192,-0.6151693,-8.908455,-18.19185,34.55979
31.976309299,7.74428800000002,168.9588,-5.325672,0.5504699,-0.02811574,-0.633104,-8.181074,-14.519,34.51822
31.986169338,-12.75396,170.3871,-5.203066,0.5394047,-0.06686737,-0.6893397,-8.181074,-14.519,34.51822
31.996028423,-28.40718,170.9227,-2.321826,0.51117,-0.1090667,-0.7161286,-8.181074,-14.519,34.51822
32.005887985,-35.48839,171.8153,2.214596,0.4843291,-0.0835458,-0.7246354,-8.181074,-14.519,34.51822
32.01574707,-38.09726,169.8515,2.70502,0.4594692,-0.01175427,-0.7265504,-8.181074,-14.519,34.51822
32.025607109,-41.45152,165.9834,1.172445,0.4092297,0.03067014,-0.7139755,-10.43671,-12.65861,34.06286
32.035466194,-44.68154,160.6276,-0.727947499999999,0.3469557,0.05462448,-0.6673619,-10.43671,-12.65861,34.06286
32.045325756,-46.17233,156.1644,-2.444432,0.3135643,0.04919361,-0.6094279,-10.43671,-12.65861,34.06286
32.055185795,-45.61328,153.546,-4.344824,0.2913787,0.006879346,-0.5514857,-10.43671,-12.65861,34.06286
32.06504488,-42.75595,152.4749,-5.632187,0.2637168,-0.03892731,-0.503558,-10.43671,-12.65861,34.06286
32.074903965,-37.41398,152.1178,-7.40997399999998,0.246507,-0.06422155,-0.4603983,-13.42855,-12.25593,34.07454
32.087228775,-26.29523,154.5577,-8.636034,0.2501943,-0.08302188,-0.4217943,-13.42855,-12.25593,34.07454
32.09708786,-16.85361,156.6405,-10.10731,0.2519369,-0.05998381,-0.381372,-13.42855,-12.25593,34.07454
32.106947422,-7.97103800000001,159.616,-13.72418,0.274914,-0.06284893,-0.421018,-13.42855,-12.25593,34.07454
32.116807461,3.706754,161.8178,-16.23761,0.3175355,-0.08114206,-0.4687414,-13.42855,-12.25593,34.07454
32.126666546,16.75109,162.5914,-18.44451,0.3590386,-0.08372537,-0.4770219,-16.42156,-13.34366,32.82103
32.136525631,21.16133,158.2472,-16.97324,0.3791719,-0.1229896,-0.6137329,-16.42156,-13.34366,32.82103
32.146385193,25.88214,152.2964,-14.27591,0.5121815,-0.1357135,-0.5577528,-16.42156,-13.34366,32.82103
32.156244755,36.00703,151.5227,-12.49812,0.5734044,-0.08898703,-0.4398688,-16.42156,-13.34366,32.82103
32.166104317,48.43021,150.2135,-13.84679,0.5759187,0.1408212,-0.4120884,-16.42156,-13.34366,32.82103
32.175963402,50.10735,147.2381,-17.64757,0.6259508,0.293358,-0.3401135,-20.53731,-14.0494,31.63356
32.185823441,43.02613,144.5602,-23.22615,0.7226979,0.2938308,-0.3127364,-20.53731,-14.0494,31.63356
32.195682526,31.72103,140.7516,-27.39475,0.7981231,0.1872491,-0.3645476,-20.53731,-14.0494,31.63356
32.205542088,24.20501,136.5265,-27.63996,0.8530185,0.02022017,-0.39645,-20.53731,-14.0494,31.63356
32.215402126,24.51558,135.5743,-25.24915,0.8959236,-0.08497918,-0.392199,-20.53731,-14.0494,31.63356
32.225261211,30.10602,137.2406,-22.42921,0.9168989,-0.1162743,-0.3525092,-24.29104,-13.294,29.91696
32.235120297,37.00089,140.3946,-19.97709,0.9128188,-0.07960429,-0.2965545,-24.29104,-13.294,29.91696
32.244979858,41.10054,143.1915,-17.77018,0.92562,-0.01843985,-0.2368,-24.29104,-13.294,29.91696
32.254839897,39.92033,144.2626,-15.01155,0.9668573,0.04920567,-0.2027937,-24.29104,-13.294,29.91696
32.267163754,31.78315,142.8939,-10.29121,1.00267,0.1348555,-0.1560989,-24.29104,-13.294,29.91696
32.277023792,22.52788,140.8111,-6.36782300000001,1.039657,0.216664,-0.09843175,-27.60348,-14.02157,27.82911
32.286882877,11.96817,136.9431,-4.160915,1.042506,0.3308581,-0.1478246,-27.60348,-14.02157,27.82911
32.296741963,3.334059,127.6597,-1.954008,1.068444,0.4199783,-0.3199539,-27.60348,-14.02157,27.82911
32.306601524,-4.616779,125.5768,2.521111,1.147056,0.4497923,-0.3409491,-27.60348,-14.02157,27.82911
32.316461086,-12.87819,124.3272,4.482807,1.215431,0.4004854,-0.285315,-27.60348,-14.02157,27.82911
32.326320648,-11.51165,121.8278,7.36404799999998,1.290202,0.2998986,-0.1645545,-31.36516,-14.02563,24.45569
32.336179733,-0.2686647,116.472,8.65141099999999,1.307571,0.1917869,-0.09814736,-31.36516,-14.02563,24.45569
32.346039772,16.19205,112.4849,5.463655,1.300184,0.1581553,-0.09545068,-31.36516,-14.02563,24.45569
32.355898857,36.13126,110.1045,6.56710899999998,1.328954,0.1793785,-0.08370165,-31.36516,-14.02563,24.45569
32.365758419,56.1947,112.2468,7.057533,1.35393,0.1791189,-0.08214299,-31.36516,-14.02563,24.45569
32.375617504,78.1216199999999,109.9855,6.01538200000003,1.347742,0.187141,-0.1342198,-35.86752,-14.752,21.47776
32.385477543,98.9304499999998,102.4279,2.888929,1.269721,0.265424,-0.2258911,-35.86752,-14.752,21.47776
32.395336628,111.1673,91.2997000000002,-1.831402,1.174603,0.3299446,-0.1842174,-35.86752,-14.752,21.47776
32.40519619,114.1488,75.5298199999998,-6.18391400000002,1.079564,0.3850759,-0.1809599,-35.86752,-14.752,21.47776
32.415056229,109.925,56.42746,-10.29121,0.9986396,0.4119954,-0.2078522,-35.86752,-14.752,21.47776
32.424915314,93.5884900000001,39.16987,-11.9464,0.9207938,0.4538989,-0.1393011,-38.88973,-14.40813,17.26453
32.437240124,63.83496,13.70004,-9.49427599999999,0.8323006,0.4545411,-0.2779607,-38.88973,-14.40813,17.26453
32.447099209,33.83297,-5.580852,-7.71648900000002,0.7943146,0.3679709,-0.3054642,-38.88973,-14.40813,17.26453
32.456958294,7.620056,-25.04027,-7.65518600000002,0.8809542,0.3172713,-0.2750206,-38.88973,-14.40813,17.26453
32.466817856,15.69513,-21.70777,-13.90809,0.9766987,0.6977343,-0.1303729,-38.88973,-14.40813,17.26453
32.476677418,-4.927359,-73.48055,-15.13415,0.6736106,0.4029907,-0.8027741,-41.51583,-13.6532,16.43834
32.48653698,-71.9504299999998,-117.6957,-9.80079199999999,1.451974,-0.003559213,0.02273781,-41.51583,-13.6532,16.43834
32.496396065,-74.8077599999998,-99.6049700000002,-7.226065,2.017869,-0.2598659,0.5396287,-41.51583,-13.6532,16.43834
32.506256104,-5.548518,-129.4189,-34.38329,1.196486,-0.04517863,-0.7392536,-41.51583,-13.6532,16.43834
32.516115189,23.64596,-130.014,-16.29891,1.080233,0.2796444,-0.009347458,-41.51583,-13.6532,16.43834
32.525974751,16.56475,-126.384,-23.77787,1.130216,0.3713564,-0.06631057,-41.88483,-12.89566,17.64899
32.535834789,26.31695,-125.7889,-32.17638,0.9075156,0.01446281,-0.2439315,-41.88483,-12.89566,17.64899
32.545693874,57.00221,-118.0527,-17.21845,0.8182597,0.01167982,0.1325303,-41.88483,-12.89566,17.64899
32.555552959,68.9905899999997,-107.1626,-16.54412,0.7516658,0.1362762,0.1661581,-41.88483,-12.89566,17.64899
32.565412521,76.69296,-96.6890299999998,-16.29891,0.6889886,0.1814623,0.1659952,-41.88483,-12.89566,17.64899
32.57527256,73.8977399999997,-89.7264900000002,-11.70118,0.6624354,0.3661747,0.1751205,-39.97858,-13.5885,22.31988
32.585131645,63.6486100000001,-86.69153,-16.1763,0.7292371,0.6020095,-0.0284595,-39.97858,-13.5885,22.31988
32.59499073,54.39334,-92.64243,-21.32575,0.7622933,0.9009948,-0.5702988,-39.97858,-13.5885,22.31988
32.604850769,19.29785,-103.6516,-18.99624,0.926782,0.9476503,-0.8444346,-39.97858,-13.5885,22.31988
32.617174625,-39.96073,-113.3515,-17.89279,1.304178,0.2728414,-0.2756771,-39.97858,-13.5885,22.31988
32.627034664,-29.09045,-103.235,-8.636034,1.289095,-0.184746,-0.02630662,-38.82578,-14.28429,26.16245
32.636893749,8.61391200000001,-95.2608199999997,-9.49427599999999,0.9562274,0.1682229,-0.2318273,-38.82578,-14.28429,26.16245
32.646753311,5.632347,-95.3203300000002,-19.79318,0.8386223,0.3338596,-0.4228291,-38.82578,-14.28429,26.16245
32.656612396,9.66988199999998,-86.5129999999997,-24.02309,0.9273958,0.1701468,-0.2994465,-38.82578,-14.28429,26.16245
32.666472435,24.20501,-81.3357199999999,-24.207,0.9940973,0.09209783,-0.2483439,-38.82578,-14.28429,26.16245
32.67633152,29.05005,-79.9075099999998,-36.83541,0.8568721,0.2029999,-0.4553415,-36.93671,-14.63838,28.71712
32.686191082,24.88828,-78.8958599999998,-33.09593,1.020397,0.2725672,-0.4570851,-36.93671,-14.63838,28.71712
32.696051121,28.61523,-61.6382700000003,-33.52505,1.011017,0.3541296,-0.3556312,-36.93671,-14.63838,28.71712
32.705910206,15.81936,-69.37443,-32.66681,0.9246613,0.4117453,-0.3591853,-36.93671,-14.63838,28.71712
32.715769291,12.4651,-56.87755,-25.12654,1.056754,0.4383062,-0.3359254,-36.93671,-14.63838,28.71712
32.725628853,-5.113706,-56.58001,-26.4139,1.005971,0.5220749,-0.3268275,-34.29898,-14.62672,31.71225
32.735488892,-18.40651,-49.31992,-22.12269,1.019129,0.484802,-0.4351495,-34.29898,-14.62672,31.71225
32.745347977,-8.15738599999999,-40.39358,-19.60927,1.049828,0.424418,-0.3896143,-34.29898,-14.62672,31.71225
32.755208015,-1.635215,-28.5513,-19.85448,1.024985,0.3707926,-0.3571272,-34.29898,-14.62672,31.71225
32.7650671,13.2726,-13.55505,-14.52112,0.965732,0.3983279,-0.6598628,-34.29898,-14.62672,31.71225
32.774926662,12.89991,-10.04402,-14.27591,1.012277,0.2796026,-0.5081843,-33.53676,-15.72287,32.93596
32.784785747,16.19205,2.214819,-10.22991,1.04191,0.3604478,-0.5601571,-33.53676,-15.72287,32.93596
32.797110081,14.57704,11.26018,-9.86209499999999,1.100561,0.3698762,-0.5201815,-33.53676,-15.72287,32.93596
32.806969643,15.50878,20.66259,-9.98470000000001,1.147826,0.349655,-0.4443539,-33.53676,-15.72287,32.93596
32.816829681,17.31014,27.32759,-7.226065,1.185025,0.3370259,-0.5259754,-32.03938,-16.10739,32.99601
32.826688766,16.93744,30.42205,-1.770099,1.331125,0.2874154,-0.4752852,-32.03938,-16.10739,32.99601
32.836547852,14.14223,34.29013,4.421504,1.44732,0.3216324,-0.3194751,-32.03938,-16.10739,32.99601
32.846407413,17.5586,41.25268,7.54795700000002,1.38486,0.4754846,-0.2799089,-32.03938,-16.10739,32.99601
32.856267452,20.47805,46.48947,7.97707799999999,1.380783,0.5454901,-0.1585017,-32.03938,-16.10739,32.99601
32.866126537,20.78863,53.3925,6.99623000000001,1.36948,0.4286068,-0.1574102,-32.03938,-16.10739,32.99601
32.875985622,24.39135,56.48697,8.590108,1.331216,0.3313517,-0.1787704,-32.41633,-16.10931,32.54985
32.885845661,28.67735,58.8673200000001,10.85832,1.281874,0.2698217,-0.1201241,-32.41633,-16.10931,32.54985
32.895705223,33.58451,61.6047399999999,12.88132,1.255254,0.2324768,-0.02421999,-32.41633,-16.10931,32.54985
32.905564308,38.05686,66.1274200000001,13.12653,1.194305,0.2178336,-0.02203729,-32.41633,-16.10931,32.54985
32.915423393,43.7094,67.9721899999998,15.14953,1.111754,0.1822019,-0.1155637,-32.41633,-16.10931,32.54985
32.925283432,48.11963,71.60223,15.27213,1.037964,0.0768714,-0.1302562,-34.3074,-15.38707,29.99141
32.935142994,56.5674,74.45866,15.94647,0.9288232,0.01526754,-0.07986298,-34.3074,-15.38707,29.99141
32.945002079,67.8103799999999,75.4108100000003,20.6055,0.8281457,0.07488984,-0.1632224,-34.3074,-15.38707,29.99141
32.954862118,72.4690700000002,77.07706,23.85456,0.7356139,0.2225532,-0.1458022,-34.3074,-15.38707,29.99141
32.967185974,73.1523499999998,79.6954499999997,23.36413,0.6311032,0.3454154,-0.09583506,-36.57298,-13.91798,27.87547
32.977046013,65.8226700000002,77.25558,23.79325,0.5449669,0.4185817,-0.1054907,-36.57298,-13.91798,27.87547
32.986905098,57.4991399999999,72.9709399999999,21.70895,0.4683474,0.3931369,-0.2215381,-36.57298,-13.91798,27.87547
32.996764183,57.9960599999999,65.2942900000001,19.74725,0.342529,0.3363379,-0.2777282,-36.57298,-13.91798,27.87547
33.006623745,54.76604,53.03545,22.07677,0.2197977,0.4094241,-0.352034,-36.57298,-13.91798,27.87547
33.016483784,46.06981,36.61098,19.07292,0.1847297,0.5130957,-0.3928289,-39.59649,-11.71644,24.85965
33.026342869,29.85755,21.13866,17.17253,0.1780967,0.6064306,-0.402489,-39.59649,-11.71644,24.85965
33.036201954,16.44052,5.96388199999997,13.31044,0.1723487,0.6592247,-0.4546735,-39.59649,-11.71644,24.85965
33.046061993,9.23507000000002,-7.42562799999997,8.09968399999998,0.1710957,0.6197265,-0.4736778,-39.59649,-11.71644,24.85965
33.055921555,4.576376,-19.02987,3.134141,0.256863,0.6310532,-0.3808815,-39.59649,-11.71644,24.85965
33.06578064,-2.31849,-29.44393,-1.218372,0.3969451,0.5912483,-0.2964788,-40.35796,-10.2468,24.01625
33.075640678,-8.34373400000002,-37.53715,-5.448278,0.5224923,0.4359142,-0.2315328,-40.35796,-10.2468,24.01625
33.085499764,-7.10141600000002,-46.10644,-8.51342899999998,0.615426,0.3076241,-0.2741928,-40.35796,-10.2468,24.01625
33.095359325,-9.71028300000003,-54.14014,-12.37552,0.7014336,0.1938155,-0.2021032,-40.35796,-10.2468,24.01625
33.105218887,-13.6857,-61.5787599999998,-13.90809,0.7854695,0.09813236,-0.2227971,-40.35796,-10.2468,24.01625
33.115078449,-18.09593,-69.37443,-14.52112,0.832952,0.03145659,-0.2077438,-40.35796,-10.2468,24.01625
33.124937534,-19.64883,-76.33698,-14.52112,0.8141724,0.05809011,-0.1981466,-39.98226,-9.503237,24.83895
33.134797096,-22.81674,-84.5492099999997,-14.64373,0.7669539,0.1707345,-0.153395,-39.98226,-9.503237,24.83895
33.147121429,-32.87952,-93.65408,-13.54027,0.7371565,0.3088161,-0.2438113,-39.98226,-9.503237,24.83895
33.156980515,-37.72456,-99.24792,-13.41767,0.6935799,0.3151194,-0.276681,-39.98226,-9.503237,24.83895
33.166840553,-34.3703,-102.5804,-16.23761,0.6241987,0.3218514,-0.2641345,-38.08797,-10.21924,27.84549
33.176700115,-31.01604,-103.7111,-15.99239,0.5796591,0.3158096,-0.3426186,-38.08797,-10.21924,27.84549
33.1865592,-27.7239,-100.3191,-15.68588,0.6462758,0.2132726,-0.4627957,-38.08797,-10.21924,27.84549
33.196419239,-11.20107,-93.1780000000002,-12.80464,0.8207757,-0.1018397,-0.4286478,-38.08797,-10.21924,27.84549
33.206278324,-2.00791,-90.5001,-14.092,0.9080308,-0.07242978,-0.3184689,-38.08797,-10.21924,27.84549
33.216137886,20.6644,-77.1105899999998,-15.93109,1.007365,0.1633776,-0.2172627,-36.18892,-11.29804,31.23987
33.225996971,15.57089,-70.9811699999998,-15.50197,1.194779,0.2264341,-0.1949625,-36.18892,-11.29804,31.23987
33.23585701,19.4842,-64.1376400000002,-16.115,1.231823,0.1990616,-0.444426,-36.18892,-11.29804,31.23987
33.245716095,17.74495,-63.1259900000003,-15.93109,1.236439,0.1773263,-0.4120896,-36.18892,-11.29804,31.23987
33.255575657,16.50263,-65.74438,-17.15715,1.071526,0.2767781,-0.3633759,-36.18892,-11.29804,31.23987
33.265435219,7.68217200000001,-64.7922399999999,-16.36021,0.7707065,0.5318012,-0.4216282,-33.54642,-11.64919,34.62285
33.275294781,-15.11437,-75.50385,-14.70503,0.6691859,0.5645707,-0.2675193,-33.54642,-11.64919,34.62285
33.285153866,-14.0584,-76.33698,-11.02685,0.6238699,0.6177057,-0.1356036,-33.54642,-11.64919,34.62285
33.295013905,-0.4550124,-73.4210400000001,-9.55557899999999,0.6995375,0.7457597,-0.03496943,-33.54642,-11.64919,34.62285
33.30487299,-5.486402,-68.1842499999998,-11.63988,0.7676111,0.9349523,-0.2221892,-33.54642,-11.64919,34.62285
33.317196846,-8.90277699999999,-64.5542100000001,-18.01539,0.9987581,0.5258163,-0.3501739,-30.91191,-11.64376,37.16988
33.327056885,-3.37446,-60.2100499999999,-19.42536,1.076538,0.2258097,-0.4712182,-30.91191,-11.64376,37.16988
33.336916447,7.74428800000002,-61.1026899999998,-19.91578,1.091539,0.1203576,-0.4684884,-30.91191,-11.64376,37.16988
33.346775532,8.17909999999999,-62.8284499999999,-18.32191,1.163266,0.1221888,-0.4091161,-30.91191,-11.64376,37.16988
33.356635571,2.029624,-66.0419300000001,-15.31806,1.185058,0.1428262,-0.4073357,-30.91191,-11.64376,37.16988
33.366494656,-8.46796500000002,-64.4351900000003,-10.59773,1.188138,0.2930796,-0.4439683,-28.65155,-12.75094,38.83397
33.376354218,-18.22017,-66.9940700000001,-11.51728,1.201254,0.3054587,-0.5475578,-28.65155,-12.75094,38.83397
33.38621378,-20.26999,-67.2321099999997,-12.55943,1.150602,0.2008617,-0.551073,-28.65155,-12.75094,38.83397
33.396073341,-10.76625,-67.1130899999999,-12.13031,1.07506,0.1869535,-0.5779073,-28.65155,-12.75094,38.83397
33.405932427,-1.635215,-67.1725999999998,-12.92724,0.9933038,0.2593111,-0.5540882,-28.65155,-12.75094,38.83397
33.415792465,6.439854,-66.8750499999998,-13.29506,0.9243152,0.3357011,-0.5232291,-26.76647,-13.48476,40.56022
33.42565155,14.26646,-65.1492900000002,-13.35637,0.9274281,0.3541952,-0.5298263,-26.76647,-13.48476,40.56022
33.435511112,23.0248,-61.7572900000001,-13.78549,0.9807771,0.3447756,-0.5723565,-26.76647,-13.48476,40.56022
33.445370197,23.21115,-60.6861199999999,-18.44451,1.029735,0.3477962,-0.5313384,-26.76647,-13.48476,40.56022
33.455230236,25.07463,-57.9487200000001,-19.54797,1.025162,0.36195,-0.6389736,-26.76647,-13.48476,40.56022
33.465089321,23.70808,-58.6033100000001,-20.2223,1.019394,0.3441332,-0.5753082,-23.45076,-13.86698,42.2753
33.474948883,25.01251,-58.1272400000001,-21.20315,1.046206,0.2650343,-0.5801915,-23.45076,-13.86698,42.2753
33.487273216,28.11831,-64.25666,-17.34106,1.091771,0.4181371,-0.476521,-23.45076,-13.86698,42.2753
33.497132778,25.19886,-65.0897799999997,-15.68588,1.128622,0.4475314,-0.5108213,-23.45076,-13.86698,42.2753
33.50699234,22.65211,-69.2554100000002,-15.68588,1.056712,0.4344711,-0.4500066,-23.45076,-13.86698,42.2753
33.516851902,21.03709,-72.70693,-15.50197,1.053449,0.4752275,-0.4740554,-21.94589,-13.49293,43.92816
33.526710987,22.27941,-75.3848300000002,-16.78933,1.070696,0.4171807,-0.5519422,-21.94589,-13.49293,43.92816
33.536571026,26.81387,-78.0032300000002,-17.58627,1.117666,0.3536937,-0.4640163,-21.94589,-13.49293,43.92816
33.546430111,32.777,-80.08604,-18.1993,1.132946,0.4091131,-0.5145615,-21.94589,-13.49293,43.92816
33.556289673,36.62819,-83.59706,-19.91578,1.193367,0.4337759,-0.4390218,-21.94589,-13.49293,43.92816
33.566148758,42.40497,-85.5608600000003,-22.2453,1.255055,0.4851117,-0.3905894,-19.69707,-13.50636,44.81277
33.576008797,48.61656,-85.7393899999999,-26.84302,1.312308,0.5302703,-0.4216931,-19.69707,-13.50636,44.81277
33.585867882,59.9216600000003,-84.90626,-34.75111,1.394654,0.4567513,-0.3674209,-19.69707,-13.50636,44.81277
