Time (s),Gyroscope X (deg/s),Gyroscope Y (deg/s),Gyroscope Z (deg/s),Accelerometer X (g),Accelerometer Y (g),Accelerometer Z (g),Magnetometer X (uT),Magnetometer Y (uT),Magnetometer Z (uT)
60.051554203,0.2903785,0.370042,0.4981124,1.005742,-0.01442446,-0.1339218,-15.48942,-21.48143,26.49714
60.061411858,0.1040308,0.310533,0.2529004,0.995996,-0.01205909,-0.1289709,-15.48942,-21.48143,26.49714
60.071269989,0.1040308,0.4295509,0.4981124,1.000902,-0.01494108,-0.1305028,-15.48942,-21.48143,26.49714
60.081127167,0.04191487,0.2510241,0.3755064,0.9959258,-0.01110264,-0.1332746,-15.48942,-21.48143,26.49714
60.090985298,-0.3307806,0.1915152,0.2529004,0.9953449,-0.007227316,-0.1365881,-15.48942,-21.48143,26.49714
60.100842953,-0.3928965,0.310533,0.4368094,1.000776,-0.01253604,-0.1376687,-15.48741,-21.84958,26.50092
60.110701084,-0.5171283,0.370042,0.4981124,0.9973338,-0.01159487,-0.1380909,-15.48741,-21.84958,26.50092
60.120558262,-0.2686647,0.370042,0.5594154,0.990384,-0.001919855,-0.1369518,-15.48741,-21.84958,26.50092
60.130416393,-0.0823169599999999,0.4295509,0.4981124,0.998786,-0.008656919,-0.1366492,-15.48741,-21.84958,26.50092
60.140274048,0.1661467,0.608077699999999,0.5594154,0.9987324,-0.005254584,-0.1375781,-15.48741,-21.84958,26.50092
60.150132179,0.1661467,0.608077699999999,0.4981124,0.9988235,-0.01401671,-0.1386117,-15.48942,-21.48143,26.49714
60.159989834,0.2282626,0.965131299999997,0.4981124,1.000386,-0.01544125,-0.1328956,-15.48942,-21.48143,26.49714
60.169847488,0.04191487,0.786604499999998,0.5594154,0.9915726,-0.0135687,-0.1317958,-15.48942,-21.48143,26.49714
60.179705143,-0.2065488,0.608077699999999,0.5594154,0.9948964,-0.006243609,-0.1327398,-15.48942,-21.48143,26.49714
60.192028046,-0.579244300000001,0.667586600000001,0.3755064,0.9953449,-0.007227316,-0.1365881,-15.48942,-21.48143,26.49714
60.201885223,-0.641360199999998,0.667586600000001,0.4981124,0.991943,-0.005786572,-0.1336522,-15.49017,-21.85493,26.11683
60.211742878,-0.703476100000001,0.608077699999999,0.5594154,0.9947228,-0.004828436,-0.1442261,-15.49017,-21.85493,26.11683
60.221601009,-0.703476100000001,0.727095499999998,0.4981124,0.9908788,-0.006796188,-0.1408336,-15.49017,-21.85493,26.11683
60.231458664,-1.014056,0.965131299999997,0.743324399999998,0.9918677,-0.008249171,-0.1413391,-15.49017,-21.85493,26.11683
60.241316319,-0.579244300000001,1.143658,0.682021400000003,0.9918395,-0.009721902,-0.1447055,-15.49017,-21.85493,26.11683
60.251173973,-0.1444329,1.738747,0.927233400000001,0.9912609,-0.004381272,-0.146569,-16.23763,-21.84629,26.1207
60.261032105,0.1040308,2.036292,0.988536299999999,0.9929414,-0.009678015,-0.1356161,-16.23763,-21.84629,26.1207
60.270889759,0.600958099999998,2.452855,0.8659304,0.9959873,-0.01352625,-0.1309,-16.23763,-21.84629,26.1207
60.280747891,0.663074000000001,2.512363,0.743324399999998,1.006369,-0.01779835,-0.1267712,-16.23763,-21.84629,26.1207
60.290605068,0.3524944,2.750399,1.049839,1.009419,-0.02750409,-0.1268966,-16.23763,-21.84629,26.1207
60.3004632,0.1040308,2.69089,0.4981124,1.004575,-0.02216321,-0.1186361,-15.49343,-20.74514,26.4896
60.310320854,-0.2065488,2.512363,0.743324399999998,1.013452,-0.02108843,-0.1125239,-15.49343,-20.74514,26.4896
60.320178986,-0.5171283,1.857765,0.4981124,1.011604,-0.02693345,-0.1096717,-15.49343,-20.74514,26.4896
60.330037117,-0.579244300000001,1.441203,0.5594154,1.012007,-0.01914204,-0.1091325,-15.49343,-20.74514,26.4896
60.339894295,-0.3307806,1.084149,0.3142034,1.00657,-0.01383517,-0.108531,-15.49343,-20.74514,26.4896
60.349751949,-0.641360199999998,0.5485688,0.3755064,1.008087,-0.01576114,-0.1066521,-15.86515,-21.10897,26.49531
60.359610081,-0.5171283,0.1320062,0.2529004,1.004028,-0.01290767,-0.1147166,-15.86515,-21.10897,26.49531
60.37193203,-0.2686647,-0.1060295,0.1915974,0.9996004,-0.01295384,-0.1165707,-15.86515,-21.10897,26.49531
60.381790161,-0.3307806,-0.5225921,0.3755064,0.9999717,-0.01347139,-0.1256851,-15.86515,-21.10897,26.49531
60.391647816,-0.2065488,-0.701118900000002,0.2529004,0.9990296,-0.0154226,-0.1247298,-15.86515,-21.10897,26.49531
60.401505947,-0.0823169599999999,-0.641609900000002,0.007688423,1.002443,-0.0178365,-0.127674,-15.86515,-21.10897,26.49531
60.411363602,-0.0823169599999999,-0.5225921,0.1915974,1.001416,-0.01541779,-0.1290765,-15.86515,-21.10897,26.49531
60.421221256,-0.02020105,-0.582100999999999,0.007688423,0.9990462,-0.02176483,-0.1290963,-15.86515,-21.10897,26.49531
60.431078911,-0.0823169599999999,-0.4630831,0.0689914200000002,1.00201,-0.01538377,-0.1214175,-15.86515,-21.10897,26.49531
60.440937042,-0.4550124,-0.5225921,0.3755064,1.006822,-0.01145739,-0.123849,-15.86515,-21.10897,26.49531
60.450794697,-0.703476100000001,-0.582100999999999,0.2529004,1.003357,-0.01296396,-0.1281251,-15.49143,-21.11329,26.49337
60.460652351,-0.827707900000002,-0.641609900000002,0.0689914200000002,0.993157,-0.01352237,-0.1231924,-15.49143,-21.11329,26.49337
60.470510006,-0.5171283,-0.820136700000001,0.007688423,0.9990968,-0.01833278,-0.1223593,-15.49143,-21.11329,26.49337
60.480368137,0.1040308,-0.760627799999999,-0.05361458,1.001935,-0.01735794,-0.1286211,-15.49143,-21.11329,26.49337
60.490225792,-0.02020105,-0.939154599999998,-0.1762206,1.001008,-0.01832856,-0.1257409,-15.49143,-21.11329,26.49337
60.500083923,-0.3928965,-0.939154599999998,0.1302944,0.9961529,-0.02031421,-0.12473,-15.86114,-21.84527,26.50285
60.509941101,-0.02020105,-1.058172,-0.1762206,0.9961066,-0.02081564,-0.1285672,-15.86114,-21.84527,26.50285
60.519799233,0.4146104,-0.998663500000001,-0.05361458,0.9960683,-0.01594429,-0.127088,-15.86114,-21.84527,26.50285
60.529656887,0.3524944,-1.058172,-0.1762206,0.995023,-0.01304271,-0.1294446,-15.86114,-21.84527,26.50285
60.541978836,0.2282626,-0.879645599999998,-0.1762206,1.00088,-0.0120179,-0.1295194,-15.86114,-21.84527,26.50285
60.551836967,0.725189899999998,-0.879645599999998,-0.1149176,1.006302,-0.01488816,-0.1291417,-16.24285,-21.48438,25.66883
60.561694622,1.222117,-0.701118900000002,-0.2375236,1.00328,-0.01640343,-0.1367786,-16.24285,-21.48438,25.66883
60.571552753,1.222117,-0.641609900000002,-0.1762206,0.9994565,-0.01348312,-0.1275947,-16.24285,-21.48438,25.66883
60.581410885,1.284233,-0.701118900000002,-0.1762206,0.9973569,-0.01354119,-0.1381076,-16.24285,-21.48438,25.66883
60.591268062,0.911537699999999,-0.5225921,-0.1149176,0.9973714,-0.01256061,-0.1361828,-16.24285,-21.48438,25.66883
60.601125717,0.849421699999999,-0.04652058,-0.1762206,0.992877,-0.01360221,-0.1437947,-15.8659,-21.48246,26.11499
60.610983848,0.787305800000002,0.01298836,-0.1762206,0.9959027,-0.01355039,-0.1371286,-15.8659,-21.48246,26.11499
60.62084198,0.849421699999999,0.370042,-0.1762206,0.9949165,-0.01893178,-0.1424311,-15.8659,-21.48246,26.11499
60.630699634,0.911537699999999,0.846113400000001,-0.1762206,0.9998689,-0.01691829,-0.1362551,-15.8659,-21.48246,26.11499
60.640556812,0.849421699999999,1.143658,-0.05361458,0.9982802,-0.01110711,-0.140017,-15.8659,-21.48246,26.11499
60.650414944,0.787305800000002,1.441203,-0.1149176,0.997027,-0.01594125,-0.1285392,-15.48942,-21.48143,26.49714
60.660273075,0.663074000000001,1.61973,-0.2375236,0.9975044,-0.01496379,-0.1285377,-15.48942,-21.48143,26.49714
60.67013073,0.725189899999998,1.798256,-0.2375236,0.9975102,-0.01545037,-0.1285419,-15.48942,-21.48143,26.49714
60.679987907,0.973653600000002,1.917274,-0.1762206,1.001892,-0.01590563,-0.130525,-15.48942,-21.48143,26.49714
60.689846039,1.160001,1.917274,-0.2988266,1.00535,-0.01440091,-0.126728,-15.48942,-21.48143,26.49714
60.69970417,0.973653600000002,1.679239,-0.3601296,1.002981,-0.01537702,-0.1219105,-15.11247,-21.47951,26.94331
60.712026596,1.03577,1.61973,-0.4214326,1.002023,-0.01928568,-0.1238466,-15.11247,-21.47951,26.94331
60.721883774,0.663074000000001,1.560221,-0.4827355,1.005365,-0.01293189,-0.1243198,-15.11247,-21.47951,26.94331
60.731741905,0.3524944,1.441203,-0.4214326,1.001359,-0.01006357,-0.1285513,-15.11247,-21.47951,26.94331
60.74159956,0.787305800000002,1.500712,-0.3601296,0.9956632,-0.01201883,-0.1174651,-15.11247,-21.47951,26.94331
60.751457691,0.3524944,1.322185,-0.5440385,1.001896,-0.009069393,-0.1242378,-15.86314,-21.47712,26.49908
60.761314869,0.2903785,1.203167,-0.4214326,0.9984632,-0.01056669,-0.1261183,-15.86314,-21.47712,26.49908
60.771173,0.04191487,1.262676,-0.4827355,0.9951126,-0.01838764,-0.1275741,-15.86314,-21.47712,26.49908
60.781030655,0.1661467,1.084149,-0.6053416,0.9985803,-0.01492733,-0.1213648,-15.86314,-21.47712,26.49908
60.790888786,-0.1444329,0.965131299999997,-0.6053416,0.9975399,-0.01300076,-0.1242089,-15.86314,-21.47712,26.49908
60.800746441,-0.2686647,0.786604499999998,-0.5440385,1.002527,-0.01390674,-0.118058,-15.86791,-21.11432,26.11122
60.810604095,-0.4550124,0.727095499999998,-0.6666446,0.9990485,-0.0115114,-0.119905,-15.86791,-21.11432,26.11122
60.82046175,-0.641360199999998,0.667586600000001,-0.6053416,0.9995491,-0.01248026,-0.1199203,-15.86791,-21.11432,26.11122
60.830319881,-1.014056,0.4890598,-0.6053416,1.000526,-0.01735414,-0.1242882,-15.86791,-21.11432,26.11122
60.840177536,-1.014056,0.370042,-0.727947499999999,1.001495,-0.01100144,-0.1194564,-15.86791,-21.11432,26.11122
60.850035667,-1.076172,0.310533,-0.789250600000002,1.003874,-0.01197536,-0.1252489,-15.8659,-21.48246,26.11499
60.859892845,-1.138287,0.07249729,-0.850553500000001,0.9975855,-0.01298777,-0.120855,-15.8659,-21.48246,26.11499
60.869750977,-1.510983,-0.1060295,-0.6053416,0.9990695,-0.01492302,-0.1213717,-15.8659,-21.48246,26.11499
60.879608631,-1.573099,-0.3440652,-0.911856500000002,0.9915994,-0.008678781,-0.1255253,-15.8659,-21.48246,26.11499
60.89193058,-1.697331,-0.4630831,-0.6666446,0.9989936,-0.009085937,-0.1218006,-15.49017,-21.85493,26.11683
60.901788712,-1.821563,-0.4630831,-0.727947499999999,0.9975594,-0.01299519,-0.1227715,-15.49017,-21.85493,26.11683
60.911646843,-2.00791,-0.760627799999999,-0.727947499999999,0.9959996,-0.009616911,-0.1265544,-15.49017,-21.85493,26.11683
60.921504498,-2.256374,-0.641609900000002,-0.727947499999999,0.9945678,-0.01206086,-0.1260754,-15.49017,-21.85493,26.11683
60.931362629,-2.31849,-0.641609900000002,-0.5440385,1.001384,-0.01103301,-0.1276015,-15.49017,-21.85493,26.11683
60.941219807,-2.691185,-0.582100999999999,-0.5440385,1.004427,-0.01244093,-0.1209479,-15.49017,-21.85493,26.11683
60.951077938,-2.629069,-0.3440652,-0.6053416,0.9931302,-0.01401823,-0.1255922,-15.49816,-21.49836,25.28088
60.960935593,-2.691185,-0.582100999999999,-0.6666446,0.9959772,-0.007182163,-0.1260543,-15.49816,-21.49836,25.28088
60.970793724,-2.629069,-0.3440652,-0.6666446,1.005842,-0.0129313,-0.125285,-15.49816,-21.49836,25.28088
60.980651379,-2.629069,-0.582100999999999,-0.6053416,0.9999355,-0.01152879,-0.1266266,-15.49816,-21.49836,25.28088
60.990509033,-2.691185,-0.582100999999999,-0.5440385,0.9950671,-0.009612522,-0.1231866,-15.49816,-21.49836,25.28088
61.000366688,-2.504838,-0.2845563,-0.4214326,0.9915024,-0.008218196,-0.1322289,-15.49419,-21.11863,26.10929
61.010224819,-2.256374,-0.3440652,-0.4827355,0.9939934,-0.008183678,-0.1289097,-15.49419,-21.11863,26.10929
61.020082474,-2.442722,-0.2250474,-0.2375236,0.9920493,-0.008685618,-0.128407,-15.49419,-21.11863,26.10929
61.029940605,-2.31849,-0.1655384,-0.4214326,1.00033,-0.005204536,-0.1280164,-15.49419,-21.11863,26.10929
61.039797783,-2.256374,-0.1060295,-0.4827355,1.00183,-0.01348202,-0.1328997,-15.49419,-21.11863,26.10929
61.049655914,-1.697331,0.1320062,-0.2375236,0.9960321,-0.0227898,-0.1357708,-16.23963,-21.47815,26.11692
61.06197834,-1.200403,0.370042,-0.5440385,0.9939738,-0.01697737,-0.1380884,-16.23963,-21.47815,26.11692
61.071835518,-1.138287,0.4295509,-0.3601296,0.9963593,-0.004767248,-0.1317898,-16.23963,-21.47815,26.11692
61.081693649,-0.951939799999999,0.5485688,-0.2988266,0.9993118,-0.01010678,-0.1352313,-16.23963,-21.47815,26.11692
61.091551304,-0.703476100000001,0.846113400000001,-0.2375236,1.000357,-0.009102732,-0.1294873,-15.86114,-21.84527,26.50285
61.101409435,-0.5171283,0.9056224,-0.2375236,1.003371,-0.008077755,-0.1228128,-15.86114,-21.84527,26.50285
61.111267567,-0.5171283,0.965131299999997,-0.05361458,1.005343,-0.01049714,-0.1238198,-15.86114,-21.84527,26.50285
61.121124744,0.4146104,1.084149,-0.1149176,1.007312,-0.01487027,-0.1267599,-15.86114,-21.84527,26.50285
61.130982399,0.5388422,1.203167,-0.1762206,1.006899,-0.01192354,-0.1185828,-15.86114,-21.84527,26.50285
61.14084053,0.5388422,1.322185,-0.05361458,1.010319,-0.01433559,-0.1210479,-15.86114,-21.84527,26.50285
61.150698662,0.600958099999998,1.381694,-0.1149176,1.004888,-0.009515293,-0.1204506,-15.85988,-22.58691,26.1263
61.160556316,0.2903785,1.203167,-0.1149176,0.999063,-0.006136761,-0.1141095,-15.85988,-22.58691,26.1263
61.170413494,0.2282626,0.9056224,-0.05361458,0.9994949,-0.005172297,-0.1174619,-15.85988,-22.58691,26.1263
61.180271626,-0.02020105,0.727095499999998,-0.1762206,1.000001,-0.007116163,-0.1179647,-15.85988,-22.58691,26.1263
61.190129757,0.1040308,0.5485688,-0.05361458,0.9977034,-0.01246591,-0.1117475,-15.85988,-22.58691,26.1263
61.199987412,0.4146104,0.1320062,0.007688423,0.9991874,-0.01000711,-0.1083935,-15.48816,-22.22308,26.1206
61.209845543,0.5388422,0.2510241,-0.1149176,1.001887,-0.006142498,-0.1222962,-15.48816,-22.22308,26.1206
61.219702721,0.725189899999998,0.07249729,0.0689914200000002,1.002432,-0.003681165,-0.1160536,-15.48816,-22.22308,26.1206
61.232025147,0.787305800000002,0.1915152,-0.05361458,1.007338,-0.01095722,-0.1214561,-15.48816,-22.22308,26.1206
61.241883278,0.849421699999999,0.2510241,-0.05361458,1.002048,-0.01146701,-0.1151554,-15.86314,-21.47712,26.49908
61.251741409,1.097885,-0.04652058,-0.1149176,1.003994,-0.01438226,-0.1185621,-15.86314,-21.47712,26.49908
61.261598587,0.4767263,-0.4630831,-0.1149176,1.003555,-0.01534858,-0.1156888,-15.86314,-21.47712,26.49908
61.271456242,0.787305800000002,-0.4035742,-0.1762206,1.005004,-0.01436437,-0.1161804,-15.86314,-21.47712,26.49908
61.281314373,0.973653600000002,-0.641609900000002,-0.3601296,0.9957116,-0.01005209,-0.112178,-15.86314,-21.47712,26.49908
61.291172504,0.849421699999999,-0.939154599999998,-0.3601296,0.9996229,-0.01099453,-0.1132001,-16.23963,-21.47815,26.11692
61.301030159,1.222117,-0.998663500000001,-0.3601296,0.9970343,-0.006662838,-0.1198354,-16.23963,-21.47815,26.11692
61.310887337,0.725189899999998,-1.355717,-0.3601296,0.9989133,-0.006179465,-0.1251293,-16.23963,-21.47815,26.11692
61.320745468,0.911537699999999,-1.415226,-0.4214326,1.003345,-0.007596747,-0.124246,-16.23963,-21.47815,26.11692
61.3306036,0.911537699999999,-1.355717,-0.5440385,0.99761,-0.01395721,-0.1199052,-16.23963,-21.47815,26.11692
61.340461254,0.973653600000002,-1.355717,-0.2988266,0.9974928,-0.01399063,-0.1285294,-16.23963,-21.47815,26.11692
61.350319386,0.725189899999998,-1.236699,-0.4214326,0.9975095,-0.01154474,-0.1251546,-15.49017,-21.85493,26.11683
61.360176563,0.4767263,-1.355717,-0.4827355,1.002837,-0.007606621,-0.1256765,-15.49017,-21.85493,26.11683
61.370034218,0.1040308,-1.236699,-0.4827355,0.9969005,-0.009142146,-0.1318344,-15.49017,-21.85493,26.11683
61.379892349,0.2282626,-1.236699,-0.3601296,0.9955878,-0.01887549,-0.1290226,-15.49017,-21.85493,26.11683
61.389750481,0.4767263,-1.17719,-0.2988266,0.9963341,-0.004286239,-0.1332229,-15.49017,-21.85493,26.11683
61.399608135,0.04191487,-1.17719,-0.2375236,0.9984559,-0.01105698,-0.1270807,-15.8659,-21.48246,26.11499
61.411930084,-0.02020105,-1.415226,-0.2988266,0.9955084,-0.006692463,-0.1241267,-15.8659,-21.48246,26.11499
61.421788216,0.2282626,-1.415226,-0.2988266,0.9945331,-0.01353545,-0.1299209,-15.8659,-21.48246,26.11499
61.43164587,0.1661467,-1.236699,-0.2375236,0.9948848,-0.005270452,-0.1327314,-15.8659,-21.48246,26.11499
61.441503525,0.04191487,-1.17719,-0.2375236,0.9982579,-0.004278305,-0.1356463,-15.85913,-22.21341,26.50662
61.451361179,-0.02020105,-1.17719,-0.2375236,0.9983257,-0.01109411,-0.1366632,-15.85913,-22.21341,26.50662
61.461219311,0.3524944,-1.058172,-0.1149176,1.003885,-0.01294852,-0.1252573,-15.85913,-22.21341,26.50662
61.471076965,0.2282626,-0.939154599999998,-0.1762206,1.00219,-0.004238299,-0.1342644,-15.85913,-22.21341,26.50662
61.480935097,0.2903785,-0.760627799999999,-0.1149176,1.002333,-0.00859151,-0.1275944,-15.85913,-22.21341,26.50662
61.490792275,0.04191487,-0.760627799999999,-0.1149176,0.9973996,-0.01108787,-0.1328163,-16.23763,-21.84629,26.1207
61.500650406,0.2282626,-0.641609900000002,-0.05361458,1.002301,-0.01250642,-0.1333774,-16.23763,-21.84629,26.1207
61.510508061,0.2903785,-0.701118900000002,-0.2375236,0.9935035,-0.008676417,-0.1293861,-16.23763,-21.84629,26.1207
61.520366192,0.1040308,-0.939154599999998,-0.05361458,0.9994529,-0.007137178,-0.1222699,-16.23763,-21.84629,26.1207
61.530224323,-0.02020105,-1.058172,-0.1149176,1.000947,-0.01102246,-0.1237615,-16.23763,-21.84629,26.1207
61.540081501,0.600958099999998,-1.117681,-0.1762206,1.004412,-0.01390995,-0.1233561,-15.86712,-21.85685,25.67067
61.549939156,0.663074000000001,-0.998663500000001,-0.2988266,1.004748,-0.007602401,-0.129058,-15.86712,-21.85685,25.67067
61.559797287,0.4767263,-1.296208,-0.2988266,0.9949709,-0.01305756,-0.1332775,-15.86712,-21.85685,25.67067
61.569655418,0.600958099999998,-1.17719,-0.2988266,1.005319,-0.01392176,-0.1286403,-15.86712,-21.85685,25.67067
61.58197689,0.4767263,-0.998663500000001,-0.4214326,0.9994413,-0.01495214,-0.1300028,-15.86712,-21.85685,25.67067
61.591835022,0.3524944,-1.117681,-0.5440385,0.9969439,-0.01059446,-0.1299305,-15.48741,-21.84958,26.50092
61.601693153,-0.1444329,-1.117681,-0.4214326,0.9975095,-0.01154474,-0.1251546,-15.48741,-21.84958,26.50092
61.611550808,-0.1444329,-1.058172,-0.6666446,1.001414,-0.008583408,-0.1232684,-15.48741,-21.84958,26.50092
61.621408939,-0.0823169599999999,-1.117681,-0.3601296,0.9948921,-0.004780161,-0.131769,-15.48741,-21.84958,26.50092
61.631266117,-0.5171283,-1.236699,-0.5440385,1.000226,-0.00474581,-0.1351991,-15.48741,-21.84958,26.50092
61.641124248,-0.5171283,-0.879645599999998,-0.4827355,1.000292,-0.01302693,-0.1376659,-15.86114,-21.84527,26.50285
61.650981903,-0.5171283,-0.879645599999998,-0.5440385,0.9959468,-0.01451426,-0.1347413,-15.86114,-21.84527,26.50285
61.660840034,-0.0823169599999999,-0.5225921,-0.6666446,0.9993559,-0.01107065,-0.1328441,-15.86114,-21.84527,26.50285
61.670697689,-0.1444329,-0.4035742,-0.4827355,0.9997511,-0.008652025,-0.1376213,-15.86114,-21.84527,26.50285
61.680555344,-0.0823169599999999,-0.2250474,-0.4827355,0.9973251,-0.008667977,-0.1361492,-15.86114,-21.84527,26.50285
61.690412998,-0.02020105,-0.1060295,-0.4214326,0.9924343,-0.004316962,-0.1322092,-15.48816,-22.22308,26.1206
61.70027113,-0.0823169599999999,-0.04652058,-0.5440385,0.9959121,-0.00720073,-0.1308455,-15.48816,-22.22308,26.1206
61.710128784,0.04191487,-0.04652058,-0.2988266,0.9894932,-0.008738704,-0.1365174,-15.48816,-22.22308,26.1206
61.719986916,-0.0823169599999999,0.01298836,-0.2988266,0.9939059,-0.005767497,-0.1332008,-15.48816,-22.22308,26.1206
61.729844093,-0.3307806,-0.2250474,-0.3601296,0.9903696,0.00149362,-0.135006,-15.48816,-22.22308,26.1206
61.739702225,-0.703476100000001,-0.1655384,-0.1762206,0.9952865,0.001544091,-0.1331588,-15.11845,-21.49109,26.11113
61.752024651,-0.641360199999998,-0.1060295,-0.4214326,0.9933705,-0.001879175,-0.1331604,-15.11845,-21.49109,26.11113
61.761882782,-0.703476100000001,-0.1655384,-0.2375236,0.9948133,-0.000896818,-0.1341311,-15.11845,-21.49109,26.11113
61.77173996,-0.5171283,-0.1655384,-0.1762206,0.9958767,-0.004769696,-0.1313037,-15.11845,-21.49109,26.11113
61.781598091,-0.4550124,-0.1655384,-0.2988266,0.9944717,-0.006717782,-0.1284249,-15.11845,-21.49109,26.11113
61.791455746,-0.3307806,-0.04652058,-0.1149176,1.006158,-0.006629329,-0.1324243,-15.48741,-21.84958,26.50092
61.801313877,-0.2686647,-0.1060295,-0.2375236,1.001354,-0.009088553,-0.1280638,-15.48741,-21.84958,26.50092
61.811171532,-0.1444329,-0.1655384,-0.1762206,0.9972832,-0.006238798,-0.1370865,-15.48741,-21.84958,26.50092
61.821029186,-0.0823169599999999,0.07249729,-0.1762206,0.9973006,-0.003304474,-0.1332284,-15.48741,-21.84958,26.50092
61.830886841,-0.2065488,0.310533,-0.05361458,1.002702,-0.001786249,-0.1304174,-15.48741,-21.84958,26.50092
61.840744972,-0.641360199999998,0.07249729,-0.05361458,0.9958868,-0.006719723,-0.1322787,-15.86114,-21.84527,26.50285
61.850602627,-0.5171283,0.01298836,0.007688423,0.9963182,-0.001849635,-0.1322438,-15.86114,-21.84527,26.50285
61.860460758,-0.765591999999998,0.1915152,-0.05361458,0.9954505,-0.006220738,-0.1279555,-15.86114,-21.84527,26.50285
61.870317936,-0.951939799999999,0.01298836,0.1302944,0.9963363,-0.002820935,-0.131773,-15.86114,-21.84527,26.50285
61.880176067,-1.076172,-0.1655384,0.007688423,0.9957234,-0.002860517,-0.1408694,-15.86114,-21.84527,26.50285
61.890033722,-0.951939799999999,0.310533,0.1302944,0.9933885,-0.007244533,-0.1365603,-15.4854,-22.21773,26.50468
61.899891853,-0.641360199999998,0.310533,0.1915974,0.996248,-0.0008931889,-0.1365475,-15.4854,-22.21773,26.50468
61.909749508,-0.0823169599999999,0.370042,0.1915974,0.9958029,-0.006255425,-0.138024,-15.4854,-22.21773,26.50468
61.919607639,0.1661467,0.786604499999998,0.2529004,0.9918706,-0.00629543,-0.1394059,-15.4854,-22.21773,26.50468
61.931929588,0.2282626,0.846113400000001,0.2529004,0.9982238,-0.005264459,-0.1390085,-15.4854,-22.21773,26.50468
61.94178772,-0.1444329,1.143658,0.3755064,1.00234,-0.008101218,-0.1266319,-15.4854,-22.21773,26.50468
61.951645374,-0.02020105,1.203167,0.2529004,1.001719,-0.0008198443,-0.129916,-15.4854,-22.21773,26.50468
61.961502552,-0.3307806,1.143658,0.2529004,1.005724,-0.009059096,-0.1305218,-15.4854,-22.21773,26.50468
61.971360683,-0.5165178,1.082788,0.4362992,1.010133,-0.00804163,-0.1291385,-15.4854,-22.21773,26.50468
61.981218815,-0.0812722400000002,1.378804,0.2518615,1.013568,-0.005079032,-0.1258081,-15.4854,-22.21773,26.50468
61.991076469,0.04306167,1.317619,0.4967571,1.008737,-0.008522555,-0.1243307,-15.48741,-21.84958,26.50092
62.000934601,0.1049869,1.137456,0.3736042,1.003414,-0.009530063,-0.1209089,-15.48741,-21.84958,26.50092
62.010792255,-0.01937675,1.076519,0.3119667,1.003023,-0.01390058,-0.1175858,-15.48741,-21.84958,26.50092
62.02064991,0.973995000000002,0.837261400000003,0.3115364,1.002114,-0.01535407,-0.1137515,-15.48741,-21.84958,26.50092
62.030507565,1.469465,0.5388707,0.1274479,1.003354,-0.001735527,-0.1184463,-15.48741,-21.84958,26.50092
62.040365696,0.4121168,0.002949888,0.1885523,1.003519,-0.004617862,-0.108889,-15.8639,-21.85061,26.11876
62.050223351,0.5360846,-0.2943555,0.1270702,0.9955857,-0.01594674,-0.1266019,-15.8639,-21.85061,26.11876
62.060081482,0.659623600000002,-0.769776899999998,0.004362366,0.9985666,-0.01102541,-0.1189356,-15.8639,-21.85061,26.11876
62.06993866,0.4105655,-0.947299400000002,0.004395398,1.005203,-0.004190192,-0.1285565,-15.8639,-21.85061,26.11876
62.079796791,0.2860326,-1.065127,-0.05691311,0.9959237,-0.008173887,-0.1308539,-15.8639,-21.85061,26.11876
62.089654446,-0.02469168,-1.123224,0.1269903,0.998456,-0.006662922,-0.1232101,-16.23963,-21.47815,26.11692
62.101977348,0.2236352,-1.240478,0.0656035700000002,1.002733,-0.007147894,-0.1328591,-16.23963,-21.47815,26.11692
62.111834526,0.1612189,-1.060506,-0.05704632,0.9934984,-0.01209546,-0.1327692,-16.23963,-21.47815,26.11692
62.121692181,0.0988419399999998,-1.118589,-0.2409029,0.9949413,-0.006719047,-0.1298692,-16.23963,-21.47815,26.11692
62.131550312,0.03662139,-0.819732800000002,0.0657606500000001,0.9977621,-0.008678526,-0.1399892,-16.23963,-21.47815,26.11692
62.141408443,0.0985937599999998,-0.6399894,-0.0567739,1.003168,-0.004718125,-0.1347616,-15.11046,-21.84766,26.94708
62.151266098,0.4710873,-0.817581600000002,-0.05674107,1.002927,-0.008557498,-0.1199354,-15.11046,-21.84766,26.94708
62.161123276,0.4705151,-0.757083100000001,-0.1179343,0.9994262,-0.00763304,-0.1246697,-15.11046,-21.84766,26.94708
62.170981407,0.0974237599999999,-0.756019999999998,-0.1790314,1.000438,-0.007126712,-0.1218046,-15.11046,-21.84766,26.94708
62.180839539,-0.2132392,-1.052297,-0.1175805,0.9939573,-0.006241078,-0.1298512,-15.11046,-21.84766,26.94708
62.190697193,-0.5234728,-1.1699,-0.2399811,0.9955026,-0.006205884,-0.1241225,-16.23562,-22.21444,26.12447
62.200555325,-0.4607579,-1.406392,-0.2397182,0.9987904,-0.00133225,-0.1298786,-16.23562,-22.21444,26.12447
62.210412979,-0.3360059,-1.523531,-0.2394941,1.003757,-0.007614722,-0.1300024,-16.23562,-22.21444,26.12447
62.220270634,-0.33574,-1.40273,-0.1779865,0.9998277,-0.005212555,-0.1289678,-16.23562,-22.21444,26.12447
62.230128288,-0.583801399999999,-1.400931,-0.3002149,0.9993443,-0.0100975,-0.1328357,-16.23562,-22.21444,26.12447
62.23998642,-0.2727617,-1.399152,-0.4225016,0.9963433,-0.01111876,-0.1385519,-15.86189,-22.21876,26.12254
62.249844074,-0.4587083,-1.397545,-0.1156677,0.9977484,-0.004776615,-0.13756,-15.86189,-22.21876,26.12254
62.259702206,-0.2097856,-1.039091,-0.1155417,0.9987317,-0.00134896,-0.1341907,-15.86189,-22.21876,26.12254
62.272024155,0.1631612,-0.621308100000001,-0.05415354,0.9958318,-0.008688317,-0.1380449,-15.86189,-22.21876,26.12254
62.281882286,0.28711,-0.3826042,-0.299259,0.9992563,-0.003775692,-0.1337395,-15.86189,-22.21876,26.12254
62.291739941,0.2865934,-0.3226521,-0.1152437,0.9983373,-0.007673212,-0.1328009,-15.48816,-22.22308,26.1206
62.301598072,0.3484468,-0.2627192,0.1300168,1.000815,-0.007642407,-0.1304399,-15.48816,-22.22308,26.1206
62.31145525,-0.0865681399999998,-0.2623144,-0.115166,1.000939,-0.01200119,-0.1252073,-15.48816,-22.22308,26.1206
62.321313381,-0.02448004,-0.4403809,-0.1764398,1.001401,-0.01298118,-0.1280973,-15.48816,-22.22308,26.1206
62.331171036,0.1617619,-0.558827,-0.1762567,0.9983417,-0.01353072,-0.1376424,-15.48816,-22.22308,26.1206
62.341029167,0.2236746,-0.2011462,0.00785441299999998,0.9952402,0.001042659,-0.136996,-15.11167,-22.22205,26.50275
62.350886822,0.4718183,-0.3792335,0.06914756,0.997278,-0.009657843,-0.1404697,-15.11167,-22.22205,26.50275
62.360744476,0.781629699999999,-0.4383408,0.00796948899999998,0.9953399,-0.006252302,-0.1361006,-15.11167,-22.22205,26.50275
62.370602131,0.6564941,-0.3189032,-0.05332426,1.000681,-0.001822035,-0.1351809,-15.11167,-22.22205,26.50275
62.380460262,0.5315352,-0.1400506,-0.05329579,0.9957667,-0.008706884,-0.1428362,-15.11167,-22.22205,26.50275
62.390317917,0.8413106,-0.1399308,0.00805490500000001,0.9968419,-0.009158857,-0.1361465,-15.86189,-22.21876,26.12254
62.400176048,0.840273300000002,-0.2588477,-0.05325821,0.9967985,-0.007706549,-0.1380504,-15.86189,-22.21876,26.12254
62.41003418,0.653045800000001,0.0983628699999997,0.0692991700000001,0.9973209,-0.002810469,-0.1313078,-15.86189,-22.21876,26.12254
62.419891358,0.5280132,0.0982953900000001,0.00783212300000001,1.000181,-0.004758807,-0.1385529,-15.86189,-22.21876,26.12254
62.429749012,0.837812500000001,0.3955671,0.2529573,0.9987708,-0.005731879,-0.1351867,-15.86189,-22.21876,26.12254
62.439607144,1.085302,0.4546539,0.1302068,1.001755,-0.012039,-0.1371992,-15.86114,-21.84527,26.50285
62.451929569,1.083462,0.2754694,0.0688534100000001,1.000703,-0.004745218,-0.1361643,-15.86114,-21.84527,26.50285
62.461786747,0.709483300000001,0.3938984,0.2525027,1.002774,-0.006159884,-0.1290177,-15.86114,-21.84527,26.50285
62.471644878,0.956938700000002,0.2149703,0.3135655,1.000819,-0.009594291,-0.1318941,-15.86114,-21.84527,26.50285
62.48150301,0.893601400000002,0.2147563,0.1294167,0.9984596,-0.008614806,-0.1246642,-15.86114,-21.84527,26.50285
62.491360664,0.4578041,0.09559952,0.1905186,0.9974517,-0.01107302,-0.1289833,-15.85712,-22.58156,26.51039
62.501218796,0.643537899999999,-0.0829726000000002,0.00656287300000001,0.9979075,-0.01156643,-0.1318692,-15.85712,-22.58156,26.51039
62.511075974,0.7048259,-0.2613204,0.00651612999999999,0.9973916,-0.007672538,-0.1303914,-15.85712,-22.58156,26.51039
62.520934105,0.6418248,-0.2609922,0.1289984,0.9958782,-0.003792826,-0.1303371,-15.85712,-22.58156,26.51039
62.53079176,0.4548074,-0.4390978,0.1902357,0.9977319,0.001565614,-0.1331935,-15.85712,-22.58156,26.51039
62.540649891,0.1438127,-0.616923499999998,0.1901122,0.9945173,-0.006704784,-0.1250711,-15.86314,-21.47712,26.49908
62.550507546,0.0816136899999999,-0.616111200000001,0.0674407100000003,0.9978005,-0.004761762,-0.133727,-15.86314,-21.47712,26.49908
62.560365677,0.01935624,-0.5559406,0.0673367499999999,0.9983243,-0.007676926,-0.1337591,-15.86314,-21.47712,26.49908
62.570222855,0.3297749,-0.674241499999997,0.1286129,0.9982802,-0.006713054,-0.1361464,-15.86314,-21.47712,26.49908
62.580080986,0.0810531299999999,-0.614053899999999,0.1285862,0.9968202,-0.01062973,-0.1390338,-15.86314,-21.47712,26.49908
62.58993864,-0.1674148,-0.6133386,0.1284439,0.9939355,-0.007711953,-0.1327385,-15.4854,-22.21773,26.50468
62.599796772,-0.1051861,-0.2556642,0.005695834,0.9983019,-0.009636236,-0.1371297,-15.4854,-22.21773,26.50468
62.609654903,0.2053695,-0.433683,0.1283332,0.9968947,-0.00865557,-0.1318302,-15.4854,-22.21773,26.50468
62.621976852,-0.04324102,-0.3140778,-0.2396478,0.9986956,-0.00380042,-0.1390029,-15.4854,-22.21773,26.50468
62.631834507,-0.1672234,-0.2543052,0.0668794200000002,1.001183,-0.01060213,-0.1419709,-15.4854,-22.21773,26.50468
62.641692638,0.0812746599999997,-0.2540979,0.005511674,0.9958326,-0.008199882,-0.1375616,-15.86515,-21.10897,26.49531
62.651550293,0.0810555100000001,-0.0753453399999997,0.005562509,1.001734,-0.008627378,-0.1357325,-15.86515,-21.10897,26.49531
62.661407947,0.2052246,-0.01572308,0.005478511,0.991927,-0.007744025,-0.1365437,-15.86515,-21.10897,26.49531
62.671265602,0.2048888,-0.0157033,0.005529376,0.9957994,-0.004303542,-0.1365699,-15.86515,-21.10897,26.49531
62.681123733,0.2666888,0.1032969,0.0667869199999999,1.002754,-0.00665389,-0.1309384,-15.86515,-21.10897,26.49531
62.690981388,0.3284307,0.2221103,0.005419285,0.9929205,-0.006266396,-0.1341494,-15.86912,-21.4887,25.6669
62.700839519,0.2039424,0.1028134,0.005431749,0.9924488,-0.003336378,-0.1302844,-15.86912,-21.4887,25.6669
62.710697174,-0.1067958,0.22159,-0.1171426,0.9871287,-0.01557232,-0.1365414,-15.86912,-21.4887,25.6669
62.720554829,-0.1067787,0.2808393,-0.05584645,0.9948689,-0.007227906,-0.1356229,-15.86912,-21.4887,25.6669
62.730412483,-0.2929923,0.1019224,0.005507444,0.9988387,-0.008153629,-0.1323329,-15.86912,-21.4887,25.6669
62.740270615,-0.2926633,0.2803212,0.1895058,0.993853,-0.01066484,-0.1413878,-15.85913,-22.21341,26.50662
62.750128269,-0.4786239,0.101461,0.00555131,1.000771,-0.002284475,-0.1289565,-15.85913,-22.21341,26.50662
62.759986401,-0.3538495,0.3392011,0.0669050800000001,1.001357,-0.01592293,-0.1338719,-15.85913,-22.21341,26.50662
62.769844532,-0.1672914,0.2198319,0.005633566,1.005748,-0.01051698,-0.1300553,-15.85913,-22.21341,26.50662
62.77970171,0.0812653499999998,0.3384802,-0.1169025,0.9983467,-0.01011167,-0.1342592,-15.85913,-22.21341,26.50662
62.792024136,0.3295039,0.2190431,0.06709374,0.9964077,-0.01158863,-0.134244,-15.8659,-21.48246,26.11499
62.801882267,0.2049167,0.1592964,0.0671057299999998,0.9992924,-0.005718292,-0.132798,-15.8659,-21.48246,26.11499
62.811739922,0.01825309,0.337567,0.06700219,0.9959034,-0.008667893,-0.1327746,-15.8659,-21.48246,26.11499
62.821597576,-0.1059821,0.3371243,0.0668410300000003,0.9948436,-0.006746898,-0.1370561,-15.8659,-21.48246,26.11499
62.831455231,-0.4164871,0.2772667,0.1280986,0.9977477,-0.00526505,-0.1380433,-15.8659,-21.48246,26.11499
62.841313362,-0.3540041,0.4554639,0.1279954,0.9934847,-0.008193552,-0.1303401,-15.85992,-21.47088,26.94717
62.851171017,-0.2914436,0.5144007,0.0665124299999999,0.9914793,-0.006271883,-0.1322121,-15.85992,-21.47088,26.94717
62.861029148,-0.4772887,0.751865099999999,0.3115253,0.9982174,-0.0008722572,-0.135617,-15.85992,-21.47088,26.94717
62.870886326,-0.3525939,0.5725435,-0.0565684,0.9983142,-0.0057269,-0.1327841,-15.85992,-21.47088,26.94717
62.880744457,-0.1659789,0.5716561,0.1884451,0.9915111,-0.006751035,-0.1302998,-15.85992,-21.47088,26.94717
62.890602112,-0.04157763,0.5114852,0.1268476,0.995449,-0.01159167,-0.1327928,-15.8659,-21.48246,26.11499
62.900460243,-0.2898135,0.5107493,0.1878758,1.000309,-0.01058104,-0.1342911,-15.8659,-21.48246,26.11499
62.910318375,-0.2894495,0.748124800000001,0.2488273,1.000794,-0.004719224,-0.1294566,-15.8659,-21.48246,26.11499
62.920176029,-0.3512018,0.687844400000001,0.24838,0.9993893,-0.01057293,-0.1299651,-15.8659,-21.48246,26.11499
62.930033207,-0.661164700000003,0.2706422,0.3705969,0.9979212,-0.01107428,-0.1304276,-15.8659,-21.48246,26.11499
62.939891338,-0.660295200000002,0.4486422,0.125035,0.9969366,-0.01108475,-0.1308929,-15.48942,-21.48143,26.49714
62.94974947,-0.659602399999997,0.2696079,0.3085944,0.9988425,-0.005711455,-0.1299163,-15.48942,-21.48143,26.49714
62.959607124,-0.907081499999998,0.3880816,0.4307358,1.001236,-0.00521635,-0.1333007,-15.48942,-21.48143,26.49714
62.971929073,-0.905677000000001,0.26866,0.4302329,0.9973996,-0.006693812,-0.1289456,-15.48942,-21.48143,26.49714
62.981787205,-0.656095300000003,0.1493608,0.4297503,1.000884,-0.009575723,-0.1271028,-15.48942,-21.48143,26.49714
62.991644859,-0.2827709,0.208626,0.3680423,1.000844,-0.00568124,-0.1265902,-15.4854,-22.21773,26.50468
63.001502991,-0.4686269,-0.1485962,0.3676955,0.9920515,-0.007220312,-0.1269571,-15.4854,-22.21773,26.50468
63.011360645,-1.585637,-0.207825,0.4286137,0.9915909,0.003036234,-0.1158424,-15.4854,-22.21773,26.50468
63.021218777,-2.63903,-0.921035699999998,0.673210300000001,0.9981745,-0.007096245,-0.1083545,-15.4854,-22.21773,26.50468
63.031075954,-2.759967,-1.752537,0.6723262,0.9977158,-0.008556572,-0.1074019,-15.4854,-22.21773,26.50468
63.040934086,-3.687732,-2.702161,0.793952900000001,0.9940668,0.01038985,-0.10719,-15.48816,-22.22308,26.1206
63.05079174,-5.173199,-3.53163,0.792897899999997,0.9946802,-0.002264307,-0.1092223,-15.48816,-22.22308,26.1206
63.060649872,-5.73224200000001,-4.424263,1.099413,0.9877917,0.0005930442,-0.1095792,-15.48816,-22.22308,26.1206
63.070508003,-6.66398099999999,-5.316897,0.854201000000001,0.982351,0.007851798,-0.1075236,-15.48816,-22.22308,26.1206
63.080365658,-7.59572000000002,-6.56658500000001,1.099413,0.9830489,-0.004778225,-0.1033274,-15.48816,-22.22308,26.1206
63.090222836,-7.59572000000002,-8.054309,1.222019,0.9919777,-0.01247672,-0.1011236,-15.48419,-21.84335,26.94901
63.100080967,-7.90630000000002,-9.36350500000002,1.405928,0.9853912,0.008884203,-0.09893266,-15.48419,-21.84335,26.94901
63.109939098,-9.27284900000002,-11.26779,1.712443,0.9883316,0.01281751,-0.09510779,-15.48419,-21.84335,26.94901
63.119796753,-8.90015399999998,-13.3506,1.835049,1.000921,-0.01870619,-0.09651166,-15.48419,-21.84335,26.94901
63.129654884,-5.359547,-14.83833,1.773746,1.006,-0.03667397,-0.09865248,-15.48419,-21.84335,26.94901
63.141976833,-0.0796941100000001,-16.98065,0.608988999999997,1.000735,-0.03438253,-0.1239557,-15.49017,-21.85493,26.11683
63.151834488,4.26842,-17.51623,-0.494465,1.003634,-0.05829002,-0.1476795,-15.49017,-21.85493,26.11683
63.161692619,7.31209999999998,-17.27819,-1.41401,1.001494,-0.05054797,-0.1542925,-15.49017,-21.85493,26.11683
63.171550751,8.55441900000001,-16.50458,-2.333555,1.00254,-0.03210264,-0.1690069,-15.49017,-21.85493,26.11683
63.181408405,7.436332,-15.61194,-2.64007,1.003661,-0.01998283,-0.1837758,-15.49017,-21.85493,26.11683
63.191265583,5.386507,-14.24324,-2.456161,1.012434,-0.03553713,-0.1998457,-15.10845,-22.21581,26.95085
63.201123714,4.392652,-12.45797,-2.64007,1.000955,-0.02447268,-0.2067767,-15.10845,-22.21581,26.95085
63.210981846,1.721668,-10.61319,-2.64007,0.9993578,-0.003175823,-0.2334093,-15.10845,-22.21581,26.95085
63.2208395,-0.762969199999999,-8.173326,-2.02704,0.9874677,-0.004787138,-0.2457127,-15.10845,-22.21581,26.95085
63.230697632,-0.762969199999999,-5.554934,-1.720525,0.9962704,-0.009592151,-0.2501915,-15.10845,-22.21581,26.95085
63.240555286,0.4793491,-2.519978,-0.984888999999998,1.007812,0.01584294,-0.2424741,-14.74196,-21.49007,26.49328
63.250412464,1.038392,0.3364508,-0.249253,1.014419,0.03341074,-0.244816,-14.74196,-21.49007,26.49328
63.260270596,1.100508,3.847478,0.486383,1.014361,0.02509434,-0.2563862,-14.74196,-21.49007,26.49328
63.270128727,1.721668,6.52538099999999,1.467231,1.00771,0.0167901,-0.2491735,-14.74196,-21.49007,26.49328
63.279986382,1.845899,9.14377299999997,2.080261,1.005111,0.01051302,-0.2300214,-14.74196,-21.49007,26.49328
63.289844513,1.411088,11.40511,3.061109,1.006717,-0.008828241,-0.2009764,-14.73472,-22.22013,26.94892
63.299702168,2.094363,12.71431,3.122412,1.008028,-0.004465831,-0.2086254,-14.73472,-22.22013,26.94892
63.312024117,3.026102,14.6781,3.306321,1.005881,-0.0136785,-0.1947758,-14.73472,-22.22013,26.94892
63.321882248,3.647261,15.57074,3.612836,0.9953001,-0.01176932,-0.1797537,-14.73472,-22.22013,26.94892
63.331740379,3.460913,16.28485,3.612836,0.993791,-0.004958998,-0.1767995,-14.73472,-22.22013,26.94892
63.341598034,2.839754,16.76092,3.674139,0.9834006,-0.01031879,-0.1541743,-14.05478,-21.86613,26.49351
63.351455212,3.150334,16.93944,3.796745,0.986508,-0.01659063,-0.1470835,-14.05478,-21.86613,26.49351
63.361313343,4.019956,16.52288,3.367624,0.9824084,-0.02337834,-0.1307896,-14.05478,-21.86613,26.49351
63.371171475,4.641116,15.27319,3.122412,0.9781608,-0.01604971,-0.1129368,-14.05478,-21.86613,26.49351
63.381029129,4.951695,14.02351,2.938503,0.9882811,-0.02026113,-0.09203184,-14.05478,-21.86613,26.49351
63.390887261,5.63497,12.11922,2.448079,0.9926366,-0.02072382,-0.0959314,-15.4854,-22.21773,26.50468
63.400744915,6.00766600000002,10.51248,1.896352,0.9918189,-0.02654537,-0.08926009,-15.4854,-22.21773,26.50468
63.41060257,5.32439,8.548684,1.65114,0.9926851,-0.01875708,-0.09064431,-15.4854,-22.21773,26.50468
63.420460224,4.516884,6.46587099999998,1.283322,0.9962793,-0.02648992,-0.08501041,-15.4854,-22.21773,26.50468
63.430318356,3.95784,4.740112,0.915504000000002,0.9971744,-0.02113452,-0.08641556,-15.4854,-22.21773,26.50468
63.44017601,4.144188,3.073862,0.731594999999999,0.9999952,-0.02748806,-0.1004062,-15.86314,-21.47712,26.49908
63.450034142,3.895725,1.943192,0.4250799,0.9955531,-0.01972669,-0.09644376,-15.86314,-21.47712,26.49908
63.459892273,3.398797,1.050558,0.363777,1.008982,-0.009917304,-0.107574,-15.86314,-21.47712,26.49908
63.469749451,2.777638,0.03890619,0.547686,1.00592,-0.01290902,-0.1195355,-15.86314,-21.47712,26.49908
63.479607105,2.467058,-0.0801116799999999,0.363777,0.9975549,-0.02471392,-0.1334127,-15.86314,-21.47712,26.49908
63.491930008,2.777638,-0.0801116799999999,0.179868,1.001416,-0.02859996,-0.1406886,-15.11167,-22.22205,26.50275
63.501787663,2.839754,0.03890619,0.486383,0.9935924,-0.01890385,-0.1318696,-15.11167,-22.22205,26.50275
63.51164484,2.715522,0.2769419,0.4250799,0.9944469,-0.01893052,-0.1409868,-15.11167,-22.22205,26.50275
63.521502972,2.218595,0.217433,0.4250799,0.9882278,-0.01308812,-0.1255145,-15.11167,-22.22205,26.50275
63.531361103,1.783783,-0.1396206,0.608988999999997,0.986775,-0.01212045,-0.1235688,-15.11167,-22.22205,26.50275
63.541218758,0.852044600000001,-0.3181474,0.363777,0.9922004,-0.01645416,-0.1241619,-16.23487,-21.84095,26.50478
63.551076889,1.038392,-0.853727799999997,0.363777,0.9961631,-0.01787018,-0.1218344,-16.23487,-21.84095,26.50478
63.560934544,0.4793491,-1.329799,0.4250799,0.9946365,-0.01838823,-0.126609,-16.23487,-21.84095,26.50478
63.570792198,0.2308855,-1.448817,0.486383,0.9955668,-0.01985793,-0.1314266,-16.23487,-21.84095,26.50478
63.580649853,0.3551173,-1.27029,0.302474,0.9989832,-0.02031809,-0.1324376,-16.23487,-21.84095,26.50478
63.590507984,0.603581,-1.329799,0.363777,1.001333,-0.02325317,-0.1420798,-15.86193,-21.10273,26.9434
63.600365639,1.100508,-0.794218900000001,0.241171,1.003252,-0.02227022,-0.1440157,-15.86193,-21.10273,26.9434
63.61022377,1.22474,-0.2586385,0.05726198,1.0121,-0.02755067,-0.145624,-15.86193,-21.10273,26.9434
63.620081901,1.721668,0.633995499999999,0.241171,1.008024,-0.01933185,-0.1502885,-15.86193,-21.10273,26.9434
63.629939079,2.094363,1.288594,0.302474,1.009426,-0.01884907,-0.1546172,-15.86193,-21.10273,26.9434
63.639796734,2.280711,2.06221,0.302474,1.002512,-0.0203932,-0.1607613,-16.23888,-21.10465,26.49724
63.649654865,2.032247,2.835826,0.486383,1.004217,-0.01787127,-0.1411171,-16.23888,-21.10465,26.49724
63.661977291,2.342827,3.371406,0.547686,1.000366,-0.01593526,-0.1348163,-16.23888,-21.10465,26.49724
63.671835422,1.721668,3.311898,0.486383,0.9994586,-0.02080593,-0.1338861,-16.23888,-21.10465,26.49724
63.6816926,1.473204,2.954844,0.4250799,0.9946855,-0.02472118,-0.1285799,-16.23888,-21.10465,26.49724
63.691550732,0.914160499999999,2.657299,0.486383,0.9947262,-0.01933911,-0.1208679,-15.85716,-21.46553,27.33126
63.701408386,0.665696899999998,2.478772,0.241171,0.9957657,-0.02175411,-0.1185071,-15.85716,-21.46553,27.33126
63.711266518,0.3551173,1.883683,0.05726198,0.9959401,-0.01828679,-0.1026667,-15.85716,-21.46553,27.33126
63.721124649,-0.01757819,1.169576,0.302474,0.9987208,-0.01244616,-0.1088867,-15.85716,-21.46553,27.33126
63.730982304,-0.2039259,0.633995499999999,0.118565,1.00269,-0.02216,-0.113338,-15.85716,-21.46553,27.33126
63.740839481,0.04453773,0.4554687,0.179868,0.9982603,-0.02367147,-0.116642,-15.8659,-21.48246,26.11499
63.750697613,-0.5145055,-0.0801116799999999,-0.06534401,0.9918401,-0.02179226,-0.1194098,-15.8659,-21.48246,26.11499
63.760555744,-0.4523896,-0.3776564,-0.06534401,0.9981829,-0.02759938,-0.1257788,-15.8659,-21.48246,26.11499
63.770413399,-0.3902737,-0.3181474,-0.126647,1.001049,-0.02124618,-0.1252869,-15.8659,-21.48246,26.11499
63.78027153,-0.638737399999998,-0.3181474,-0.126647,1.001988,-0.01685465,-0.1243048,-15.8659,-21.48246,26.11499
63.790129185,-0.949316900000002,-0.4966742,-0.371859,1.002508,-0.02221199,-0.1267534,-16.24089,-20.73651,26.49347
63.799986362,-1.135665,-0.675201100000001,-0.433162,0.9951877,-0.02471316,-0.1276286,-16.24089,-20.73651,26.49347
63.809844494,-0.825085100000002,-0.5561832,-0.433162,0.989182,-0.02040975,-0.1337363,-16.24089,-20.73651,26.49347
63.819702625,-0.949316900000002,-0.615692100000001,-0.678373999999999,0.988279,-0.02234982,-0.1299062,-16.24089,-20.73651,26.49347
63.832025051,-1.632592,-0.615692100000001,-0.678373999999999,0.9921815,-0.02036535,-0.1289867,-16.24089,-20.73651,26.49347
63.841883182,-0.762969199999999,-0.4966742,-0.800980000000001,1.002868,-0.02126795,-0.1353762,-15.86314,-21.47712,26.49908
63.85174036,-0.4523896,0.03890619,-0.984888999999998,1.006252,-0.0217374,-0.1387828,-15.86314,-21.47712,26.49908
63.861598015,-0.14181,0.4554687,-0.923585999999997,1.004332,-0.01930315,-0.1339429,-15.86314,-21.47712,26.49908
63.871456146,0.04453773,0.5149777,-0.923585999999997,1.000455,-0.02128019,-0.1329459,-15.86314,-21.47712,26.49908
63.881314278,0.541465,0.693504499999999,-0.984888999999998,0.9957222,-0.02469586,-0.1242817,-15.86314,-21.47712,26.49908
63.891171932,0.2930014,0.3364508,-1.107495,0.9971253,-0.01981902,-0.1247397,-15.8659,-21.48246,26.11499
63.901030064,-0.0796941100000001,0.4554687,-1.168798,0.998714,-0.02123613,-0.1171071,-15.8659,-21.48246,26.11499
63.910887241,0.1066536,0.2769419,-1.291404,1.004579,-0.03680883,-0.1312189,-15.8659,-21.48246,26.11499
63.920745373,0.2930014,0.0984151199999999,-1.352707,0.997238,-0.02711027,-0.1228861,-15.8659,-21.48246,26.11499
63.930603027,-0.0796941100000001,-0.1991295,-1.475313,0.9985708,-0.02127698,-0.1276478,-15.8659,-21.48246,26.11499
63.940461159,0.1687696,-0.4966742,-1.475313,1.001099,-0.01830257,-0.1190332,-15.48942,-21.48143,26.49714
63.950318813,0.1687696,-0.5561832,-1.597919,1.000083,-0.01734545,-0.1209274,-15.48942,-21.48143,26.49714
63.960176945,0.2930014,-0.9727457,-1.659222,1.002522,-0.01732578,-0.1214412,-15.48942,-21.48143,26.49714
63.970034122,-0.14181,-1.151272,-1.475313,1.002399,-0.01247857,-0.1261905,-15.48942,-21.48143,26.49714
63.979892254,-0.825085100000002,-1.210781,-1.720525,0.9921331,-0.01793803,-0.1304031,-15.48942,-21.48143,26.49714
63.989749908,-1.073549,-1.508326,-1.597919,0.9894084,-0.02132163,-0.1179336,-15.49343,-20.74514,26.4896
63.99960804,-1.259896,-1.924889,-1.843131,0.9878587,-0.01549932,-0.1188208,-15.49343,-20.74514,26.4896
64.011930466,-2.129519,-2.519978,-1.597919,0.9913114,-0.009113961,-0.1111489,-15.49343,-20.74514,26.4896
64.021787643,-2.377983,-3.293594,-1.781828,0.9933733,-0.01248423,-0.1064148,-15.49343,-20.74514,26.4896
64.031645775,-2.812794,-4.245737,-1.781828,0.9922532,-0.01155681,-0.115975,-15.49343,-20.74514,26.4896
64.041503906,-2.999142,-4.781317,-1.904434,0.9986867,-0.01343231,-0.1122489,-15.4862,-21.4752,26.94524
64.051361561,-2.750678,-5.257389,-1.904434,1.000098,-0.01587643,-0.1185192,-15.4862,-21.4752,26.94524
64.061219692,-2.937026,-5.79296899999998,-1.904434,0.9979488,-0.005695926,-0.1236739,-15.4862,-21.4752,26.94524
64.071077347,-3.744533,-5.85247800000002,-1.659222,1.002859,-0.006135746,-0.1227892,-15.4862,-21.4752,26.94524
64.080935001,-4.055113,-6.03100500000002,-1.536616,0.9997779,-0.003762104,-0.1313508,-15.4862,-21.4752,26.94524
64.090792656,-5.91858999999999,-6.32854900000002,-0.862282899999999,0.9987622,0.001589077,-0.1293744,-15.86114,-21.84527,26.50285
64.100650787,-6.53974900000002,-6.44756699999999,-0.617070999999998,0.9980059,-0.01105014,-0.1241991,-15.86114,-21.84527,26.50285
64.110508442,-6.10493800000002,-6.804621,-0.678373999999999,0.9948559,-0.00723162,-0.1365811,-15.86114,-21.84527,26.50285
64.120366573,-6.35340200000001,-7.28069300000003,-0.494465,0.9899788,-0.002388457,-0.1311996,-15.86114,-21.84527,26.50285
64.130224705,-6.04282200000001,-7.51872799999999,-0.555768,0.9826286,-0.007339231,-0.1364078,-15.86114,-21.84527,26.50285
64.140082359,-5.79435800000002,-7.69725499999999,0.179868,0.9900244,-0.00237546,-0.1278457,-15.49218,-21.48678,26.11306
64.149939537,-4.55204,-8.23283600000001,-0.004041014,0.9909542,0.00445453,-0.1254053,-15.49218,-21.48678,26.11306
64.159797668,-4.055113,-9.00645199999998,0.302474,0.9903922,0.01663511,-0.1200233,-15.49218,-21.48678,26.11306
64.1696558,-5.980706,-10.0181,0.670291999999998,0.9801056,0.03216349,-0.1072865,-15.49218,-21.48678,26.11306
64.181978226,-9.64554499999997,-11.74386,1.467231,0.9694806,0.01355468,-0.1135217,-15.49218,-21.48678,26.11306
64.191835403,-12.06807,-13.29109,2.26417,0.9728419,0.002961197,-0.0916158,-15.85591,-22.20718,26.95472
64.201693535,-15.11175,-15.73096,2.325473,0.9664612,0.0009459289,-0.09489627,-15.85591,-22.20718,26.95472
64.211551189,-16.97522,-18.6469,2.018958,0.9681721,-0.01459496,-0.09073901,-15.85591,-22.20718,26.95472
64.221409321,-17.03734,-21.68186,1.65114,0.971887,-0.02864032,-0.08180571,-15.85591,-22.20718,26.95472
64.231267452,-17.16157,-25.37141,1.405928,0.9814055,-0.02556479,-0.06274743,-15.85591,-22.20718,26.95472
64.241125107,-16.4783,-28.94195,0.241171,0.9824163,-0.02115284,-0.05649501,-15.86114,-21.84527,26.50285
64.250983238,-16.72676,-32.69101,-0.004041014,0.9925129,-0.02013571,-0.06861032,-15.86114,-21.84527,26.50285
64.260840416,-17.6585,-36.55909,-1.41401,1.001308,-0.03031351,-0.07840554,-15.86114,-21.84527,26.50285
64.270698547,-18.34177,-40.07012,-2.701373,0.9928181,-0.02555433,-0.08686997,-15.86114,-21.84527,26.50285
64.280556202,-19.27351,-44.41427,-4.540462,0.9830025,-0.0612906,-0.1205756,-15.86114,-21.84527,26.50285
64.290414333,-17.72062,-48.34186,-6.80867300000001,1.010949,-0.08494885,-0.1369872,-14.73271,-22.58827,26.95269
64.300271988,-16.04349,-50.00811,-9.50600500000002,0.9829083,-0.07707591,-0.177253,-14.73271,-22.58827,26.95269
64.310130119,-15.11175,-50.96025,-11.16119,0.9638119,-0.04969144,-0.2261073,-14.73271,-22.58827,26.95269
64.319987774,-14.73905,-51.31731,-13.12288,0.9634133,-0.04638751,-0.2524297,-14.73271,-22.58827,26.95269
64.329845429,-13.68308,-49.65105,-14.34894,0.9605916,-0.04993391,-0.2830881,-14.73271,-22.58827,26.95269
64.339703083,-10.01824,-48.40137,-17.29149,0.9335371,-0.0322855,-0.3141808,-13.29042,-23.26818,27.78438
64.349561215,-7.968415,-46.02101,-19.06927,0.9388928,-0.02248059,-0.3074656,-13.29042,-23.26818,27.78438
64.36188364,-5.173199,-41.9744,-19.80491,0.9223518,0.008862576,-0.3448221,-13.29042,-23.26818,27.78438
64.371740818,-4.676272,-39.41552,-19.6823,0.9009891,0.06397036,-0.3919725,-13.29042,-23.26818,27.78438
64.38159895,-8.52745800000002,-37.45173,-19.13058,0.954426,0.08978058,-0.2535484,-12.90992,-24.00344,28.17407
64.391457081,-11.07421,-34.95235,-19.37579,0.9503124,0.0548896,-0.334769,-12.90992,-24.00344,28.17407
64.401314736,-8.96226999999999,-33.76217,-18.88536,0.947092,0.04146495,-0.4033619,-12.90992,-24.00344,28.17407
64.411172867,-10.39094,-31.14378,-18.14973,0.9932309,0.02328114,-0.3006659,-12.90992,-24.00344,28.17407
64.421030521,-12.31653,-29.65605,-17.41409,0.9633297,0.0554404,-0.3483675,-12.90992,-24.00344,28.17407
64.430888653,-12.56499,-30.54869,-16.49455,0.9584422,0.078698,-0.3634359,-12.90992,-24.00344,28.17407
64.440745831,-13.43462,-30.96525,-16.67846,1.009144,0.04266965,-0.2288491,-10.6703,-24.03468,27.7784
64.450603962,-11.63325,-31.26279,-16.06543,0.9593936,0.03600537,-0.3312242,-10.6703,-24.03468,27.7784
64.460461617,-9.21073300000001,-32.03641,-14.41025,0.9604349,0.09497225,-0.310615,-10.6703,-24.03468,27.7784
64.470319748,-14.49059,-30.54869,-13.4907,0.9470379,0.1060306,-0.3146435,-10.6703,-24.03468,27.7784
64.480177879,-14.42847,-30.31065,-10.97728,0.8722136,0.1375444,-0.428319,-10.6703,-24.03468,27.7784
64.490035534,-16.78888,-30.37016,-10.05773,0.9895034,0.1190747,-0.3103467,-9.916069,-24.77427,28.16616
64.499893665,-18.8387,-28.88244,-10.36425,0.9324005,0.004630733,-0.3291874,-9.916069,-24.77427,28.16616
64.509750843,-10.70152,-28.58489,-9.38340000000001,0.9024766,0.01663106,-0.4321668,-9.916069,-24.77427,28.16616
64.519608975,-10.08036,-28.40636,-10.11904,0.9832251,0.03373698,-0.343563,-9.916069,-24.77427,28.16616
64.5319314,-12.9998,-27.63275,-11.65161,0.9701729,-0.01551125,-0.3394798,-8.79166,-24.78098,28.60846
64.541789055,-7.968415,-27.81128,-13.4294,0.9759575,-0.006072231,-0.3016258,-8.79166,-24.78098,28.60846
64.551647186,-2.999142,-27.09717,-17.10758,0.8849687,-0.010919,-0.3411018,-8.79166,-24.78098,28.60846
64.561504364,4.206304,-26.68061,-16.49455,0.870979,0.02899361,-0.4349679,-8.79166,-24.78098,28.60846
64.571362495,4.392652,-26.20453,-17.29149,1.004542,0.04105668,-0.3883706,-8.79166,-24.78098,28.60846
64.58122015,2.218595,-23.70516,-18.76276,0.977063,0.02858433,-0.4053353,-8.037426,-25.52056,28.99622
64.591078281,3.150334,-21.86038,-17.10758,0.9370579,0.1404996,-0.4421566,-8.037426,-25.52056,28.99622
64.600936413,-0.762969199999999,-21.08677,-16.49455,0.9610602,0.187726,-0.3625531,-8.037426,-25.52056,28.99622
64.610794067,-2.626446,-19.48002,-16.67846,0.8810273,0.1319012,-0.3968651,-8.037426,-25.52056,28.99622
64.620651245,0.852044600000001,-18.23034,-13.30679,0.9078143,0.1300177,-0.4432659,-8.037426,-25.52056,28.99622
64.630509376,-1.50836,-17.3377,-11.83552,0.9340637,0.1236392,-0.3895443,-8.037426,-25.52056,28.99622
64.640367508,-3.682417,-15.49293,-10.18034,0.8996711,0.12267,-0.4369823,-6.540503,-25.90597,28.99226
64.650225162,-4.924736,-15.07636,-8.77036999999999,0.9884293,0.118145,-0.4258263,-6.540503,-25.90597,28.99226
64.660083294,-8.589575,-14.12422,-9.68991499999998,0.9642771,0.06897539,-0.3746227,-6.540503,-25.90597,28.99226
64.669940948,-7.968415,-13.17208,-7.299098,0.9008318,0.1308953,-0.4522638,-6.540503,-25.90597,28.99226
64.67979908,-8.34111100000002,-13.41011,-7.05388499999999,0.9722414,0.1555827,-0.3960484,-6.540503,-25.90597,28.99226
64.689656258,-8.40322700000003,-12.45797,-7.36040000000002,0.9262727,0.1074687,-0.4010705,-6.913477,-25.52816,29.37451
64.70197916,-4.986851,-13.11257,-5.337401,0.9230653,0.1469114,-0.386316,-6.913477,-25.52816,29.37451
64.711836815,-7.657835,-13.29109,-4.90828,0.8695347,0.1145621,-0.3220925,-6.913477,-25.52816,29.37451
64.721694946,-5.73224200000001,-13.58864,-1.720525,0.8868576,0.1488945,-0.4207647,-6.913477,-25.52816,29.37451
64.731552601,-5.91858999999999,-13.82668,-0.494465,0.9865746,0.1469621,-0.3929711,-5.791037,-26.28275,28.99217
64.741410255,-7.968415,-13.82668,-1.046192,0.9322944,0.05852328,-0.3613167,-5.791037,-26.28275,28.99217
64.75126791,-2.502215,-13.76717,-1.475313,0.8787866,0.08604473,-0.4221385,-5.791037,-26.28275,28.99217
64.761126041,-0.762969199999999,-14.18373,-2.149646,0.9262642,0.1141663,-0.4316827,-5.791037,-26.28275,28.99217
64.770983696,-1.81894,-13.76717,-3.498312,0.9347513,0.09036554,-0.4401509,-5.791037,-26.28275,28.99217
64.780841827,-2.626446,-14.24324,-3.988736,0.9338019,0.08854742,-0.4037336,-5.478842,-25.91286,29.37088
64.790699959,-2.87491,-13.23159,-5.092189,0.8939962,0.09644459,-0.4098083,-5.478842,-25.91286,29.37088
64.800557613,0.665696899999998,-12.45797,-5.153492,0.9235625,0.1031955,-0.4959495,-5.478842,-25.91286,29.37088
64.810414791,-0.01757819,-11.3273,-6.68606700000002,0.9559923,0.07010504,-0.4430206,-5.478842,-25.91286,29.37088
64.820273399,1.970131,-9.18497800000002,-9.19949100000002,0.8687259,0.01766255,-0.4666586,-5.478842,-25.91286,29.37088
64.830131054,6.25612899999998,-7.99480000000002,-8.64776299999998,0.9274515,0.1090819,-0.4926008,-5.109129,-25.18088,29.3614
64.839988708,3.336681,-6.50707600000003,-10.60946,0.9529744,0.1006785,-0.4580539,-5.109129,-25.18088,29.3614
64.84984684,3.026102,-5.79296899999998,-12.69376,0.903088,0.05789915,-0.4586624,-5.109129,-25.18088,29.3614
64.859704494,4.579,-6.09051400000001,-13.85852,0.9289948,0.08364601,-0.4017896,-5.109129,-25.18088,29.3614
64.872026443,4.951695,-6.26904100000001,-16.86237,0.8725411,0.07932091,-0.3837703,-5.109129,-25.18088,29.3614
64.881884575,9.36192499999999,-6.44756699999999,-17.5367,0.8870887,0.1200199,-0.4650981,-5.099886,-26.27908,29.82081
64.891742229,8.927114,-6.62609399999999,-17.96582,0.964817,0.1183878,-0.4350717,-5.099886,-26.27908,29.82081
64.901600361,8.30595500000002,-6.26904100000001,-18.76276,0.8893276,0.1051179,-0.4216486,-5.099886,-26.27908,29.82081
64.911458492,10.60424,-6.15002299999999,-17.96582,0.8717483,0.1738935,-0.4663416,-5.099886,-26.27908,29.82081
64.921316147,4.392652,-6.92363900000002,-15.32979,0.9178268,0.2146327,-0.3521258,-5.099886,-26.27908,29.82081
64.931173325,4.144188,-5.79296899999998,-15.82021,0.7733354,0.1556923,-0.4162142,-4.731384,-25.92149,29.36701
64.941031456,8.616534,-6.50707600000003,-10.79337,0.8955221,0.2621484,-0.4750404,-4.731384,-25.92149,29.36701
64.950889587,2.839754,-6.804621,-7.973431,0.9535798,0.2293375,-0.4080984,-4.731384,-25.92149,29.36701
64.960747242,2.280711,-6.804621,-5.827826,0.8644528,0.1495644,-0.4487126,-4.731384,-25.92149,29.36701
64.970605373,2.90187,-7.63774600000001,-3.437009,0.8912253,0.1901525,-0.4588147,-4.731384,-25.92149,29.36701
64.980463028,-0.887200999999999,-7.875782,-3.375706,0.8909046,0.08772104,-0.3930659,-3.983925,-25.93012,29.36315
64.990321159,3.150334,-7.81627300000001,-4.29525,0.8235071,0.07663154,-0.4659956,-3.983925,-25.93012,29.36315
65.000178337,3.95784,-8.29234400000002,-4.050038,0.9311869,0.1559355,-0.4644651,-3.983925,-25.93012,29.36315
65.010036469,-0.2660418,-7.57823699999997,-5.582613,0.953109,0.09925223,-0.4494423,-3.983925,-25.93012,29.36315
65.019894123,1.100508,-7.16167399999998,-6.86997699999997,0.8890687,0.1053971,-0.4762713,-3.983925,-25.93012,29.36315
65.029752254,0.04453773,-7.10216600000002,-6.25694700000002,0.8983326,0.1595286,-0.4668417,-3.602207,-26.291,30.19717
65.039610386,-2.688562,-7.45921900000001,-6.62476400000002,0.8686565,0.1570052,-0.4209161,-3.602207,-26.291,30.19717
65.051932335,-0.2660418,-7.10216600000002,-5.030886,0.827562,0.1959166,-0.4583379,-3.602207,-26.291,30.19717
65.061789989,-1.50836,-7.81627300000001,-2.088343,0.9226965,0.2376991,-0.4411317,-3.602207,-26.291,30.19717
65.071648121,-3.496069,-8.173326,-0.739677,0.9409884,0.1654387,-0.4190006,-3.602207,-26.291,30.19717
65.081505775,-1.943172,-8.94694199999997,0.179868,0.8847061,0.1620038,-0.4234987,-3.230486,-25.92717,30.19146
65.091363907,-1.756824,-9.72055899999997,0.9768069,0.8474342,0.1723888,-0.420963,-3.230486,-25.92717,30.19146
65.101221561,-0.949316900000002,-10.31565,1.528534,0.8550228,0.1577433,-0.4513843,-3.230486,-25.92717,30.19146
65.111079693,-0.576621399999998,-10.97025,1.773746,0.8647383,0.1315815,-0.4435972,-3.230486,-25.92717,30.19146
65.120937824,-0.2660418,-10.97025,1.835049,0.8477001,0.1493828,-0.4575801,-3.230486,-25.92717,30.19146
65.130795002,-0.4523896,-11.14877,2.018958,0.8891407,0.1702165,-0.4498485,-2.855543,-25.5571,30.63386
65.140652657,-0.762969199999999,-10.49417,1.283322,0.8832282,0.1331825,-0.4495976,-2.855543,-25.5571,30.63386
65.150510788,1.970131,-9.66104999999999,1.03811,0.842985,0.1487665,-0.4809988,-2.855543,-25.5571,30.63386
65.160368919,2.032247,-9.06596100000002,2.018958,0.9070507,0.1931342,-0.4796207,-2.855543,-25.5571,30.63386
65.170226574,0.4793491,-8.173326,2.448079,0.8867196,0.15542,-0.4969004,-2.855543,-25.5571,30.63386
65.180084705,0.3551173,-7.69725499999999,4.654987,0.8656228,0.1887686,-0.5078191,-3.228477,-26.29532,30.19524
65.18994236,-1.632592,-7.16167399999998,6.92319799999998,0.9224967,0.1830959,-0.4679456,-3.228477,-26.29532,30.19524
65.199800015,-0.638737399999998,-5.673951,7.16841000000002,0.8954467,0.1224114,-0.4958658,-3.228477,-26.29532,30.19524
65.209657669,2.404943,-4.781317,7.78144000000003,0.8942512,0.1461288,-0.5267966,-3.228477,-26.29532,30.19524
65.221980572,0.1687696,-2.40096,7.84274199999999,0.879523,0.1182901,-0.5191544,-3.228477,-26.29532,30.19524
65.231838226,1.783783,-0.02060275,6.616683,0.8282374,0.1196755,-0.5476429,-2.114067,-25.57732,29.79782
65.241696358,2.715522,2.478772,5.451926,0.8800873,0.1069514,-0.5595109,-2.114067,-25.57732,29.79782
65.251553536,2.342827,4.799621,3.551533,0.8844664,0.05466074,-0.4996355,-2.114067,-25.57732,29.79782
65.261411667,6.194014,6.70390699999997,1.65114,0.8093224,0.09185932,-0.5241273,-2.114067,-25.57732,29.79782
65.271269322,3.709377,7.06096099999998,1.896352,0.8694506,0.1762201,-0.4892908,-2.114067,-25.57732,29.79782
65.281127453,-0.949316900000002,7.53703199999998,3.367624,0.8634537,0.1529675,-0.447232,-2.483028,-25.9358,30.1876
65.290985107,-0.4523896,7.35850499999998,6.49407700000001,0.8778071,0.2727038,-0.4732612,-2.483028,-25.9358,30.1876
65.300843239,-4.862619,6.16832699999998,9.62052900000003,0.9419867,0.2472048,-0.4173664,-2.483028,-25.9358,30.1876
65.31070137,-2.005287,4.918639,11.64353,0.8957332,0.132528,-0.3941942,-2.483028,-25.9358,30.1876
65.320559025,2.839754,2.954844,13.1148,0.8531195,0.1714116,-0.4354282,-2.483028,-25.9358,30.1876
65.330416203,0.1687696,1.169576,13.1761,0.8663046,0.1288284,-0.4029108,-3.233248,-25.93252,29.80738
65.340274334,1.53532,0.633995499999999,12.62438,0.8011006,0.06438918,-0.4336732,-3.233248,-25.93252,29.80738
65.350132465,3.95784,-0.1991295,11.95004,0.8745926,0.1359471,-0.470536,-3.233248,-25.93252,29.80738
65.35999012,0.4793491,-0.2586385,10.60138,0.9500267,0.09186089,-0.466712,-3.233248,-25.93252,29.80738
65.369848251,-0.762969199999999,0.2769419,8.94619699999999,0.8999267,0.04183237,-0.4534817,-3.233248,-25.93252,29.80738
65.379705906,1.22474,0.812522400000002,6.80059199999999,0.8279651,0.06643357,-0.4709372,-3.227266,-25.92093,30.63956
65.392027855,1.783783,1.169576,5.75844100000001,0.8551399,0.1017658,-0.4561712,-3.227266,-25.92093,30.63956
65.401885986,3.709377,1.348103,5.75844100000001,0.8821871,0.1258325,-0.4606664,-3.227266,-25.92093,30.63956
65.411743641,3.771493,1.407612,7.16841000000002,0.8650429,0.1772913,-0.4527998,-3.227266,-25.92093,30.63956
65.421601772,1.845899,1.169576,11.45962,0.862515,0.2643685,-0.4539456,-3.227266,-25.92093,30.63956
65.431459904,-2.377983,0.574486600000003,15.44431,0.8566748,0.2625073,-0.417459,-2.853537,-25.92525,30.63763
65.441317558,-2.129519,-0.02060275,20.71637,0.8233064,0.2407012,-0.4440025,-2.853537,-25.92525,30.63763
65.45117569,-1.881056,-0.853727799999997,27.3984,0.9462802,0.2612361,-0.4489363,-2.853537,-25.92525,30.63763
65.461032868,-3.620301,-0.675201100000001,31.62831,0.9837686,0.1662316,-0.4382924,-2.853537,-25.92525,30.63763
65.470890999,-0.3902737,0.693504499999999,32.05743,0.8548746,0.06800254,-0.5053307,-2.853537,-25.92525,30.63763
65.480748654,3.523029,1.645648,33.71261,0.843071,0.04528698,-0.5657333,-4.35368,-25.54607,30.19349
65.490606785,1.473204,3.966496,33.59,0.9170462,0.02413688,-0.5410894,-4.35368,-25.54607,30.19349
65.50046444,-1.011433,7.83457700000001,29.85052,0.9342328,-0.03805079,-0.5552767,-4.35368,-25.54607,30.19349
65.510322571,-0.3902737,11.88118,25.68192,0.9432601,-0.07612635,-0.6084387,-4.35368,-25.54607,30.19349
65.520180702,-0.949316900000002,16.22534,21.2068,0.9292575,-0.06399389,-0.5841767,-4.35368,-25.54607,30.19349
65.53003788,-0.2660418,20.27194,16.73168,0.9024829,-0.05443037,-0.565984,-3.97995,-25.55039,30.19156
65.539895535,1.783783,23.9615,14.15695,0.8927458,0.02627159,-0.5632473,-3.97995,-25.55039,30.19156
65.549753666,1.473204,27.11547,12.68568,0.9024003,0.07172644,-0.5328118,-3.97995,-25.55039,30.19156
65.559611797,1.783783,29.85288,12.93089,0.8848094,0.09989329,-0.5064466,-3.97995,-25.55039,30.19156
65.571934223,2.715522,31.63815,15.0765,0.9138519,0.1202177,-0.475541,-3.97995,-25.55039,30.19156
65.581792354,2.653406,33.06636,17.2221,0.9577461,0.112405,-0.4565854,-5.099133,-25.90559,30.20112
65.591649532,3.21245,34.19703,18.14165,0.9429631,0.09577993,-0.4430974,-5.099133,-25.90559,30.20112
65.601507187,3.895725,34.85163,18.26425,0.9222535,0.04992829,-0.423542,-5.099133,-25.90559,30.20112
65.611365318,5.883434,35.50623,17.52862,0.9192531,0.00656669,-0.430574,-5.099133,-25.90559,30.20112
65.62122345,7.125752,36.45837,16.54777,0.9464406,-0.01850235,-0.4321315,-5.099133,-25.90559,30.20112
65.631081104,6.93940400000002,37.35101,14.64738,0.9160663,-0.02220127,-0.4384386,-6.538536,-25.15809,29.8169
65.640939236,6.44247700000002,37.88659,12.31786,0.90401,-0.01249562,-0.4171,-6.538536,-25.15809,29.8169
65.65079689,6.25612899999998,38.24364,10.72398,0.9652125,-0.02791498,-0.3912673,-6.538536,-25.15809,29.8169
65.660654068,5.94554899999998,38.77922,7.84274199999999,0.9710003,-0.04239814,-0.3742208,-6.538536,-25.15809,29.8169
65.670512199,7.68479500000002,39.19579,5.94235,0.9666954,-0.04289746,-0.3674549,-6.538536,-25.15809,29.8169
65.680370331,10.79059,39.67186,4.287169,0.9374471,-0.04046902,-0.4293135,-6.917032,-24.79098,29.43098
65.690227985,11.41175,39.37431,2.999806,0.9038916,0.008464384,-0.4073375,-6.917032,-24.79098,29.43098
65.700086117,12.21926,39.43382,2.754594,0.9115823,0.04085294,-0.3530242,-6.917032,-24.79098,29.43098
65.709943771,12.34349,38.71971,2.570685,0.9438947,0.04114631,-0.3510863,-6.917032,-24.79098,29.43098
65.719801903,14.02062,37.52953,3.306321,0.9316078,0.06578609,-0.369392,-6.917032,-24.79098,29.43098
65.729660034,12.28137,36.51788,4.164563,0.9264057,0.1019182,-0.3244474,-8.044201,-24.78961,28.6046
65.741981983,10.48001,35.38721,5.94235,0.9587309,0.08965652,-0.2967388,-8.044201,-24.78961,28.6046
65.751839638,9.98308400000002,34.31605,6.80059199999999,0.9861231,0.06220471,-0.2853809,-8.044201,-24.78961,28.6046
65.761697769,9.98308400000002,33.66145,8.21056099999999,0.9883106,0.03397067,-0.2933175,-8.044201,-24.78961,28.6046
65.771555424,8.11960699999999,33.12587,10.17226,0.9926542,0.02129896,-0.3088208,-8.044201,-24.78961,28.6046
65.781413555,7.436332,34.55409,10.72398,0.9782252,0.01001009,-0.300564,-9.540375,-24.0307,28.98886
65.791271687,7.436332,35.20869,10.66268,0.9426801,0.006811674,-0.2909796,-9.540375,-24.0307,28.98886
65.801128864,5.94554899999998,35.14918,10.23356,0.9292908,0.01006065,-0.3013037,-9.540375,-24.0307,28.98886
65.810986519,6.93940400000002,35.86329,9.13010500000001,0.9496463,-0.01799369,-0.3042266,-9.540375,-24.0307,28.98886
65.82084465,8.36807099999998,36.69641,10.17226,0.9542038,-0.05243948,-0.2873311,-9.540375,-24.0307,28.98886
65.830702782,12.7783,35.38721,7.90404600000002,0.9322159,-0.04410939,-0.3497225,-11.04328,-23.65687,28.16064
65.840560436,18.30662,35.08967,7.47492499999999,0.9491094,-0.02449374,-0.3493186,-11.04328,-23.65687,28.16064
65.850418568,20.79125,37.82708,8.087955,0.9798613,-0.02006375,-0.278798,-11.04328,-23.65687,28.16064
65.860276222,21.10183,37.64855,5.697138,0.9338557,-0.01950078,-0.2795751,-11.04328,-23.65687,28.16064
65.870134354,25.38783,36.57739,5.574532,0.9139673,-0.01425992,-0.2624754,-11.04328,-23.65687,28.16064
65.879991531,26.19534,35.2682,6.43277400000002,0.9392894,0.03754924,-0.2614407,-11.78873,-24.01639,28.16828
65.889849663,23.95916,37.05346,7.53622799999999,0.9490238,0.05812732,-0.2470298,-11.78873,-24.01639,28.16828
65.899707317,21.59876,36.93444,8.455772,0.9403886,0.05321562,-0.2388018,-11.78873,-24.01639,28.16828
65.909565449,22.34415,36.6369,10.41747,0.9373017,0.0681462,-0.2726549,-11.78873,-24.01639,28.16828
65.921887875,22.1578,37.70806,12.01135,0.965192,0.05534804,-0.2477629,-11.78873,-24.01639,28.16828
65.931745052,20.91548,39.37431,13.85044,0.9915913,0.02690705,-0.238316,-12.54464,-22.97002,27.77737
65.941603184,17.49911,40.26694,15.62822,0.9871758,0.0313936,-0.1994,-12.54464,-22.97002,27.77737
65.951461315,11.53598,39.61235,18.08034,0.9508969,0.05972066,-0.2158951,-12.54464,-22.97002,27.77737
65.96131897,6.56670899999998,38.54119,18.63207,0.9773118,0.04091341,-0.2327231,-12.54464,-22.97002,27.77737
65.971177101,3.95784,40.68351,18.87728,1.018469,-0.0170209,-0.2074426,-12.54464,-22.97002,27.77737
65.981034756,2.963986,41.21909,16.79298,0.9685572,-0.1021481,-0.2112833,-13.29812,-21.85694,27.76992
65.990892887,6.194014,40.44547,15.81213,0.9723371,-0.124963,-0.2053001,-13.29812,-21.85694,27.76992
66.000751019,9.17557700000001,41.21909,14.58607,1.012773,-0.1298863,-0.1862708,-13.29812,-21.85694,27.76992
66.010608196,10.10732,42.23074,13.23741,1.02,-0.1287414,-0.1576121,-13.29812,-21.85694,27.76992
66.020465851,11.16329,41.2786,11.33701,1.005374,-0.1015163,-0.1298596,-13.29812,-21.85694,27.76992
66.030323982,11.53598,40.02891,9.13010500000001,0.9989089,-0.08975017,-0.09133215,-14.80102,-21.48311,26.9417
66.040182114,8.181723,37.58904,7.29101600000001,0.9645292,-0.05982235,-0.074776,-14.80102,-21.48311,26.9417
66.050039768,2.777638,34.31605,6.677986,0.9376441,-0.03710822,-0.05311636,-14.80102,-21.48311,26.9417
66.0598979,0.4793491,30.26944,5.94235,0.9643801,-0.05875324,-0.04888809,-14.80102,-21.48311,26.9417
66.069755554,2.218595,26.57989,4.409775,0.9821614,-0.0814953,-0.05652143,-14.80102,-21.48311,26.9417
66.079613686,5.448622,23.78297,2.693291,0.9886997,-0.07845861,-0.04077541,-16.24365,-20.74185,26.10938
66.091935635,6.00766600000002,19.43882,1.099413,0.9785368,-0.067289,-0.02280592,-16.24365,-20.74185,26.10938
66.101793766,4.703231,15.15418,0.118565,0.9657831,-0.05325301,-0.0129217,-16.24365,-20.74185,26.10938
66.111651421,2.032247,10.27444,-0.310556,0.9557806,-0.04789635,0.01170523,-16.24365,-20.74185,26.10938
66.121509552,-1.135665,5.097166,-0.862282899999999,0.9573953,-0.05809415,0.01351295,-16.24365,-20.74185,26.10938
66.131367207,-3.18549,0.2769419,-1.291404,0.9605868,-0.0522715,0.001536624,-16.61537,-21.10568,26.11509
66.141225338,-5.79435800000002,-4.06721,-1.965737,0.9727767,-0.03863937,-0.02535724,-16.61537,-21.10568,26.11509
66.151083469,-7.59572000000002,-7.22118300000002,-2.333555,0.9892254,-0.05465593,-0.05304121,-16.61537,-21.10568,26.11509
66.160940647,-6.66398099999999,-9.00645199999998,-2.762676,0.99526,-0.06640969,-0.08724957,-16.61537,-21.10568,26.11509
66.170798302,-5.173199,-10.61319,-2.946585,0.9967493,-0.04797305,-0.1053248,-16.61537,-21.10568,26.11509
66.180656433,-5.235315,-10.97025,-2.823979,1.005309,-0.04161832,-0.1178523,-16.9891,-21.10137,26.11702
66.190514088,-2.937026,-10.25614,-2.762676,1.014985,-0.04706782,-0.1664354,-16.9891,-21.10137,26.11702
66.200372219,-0.14181,-7.99480000000002,-2.885282,1.017073,-0.05593654,-0.2005631,-16.9891,-21.10137,26.11702
66.210230351,3.833609,-5.495424,-2.64007,1.013292,-0.04679224,-0.2186417,-16.9891,-21.10137,26.11702
66.220088005,5.82131799999998,-2.222434,-2.456161,1.018673,-0.05065051,-0.2221053,-16.9891,-21.10137,26.11702
66.229946137,6.62882499999999,1.050558,-1.904434,1.013715,-0.05936529,-0.1986274,-16.2444,-21.11535,25.72907
66.239803314,7.00151999999998,3.906987,-1.352707,1.025054,-0.05142905,-0.1853045,-16.2444,-21.11535,25.72907
66.249661446,7.00151999999998,5.632746,-1.904434,1.017874,-0.04314937,-0.1664435,-16.2444,-21.11535,25.72907
66.261983872,5.697086,7.12047000000002,-1.659222,1.012056,-0.06453308,-0.1454563,-16.2444,-21.11535,25.72907
66.271842003,7.18786800000001,7.477523,-1.536616,1.008555,-0.06347366,-0.1142494,-16.2444,-21.11535,25.72907
66.281699658,7.871143,6.46587099999998,-1.904434,1.001505,-0.02551027,-0.09561899,-16.24365,-20.74185,26.10938
66.291557789,5.697086,5.930291,-1.659222,0.9881741,-0.01345646,-0.09388968,-16.24365,-20.74185,26.10938
66.301414967,4.330536,4.740112,-1.475313,0.992108,-0.04208617,-0.08172818,-16.24365,-20.74185,26.10938
66.311273098,4.703231,4.145023,-1.230101,0.9950411,-0.04743127,-0.08660708,-16.24365,-20.74185,26.10938
66.321130753,4.765347,3.133371,-1.352707,0.9961246,-0.02116355,-0.09167203,-16.24365,-20.74185,26.10938
66.330988884,2.342827,2.776317,-0.862282899999999,0.9986002,-0.03138617,-0.09850239,-16.24164,-21.11,26.11316
66.340846539,1.908015,2.181228,-0.739677,0.995753,-0.04701035,-0.1057817,-16.24164,-21.11,26.11316
66.35070467,1.721668,1.824174,-0.800980000000001,0.9961619,-0.03970552,-0.1052466,-16.24164,-21.11,26.11316
66.360562801,-0.2039259,1.52663,-0.800980000000001,0.9999458,-0.03433729,-0.1100473,-16.24164,-21.11,26.11316
66.370420456,-1.694708,1.050558,-0.617070999999998,1.000352,-0.04216837,-0.1230575,-16.24164,-21.11,26.11316
66.380277634,-2.129519,1.050558,-0.678373999999999,0.9895744,-0.04519739,-0.1267631,-16.61014,-21.46759,26.56695
66.390135765,-2.750678,0.753013400000002,-0.800980000000001,0.9834508,-0.03702178,-0.1381076,-16.61014,-21.46759,26.56695
66.399993897,-3.558185,0.633995499999999,-0.923585999999997,0.9847322,-0.02632085,-0.1423483,-16.61014,-21.46759,26.56695
66.409851551,-4.427808,0.812522400000002,-0.494465,0.9882542,-0.03016849,-0.1385974,-16.61014,-21.46759,26.56695
66.419709683,-4.986851,1.288594,-0.310556,0.9784547,-0.05014175,-0.1213751,-16.61014,-21.46759,26.56695
66.429567337,-5.85647399999998,0.633995499999999,-0.371859,0.9754988,-0.02966816,-0.1048674,-16.24641,-20.7472,25.7253
66.44189024,-9.334966,-0.4966742,-0.617070999999998,0.9550214,-0.03031882,-0.1002683,-16.24641,-20.7472,25.7253
66.451747894,-12.00595,-0.9727457,0.670291999999998,0.9746342,-0.03208552,-0.0986459,-16.24641,-20.7472,25.7253
66.461605072,-12.81346,-0.3181474,0.915504000000002,0.9753591,-0.03103751,-0.08043782,-16.24641,-20.7472,25.7253
66.471463204,-13.24827,-1.151272,0.9768069,0.9630227,-0.02642914,-0.1199967,-16.24641,-20.7472,25.7253
66.481321335,-14.24212,-2.519978,1.160716,0.9564609,-0.04384899,-0.07835979,-16.61336,-21.47383,26.11886
66.49117899,-14.36635,-5.554934,1.03811,0.9576591,-0.03094856,-0.01501368,-16.61336,-21.47383,26.11886
66.501037121,-15.91925,-10.0181,0.608988999999997,0.9821562,-0.04585625,-0.02555182,-16.61336,-21.47383,26.11886
66.510894776,-18.40389,-12.16043,0.547686,0.9992333,-0.02583514,-0.04719023,-16.61336,-21.47383,26.11886
66.520752907,-20.70218,-13.52913,0.670291999999998,0.9818287,-0.02606749,-0.0680289,-16.61336,-21.47383,26.11886
66.530610085,-21.13699,-17.27819,0.608988999999997,0.9880573,-0.03874241,-0.08883022,-16.24239,-21.48349,25.73284
66.540468216,-21.50969,-19.53953,0.547686,1.015234,-0.03647394,-0.06715523,-16.24239,-21.48349,25.73284
66.550325871,-19.45986,-19.36101,0.486383,1.019937,-0.0317372,-0.1127062,-16.24239,-21.48349,25.73284
66.560184002,-17.16157,-21.62235,-1.046192,1.004882,-0.0529693,-0.1591532,-16.24239,-21.48349,25.73284
66.570042133,-15.67079,-22.69351,-1.720525,1.005836,-0.05589687,-0.1635043,-16.24239,-21.48349,25.73284
66.579899788,-14.86328,-22.69351,-1.41401,1.01732,-0.05901327,-0.1133783,-16.61734,-21.85356,25.29045
66.589757919,-12.00595,-22.75302,-1.843131,1.027057,-0.05530446,-0.1853657,-16.61734,-21.85356,25.29045
66.599615574,-6.726097,-23.05056,-3.437009,1.024289,-0.1013113,-0.2494481,-16.61734,-21.85356,25.29045
66.611937523,-2.564331,-21.80087,-5.092189,1.012517,-0.07478962,-0.156571,-16.61734,-21.85356,25.29045
66.621795654,-1.19778,-21.86038,-5.337401,1.003196,-0.02410387,-0.1138408,-16.61734,-21.85356,25.29045
66.631653786,-3.123374,-22.87203,-5.95043100000002,0.9828567,-0.003503572,-0.1521922,-16.23637,-22.58794,25.74415
66.64151144,-4.427808,-24.53828,-6.44085600000001,1.011609,-0.01974373,-0.1388423,-16.23637,-22.58794,25.74415
66.651369572,-3.620301,-25.07386,-7.72821799999999,1.002693,-0.06414685,-0.1501115,-16.23637,-22.58794,25.74415
66.661227226,-1.073549,-25.90699,-9.444703,0.9902786,-0.1182306,-0.1393695,-16.23637,-22.58794,25.74415
66.671085358,2.715522,-26.44257,-10.67076,0.9929154,-0.09534298,-0.1411307,-16.23637,-22.58794,25.74415
66.680942535,4.082072,-26.50208,-12.01943,0.9840013,-0.08728729,-0.177834,-15.48816,-22.22308,26.1206
66.690800667,4.765347,-25.60945,-12.75506,0.9707788,-0.07400837,-0.238871,-15.48816,-22.22308,26.1206
66.700658321,4.641116,-24.71681,-13.4294,0.9828892,-0.05573456,-0.1957614,-15.48816,-22.22308,26.1206
66.710516453,4.703231,-22.15793,-13.98112,0.9649935,-0.04048367,-0.2389848,-15.48816,-22.22308,26.1206
66.720374107,3.088217,-21.44382,-13.4294,0.9703519,-0.02872502,-0.2303364,-15.48816,-22.22308,26.1206
66.730232239,-0.5145055,-21.02726,-13.24549,0.9697105,0.03407329,-0.2221301,-14.79776,-22.5929,26.56893
66.74009037,-7.657835,-23.11007,-14.10373,1.00393,0.01999331,-0.1647535,-14.79776,-22.5929,26.56893
66.749948025,-15.79502,-26.26404,-14.34894,1.016371,-0.001049766,-0.09610364,-14.79776,-22.5929,26.56893
66.759806156,-20.14314,-27.63275,-14.59415,0.9578601,-0.01740856,-0.1677669,-14.79776,-22.5929,26.56893
66.769663334,-20.0189,-31.85788,-16.00412,0.9857283,-0.0826711,-0.1188781,-14.79776,-22.5929,26.56893
66.78198576,-13.93154,-29.17998,-18.21103,0.9203373,-0.1248404,-0.1796395,-14.04679,-22.22269,27.32946
66.791843891,1.100508,-28.10882,-18.57885,0.8758329,-0.1533831,-0.4188458,-14.04679,-22.22269,27.32946
66.801702023,12.59195,-30.37016,-21.644,1.005238,-0.06184348,-0.3202442,-14.04679,-22.22269,27.32946
66.811559677,8.24383799999998,-28.04931,-24.52524,1.03689,0.04439454,-0.09409578,-14.04679,-22.22269,27.32946
66.821417808,4.827463,-28.28735,-24.89306,0.9729675,0.01341521,-0.2884803,-14.04679,-22.22269,27.32946
66.831275463,2.90187,-31.73886,-24.21873,1.014499,0.01732209,-0.2530993,-12.54296,-23.27681,27.78051
66.841133118,1.038392,-30.90574,-25.50609,0.9177412,0.0365105,-0.2280776,-12.54296,-23.27681,27.78051
66.850990772,0.2308855,-33.70266,-24.40263,0.9090462,0.04316401,-0.2499407,-12.54296,-23.27681,27.78051
66.860848904,-2.688562,-37.2732,-24.09612,1.013578,0.06229902,-0.06581885,-12.54296,-23.27681,27.78051
66.870706558,-8.15476299999998,-36.38056,-24.70915,0.9093296,0.075956,-0.2003104,-12.54296,-23.27681,27.78051
66.88056469,-7.968415,-40.84373,-23.85091,0.9186574,0.03658412,-0.3402227,-12.53819,-23.63961,28.16837
66.890422821,-9.83189300000001,-42.86703,-25.7513,0.9981694,-0.02494424,-0.1961986,-12.53819,-23.63961,28.16837
66.900280476,-7.968415,-42.50998,-26.79345,0.8840278,-0.01943469,-0.2740724,-12.53819,-23.63961,28.16837
66.910138607,-1.50836,-45.42592,-24.83175,0.9126363,0.07847662,-0.3143858,-12.53819,-23.63961,28.16837
66.919996262,-5.173199,-46.02101,-25.07697,0.9739772,0.1288722,-0.2563724,-12.53819,-23.63961,28.16837
66.929853916,-8.46534299999998,-45.72346,-24.21873,0.9063442,0.1336918,-0.3684588,-10.65955,-24.3859,28.99843
66.939711571,-10.70152,-47.74677,-22.44094,0.9374343,0.1250362,-0.2846359,-10.65955,-24.3859,28.99843
66.952033997,-11.07421,-47.03266,-19.92752,0.9126571,0.1084823,-0.3582192,-10.65955,-24.3859,28.99843
66.961892128,-9.769777,-46.49708,-16.00412,0.9560394,0.1667873,-0.3545118,-10.65955,-24.3859,28.99843
66.971750259,-11.75749,-44.41427,-13.85852,0.9474331,0.1972541,-0.3848008,-10.65955,-24.3859,28.99843
66.981607914,-13.80731,-43.04556,-10.79337,0.9632264,0.1919268,-0.4152604,-8.787687,-24.40125,29.43687
66.991466045,-16.54041,-41.55784,-9.62861199999999,0.9669533,0.1560498,-0.3887812,-8.787687,-24.40125,29.43687
67.001323223,-16.4783,-39.89159,-8.46385500000002,0.8968249,0.0778876,-0.4339652,-8.787687,-24.40125,29.43687
67.011181355,-14.61482,-38.76092,-6.86997699999997,0.9322147,0.08969463,-0.4832483,-8.787687,-24.40125,29.43687
67.021039009,-15.60867,-37.03516,-7.23779399999997,0.9659827,0.0362099,-0.4218851,-8.787687,-24.40125,29.43687
67.030897141,-16.4783,-35.48793,-7.605612,0.9107445,0.04207872,-0.413381,-7.668465,-25.16208,28.60643
67.040754795,-13.3725,-34.23824,-6.80867300000001,0.948148,0.1045597,-0.449806,-7.668465,-25.16208,28.60643
67.050612926,-15.60867,-33.34561,-9.01558199999998,0.9443787,0.0849544,-0.3488067,-7.668465,-25.16208,28.60643
67.060471058,-10.70152,-31.85788,-11.22249,0.8662155,0.02641058,-0.4636738,-7.668465,-25.16208,28.60643
67.070328712,-3.806649,-31.56034,-12.20334,0.9536716,0.03971387,-0.4964351,-7.668465,-25.16208,28.60643
67.080186844,-4.489924,-30.48918,-14.59415,0.9777468,0.03192657,-0.4240057,-6.918247,-25.16536,28.98666
67.090044022,-2.502215,-28.76342,-17.23018,0.9102271,0.02679612,-0.464777,-6.918247,-25.16536,28.98666
67.099902153,-2.440099,-29.06096,-18.21103,0.9440061,0.08387169,-0.3770833,-6.918247,-25.16536,28.98666
67.109759808,-3.371838,-26.38306,-20.41794,0.8405302,0.06677269,-0.4102551,-6.918247,-25.16536,28.98666
67.119617939,2.032247,-25.3119,-20.11142,0.9057818,0.1082264,-0.5397399,-6.918247,-25.16536,28.98666
67.131940365,0.3551173,-23.2886,-19.6823,0.9619708,0.124599,-0.4589387,-5.480389,-25.54382,29.43112
67.141798496,1.783783,-20.84873,-20.60185,0.875587,0.1120372,-0.4903991,-5.480389,-25.54382,29.43112
67.151656151,4.019956,-20.49168,-20.23403,0.9103457,0.1512753,-0.4900841,-5.480389,-25.54382,29.43112
67.161513805,0.976276499999999,-19.77757,-20.54054,0.9148064,0.09203754,-0.4662085,-5.480389,-25.54382,29.43112
67.17137146,1.100508,-18.58739,-19.31449,0.8812578,0.1056854,-0.5106599,-5.480389,-25.54382,29.43112
67.181229591,-2.377983,-18.94444,-18.33364,0.9308832,0.162331,-0.4452388,-4.351213,-25.91333,30.26127
67.191087246,-5.297431,-18.34936,-19.00797,0.8864417,0.1108294,-0.4488736,-4.351213,-25.91333,30.26127
67.200945377,-2.937026,-18.17083,-17.90452,0.9139724,0.1479458,-0.4781839,-4.351213,-25.91333,30.26127
67.210803509,-3.682417,-18.46837,-19.25318,0.9087144,0.1306274,-0.4126048,-4.351213,-25.91333,30.26127
67.220661163,-0.700853300000001,-17.9923,-20.47924,0.8379631,0.1015985,-0.4602406,-4.351213,-25.91333,30.26127
67.230519295,1.908015,-19.12297,-19.98882,0.8923154,0.1786108,-0.4249045,-3.231239,-26.30066,29.81115
67.240376949,-0.949316900000002,-19.24199,-20.66315,0.815423,0.1566933,-0.3784696,-3.231239,-26.30066,29.81115
67.250235081,3.026102,-20.01561,-17.6593,0.8121898,0.2370872,-0.4731058,-3.231239,-26.30066,29.81115
67.260092259,0.665696899999998,-21.9794,-13.91982,0.9255403,0.3112861,-0.4189872,-3.231239,-26.30066,29.81115
67.26995039,-3.123374,-23.11007,-11.65161,0.9094231,0.240628,-0.4073738,-3.231239,-26.30066,29.81115
67.279808044,-1.322012,-24.41927,-7.85082399999998,0.8442937,0.2719852,-0.4560177,-2.483782,-26.3093,29.80729
67.289666176,-0.638737399999998,-26.14503,-4.601766,0.8617796,0.2483177,-0.450237,-2.483782,-26.3093,29.80729
67.301988602,1.473204,-26.68061,-0.433162,0.8152049,0.2127247,-0.4886888,-2.483782,-26.3093,29.80729
67.311846733,1.411088,-27.75177,3.061109,0.8467208,0.2503843,-0.5123009,-2.483782,-26.3093,29.80729
67.321704388,-1.943172,-27.39471,4.900199,0.8921985,0.1861187,-0.4986362,-2.483782,-26.3093,29.80729
67.331562042,-1.756824,-26.6211,5.75844100000001,0.8789455,0.1454661,-0.5376055,-1.736322,-26.31793,29.80342
67.341419697,-2.315867,-26.08552,4.900199,0.8830173,0.1431047,-0.5280996,-1.736322,-26.31793,29.80342
67.351277828,-2.315867,-24.6573,2.631988,0.8406705,0.05859558,-0.5147917,-1.736322,-26.31793,29.80342
67.361135483,0.914160499999999,-23.46712,0.486383,0.8183421,0.07916938,-0.5555109,-1.736322,-26.31793,29.80342
67.370993614,1.162624,-21.80087,-2.088343,0.8675603,0.09419961,-0.5565647,-1.736322,-26.31793,29.80342
67.380851746,1.22474,-20.19413,-4.90828,0.8471804,0.08039464,-0.5563908,-0.9928799,-25.59027,29.79202
67.3907094,1.348972,-19.06346,-7.48300600000001,0.8385506,0.09647822,-0.5292969,-0.9928799,-25.59027,29.79202
67.400567532,1.411088,-18.05181,-9.75121799999998,0.8441024,0.114992,-0.5364078,-0.9928799,-25.59027,29.79202
67.410425186,1.721668,-17.69476,-10.54816,0.8612158,0.1418586,-0.5493633,-0.9928799,-25.59027,29.79202
67.420282841,1.53532,-17.27819,-11.16119,0.8786961,0.1615064,-0.5417795,-0.9928799,-25.59027,29.79202
67.430140495,1.162624,-16.74261,-11.09988,0.8614296,0.1578959,-0.5554606,-0.6099052,-26.69279,30.2495
67.439998627,2.90187,-16.50458,-11.03858,0.8393346,0.1610952,-0.5584731,-0.6099052,-26.69279,30.2495
67.449856281,2.59129,-17.21869,-9.50600500000002,0.8554257,0.1895405,-0.5373775,-0.6099052,-26.69279,30.2495
67.459714413,1.411088,-17.09967,-8.52515800000002,0.8474155,0.1710015,-0.5311903,-0.6099052,-26.69279,30.2495
67.469572544,1.783783,-17.3377,-7.48300600000001,0.8539665,0.1905063,-0.5359111,-0.6099052,-26.69279,30.2495
67.48189497,0.4793491,-17.63525,-7.05388499999999,0.8671689,0.1842748,-0.5419022,0.5072651,-25.96944,30.23616
67.491752625,-0.638737399999998,-18.23034,-6.50215799999997,0.8658149,0.1649002,-0.514732,0.5072651,-25.96944,30.23616
67.501610279,0.976276499999999,-18.23034,-7.36040000000002,0.8119099,0.1551205,-0.5298599,0.5072651,-25.96944,30.23616
67.511467934,2.342827,-18.46837,-7.78952099999999,0.8043645,0.2017309,-0.5399014,0.5072651,-25.96944,30.23616
67.521326065,2.342827,-18.28985,-9.19949100000002,0.7675861,0.1249992,-0.5419415,0.5072651,-25.96944,30.23616
67.53118372,5.013811,-18.28985,-9.444703,0.7419224,0.1524033,-0.5700965,1.256731,-26.34622,30.23607
67.541041851,3.771493,-17.81377,-8.64776299999998,0.7933089,0.2077637,-0.5919256,1.256731,-26.34622,30.23607
67.550899983,0.976276499999999,-17.04016,-8.40255200000002,0.8027943,0.1806948,-0.5659333,1.256731,-26.34622,30.23607
67.560757637,1.721668,-15.61194,-6.80867300000001,0.7983754,0.1990687,-0.5868,1.256731,-26.34622,30.23607
67.570615768,0.976276499999999,-13.05306,-7.17649099999998,0.8024738,0.2306205,-0.6172609,1.256731,-26.34622,30.23607
67.580473423,1.411088,-10.97025,-6.31824899999999,0.8039541,0.1790203,-0.6258639,2.37867,-25.98568,30.61059
67.590331554,2.839754,-8.82792499999998,-5.092189,0.79627,0.1472569,-0.6432736,2.37867,-25.98568,30.61059
67.600188732,1.659552,-7.16167399999998,-3.988736,0.831505,0.1700312,-0.6224988,2.37867,-25.98568,30.61059
67.610046863,1.100508,-4.424263,-3.559615,0.776436,0.1627661,-0.6131497,2.37867,-25.98568,30.61059
67.619904518,2.529174,-2.222434,-3.437009,0.749357,0.2292301,-0.603098,2.37867,-25.98568,30.61059
67.629762649,1.286856,-0.913236799999997,-2.456161,0.741853,0.2438998,-0.5664482,2.004942,-25.98136,30.61252
67.639620781,0.976276499999999,0.574486600000003,0.05726198,0.6524736,0.2644942,-0.5731469,2.004942,-25.98136,30.61252
67.651943207,0.541465,0.217433,3.980654,0.7139825,0.3183553,-0.4997722,2.004942,-25.98136,30.61252
67.661801338,2.342827,0.0984151199999999,5.94235,0.718761,0.2576082,-0.4898106,2.004942,-25.98136,30.61252
67.671658516,7.37421599999999,-0.734709999999998,8.149258,0.7247912,0.2901467,-0.5212491,2.004942,-25.98136,30.61252
67.68151617,7.93325900000001,-1.389308,10.54007,0.7994546,0.2418522,-0.4700089,2.004942,-25.98136,30.61252
67.691374302,9.73461999999998,-2.043907,12.80829,0.7171248,0.2360652,-0.521117,2.004942,-25.98136,30.61252
67.701232433,10.35578,-2.758014,16.85428,0.7992813,0.2501853,-0.5830271,2.004942,-25.98136,30.61252
67.711090088,6.81517300000003,-2.817523,19.98074,0.9269378,0.1894404,-0.6030896,2.004942,-25.98136,30.61252
67.720948219,6.00766600000002,-1.508326,22.06504,0.9374719,0.1261363,-0.6397139,2.004942,-25.98136,30.61252
67.730805874,6.13189700000002,-0.675201100000001,23.96543,0.9813337,0.1302498,-0.6843907,2.37591,-25.99103,30.22651
67.740664005,0.541465,2.240737,22.73937,0.9128271,0.08206159,-0.6560274,2.37591,-25.99103,30.22651
67.750522137,-0.14181,5.394711,20.22595,0.778722,0.04814403,-0.6898631,2.37591,-25.99103,30.22651
67.760379791,2.032247,8.370157,17.77383,0.7587565,0.06640984,-0.702842,2.37591,-25.99103,30.22651
67.770236969,2.280711,12.23824,15.56692,0.7759163,0.05596658,-0.6734643,2.37591,-25.99103,30.22651
67.7800951,4.144188,16.10632,14.21825,0.7900845,0.08866305,-0.6820159,1.629959,-25.2354,30.99099
67.789952755,4.206304,19.55784,14.15695,0.8244005,0.1415804,-0.6662448,1.629959,-25.2354,30.99099
67.799810886,2.59129,21.93819,14.46347,0.8686241,0.1488616,-0.6457289,1.629959,-25.2354,30.99099
67.809669018,2.715522,24.6161,15.1991,0.8837684,0.1466841,-0.6133776,1.629959,-25.2354,30.99099
67.821991444,3.150334,26.93694,15.1991,0.8678111,0.1685643,-0.5803799,2.005697,-25.60787,30.99283
67.831849575,1.970131,27.82958,15.26041,0.913152,0.1811291,-0.5809201,2.005697,-25.60787,30.99283
67.84170723,-0.2660418,29.43632,14.64738,0.8911054,0.1434664,-0.5804445,2.005697,-25.60787,30.99283
67.851564407,0.665696899999998,30.74552,12.80829,0.846628,0.0976781,-0.6175746,2.005697,-25.60787,30.99283
67.861422539,1.659552,32.70931,12.13395,0.8520722,0.0840734,-0.624955,2.005697,-25.60787,30.99283
67.87128067,0.789928699999998,35.62525,10.84659,0.855265,0.08710226,-0.603411,0.5052586,-25.6013,30.23239
67.881138325,1.908015,38.66021,8.57837900000002,0.8512715,0.09827398,-0.5994262,0.5052586,-25.6013,30.23239
67.890996456,0.789928699999998,41.63565,6.92319799999998,0.8570595,0.1007437,-0.6033214,0.5052586,-25.6013,30.23239
67.900854111,-1.446244,43.65895,6.37147100000002,0.91514,0.08182745,-0.5942456,0.5052586,-25.6013,30.23239
67.910712242,-1.322012,46.69391,6.06495599999999,0.8823182,0.08103576,-0.5980973,0.5052586,-25.6013,30.23239
67.920570374,5.386507,49.43132,6.98450099999997,0.8569699,0.111106,-0.5648968,-0.9896584,-25.58403,30.24012
67.930428028,8.67865000000001,51.2761,6.98450099999997,0.8600939,0.1501088,-0.5526321,-0.9896584,-25.58403,30.24012
67.94028616,10.16943,53.00186,9.497924,0.876393,0.1522492,-0.5394288,-0.9896584,-25.58403,30.24012
67.950143814,11.03905,54.78712,11.95004,0.8749843,0.1478589,-0.5389665,-0.9896584,-25.58403,30.24012
67.960001469,11.84656,56.98896,13.97304,0.8653607,0.1367239,-0.5010666,-0.9896584,-25.58403,30.24012
67.969859123,12.59195,59.0122600000001,15.81213,0.8523274,0.1298216,-0.4942303,-0.9896584,-25.58403,30.24012
67.979717255,14.39331,59.84539,17.34471,0.8635342,0.1153969,-0.4743854,-2.112854,-25.20293,30.24214
67.989574909,14.26908,60.38097,18.38686,0.9082771,0.1130617,-0.4242477,-2.112854,-25.20293,30.24214
68.001897812,14.70389,60.2024400000003,19.1838,0.9176919,0.09901971,-0.4278547,-2.112854,-25.20293,30.24214
68.011755466,15.44928,59.2502899999999,20.40986,0.9275713,0.09913365,-0.4208066,-2.112854,-25.20293,30.24214
68.021613598,14.20697,60.9165499999999,20.77768,0.9410115,0.08285229,-0.3823204,-4.356483,-24.43539,30.63028
68.031471252,14.70389,59.1907899999997,21.2068,0.9076313,0.0922893,-0.3822442,-4.356483,-24.43539,30.63028
68.041328907,16.25679,57.6435500000002,21.51331,0.8944573,0.1131758,-0.3612745,-4.356483,-24.43539,30.63028
68.051186562,16.50525,56.33436,22.18764,0.8969253,0.1195507,-0.3540679,-4.356483,-24.43539,30.63028
68.061044693,15.44928,54.96565,22.61676,0.9207095,0.09933957,-0.3497855,-4.356483,-24.43539,30.63028
68.070902348,13.83427,55.50123,23.16849,0.9084336,0.0884771,-0.3626406,-6.537321,-24.78371,30.26123
68.080760479,12.21926,54.54909,24.57846,0.8366931,0.09556521,-0.3792887,-6.537321,-24.78371,30.26123
68.09061861,8.616534,53.41842,26.60146,0.8439528,0.1016018,-0.3438804,-6.537321,-24.78371,30.26123
68.100476265,5.82131799999998,52.22824,28.25664,0.8685877,0.07515118,-0.318578,-6.537321,-24.78371,30.26123
68.110334396,4.765347,50.68101,29.66661,0.9110676,0.07159963,-0.327839,-6.537321,-24.78371,30.26123
68.120192051,4.703231,50.14543,29.544,0.9213367,0.05376029,-0.3080096,-8.037468,-24.40453,29.81709
68.130050182,4.827463,48.89574,29.17619,0.8780737,0.03538865,-0.3037144,-8.037468,-24.40453,29.81709
68.139908314,6.13189700000002,47.289,28.62446,0.8686219,0.04649074,-0.3054028,-8.037468,-24.40453,29.81709
68.149765492,6.25612899999998,46.87244,29.05358,0.9002229,0.02989878,-0.2628653,-8.037468,-24.40453,29.81709
68.159623146,5.138043,44.6111,28.13404,0.9610466,-0.007463611,-0.2482339,-8.037468,-24.40453,29.81709
68.171946049,6.194014,43.12337,27.58231,0.9994279,-0.01354377,-0.2732714,-9.540375,-24.0307,28.98886
68.181803703,4.019956,43.3019,27.09188,1.00976,-0.01964766,-0.2384886,-9.540375,-24.0307,28.98886
68.191661835,2.529174,41.75467,26.47885,0.9713381,0.01007364,-0.2674005,-9.540375,-24.0307,28.98886
68.201519966,2.59129,41.69516,26.11104,0.9738478,0.0008371742,-0.2708687,-9.540375,-24.0307,28.98886
68.211377621,2.839754,43.12337,25.4367,0.9699073,-0.01274035,-0.2488839,-9.540375,-24.0307,28.98886
68.221235752,3.95784,42.29025,23.53631,0.9869341,-0.02579786,-0.2674463,-12.16292,-23.3309,28.61139
68.23109293,4.019956,43.12337,23.78152,1.018321,-0.03317454,-0.2324952,-12.16292,-23.3309,28.61139
68.240951061,1.53532,43.24239,22.18764,1.017682,-0.04578034,-0.2186957,-12.16292,-23.3309,28.61139
68.250808716,1.286856,42.11172,20.77768,0.9654479,-0.04195396,-0.2428373,-12.16292,-23.3309,28.61139
68.260666847,1.100508,41.21909,19.61292,0.9629174,-0.05393502,-0.1877944,-12.16292,-23.3309,28.61139
68.270524502,0.665696899999998,39.55284,17.40601,0.9667503,-0.07624665,-0.1774949,-13.29607,-23.34111,26.95283
68.280382633,2.715522,37.58904,14.52477,0.998643,-0.1202312,-0.1735287,-13.29607,-23.34111,26.95283
68.290240765,4.330536,35.50623,12.07265,1.006422,-0.1079701,-0.1663481,-13.29607,-23.34111,26.95283
68.300098419,3.523029,33.54243,9.37531800000002,0.9785957,-0.1038065,-0.1582492,-13.29607,-23.34111,26.95283
68.309956551,4.392652,30.03141,6.98450099999997,0.9417084,-0.1016116,-0.1347034,-13.29607,-23.34111,26.95283
68.319814205,3.771493,26.99645,6.18756199999998,0.9330855,-0.07736143,-0.1358134,-14.79299,-22.9557,26.95678
68.329672337,0.727812800000001,23.48543,4.900199,0.917274,-0.03325152,-0.1443206,-14.79299,-22.9557,26.95678
68.341994286,-3.806649,19.67685,3.980654,0.9086567,-0.05671076,-0.1511045,-14.79299,-22.9557,26.95678
68.35185194,-1.322012,16.93944,2.448079,0.9247421,-0.07500172,-0.1356746,-14.79299,-22.9557,26.95678
68.361710072,2.032247,14.38056,0.854201000000001,0.9461827,-0.04944712,-0.1194717,-14.79299,-22.9557,26.95678
68.371568203,2.90187,12.23824,-0.126647,0.9491569,-0.01488107,-0.1220976,-15.1755,-21.85229,26.56332
68.381425858,-0.700853300000001,9.79837200000001,-0.617070999999998,0.9696137,-0.03607133,-0.1115464,-15.1755,-21.85229,26.56332
68.391283989,-3.620301,7.35850499999998,-0.984888999999998,0.990486,-0.04618422,-0.1325348,-15.1755,-21.85229,26.56332
68.401141644,-5.483778,6.108818,-2.333555,0.9926707,-0.06820726,-0.1710877,-15.1755,-21.85229,26.56332
68.410999775,-4.179345,6.46587099999998,-3.2531,1.008475,-0.1178249,-0.2038381,-15.1755,-21.85229,26.56332
68.420857906,-1.570476,7.12047000000002,-3.988736,1.0219,-0.1109461,-0.2178681,-15.4862,-21.4752,26.94524
68.430715084,2.342827,9.14377299999997,-4.479159,1.017297,-0.07588997,-0.2016931,-15.4862,-21.4752,26.94524
68.440572739,3.95784,9.44131900000003,-5.092189,1.00821,-0.05163667,-0.2008797,-15.4862,-21.4752,26.94524
68.45043087,8.181723,11.46462,-5.76652199999997,1.014422,-0.0364875,-0.1984444,-15.4862,-21.4752,26.94524
68.460289002,10.23155,12.6548,-6.195643,1.009705,-0.03745728,-0.1864054,-15.4862,-21.4752,26.94524
68.470146656,10.66636,13.13087,-5.88912800000002,0.9979679,-0.04146621,-0.1896263,-15.48891,-22.59657,25.74029
68.480004788,11.72233,13.964,-5.582613,0.9859592,-0.03907038,-0.1712254,-15.48891,-22.59657,25.74029
68.489862442,14.3312,13.48793,-5.76652199999997,0.9703793,-0.03528207,-0.1623458,-15.48891,-22.59657,25.74029
68.499720574,16.25679,12.77382,-5.705219,0.9690179,-0.01231811,-0.134339,-15.48891,-22.59657,25.74029
68.509578705,15.69775,12.11922,-6.195643,0.9863018,-0.0101673,-0.1206704,-15.48891,-22.59657,25.74029
68.521900654,12.7783,10.27444,-6.13434,0.9798179,-0.002312335,-0.08696774,-15.86067,-21.84438,26.56686
68.531758309,8.49230200000003,7.65605000000001,-5.398705,0.9663342,0.01604471,-0.09093343,-15.86067,-21.84438,26.56686
68.54161644,4.206304,4.799621,-4.90828,0.9706531,-0.00382229,-0.07870347,-15.86067,-21.84438,26.56686
68.551474094,1.038392,1.705156,-4.785675,0.9806612,-0.01783026,-0.07465154,-15.86067,-21.84438,26.56686
68.561332226,0.1066536,-0.4371653,-4.724371,0.9942507,-0.02262194,-0.08686564,-15.86067,-21.84438,26.56686
68.57118988,-0.2039259,-2.103415,-4.663068,0.993632,-0.026569,-0.09982852,-15.86791,-21.11432,26.11122
68.581048012,-0.3281578,-3.293594,-4.233947,0.996365,-0.01341856,-0.1031109,-15.86791,-21.11432,26.11122
68.590906143,-2.191635,-4.900335,-3.988736,1.022197,0.004848254,-0.0942201,-15.86791,-21.11432,26.11122
68.600763798,-4.738388,-5.554934,-3.559615,1.047702,0.004957559,-0.1252515,-15.86791,-21.11432,26.11122
68.610621929,-5.048967,-4.900335,-3.620918,1.047264,-0.01811401,-0.1776727,-15.86791,-21.11432,26.11122
68.620479584,-2.937026,-2.698505,-3.314403,1.043113,-0.05909217,-0.1952105,-15.49017,-21.85493,26.11683
68.630337715,-0.2660418,-0.615692100000001,-3.559615,1.021259,-0.05205345,-0.2130492,-15.49017,-21.85493,26.11683
68.640194893,2.032247,1.229085,-2.64007,1.008294,-0.02294281,-0.2054308,-15.49017,-21.85493,26.11683
68.650053024,3.088217,2.835826,-2.088343,1.003626,-0.003881186,-0.1721386,-15.49017,-21.85493,26.11683
68.659910679,2.59129,3.371406,-2.456161,0.9813224,0.01696994,-0.1390592,-15.49017,-21.85493,26.11683
68.66976881,0.04453773,2.954844,-1.597919,0.9661294,0.009015968,-0.1480146,-15.49017,-21.85493,26.11683
68.679626942,0.914160499999999,2.776317,-1.597919,0.9720708,-0.02885823,-0.1402725,-15.49017,-21.85493,26.11683
68.691949367,2.404943,1.764665,-1.720525,0.9712027,-0.02492965,-0.1287262,-15.49017,-21.85493,26.11683
68.701807499,2.653406,0.872031299999998,-1.965737,0.9678465,-0.01908185,-0.1185658,-15.49017,-21.85493,26.11683
68.711665153,1.473204,-0.5561832,-1.720525,0.9853925,-0.003321104,-0.1095781,-15.49017,-21.85493,26.11683
68.721523285,-0.3281578,-1.329799,-1.230101,0.9954355,0.001098361,-0.1226223,-15.1755,-21.85229,26.56332
68.731380463,-0.576621399999998,-1.86538,-1.046192,1.005293,-0.0007470093,-0.1189448,-15.1755,-21.85229,26.56332
68.741238594,-1.943172,-2.519978,-0.617070999999998,1.009149,-0.003658038,-0.1257331,-15.1755,-21.85229,26.56332
68.751096249,-2.688562,-2.817523,-0.249253,1.028536,-0.004024426,-0.1394301,-15.1755,-21.85229,26.56332
68.76095438,-2.688562,-2.281942,0.179868,1.031035,-0.01570492,-0.1457939,-15.1755,-21.85229,26.56332
68.770812035,-1.81894,-2.103415,0.05726198,1.029151,-0.0240014,-0.1477538,-15.48695,-21.84869,26.56493
68.780670166,0.04453773,-1.746362,0.179868,1.013976,-0.02902105,-0.1528511,-15.48695,-21.84869,26.56493
68.790528297,0.1687696,-1.389308,0.302474,0.9979528,-0.02912967,-0.1439981,-15.48695,-21.84869,26.56493
68.800385952,-0.5145055,-1.86538,0.05726198,0.9905336,-0.006271209,-0.1298026,-15.48695,-21.84869,26.56493
68.810244083,-3.18549,-2.698505,0.547686,0.9870391,-0.005833329,-0.1345411,-15.48695,-21.84869,26.56493
68.820101738,-4.055113,-3.472121,0.915504000000002,0.9853032,-0.01945803,-0.1303186,-15.86067,-21.84438,26.56686
68.829959869,-3.558185,-4.305246,1.03811,0.9886582,-0.01749458,-0.1337042,-15.86067,-21.84438,26.56686
68.839817524,-1.632592,-5.078862,0.792897899999997,0.977807,-0.02200934,-0.14413,-15.86067,-21.84438,26.56686
68.849675655,1.659552,-5.257389,0.608988999999997,0.9805487,0.001396391,-0.137742,-15.86067,-21.84438,26.56686
68.861997604,3.274565,-5.73345999999999,1.160716,0.9774247,0.01401046,-0.1404662,-15.86067,-21.84438,26.56686
68.871855736,3.088217,-6.44756699999999,1.344625,0.9668766,0.003235178,-0.1341772,-15.85867,-22.21252,26.57063
68.88171339,3.088217,-7.22118300000002,1.283322,0.9679782,-0.01869123,-0.1444411,-15.85867,-22.21252,26.57063
68.891571522,3.585145,-8.58988899999999,1.65114,0.979033,-0.03901797,-0.1409367,-15.85867,-22.21252,26.57063
68.901429176,2.653406,-9.72055899999997,1.589837,0.9770108,-0.03514813,-0.1423128,-15.85867,-22.21252,26.57063
68.911287308,0.914160499999999,-10.55368,1.65114,0.9770342,-0.02391227,-0.1307175,-15.85867,-22.21252,26.57063
68.921145439,-3.123374,-12.57699,1.835049,0.9773911,-0.007834166,-0.1262741,-15.17074,-22.21509,26.95117
68.931003094,-6.85032900000002,-13.58864,2.8772,0.9713841,0.008674555,-0.1217364,-15.17074,-22.21509,26.95117
68.940861225,-11.07421,-16.02851,3.306321,0.9804937,0.004445242,-0.1032131,-15.17074,-22.21509,26.95117
68.95071888,-12.31653,-19.12297,3.49023,0.9806556,-0.004784893,-0.09945973,-15.17074,-22.21509,26.95117
68.960576534,-11.32267,-22.03891,2.815897,1.00062,-0.02353914,-0.08696417,-15.17074,-22.21509,26.95117
68.970434189,-9.334966,-25.60945,0.9768069,1.006093,-0.0576414,-0.1103315,-15.85591,-22.20718,26.95472
68.98029232,-3.930881,-26.56159,-0.371859,1.012594,-0.07964984,-0.1551755,-15.85591,-22.20718,26.95472
68.990149975,-0.762969199999999,-27.45422,-2.394858,1.004081,-0.08661495,-0.1757185,-15.85591,-22.20718,26.95472
69.000008106,1.597436,-27.57324,-3.498312,0.9856737,-0.06893361,-0.2184349,-15.85591,-22.20718,26.95472
69.009866238,2.342827,-27.45422,-4.785675,0.9686941,-0.05111556,-0.2281057,-15.85591,-22.20718,26.95472
69.019723892,1.53532,-26.6211,-4.90828,0.9494262,-0.0152098,-0.2102769,-14.42328,-22.22372,26.94731
69.029582024,-1.50836,-27.63275,-5.030886,0.9560241,-0.002879829,-0.1819941,-14.42328,-22.22372,26.94731
69.041904449,-2.005287,-29.00146,-5.582613,0.9621325,-0.008753791,-0.2056115,-14.42328,-22.22372,26.94731
69.051762581,-0.01757819,-29.41802,-6.13434,0.9521403,-0.001576485,-0.2145133,-14.42328,-22.22372,26.94731
69.061619759,0.4172332,-29.77507,-6.86997699999997,0.9436085,-0.0195057,-0.1742903,-14.42328,-22.22372,26.94731
69.071477413,-0.576621399999998,-32.75052,-9.32209700000001,0.9589183,-0.08133481,-0.2181582,-14.79103,-22.20782,27.78142
69.081335545,-0.576621399999998,-32.75052,-9.444703,0.951755,-0.07513826,-0.2357342,-14.79103,-22.20782,27.78142
69.091193676,-4.55204,-33.64315,-9.076884,0.9520398,-0.04638684,-0.2254324,-14.79103,-22.20782,27.78142
69.101051331,-4.303576,-33.76217,-8.64776299999998,0.9376169,0.004766613,-0.3053007,-14.79103,-22.20782,27.78142
69.110909462,-5.048967,-31.38181,-8.58646100000001,0.9458296,0.01945756,-0.3000225,-14.79103,-22.20782,27.78142
69.120767117,-6.53974900000002,-29.17998,-9.32209700000001,0.9439035,0.009819593,-0.2703661,-13.66386,-22.20919,28.6078
69.130625248,-6.97456099999999,-28.28735,-8.95427899999998,0.8920277,0.016272,-0.3735586,-13.66386,-22.20919,28.6078
69.140483379,-9.64554499999997,-27.09717,-8.40255200000002,0.871277,0.03374298,-0.3371754,-13.66386,-22.20919,28.6078
69.150341034,-14.86328,-28.52538,-9.076884,0.9140851,0.01590854,-0.2631809,-13.66386,-22.20919,28.6078
69.160199165,-18.40389,-30.66771,-8.58646100000001,0.9171413,0.02266907,-0.2842522,-13.66386,-22.20919,28.6078
69.17005682,-18.27966,-32.92904,-8.21864299999998,0.9183051,0.04980099,-0.3185422,-12.54589,-22.22837,28.15392
69.179914951,-17.6585,-34.53579,-10.30294,0.9566095,0.04215152,-0.2429599,-12.54589,-22.22837,28.15392
69.189772129,-15.48444,-37.09467,-13.24549,1.00133,-0.03071279,-0.1847915,-12.54589,-22.22837,28.15392
69.199630261,-8.713806,-37.74927,-15.20718,0.9295551,-0.07809789,-0.3236155,-12.54589,-22.22837,28.15392
69.211952686,-0.638737399999998,-39.71306,-16.37194,0.9480622,-0.07733321,-0.293204,-12.54589,-22.22837,28.15392
69.221810818,-7.40937199999998,-43.40262,-16.43324,1.174648,-0.1446597,-0.09621707,-11.78844,-22.96172,28.98977
69.231668472,-11.94383,-45.9615,-18.33364,1.166512,-0.07855332,-0.09650162,-11.78844,-22.96172,28.98977
69.241526604,-4.986851,-48.87744,-20.23403,1.00185,0.009770974,-0.2903603,-11.78844,-22.96172,28.98977
69.251384735,-4.55204,-50.30565,-24.46394,0.9729215,-0.007321313,-0.2383388,-11.78844,-22.96172,28.98977
69.26124239,-1.50836,-48.6394,-26.67085,0.8651205,-0.07011258,-0.3777377,-11.78844,-22.96172,28.98977
69.271100521,8.36807099999998,-50.00811,-25.01566,0.880215,0.01419453,-0.3805957,-10.66202,-23.33658,29.43584
69.280958176,6.380361,-48.5799,-25.01566,0.957227,0.1036566,-0.3229552,-10.66202,-23.33658,29.43584
69.29081583,1.473204,-48.46088,-24.83175,0.938718,0.132185,-0.3277218,-10.66202,-23.33658,29.43584
69.300673485,-0.576621399999998,-47.62775,-22.50224,0.8517911,0.1256802,-0.4295657,-10.66202,-23.33658,29.43584
69.310531616,-4.862619,-47.09217,-19.06927,0.9246948,0.1080476,-0.3727704,-10.66202,-23.33658,29.43584
69.320389271,-5.79435800000002,-44.83083,-19.25318,0.9089547,0.04330333,-0.4718075,-8.044243,-23.67358,29.42546
69.330247402,-3.18549,-43.46212,-14.47155,0.9425938,0.1136038,-0.4903825,-8.044243,-23.67358,29.42546
69.340105534,-7.78206700000003,-41.14128,-14.41025,1.033919,0.1384287,-0.4445131,-8.044243,-23.67358,29.42546
69.349963188,-11.50902,-39.11797,-15.02328,0.9412346,0.08641618,-0.4704662,-8.044243,-23.67358,29.42546
69.35982132,-10.2667,-38.10632,-13.85852,0.9282584,0.07793032,-0.4967088,-8.044243,-23.67358,29.42546
69.369678974,-10.45305,-36.67811,-12.69376,1.005332,0.06284679,-0.4188667,-6.917074,-23.67495,30.25185
69.382001877,-9.39708099999998,-34.83333,-13.4294,0.9484867,0.07500964,-0.4150786,-6.917074,-23.67495,30.25185
69.391859531,-8.278995,-33.88119,-14.90067,0.8976892,0.05394061,-0.4634108,-6.917074,-23.67495,30.25185
69.401716709,-5.421663,-31.67936,-15.39109,0.8864751,0.02442283,-0.5224416,-6.917074,-23.67495,30.25185
69.411574841,-3.433954,-28.76342,-16.98497,0.8989837,0.01679904,-0.5087875,-6.917074,-23.67495,30.25185
69.421432972,-1.322012,-27.21619,-18.51755,0.8894567,0.02606191,-0.4817384,-5.856169,-24.05533,30.25015
69.431290627,-0.700853300000001,-26.20453,-17.90452,0.8961284,0.08710044,-0.4410656,-5.856169,-24.05533,30.25015
69.441148758,-1.19778,-25.01436,-18.70146,0.8186969,0.1038171,-0.4719272,-5.856169,-24.05533,30.25015
69.451006413,-0.825085100000002,-25.37141,-16.00412,0.8330607,0.144734,-0.4947882,-5.856169,-24.05533,30.25015
69.460864544,-3.496069,-25.19288,-12.69376,0.9421605,0.1689202,-0.4017368,-5.856169,-24.05533,30.25015
69.470722675,-2.812794,-23.46712,-11.77422,0.8499492,0.1785068,-0.4822848,-4.359243,-24.44074,30.24619
69.48058033,-0.4523896,-23.05056,-8.83167299999999,0.8885921,0.1981069,-0.5372988,-4.359243,-24.44074,30.24619
69.490438461,-4.924736,-22.21744,-5.95043100000002,0.9172112,0.1207177,-0.4798975,-4.359243,-24.44074,30.24619
69.500296116,-4.862619,-21.02726,-2.823979,0.833559,0.1335117,-0.5039948,-4.359243,-24.44074,30.24619
69.510154247,-4.55204,-20.90824,-0.310556,0.875504,0.2068122,-0.5207461,-4.359243,-24.44074,30.24619
69.520012379,-8.713806,-20.43217,0.4250799,0.924311,0.1280382,-0.4909585,-3.609026,-24.44403,30.62641
69.529870033,-9.459197,-19.89659,1.03811,0.8971867,0.06977363,-0.5222116,-3.609026,-24.44403,30.62641
69.539727211,-7.59572000000002,-19.42052,0.05726198,0.8961753,0.07805541,-0.5173352,-3.609026,-24.44403,30.62641
69.549585343,-7.968415,-19.12297,-2.333555,0.9202852,0.02829055,-0.4792837,-3.609026,-24.44403,30.62641
69.561907768,-4.738388,-18.6469,-6.37955199999998,0.8689601,0.003923828,-0.4974466,-3.609026,-24.44403,30.62641
69.5717659,-1.81894,-18.34936,-9.81252100000003,0.913327,0.04905719,-0.5048861,-3.237305,-24.0802,30.62071
69.581623554,-3.806649,-18.17083,-13.67461,0.8956453,0.009116746,-0.473344,-3.237305,-24.0802,30.62071
69.591481686,-1.135665,-17.63525,-14.96197,0.8391636,0.06247715,-0.5142582,-3.237305,-24.0802,30.62071
69.601339817,0.1687696,-17.57574,-15.32979,0.8732795,0.13389,-0.4968905,-3.237305,-24.0802,30.62071
69.611197472,0.2930014,-17.27819,-17.16888,0.8981358,0.1112732,-0.4878517,-3.237305,-24.0802,30.62071
69.621055603,1.845899,-17.51623,-16.86237,0.8865904,0.1262247,-0.4961866,-2.480602,-25.18703,31.07626
69.630913258,1.783783,-17.57574,-16.00412,0.8596964,0.1386836,-0.4841973,-2.480602,-25.18703,31.07626
69.640771389,3.398797,-17.63525,-14.34894,0.8254512,0.1659383,-0.5318784,-2.480602,-25.18703,31.07626
69.65062952,3.833609,-17.81377,-13.30679,0.8653919,0.1829792,-0.4939679,-2.480602,-25.18703,31.07626
69.660486698,2.715522,-18.28985,-12.75506,0.8561049,0.135188,-0.49951,-2.480602,-25.18703,31.07626
69.670344353,3.895725,-19.06346,-11.4677,0.8366248,0.1510159,-0.5149124,-2.108879,-24.8232,31.07055
69.680202484,2.218595,-19.83708,-9.87382400000002,0.8367344,0.1714175,-0.5248049,-2.108879,-24.8232,31.07055
69.690060615,-1.570476,-20.61069,-9.26079400000001,0.8609269,0.1239822,-0.5145286,-2.108879,-24.8232,31.07055
69.69991827,-1.632592,-20.78922,-8.34124899999997,0.8509396,0.1170023,-0.5355299,-2.108879,-24.8232,31.07055
69.709776401,-3.123374,-21.44382,-8.89297599999998,0.8533292,0.1151902,-0.5053896,-2.108879,-24.8232,31.07055
69.719634056,-2.191635,-20.84873,-9.62861199999999,0.7959768,0.1024441,-0.5248061,-0.9856853,-25.2043,31.06853
69.731956959,-0.14181,-21.14627,-9.75121799999998,0.8476931,0.1602045,-0.5562037,-0.9856853,-25.2043,31.06853
69.741814613,-2.315867,-21.08677,-9.50600500000002,0.8719907,0.1176814,-0.5339073,-0.9856853,-25.2043,31.06853
69.751672745,-1.322012,-20.55119,-9.68991499999998,0.8536794,0.1086727,-0.5572032,-0.9856853,-25.2043,31.06853
69.761530876,-1.50836,-20.72971,-9.444703,0.8539311,0.1588967,-0.5304269,-0.9856853,-25.2043,31.06853
69.771388054,-2.191635,-20.31315,-10.54816,0.775916,0.1012889,-0.5259676,-0.2382259,-25.21293,31.06467
69.781245708,-0.2660418,-21.08677,-9.26079400000001,0.7696524,0.1667649,-0.5689328,-0.2382259,-25.21293,31.06467
69.79110384,-2.440099,-21.3248,-7.91212800000001,0.8304378,0.1771027,-0.5510232,-0.2382259,-25.21293,31.06467
69.800961971,-3.18549,-21.44382,-7.54430900000001,0.83684,0.1630126,-0.5603381,-0.2382259,-25.21293,31.06467
69.810819626,-2.87491,-21.62235,-6.50215799999997,0.8777362,0.1730853,-0.5661072,-0.2382259,-25.21293,31.06467
69.820677757,-1.135665,-21.3248,-6.68606700000002,0.9205692,0.1315528,-0.5828818,0.5099869,-24.84807,31.44111
69.830535412,0.541465,-20.72971,-6.25694700000002,0.9186203,0.145208,-0.5702796,0.5099869,-24.84807,31.44111
69.840393543,0.1687696,-20.07512,-6.44085600000001,0.8650531,0.164683,-0.5707893,0.5099869,-24.84807,31.44111
69.850251675,0.665696899999998,-18.76592,-6.68606700000002,0.7898512,0.1683127,-0.5931677,0.5099869,-24.84807,31.44111
69.860109329,0.4172332,-18.23034,-6.68606700000002,0.7765076,0.1634099,-0.5714549,0.5099869,-24.84807,31.44111
69.869967461,-0.3281578,-17.81377,-7.299098,0.7265161,0.1157183,-0.5840833,0.8829613,-25.22588,31.05887
69.879825115,0.4793491,-17.27819,-6.44085600000001,0.7367214,0.1706893,-0.6125168,0.8829613,-25.22588,31.05887
69.889683247,-1.259896,-16.20703,-7.48300600000001,0.7145355,0.1492335,-0.5721289,0.8829613,-25.22588,31.05887
69.899540901,1.22474,-15.49293,-7.605612,0.6349615,0.1464859,-0.5978532,0.8829613,-25.22588,31.05887
69.91186285,0.852044600000001,-15.13587,-6.68606700000002,0.686684,0.1835246,-0.5752762,0.8829613,-25.22588,31.05887
69.921720982,0.727812800000001,-14.36226,-5.460007,0.6930057,0.1591588,-0.5995318,2.380638,-25.2378,31.43523
69.931579113,1.100508,-14.30275,-2.272252,0.7647324,0.2366127,-0.6171517,2.380638,-25.2378,31.43523
69.941436768,-1.81894,-13.46962,-0.18795,0.8502281,0.2267331,-0.5988063,2.380638,-25.2378,31.43523
69.951294899,-2.005287,-12.16043,0.854201000000001,0.8183352,0.1806661,-0.6102414,2.380638,-25.2378,31.43523
69.961152554,0.3551173,-11.02976,1.344625,0.7903244,0.1613421,-0.6363612,2.380638,-25.2378,31.43523
69.971010685,2.777638,-10.13712,1.957655,0.811892,0.1542216,-0.6396039,2.749599,-24.87932,31.04544
69.980868816,2.653406,-8.173326,3.122412,0.8082963,0.1653717,-0.6423337,2.749599,-24.87932,31.04544
69.990726471,2.094363,-6.20953200000003,3.612836,0.7882722,0.1792267,-0.6634954,2.749599,-24.87932,31.04544
70.000584602,-0.01757819,-4.364755,3.612836,0.8094788,0.1410272,-0.6487857,2.749599,-24.87932,31.04544
70.010442257,-0.0796941100000001,-2.222434,3.735442,0.7847086,0.1174222,-0.656299,2.749599,-24.87932,31.04544
70.020300388,2.404943,-0.1991295,2.938503,0.8120128,0.1516798,-0.6688582,3.067818,-25.61386,31.43546
70.03015852,1.597436,3.014353,1.896352,0.8223224,0.1304344,-0.6490581,3.067818,-25.61386,31.43546
70.040016174,2.777638,5.573237,1.65114,0.7610242,0.1347324,-0.6558154,3.067818,-25.61386,31.43546
70.049874306,2.529174,7.83457700000001,1.957655,0.7219895,0.1738257,-0.6496579,3.067818,-25.61386,31.43546
70.059731483,1.411088,9.91738999999998,2.631988,0.7223842,0.1933321,-0.6394357,3.067818,-25.61386,31.43546
70.069589615,1.162624,12.17873,3.49023,0.7312136,0.1852523,-0.6089609,2.759136,-25.60492,31.82115
70.081912041,2.963986,13.36891,5.268017,0.7844394,0.2065558,-0.6334997,2.759136,-25.60492,31.82115
70.091770172,1.411088,15.63025,6.616683,0.8131512,0.1761454,-0.6356032,2.759136,-25.60492,31.82115
70.101627827,2.529174,17.41551,7.65883399999998,0.79403,0.1453411,-0.6298403,2.759136,-25.60492,31.82115
70.111485958,2.90187,18.84373,8.63968200000001,0.7936078,0.1632851,-0.6450172,2.759136,-25.60492,31.82115
70.121343613,1.286856,20.15293,9.191408,0.8198209,0.1582258,-0.6286615,2.008123,-24.8591,31.88148
70.131201744,-0.825085100000002,21.64065,9.43662100000001,0.8493088,0.1580365,-0.6190202,2.008123,-24.8591,31.88148
70.141059399,-2.626446,23.54494,8.94619699999999,0.8262181,0.1538989,-0.6297476,2.008123,-24.8591,31.88148
70.15091753,-2.937026,24.49708,8.087955,0.8149135,0.1216963,-0.6260247,2.008123,-24.8591,31.88148
70.160775662,-2.129519,25.38971,7.47492499999999,0.8114026,0.09882978,-0.6165836,2.008123,-24.8591,31.88148
70.170633316,-1.135665,26.52038,7.10710700000002,0.7991384,0.1298229,-0.6276481,2.378632,-24.86966,31.43146
70.180491447,0.04453773,28.72221,7.65883399999998,0.7878149,0.1409319,-0.6230801,2.378632,-24.86966,31.43146
70.190348625,1.411088,30.32895,8.70098500000001,0.7865978,0.1297611,-0.6145314,2.378632,-24.86966,31.43146
70.200206757,3.523029,30.38846,10.66268,0.8501002,0.1468978,-0.6066663,2.378632,-24.86966,31.43146
70.210064411,3.771493,31.93569,12.19526,0.8720965,0.1734521,-0.5847125,2.378632,-24.86966,31.43146
70.219922543,3.585145,32.76882,13.0535,0.8871014,0.17807,-0.5566146,1.257444,-24.85671,31.43725
70.229780197,4.392652,33.3044,14.34086,0.8851594,0.1702453,-0.5624034,1.257444,-24.85671,31.43725
70.239638329,3.895725,34.79212,14.52477,0.8676828,0.1486456,-0.5714414,1.257444,-24.85671,31.43725
70.251960754,3.21245,36.33936,14.83128,0.852695,0.1262385,-0.5421857,1.257444,-24.85671,31.43725
70.261818886,2.404943,37.11297,15.93474,0.8370218,0.1367002,-0.5701467,1.257444,-24.85671,31.43725
70.271677017,2.342827,38.83873,15.32171,0.8817862,0.1176362,-0.5690289,0.1382637,-25.2119,31.44682
70.281534672,1.473204,41.75467,15.26041,0.8885166,0.08801649,-0.5679372,0.1382637,-25.2119,31.44682
70.291392803,2.59129,44.25404,15.1991,0.8817754,0.07626906,-0.5703362,0.1382637,-25.2119,31.44682
70.301250458,4.579,47.9436,14.15695,0.8910784,0.08318894,-0.5637016,0.1382637,-25.2119,31.44682
70.311108589,7.49844699999999,50.80003,14.64738,0.8772432,0.1108572,-0.5493742,0.1382637,-25.2119,31.44682
70.320965767,8.74076600000002,52.70431,12.80829,0.8585158,0.09907088,-0.5338723,-1.356653,-25.19464,31.45454
70.330823898,10.79059,54.13253,13.91174,0.8438637,0.1163886,-0.5526853,-1.356653,-25.19464,31.45454
70.340681553,12.03291,56.45338,14.64738,0.8813343,0.09154861,-0.5174891,-1.356653,-25.19464,31.45454
70.350539684,13.33734,58.9527500000002,16.05734,0.8857576,0.08427011,-0.5224055,-1.356653,-25.19464,31.45454
70.360397816,15.20082,60.7380200000002,16.79298,0.8793362,0.1071428,-0.5067866,-1.356653,-25.19464,31.45454
70.37025547,16.25679,62.5232900000003,18.44816,0.8964821,0.125854,-0.4886635,-3.603796,-24.80594,31.07828
70.380113602,16.19468,63.8324900000003,20.59377,0.8820157,0.133107,-0.4668321,-3.603796,-24.80594,31.07828
70.389971256,16.19468,64.18954,21.88113,0.8502661,0.1343037,-0.4620567,-3.603796,-24.80594,31.07828
70.399829388,14.64178,64.3085599999997,23.65892,0.8710058,0.1239351,-0.4212286,-3.603796,-24.80594,31.07828
70.409687519,13.33734,64.4275699999998,24.63976,0.8938451,0.09981907,-0.4179241,-3.603796,-24.80594,31.07828
70.419545174,13.9585,63.8919899999999,26.11104,0.8744091,0.105895,-0.4386806,-5.105951,-24.05861,30.63037
70.4318676,14.89024,65.97481,28.37925,0.907219,0.09572446,-0.3735837,-5.105951,-24.05861,30.63037
70.441725731,13.39946,64.7846299999998,28.74706,0.9301292,0.07553445,-0.3616214,-5.105951,-24.05861,30.63037
70.451583862,14.08273,63.5349400000002,29.91182,0.9618866,0.06652841,-0.3726925,-5.105951,-24.05861,30.63037
70.46144104,12.65407,64.66561,31.38309,0.9755125,0.07799374,-0.332058,-5.105951,-24.05861,30.63037
70.471298695,9.98308400000002,65.6177500000001,30.95397,0.9494992,0.06078677,-0.3174564,-7.292479,-23.36385,30.25064
70.481156826,9.92096800000001,63.4754299999998,30.70876,0.9041268,0.05247182,-0.3513823,-7.292479,-23.36385,30.25064
70.491014958,11.97079,63.17789,30.77006,0.9313425,0.04205769,-0.3379613,-7.292479,-23.36385,30.25064
70.500872612,11.90868,64.5465900000002,30.40224,0.9474913,0.005232181,-0.3341894,-7.292479,-23.36385,30.25064
70.510730744,12.46772,64.9036399999999,29.66661,0.9517727,-0.01743977,-0.2913139,-7.292479,-23.36385,30.25064
70.520588398,12.96465,63.5944500000001,29.60531,0.9415866,-0.004323843,-0.2733276,-8.793377,-23.35816,29.42619
70.53044653,12.21926,61.6306499999998,29.4827,0.9855977,0.01439627,-0.1865826,-8.793377,-23.35816,29.42619
70.540304661,11.16329,61.2140900000003,28.62446,0.9933368,0.009693463,-0.161335,-8.793377,-23.35816,29.42619
70.550162315,7.99537500000002,54.78712,25.74322,0.9728177,-0.02381543,-0.2245797,-8.793377,-23.35816,29.42619
70.560020447,10.0452,55.85829,26.29494,0.9753462,-0.03792882,-0.2309644,-8.793377,-23.35816,29.42619
70.569878101,12.71618,56.21534,24.21064,0.921563,-0.04097387,-0.2671219,-11.04897,-22.61379,28.14996
70.579736233,15.20082,55.56074,24.51716,0.9190546,-0.03453121,-0.2301335,-11.04897,-22.61379,28.14996
70.589594364,15.26294,55.62025,24.39455,0.9675521,-0.02076566,-0.1775174,-11.04897,-22.61379,28.14996
70.601916313,11.90868,53.2994,20.59377,0.9898658,-0.05989628,-0.1542056,-11.04897,-22.61379,28.14996
70.611773968,12.09503,49.90739,18.69337,0.9402368,-0.0667438,-0.1760785,-11.04897,-22.61379,28.14996
70.621632099,13.151,48.6577,17.65122,0.932896,-0.06973898,-0.1788743,-13.66662,-22.21454,28.22372
70.631489754,12.52984,47.64605,15.56692,0.9298295,-0.09212573,-0.1723108,-13.66662,-22.21454,28.22372
70.641347885,12.28137,45.86079,14.27956,0.937938,-0.0768411,-0.1382742,-13.66662,-22.21454,28.22372
70.65120554,12.40561,43.12337,11.88874,0.960052,-0.07550587,-0.09401253,-13.66662,-22.21454,28.22372
70.661063671,12.28137,39.79087,10.17226,0.9768444,-0.07921872,-0.0856576,-13.66662,-22.21454,28.22372
70.670921802,13.39946,36.10132,7.90404600000002,0.9664054,-0.05752205,-0.1145569,-14.79981,-21.10873,27.38602
70.680779457,12.65407,35.32771,6.616683,0.9759209,-0.05640027,-0.09743185,-14.79981,-21.10873,27.38602
70.690637588,9.73461999999998,31.93569,4.961502,0.9685344,-0.07196723,-0.07876917,-14.79981,-21.10873,27.38602
70.700495243,5.75920199999997,28.72221,3.980654,0.9936215,-0.08754788,-0.0107327,-14.79981,-21.10873,27.38602
70.710353374,-0.2039259,24.08051,3.796745,0.9962307,-0.06502121,0.02104739,-14.79981,-21.10873,27.38602
70.720211506,-4.427808,18.07011,2.570685,0.9909718,-0.05882229,-0.0003893236,-15.86394,-20.73459,26.93963
70.73006916,-3.682417,12.53578,0.118565,0.9757458,-0.0925265,0.00146004,-15.86394,-20.73459,26.93963
70.739927292,-1.694708,7.41801499999999,-0.800980000000001,0.9686491,-0.08094046,-0.006487426,-15.86394,-20.73459,26.93963
70.749784946,1.597436,2.478772,-2.885282,0.9828316,-0.0604456,-0.02472618,-15.86394,-20.73459,26.93963
70.759643078,0.4793491,0.03890619,-3.86613,0.9858989,-0.04258786,-0.07110153,-15.86394,-20.73459,26.93963
70.771965027,-3.992997,-1.448817,-3.620918,1.014231,-0.05371273,-0.1199984,-16.9919,-19.99069,26.5538
70.781823158,-4.862619,0.03890619,-3.559615,1.020296,-0.06315183,-0.1858148,-16.9919,-19.99069,26.5538
70.791680813,-4.489924,1.943192,-3.130494,1.022295,-0.07776909,-0.1955506,-16.9919,-19.99069,26.5538
70.801538944,-2.937026,4.680604,-3.314403,1.036917,-0.08156043,-0.202979,-16.9919,-19.99069,26.5538
70.811396599,1.162624,6.82292499999999,-3.682221,1.023633,-0.06035203,-0.2256123,-16.9919,-19.99069,26.5538
70.82125473,1.721668,9.73886300000003,-3.620918,1.011784,-0.05986352,-0.1971665,-16.98989,-20.35884,26.55757
70.831112862,1.411088,10.98855,-3.314403,0.9917014,-0.05796059,-0.1614035,-16.98989,-20.35884,26.55757
70.840970516,1.286856,11.16708,-3.498312,0.9795521,-0.05742254,-0.1190562,-16.98989,-20.35884,26.55757
70.850828648,1.286856,9.67935399999999,-3.988736,0.9768064,-0.05677113,-0.06869564,-16.98989,-20.35884,26.55757
70.860686302,1.597436,7.179979,-3.988736,0.9811026,-0.05272152,-0.03709553,-16.98989,-20.35884,26.55757
70.870544434,1.845899,3.430915,-4.417856,0.9849374,-0.03952719,-0.03128844,-16.24243,-20.36747,26.55371
70.880402565,1.783783,0.5149777,-4.417856,0.9883916,-0.02337685,-0.01490859,-16.24243,-20.36747,26.55371
70.89026022,0.789928699999998,-2.758014,-4.724371,0.9919035,-0.02589785,-0.04660709,-16.24243,-20.36747,26.55371
70.900118351,1.473204,-4.781317,-4.540462,0.9901541,-0.02306185,-0.0647678,-16.24243,-20.36747,26.55371
70.909976006,1.970131,-6.09051400000001,-4.724371,0.9970787,-0.0372733,-0.1076352,-16.24243,-20.36747,26.55371
70.919834137,2.280711,-6.26904100000001,-4.356554,0.9935639,-0.03732943,-0.1142943,-17.36484,-20.7289,26.11518
70.929692268,2.032247,-5.673951,-3.437009,1.011498,-0.03282252,-0.1226583,-17.36484,-20.7289,26.11518
70.939549923,2.156479,-4.900335,-3.375706,1.01886,-0.01189206,-0.1384002,-17.36484,-20.7289,26.11518
70.951871872,-1.632592,-3.53163,-2.456161,1.025638,-0.001598795,-0.1345763,-17.36484,-20.7289,26.11518
70.961730003,-2.440099,-2.519978,-2.456161,1.018473,-0.01786097,-0.171989,-16.61416,-20.7313,26.55941
70.971587658,-3.18549,0.0984151199999999,-1.781828,1.030413,-0.03967039,-0.176656,-16.61416,-20.7313,26.55941
70.981445789,-3.247606,0.872031299999998,-2.149646,1.002988,-0.05443326,-0.1557842,-16.61416,-20.7313,26.55941
70.991303444,-3.682417,1.52663,-1.965737,0.9941082,-0.06123245,-0.1312758,-16.61416,-20.7313,26.55941
71.001161575,-3.247606,1.705156,-1.475313,0.9814189,-0.05206039,-0.1209544,-16.61416,-20.7313,26.55941
71.011019707,-5.111083,0.693504499999999,-1.168798,0.9832504,-0.03108502,-0.1116987,-16.61416,-20.7313,26.55941
71.020877361,-3.371838,0.5149777,-1.41401,0.9925995,-0.02805777,-0.1050976,-16.61817,-19.995,26.55187
71.030735493,-0.3281578,0.217433,-1.352707,0.9993476,-0.03339629,-0.1172188,-16.61817,-19.995,26.55187
71.040593147,3.833609,0.4554687,-1.781828,0.9997225,-0.03147167,-0.1239167,-16.61817,-19.995,26.55187
71.050451279,6.25612899999998,0.217433,-1.597919,0.9842542,-0.01460457,-0.1312211,-16.61817,-19.995,26.55187
71.06030941,6.31824499999999,0.3959598,-1.230101,0.9847765,-0.0184966,-0.1322197,-16.61817,-19.995,26.55187
71.070167065,5.572854,-0.0801116799999999,-0.984888999999998,0.9722727,-0.02880067,-0.1254197,-16.61416,-20.7313,26.55941
71.080025196,4.019956,-0.9727457,-0.678373999999999,0.9632318,-0.02588129,-0.1041814,-16.61416,-20.7313,26.55941
71.089882851,2.156479,-2.162925,-0.555768,0.9695576,-0.0170465,-0.09892584,-16.61416,-20.7313,26.55941
71.099740982,-0.4523896,-3.293594,-0.617070999999998,0.9728734,-0.01509419,-0.1051862,-16.61416,-20.7313,26.55941
71.109599113,-3.682417,-4.126719,0.05726198,0.9811287,-0.0111321,-0.1062288,-16.61416,-20.7313,26.55941
71.121921062,-7.22302400000001,-5.316897,0.241171,0.9894055,-0.01888131,-0.1159962,-15.86992,-20.74617,26.10745
71.131778717,-7.40937199999998,-5.19788,0.4250799,0.9885726,-0.02617189,-0.111733,-15.86992,-20.74617,26.10745
71.141636848,-7.09879300000001,-5.79296899999998,0.608988999999997,0.9859645,-0.01305765,-0.1120644,-15.86992,-20.74617,26.10745
71.151494503,-5.91858999999999,-6.56658500000001,0.731594999999999,0.9954215,-0.0207407,-0.1069928,-15.86992,-20.74617,26.10745
71.161352634,-4.489924,-7.39971000000002,0.792897899999997,0.9975954,-0.02749658,-0.09701765,-16.23968,-20.36212,26.93779
