Time (s),Gyroscope X (deg/s),Gyroscope Y (deg/s),Gyroscope Z (deg/s),Accelerometer X (g),Accelerometer Y (g),Accelerometer Z (g),Magnetometer X (uT),Magnetometer Y (uT),Magnetometer Z (uT)
0,0.1847278,-3.726381,0.2149844,0.99266,-0.008448012,-0.2445939,-29.01543,-27.48782,24.89367
0.022294521,3.033878,-2.21183,-0.214556,0.9991496,-0.001469862,-0.2234805,-28.27016,-27.11134,25.33834
0.02477169,3.157754,-2.037075,-0.1531931,0.9981025,-0.001030338,-0.2297099,-28.27016,-27.11134,25.33834
0.034680367,3.033878,-1.920571,-0.3986447,0.9910744,0.01634993,-0.2271284,-28.27016,-27.11134,25.33834
0.044589043,2.538374,-1.862319,-0.5827335,0.9895691,0.01875058,-0.2280588,-28.27016,-27.11134,25.33834
0.054497719,1.857055,-2.386586,-0.6440963,0.9882321,0.009531491,-0.2261872,-27.90698,-26.36368,24.94862
0.064406395,1.547365,-2.79435,-0.6440963,0.9838417,0.001676836,-0.2343616,-27.90698,-26.36368,24.94862
0.074315071,1.423489,-3.318618,-0.3986447,0.9887531,-0.00264086,-0.2373167,-27.90698,-26.36368,24.94862
0.08422327,1.485427,-3.143862,-0.3372818,0.9925839,-0.007024209,-0.2503456,-27.90698,-26.36368,24.94862
0.094131947,2.104807,-2.910854,-0.2759189,0.9949814,0.005176933,-0.2406833,-27.90698,-26.36368,24.94862
0.104040623,2.290622,-2.21183,-0.4600076,0.9870159,0.005980566,-0.2535686,-28.64903,-26.73651,25.40338
0.113949299,2.104807,-1.920571,-0.5827335,0.9787158,0.005395086,-0.2530156,-28.64903,-26.73651,25.40338
0.123857975,2.600312,-1.804067,-0.7054592,0.9810172,0.01657059,-0.2539228,-28.64903,-26.73651,25.40338
0.133766651,2.97194,-1.804067,-0.8895479,0.9867861,0.02976344,-0.2481263,-28.64903,-26.73651,25.40338
0.143675327,2.600312,-2.095326,-1.380451,0.9921337,0.03274155,-0.2476758,-28.64903,-26.73651,25.40338
0.153584003,2.104807,-2.969106,-1.380451,0.9858831,0.02100974,-0.2510572,-28.63934,-27.4857,25.40569
0.16349268,1.361551,-3.551625,-0.8895479,0.983596,0.002036783,-0.2578847,-28.63934,-27.4857,25.40569
0.173401356,1.05186,-3.726381,-0.5827335,0.9884478,0.003541697,-0.2598402,-28.63934,-27.4857,25.40569
0.183310032,0.9899224,-3.842885,-0.3372818,0.9946542,0.01525057,-0.2607799,-28.63934,-27.4857,25.40569
0.193218231,1.113798,-2.969106,-0.5213705,0.9926123,0.03030327,-0.2515377,-28.63934,-27.4857,25.40569
0.203126907,1.05186,-2.037075,-0.5213705,0.9841031,0.04229183,-0.2566609,-28.63288,-27.85847,25.85655
0.215513229,-0.06302445,-2.328334,-0.3372818,0.9788039,0.03689995,-0.2552073,-28.63288,-27.85847,25.85655
0.225421429,-0.6204669,-2.79435,-0.3986447,0.9754344,0.02956772,-0.2585861,-28.63288,-27.85847,25.85655
0.235330105,-0.8682191,-3.901137,-0.214556,0.9798756,0.02574148,-0.2591329,-28.63288,-27.85847,25.85655
0.245238781,-1.054033,-3.784633,-0.2759189,0.9871699,0.0228856,-0.2664217,-28.63288,-27.85847,25.85655
0.255147457,-1.054033,-3.551625,-0.09183015,0.9793725,0.02280117,-0.2639493,-28.64396,-27.11084,25.46877
0.265056133,-0.744343,-3.551625,-0.214556,0.9842714,0.02530625,-0.2601367,-28.64396,-27.11084,25.46877
0.274964809,-0.744343,-3.143862,-0.4600076,0.9823845,0.02531763,-0.253397,-28.64396,-27.11084,25.46877
0.284873486,-0.744343,-2.969106,-0.4600076,0.9832368,0.02428885,-0.2668561,-28.64396,-27.11084,25.46877
0.294782162,-1.115971,-3.318618,-0.2759189,0.9777581,0.02855971,-0.2715786,-28.64396,-27.11084,25.46877
0.304690838,-1.735352,-3.959389,-0.3372818,0.9825854,0.03005188,-0.2759347,-28.2697,-27.11081,25.46683
0.314599514,-2.045042,-4.425405,-0.214556,0.976694,0.02752702,-0.2811788,-28.2697,-27.11081,25.46683
0.32450819,-2.664423,-5.124428,0.460436,0.9762662,0.02365025,-0.2797602,-28.2697,-27.11081,25.46683
0.33441639,-2.850237,-5.590444,0.5217989,0.9748183,0.02412956,-0.2773428,-28.2697,-27.11081,25.46683
0.344325066,-3.221865,-5.706948,0.6445247,0.9806784,0.02224797,-0.2802905,-28.2697,-27.11081,25.46683
0.354233742,-3.097989,-5.47394,0.3990731,0.9788009,0.0198252,-0.2754877,-27.88898,-27.48355,25.91575
0.364142418,-2.726361,-5.240932,-0.09183015,0.9793383,0.01741749,-0.2735881,-27.88898,-27.48355,25.91575
0.374051094,-2.41667,-5.299184,-0.03046724,0.9779424,0.01889952,-0.2649224,-27.88898,-27.48355,25.91575
0.38395977,-2.292794,-5.066176,0.2149844,0.9759732,0.01838024,-0.2668283,-27.88898,-27.48355,25.91575
0.393868446,-2.230856,-5.823452,0.03089567,0.9734061,0.01584693,-0.2817063,-27.88898,-27.48355,25.91575
0.403777599,-2.41667,-6.522475,0.1536215,0.9744903,0.008597377,-0.279844,-28.63265,-27.8582,25.9208
0.438457489,-2.354732,-5.7652,0.3990731,0.9802029,0.03102932,-0.2687038,-28.63265,-27.8582,25.9208
0.443412304,-2.354732,-5.648696,0.2149844,0.9827345,0.02622704,-0.2658783,-28.63265,-27.8582,25.9208
0.45332098,-2.168918,-5.47394,0.2149844,0.9817817,0.02866689,-0.2605714,-27.89868,-26.73436,25.91344
0.463229656,-2.292794,-5.357436,0.2763473,0.9804634,0.01457948,-0.2625737,-27.89868,-26.73436,25.91344
0.473138332,-2.478608,-5.532192,0.3990731,0.9853828,0.01124156,-0.2636018,-27.89868,-26.73436,25.91344
0.483046532,-2.540546,-5.299184,0.5217989,0.9893141,0.005447151,-0.2684783,-27.89868,-26.73436,25.91344
0.631676674,0.1227897,3.322106,0.03089567,0.991802,0.01379288,-0.2545211,-27.88252,-27.85631,26.36662
0.634153366,0.1227897,3.496862,-0.09183015,0.9898817,0.01329909,-0.2516257,-27.88252,-27.85631,26.36662
0.644062042,1.113798,3.263854,0.09225857,0.9810822,0.007823935,-0.2578229,-27.88252,-27.85631,26.36662
0.653970718,2.104807,2.797838,0.03089567,0.9816949,0.004479771,-0.2496881,-28.25678,-27.85634,26.36856
0.663879394,2.97194,3.030846,-0.214556,0.9857616,0.005097225,-0.2338764,-28.25678,-27.85634,26.36856
0.673788547,4.396515,3.962878,-0.3986447,0.9953126,-0.004406818,-0.2196233,-28.25678,-27.85634,26.36856
0.819941521,1.795117,2.040563,-0.09183015,0.9648942,0.01319998,-0.3042127,-28.63865,-27.48492,25.59842
0.824895382,1.980931,1.341539,0.09225857,0.9712361,0.0152232,-0.3032975,-28.63865,-27.48492,25.59842
0.834804058,2.35256,0.1182482,0.3377102,0.9689018,0.01134761,-0.2970597,-28.63865,-27.48492,25.59842
0.844712734,2.538374,-0.6972793,0.2763473,0.9762435,0.01729698,-0.2894055,-28.63865,-27.48492,25.59842
0.85462141,2.66225,-1.105043,0.3990731,0.9800898,0.03389731,-0.2763661,-27.50942,-27.85759,26.04345
0.961139679,-3.097989,-1.046791,1.687694,0.990985,0.003620468,-0.2507401,-28.63704,-27.48309,26.04813
0.963616848,-3.159927,-0.9885391,1.626331,0.9909618,0.00555964,-0.250727,-28.63704,-27.48309,26.04813
0.973525524,-2.354732,-0.1147597,1.626331,0.9898849,0.003544626,-0.2627344,-28.63704,-27.48309,26.04813
0.9834342,-1.4876,0.1765001,1.564968,0.9864585,0.005938824,-0.260286,-28.63704,-27.48309,26.04813
0.993342876,-0.6824049,0.351256,1.564968,0.9820862,0.006874138,-0.256398,-28.63704,-27.48309,26.04813
1.003251553,-0.06302445,0.2347521,1.564968,0.9820145,0.005861239,-0.2645668,-28.6435,-27.11032,25.59726
1.109769821,-1.611476,-0.7555313,2.362686,0.9843007,0.02532154,-0.2572559,-28.63704,-27.48309,26.04813
1.114724636,-1.549538,-0.8720351,2.546775,0.9819134,0.02093058,-0.2567829,-28.63704,-27.48309,26.04813
1.124633312,-1.611476,-0.9885391,2.23996,0.9887566,0.02150294,-0.2563622,-28.63704,-27.48309,26.04813
1.134541988,-1.673414,-0.5807754,2.178597,0.9907089,0.02591585,-0.2515493,-28.63704,-27.48309,26.04813
1.144450665,-1.79729,-0.2895156,2.23996,0.9897815,0.02251524,-0.2506031,-28.63704,-27.48309,26.04813
1.154358864,-1.983104,-0.4642715,2.055871,0.9839068,0.01902335,-0.2553736,-28.64189,-27.10849,26.04697
1.260877132,-0.806281,-0.5807754,1.994509,0.9772862,-0.001433164,-0.2573693,-29.39041,-27.10855,26.05087
1.263354778,-0.6204669,-0.5807754,1.749057,0.9748206,-0.0004990348,-0.2583006,-29.39041,-27.10855,26.05087
1.273263455,-0.1249625,-1.163295,1.749057,0.9801802,-0.001417111,-0.2612372,-29.39041,-27.10855,26.05087
1.283172131,0.2466658,-1.338051,1.503605,0.983593,0.001059554,-0.2593317,-29.39041,-27.10855,26.05087
1.293080807,0.2466658,-1.221547,1.564968,0.9840965,0.001073271,-0.2578957,-29.39041,-27.10855,26.05087
1.305466652,0.1847278,-0.7555313,1.503605,0.9846744,0.0006378638,-0.2497413,-28.63219,-27.85768,26.04928
1.421894074,0.8660463,-0.4060195,1.196791,0.9796842,0.002475543,-0.2573654,-28.6532,-26.36113,25.59496
1.424370766,0.9279844,-0.4642715,1.258154,0.9801722,-0.002396886,-0.2631643,-28.6532,-26.36113,25.59496
1.434279442,1.05186,-0.4642715,1.012702,0.983072,0.002500217,-0.2607577,-28.6532,-26.36113,25.59496
1.444188595,0.494418,-0.4642715,1.135428,0.9795712,-2.230983e-05,-0.2713056,-27.88853,-27.48302,26.04424
1.454097271,0.2466658,-0.9302871,1.258154,0.9757109,0.004345751,-0.2611575,-27.88853,-27.48302,26.04424
1.464005947,0.2466658,-1.454555,1.196791,0.9771798,0.0004626942,-0.2655183,-27.88853,-27.48302,26.04424
1.573001385,0.43248,0.409508,0.9513392,0.9827421,-0.006691443,-0.2560143,-28.26763,-27.10846,26.04503
1.575479031,0.43248,0.293004,0.8286135,0.98413,-0.003787397,-0.2603292,-28.26763,-27.10846,26.04503
1.585387707,0.8041083,0.001744238,0.8286135,0.9786593,-0.003902606,-0.2694024,-28.26763,-27.10846,26.04503
1.595296383,1.237675,-0.1730116,0.9513392,0.9753039,-0.002934763,-0.2616824,-28.6435,-27.11032,25.59726
1.605205059,1.237675,-0.4060195,0.5831618,0.9821918,-0.01063191,-0.2665989,-28.6435,-27.11032,25.59726
1.615113258,0.6182941,-0.1147597,0.460436,0.9797844,-0.01210646,-0.2646658,-28.6435,-27.11032,25.59726
1.734017849,1.05186,0.351256,0.5831618,0.984649,-0.004253378,-0.2579363,-28.26763,-27.10846,26.04503
1.734017849,1.05186,0.351256,0.5831618,0.984649,-0.004253378,-0.2579363,-28.26763,-27.10846,26.04503
1.743926525,0.7421702,0.0599962,0.6445247,0.9796495,1.845614e-05,-0.2636235,-28.64674,-26.73389,26.04582
1.753835201,0.2466658,-0.2312636,0.5217989,0.9801945,-0.003848718,-0.262694,-28.64674,-26.73389,26.04582
1.763744354,0.1227897,-0.4642715,0.3990731,0.98219,-0.009657229,-0.2656321,-28.64674,-26.73389,26.04582
1.77365303,0.2466658,-0.5807754,0.5831618,0.9793094,-0.01161755,-0.2627376,-28.64674,-26.73389,26.04582
1.887602329,1.299613,0.001744238,-0.2759189,0.9910701,-0.01340843,-0.2623781,-28.63566,-27.48152,26.4336
1.895034313,1.485427,0.293004,-0.3372818,0.9944633,-0.01094196,-0.2623931,-28.64189,-27.10849,26.04697
1.904942989,1.733179,0.409508,-0.214556,0.9821281,6.665511e-05,-0.260285,-28.64189,-27.10849,26.04697
1.914851665,1.795117,0.0599962,-0.2759189,0.9796388,0.0005007008,-0.2641004,-28.64189,-27.10849,26.04697
1.924760342,1.733179,-0.2895156,-0.214556,0.9806558,0.0005332291,-0.2602683,-28.64189,-27.10849,26.04697
1.934669018,1.299613,-0.6972793,-0.09183015,0.9802163,-0.002373956,-0.2588431,-28.64189,-27.10849,26.04697
2.053574085,2.166745,1.225035,-1.135,0.9826187,-0.0009019544,-0.2612563,-28.6389,-27.10509,26.88216
2.053574085,2.166745,1.225035,-1.135,0.9826187,-0.0009019544,-0.2612563,-28.6389,-27.10509,26.88216
2.063482761,2.104807,1.05028,-0.8281851,0.9835814,-0.003336703,-0.2656029,-28.6389,-27.10509,26.88216
2.073390961,2.166745,0.6425158,-0.7054592,0.979162,-0.003401549,-0.2674831,-28.6389,-27.10509,26.88216
2.083299637,2.104807,-0.1147597,-0.4600076,0.9757279,-0.004913723,-0.2703423,-28.6389,-27.10509,26.88216
2.093208313,1.795117,-0.3477675,-0.6440963,0.985076,-0.01062095,-0.2714272,-28.64513,-26.73207,26.49554
2.204681397,-0.6824049,0.351256,-0.4600076,0.9815314,0.005370373,-0.2645656,-28.27595,-26.3577,26.42819
2.214590073,-0.9301572,0.293004,-0.5827335,0.9820823,0.001018406,-0.2636394,-28.27595,-26.3577,26.42819
2.224498749,-1.115971,0.46776,-0.3986447,0.9859665,-0.0004103236,-0.2680062,-28.27595,-26.3577,26.42819
2.234407902,-0.9920952,0.6425158,-0.03046724,0.9850355,-0.001861559,-0.2651263,-28.27595,-26.3577,26.42819
2.244316578,-0.806281,0.6425158,0.03089567,0.9826103,0.001044861,-0.2598028,-28.27248,-26.73386,26.04388
2.254225254,-0.4346527,0.409508,-0.1531931,0.9799607,0.01407843,-0.264493,-28.27248,-26.73386,26.04388
2.378084183,-1.301785,-0.5225234,-0.09183015,0.9876931,-0.01391535,-0.258509,-27.89822,-26.73383,26.04193
2.383038998,-1.054033,-0.2895156,-0.2759189,0.9880956,-0.01492982,-0.2681226,-27.89822,-26.73383,26.04193
2.395423889,0.1227897,0.2347521,-0.3986447,0.9768063,-0.01167849,-0.2684767,-28.64513,-26.73207,26.49554
2.405333519,1.113798,0.409508,-0.7054592,0.9772261,-0.003415648,-0.2655446,-28.64513,-26.73207,26.49554
2.415242195,1.733179,0.351256,-0.7668222,0.9757412,-0.001492147,-0.2650379,-28.64513,-26.73207,26.49554
2.425150395,1.671241,0.1765001,-0.7054592,0.978625,0.006811248,-0.2602077,-28.64513,-26.73207,26.49554
2.534146309,1.671241,-0.4642715,-1.380451,0.9791966,0.009787226,-0.2486694,-28.64028,-27.10666,26.49669
2.534146309,1.671241,-0.4642715,-1.380451,0.9791966,0.009787226,-0.2486694,-28.64028,-27.10666,26.49669
2.544055462,1.361551,-0.8137832,-1.56454,0.9821299,0.004457817,-0.254974,-28.64028,-27.10666,26.49669
2.553964138,0.7421702,-0.3477675,-1.625903,0.9846557,0.0001403318,-0.2521452,-28.64028,-27.10666,26.49669
2.563872814,0.1847278,0.0599962,-1.871354,0.9768111,-0.006310096,-0.2617188,-28.64028,-27.10666,26.49669
2.57378149,0.06085166,0.001744238,-1.99408,0.9738197,-0.003937852,-0.2645563,-28.64028,-27.10666,26.49669
2.682776928,5.263648,-2.153579,-4.019056,1.013912,-0.02172542,-0.2381567,-28.65055,-26.42147,26.10911
2.685254574,5.263648,-1.920571,-3.834968,1.010471,-0.01982621,-0.2376321,-28.65055,-26.42147,26.10911
2.695162773,4.706205,-1.279799,-3.405427,1.008393,-0.006255917,-0.2336812,-28.65055,-26.42147,26.10911
2.705072403,4.024887,-0.4642715,-3.282701,1.006398,-0.0004474055,-0.2307431,-28.65055,-26.42147,26.10911
2.714981079,2.97194,-0.3477675,-2.975887,0.9876018,0.006524937,-0.2434871,-28.65055,-26.42147,26.10911
2.724889755,1.795117,-0.4642715,-2.914524,0.9821258,0.009333773,-0.2496598,-28.65055,-26.42147,26.10911
2.843794346,3.777135,-0.9885391,-3.159976,0.9831731,0.008894248,-0.2434303,-28.26464,-27.10506,26.88021
2.843794346,3.777135,-0.9885391,-3.159976,0.9831731,0.008894248,-0.2434303,-28.26464,-27.10506,26.88021
2.853703022,3.591321,-0.9885391,-3.405427,0.9891074,0.01192938,-0.2333817,-28.26464,-27.10506,26.88021
2.863611698,2.848064,-0.4642715,-3.89633,0.9944488,0.02368471,-0.2232694,-28.26464,-27.10506,26.88021
2.873520374,1.980931,0.293004,-3.589516,0.9948891,0.02610456,-0.225178,-28.26464,-27.10506,26.88021
2.984993458,-0.2488386,5.710437,-3.834968,0.9823855,0.0140986,-0.266436,-27.58335,-26.73041,26.87549
2.994902611,0.1227897,5.652184,-3.957693,0.9783587,0.01301419,-0.2788901,-27.58335,-26.73041,26.87549
3.004811287,0.494418,6.001697,-3.89633,0.9738429,0.02558199,-0.2754035,-27.58335,-26.73041,26.87549
3.014719963,0.9279844,6.059948,-3.834968,0.983121,0.02861886,-0.2730683,-27.58335,-26.73041,26.87549
3.024628639,0.9899224,5.885192,-3.405427,0.9800596,0.03436936,-0.2787635,-27.58335,-26.73041,26.87549
3.034537315,0.43248,5.244421,-3.221339,0.9706782,0.03957142,-0.2815231,-27.94929,-27.4812,26.49427
3.141056061,-1.363724,3.904626,-2.730435,0.9743967,0.02757309,-0.2667525,-28.27491,-26.41987,26.49263
3.14353323,-1.425662,4.02113,-2.423621,0.9787131,0.03295027,-0.2686772,-28.27491,-26.41987,26.49263
3.153441906,-0.5585288,4.428894,-2.546346,0.9734323,0.03098252,-0.2614391,-28.27491,-26.41987,26.49263
3.163350582,0.06085166,4.894909,-2.607709,0.9793413,0.0398581,-0.2470299,-28.27491,-26.41987,26.49263
3.173260212,0.8041083,5.069665,-2.791798,0.9862553,0.03656486,-0.2442348,-28.27491,-26.41987,26.49263
3.183168411,0.6182941,5.535681,-2.669072,0.9915757,0.04635808,-0.2384569,-27.58264,-27.10971,25.72024
3.227757931,-2.230856,6.234704,-1.932717,0.9861654,0.03749368,-0.2519103,-27.58264,-27.10971,25.72024
3.235188961,-2.788299,5.885192,-1.56454,0.9861405,0.03504168,-0.2572082,-27.59176,-26.42321,25.65388
3.245097637,-3.283803,5.826941,-1.135,0.9886315,0.02826711,-0.2606375,-27.59176,-26.42321,25.65388
3.255007267,-3.469617,5.477429,-0.8895479,0.9850596,0.03253678,-0.2701791,-27.59176,-26.42321,25.65388
3.264915466,-3.965122,4.720153,-0.3986447,0.9797149,0.02517006,-0.2754605,-27.59176,-26.42321,25.65388
3.274824143,-4.212874,3.671618,-0.3372818,0.9747461,0.02604325,-0.282131,-27.59176,-26.42321,25.65388
3.284732819,-4.212874,2.564831,-0.7668222,0.9713135,0.02111715,-0.2888543,-28.65701,-26.0487,25.65824
3.294641495,-3.779308,1.225035,-1.012274,0.9672468,0.02586554,-0.2983882,-28.65701,-26.0487,25.65824
3.304550171,-3.469617,-0.2312636,-1.257725,0.9587727,0.03201875,-0.3069116,-28.65701,-26.0487,25.65824
3.314459324,-3.283803,-2.095326,-1.56454,0.9567674,0.03782216,-0.3049338,-28.65701,-26.0487,25.65824
3.324368,-3.407679,-3.668129,-1.932717,0.9651742,0.03358519,-0.3007184,-28.65701,-26.0487,25.65824
3.334276676,-3.531555,-4.89142,-2.239532,0.9676439,0.03314096,-0.2988236,-27.96335,-26.73698,25.27132
3.344185352,-3.531555,-5.648696,-2.362258,0.9682735,0.02590316,-0.2935959,-27.96335,-26.73698,25.27132
3.354094029,-2.912175,-6.05646,-2.546346,0.9743282,0.01680573,-0.2860299,-27.96335,-26.73698,25.27132
3.364002705,-1.735352,-6.289467,-2.669072,0.9730944,0.01544524,-0.2649006,-27.96335,-26.73698,25.27132
3.373911858,-0.8682191,-6.930239,-2.853161,0.971764,0.0159857,-0.2509601,-27.96335,-26.73698,25.27132
3.383820534,-0.1249625,-7.338003,-3.159976,0.977661,0.01802577,-0.2457193,-28.27039,-27.1116,25.27409
3.39372921,-0.1869005,-7.745767,-2.975887,0.9819423,0.02923831,-0.2442437,-28.27039,-27.1116,25.27409
3.403637886,-0.3727147,-7.862271,-2.853161,0.9863759,0.03760323,-0.2312647,-28.27039,-27.1116,25.27409
3.413546562,-0.4346527,-7.920523,-3.098613,0.9951349,0.04110609,-0.2313224,-28.27039,-27.1116,25.27409
3.423455238,-0.8682191,-7.745767,-3.098613,1.006128,0.03160753,-0.2194834,-28.27039,-27.1116,25.27409
3.433364391,-1.4876,-6.697231,-2.669072,1.008053,0.03210387,-0.2218987,-28.27443,-26.79943,25.27313
3.443273068,-1.673414,-6.231215,-2.239532,0.9958259,0.027071,-0.2280612,-28.27443,-26.79943,25.27313
3.453181744,-0.9920952,-5.706948,-2.239532,0.9823012,0.01527868,-0.2256139,-28.27443,-26.79943,25.27313
3.46309042,0.3705419,-6.05646,-2.484983,0.9851957,0.01236814,-0.2328624,-28.27443,-26.79943,25.27313
3.475476265,1.175737,-5.240932,-2.607709,0.9845487,0.01569447,-0.2443581,-28.27443,-26.79943,25.27313
3.485384941,2.35256,-5.590444,-3.098613,0.9771432,0.02044367,-0.2456984,-27.95552,-27.10817,26.10765
3.495293617,2.414498,-6.813735,-3.46679,0.9771668,0.0155779,-0.2490922,-27.95552,-27.10817,26.10765
3.50520277,1.918993,-6.638979,-3.589516,0.9892931,0.01958258,-0.2539792,-27.95552,-27.10817,26.10765
3.515111447,1.733179,-6.697231,-3.650879,0.9774433,0.02181494,-0.2624976,-27.95552,-27.10817,26.10765
3.525020123,2.166745,-7.338003,-3.89633,0.9773802,0.02422107,-0.2658421,-27.95552,-27.10817,26.10765
3.534928799,3.219692,-7.687515,-3.957693,0.9794099,0.02379624,-0.2591415,-27.9569,-27.10974,25.72219
3.544837475,4.334577,-7.920523,-3.773605,0.9729092,0.03095861,-0.2647955,-27.9569,-27.10974,25.72219
3.554746151,5.449462,-8.211782,-3.89633,0.9768751,0.03298713,-0.2571362,-27.9569,-27.10974,25.72219
3.564655304,6.316595,-8.211782,-4.080419,0.9812099,0.04178844,-0.2532763,-27.9569,-27.10974,25.72219
3.57456398,7.059852,-7.687515,-4.509959,0.9880153,0.04965817,-0.2480052,-27.9569,-27.10974,25.72219
3.584472656,7.369542,-7.454507,-4.509959,0.9860474,0.05109081,-0.2474972,-27.57988,-27.10658,26.49118
3.594381332,7.43148,-7.338003,-4.816774,0.9923135,0.05697707,-0.2494366,-27.57988,-27.10658,26.49118
3.604290008,7.307604,-6.871987,-4.816774,0.9889809,0.05356649,-0.2446269,-27.57988,-27.10658,26.49118
3.614199161,7.307604,-6.231215,-4.816774,0.9815799,0.05587898,-0.2483843,-27.57988,-27.10658,26.49118
3.624107838,7.493418,-5.939956,-4.694048,0.9805723,0.0534123,-0.2541533,-27.57988,-27.10658,26.49118
3.634016514,7.74117,-5.590444,-4.878137,0.9893479,0.05058228,-0.2600153,-27.207,-27.10811,26.10376
3.64392519,8.298612,-5.066176,-5.062225,0.9824896,0.04756303,-0.2647735,-27.207,-27.10811,26.10376
3.653833866,8.484426,-4.949672,-5.123589,0.9746137,0.05280368,-0.2637055,-27.207,-27.10811,26.10376
3.663742065,8.422488,-4.833169,-5.184951,0.9716264,0.05566581,-0.2655794,-27.207,-27.10811,26.10376
3.673651695,8.174736,-4.716664,-5.184951,0.968488,0.06332746,-0.276543,-27.207,-27.10811,26.10376
3.683560371,8.298612,-5.007925,-5.491766,0.9694336,0.06478634,-0.2779824,-26.45226,-27.48108,26.48649
3.693469047,8.236674,-5.357436,-5.675855,0.968064,0.06530642,-0.267883,-26.45226,-27.48108,26.48649
3.703377247,8.112798,-5.590444,-5.614491,0.9646553,0.0579538,-0.2751029,-26.45226,-27.48108,26.48649
3.713285923,8.36055,-6.114712,-5.614491,0.9769402,0.05033364,-0.2781481,-26.45226,-27.48108,26.48649
3.723195553,9.165745,-6.231215,-5.79858,0.975076,0.0459666,-0.2743188,-26.45226,-27.48108,26.48649
3.733104229,10.21869,-6.05646,-5.982669,0.9779887,0.04648018,-0.2757827,-27.1994,-27.47957,26.87585
3.745490074,11.45745,-5.706948,-6.289484,0.9856477,0.05527304,-0.2815569,-27.1994,-27.47957,26.87585
3.75539875,12.38652,-5.18268,-6.289484,1.000877,0.06037802,-0.2686995,-27.1994,-27.47957,26.87585
3.765307426,12.75815,-4.308901,-5.921306,0.9930732,0.05833913,-0.269121,-27.1994,-27.47957,26.87585
3.775216103,13.37753,-3.842885,-5.614491,0.9842848,0.05482099,-0.2719442,-26.07849,-27.10149,27.70404
3.785124302,13.74916,-3.435122,-4.9395,0.9694866,0.0653017,-0.2722176,-26.07849,-27.10149,27.70404
3.795033932,14.43048,-3.143862,-4.878137,0.9598687,0.08452708,-0.2816038,-26.07849,-27.10149,27.70404
3.804942608,14.92598,-3.027358,-5.246314,0.9617511,0.09231825,-0.2796486,-26.07849,-27.10149,27.70404
3.814851284,16.04087,-3.027358,-6.473572,0.9940477,0.1202921,-0.2922451,-26.07849,-27.10149,27.70404
3.82475996,15.79312,-2.153579,-5.921306,0.9439285,0.0963736,-0.2962623,-26.83185,-26.72695,27.70678
3.834668159,13.56335,-0.3477675,-4.387233,0.9636874,0.1047672,-0.3146352,-26.83185,-26.72695,27.70678
3.844576836,13.25366,-0.2312636,-4.203145,0.9588764,0.08913709,-0.3252583,-26.83185,-26.72695,27.70678
3.854486465,13.50141,-0.5225234,-4.325871,0.9618795,0.08579525,-0.3224274,-26.83185,-26.72695,27.70678
3.864395142,13.50141,-0.5807754,-4.203145,0.9607954,0.08231313,-0.3368452,-26.83185,-26.72695,27.70678
3.874303341,13.50141,-0.8137832,-3.650879,0.9602482,0.09008157,-0.3334274,-26.45888,-26.41162,28.4748
3.884212017,13.06784,-1.629311,-3.098613,0.9474082,0.09375872,-0.3414468,-26.45888,-26.41162,28.4748
3.894120693,12.5104,-2.386586,-2.791798,0.9471985,0.09852766,-0.356298,-26.45888,-26.41162,28.4748
3.904030323,11.89102,-3.027358,-2.300895,0.9386835,0.111001,-0.3614179,-26.45888,-26.41162,28.4748
3.913938522,11.08582,-3.959389,-2.239532,0.9410636,0.1192907,-0.3580236,-26.45888,-26.41162,28.4748
3.923847198,10.40451,-4.658412,-2.239532,0.944556,0.1130283,-0.3585778,-25.7077,-26.72529,28.0864
3.933755875,9.599311,-4.89142,-2.055443,0.9505297,0.1053522,-0.3572437,-25.7077,-26.72529,28.0864
3.943664551,9.041868,-5.240932,-1.871354,0.9482195,0.09905007,-0.3515024,-25.7077,-26.72529,28.0864
3.953573227,9.165745,-5.357436,-1.625903,0.9501178,0.103435,-0.3519709,-25.7077,-26.72529,28.0864
3.96348238,8.917993,-5.881704,-1.319088,0.9517002,0.09912316,-0.3457722,-25.7077,-26.72529,28.0864
3.973391056,8.484426,-5.415688,-1.319088,0.9654018,0.09734893,-0.346871,-26.08924,-26.03673,28.53595
3.983299732,8.236674,-4.658412,-0.8895479,0.9665424,0.09403122,-0.3348997,-26.08924,-26.03673,28.53595
3.993208408,7.865046,-3.668129,-0.5213705,0.9669925,0.09645616,-0.335848,-26.08924,-26.03673,28.53595
4.003117085,7.121789,-2.677846,0.1536215,0.9624882,0.1026885,-0.3386458,-26.08924,-26.03673,28.53595
4.013026237,6.068842,-2.095326,0.3990731,0.9547095,0.0977358,-0.3400474,-26.08924,-26.03673,28.53595
4.02541256,5.015896,-2.328334,0.5831618,0.9499397,0.09968813,-0.3260657,-25.33449,-26.4097,28.91868
4.035320759,4.024887,-2.736098,0.8286135,0.9504917,0.09728807,-0.3227256,-25.33449,-26.4097,28.91868
4.045229435,2.538374,-3.37687,0.8286135,0.9536155,0.08425292,-0.3194803,-25.33449,-26.4097,28.91868
4.055138111,0.9899224,-4.250649,0.8286135,0.9578777,0.06106967,-0.3124717,-25.33449,-26.4097,28.91868
4.065046787,0.3086039,-5.007925,1.012702,0.9687713,0.04176315,-0.3218241,-25.33449,-26.4097,28.91868
4.074956417,0.06085166,-4.89142,1.258154,0.9754591,0.02347856,-0.3109642,-24.96508,-26.03508,28.91558
4.084864616,0.9279844,-3.668129,1.626331,0.9832891,0.01382381,-0.3216643,-24.96508,-26.03508,28.91558
4.094773293,2.414498,-2.852602,1.749057,0.9704384,0.0179832,-0.3301606,-24.96508,-26.03508,28.91558
4.104681969,3.653259,-2.21183,1.81042,0.9644811,0.02469233,-0.3310212,-24.96508,-26.03508,28.91558
4.114590645,4.334577,-1.745815,1.871783,0.9595541,0.03485557,-0.3227452,-24.96508,-26.03508,28.91558
4.124499798,5.015896,-1.745815,1.749057,0.9569665,0.04889694,-0.3202269,-25.33796,-26.03354,29.30299
4.134408474,4.89202,-2.444838,1.564968,0.9575211,0.05576655,-0.3057815,-25.33796,-26.03354,29.30299
4.14431715,4.024887,-3.260366,1.626331,0.9595563,0.04705183,-0.3082592,-25.33796,-26.03354,29.30299
4.154225826,3.095816,-3.668129,1.564968,0.9633061,0.05482142,-0.3149644,-25.33796,-26.03354,29.30299
4.164134502,1.980931,-3.668129,1.871783,0.9553609,0.0551479,-0.3264125,-25.33796,-26.03354,29.30299
4.174043655,1.918993,-3.901137,2.117234,0.9523293,0.05798711,-0.3326077,-25.34281,-25.65894,29.30184
4.183952332,2.35256,-3.784633,1.933146,0.9524758,0.05025845,-0.3273787,-25.34281,-25.65894,29.30184
4.193861008,2.910002,-3.551625,1.994509,0.9589321,0.04599974,-0.3226652,-25.34281,-25.65894,29.30184
4.203769684,3.343568,-2.910854,2.178597,0.9598123,0.05376602,-0.3231018,-25.34281,-25.65894,29.30184
4.21367836,3.467444,-2.677846,2.117234,0.9538387,0.06144219,-0.3244359,-25.34281,-25.65894,29.30184
4.223587036,3.405506,-2.852602,1.933146,0.9518319,0.07065954,-0.318594,-25.71408,-25.65557,30.13896
4.233496189,2.290622,-3.143862,1.933146,0.9503128,0.0832969,-0.3088926,-25.71408,-25.65557,30.13896
4.243404865,0.8660463,-3.37687,1.81042,0.970524,0.0855844,-0.2903381,-25.71408,-25.65557,30.13896
4.253313541,-0.4346527,-2.677846,1.749057,0.9913247,0.0703694,-0.2824692,-25.71408,-25.65557,30.13896
4.263222218,-0.8682191,-1.512807,1.871783,1.000867,0.05256782,-0.2788347,-25.71408,-25.65557,30.13896
4.273130894,-0.6824049,-0.2895156,2.362686,1.004982,0.04247906,-0.2707773,-25.71546,-25.65714,29.75349
4.283040047,-0.6824049,0.9337757,2.608138,1.004569,0.0332441,-0.2741961,-25.71546,-25.65714,29.75349
4.295425892,-0.9301572,1.691051,3.405856,0.9892504,0.03687304,-0.2855541,-25.71546,-25.65714,29.75349
4.305334568,-1.549538,2.098815,3.896759,0.975813,0.04634124,-0.2973707,-25.71546,-25.65714,29.75349
4.315243244,-2.292794,2.85609,4.080848,0.9637815,0.06213761,-0.3077177,-25.71546,-25.65714,29.75349
4.32515192,-3.407679,2.623082,4.264936,0.9452056,0.05605367,-0.3143086,-25.71893,-25.28098,30.13781
4.335060597,-4.398688,1.865807,3.589944,0.9398196,0.05256784,-0.3190836,-25.71893,-25.28098,30.13781
4.34496975,-5.203883,0.9920276,3.344493,0.9482012,0.04343963,-0.3230632,-25.71893,-25.28098,30.13781
4.354878426,-5.947139,0.5842639,3.28313,0.9545987,0.03378449,-0.3303891,-25.71893,-25.28098,30.13781
4.364787102,-6.628458,0.7007678,3.160404,0.9598204,0.03328242,-0.3462859,-25.71893,-25.28098,30.13781
4.374695778,-6.56652,0.9337757,3.160404,0.9661757,0.02799552,-0.352622,-24.97664,-24.90789,29.7473
4.384604454,-4.832254,1.166783,3.099041,0.9638388,0.01485027,-0.3574895,-24.97664,-24.90789,29.7473
4.394513607,-2.726361,0.7590198,3.099041,0.9584095,0.02158586,-0.3545135,-24.97664,-24.90789,29.7473
4.404422283,-1.79729,-0.5225234,3.28313,0.9560468,0.02257349,-0.345362,-24.97664,-24.90789,29.7473
4.414330959,-1.921166,-1.338051,3.221767,0.9477209,0.02538921,-0.3433456,-24.97664,-24.90789,29.7473
4.424239636,-2.850237,-1.978823,3.405856,0.9522519,0.02599999,-0.329939,-25.34766,-25.28435,29.30069
4.434148312,-3.345741,-2.095326,3.28313,0.9586241,0.02755115,-0.3266265,-25.34766,-25.28435,29.30069
4.444057465,-3.593493,-2.270082,2.976315,0.9640265,0.03006994,-0.321378,-25.34766,-25.28435,29.30069
4.453966141,-3.407679,-1.978823,2.976315,0.970961,0.03166538,-0.310868,-25.34766,-25.28435,29.30069
4.463874817,-3.345741,-1.163295,3.099041,0.9699668,0.02725444,-0.3176104,-25.34766,-25.28435,29.30069
4.473783493,-3.097989,-1.046791,3.160404,0.9720094,0.03317777,-0.3022248,-25.34766,-25.28435,29.30069
4.483692169,-2.912175,-0.5225234,2.914952,0.9750102,0.03373722,-0.2950464,-25.34766,-25.28435,29.30069
4.493601322,-2.850237,-0.3477675,3.037678,0.9755124,0.03716487,-0.2897465,-25.34766,-25.28435,29.30069
4.503509998,-2.788299,0.293004,2.608138,0.9769675,0.03278683,-0.2960312,-25.34766,-25.28435,29.30069
4.513418675,-2.850237,1.108532,2.424049,0.9735557,0.02982283,-0.2984202,-25.34766,-25.28435,29.30069
4.523327351,-2.850237,1.341539,2.424049,0.9642295,0.02627313,-0.3060401,-26.10103,-24.90981,29.30342
4.533236027,-2.602484,0.9337757,2.178597,0.960848,0.02283707,-0.3060317,-26.10103,-24.90981,29.30342
4.54314518,-2.045042,0.46776,2.178597,0.9667344,0.01999354,-0.3075455,-26.10103,-24.90981,29.30342
4.553053856,-1.859228,0.1182482,2.055871,0.9662366,0.01949503,-0.3089848,-26.10103,-24.90981,29.30342
4.565439701,-1.735352,-0.4060195,1.994509,0.9685901,0.02094155,-0.3161992,-26.10103,-24.90981,29.30342
4.575348377,-1.79729,-0.5225234,1.994509,0.9646431,0.02721566,-0.3122797,-25.72031,-25.28255,29.75234
4.585257053,-1.79729,-0.5807754,1.933146,0.9620742,0.02565704,-0.3261909,-25.72031,-25.28255,29.75234
4.595166206,-1.425662,-0.6390273,1.81042,0.957653,0.03193272,-0.3208265,-25.72031,-25.28255,29.75234
4.605074882,-1.363724,-0.7555313,1.442243,0.9635448,0.03153098,-0.318963,-25.72031,-25.28255,29.75234
4.614983559,-1.239847,-0.5807754,1.074065,0.9621658,0.02911938,-0.3132044,-25.72031,-25.28255,29.75234
4.624892235,-1.425662,-0.2312636,1.012702,0.96675,0.01951384,-0.3065886,-25.70737,-26.40816,29.30609
4.634800911,-1.239847,-0.3477675,0.9513392,0.9657606,0.02047128,-0.3065731,-25.70737,-26.40816,29.30609
4.644710064,-0.806281,-0.7555313,0.8899763,0.9579357,0.01939689,-0.3079483,-25.70737,-26.40816,29.30609
4.65461874,-0.5585288,-1.862319,0.7058876,0.9578862,0.01693216,-0.3156468,-25.70737,-26.40816,29.30609
4.664527416,-0.2488386,-2.270082,0.7672505,0.9672749,0.01856307,-0.304199,-25.70737,-26.40816,29.30609
4.674436092,-0.1249625,-1.862319,0.5831618,0.9730554,0.02005465,-0.3109647,-25.73162,-24.53519,29.30032
4.684344768,0.06085166,-1.804067,0.460436,0.974058,0.02788463,-0.299398,-25.73162,-24.53519,29.30032
4.694253921,0.3086039,-1.279799,0.2149844,0.9769542,0.02936525,-0.3013356,-25.73162,-24.53519,29.30032
4.704162598,0.6182941,-0.9302871,0.3990731,0.9760351,0.02938368,-0.2955651,-25.73162,-24.53519,29.30032
4.714071274,0.6802322,-0.7555313,0.460436,0.9740784,0.02740748,-0.2979609,-25.73162,-24.53519,29.30032
4.72397995,0.494418,-0.5225234,0.3377102,0.9739124,0.03512595,-0.3051103,-26.08972,-25.65717,29.75544
4.733888626,0.06085166,0.293004,0.3377102,0.9662143,0.02631271,-0.3031772,-26.08972,-25.65717,29.75544
4.743797779,-0.4965908,0.7007678,0.5217989,0.9669699,0.03255072,-0.3175474,-26.08972,-25.65717,29.75544
4.753706455,-0.6824049,0.9337757,0.3377102,0.9575016,0.03965883,-0.3265355,-26.08972,-25.65717,29.75544
4.763615131,-1.239847,0.9920276,0.1536215,0.9561522,0.03189666,-0.3241739,-26.08972,-25.65717,29.75544
4.773523807,-1.735352,0.46776,0.460436,0.9575849,0.02897045,-0.3309289,-26.09133,-25.659,29.30573
4.78343296,-2.168918,-0.2312636,0.2763473,0.9590573,0.02850388,-0.3309456,-26.09133,-25.659,29.30573
4.793341637,-2.168918,-0.8720351,0.2763473,0.9557381,0.01778319,-0.3333871,-26.09133,-25.659,29.30573
4.803250313,-1.735352,-1.221547,0.460436,0.9611904,0.01447427,-0.3300985,-26.09133,-25.659,29.30573
4.813158989,-1.425662,-1.338051,0.3377102,0.9642451,0.009695898,-0.3239165,-26.09133,-25.659,29.30573
4.823067665,-1.549538,-1.338051,0.5831618,0.970039,0.01460905,-0.3253779,-24.97664,-24.90789,29.7473
4.83545351,-1.363724,-1.396303,0.5217989,0.9689036,0.02573441,-0.327694,-24.97664,-24.90789,29.7473
4.845362663,-1.4876,-1.804067,0.2763473,0.9669998,0.02427357,-0.324325,-24.97664,-24.90789,29.7473
4.855271339,-1.859228,-1.978823,0.3990731,0.965461,0.03153489,-0.322822,-24.97664,-24.90789,29.7473
4.865180016,-2.292794,-2.095326,0.460436,0.9625456,0.03248333,-0.3199077,-24.9734,-25.28432,29.29874
4.875088692,-2.230856,-2.50309,0.5217989,0.9620038,0.03732773,-0.3193903,-24.9734,-25.28432,29.29874
4.884997368,-2.230856,-2.677846,0.2149844,0.9655064,0.03350973,-0.316087,-24.9734,-25.28432,29.29874
4.894906521,-2.292794,-2.153579,0.09225857,0.9689596,0.03259285,-0.3142044,-24.9734,-25.28432,29.29874
4.904815197,-2.354732,-1.804067,0.09225857,0.9646457,0.03111948,-0.3074521,-24.9734,-25.28432,29.29874
4.914723873,-2.41667,-1.396303,0.2149844,0.9696159,0.02683236,-0.3046457,-25.72192,-25.28438,29.30263
4.924632549,-2.540546,-1.396303,0.3990731,0.9657553,0.01802948,-0.3099504,-25.72192,-25.28438,29.30263
4.934541702,-2.41667,-1.279799,0.3990731,0.9623141,0.02041604,-0.3089423,-25.72192,-25.28438,29.30263
4.944450378,-1.859228,-1.512807,0.5217989,0.9646307,0.02330675,-0.3180675,-25.72192,-25.28438,29.30263
4.954359055,-1.549538,-0.9885391,0.2763473,0.9713929,0.0306662,-0.3176009,-25.72192,-25.28438,29.30263
4.964267731,-1.4876,-0.5225234,0.03089567,0.9713625,0.0365041,-0.3137204,-24.97179,-25.28249,29.74845
4.974176407,-1.673414,-0.1730116,-0.03046724,0.9727522,0.03843346,-0.3190022,-24.97179,-25.28249,29.74845
4.98408556,-1.549538,0.293004,-0.03046724,0.969392,0.03403291,-0.3180401,-24.97179,-25.28249,29.74845
4.993994236,-1.735352,0.8172717,0.09225857,0.96049,0.03630935,-0.325145,-24.97179,-25.28249,29.74845
5.003902912,-1.363724,0.7590198,0.03089567,0.9556085,0.03234991,-0.3289675,-24.97179,-25.28249,29.74845
5.013811588,-0.4346527,0.5842639,0.1536215,0.9614967,0.03389753,-0.3251703,-25.72378,-24.90638,30.13665
5.023720741,0.2466658,0.293004,0.09225857,0.9530498,0.03860147,-0.3327435,-25.72378,-24.90638,30.13665
5.033629417,0.1847278,-0.1147597,0.09225857,0.9583369,0.04252368,-0.3370876,-25.72378,-24.90638,30.13665
5.043538094,-0.001086392,-0.4642715,-0.09183015,0.9652317,0.04702534,-0.327038,-25.72378,-24.90638,30.13665
5.05344677,-0.5585288,-0.3477675,-0.214556,0.9682326,0.04758478,-0.3198597,-25.72378,-24.90638,30.13665
5.063355446,-0.8682191,0.001744238,-0.214556,0.9619347,0.0455845,-0.3164537,-25.71222,-26.03357,29.30494
5.073264599,-1.054033,0.293004,-0.3372818,0.9590358,0.04020005,-0.3193437,-25.71222,-26.03357,29.30494
5.083173275,-0.4346527,0.46776,-0.2759189,0.9644832,0.03688859,-0.3165352,-25.71222,-26.03357,29.30494
5.093081951,0.2466658,0.9337757,-0.09183015,0.9688631,0.0344938,-0.3213932,-25.71222,-26.03357,29.30494
5.105467796,0.7421702,1.225035,-0.09183015,0.9667575,0.04414753,-0.3246706,-25.71222,-26.03357,29.30494
5.115376473,0.8660463,1.283287,0.09225857,0.9637367,0.05187033,-0.324111,-26.47044,-25.28444,29.30652
5.125285625,0.1227897,1.108532,0.09225857,0.9612366,0.05278662,-0.3284032,-26.47044,-25.28444,29.30652
5.135194302,-1.054033,1.05028,-0.09183015,0.9650487,0.05863743,-0.3312804,-26.47044,-25.28444,29.30652
5.145102978,-2.354732,1.108532,-0.1531931,0.9661217,0.04943087,-0.3327922,-26.47044,-25.28444,29.30652
5.155011654,-2.540546,1.283287,-0.03046724,0.9577844,0.04248448,-0.3433248,-26.47044,-25.28444,29.30652
5.16492033,-2.168918,1.166783,-0.09183015,0.9517965,0.03649473,-0.3620355,-25.72169,-25.28411,29.36687
5.174829483,-1.4876,0.6425158,0.09225857,0.9537445,0.03797849,-0.3610833,-25.72169,-25.28411,29.36687
5.184738159,-0.4965908,0.8172717,0.3377102,0.9469329,0.03352015,-0.3629707,-25.72169,-25.28411,29.36687
5.194646835,-0.001086392,0.9337757,0.3990731,0.9453549,0.04076108,-0.3653086,-25.72169,-25.28411,29.36687
5.204555512,0.1227897,0.7590198,0.3990731,0.9403937,0.04554065,-0.3666714,-25.72169,-25.28411,29.36687
5.214464665,-0.06302445,0.001744238,0.3990731,0.9374022,0.04791288,-0.3695089,-25.71707,-25.65897,29.30378
5.224373341,-0.4965908,-0.9302871,0.2149844,0.9378946,0.05133544,-0.3651692,-25.71707,-25.65897,29.30378
5.234282017,-1.177909,-1.629311,0.2149844,0.9316071,0.04641366,-0.3641835,-25.71707,-25.65897,29.30378
5.244190693,-2.045042,-1.862319,0.460436,0.9469004,0.03789347,-0.3610206,-25.71707,-25.65897,29.30378
5.254099369,-2.292794,-2.095326,0.5831618,0.947943,0.03989065,-0.3523741,-25.71707,-25.65897,29.30378
5.264008522,-1.921166,-1.687563,0.7672505,0.954337,0.03755073,-0.3514885,-26.09942,-24.90798,29.75314
5.273917198,-1.363724,-1.105043,0.6445247,0.9568824,0.03324344,-0.3467392,-26.09942,-24.90798,29.75314
5.283825874,-0.3727147,-0.5807754,0.460436,0.9638044,0.03092997,-0.342017,-26.09942,-24.90798,29.75314
5.293734551,0.1847278,0.0599962,0.460436,0.951032,0.02976427,-0.349109,-26.09942,-24.90798,29.75314
5.303643704,0.5563561,-0.4642715,0.460436,0.9510552,0.0278251,-0.3491222,-26.09942,-24.90798,29.75314
5.31355238,0.8660463,-0.8720351,0.3990731,0.9530209,0.03029374,-0.3452826,-25.71707,-25.65897,29.30378
5.323461056,0.8660463,-1.221547,0.5831618,0.9491166,0.02927303,-0.3457335,-25.71707,-25.65897,29.30378
5.333369732,0.8041083,-1.279799,0.3990731,0.9564928,0.02987439,-0.3409961,-25.71707,-25.65897,29.30378
5.343278408,0.9279844,-0.9885391,0.2763473,0.9593899,0.03086767,-0.3434171,-25.71707,-25.65897,29.30378
5.353187561,1.609303,-0.7555313,0.2763473,0.9614446,0.03289483,-0.3314186,-25.71707,-25.65897,29.30378
5.363096237,2.600312,-0.5807754,-0.03046724,0.9566023,0.0343216,-0.3251223,-25.34281,-25.65894,29.30184
5.375482082,3.343568,0.0599962,-0.3372818,0.956089,0.03430279,-0.3275184,-25.34281,-25.65894,29.30184
5.385390759,3.777135,0.5260119,-0.3372818,0.960564,0.03342098,-0.3213236,-25.34281,-25.65894,29.30184
5.395299435,4.272639,0.351256,-0.5827335,0.9570755,0.04017322,-0.3198059,-25.34281,-25.65894,29.30184
5.405209065,3.962949,0.0599962,-0.5213705,0.9649779,0.03640987,-0.316543,-25.34281,-25.65894,29.30184
5.415117264,3.405506,0.293004,-0.3986447,0.9654169,0.03687781,-0.3208653,-25.72192,-25.28438,29.30263
5.42502594,2.66225,-0.1730116,-0.03046724,0.9609526,0.03727737,-0.3265833,-25.72192,-25.28438,29.30263
5.434934616,1.361551,-0.5807754,0.3377102,0.9619762,0.03097192,-0.3295157,-25.72192,-25.28438,29.30263
5.444844246,0.5563561,-0.6972793,0.3377102,0.9663391,0.02710492,-0.3377445,-25.72192,-25.28438,29.30263
5.454752922,-0.06302445,-0.6972793,0.5217989,0.96834,0.02373821,-0.3373052,-25.72192,-25.28438,29.30263
5.464661121,-0.4965908,-0.7555313,0.5831618,0.9613699,0.02553885,-0.3473122,-25.34743,-25.28408,29.36493
5.474569798,0.2466658,-0.6390273,0.6445247,0.9619808,0.01780353,-0.3444884,-25.34743,-25.28408,29.36493
5.484479427,0.8660463,-0.9885391,0.8286135,0.9633062,0.02262636,-0.3526312,-25.34743,-25.28408,29.36493
5.494388104,1.485427,-2.153579,0.8899763,0.9584563,0.02551261,-0.3453647,-25.34743,-25.28408,29.36493
5.504296303,1.609303,-2.619594,0.7058876,0.9603583,0.03331397,-0.3414891,-25.34743,-25.28408,29.36493
5.514204979,1.423489,-2.79435,0.6445247,0.9651356,0.04063385,-0.3438853,-25.34605,-25.28252,29.7504
5.524113655,0.9279844,-2.677846,0.7672505,0.9553076,0.04682745,-0.3413523,-25.34605,-25.28252,29.7504
5.534023285,0.9899224,-2.50309,0.7058876,0.9478464,0.05788914,-0.3407295,-25.34605,-25.28252,29.7504
5.543931484,0.8041083,-2.50309,0.6445247,0.9552323,0.05312975,-0.3413097,-25.34605,-25.28252,29.7504
5.55384016,0.494418,-2.736098,0.460436,0.9519086,0.05021161,-0.3350563,-25.34605,-25.28252,29.7504
5.563748836,0.06085166,-3.027358,0.6445247,0.9613872,0.03481616,-0.3347664,-25.72677,-24.90978,29.30148
5.573658466,-0.3727147,-2.910854,1.012702,0.9639557,0.0285697,-0.3300302,-25.72677,-24.90978,29.30148
5.583566666,-0.806281,-2.677846,1.196791,0.9698186,0.03059193,-0.3281503,-25.72677,-24.90978,29.30148
5.593475342,-1.239847,-2.561342,1.196791,0.9679516,0.03305276,-0.3165928,-25.72677,-24.90978,29.30148
5.603384018,-1.301785,-2.21183,1.258154,0.9737356,0.04332666,-0.3127366,-25.72677,-24.90978,29.30148
5.613293648,-1.79729,-1.454555,1.258154,0.9717664,0.04817323,-0.3083647,-25.71707,-25.65897,29.30378
5.623202324,-2.292794,-0.8720351,1.258154,0.9718264,0.04478987,-0.3064671,-25.71707,-25.65897,29.30378
5.633110523,-2.788299,-0.1147597,1.442243,0.9713572,0.04479399,-0.3045422,-25.71707,-25.65897,29.30378
5.645496845,-2.664423,1.225035,1.503605,0.9703907,0.03600717,-0.3137148,-25.71707,-25.65897,29.30378
5.655405521,-2.168918,1.574547,1.626331,0.9660536,0.03110713,-0.3132271,-25.71707,-25.65897,29.30378
5.665314674,-1.79729,1.632799,1.749057,0.9724258,0.03265829,-0.3099146,-25.72169,-25.28411,29.36687
5.67522335,-1.983104,2.331823,1.994509,0.9743798,0.02536482,-0.3186241,-25.72169,-25.28411,29.36687
5.685132027,-2.168918,2.914342,2.178597,0.9685491,0.02189585,-0.3190735,-25.72169,-25.28411,29.36687
5.695040703,-2.540546,2.914342,2.23996,0.965611,0.01649103,-0.3258045,-25.72169,-25.28411,29.36687
5.704949856,-2.41667,3.14735,2.424049,0.9666427,0.005799509,-0.3330877,-25.72169,-25.28411,29.36687
5.714858532,-1.859228,3.14735,2.669501,0.9609776,0.02363183,-0.3401188,-26.09618,-25.28441,29.30458
5.724767208,-1.549538,3.72987,2.608138,0.9577065,0.05024882,-0.3418319,-26.09618,-25.28441,29.30458
5.734675884,-1.239847,3.788122,2.301323,0.9540483,0.07203472,-0.3392521,-26.09618,-25.28441,29.30458
5.74458456,-1.611476,3.788122,2.23996,0.9589477,0.07697904,-0.3325423,-26.09618,-25.28441,29.30458
5.754493713,-2.788299,3.43861,2.362686,0.9621356,0.06105043,-0.3264359,-26.09618,-25.28441,29.30458
5.764402389,-4.02706,3.263854,2.546775,0.9613075,0.04355517,-0.3323067,-26.09618,-25.28441,29.30458
5.774311066,-4.398688,2.797838,2.730864,0.956479,0.0293794,-0.3429199,-26.09618,-25.28441,29.30458
5.784219742,-3.965122,2.215319,2.853589,0.9541229,0.01329737,-0.3530886,-26.09618,-25.28441,29.30458
5.794128895,-3.71737,2.390074,3.467218,0.9557316,0.002657788,-0.3517339,-26.09618,-25.28441,29.30458
5.804037571,-3.345741,3.030846,3.528581,0.9531537,0.005972566,-0.360811,-26.09618,-25.28441,29.30458
5.813946247,-2.602484,2.739586,3.651307,0.9477218,0.008804332,-0.3626625,-25.71546,-25.65714,29.75349
5.823854923,-1.549538,2.506578,3.774033,0.9522895,0.0001658363,-0.3565202,-25.71546,-25.65714,29.75349
5.833764076,-0.1869005,2.739586,3.651307,0.9543981,-0.003144822,-0.3455181,-25.71546,-25.65714,29.75349
5.843672752,1.609303,2.85609,3.405856,0.9651135,-0.005470861,-0.3523549,-25.71546,-25.65714,29.75349
5.853581428,3.901011,3.788122,3.467218,0.9699389,0.002361839,-0.3494664,-25.71546,-25.65714,29.75349
5.863490105,6.750161,4.428894,3.221767,0.9709611,0.03092933,-0.3593689,-25.71845,-25.66054,28.91832
5.873399258,8.794116,5.360925,2.669501,0.9641618,0.07793644,-0.3474691,-25.71845,-25.66054,28.91832
5.883307934,8.856054,5.943445,2.301323,0.9590616,0.1104486,-0.3299196,-25.71845,-25.66054,28.91832
5.89321661,6.874037,6.351208,2.23996,0.9546191,0.1176887,-0.3255088,-25.71845,-25.66054,28.91832
5.903125286,4.148763,6.1182,2.424049,0.9374861,0.1111229,-0.3349973,-25.71845,-25.66054,28.91832
5.913034439,1.423489,5.302673,3.467218,0.9342565,0.08630248,-0.3452161,-25.7233,-25.28595,28.91716
5.925420284,-0.5585288,4.661901,4.203574,0.9403688,0.05918619,-0.3531358,-25.7233,-25.28595,28.91716
5.93532896,-1.301785,4.02113,4.694477,0.9492475,0.05348308,-0.3522956,-25.7233,-25.28595,28.91716
5.945237637,-2.230856,4.079382,5.001291,0.9537337,0.04382658,-0.3552824,-25.7233,-25.28595,28.91716
5.955146313,-3.903184,3.613366,5.614921,0.9522818,0.043816,-0.3538285,-25.7233,-25.28595,28.91716
5.965055466,-6.318768,3.089098,6.351275,0.945155,0.03017365,-0.3495321,-26.09595,-25.28414,29.36882
5.974964142,-8.79629,2.681334,6.842178,0.9443203,0.01901636,-0.3486384,-26.09595,-25.28414,29.36882
5.984872818,-10.53056,2.273571,7.148993,0.950931,0.002642923,-0.3430467,-26.09595,-25.28414,29.36882
5.994781494,-10.65443,1.749303,7.08763,0.960337,-0.007912236,-0.3441643,-26.09595,-25.28414,29.36882
6.004690647,-9.229856,1.108532,7.148993,0.9574293,-0.008423273,-0.3422202,-26.09595,-25.28414,29.36882
6.014599323,-6.752334,0.8755237,6.719453,0.9636509,0.0003666554,-0.3451002,-26.47182,-25.28601,28.92105
6.024507999,-4.770316,0.5842639,6.412638,0.954285,0.005089013,-0.3469027,-26.47182,-25.28601,28.92105
6.034416676,-3.593493,0.0599962,5.921735,0.9464471,0.01376399,-0.3381296,-26.47182,-25.28601,28.92105
6.044325829,-3.655432,-0.5807754,5.553557,0.9430659,0.01813302,-0.3289462,-26.47182,-25.28601,28.92105
6.054234505,-4.212874,-1.512807,5.062654,0.944142,0.01526953,-0.3227332,-26.47182,-25.28601,28.92105
6.064143181,-4.33675,-2.153579,5.001291,0.9512159,0.002303358,-0.3156826,-26.47182,-25.28601,28.92105
6.074051857,-4.088998,-3.143862,5.001291,0.9580884,0.002891003,-0.3123811,-26.47182,-25.28601,28.92105
6.08396101,-3.71737,-3.609878,5.124017,0.9630915,0.002035649,-0.3023498,-26.47182,-25.28601,28.92105
6.093869686,-3.71737,-3.202114,4.878565,0.9721666,0.02496687,-0.296519,-26.47182,-25.28601,28.92105
6.103778362,-4.150936,-2.444838,4.939929,0.9646928,0.04285134,-0.2891284,-26.47182,-25.28601,28.92105
6.113687038,-5.451635,-2.037075,4.633114,0.9657627,0.04876507,-0.2732537,-26.84954,-24.90987,29.30732
6.123596191,-7.247838,-1.920571,4.75584,0.964451,0.04443722,-0.263187,-26.84954,-24.90987,29.30732
6.133504868,-9.353732,-2.037075,4.939929,0.974061,0.02423207,-0.255728,-26.84954,-24.90987,29.30732
6.143413544,-11.14994,-2.270082,5.18538,0.9895688,0.0002137963,-0.2497894,-26.84954,-24.90987,29.30732
6.15332222,-11.76932,-2.21183,5.737646,0.9990803,-0.01174988,-0.2422745,-26.84954,-24.90987,29.30732
6.163231373,-11.45963,-1.629311,5.860372,1.005502,-0.01309984,-0.2375413,-27.22518,-24.91147,28.92379
6.173140049,-10.71637,-0.2895156,5.430832,1.003823,-0.006887086,-0.2509288,-27.22518,-24.91147,28.92379
6.183048725,-9.973113,1.399791,5.18538,0.997339,0.001747502,-0.2532121,-27.22518,-24.91147,28.92379
6.19543457,-9.849237,2.85609,4.878565,0.9758592,0.001008254,-0.2506176,-27.22518,-24.91147,28.92379
6.205343247,-10.15893,3.43861,4.019485,0.9787875,-0.004323701,-0.2574024,-26.46212,-26.0352,28.92336
6.215252876,-10.46862,3.263854,3.467218,0.9713866,-0.0127429,-0.2737155,-26.46212,-26.0352,28.92336
6.225161552,-10.53056,2.448327,3.71267,0.9701087,-0.03022385,-0.2757407,-26.46212,-26.0352,28.92336
6.235069752,-10.09699,1.574547,4.019485,0.9789395,-0.04180562,-0.2864631,-26.46212,-26.0352,28.92336
6.244979382,-9.229856,0.8172717,4.571751,0.9903268,-0.06110353,-0.2953397,-26.46212,-26.0352,28.92336
6.254888058,-8.672414,0.5260119,4.694477,0.994264,-0.0620169,-0.2939418,-26.84607,-25.28604,28.923
6.264796734,-8.734352,1.225035,5.18538,0.9838746,-0.05098909,-0.2928119,-26.84607,-25.28604,28.923
6.274704933,-8.424662,1.516295,5.18538,0.9823995,-0.04906049,-0.2913449,-26.84607,-25.28604,28.923
6.284614563,-7.371715,1.166783,4.633114,0.9778724,-0.04381554,-0.2975102,-26.84607,-25.28604,28.923
6.294523239,-6.071015,0.293004,4.14221,0.9713947,-0.03859234,-0.3031774,-26.84607,-25.28604,28.923
6.304431915,-5.203883,-0.4060195,4.080848,0.9698381,-0.02695005,-0.2982838,-27.21339,-26.03839,28.15632
6.314340115,-5.389697,-1.163295,3.896759,0.9653056,-0.01878106,-0.3015486,-27.21339,-26.03839,28.15632
6.324249744,-5.823263,-2.153579,3.405856,0.9647616,-0.01003538,-0.2966837,-27.21339,-26.03839,28.15632
6.334158421,-5.885201,-3.318618,3.160404,0.9693461,-0.01183582,-0.2808929,-27.21339,-26.03839,28.15632
6.344067097,-5.575511,-4.192397,2.853589,0.9723006,-0.01276387,-0.2799661,-27.21339,-26.03839,28.15632
6.353975773,-5.451635,-5.007925,2.914952,0.9777217,-0.009747554,-0.2723136,-27.20854,-26.41299,28.15747
6.363884926,-5.451635,-4.833169,2.424049,0.9837858,-0.01591329,-0.2604068,-27.20854,-26.41299,28.15747
6.373793602,-4.832254,-3.842885,1.81042,0.9955737,-0.01915346,-0.2590969,-27.20854,-26.41299,28.15747
6.383702278,-3.779308,-2.852602,1.626331,0.9966503,-0.02494354,-0.2562645,-27.20854,-26.41299,28.15747
6.393610954,-2.540546,-1.571059,1.442243,1.00113,-0.0258228,-0.2495896,-27.20854,-26.41299,28.15747
6.403520107,-0.8682191,0.351256,1.38088,1.001031,-0.01465473,-0.2461532,-27.59597,-25.28766,28.54143
6.413428784,0.1227897,1.982311,1.135428,1.005512,-0.01065549,-0.2336839,-27.59597,-25.28766,28.54143
6.42333746,-0.1869005,3.322106,0.9513392,1.006936,-0.01651338,-0.2447797,-27.59597,-25.28766,28.54143
6.433246136,-0.9301572,4.778405,1.258154,1.001028,-0.02343705,-0.2567751,-27.59597,-25.28766,28.54143
6.443155289,-1.983104,5.710437,1.687694,0.9861919,-0.02712234,-0.2773093,-27.59597,-25.28766,28.54143
6.453063965,-2.168918,6.351208,1.871783,0.9832261,-0.02278545,-0.2753323,-27.21339,-26.03839,28.15632
6.46544981,-2.045042,6.817224,1.626331,0.9792279,-0.01800139,-0.2781444,-27.21339,-26.03839,28.15632
6.475358486,-1.673414,6.234704,1.503605,0.9718149,-0.01179272,-0.2785147,-27.21339,-26.03839,28.15632
6.485267639,-1.921166,5.652184,1.196791,0.97029,-0.0147681,-0.2876434,-27.21339,-26.03839,28.15632
6.495176315,-1.735352,4.953161,0.8899763,0.9712411,-0.01623327,-0.2919834,-27.21339,-26.03839,28.15632
6.505084992,-1.673414,4.894909,0.6445247,0.9731703,-0.02061288,-0.2997129,-27.95844,-26.41462,27.7759
6.514993668,-1.177909,4.894909,0.2763473,0.9688364,-0.02990153,-0.3040562,-27.95844,-26.41462,27.7759
6.524902821,-0.3107767,4.661901,-0.03046724,0.9678039,-0.02945436,-0.3088452,-27.95844,-26.41462,27.7759
6.534811497,0.5563561,4.079382,-0.3372818,0.9657629,-0.02562069,-0.312642,-27.95844,-26.41462,27.7759
6.544720173,1.857055,3.496862,-0.7054592,0.9676793,-0.02025094,-0.3102232,-27.95844,-26.41462,27.7759
6.554628849,2.35256,2.797838,-0.8895479,0.965652,-0.01592228,-0.3120963,-26.83081,-26.78912,27.77121
6.564538002,2.414498,2.098815,-0.8895479,0.9680933,-0.0115033,-0.3072878,-26.83081,-26.78912,27.77121
6.574446678,2.476436,1.399791,-1.073637,0.9681484,-0.009523368,-0.2995926,-26.83081,-26.78912,27.77121
6.584355354,2.724188,1.516295,-1.073637,0.974631,-0.01474402,-0.2934453,-26.83081,-26.78912,27.77121
6.59426403,2.786126,1.574547,-0.8895479,0.9644153,-0.02362584,-0.2986917,-26.83081,-26.78912,27.77121
6.604173183,2.476436,1.341539,-0.7054592,0.9677896,-0.01629106,-0.2948328,-27.94817,-27.09981,28.16348
6.614081859,1.980931,1.399791,-0.5213705,0.9745834,-0.007451746,-0.289555,-27.94817,-27.09981,28.16348
6.623990536,1.980931,2.098815,-0.8281851,0.97861,-0.01173318,-0.2833787,-27.94817,-27.09981,28.16348
6.633899212,1.733179,2.215319,-0.9509109,0.9770922,-0.01324145,-0.2900969,-27.94817,-27.09981,28.16348
6.643808365,1.980931,1.807555,-0.9509109,0.9741934,-0.01326005,-0.2867091,-27.94817,-27.09981,28.16348
6.653717041,2.476436,2.040563,-0.8895479,0.9721462,-0.01138083,-0.2933999,-27.96191,-26.03845,28.16021
6.663625717,2.910002,2.040563,-0.8281851,0.9702806,-0.01233394,-0.2857065,-27.96191,-26.03845,28.16021
6.673534393,3.28163,1.749303,-1.135,0.9756376,-0.01179,-0.2871929,-27.96191,-26.03845,28.16021
6.683443546,3.28163,1.982311,-1.196362,0.9730803,-0.003586525,-0.288555,-27.96191,-26.03845,28.16021
6.693352222,2.848064,1.807555,-1.503177,0.9701043,-0.001693982,-0.2904355,-27.96191,-26.03845,28.16021
6.703260899,2.600312,1.691051,-1.687266,0.9704112,0.004071005,-0.3014436,-28.65912,-25.29089,27.776
6.713170052,2.600312,1.341539,-1.380451,0.9645314,0.0005765571,-0.3066942,-28.65912,-25.29089,27.776
6.723078728,2.724188,0.7590198,-1.809992,0.961563,0.006375471,-0.303267,-28.65912,-25.29089,27.776
6.73546505,3.033878,0.001744238,-2.055443,0.9596717,-0.001908134,-0.3066658,-28.65912,-25.29089,27.776
6.745373726,2.848064,-0.5225234,-1.932717,0.9718755,0.002624652,-0.3033874,-28.65912,-25.29089,27.776
6.755281925,2.414498,-0.8720351,-2.239532,0.9708845,-0.006174913,-0.3149607,-26.84051,-26.03993,27.76891
6.765191555,2.166745,-1.338051,-1.99408,0.9668141,0.005888684,-0.3162831,-26.84051,-26.03993,27.76891
6.775100231,1.857055,-1.687563,-2.055443,0.9591227,0.001469152,-0.3085589,-26.84051,-26.03993,27.76891
6.785008907,1.609303,-2.153579,-1.932717,0.9605293,-0.0004951146,-0.3167477,-26.84051,-26.03993,27.76891
6.79491806,1.733179,-2.561342,-1.871354,0.9669384,-0.0003881445,-0.3115245,-26.84051,-26.03993,27.76891
6.804826736,2.042869,-2.328334,-1.871354,0.9728301,0.00457597,-0.3033832,-27.20854,-26.41299,28.15747
6.814735413,1.671241,-2.153579,-1.809992,0.9699107,0.005034518,-0.3014325,-27.20854,-26.41299,28.15747
6.824644089,1.237675,-1.512807,-1.748629,0.9786536,0.006577821,-0.3053444,-27.20854,-26.41299,28.15747
6.834553242,1.299613,-0.9885391,-1.625903,0.9738278,0.007037558,-0.2985745,-27.20854,-26.41299,28.15747
6.844461918,1.299613,-0.8137832,-1.441814,0.9712739,0.01329167,-0.3018703,-27.20854,-26.41299,28.15747
6.854370594,1.175737,-1.221547,-1.380451,0.9645131,0.01324996,-0.2936454,-26.84189,-26.0415,27.38344
6.86427927,0.8660463,-1.279799,-1.319088,0.9719061,0.009957694,-0.291815,-26.84189,-26.0415,27.38344
6.874188423,0.1227897,-0.8720351,-1.196362,0.9757988,0.006582149,-0.2976354,-26.84189,-26.0415,27.38344
6.884097099,-0.5585288,-0.4642715,-1.319088,0.9733118,0.003114924,-0.3057982,-26.84189,-26.0415,27.38344
6.894005775,-0.9301572,-0.3477675,-0.8281851,0.9708381,0.003069273,-0.3086566,-26.84189,-26.0415,27.38344
6.903914928,-0.744343,-0.1730116,-0.8281851,0.9669966,0.002569022,-0.3023823,-26.4538,-26.78596,28.5402
6.913823605,-0.3107767,0.46776,-0.7668222,0.9739,-0.000241979,-0.3000641,-26.4538,-26.78596,28.5402
6.923732281,0.06085166,0.5842639,-0.8281851,0.9747231,0.006519048,-0.307229,-26.4538,-26.78596,28.5402
6.933640957,0.06085166,0.5842639,-1.012274,0.9737032,0.005509291,-0.3125081,-26.4538,-26.78596,28.5402
6.94355011,-0.001086392,0.9920276,-0.9509109,0.9708738,-0.0003268247,-0.3091597,-26.4538,-26.78596,28.5402
6.953458786,-0.1869005,1.05028,-0.9509109,0.9664384,-0.002351224,-0.3148941,-26.83913,-26.03836,28.15437
6.963367462,-0.001086392,0.46776,-1.012274,0.9619803,2.799788e-06,-0.3177181,-26.83913,-26.03836,28.15437
6.973276138,-0.1869005,-0.3477675,-0.8895479,0.963869,0.004382583,-0.3191469,-26.83913,-26.03836,28.15437
6.983185291,-0.3727147,-0.8720351,-0.7668222,0.9698417,0.002559596,-0.3110516,-26.83913,-26.03836,28.15437
6.993093967,-0.4346527,-1.105043,-0.8895479,0.9688154,-0.0004046196,-0.3192245,-26.83913,-26.03836,28.15437
7.003002644,-0.4346527,-1.221547,-0.7054592,0.9658372,0.005389199,-0.3167576,-27.5828,-26.41302,28.15942
7.015388489,-0.6824049,-1.687563,-0.4600076,0.9633627,0.01119673,-0.3128547,-27.5828,-26.41302,28.15942
7.025297642,-1.177909,-1.687563,-0.3986447,0.9638779,0.01024086,-0.3114254,-27.5828,-26.41302,28.15942
7.035206318,-1.549538,-1.571059,-0.5213705,0.9696836,0.01125784,-0.3162739,-27.5828,-26.41302,28.15942
7.045114994,-1.859228,-1.687563,-0.7054592,0.9682642,0.01223978,-0.3104923,-27.5828,-26.41302,28.15942
7.05502367,-1.859228,-1.862319,-0.7668222,0.9718559,0.007980306,-0.2990301,-27.5828,-26.41302,28.15942
7.064932823,-1.921166,-1.978823,-0.6440963,0.9693265,0.008881309,-0.3062031,-27.5828,-26.41302,28.15942
7.074841499,-1.673414,-1.804067,-0.7668222,0.9713283,0.005027258,-0.3062473,-27.5828,-26.41302,28.15942
7.084750175,-1.79729,-1.571059,-0.8895479,0.9738448,-0.002221916,-0.3077593,-27.5828,-26.41302,28.15942
7.094659805,-1.177909,-1.512807,-0.7668222,0.9739593,-0.008503842,-0.303961,-27.5828,-26.41302,28.15942
7.104568481,-0.5585288,-1.396303,-0.7054592,0.9699485,-0.002262853,-0.3062831,-27.21477,-26.03996,27.77085
7.114476681,-0.3107767,-1.221547,-0.7054592,0.9663951,0.002504348,-0.3134208,-27.21477,-26.03996,27.77085
7.124385357,-0.5585288,-1.279799,-0.5213705,0.9644192,0.002957207,-0.31484,-27.21477,-26.03996,27.77085
7.134294987,-0.9301572,-1.512807,-0.3986447,0.9653105,0.0126805,-0.3119026,-27.21477,-26.03996,27.77085
7.144203663,-1.115971,-1.338051,-0.5213705,0.9604896,0.007776939,-0.3109303,-27.21477,-26.03996,27.77085
7.154111862,-1.363724,-1.163295,-0.5827335,0.9673453,0.006892369,-0.3109996,-27.21477,-26.03996,27.77085
7.164020538,-1.239847,-0.8720351,-0.6440963,0.9697732,0.007889771,-0.3114956,-27.21477,-26.03996,27.77085
7.173930168,-1.115971,-0.5807754,-0.8281851,0.9693132,0.005459733,-0.3115075,-27.21477,-26.03996,27.77085
7.183838844,-0.744343,-0.5807754,-0.6440963,0.9687936,0.008852307,-0.3105198,-27.21477,-26.03996,27.77085
7.193747044,-0.6204669,-0.5807754,-0.5213705,0.9706716,0.01371433,-0.3124254,-27.21477,-26.03996,27.77085
7.203656673,-0.806281,-0.3477675,-0.4600076,0.9691494,0.01464277,-0.3167266,-27.59388,-25.6654,27.77164
7.21356535,-0.806281,-0.2312636,-0.4600076,0.9628702,0.01314002,-0.3109166,-27.59388,-25.6654,27.77164
7.223474026,-1.239847,-0.6390273,-0.5827335,0.9633279,0.008739647,-0.3191128,-27.59388,-25.6654,27.77164
7.233382225,-1.4876,-0.5807754,-0.6440963,0.9693136,0.007898984,-0.3086103,-27.59388,-25.6654,27.77164
7.243291855,-1.79729,-0.5807754,-0.7668222,0.9711916,0.00739517,-0.3167937,-27.59388,-25.6654,27.77164
7.253200531,-2.168918,-0.1730116,-0.7668222,0.9682918,0.002498064,-0.3192003,-27.21638,-26.04179,27.32114
7.263109207,-1.79729,0.1182482,-0.7054592,0.9658257,0.006358785,-0.316751,-27.21638,-26.04179,27.32114
7.275495052,-1.239847,0.293004,-0.5827335,0.9663132,0.009778789,-0.3128915,-27.21638,-26.04179,27.32114
7.285404205,-1.239847,0.351256,-0.5213705,0.9712237,0.005948434,-0.3153632,-27.21638,-26.04179,27.32114
7.295312882,-0.8682191,0.351256,-0.1531931,0.9678199,0.003964206,-0.3158251,-26.83913,-26.03836,28.15437
7.305221558,-0.6824049,0.1765001,-0.3986447,0.9662976,0.01025849,-0.3138484,-26.83913,-26.03836,28.15437
7.315130711,-0.6204669,0.351256,-0.2759189,0.9686912,0.01123805,-0.3177053,-26.83913,-26.03836,28.15437
7.325039387,-0.2488386,0.5260119,-0.09183015,0.9669926,-0.00328671,-0.3096237,-26.83913,-26.03836,28.15437
7.334948063,0.3705419,0.8172717,-0.09183015,0.964482,-0.001888174,-0.3143927,-26.83913,-26.03836,28.15437
7.344856739,1.980931,0.9920276,-0.214556,0.9673284,0.005420155,-0.3143704,-26.83081,-26.78912,27.77121
7.354765892,2.910002,1.574547,-0.4600076,0.9761541,0.004567519,-0.3130172,-26.83081,-26.78912,27.77121
7.364674568,4.210701,2.215319,-0.5213705,0.9740037,0.01468566,-0.3201323,-26.83081,-26.78912,27.77121
7.374583244,5.387524,2.506578,-0.8281851,0.9743656,0.02779643,-0.3171673,-26.83081,-26.78912,27.77121
7.384491921,5.697214,2.506578,-0.8281851,0.9682949,0.04030015,-0.3223096,-26.83081,-26.78912,27.77121
7.394401074,5.20171,2.506578,-0.8281851,0.9629664,0.04025882,-0.317459,-27.21962,-25.66537,27.7697
7.40430975,4.210701,2.331823,-0.4600076,0.9614442,0.03582142,-0.328038,-27.21962,-25.66537,27.7697
7.414218426,2.786126,1.982311,-0.03046724,0.9536704,0.03087123,-0.3289594,-27.21962,-25.66537,27.7697
7.424127579,1.918993,1.574547,0.2763473,0.9566094,0.02505703,-0.3352674,-27.21962,-25.66537,27.7697
7.434036255,2.042869,1.458043,0.5217989,0.9561073,0.02162938,-0.3405673,-27.21962,-25.66537,27.7697
7.443944931,2.66225,0.9920276,0.5831618,0.9606419,0.01492496,-0.3353721,-26.84536,-25.66534,27.76775
7.453853607,3.095816,1.225035,0.5831618,0.9689539,0.02234595,-0.3267567,-26.84536,-25.66534,27.76775
7.46376276,3.467444,1.982311,0.5217989,0.9734334,0.02439328,-0.3167012,-26.84536,-25.66534,27.76775
7.473671436,2.786126,2.681334,0.7672505,0.96888,0.03596601,-0.3180225,-26.84536,-25.66534,27.76775
7.483580113,1.857055,2.506578,0.5217989,0.957624,0.03972252,-0.3145323,-26.84536,-25.66534,27.76775
7.493489742,0.8660463,2.390074,0.9513392,0.962128,0.03105091,-0.3146317,-26.83428,-26.41296,28.15553
7.503398419,0.3086039,2.564831,1.319517,0.9725469,0.02540423,-0.306603,-26.83428,-26.41296,28.15553
7.513306618,0.1227897,2.681334,1.135428,0.9825321,0.01099973,-0.3034302,-26.83428,-26.41296,28.15553
7.523215294,0.494418,3.263854,1.564968,0.98522,-0.001526114,-0.2944154,-26.83428,-26.41296,28.15553
7.533124924,1.05186,4.02113,1.994509,0.9931749,-0.007213346,-0.2882849,-26.83428,-26.41296,28.15553
7.5430336,2.104807,5.535681,2.178597,0.9972113,-0.01148968,-0.2811483,-27.5925,-25.66383,28.15711
7.555419445,2.786126,8.098766,2.669501,1.003615,-0.01089792,-0.2759219,-27.5925,-25.66383,28.15711
7.565328121,3.157754,9.788074,2.853589,0.9897781,0.003001232,-0.2737806,-27.5925,-25.66383,28.15711
7.575237274,2.724188,11.18612,2.976315,0.9859535,0.00933904,-0.2578578,-27.5925,-25.66383,28.15711
7.58514595,2.848064,12.1764,3.037678,0.9903194,0.01718095,-0.2520841,-27.5925,-25.66383,28.15711
7.595054626,3.033878,13.05018,3.099041,0.9942107,0.02795103,-0.2414848,-27.96466,-26.04159,27.38928
7.604963779,2.66225,14.09872,3.160404,0.9996915,0.0197789,-0.2411098,-27.96466,-26.04159,27.38928
7.614872456,1.671241,14.73949,3.467218,0.99133,0.02062487,-0.2448681,-27.96466,-26.04159,27.38928
7.624781132,0.494418,15.14725,3.71267,0.9857696,0.02143848,-0.2616168,-27.96466,-26.04159,27.38928
7.634690285,0.1227897,15.67152,4.264936,0.983417,0.01950461,-0.2548857,-27.96466,-26.04159,27.38928
7.644598961,-0.1869005,16.37054,4.326299,0.9790614,0.008741204,-0.2630798,-27.95981,-26.41619,27.39043
7.654507637,-0.3107767,16.25404,4.817203,0.9789625,0.009177588,-0.272199,-27.95981,-26.41619,27.39043
7.664416313,-0.6204669,15.96278,4.817203,0.9730642,0.01055145,-0.2735758,-27.95981,-26.41619,27.39043
7.674325466,0.06085166,15.61327,4.449025,0.9691746,0.009538381,-0.2725862,-27.95981,-26.41619,27.39043
7.684234142,0.9279844,15.089,4.080848,0.969997,0.01142091,-0.2855456,-27.95981,-26.41619,27.39043
7.694142818,2.290622,15.43851,3.896759,0.975142,0.02063507,-0.2975357,-28.34538,-25.66886,26.94036
7.704051971,3.467444,15.43851,3.651307,0.9746014,0.02743139,-0.2946045,-28.34538,-25.66886,26.94036
7.713960648,3.653259,15.32201,3.651307,0.9628524,0.02825268,-0.2949705,-28.34538,-25.66886,26.94036
7.723869324,2.848064,14.50648,3.71267,0.9519192,0.03436789,-0.304912,-28.34538,-25.66886,26.94036
7.733778,2.290622,13.34144,3.774033,0.9470965,0.03580486,-0.2966951,-28.34538,-25.66886,26.94036
7.743687153,2.228683,12.0599,3.71267,0.9481321,0.03633491,-0.2904591,-29.02667,-26.04351,26.94508
7.753595829,2.600312,11.06962,3.589944,0.9510786,0.03979293,-0.2851816,-29.02667,-26.04351,26.94508
7.763504505,1.795117,9.96283,3.651307,0.9513738,0.05189334,-0.2899053,-29.02667,-26.04351,26.94508
7.773414135,0.43248,8.856042,3.589944,0.9409393,0.0687514,-0.2863354,-29.02667,-26.04351,26.94508
7.783322334,-0.806281,7.399744,3.037678,0.9409339,0.08240714,-0.2708793,-29.02667,-26.04351,26.94508
7.79323101,-2.540546,7.166736,2.608138,0.9396765,0.08054657,-0.252634,-29.0329,-25.67048,26.55846
7.803139687,-4.460626,6.99198,2.730864,0.940582,0.07247677,-0.2214859,-29.0329,-25.67048,26.55846
7.813049316,-6.132954,6.40946,2.730864,0.947484,0.04162069,-0.2044696,-29.0329,-25.67048,26.55846
7.825435162,-7.743343,6.875476,2.485412,0.9874685,-0.01304778,-0.1840766,-29.0329,-25.67048,26.55846
7.835343838,-7.495591,7.865759,2.546775,0.9982507,-0.05118832,-0.1786685,-29.0329,-25.67048,26.55846
7.845252991,-6.071015,8.739538,2.424049,1.009461,-0.09325718,-0.1838541,-29.03913,-25.29745,26.17184
7.855161667,-4.274812,9.205554,2.485412,1.020535,-0.1256404,-0.1908944,-29.03913,-25.29745,26.17184
7.865070343,-0.9301572,10.13759,2.362686,1.026555,-0.1401215,-0.1929672,-29.03913,-25.29745,26.17184
7.874979019,3.095816,11.36088,2.608138,1.031706,-0.1391972,-0.2141356,-29.03913,-25.29745,26.17184
7.884888172,6.812099,12.11815,2.730864,1.051001,-0.1283576,-0.2272061,-29.03913,-25.29745,26.17184
7.894796848,9.041868,13.5162,2.976315,1.054043,-0.1085125,-0.2410267,-28.66648,-25.29925,25.72018
7.904705524,10.52838,14.21522,3.774033,1.03555,-0.08553339,-0.2531867,-28.66648,-25.29925,25.72018
7.914614677,11.39551,14.09872,4.633114,1.010707,-0.05726482,-0.2585305,-28.66648,-25.29925,25.72018
7.924523354,11.45745,12.87543,4.571751,0.990409,-0.0391095,-0.2615829,-28.66648,-25.29925,25.72018
7.93443203,10.46644,11.06962,4.080848,0.989263,-0.03286776,-0.2706537,-28.66648,-25.29925,25.72018
7.944340706,8.856054,8.797791,3.467218,0.9785062,-0.03739251,-0.2758662,-29.40991,-25.67365,25.78947
7.954249859,7.679232,6.059948,3.405856,0.9614512,-0.03562511,-0.2680141,-29.40991,-25.67365,25.78947
7.964158535,6.935976,2.681334,3.344493,0.9636827,-0.04716451,-0.2546672,-29.40991,-25.67365,25.78947
7.974067211,6.316595,0.0599962,3.037678,0.9786705,-0.05949777,-0.2380824,-29.40991,-25.67365,25.78947
7.983976364,5.883029,-1.862319,3.037678,0.99201,-0.06365109,-0.2295906,-29.40991,-25.67365,25.78947
7.99388504,5.20171,-3.318618,2.792227,1.006685,-0.06004988,-0.2249008,-30.91687,-24.92484,25.7307
8.003793716,4.210701,-3.668129,2.792227,1.017472,-0.04819208,-0.208116,-30.91687,-24.92484,25.7307
8.013702869,3.529382,-3.260366,3.28313,1.010089,-0.04245546,-0.2060889,-30.91687,-24.92484,25.7307
8.023611546,3.033878,-3.143862,3.037678,0.9997493,-0.03188952,-0.2006411,-30.91687,-24.92484,25.7307
8.033520222,3.095816,-3.202114,2.117234,1.001687,-0.02455766,-0.1938879,-30.91687,-24.92484,25.7307
8.043428898,4.210701,-3.726381,1.258154,0.9987809,-0.02360413,-0.1900135,-30.16537,-24.92138,26.56199
8.053338051,5.635276,-4.192397,-0.03046724,1.004145,-0.02695891,-0.1953672,-30.16537,-24.92138,26.56199
8.063246727,6.750161,-4.833169,-0.2759189,1.015331,-0.02733715,-0.2017152,-30.16537,-24.92138,26.56199
8.073155403,7.493418,-5.18268,-0.5213705,0.9930281,-0.008744264,-0.2090676,-30.16537,-24.92138,26.56199
8.083065033,7.926984,-6.172964,-0.3986447,0.9779766,0.02501925,-0.2067828,-30.16537,-24.92138,26.56199
8.095450878,5.944966,-7.396255,-1.012274,0.9750082,0.03618401,-0.1970778,-30.17022,-24.54678,26.56083
8.105359554,2.538374,-8.444791,-1.625903,0.9992168,0.01807727,-0.1940612,-30.17022,-24.54678,26.56083
8.11526823,-1.79729,-9.668082,-0.9509109,1.018348,-0.0272574,-0.1935799,-30.17022,-24.54678,26.56083
8.125177383,-5.451635,-10.77487,0.5831618,1.020866,-0.08011121,-0.2006775,-30.17022,-24.54678,26.56083
8.13508606,-7.557528,-11.76515,2.055871,1.020404,-0.1001033,-0.2214532,-30.17022,-24.54678,26.56083
8.144994736,-7.805281,-12.05641,2.914952,1.009052,-0.09493323,-0.2256352,-30.16399,-24.91981,26.94746
8.154903889,-7.371715,-11.41564,3.221767,1.006431,-0.08139703,-0.2269613,-30.16399,-24.91981,26.94746
8.164812565,-6.814272,-10.42536,3.099041,0.9966833,-0.1005273,-0.2462049,-30.16399,-24.91981,26.94746
8.174721241,-5.141944,-9.668082,2.976315,0.9938414,-0.1102724,-0.2486443,-30.16399,-24.91981,26.94746
8.184630394,-2.850237,-8.444791,2.424049,0.9908838,-0.1103215,-0.2510181,-30.16399,-24.91981,26.94746
8.19453907,0.1227897,-7.163247,1.442243,0.9608676,-0.1029888,-0.260775,-29.41547,-24.91975,26.94356
8.204447746,3.405506,-6.638979,-0.3372818,0.9404426,-0.105627,-0.2529211,-29.41547,-24.91975,26.94356
8.214356422,7.059852,-6.405972,-2.239532,0.9471241,-0.08904121,-0.2495113,-29.41547,-24.91975,26.94356
8.224265575,10.21869,-6.638979,-3.957693,0.9518512,-0.07296703,-0.246567,-29.41547,-24.91975,26.94356
8.234174252,12.0149,-6.464223,-5.000863,0.9785894,-0.05271067,-0.2380365,-29.41547,-24.91975,26.94356
8.244082928,13.25366,-6.697231,-5.430403,0.9866896,-0.03661947,-0.2399248,-29.41547,-24.91975,26.94356
8.253992081,13.8111,-7.163247,-5.36904,0.991949,-0.02832138,-0.2418388,-29.41547,-24.91975,26.94356
8.263900757,13.25366,-7.745767,-5.000863,0.9800271,-0.01880948,-0.2488675,-29.41547,-24.91975,26.94356
8.273809433,12.44846,-8.503042,-4.325871,0.9750066,-0.005768059,-0.2463335,-29.41547,-24.91975,26.94356
8.283718586,11.08582,-9.668082,-3.957693,0.9703709,0.01063986,-0.2500225,-29.41547,-24.91975,26.94356
8.293627262,9.475435,-10.65837,-3.834968,0.9690778,0.006809546,-0.237552,-29.41249,-24.91635,27.77874
8.303535938,7.617294,-11.18263,-3.773605,0.9730756,-0.0004137673,-0.2376371,-29.41249,-24.91635,27.77874
8.313445568,5.263648,-11.7069,-3.834968,0.9794468,0.00162473,-0.2338412,-29.41249,-24.91635,27.77874
8.323353767,3.653259,-11.8234,-3.89633,0.9801952,-0.008965849,-0.2209544,-29.41249,-24.91635,27.77874
8.333262444,2.910002,-11.5904,-3.834968,0.9895309,-0.018582,-0.227827,-29.41249,-24.91635,27.77874
8.34317112,3.033878,-11.12438,-3.344064,1.011112,-0.02218041,-0.2256497,-29.41111,-24.91478,28.16421
8.35308075,3.343568,-10.07585,-2.484983,1.013549,-0.02605641,-0.2309798,-29.41111,-24.91478,28.16421
8.365466595,4.396515,-7.512759,-1.441814,1.018644,-0.005648696,-0.2347323,-29.41111,-24.91478,28.16421
8.375375271,3.962949,-4.89142,-1.135,1.024448,0.009513903,-0.2231611,-29.41111,-24.91478,28.16421
8.385284424,3.219692,-1.512807,-0.8895479,1.027387,0.01443139,-0.2169135,-29.41111,-24.91478,28.16421
8.3951931,1.795117,0.8755237,-0.5827335,1.015521,0.01763079,-0.2259054,-28.3588,-24.16368,28.6061
8.405101776,0.43248,1.807555,-0.5213705,0.9946221,0.006701675,-0.2262651,-28.3588,-24.16368,28.6061
8.415010452,-0.806281,0.9920276,0.03089567,0.9780792,-0.0149274,-0.2435419,-28.3588,-24.16368,28.6061
8.424919605,-1.859228,-1.396303,0.3377102,0.9549438,-0.0274906,-0.2731815,-28.3588,-24.16368,28.6061
8.434828282,-2.664423,-3.784633,0.5831618,0.9434288,-0.02142988,-0.2922409,-28.3588,-24.16368,28.6061
8.444736958,-2.354732,-5.357436,0.2763473,0.9500556,-0.0412096,-0.2890729,-28.66098,-24.91289,28.61003
8.454646111,-1.735352,-5.7652,-0.03046724,0.9610359,-0.06242219,-0.2921967,-28.66098,-24.91289,28.61003
8.464554787,-0.1249625,-5.415688,-0.214556,0.9705947,-0.0841174,-0.2914693,-28.66098,-24.91289,28.61003
8.474463463,2.476436,-4.833169,-0.7054592,0.9768554,-0.06994125,-0.2842304,-28.66098,-24.91289,28.61003
8.484372616,4.953958,-4.134145,-1.257725,0.9760628,-0.04327606,-0.2826049,-28.66098,-24.91289,28.61003
8.494281292,6.750161,-4.075893,-1.748629,0.9780067,-0.03691634,-0.2763385,-28.35258,-24.53671,28.99272
8.504189968,7.307604,-4.075893,-1.748629,0.9866977,-0.02564405,-0.273943,-28.35258,-24.53671,28.99272
8.514099121,6.935976,-3.901137,-1.748629,0.989897,-0.01108324,-0.2786771,-28.35258,-24.53671,28.99272
8.524007797,6.688223,-4.192397,-1.56454,0.9879042,-0.001370906,-0.2709115,-28.35258,-24.53671,28.99272
8.533916474,5.944966,-4.250649,-1.319088,0.9834425,0.008298325,-0.2655241,-28.35258,-24.53671,28.99272
8.54382515,5.263648,-4.600161,-1.196362,0.9804621,0.01262757,-0.2649875,-28.35418,-24.53853,28.54301
8.553734302,4.520391,-4.774917,-1.012274,0.9786272,0.008275818,-0.2582773,-28.35418,-24.53853,28.54301
8.563642979,3.777135,-4.192397,-0.7054592,0.9797768,-0.005281143,-0.2574179,-28.35418,-24.53853,28.54301
8.573551655,3.033878,-3.959389,-0.2759189,0.9763664,-0.01702493,-0.2699488,-28.35418,-24.53853,28.54301
8.583461285,1.980931,-3.784633,0.3990731,0.9743341,-0.01513807,-0.2751992,-28.35418,-24.53853,28.54301
8.593369484,1.671241,-3.784633,0.7058876,0.9752694,-0.01612354,-0.2804961,-28.3512,-24.53514,29.37819
8.60327816,2.104807,-3.37687,0.7672505,0.9668634,-0.007008064,-0.2789171,-28.3512,-24.53514,29.37819
8.61318779,2.290622,-3.318618,0.7672505,0.9661203,0.006024315,-0.2884266,-28.3512,-24.53514,29.37819
8.623096466,1.795117,-3.08561,0.5831618,0.9711412,0.006153834,-0.2755079,-28.3512,-24.53514,29.37819
8.635482311,0.9279844,-2.619594,0.3377102,0.9809745,0.002402038,-0.2746635,-28.35258,-24.53671,28.99272
8.645390987,0.1847278,-1.920571,0.09225857,0.9914188,-0.009085084,-0.2709954,-28.35258,-24.53671,28.99272
8.65530014,-0.2488386,-1.046791,0.2763473,0.9887195,-0.03241451,-0.2754473,-28.35258,-24.53671,28.99272
8.665208816,-0.4346527,-0.8720351,0.8286135,0.9864578,-0.05186206,-0.2803575,-28.35258,-24.53671,28.99272
8.675117493,-0.1249625,-1.221547,0.9513392,0.9799449,-0.0515352,-0.29518,-28.35258,-24.53671,28.99272
8.685026646,0.8041083,-2.037075,1.135428,0.9699624,-0.04395856,-0.3060808,-28.35604,-24.16054,29.37704
8.694935322,2.35256,-2.561342,1.074065,0.9830317,-0.03166714,-0.3046793,-28.35604,-24.16054,29.37704
8.704843998,3.28163,-2.328334,1.012702,0.9966637,-0.02225802,-0.299461,-28.35604,-24.16054,29.37704
8.714753151,3.157754,-1.512807,1.074065,1.002646,-0.02651516,-0.2933026,-28.35604,-24.16054,29.37704
8.724661827,2.724188,-0.5807754,1.258154,0.9904946,-0.02760598,-0.2874356,-28.35604,-24.16054,29.37704
8.734570503,2.414498,-0.1730116,1.564968,0.9730424,-0.03311401,-0.2791482,-27.98179,-24.16051,29.37509
8.744479656,1.671241,-0.6390273,0.9513392,0.967526,-0.02691162,-0.285298,-27.98179,-24.16051,29.37509
8.754388332,1.113798,-0.4060195,0.6445247,0.9694454,-0.02593048,-0.28771,-27.98179,-24.16051,29.37509
8.764297008,1.05186,-0.2895156,0.5217989,0.9600483,-0.01488289,-0.2851487,-27.98179,-24.16051,29.37509
8.774206161,0.8660463,-0.5807754,0.460436,0.9569317,-0.005746475,-0.2922613,-27.98179,-24.16051,29.37509
8.784114838,0.6182941,-0.8720351,0.5217989,0.9594414,-0.006657674,-0.2870089,-27.98018,-24.15868,29.82481
8.794023514,0.1227897,-1.571059,0.6445247,0.9623728,-0.0110124,-0.2923467,-27.98018,-24.15868,29.82481
8.803933144,-0.6204669,-2.444838,0.8899763,0.9590964,-0.02366207,-0.2928809,-27.98018,-24.15868,29.82481
8.81384182,-1.239847,-3.493374,0.9513392,0.963584,-0.03136665,-0.2934538,-27.98018,-24.15868,29.82481
8.823750019,-1.425662,-3.318618,0.9513392,0.9828327,-0.04274192,-0.2893862,-27.98018,-24.15868,29.82481
8.833659649,-1.611476,-2.444838,1.442243,0.9921793,-0.04503522,-0.286607,-29.05188,-23.4114,29.3783
8.843568325,-1.673414,-1.046791,1.749057,0.9951299,-0.04108731,-0.2803659,-29.05188,-23.4114,29.3783
8.853477001,-1.859228,-0.2312636,1.933146,0.9941536,-0.03914755,-0.2779432,-29.05188,-23.4114,29.3783
8.8633852,-1.425662,0.351256,1.994509,0.9886616,-0.02756657,-0.2754145,-29.05188,-23.4114,29.3783
8.87329483,-0.9301572,0.7590198,1.749057,0.972578,-0.0277415,-0.2704653,-29.05188,-23.4114,29.3783
8.883203506,-0.4346527,0.5842639,1.503605,0.9740188,-0.02968793,-0.2752932,-27.98018,-24.15868,29.82481
8.893112183,0.06085166,0.6425158,1.564968,0.9824505,-0.03683876,-0.2720577,-27.98018,-24.15868,29.82481
8.903021336,0.6182941,1.225035,1.564968,0.9923124,-0.04008792,-0.2678491,-27.98018,-24.15868,29.82481
8.915407181,0.6802322,1.982311,1.626331,0.9858202,-0.0402382,-0.2812345,-27.98018,-24.15868,29.82481
8.925315857,0.6182941,1.924059,1.687694,0.9740109,-0.03603355,-0.283498,-27.98018,-24.15868,29.82481
8.93522501,0.5563561,1.691051,1.503605,0.9666133,-0.03567042,-0.2891891,-28.35604,-24.16054,29.37704
8.945133686,0.43248,1.982311,1.135428,0.9690629,-0.03319826,-0.2858342,-28.35604,-24.16054,29.37704
8.955042362,0.6182941,2.739586,1.196791,0.9852458,-0.03638632,-0.2850448,-28.35604,-24.16054,29.37704
8.964951515,0.43248,3.846374,0.9513392,0.9960128,-0.0401489,-0.2885305,-28.35604,-24.16054,29.37704
8.974860191,0.8660463,4.661901,1.012702,0.9892991,-0.04455629,-0.2808152,-28.35604,-24.16054,29.37704
8.984768867,1.547365,4.661901,0.460436,0.9739428,-0.02826412,-0.2810449,-28.67117,-23.78414,29.82722
8.994678497,1.733179,4.428894,0.2149844,0.9713894,-0.02493661,-0.2877213,-28.67117,-23.78414,29.82722
9.004586697,1.733179,4.487145,0.1536215,0.9670701,-0.02885177,-0.2843463,-28.67117,-23.78414,29.82722
9.014495373,1.237675,3.904626,0.09225857,0.9694614,-0.02397093,-0.2838558,-28.67117,-23.78414,29.82722
9.024405003,0.3705419,3.555114,0.09225857,0.9630229,-0.01872734,-0.2856819,-28.67117,-23.78414,29.82722
9.034313679,-0.5585288,3.322106,0.5831618,0.9649886,-0.02162455,-0.2881202,-27.60245,-24.53481,29.43855
9.044222355,-1.79729,2.972594,0.7672505,0.9655042,-0.03087285,-0.2963493,-27.60245,-24.53481,29.43855
9.054131508,-2.974113,2.681334,1.012702,0.9752476,-0.02832999,-0.2969026,-27.60245,-24.53481,29.43855
9.064040184,-3.345741,2.85609,1.319517,0.9880913,-0.03395649,-0.2908168,-27.60245,-24.53481,29.43855
9.07394886,-3.407679,2.914342,1.687694,0.9935057,-0.03533388,-0.2889554,-27.60245,-24.53481,29.43855
9.083857536,-3.469617,2.739586,1.871783,0.9816937,-0.0296672,-0.2897688,-28.35929,-23.78411,29.8256
9.093766689,-3.71737,2.390074,2.178597,0.9888583,-0.01795637,-0.2926379,-28.35929,-23.78411,29.8256
9.103675365,-3.71737,2.623082,2.23996,0.993235,-0.01596255,-0.2926651,-28.35929,-23.78411,29.8256
9.113584042,-3.593493,2.914342,2.546775,0.9893712,-0.009645125,-0.2805833,-28.35929,-23.78411,29.8256
9.123493195,-4.150936,3.205602,2.485412,0.9894687,-0.01203342,-0.2738779,-28.35929,-23.78411,29.8256
9.133401871,-4.398688,3.671618,2.608138,0.9802716,-0.01649155,-0.2699813,-29.04218,-24.16059,29.3806
9.143310547,-4.398688,4.195886,2.853589,0.9803842,-0.0217988,-0.2652161,-29.04218,-24.16059,29.3806
9.1532197,-4.584502,4.254138,2.914952,0.9751403,-0.03057658,-0.2623452,-29.04218,-24.16059,29.3806
9.163128376,-4.274812,4.02113,2.914952,0.9780619,-0.02957056,-0.2623655,-29.04218,-24.16059,29.3806
9.173037052,-3.841246,4.487145,2.976315,0.981028,-0.02610235,-0.2551675,-29.04218,-24.16059,29.3806
9.185423851,-4.02706,5.477429,2.485412,0.9912918,-0.01670771,-0.2446363,-28.35742,-24.16211,28.99157
9.19533205,-4.212874,6.351208,2.117234,0.9927776,-0.01911855,-0.2456264,-28.35742,-24.16211,28.99157
9.205240727,-4.088998,7.224988,1.994509,0.9879642,-0.02011574,-0.2393465,-28.35742,-24.16211,28.99157
9.215150356,-3.903184,8.098766,1.871783,0.9870292,-0.01669102,-0.2311523,-28.35742,-24.16211,28.99157
9.225059032,-3.159927,9.322058,1.564968,0.9910108,-0.0151422,-0.222536,-28.35742,-24.16211,28.99157
9.234967232,-2.41667,11.12787,0.8286135,1.003816,-0.005178898,-0.2019412,-28.73952,-23.79094,28.15718
9.244876862,-2.354732,13.74921,-0.03046724,1.012709,0.008149757,-0.1774466,-28.73952,-23.79094,28.15718
9.254785538,-3.221865,16.5453,-0.6440963,1.029004,0.01038614,-0.1593364,-28.73952,-23.79094,28.15718
9.264694214,-5.203883,20.09867,-0.8281851,1.057706,-0.002251687,-0.1409599,-28.73952,-23.79094,28.15718
9.274603367,-7.619467,23.65204,-0.5213705,1.075155,-0.01844822,-0.1273046,-28.73952,-23.79094,28.15718
9.284512043,-9.167918,27.96269,0.03089567,1.086358,-0.04100816,-0.1102728,-29.42543,-23.79074,28.22499
9.294420719,-8.858228,33.55487,0.5217989,1.088786,-0.07146976,-0.09993467,-29.42543,-23.79074,28.22499
9.304329872,-6.318768,37.63251,1.38088,1.055961,-0.08654781,-0.1237395,-29.42543,-23.79074,28.22499
9.314238548,-4.584502,38.09853,1.871783,1.005703,-0.07029884,-0.1418926,-29.42543,-23.79074,28.22499
9.324147225,-3.531555,37.10825,1.687694,0.9814066,-0.05223795,-0.1535515,-29.42543,-23.79074,28.22499
9.334056377,-2.850237,36.35097,1.319517,0.9782627,-0.03628642,-0.1553368,-29.42841,-23.79413,27.38982
9.343965054,-2.974113,37.1665,0.2149844,0.9945685,-0.04233738,-0.1459248,-29.42841,-23.79413,27.38982
9.35387373,-3.469617,39.14706,-0.214556,1.006743,-0.05147815,-0.1614633,-29.42841,-23.79413,27.38982
9.363782883,-4.212874,39.55483,-0.2759189,0.9856637,-0.04714006,-0.2092553,-29.42841,-23.79413,27.38982
9.373691559,-5.141944,38.97231,-0.3372818,0.9627133,-0.03302594,-0.2372783,-29.42841,-23.79413,27.38982
9.383600235,-4.64644,37.63251,-0.3372818,0.9515435,-0.02605835,-0.2692992,-30.92012,-24.54841,26.17926
9.393509388,-3.036051,34.71991,-0.8895479,0.921343,-0.003699566,-0.2794344,-30.92012,-24.54841,26.17926
9.403418064,-2.168918,31.10829,-2.178169,0.9232989,0.004129821,-0.2702774,-30.92012,-24.54841,26.17926
9.41332674,-2.41667,29.12773,-2.853161,0.9564503,-0.01720766,-0.2572817,-30.92012,-24.54841,26.17926
9.423235893,-2.478608,27.78793,-2.730435,0.9822123,-0.04256807,-0.2543278,-30.92012,-24.54841,26.17926
9.433144569,-2.788299,26.79765,-2.730435,1.001969,-0.05636632,-0.2512413,-30.92448,-24.55338,24.95861
9.443053246,-2.10698,25.3996,-2.362258,1.009205,-0.05925278,-0.2642917,-30.92448,-24.55338,24.95861
9.455439568,-0.4965908,22.31225,-1.073637,0.9928988,-0.04247014,-0.2611482,-30.92448,-24.55338,24.95861
9.465348721,1.423489,20.15692,-0.4600076,0.9820319,-0.02168631,-0.2474648,-30.92448,-24.55338,24.95861
9.475257397,1.795117,18.40936,-0.214556,0.9806713,-0.02067379,-0.2359217,-30.92448,-24.55338,24.95861
9.485166073,1.113798,15.43851,0.6445247,0.9788423,-0.03087618,-0.2354926,-31.67251,-24.933,23.74301
9.495075226,-0.744343,11.82689,1.687694,0.9670606,-0.03641325,-0.2464641,-31.67251,-24.933,23.74301
9.504983902,-2.602484,7.807507,2.608138,0.971768,-0.04107658,-0.2220506,-31.67251,-24.933,23.74301
9.514892578,-3.779308,5.652184,3.405856,0.989327,-0.06111833,-0.2021799,-31.67251,-24.933,23.74301
9.524801731,-4.522564,4.545397,3.896759,1.003179,-0.06476549,-0.1908085,-31.67251,-24.933,23.74301
9.534710407,-4.584502,3.555114,4.14221,1.005082,-0.04915904,-0.1777579,-32.05162,-24.55844,23.7438
9.544619083,-4.64644,2.914342,3.835396,1.003995,-0.02483726,-0.1598199,-32.05162,-24.55844,23.7438
9.554528236,-5.018068,2.273571,3.835396,1.000925,-0.01421335,-0.1606811,-32.05162,-24.55844,23.7438
9.564436912,-6.009078,1.341539,3.896759,1.001434,-0.009318586,-0.1529706,-32.05162,-24.55844,23.7438
9.574345589,-7.371715,0.7007678,4.019485,1.009869,-0.01793143,-0.1511854,-32.05162,-24.55844,23.7438
9.584254742,-7.805281,0.7007678,4.14221,1.017469,-0.03233572,-0.1422286,-32.81121,-23.81087,23.35992
9.594163418,-7.681405,0.1765001,4.264936,1.025494,-0.03896196,-0.130343,-32.81121,-23.81087,23.35992
9.604072094,-7.433652,0.409508,4.264936,1.023596,-0.04090759,-0.1269774,-32.81121,-23.81087,23.35992
9.613981247,-7.805281,0.5842639,4.571751,1.016147,-0.03422941,-0.1302251,-32.81121,-23.81087,23.35992
9.623889923,-8.362723,0.2347521,4.817203,0.9960577,-0.03060005,-0.1300151,-32.81121,-23.81087,23.35992
9.633799553,-8.982104,-1.338051,4.817203,0.9872609,-0.03217138,-0.1313847,-32.43695,-23.81084,23.35797
9.643708229,-9.044043,-2.328334,5.001291,0.992881,-0.05490513,-0.1344691,-32.43695,-23.81084,23.35797
9.653616428,-8.920166,-3.842885,5.124017,0.9970631,-0.07715448,-0.1341758,-32.43695,-23.81084,23.35797
9.663526058,-8.734352,-5.47394,5.308106,1.001037,-0.08975637,-0.1429394,-32.43695,-23.81084,23.35797
9.673434734,-8.362723,-6.697231,5.492195,1.005835,-0.08584023,-0.1472791,-32.43695,-23.81084,23.35797
9.68334341,-7.309776,-7.571011,5.308106,1.007576,-0.07031786,-0.1500727,-32.42863,-24.5616,22.97481
9.693252563,-6.814272,-8.386539,5.124017,1.005043,-0.06210165,-0.1490342,-32.42863,-24.5616,22.97481
9.70316124,-6.25683,-8.619547,4.75584,1.005358,-0.04755178,-0.1489402,-32.42863,-24.5616,22.97481
9.713069916,-5.451635,-8.852554,4.264936,1.003377,-0.04954072,-0.1537367,-32.42863,-24.5616,22.97481
9.725455761,-4.522564,-8.503042,4.080848,1.013471,-0.05657142,-0.1313095,-32.41756,-25.30923,23.36259
9.735364914,-3.345741,-7.978775,3.958122,1.020306,-0.05941809,-0.1357131,-32.41756,-25.30923,23.36259
9.74527359,-2.912175,-8.095279,4.449025,1.017485,-0.06476177,-0.130921,-32.41756,-25.30923,23.36259
9.755182266,-2.912175,-8.444791,5.18538,1.004714,-0.06690214,-0.1389799,-32.41756,-25.30923,23.36259
9.765091419,-2.974113,-9.435074,5.614921,0.9869253,-0.06770746,-0.158027,-32.41756,-25.30923,23.36259
9.775000095,-3.345741,-11.5904,5.921735,0.9787322,-0.05775392,-0.182373,-31.67527,-24.93614,22.97207
9.784909725,-3.903184,-12.93019,5.614921,0.9783568,-0.02672972,-0.182643,-31.67527,-24.93614,22.97207
9.794817924,-4.770316,-13.39621,4.75584,0.9923342,0.002123055,-0.1686555,-31.67527,-24.93614,22.97207
9.804726601,-5.947139,-12.52243,3.774033,1.006089,0.01696172,-0.1451561,-31.67527,-24.93614,22.97207
9.81463623,-7.000086,-10.94963,3.099041,1.013689,0.004996683,-0.1333021,-31.67527,-24.93614,22.97207
9.824544907,-7.991096,-9.551578,2.792227,1.019398,-0.004520269,-0.1122914,-32.43073,-24.18387,23.74459
9.834453583,-8.4866,-8.794302,2.669501,1.007899,-0.03088559,-0.1200432,-32.43073,-24.18387,23.74459
9.844362736,-8.548538,-8.910807,2.792227,0.994348,-0.04708182,-0.1253075,-32.43073,-24.18387,23.74459
9.854271412,-7.991096,-9.959342,2.914952,0.99615,-0.07762084,-0.1284086,-32.43073,-24.18387,23.74459
9.864180088,-6.814272,-10.48361,3.344493,1.00525,-0.1022334,-0.1281766,-32.43073,-24.18387,23.74459
9.874089241,-6.132954,-9.376822,3.835396,1.024001,-0.1116679,-0.1226509,-32.05647,-24.18384,23.74265
9.883997917,-6.009078,-7.279751,4.14221,1.038739,-0.1241311,-0.1305528,-32.05647,-24.18384,23.74265
9.893906593,-5.699387,-4.308901,4.080848,1.037729,-0.11977,-0.1285938,-32.05647,-24.18384,23.74265
9.903815746,-5.575511,-3.202114,3.835396,1.018834,-0.1123612,-0.1504569,-32.05647,-24.18384,23.74265
9.913724422,-4.460626,-3.260366,3.835396,0.9933879,-0.08610925,-0.1692531,-32.05647,-24.18384,23.74265
9.923633099,-3.283803,-4.425405,3.405856,0.9880719,-0.06151433,-0.1820043,-31.68221,-24.18381,23.7407
9.933542252,-1.673414,-5.415688,2.853589,0.9878559,-0.04796816,-0.1871938,-31.68221,-24.18381,23.7407
9.943450928,-0.3727147,-6.114712,2.301323,0.9858853,-0.05043934,-0.1915135,-31.68221,-24.18381,23.7407
9.953359604,0.3705419,-6.580727,2.23996,0.9863448,-0.04508271,-0.1881209,-31.68221,-24.18381,23.7407
9.963268757,0.2466658,-6.755483,2.23996,0.9962128,-0.05174326,-0.1872962,-31.68221,-24.18381,23.7407
9.973177433,0.1847278,-6.05646,2.608138,1.002845,-0.0661546,-0.1773703,-32.43211,-24.18544,23.35913
9.983086109,0.06085166,-5.590444,3.037678,0.9994769,-0.07982736,-0.1879937,-32.43211,-24.18544,23.35913
9.992995262,-0.06302445,-5.7652,3.221767,0.9973968,-0.08137992,-0.2019094,-32.43211,-24.18544,23.35913
10.005381584,-0.6824049,-7.454507,3.589944,0.9715378,-0.06192365,-0.2212271,-32.43211,-24.18544,23.35913
10.01529026,-0.744343,-9.202066,4.019485,0.9709002,-0.05029979,-0.2221041,-32.43211,-24.18544,23.35913
10.025199413,-0.2488386,-11.18263,4.019485,0.963874,-0.0338942,-0.2204893,-32.04863,-24.55504,24.57898
10.035108089,-0.2488386,-12.34767,3.651307,0.9755778,-0.02059281,-0.2080248,-32.04863,-24.55504,24.57898
10.045016766,-0.9301572,-11.76515,3.160404,0.9869307,-0.01844518,-0.1951512,-32.04863,-24.55504,24.57898
10.054925919,-1.239847,-10.30885,2.730864,0.9935196,-0.03092753,-0.1871326,-32.04863,-24.55504,24.57898
10.064834595,-1.115971,-9.085562,2.485412,0.9937124,-0.03716869,-0.1756522,-32.04863,-24.55504,24.57898
10.074743271,-0.1249625,-8.153531,2.669501,1.005618,-0.05107939,-0.1753748,-32.43259,-23.80588,24.57862
10.084652424,1.299613,-8.211782,3.037678,1.008767,-0.06458913,-0.1702122,-32.43259,-23.80588,24.57862
10.0945611,1.857055,-8.619547,3.28313,1.013297,-0.0712961,-0.1654972,-32.43259,-23.80588,24.57862
10.104469776,1.113798,-7.862271,3.344493,1.019239,-0.06728119,-0.1535215,-32.43259,-23.80588,24.57862
10.114378929,0.1847278,-6.172964,3.467218,1.021147,-0.06533046,-0.1559269,-32.43259,-23.80588,24.57862
10.124287605,-0.744343,-3.784633,3.28313,1.016119,-0.05326883,-0.1553199,-31.29527,-24.92957,24.57624
10.134196758,-1.425662,-1.571059,3.037678,1.013286,-0.05227707,-0.1442434,-31.29527,-24.92957,24.57624
10.144105434,-1.4876,0.0599962,2.730864,1.0217,-0.05992543,-0.1434119,-31.29527,-24.92957,24.57624
10.154014111,-1.301785,0.409508,2.730864,1.015931,-0.07067904,-0.1463111,-31.29527,-24.92957,24.57624
10.16392374,-1.549538,0.7007678,3.28313,1.011627,-0.08287899,-0.1511542,-31.29527,-24.92957,24.57624
10.17383194,-2.045042,0.293004,3.774033,1.009865,-0.105242,-0.1584892,-31.67486,-24.17545,25.79653
10.183740616,-2.41667,0.0599962,4.264936,1.00146,-0.1127114,-0.1762271,-31.67486,-24.17545,25.79653
10.193650246,-2.230856,0.7007678,4.449025,1.003875,-0.1209887,-0.1887887,-31.67486,-24.17545,25.79653
10.203558922,-1.611476,1.399791,4.694477,1.001901,-0.1244371,-0.1945553,-31.67486,-24.17545,25.79653
10.213467598,-1.239847,2.040563,4.633114,0.9968048,-0.1207036,-0.2103285,-31.67486,-24.17545,25.79653
10.223376751,-0.8682191,2.623082,4.449025,0.9775213,-0.1117854,-0.2206543,-32.04726,-24.55347,24.96445
10.233285427,-0.1249625,2.098815,4.019485,0.9646561,-0.1129995,-0.2368688,-32.04726,-24.55347,24.96445
10.243194103,0.8041083,1.574547,3.896759,0.9552212,-0.1107521,-0.2482903,-32.04726,-24.55347,24.96445
10.253103256,1.857055,0.001744238,3.774033,0.9509555,-0.09098531,-0.259643,-32.04726,-24.55347,24.96445
10.263011932,2.97194,-1.745815,3.651307,0.9497809,-0.06914865,-0.2532446,-32.04726,-24.55347,24.96445
10.275397778,3.715197,-1.454555,2.485412,0.9771762,-0.07586744,-0.2122491,-32.05695,-23.80428,24.96214
10.285306931,3.529382,-0.2895156,2.485412,1.002599,-0.1055461,-0.1997177,-32.05695,-23.80428,24.96214
10.295215607,3.219692,0.46776,2.424049,1.020395,-0.1271763,-0.2062684,-32.05695,-23.80428,24.96214
10.305124283,3.405506,1.108532,2.362686,1.024701,-0.115951,-0.2023922,-32.05695,-23.80428,24.96214
10.315033436,3.962949,1.865807,2.546775,1.024714,-0.08594894,-0.2137162,-32.05695,-23.80428,24.96214
10.324942112,4.148763,2.157067,2.178597,1.007987,-0.04792203,-0.2267526,-31.68269,-23.80425,24.9602
10.334850788,3.157754,1.632799,1.749057,0.979551,-0.007101541,-0.2339002,-31.68269,-23.80425,24.9602
10.344760418,1.423489,0.9337757,0.6445247,0.9716878,0.01277972,-0.2144887,-31.68269,-23.80425,24.9602
10.354669094,-0.1869005,1.108532,-0.6440963,0.9848755,-0.006814055,-0.1912135,-31.68269,-23.80425,24.9602
10.364578247,-2.045042,1.283287,-1.073637,1.003646,-0.05842908,-0.1854889,-31.68269,-23.80425,24.9602
10.374486923,-2.912175,0.351256,-0.9509109,1.017646,-0.08931637,-0.191586,-31.67785,-24.17884,24.96135
10.384395599,-2.850237,-0.5225234,-0.5827335,1.03292,-0.100286,-0.1932408,-31.67785,-24.17884,24.96135
10.394304752,-3.036051,-1.687563,0.2149844,1.034043,-0.112881,-0.1938153,-31.67785,-24.17884,24.96135
10.404213429,-4.33675,-3.143862,1.074065,1.017756,-0.1034059,-0.1974428,-31.67785,-24.17884,24.96135
10.414122105,-7.123962,-4.250649,2.117234,1.008764,-0.09483483,-0.2059454,-31.67785,-24.17884,24.96135
10.424031258,-10.53056,-5.240932,2.730864,1.000502,-0.1056443,-0.2136235,-32.4393,-23.05329,25.41149
10.433939934,-13.25583,-5.998208,2.914952,0.9975599,-0.111539,-0.2213181,-32.4393,-23.05329,25.41149
10.44384861,-14.49459,-5.823452,2.117234,1.003442,-0.1197509,-0.2295899,-32.4393,-23.05329,25.41149
10.453757763,-13.44164,-4.658412,1.564968,1.007349,-0.1231188,-0.2339699,-32.4393,-23.05329,25.41149
10.463666439,-11.088,-2.736098,1.442243,0.9909999,-0.1068464,-0.2356309,-32.4393,-23.05329,25.41149
10.473575592,-8.4866,-2.21183,0.8899763,0.97018,-0.08920237,-0.2425232,-31.68754,-23.42965,24.95905
10.483484268,-6.56652,-3.202114,0.5217989,0.9670491,-0.06690267,-0.2356235,-31.68754,-23.42965,24.95905
10.493392944,-5.637449,-4.949672,-0.03046724,0.961863,-0.04906937,-0.2436194,-31.68754,-23.42965,24.95905
10.503302574,-5.513573,-7.279751,-0.5827335,0.9731612,-0.04646242,-0.2355438,-31.68754,-23.42965,24.95905
10.513210774,-6.442644,-8.794302,-1.380451,0.9819077,-0.0675958,-0.2179997,-31.68754,-23.42965,24.95905
10.52311945,-7.123962,-10.54186,-1.503177,0.976187,-0.08564167,-0.2247892,-32.80547,-23.80434,24.96604
10.535506249,-6.56652,-12.40592,-1.625903,0.964806,-0.08585269,-0.2381298,-32.80547,-23.80434,24.96604
10.545414925,-5.761325,-12.75544,-1.871354,0.9563876,-0.07528029,-0.2360609,-32.80547,-23.80434,24.96604
10.555323601,-3.779308,-12.98844,-2.546346,0.9553221,-0.0675332,-0.2355192,-32.80547,-23.80434,24.96604
10.565232754,-1.673414,-13.68747,-3.46679,0.9595878,-0.05584097,-0.2350006,-32.80547,-23.80434,24.96604
10.57514143,-0.4346527,-14.44474,-4.325871,0.9685076,-0.05713255,-0.2250084,-31.69239,-23.05506,24.95789
10.585050106,-0.6204669,-15.14377,-4.509959,0.9848066,-0.05684552,-0.2088318,-31.69239,-23.05506,24.95789
10.594959259,-0.9301572,-15.08551,-4.264508,1.003026,-0.05069885,-0.1892729,-31.69239,-23.05506,24.95789
10.604867935,-1.79729,-13.74572,-4.632685,1.027673,-0.04931353,-0.1683647,-31.69239,-23.05506,24.95789
10.614776611,-3.097989,-11.24088,-4.632685,1.039263,-0.06460316,-0.1527285,-31.69239,-23.05506,24.95789
10.624685764,-4.33675,-8.736051,-4.141782,1.032209,-0.07771995,-0.1407467,-30.92287,-24.55155,25.40833
10.63459444,-5.327759,-6.930239,-3.344064,1.032387,-0.08884726,-0.136501,-30.92287,-24.55155,25.40833
10.64450407,-5.141944,-5.18268,-2.607709,1.03903,-0.1125206,-0.13624,-30.92287,-24.55155,25.40833
10.65441227,-4.150936,-3.726381,-1.441814,1.034022,-0.1480053,-0.1417118,-30.92287,-24.55155,25.40833
10.664320946,-3.036051,-2.852602,-0.5827335,1.029928,-0.162535,-0.1288065,-30.92287,-24.55155,25.40833
10.674230575,-2.168918,-1.454555,-0.9509109,1.036803,-0.1712144,-0.1361303,-31.67139,-24.55161,25.41222
10.684139252,-1.735352,1.225035,-1.809992,1.038264,-0.1790039,-0.1457989,-31.67139,-24.55161,25.41222
10.694047451,-1.859228,3.089098,-2.116806,1.031603,-0.1836319,-0.1808196,-31.67139,-24.55161,25.41222
10.703957081,-0.5585288,3.496862,-2.239532,1.015714,-0.1834663,-0.2041993,-31.67139,-24.55161,25.41222
10.713865757,1.980931,3.846374,-2.300895,0.9948151,-0.1683023,-0.2216709,-31.67139,-24.55161,25.41222
10.723774433,5.387524,4.836657,-2.730435,0.9898856,-0.1620429,-0.2182225,-31.2909,-24.9246,25.79689
10.733683586,8.546364,5.477429,-3.712242,0.9959751,-0.1533217,-0.2340659,-31.2909,-24.9246,25.79689
10.743592262,9.97094,6.525964,-4.632685,1.006405,-0.1440891,-0.2552279,-31.2909,-24.9246,25.79689
10.753501415,10.21869,6.70072,-5.553129,0.9798025,-0.1169664,-0.2903329,-31.2909,-24.9246,25.79689
10.763410091,9.28962,5.593933,-5.79858,0.9453079,-0.08070927,-0.3214627,-31.2909,-24.9246,25.79689
10.773318767,8.298612,3.962878,-5.553129,0.9179568,-0.05543077,-0.3364064,-30.91664,-24.92457,25.79494
10.78322792,7.988922,1.632799,-5.246314,0.9021173,-0.03426363,-0.330357,-30.91664,-24.92457,25.79494
10.793136597,7.369542,-1.454555,-5.614491,0.9164274,-0.03450607,-0.3180069,-30.91664,-24.92457,25.79494
10.803045273,6.997913,-4.367153,-6.534935,0.965701,-0.04735581,-0.2964609,-30.91664,-24.92457,25.79494
10.815432072,4.89202,-6.755483,-7.087202,1.005294,-0.07003306,-0.2768115,-30.91664,-24.92457,25.79494
10.825340748,3.343568,-7.687515,-6.780387,1.003131,-0.089917,-0.2726025,-30.54101,-24.92298,26.17847
10.835248947,3.28163,-8.561295,-6.289484,0.9842032,-0.1066674,-0.2783009,-30.54101,-24.92298,26.17847
10.845158577,5.635276,-9.31857,-5.859943,0.9997306,-0.09385058,-0.2749981,-30.54101,-24.92298,26.17847
10.855067253,9.103806,-9.435074,-5.675855,0.9986726,-0.06609958,-0.2503153,-30.54101,-24.92298,26.17847
10.864975929,11.33358,-8.328286,-6.473572,0.9945607,-0.02869173,-0.2260202,-30.54101,-24.92298,26.17847
10.874885082,11.64327,-7.163247,-7.209927,1.000353,-0.00670636,-0.2076813,-30.92012,-24.54841,26.17926
10.884793758,10.34257,-5.998208,-7.70083,1.011148,0.00613122,-0.1889694,-30.92012,-24.54841,26.17926
10.894702911,8.236674,-4.833169,-7.946282,1.019077,0.006771775,-0.1779948,-30.92012,-24.54841,26.17926
10.904611588,5.883029,-4.017641,-7.639468,1.023708,-0.001833598,-0.1656109,-30.92012,-24.54841,26.17926
10.914520264,4.086825,-3.435122,-6.657661,1.037342,-0.02485817,-0.1505253,-30.92012,-24.54841,26.17926
10.924429417,2.600312,-2.561342,-5.307677,1.04589,-0.03682635,-0.1415611,-30.17484,-24.17193,26.62393
10.934338093,0.6802322,-0.8720351,-3.650879,1.052361,-0.04351667,-0.1383044,-30.17484,-24.17193,26.62393
10.944246769,-2.168918,1.166783,-1.625903,1.044222,-0.057189,-0.1373599,-30.17484,-24.17193,26.62393
10.954155922,-4.584502,2.797838,-0.2759189,1.041446,-0.0678756,-0.1345245,-30.17484,-24.17193,26.62393
10.964064598,-5.513573,4.137634,0.2763473,1.046595,-0.0842647,-0.1284392,-30.17484,-24.17193,26.62393
10.973974228,-5.699387,5.768689,0.5217989,1.046349,-0.1070713,-0.1314698,-30.16376,-24.91955,27.0117
10.983882427,-4.770316,7.865759,1.012702,1.040947,-0.1183699,-0.1468602,-30.16376,-24.91955,27.0117
10.993791103,-2.912175,9.555066,1.135428,1.02864,-0.1302739,-0.168913,-30.16376,-24.91955,27.0117
11.003700733,0.3705419,11.06962,0.9513392,1.013286,-0.1237362,-0.1802512,-30.16376,-24.91955,27.0117
11.013609409,4.89202,12.40941,0.3377102,1.007664,-0.1078329,-0.185375,-30.16376,-24.91955,27.0117
11.023518085,9.28962,13.45795,-0.5213705,0.9942712,-0.09346326,-0.187076,-30.1619,-25.29754,26.17767
11.033427238,12.88203,14.33173,-1.56454,0.9886164,-0.06782076,-0.183972,-30.1619,-25.29754,26.17767
11.043335915,16.22668,15.089,-2.853161,0.9874471,-0.04890815,-0.1804741,-30.1619,-25.29754,26.17767
11.053245068,19.19971,15.72977,-3.957693,1.004643,-0.03401678,-0.1550855,-30.1619,-25.29754,26.17767
11.063153744,21.55335,16.6618,-4.571322,1.030367,-0.03598228,-0.1284476,-30.1619,-25.29754,26.17767
11.07306242,23.22568,17.36083,-4.571322,1.066116,-0.0237995,-0.1090106,-30.54724,-24.54995,25.79184
11.085448742,24.95995,20.15692,-5.246314,1.105908,-0.01686518,-0.08292371,-30.54724,-24.54995,25.79184
11.095357418,26.57034,23.76855,-5.614491,1.088657,0.009190273,-0.06578505,-30.54724,-24.54995,25.79184
11.105266094,27.68522,27.49667,-6.044032,1.058853,0.0156579,-0.05586316,-30.54724,-24.54995,25.79184
11.115175724,28.61429,31.28305,-6.903113,1.05305,0.0131789,-0.0524649,-30.56041,-23.42459,26.17385
11.1250844,29.04786,35.41894,-7.639468,1.049114,-5.335757e-05,-0.07028251,-30.56041,-23.42459,26.17385
11.1349926,29.48143,39.55483,-8.130371,1.047377,0.0002756316,-0.09619281,-30.56041,-23.42459,26.17385
11.144902229,30.4105,42.52568,-8.928088,1.037272,-0.005382371,-0.1345497,-30.56041,-23.42459,26.17385
11.154810905,32.57833,45.03051,-9.603081,1.029716,-0.01241853,-0.1642965,-30.56041,-23.42459,26.17385
11.164720058,34.49841,46.54506,-9.787169,1.017426,-0.0233377,-0.1834619,-31.30844,-23.80422,24.95825
11.174628735,36.66624,47.30234,-10.15535,1.018866,-0.03016264,-0.1940842,-31.30844,-23.80422,24.95825
11.184537411,38.02888,47.18584,-10.76898,1.011452,-0.04200341,-0.2157016,-31.30844,-23.80422,24.95825
11.194446564,39.14376,45.72953,-11.13715,1.004423,-0.04023333,-0.23147,-31.30844,-23.80422,24.95825
11.20435524,39.2057,43.34121,-11.87351,1.008296,-0.05435076,-0.2517666,-31.30844,-23.80422,24.95825
11.214263916,37.96694,40.37035,-10.8917,1.034377,-0.06174482,-0.2443745,-33.19218,-23.05832,24.19474
11.224173069,33.94097,38.91405,-9.541718,1.043033,-0.0868279,-0.2403002,-33.19218,-23.05832,24.19474
11.234081745,30.16274,38.21503,-8.007645,1.031635,-0.112165,-0.2370025,-33.19218,-23.05832,24.19474
11.243990898,26.94197,36.00146,-5.614491,1.017209,-0.1075926,-0.2555648,-33.19218,-23.05832,24.19474
11.253899574,24.15475,32.09858,-3.650879,0.9704309,-0.1063934,-0.2858543,-33.19218,-23.05832,24.19474
11.26380825,23.22568,25.80736,-2.791798,0.9181995,-0.07286548,-0.3331637,-32.44852,-22.68366,24.18969
11.27371788,22.97793,17.12782,-3.89633,0.8580389,-0.01558818,-0.3629559,-32.44852,-22.68366,24.18969
11.28362608,22.29661,7.574499,-5.000863,0.8305695,0.0208482,-0.3763837,-32.44852,-22.68366,24.18969
11.293534756,21.67723,0.293004,-5.982669,0.8413472,0.03806675,-0.3542814,-32.44852,-22.68366,24.18969
11.303444386,20.62428,-2.736098,-6.596298,0.8718885,0.04295416,-0.3266821,-32.44852,-22.68366,24.18969
11.313353062,18.64227,-4.017641,-7.025838,0.888683,0.04764097,-0.3047189,-33.58398,-21.93796,23.35804
11.323262215,15.6073,-5.648696,-7.639468,0.8800896,0.0654394,-0.3112431,-33.58398,-21.93796,23.35804
11.333170891,12.57234,-8.969058,-8.31446,0.8562986,0.1010761,-0.3007023,-33.58398,-21.93796,23.35804
11.343079567,9.847063,-12.87194,-8.682637,0.8482785,0.1262417,-0.2903771,-33.58398,-21.93796,23.35804
11.35298872,7.617294,-16.13405,-8.437185,0.8576968,0.135693,-0.2668736,-33.58398,-21.93796,23.35804
11.365374565,3.095816,-17.88161,-7.455379,0.8792541,0.1055013,-0.2504685,-33.20811,-21.9361,23.80581
11.375283241,-1.79729,-21.20197,-5.614491,0.8851989,0.09488326,-0.2553958,-33.20811,-21.9361,23.80581
11.385192394,-8.4866,-25.1631,-3.650879,0.8910505,0.1056802,-0.2443344,-33.20811,-21.9361,23.80581
11.39510107,-15.54754,-27.31843,-1.809992,0.9050925,0.09725387,-0.2200323,-33.20811,-21.9361,23.80581
11.4050107,-22.17491,-28.36696,0.3990731,0.9218617,0.06559043,-0.1954301,-33.20811,-21.9361,23.80581
11.414919376,-27.25383,-28.19221,2.117234,0.9651293,0.02796533,-0.1687119,-33.20779,-21.61897,25.02549
11.424827576,-30.97011,-26.38639,3.835396,0.9999371,-0.00593816,-0.151974,-33.20779,-21.61897,25.02549
11.434737206,-33.94314,-25.74562,5.676283,0.9649473,-0.0138323,-0.1877148,-33.20779,-21.61897,25.02549
11.444645882,-37.90717,-29.88151,7.885348,0.9100408,-0.01679203,-0.2525283,-33.20779,-21.61897,25.02549
11.454554558,-43.41966,-35.64846,9.542147,0.9038519,0.03540198,-0.2703694,-33.20779,-21.61897,25.02549
11.464463711,-49.98509,-36.28923,9.910324,0.9526909,0.08330167,-0.2200853,-32.06989,-22.67866,25.40839
11.474372387,-55.80727,-32.79411,9.787598,1.035872,0.05608853,-0.1514129,-32.06989,-22.67866,25.40839
11.48428154,-60.51456,-27.60969,10.70804,1.100596,-0.007877903,-0.1135448,-32.06989,-22.67866,25.40839
11.494190216,-64.29279,-24.9301,11.87394,1.137643,-0.06795121,-0.09988292,-32.06989,-22.67866,25.40839
11.504098892,-65.40767,-23.7068,12.73302,1.182282,-0.1046318,-0.08133379,-32.06989,-22.67866,25.40839
11.514008045,-62.93015,-22.65827,11.87394,1.23426,-0.1309744,-0.05029954,-31.32137,-22.6786,25.4045
11.523916721,-56.11696,-19.57092,9.603509,1.280613,-0.1553132,0.006728617,-31.32137,-22.6786,25.4045
11.533825874,-46.02106,-14.26999,6.903542,1.270726,-0.193044,0.04738214,-31.32137,-22.6786,25.4045
11.543734551,-35.6774,-10.42536,5.001291,1.180017,-0.2262539,0.03215457,-31.32137,-22.6786,25.4045
11.553643227,-27.31577,-10.36711,3.958122,1.060697,-0.2455643,-0.03889431,-31.32137,-22.6786,25.4045
11.563552856,-21.80328,-13.39621,3.28313,0.9722626,-0.2134758,-0.08971976,-30.55645,-24.18032,24.57004
11.573461056,-19.13994,-16.01755,2.976315,0.9095879,-0.1796798,-0.1537363,-30.55645,-24.18032,24.57004
11.583369732,-16.84824,-17.18258,2.178597,0.8995324,-0.143609,-0.1860538,-30.55645,-24.18032,24.57004
11.593279362,-13.44164,-16.30881,1.994509,0.921518,-0.1260299,-0.2149495,-30.55645,-24.18032,24.57004
11.603188038,-10.03505,-16.1923,2.976315,0.9550506,-0.08986523,-0.2404671,-30.55645,-24.18032,24.57004
11.613097191,-6.690396,-14.85251,3.835396,0.9801597,-0.04776045,-0.2221728,-30.9194,-24.92771,25.02401
11.623005867,-4.150936,-12.63893,4.264936,1.000932,-0.04201471,-0.1925568,-30.9194,-24.92771,25.02401
11.635391712,-4.274812,-10.77487,5.062654,1.022641,-0.02749743,-0.156649,-30.9194,-24.92771,25.02401
11.645300865,-6.814272,-10.77487,5.553557,1.035192,0.0008701678,-0.1392904,-30.9194,-24.92771,25.02401
11.655209541,-9.973113,-10.60011,5.001291,1.048542,0.02818096,-0.1406724,-30.9194,-24.92771,25.02401
11.665118217,-12.45063,-9.842837,4.080848,1.05085,0.03545773,-0.1454468,-30.16119,-25.67684,25.02243
11.67502737,-13.07002,-9.085562,3.467218,1.048188,0.02092847,-0.1359158,-30.16119,-25.67684,25.02243
11.684936047,-12.32676,-7.629263,3.28313,1.044235,-0.02230842,-0.1428895,-30.16119,-25.67684,25.02243
11.694845676,-11.27381,-5.998208,3.344493,1.030404,-0.06962154,-0.1642038,-30.16119,-25.67684,25.02243
11.704754353,-9.291795,-5.357436,4.14221,0.9936168,-0.08867747,-0.1976016,-30.16119,-25.67684,25.02243
11.714662552,-6.132954,-5.881704,5.124017,0.9806393,-0.08214507,-0.2156841,-30.90833,-25.67533,25.41179
11.724572182,-2.168918,-5.706948,4.694477,0.9842395,-0.06762405,-0.2290651,-30.90833,-25.67533,25.41179
11.734480858,1.113798,-4.833169,4.019485,0.9973029,-0.05484782,-0.2276603,-30.90833,-25.67533,25.41179
11.744390011,2.476436,-3.959389,4.019485,0.996753,-0.04561736,-0.2227921,-30.90833,-25.67533,25.41179
11.754298687,2.910002,-3.668129,3.528581,0.9860394,-0.044266,-0.2169221,-30.90833,-25.67533,25.41179
11.764207363,2.786126,-3.493374,3.344493,0.9819619,-0.03366952,-0.2206551,-30.90347,-26.04993,25.41294
11.774116516,2.600312,-2.852602,3.28313,0.9835995,-0.009908212,-0.223873,-30.90347,-26.04993,25.41294
11.784025192,1.299613,-1.862319,3.037678,0.9784067,0.008897217,-0.2313823,-30.90347,-26.04993,25.41294
11.793934345,-0.9301572,-1.338051,3.160404,0.9582174,0.01345031,-0.2398081,-30.90347,-26.04993,25.41294
11.803843021,-3.345741,-1.629311,3.344493,0.9565321,0.007712967,-0.2201442,-30.90347,-26.04993,25.41294
11.813751697,-6.194891,-2.79435,3.835396,0.9621384,0.0005817596,-0.206319,-30.52922,-26.0499,25.41099
11.82366085,-8.300786,-4.89142,4.080848,0.9714554,-0.04099093,-0.2047615,-30.52922,-26.0499,25.41099
11.833569527,-10.03505,-6.755483,4.571751,1.001555,-0.0643779,-0.2056758,-30.52922,-26.0499,25.41099
11.843478203,-11.02606,-6.697231,5.001291,1.020179,-0.07095208,-0.209253,-30.52922,-26.0499,25.41099
11.853387833,-9.849237,-4.716664,4.633114,1.033263,-0.06938469,-0.2189667,-30.52922,-26.0499,25.41099
11.863296032,-8.362723,-1.454555,3.28313,1.041923,-0.07544109,-0.1921983,-30.90347,-26.04993,25.41294
11.873205662,-7.1859,1.458043,1.626331,1.030155,-0.06438564,-0.1824126,-30.90347,-26.04993,25.41294
11.883114338,-5.141944,2.85609,0.460436,1.0025,-0.04926074,-0.1911791,-30.90347,-26.04993,25.41294
11.893023014,-0.9920952,3.904626,0.460436,0.9930881,-0.0274891,-0.1775026,-30.90347,-26.04993,25.41294
11.905409336,-0.06302445,7.28324,-1.625903,1.008867,-0.04234629,-0.1820689,-30.90347,-26.04993,25.41294
11.915318012,0.8660463,7.865759,-3.098613,1.010558,-0.070992,-0.1937992,-30.53407,-25.6753,25.40984
11.925226688,2.724188,8.914294,-3.650879,1.019973,-0.07861546,-0.1905759,-30.53407,-25.6753,25.40984
11.935135841,4.768144,10.54535,-3.221339,1.035166,-0.07499291,-0.1830098,-30.53407,-25.6753,25.40984
11.945044518,6.006905,11.36088,-2.300895,1.033604,-0.06335317,-0.1785964,-30.53407,-25.6753,25.40984
11.954954147,5.263648,10.07933,-1.257725,1.017026,-0.05768351,-0.1673616,-30.53407,-25.6753,25.40984
11.964862347,2.414498,7.341492,0.1536215,1.016085,-0.06450569,-0.1717198,-30.52437,-26.4245,25.41215
11.974771023,-0.806281,4.137634,1.564968,1.009841,-0.0659906,-0.162549,-30.52437,-26.4245,25.41215
11.984680653,-3.655432,0.7590198,2.546775,1.003003,-0.0802187,-0.1784257,-30.52437,-26.4245,25.41215
11.994589329,-6.25683,-2.328334,2.669501,1.000581,-0.08999332,-0.1875914,-30.52437,-26.4245,25.41215
12.004498482,-7.743343,-4.075893,3.037678,0.9971328,-0.09443974,-0.1952717,-30.52437,-26.4245,25.41215
12.014407158,-7.557528,-4.716664,2.669501,0.9878132,-0.08822987,-0.1908227,-31.28396,-25.67693,25.02826
12.024315834,-6.628458,-4.658412,2.117234,0.9901618,-0.07605421,-0.1859618,-31.28396,-25.67693,25.02826
12.034224987,-4.894192,-4.134145,1.81042,0.9908549,-0.05179987,-0.1853264,-31.28396,-25.67693,25.02826
12.044133663,-2.726361,-3.842885,1.319517,0.9919541,-0.02514352,-0.1899606,-31.28396,-25.67693,25.02826
12.054042816,-0.4346527,-3.784633,1.135428,0.998955,-0.02497698,-0.1746592,-31.28396,-25.67693,25.02826
12.063951492,2.290622,-3.202114,0.460436,1.006434,-0.02139552,-0.1564585,-30.91455,-25.30231,25.02517
12.073860168,4.024887,-2.677846,-0.4600076,1.014741,-0.02763536,-0.1642594,-30.91455,-25.30231,25.02517
12.083769321,4.644268,-2.153579,-0.8281851,1.026855,-0.03827129,-0.1874899,-30.91455,-25.30231,25.02517
12.093677998,4.458453,-2.037075,-0.8895479,1.007854,-0.04725477,-0.1912152,-30.91455,-25.30231,25.02517
12.103587627,4.210701,-1.221547,-0.5827335,1.00108,-0.06144974,-0.2008503,-30.91455,-25.30231,25.02517
12.113495827,4.024887,-0.8720351,-0.09183015,1.009436,-0.08571354,-0.2250972,-30.9097,-25.6769,25.02632
12.123404503,3.777135,-1.745815,0.2149844,1.035264,-0.09958062,-0.2499165,-30.9097,-25.6769,25.02632
12.133314133,3.529382,-1.978823,0.9513392,1.029073,-0.09152922,-0.2718929,-30.9097,-25.6769,25.02632
12.143222809,3.591321,-2.619594,1.503605,0.9991522,-0.09585443,-0.2860497,-30.9097,-25.6769,25.02632
12.153131962,2.97194,-3.901137,1.871783,0.9782317,-0.1136241,-0.2965381,-30.9097,-25.6769,25.02632
12.163040638,1.237675,-4.541909,2.178597,0.9762006,-0.1151512,-0.3056525,-31.27911,-26.05153,25.02942
12.175426483,-0.744343,-5.007925,2.608138,0.9868248,-0.09703697,-0.2974674,-31.27911,-26.05153,25.02942
12.185335636,-2.168918,-4.658412,2.730864,0.9883518,-0.09259702,-0.2864083,-31.27911,-26.05153,25.02942
12.195244312,-2.10698,-4.949672,2.485412,0.9763794,-0.06896499,-0.2818187,-31.27911,-26.05153,25.02942
12.205153942,-1.4876,-5.939956,1.933146,0.9710281,-0.04853035,-0.2552244,-30.90833,-25.67533,25.41179
12.215062141,-0.06302445,-6.988491,1.196791,0.9647762,-0.03538484,-0.2296306,-30.90833,-25.67533,25.41179
12.224970818,1.547365,-7.396255,0.6445247,0.9775389,-0.01568747,-0.2017682,-30.90833,-25.67533,25.41179
12.234880447,3.157754,-6.697231,-0.214556,0.9894791,-0.01104355,-0.1763993,-30.90833,-25.67533,25.41179
12.244789124,4.210701,-4.774917,-0.7668222,0.9969946,-0.01427213,-0.1625658,-30.90833,-25.67533,25.41179
12.254698277,4.520391,-2.328334,-1.503177,0.9976028,-0.02054543,-0.1582917,-30.91042,-25.2976,26.18157
12.264606953,4.582329,-0.1147597,-2.239532,0.9928182,-0.02396658,-0.1520282,-30.91042,-25.2976,26.18157
12.274515629,4.458453,1.632799,-2.362258,0.9883193,-0.02602411,-0.1640043,-30.91042,-25.2976,26.18157
12.284424782,4.89202,2.972594,-2.239532,0.9879497,-0.0376754,-0.1659991,-30.91042,-25.2976,26.18157
12.294333458,5.387524,3.089098,-2.239532,0.9936866,-0.03913335,-0.1804667,-30.91042,-25.2976,26.18157
12.304242611,5.449462,3.089098,-2.116806,1.008159,-0.05587658,-0.171589,-30.52623,-26.0465,26.24617
12.314151287,4.334577,3.904626,-1.441814,1.020323,-0.05624268,-0.177946,-30.52623,-26.0465,26.24617
12.324059963,2.414498,4.661901,-0.5213705,1.017343,-0.06020587,-0.1870679,-30.52623,-26.0465,26.24617
12.333969116,1.175737,5.244421,-0.3372818,1.010947,-0.0622571,-0.1932644,-30.52623,-26.0465,26.24617
12.343877792,-0.1869005,5.652184,0.2149844,0.9981109,-0.05516348,-0.1969397,-30.52623,-26.0465,26.24617
12.353787422,-0.4965908,5.826941,0.6445247,1.001576,-0.04631826,-0.1825081,-30.53593,-25.29731,26.24386
12.363695622,-0.8682191,6.001697,0.6445247,0.9994135,-0.03523054,-0.1896166,-30.53593,-25.29731,26.24386
12.373604298,-0.5585288,6.176452,0.8286135,0.9894503,-0.02471712,-0.1952163,-30.53593,-25.29731,26.24386
12.383513928,0.06085166,5.360925,0.7672505,0.9809347,-0.01468302,-0.2032334,-30.53593,-25.29731,26.24386
12.393422604,-0.2488386,4.195886,0.2763473,0.9714884,-0.01683184,-0.2209262,-30.53593,-25.29731,26.24386
12.403331757,-0.744343,3.322106,-0.1531931,0.9740236,-0.02894933,-0.2263121,-30.90833,-25.67533,25.41179
12.413240433,-0.8682191,2.681334,-0.7054592,0.9798387,-0.03573235,-0.2393754,-30.90833,-25.67533,25.41179
12.423149109,-0.2488386,1.924059,-1.073637,0.9763023,-0.03485878,-0.2494202,-30.90833,-25.67533,25.41179
12.433058262,0.3086039,0.5260119,-1.380451,0.969009,-0.04322192,-0.2551703,-30.90833,-25.67533,25.41179
12.445444107,0.43248,-1.221547,-1.871354,0.9726056,-0.05284469,-0.2495058,-30.90833,-25.67533,25.41179
12.455352783,0.1847278,-1.804067,-1.625903,0.973147,-0.06549419,-0.2591982,-30.16328,-25.29911,25.79221
12.465261936,0.06085166,-2.444838,-1.441814,0.9746257,-0.06400631,-0.2563211,-30.16328,-25.29911,25.79221
12.475170612,0.1227897,-3.37687,-1.257725,0.9716217,-0.0548113,-0.2523908,-30.16328,-25.29911,25.79221
12.485080242,0.3086039,-3.726381,-1.135,0.9752494,-0.06002762,-0.2385345,-30.16328,-25.29911,25.79221
12.494988918,0.6802322,-3.609878,-1.319088,0.9935723,-0.06504648,-0.2219318,-30.16328,-25.29911,25.79221
12.504898071,0.7421702,-3.318618,-1.380451,0.9989333,-0.0586468,-0.2161769,-30.53754,-25.29914,25.79415
12.514806748,0.494418,-2.736098,-1.380451,1.00432,-0.05272172,-0.2085047,-30.53754,-25.29914,25.79415
12.524715424,0.5563561,-2.386586,-1.503177,0.9988914,-0.05183931,-0.2122899,-30.53754,-25.29914,25.79415
12.534624577,0.5563561,-1.687563,-1.932717,1.004208,-0.05082842,-0.2171339,-30.53754,-25.29914,25.79415
12.544533253,1.05186,-0.4642715,-1.748629,0.9944044,-0.05779302,-0.2276531,-30.53754,-25.29914,25.79415
12.554442406,1.609303,-0.2895156,-1.809992,0.9824046,-0.05124848,-0.2457445,-30.16813,-24.92451,25.79105
12.564351082,2.290622,-0.5807754,-2.055443,0.9759954,-0.04598961,-0.2446899,-30.16813,-24.92451,25.79105
12.574259758,3.343568,-0.6972793,-2.239532,0.9731091,-0.04746513,-0.2417921,-30.16813,-24.92451,25.79105
12.584168911,3.653259,-1.046791,-2.484983,0.976447,-0.0469786,-0.2495023,-30.16813,-24.92451,25.79105
12.594077587,3.591321,-1.745815,-2.730435,0.9814381,-0.05466947,-0.2486393,-30.16813,-24.92451,25.79105
12.603987217,3.157754,-1.920571,-2.669072,0.9869055,-0.05553148,-0.2410131,-30.53754,-25.29914,25.79415
12.613895416,2.910002,-1.571059,-2.607709,0.9909383,-0.05785846,-0.2319429,-30.53754,-25.29914,25.79415
12.623804092,2.97194,-1.629311,-2.546346,0.9969057,-0.0567574,-0.2209471,-30.53754,-25.29914,25.79415
12.633713722,2.786126,-1.105043,-2.484983,0.9988706,-0.04843558,-0.2103464,-30.53754,-25.29914,25.79415
12.643622398,2.414498,-0.4642715,-2.484983,0.9978064,-0.04410242,-0.2136688,-30.53754,-25.29914,25.79415
12.653531551,1.918993,0.001744238,-2.239532,0.9966497,-0.03201258,-0.2169386,-30.91179,-25.29917,25.7961
12.663440227,1.671241,0.9337757,-2.116806,0.9965072,-0.01842819,-0.2149262,-30.91179,-25.29917,25.7961
12.67334938,1.795117,1.632799,-2.055443,0.9935762,-0.01700005,-0.2129689,-30.91179,-25.29917,25.7961
12.683258057,0.8660463,1.458043,-1.809992,0.9926043,-0.01749699,-0.2129633,-30.91179,-25.29917,25.7961
12.693166733,0.2466658,1.749303,-1.871354,0.9910371,-0.01610414,-0.2211022,-30.91179,-25.29917,25.7961
12.703075886,-0.6204669,1.749303,-1.809992,0.9881805,-0.01512513,-0.2124264,-30.53892,-25.30071,25.40868
12.712984562,-1.4876,2.331823,-1.687266,0.9926661,-0.02185503,-0.2120325,-30.53892,-25.30071,25.40868
12.725370407,-2.230856,2.215319,-1.56454,0.9926301,-0.02626403,-0.2207044,-30.53892,-25.30071,25.40868
12.735280037,-3.036051,2.273571,-1.380451,0.9926773,-0.02526387,-0.2149363,-30.53892,-25.30071,25.40868
12.745188713,-3.159927,2.390074,-1.196362,0.9996229,-0.02707726,-0.2073301,-30.53892,-25.30071,25.40868
12.755097866,-2.912175,2.564831,-0.8895479,0.9947762,-0.03931132,-0.2174501,-29.78555,-25.67525,25.40594
12.765006542,-2.912175,1.982311,-0.8281851,0.9902552,-0.03747775,-0.2269992,-29.78555,-25.67525,25.40594
12.774915695,-2.850237,1.632799,-0.7054592,0.9912616,-0.04232882,-0.2299218,-29.78555,-25.67525,25.40594
12.784824371,-2.41667,1.283287,-0.5213705,0.993172,-0.04184012,-0.2337775,-29.78555,-25.67525,25.40594
12.794733047,-1.735352,0.5842639,-0.6440963,0.9872479,-0.04243091,-0.2399687,-29.78555,-25.67525,25.40594
12.8046422,-1.425662,0.2347521,-0.8281851,0.9886748,-0.03414064,-0.2341648,-30.16119,-25.67684,25.02243
12.814550877,-1.4876,0.001744238,-0.8895479,0.9881712,-0.02878851,-0.2293229,-30.16119,-25.67684,25.02243
12.82446003,-2.045042,0.1765001,-1.073637,0.9905522,-0.02635201,-0.2326898,-30.16119,-25.67684,25.02243
12.834368706,-2.664423,0.2347521,-0.8895479,0.9875684,-0.01470756,-0.2239417,-30.16119,-25.67684,25.02243
12.844277382,-2.912175,-0.2312636,-0.9509109,0.9875435,-0.01179371,-0.2229618,-30.16119,-25.67684,25.02243
12.854187012,-3.345741,-0.3477675,-0.7054592,0.9842206,-0.01519919,-0.2171918,-30.53407,-25.6753,25.40984
12.864095211,-3.903184,-0.8720351,-0.5213705,0.9950379,-0.01698438,-0.2134625,-30.53407,-25.6753,25.40984
12.874004841,-3.71737,-1.396303,-0.6440963,0.9925606,-0.01508067,-0.2143872,-30.53407,-25.6753,25.40984
12.883913517,-3.407679,-1.396303,-0.4600076,0.9955602,-0.02183898,-0.2159005,-30.53407,-25.6753,25.40984
12.89382267,-3.903184,-1.571059,-0.5213705,0.9976563,-0.02905856,-0.2106862,-30.53407,-25.6753,25.40984
12.903731346,-3.965122,-1.396303,-0.2759189,0.9947641,-0.03004929,-0.2077851,-30.15011,-26.42447,25.4102
12.913640022,-3.655432,-1.221547,-0.1531931,0.9983059,-0.03921275,-0.2069186,-30.15011,-26.42447,25.4102
12.923549175,-3.531555,-0.6972793,-0.1531931,1.005248,-0.04151603,-0.2002759,-30.15011,-26.42447,25.4102
12.933457851,-3.531555,-0.1730116,0.09225857,1.000146,-0.03485844,-0.2131487,-30.15011,-26.42447,25.4102
12.943367004,-3.779308,-0.2312636,0.1536215,0.9902984,-0.02623579,-0.209639,-30.15011,-26.42447,25.4102
12.953275681,-4.02706,0.001744238,0.2763473,0.989672,-0.02338661,-0.2196976,-30.52437,-26.4245,25.41215
12.963184357,-4.02706,-0.2895156,0.3377102,0.9950473,-0.01941854,-0.2153994,-30.52437,-26.4245,25.41215
12.97309351,-4.150936,-0.6972793,0.3990731,0.989704,-0.02483335,-0.2182671,-30.52437,-26.4245,25.41215
12.983002186,-4.584502,-1.571059,0.5217989,0.99068,-0.02921236,-0.223587,-30.52437,-26.4245,25.41215
12.995388985,-4.832254,-1.804067,0.6445247,0.9950638,-0.03111726,-0.2274815,-30.52437,-26.4245,25.41215
13.005297661,-4.584502,-2.095326,0.6445247,0.9936631,-0.03500364,-0.2255738,-30.15981,-25.67528,25.40789
13.015206337,-4.522564,-2.270082,0.3377102,0.9932432,-0.03790063,-0.2222281,-30.15981,-25.67528,25.40789
13.02511549,-4.64644,-2.21183,0.5217989,0.9921947,-0.03404717,-0.2245935,-30.15981,-25.67528,25.40789
13.035024166,-4.584502,-2.21183,0.5217989,0.9940336,-0.02920553,-0.2303402,-30.15981,-25.67528,25.40789
13.044933319,-4.64644,-2.386586,0.460436,0.9936146,-0.02722402,-0.2212001,-30.15981,-25.67528,25.40789
13.054841995,-4.460626,-2.444838,0.460436,0.9907295,-0.03211348,-0.2221663,-30.16119,-25.67684,25.02243
13.064751148,-4.398688,-2.095326,0.5831618,0.9941332,-0.03012925,-0.2217044,-30.16119,-25.67684,25.02243
13.074659824,-4.522564,-2.328334,0.5217989,0.9917819,-0.0301112,-0.2125595,-30.16119,-25.67684,25.02243
13.084568501,-4.02706,-2.328334,0.5831618,0.9888849,-0.03110448,-0.2101386,-30.16119,-25.67684,25.02243
13.09447813,-4.150936,-2.153579,0.3377102,0.9937975,-0.02810443,-0.2044021,-30.16119,-25.67684,25.02243
13.104386807,-4.088998,-1.745815,0.2149844,0.9942949,-0.03541102,-0.2121379,-30.1628,-25.67867,24.57271
13.114295959,-4.460626,-1.629311,0.2763473,0.9902828,-0.03112194,-0.2168738,-30.1628,-25.67867,24.57271
13.124204636,-4.584502,-1.629311,0.3377102,0.9886272,-0.02684836,-0.2302745,-30.1628,-25.67867,24.57271
13.134113312,-4.64644,-2.037075,0.3377102,0.9891102,-0.02635749,-0.2302757,-30.1628,-25.67867,24.57271
13.144022465,-4.274812,-1.862319,0.09225857,0.9935803,-0.0326077,-0.2308388,-30.1628,-25.67867,24.57271
13.153931141,-4.212874,-2.095326,-0.214556,0.9930798,-0.03164418,-0.2308277,-29.40644,-26.04981,25.40516
13.163840294,-4.150936,-2.328334,-0.3986447,0.9941702,-0.03693928,-0.2260715,-29.40644,-26.04981,25.40516
13.17374897,-4.398688,-2.270082,-0.3986447,0.9981969,-0.04658656,-0.226173,-29.40644,-26.04981,25.40516
13.183658123,-4.398688,-2.386586,-0.3372818,0.993912,-0.05584973,-0.225715,-29.40644,-26.04981,25.40516
13.193566799,-3.469617,-2.852602,-0.1531931,0.9935055,-0.06069099,-0.2233427,-29.40644,-26.04981,25.40516
13.203475475,-2.41667,-2.852602,0.03089567,0.9945242,-0.06163315,-0.2204774,-30.15634,-26.05144,25.02358
13.213384628,-1.177909,-2.270082,0.2149844,0.9960665,-0.06011214,-0.2113585,-30.15634,-26.05144,25.02358
13.223293304,-0.3727147,-1.338051,0.03089567,0.9988131,-0.05188008,-0.219972,-30.15634,-26.05144,25.02358
13.233202934,0.3086039,-0.8720351,0.09225857,0.9981889,-0.04220049,-0.2218223,-30.15634,-26.05144,25.02358
13.24311161,0.7421702,-0.5225234,-0.214556,1.000979,-0.03882401,-0.2319089,-30.15634,-26.05144,25.02358
13.253020763,0.6802322,-0.1730116,-0.1531931,0.9892007,-0.03557875,-0.2322586,-29.77723,-26.426,25.02279
13.265406609,1.361551,-0.6972793,-0.2759189,0.9837488,-0.03519642,-0.2389278,-29.77723,-26.426,25.02279
13.275315285,2.042869,-1.046791,-0.4600076,0.9823058,-0.03471456,-0.2360303,-29.77723,-26.426,25.02279
13.285224438,2.66225,-1.163295,-0.5827335,0.9868222,-0.03947727,-0.2303419,-29.77723,-26.426,25.02279
13.295133114,2.910002,-1.221547,-0.7054592,0.9878031,-0.04385373,-0.2351817,-29.77723,-26.426,25.02279
13.305042744,3.095816,-1.279799,-1.073637,0.9951404,-0.04083351,-0.2313882,-29.77238,-26.8006,25.02394
13.314950943,3.28163,-1.163295,-0.8895479,0.9941814,-0.04034812,-0.2289753,-29.77238,-26.8006,25.02394
13.324859619,3.467444,-0.3477675,-0.8895479,0.9961132,-0.04618975,-0.2381551,-29.77238,-26.8006,25.02394
13.334769249,4.024887,-0.5807754,-0.6440963,0.9838338,-0.04149364,-0.2380102,-29.77238,-26.8006,25.02394
13.344677925,4.768144,-0.9302871,-0.7054592,0.9852843,-0.03270329,-0.2293222,-29.77238,-26.8006,25.02394
13.354587078,5.20171,-0.9302871,-0.7054592,0.9906271,-0.02972773,-0.2293518,-30.53545,-25.67687,25.02437
13.364495754,5.139772,-0.9302871,-0.5213705,0.9867158,-0.02684972,-0.2259354,-30.53545,-25.67687,25.02437
13.374404907,4.396515,-0.7555313,-0.4600076,0.9927169,-0.02817008,-0.2144759,-30.53545,-25.67687,25.02437
13.384313583,3.405506,-0.7555313,-0.4600076,0.9882625,-0.03313126,-0.2255114,-30.53545,-25.67687,25.02437
13.39422226,2.476436,-1.163295,-0.5213705,0.9818222,-0.03227884,-0.2326485,-30.53545,-25.67687,25.02437
13.404131413,1.918993,-1.338051,-0.7668222,0.9857429,-0.03222516,-0.2317241,-29.771,-26.79903,25.40941
13.414040089,1.980931,-1.454555,-1.012274,0.987775,-0.03655127,-0.2293709,-29.771,-26.79903,25.40941
13.423949242,2.724188,-1.629311,-1.073637,0.9878151,-0.04238407,-0.2322911,-29.771,-26.79903,25.40941
13.433857918,3.901011,-2.095326,-1.196362,0.9829322,-0.04292959,-0.2322496,-29.771,-26.79903,25.40941
13.443767548,5.139772,-2.619594,-1.503177,0.983349,-0.04100982,-0.2370422,-29.771,-26.79903,25.40941
13.453676224,5.883029,-2.910854,-1.625903,0.9910514,-0.03463329,-0.2413924,-30.15011,-26.42447,25.4102
13.463584423,5.759152,-3.027358,-1.56454,0.9905772,-0.02926587,-0.2336697,-30.15011,-26.42447,25.4102
