Time (s),Gyroscope X (deg/s),Gyroscope Y (deg/s),Gyroscope Z (deg/s),Accelerometer X (g),Accelerometer Y (g),Accelerometer Z (g),Magnetometer X (uT),Magnetometer Y (uT),Magnetometer Z (uT)
83.970973492,5.694463,-7.60415499999998,2.153293,0.9564805,0.2419871,0.1027936,-52.61765,-23.47689,15.70157
83.980832577,4.017333,-8.02071800000003,2.459808,0.967122,0.2542537,0.1046623,-52.61765,-23.47689,15.70157
83.990692139,2.278088,-8.25875400000001,3.195444,0.9856938,0.2583192,0.1068279,-52.61765,-23.47689,15.70157
84.000551224,0.4146104,-8.13973500000002,4.421504,1.008078,0.2692256,0.1075593,-53.36511,-23.46826,15.70544
84.010410309,-1.821563,-8.13973500000002,5.89277599999998,1.020736,0.2742033,0.1074209,-53.36511,-23.46826,15.70544
84.020269871,-3.436576,-7.90170000000001,7.73186600000001,1.031048,0.2757701,0.1115999,-53.36511,-23.46826,15.70544
84.030128956,-4.492547,-7.42562799999997,9.38704699999999,1.046198,0.2719943,0.1070393,-53.36511,-23.46826,15.70544
84.039988518,-4.865242,-6.652012,10.85832,1.054718,0.261385,0.1125788,-53.36511,-23.46826,15.70544
84.049847603,-4.3062,-5.402325,11.96177,1.060932,0.2527469,0.1301477,-53.35712,-23.82482,16.54139
84.059706688,-3.747156,-3.736075,12.39089,1.056774,0.2464309,0.1426128,-53.35712,-23.82482,16.54139
84.06956625,-2.504838,-1.17719,12.20698,1.031878,0.2432956,0.1438996,-53.35712,-23.82482,16.54139
84.081890106,-1.635215,1.203167,11.16483,1.00261,0.2376887,0.1452278,-53.35712,-23.82482,16.54139
84.091749191,-1.821563,3.226471,9.50965299999998,0.9756901,0.2330523,0.1403012,-53.35712,-23.82482,16.54139
84.101608753,-2.566953,4.654685,7.54795700000002,0.9599321,0.2309312,0.1309239,-53.36591,-22.72573,16.14599
84.111467838,-3.622924,6.0829,5.095838,0.943329,0.2263982,0.1292054,-53.36591,-22.72573,16.14599
84.121326923,-4.865242,7.27307799999999,2.643717,0.9420192,0.2098305,0.1262091,-53.36591,-22.72573,16.14599
84.131186485,-5.486402,8.46325700000001,-0.05361458,0.9393481,0.2112093,0.1109244,-53.36591,-22.72573,16.14599
84.14104557,-5.98332900000001,9.29638199999997,-2.199219,0.9493183,0.1893789,0.1053269,-53.36591,-22.72573,16.14599
84.150905132,-5.424286,10.18902,-4.222218,0.9572138,0.1753091,0.09790763,-53.73888,-22.34792,16.52824
84.160764217,-4.057736,11.26018,-6.18391400000002,0.9684404,0.1690548,0.09050684,-53.73888,-22.34792,16.52824
84.170623302,-1.200403,12.62888,-8.39082200000002,0.9782524,0.1588967,0.08357248,-53.73888,-22.34792,16.52824
84.180482864,2.029624,13.81906,-10.35252,0.9810119,0.1637549,0.07494856,-53.73888,-22.34792,16.52824
84.19034195,5.073304,15.24728,-12.68203,0.9886096,0.1725469,0.06580969,-53.73888,-22.34792,16.52824
84.200201511,7.930636,15.96138,-14.82764,0.9977185,0.1759939,0.05516656,-53.74285,-22.72765,15.69983
84.210060597,10.04258,16.55647,-16.72803,0.9970633,0.1866832,0.05239091,-53.74285,-22.72765,15.69983
84.219919682,11.71971,17.03254,-18.38321,1.001438,0.1901317,0.05331607,-53.74285,-22.72765,15.69983
84.22977829,13.2726,17.21107,-19.42536,1.003876,0.1813632,0.04506092,-53.74285,-22.72765,15.69983
84.239637852,14.57704,17.74665,-20.34491,1.002911,0.1813583,0.04603303,-53.74285,-22.72765,15.69983
84.249496937,16.56475,17.74665,-21.08054,1.002918,0.1769661,0.04264148,-53.37833,-22.74978,14.41762
84.261821747,19.29785,17.98469,-21.63227,1.007336,0.1789623,0.04547055,-53.37833,-22.74978,14.41762
84.271680832,21.40979,17.68714,-21.75488,1.009268,0.1804374,0.04497626,-53.37833,-22.74978,14.41762
84.281539917,22.77634,17.33009,-21.26445,1.012227,0.1794938,0.04588453,-53.37833,-22.74978,14.41762
84.291399479,24.14289,16.91353,-20.83533,1.011319,0.1785288,0.05020212,-53.37138,-24.53451,14.05176
84.301258087,25.13674,16.43745,-20.40621,1.002911,0.1813583,0.04603303,-53.37138,-24.53451,14.05176
84.311117172,25.57156,15.66384,-20.09969,0.9878263,0.1846644,0.05490153,-53.37138,-24.53451,14.05176
84.320976734,26.00637,15.06875,-19.60927,0.9721313,0.1854905,0.05273619,-53.37138,-24.53451,14.05176
84.330835819,25.82002,14.41415,-19.42536,0.9558952,0.1950856,0.05448618,-53.37138,-24.53451,14.05176
84.340694904,25.19886,13.58103,-19.18015,0.9379045,0.1915388,0.05950464,-53.37138,-24.53451,14.05176
84.350554466,23.83231,12.56937,-18.56712,0.9236898,0.1923816,0.05827676,-53.36862,-24.52916,14.43585
84.360413551,22.03095,11.31969,-17.77018,0.9098846,0.1922295,0.05032584,-53.36862,-24.52916,14.43585
84.370273113,20.16747,9.89147200000003,-16.48282,0.9079058,0.190253,0.04698296,-53.36862,-24.52916,14.43585
84.380132198,18.11765,8.522766,-14.88894,0.9015071,0.189209,0.04323176,-53.36862,-24.52916,14.43585
84.389991284,16.25417,6.97553399999999,-13.17246,0.9083197,0.1877947,0.03928913,-53.36862,-24.52916,14.43585
84.399850845,14.8255,5.249775,-11.08815,0.9137068,0.1883323,0.04017529,-52.99564,-24.90697,14.0536
84.409709931,13.6453,3.82156,-8.81994299999999,0.9229953,0.1898776,0.04101434,-52.99564,-24.90697,14.0536
84.419569492,13.02414,2.452855,-6.18391400000002,0.9341965,0.1884983,0.03605106,-52.99564,-24.90697,14.0536
84.429428578,12.52721,1.084149,-3.670491,0.945489,0.191539,0.04166617,-52.99564,-24.90697,14.0536
84.441752434,12.83779,-0.3440652,-0.6666446,0.9431209,0.1866573,0.04309632,-53.3626,-25.63361,14.44716
84.451611519,13.2726,-1.058172,1.908081,0.9475256,0.1842557,0.04109648,-53.3626,-25.63361,14.44716
84.461471081,13.95588,-2.486387,4.237596,0.946632,0.1842712,0.04733894,-53.3626,-25.63361,14.44716
84.471330166,14.57704,-3.855092,6.32189799999997,0.9387401,0.187601,0.04556272,-53.3626,-25.63361,14.44716
84.481189728,15.07397,-5.164289,8.40619900000001,0.9359053,0.1890683,0.0542411,-53.3626,-25.63361,14.44716
84.491048813,15.13608,-6.652012,10.67441,0.9319761,0.1953761,0.05866313,-52.61388,-26.38388,14.06675
84.500907898,14.88762,-8.13973500000002,12.69741,0.9305609,0.195378,0.06251691,-52.61388,-26.38388,14.06675
84.51076746,14.20434,-9.56794999999997,14.4752,0.9262229,0.1987751,0.07027459,-52.61388,-26.38388,14.06675
84.520626545,13.08626,-10.99616,16.80471,0.9281828,0.1968404,0.06879275,-52.61388,-26.38388,14.06675
84.530486107,11.47124,-12.48389,18.76641,0.9326115,0.2017691,0.07500081,-52.61388,-26.38388,14.06675
84.540345192,9.60776600000003,-13.9121,20.7281,0.9394212,0.2115832,0.08073696,-53.35863,-25.25388,15.27557
84.550204277,7.68217200000001,-15.28081,22.7511,0.9437471,0.2130649,0.07637502,-53.35863,-25.25388,15.27557
84.560063839,5.570231,-16.47099,24.7741,0.9481786,0.2155533,0.08064566,-53.35863,-25.25388,15.27557
84.569922924,3.334059,-17.48264,26.42928,0.9604653,0.2205601,0.08913839,-53.35863,-25.25388,15.27557
84.579782486,1.160001,-18.31576,27.83925,0.9648736,0.2249947,0.09342578,-53.35863,-25.25388,15.27557
84.589641571,-0.641360199999998,-18.85134,28.75879,0.9731709,0.2309217,0.09719114,-53.35863,-25.25388,15.27557
84.599500656,-2.504838,-19.32742,29.55573,0.9845241,0.2266564,0.1008269,-52.98415,-24.20263,16.15915
84.611824512,-3.436576,-19.44643,30.72049,0.9921785,0.2087472,0.1082339,-52.98415,-24.20263,16.15915
84.621684074,-3.001765,-19.32742,30.35267,0.9903848,0.2043824,0.116369,-52.98415,-24.20263,16.15915
84.631543159,-1.573099,-19.32742,30.41397,0.9905646,0.1853928,0.1128518,-52.98415,-24.20263,16.15915
84.641402721,3.085595,-17.54215,29.55573,0.9920447,0.1728507,0.1386016,-53.36114,-23.08853,16.53385
84.651261806,11.34701,-14.26916,27.04231,0.9981423,0.1690617,0.1519003,-53.36114,-23.08853,16.53385
84.661120891,21.28556,-10.16304,24.40628,1.010937,0.1307612,0.1595411,-53.36114,-23.08853,16.53385
84.670980453,31.2241,-5.402325,22.50589,1.025661,0.1348108,0.1665534,-53.36114,-23.08853,16.53385
84.680839538,39.54764,-1.236699,21.64765,1.012397,0.1390719,0.1662992,-53.36114,-23.08853,16.53385
84.6906991,46.25616,1.560221,19.31813,0.9974847,0.1782856,0.1476747,-53.73892,-21.23189,17.34911
84.700558186,50.7285,3.107453,16.80471,1.000183,0.2026553,0.1516755,-53.73892,-21.23189,17.34911
84.710417271,51.28754,4.297632,14.6591,0.9903579,0.2473387,0.1521927,-53.73892,-21.23189,17.34911
84.720276833,47.68482,5.487811,12.69741,0.9884008,0.2852677,0.1496655,-53.73892,-21.23189,17.34911
84.730135918,39.36129,6.0829,10.67441,0.9893883,0.3300607,0.153863,-53.73892,-21.23189,17.34911
84.73999548,27.62138,6.43995299999998,9.14183399999998,0.9949778,0.3520028,0.1525309,-53.73972,-20.48936,17.78966
84.749854565,14.20434,6.558971,8.65141099999999,1.008602,0.3486857,0.1441624,-53.73972,-20.48936,17.78966
84.75971365,2.961363,6.49946299999999,8.34489499999999,1.014604,0.3243639,0.1323708,-53.73972,-20.48936,17.78966
84.769573212,-5.610633,6.20191800000002,8.28359300000002,1.011034,0.2878101,0.1254044,-53.73972,-20.48936,17.78966
84.779432297,-12.1328,5.428301,7.60926000000002,1.011901,0.2576521,0.1265751,-53.73972,-20.48936,17.78966
84.791756153,-18.71709,4.535667,5.95407899999997,1.012874,0.2289892,0.1368617,-53.73653,-19.3671,19.05862
84.801615715,-23.06521,4.000087,4.482807,1.00901,0.2265274,0.1383336,-53.73653,-19.3671,19.05862
84.8114748,-26.35735,3.82156,3.992383,1.004271,0.2152986,0.139744,-53.73653,-19.3671,19.05862
84.821333885,-28.0966,3.82156,3.93108,0.9995492,0.1933336,0.1329171,-53.73653,-19.3671,19.05862
84.831193447,-28.22083,3.762051,4.789322,0.9948635,0.178214,0.1347731,-53.73653,-19.3671,19.05862
84.841052532,-27.22697,4.238123,5.83147299999998,0.9892383,0.1751673,0.114222,-54.86091,-20.47641,17.79546
84.850912094,-25.92254,4.357141,7.18013899999999,0.9784067,0.1794463,0.1129749,-54.86091,-20.47641,17.79546
84.860771179,-25.48773,3.82156,7.60926000000002,0.9748558,0.1813328,0.1053742,-54.86091,-20.47641,17.79546
84.870630264,-25.92254,3.345489,7.42535099999997,0.9698146,0.1895467,0.1016818,-54.86091,-20.47641,17.79546
84.880489826,-26.73005,2.750399,6.93492700000001,0.9796116,0.1954959,0.107822,-54.86091,-20.47641,17.79546
84.890348911,-27.7239,2.512363,5.77016999999999,0.9820628,0.1862427,0.1000417,-54.49722,-18.63999,17.77467
84.90020752,-28.22083,2.69089,5.279747,0.9900616,0.1717142,0.09980512,-54.49722,-18.63999,17.77467
84.910067558,-28.15871,2.928926,5.341049,0.9945486,0.1678715,0.1025839,-54.49722,-18.63999,17.77467
84.919926167,-27.78602,3.702542,5.95407899999997,1.002873,0.1659946,0.1014911,-54.49722,-18.63999,17.77467
84.929785252,-27.59967,4.654685,7.30274499999998,0.9980026,0.1620515,0.09961039,-54.49722,-18.63999,17.77467
84.939644814,-27.16486,5.96388199999997,8.83531999999998,1.003743,0.1586488,0.08704068,-55.25864,-18.28638,16.1104
84.949503899,-25.92254,6.67798900000002,9.93877400000001,0.9968405,0.1478319,0.07363019,-55.25864,-18.28638,16.1104
84.961828709,-22.07135,7.98718600000001,10.73571,0.9968389,0.1380669,0.06492221,-55.25864,-18.28638,16.1104
84.971687794,-17.10208,8.58227499999998,10.5518,1.004647,0.1181136,0.04595374,-55.25864,-18.28638,16.1104
84.981546879,-10.82837,8.46325700000001,9.87747100000001,1.003474,0.1009615,0.01659454,-55.25864,-18.28638,16.1104
84.991406441,-3.809272,7.21356999999998,8.40619900000001,1.021774,0.08834964,-0.01587907,-54.51118,-18.29501,16.10654
85.001265526,3.644638,4.892721,6.26059400000001,1.039993,0.0616914,-0.0307397,-54.51118,-18.29501,16.10654
85.011124134,11.96817,2.571872,4.114989,1.049345,0.04079646,-0.04494612,-54.51118,-18.29501,16.10654
85.020983696,20.91286,-2.129333,2.09199,1.065881,0.0306634,-0.06108089,-54.51118,-18.29501,16.10654
85.030842781,28.61523,-8.31826200000003,1.662869,1.110766,0.05690376,-0.04712318,-54.51118,-18.29501,16.10654
85.040701866,33.33605,-14.68572,3.93108,1.167453,0.103771,-0.01063722,-54.5124,-18.66939,15.66221
85.050561428,34.26778,-20.27956,8.89662299999997,1.187604,0.15231,0.03884276,-54.5124,-18.66939,15.66221
85.060420513,29.91967,-23.67157,15.02692,1.158824,0.2121298,0.09774091,-54.5124,-18.66939,15.66221
85.070280075,20.2917,-25.27831,20.29898,1.106722,0.2742279,0.1704083,-54.5124,-18.66939,15.66221
85.08013916,6.129274,-24.86175,24.52889,1.038751,0.3341733,0.2255533,-54.5124,-18.66939,15.66221
85.089998245,-10.89049,-22.65992,27.41013,0.9693363,0.3794657,0.2695736,-54.88496,-17.17467,16.92934
85.099857807,-28.96622,-18.37527,27.77795,0.9056594,0.3979198,0.2802209,-54.88496,-17.17467,16.92934
85.109716892,-47.04195,-13.49554,26.24537,0.8385519,0.3811894,0.2594722,-54.88496,-17.17467,16.92934
85.119576454,-63.0678500000002,-8.79433299999997,23.73195,0.7878416,0.344522,0.2038192,-54.88496,-17.17467,16.92934
85.129435539,-75.3046900000001,-4.5692,19.99247,0.7523161,0.3016477,0.1440637,-54.88496,-17.17467,16.92934
85.141759396,-83.3797600000002,0.01298836,16.86601,0.7301651,0.1941388,0.07542577,-55.25471,-16.79062,17.75968
85.151618481,-84.6841900000002,3.404998,14.04607,0.7097411,0.1334515,0.03111836,-55.25471,-16.79062,17.75968
85.161478043,-80.4603100000001,6.20191800000002,11.10353,0.7124088,0.09434309,-0.02292006,-55.25471,-16.79062,17.75968
85.171337128,-72.5094800000001,8.28473000000001,9.01922900000002,0.7172008,0.05871737,-0.06162497,-55.25471,-16.79062,17.75968
85.18119669,-62.2603499999999,10.54607,8.09968399999998,0.7238553,0.03870537,-0.09351586,-55.25471,-16.79062,17.75968
85.191055775,-50.33409,13.52152,8.03838099999998,0.7478445,0.03306435,-0.09725977,-54.88295,-17.54281,16.93311
85.20091486,-37.53821,16.85402,8.77401600000001,0.7683414,0.03372058,-0.1004216,-54.88295,-17.54281,16.93311
85.210774422,-24.74234,20.48406,9.93877400000001,0.7892226,0.03825702,-0.1078689,-54.88295,-17.54281,16.93311
85.220633507,-11.44953,24.47116,11.59396,0.8099961,0.05350376,-0.1137867,-54.88295,-17.54281,16.93311
85.230493069,1.781161,28.99384,13.31044,0.8372999,0.06641442,-0.1092749,-54.88295,-17.54281,16.93311
85.240352154,14.8255,32.7429,14.72041,0.8673734,0.07783917,-0.1182327,-54.89095,-17.18625,16.09716
85.250211239,28.18042,36.0754,15.94647,0.8985588,0.08735778,-0.119076,-54.89095,-17.18625,16.09716
85.260070801,42.5292,39.16987,16.74341,0.9414561,0.08818416,-0.1297436,-54.89095,-17.18625,16.09716
85.269929886,58.4929900000001,41.78826,16.6208,0.9892951,0.08809157,-0.1376142,-54.89095,-17.18625,16.09716
85.279789448,75.2021699999998,43.03795,15.33344,1.046764,0.09097112,-0.1542226,-54.89095,-17.18625,16.09716
85.289648533,93.2157899999997,42.97844,13.06523,1.116,0.1003092,-0.1632769,-54.53365,-16.47832,14.35931
85.299507618,111.4157,41.49072,9.38704699999999,1.173335,0.1138916,-0.1802722,-54.53365,-16.47832,14.35931
85.311831474,132.97,37.26558,2.766323,1.21122,0.1375868,-0.1796538,-54.53365,-16.47832,14.35931
85.321691036,149.1822,32.50487,-5.08046,1.203776,0.1405562,-0.1488539,-54.53365,-16.47832,14.35931
85.331550121,163.4068,27.03004,-13.90809,1.172663,0.1491227,-0.1267742,-54.53365,-16.47832,14.35931
85.341409683,175.5194,21.19817,-26.72042,1.128093,0.1551952,-0.08918937,-56.41751,-15.37012,13.07738
85.351268768,183.8429,15.90187,-37.93887,1.055754,0.1683767,-0.03677277,-56.41751,-15.37012,13.07738
85.361127853,186.8866,8.64178400000002,-49.21862,0.9925748,0.1933197,0.01609174,-56.41751,-15.37012,13.07738
85.370987415,183.0354,0.9056224,-57.9236499999998,0.9607959,0.2190545,0.07618258,-56.41751,-15.37012,13.07738
85.3808465,172.662,-6.94955700000003,-62.9504900000003,0.9282445,0.2598392,0.1287443,-56.41751,-15.37012,13.07738
85.390706062,154.959,-14.80474,-64.23785,0.916159,0.3022477,0.1767152,-56.4171,-14.2532,13.96227
85.400565147,130.5475,-22.42188,-61.9083400000002,0.9153689,0.3496508,0.2322344,-56.4171,-14.2532,13.96227
85.410424233,100.3591,-29.26541,-57.8010399999998,0.9333582,0.4044609,0.2722141,-56.4171,-14.2532,13.96227
85.420283795,65.2015100000001,-34.62121,-51.97725,0.9385754,0.4523081,0.3022539,-56.4171,-14.2532,13.96227
85.43014288,27.18657,-39.91751,-46.15347,0.948428,0.4903609,0.3048307,-56.4171,-14.2532,13.96227
85.440002442,-12.00857,-44.49969,-40.02317,0.948432,0.5141499,0.2901762,-55.28114,-15.35367,15.18405
85.449861527,-49.52658,-48.72483,-34.01548,0.9539206,0.5121402,0.2603706,-55.28114,-15.35367,15.18405
85.459720612,-82.3237800000001,-51.99782,-30.82772,0.96057,0.4843151,0.2212259,-55.28114,-15.35367,15.18405
85.469580174,-106.6111,-54.37818,-29.54036,0.974749,0.4677037,0.1700885,-55.28114,-15.35367,15.18405
85.48190403,-128.2274,-54.37818,-30.70511,1.00585,0.4469283,0.1364051,-55.28114,-15.35367,15.18405
85.491763115,-142.2656,-52.89045,-32.60551,1.013066,0.4186413,0.1025196,-54.50847,-17.17364,17.31149
85.501622677,-152.8253,-50.33157,-35.60935,1.019885,0.3952585,0.07970268,-54.50847,-17.17364,17.31149
85.511481762,-159.4096,-47.23711,-38.36799,1.021989,0.3508894,0.05150466,-54.50847,-17.17364,17.31149
85.521340847,-162.0806,-44.61871,-40.32968,1.027162,0.3046314,0.03139336,-54.50847,-17.17364,17.31149
85.531200409,-158.9748,-41.04818,-41.37183,1.050535,0.2536798,0.01433746,-54.50847,-17.17364,17.31149
85.541059494,-152.1421,-36.70403,-42.90441,1.054501,0.198695,0.005670507,-54.47592,-21.94708,18.2567
85.550919056,-146.179,-31.82429,-43.21092,1.047275,0.1603623,0.05193235,-54.47592,-21.94708,18.2567
85.560778141,-141.9551,-26.76603,-40.51359,1.076699,0.0986908,0.1463532,-54.47592,-21.94708,18.2567
85.570637226,-132.2029,-20.22005,-33.09593,1.123539,-0.03025577,0.1671198,-54.47592,-21.94708,18.2567
85.580496788,-115.3695,-11.71027,-19.36406,1.086908,-0.1776032,0.1496263,-54.47592,-21.94708,18.2567
85.590355873,-87.04459,-4.5692,-7.83909500000001,1.044388,-0.3035259,0.1496488,-52.60168,-24.19002,17.37347
85.600215435,-56.42145,2.452855,-3.486583,1.03261,-0.3469576,0.1446582,-52.60168,-24.19002,17.37347
85.61007452,-23.87271,6.91602500000001,-0.2988266,1.021343,-0.3253618,0.09085147,-52.60168,-24.19002,17.37347
85.619933605,8.86237499999997,5.606828,3.440656,1.009487,-0.2152118,0.03588371,-52.60168,-24.19002,17.37347
85.629793167,36.62819,1.738747,5.095838,1.027295,-0.07116037,-0.002448747,-52.60168,-24.19002,17.37347
85.639652252,56.62952,-2.90295,6.56710899999998,1.047739,0.02294979,0.0009293128,-51.4735,-27.10372,16.18095
85.649511337,69.2390399999997,-6.53299399999998,8.22229000000003,1.03511,0.102797,0.04203591,-51.4735,-27.10372,16.18095
85.66183567,75.6991,-8.13973500000002,10.12268,1.007917,0.1843635,0.05700864,-51.4735,-27.10372,16.18095
85.671694755,73.3387000000003,-7.48513700000001,10.4292,0.9982306,0.2515447,0.08742403,-51.4735,-27.10372,16.18095
85.681553841,66.7544100000001,-5.402325,11.47135,0.9935104,0.3047671,0.146882,-51.4735,-27.10372,16.18095
85.691413402,55.44931,-1.236699,13.73956,0.9830976,0.3358827,0.164065,-52.22221,-26.35345,16.56136
85.701272488,41.03842,2.036292,14.84301,0.9530513,0.3506948,0.1622222,-52.22221,-26.35345,16.56136
85.711132049,25.7579,3.82156,16.00777,0.9384766,0.3247176,0.1468763,-52.22221,-26.35345,16.56136
85.720991135,13.21049,5.606828,17.90816,0.9170445,0.291842,0.1248612,-52.22221,-26.35345,16.56136
85.73085022,3.45829,6.14240899999998,20.11507,0.9121869,0.2488445,0.08958597,-52.22221,-26.35345,16.56136
85.740709782,-2.504838,6.97553399999999,22.26068,0.9077616,0.2243877,0.06644107,-52.96449,-25.5907,17.83796
85.750568867,-5.67275,7.27307799999999,23.42543,0.9001532,0.2164339,0.03964722,-52.96449,-25.5907,17.83796
85.760428429,-6.54237199999997,6.97553399999999,23.54804,0.9005568,0.2115316,0.02905771,-52.96449,-25.5907,17.83796
85.770287514,-5.921213,6.91602500000001,23.30283,0.8974687,0.2046268,0.01179226,-52.96449,-25.5907,17.83796
85.780146599,-4.057736,7.03504299999997,22.8124,0.8994949,0.2201521,-0.005356769,-52.96449,-25.5907,17.83796
85.790006161,-2.504838,6.97553399999999,22.19937,0.9058301,0.2397305,0.01005255,-52.59155,-24.85249,18.27658
85.799865246,-1.759447,8.522766,22.01546,0.938566,0.2483093,0.01445038,-52.59155,-24.85249,18.27658
85.809724331,0.4146104,11.3792,22.38328,0.9616753,0.2343879,0.01064913,-52.59155,-24.85249,18.27658
85.819583893,4.886956,14.83071,22.6898,0.9882247,0.2097603,-0.001437895,-52.59155,-24.85249,18.27658
85.831907749,13.39684,19.4129,22.38328,0.9928269,0.1742157,-0.01809625,-52.59155,-24.85249,18.27658
85.841766834,21.72037,21.79326,21.46374,0.9908779,0.1659006,-0.02484743,-52.98017,-23.8229,16.98755
85.851626396,31.34834,22.80491,20.7281,0.9867378,0.1531074,-0.05268995,-52.98017,-23.8229,16.98755
85.861485481,40.85207,22.80491,19.74725,0.9857928,0.1492025,-0.05366784,-52.98017,-23.8229,16.98755
85.871345043,50.97697,21.73375,18.33729,0.9881646,0.1565264,-0.05268144,-52.98017,-23.8229,16.98755
85.881204128,59.4868500000001,20.60308,16.98862,0.9941026,0.1678269,-0.03781552,-52.98017,-23.8229,16.98755
85.891063213,65.6363199999997,19.29388,15.45604,1.002946,0.1859802,-0.01909958,-54.11261,-22.3436,16.53017
85.900922775,69.5496200000001,18.1037,14.10738,1.002027,0.2079586,0.004579776,-54.11261,-22.3436,16.53017
85.91078186,70.8540599999998,17.09205,12.94262,0.9985826,0.2289163,0.02157772,-54.11261,-22.3436,16.53017
85.920641422,69.9223199999999,16.13991,12.20698,0.9912922,0.2508351,0.04438898,-54.11261,-22.3436,16.53017
85.930500507,66.94076,14.59268,11.53265,0.9878985,0.2664367,0.0603826,-54.11261,-22.3436,16.53017
85.940359592,62.4063000000002,13.16446,11.28744,0.9751917,0.2770685,0.07071662,-53.74093,-20.86374,17.34533
85.950219154,56.94009,11.4387,10.85832,0.9683431,0.2892136,0.08145911,-53.74093,-20.86374,17.34533
85.960078239,50.41792,9.41540100000002,10.5518,0.9634365,0.2960012,0.08637831,-53.74093,-20.86374,17.34533
85.969937801,42.83978,7.33258699999997,10.79702,0.9496979,0.3056326,0.0919266,-53.74093,-20.86374,17.34533
85.979796886,34.3299,5.190266,10.73571,0.9383919,0.3152819,0.09648198,-53.74093,-20.86374,17.34533
85.989655972,25.26097,3.166962,11.28744,0.9355088,0.3191766,0.1037439,-54.49115,-20.86046,16.96511
85.999515533,15.75724,1.143658,11.53265,0.9403578,0.3260429,0.106608,-54.49115,-20.86046,16.96511
86.01183939,4.017333,-0.998663500000001,12.4522,0.9422852,0.328493,0.1066012,-54.49115,-20.86046,16.96511
86.021698475,-4.741011,-2.605405,13.12653,0.9490117,0.3260776,0.09546332,-54.49115,-20.86046,16.96511
86.031558037,-12.56762,-3.676566,13.49435,0.9495549,0.3143799,0.08912727,-54.49115,-20.86046,16.96511
86.041417122,-19.08979,-4.5692,13.92347,0.9598986,0.2978913,0.0797359,-54.13148,-18.28774,16.93679
86.051276207,-23.56213,-4.50969,13.73956,0.9591674,0.271589,0.07473236,-54.13148,-18.28774,16.93679
86.061135769,-26.04677,-4.5692,13.18783,0.9597799,0.2540523,0.06834603,-54.13148,-18.28774,16.93679
86.070994854,-25.86042,-4.033619,12.4522,0.9698565,0.2293229,0.06799372,-54.13148,-18.28774,16.93679
86.080854416,-23.06521,-2.664914,11.47135,0.9793747,0.2104281,0.0676986,-54.13148,-18.28774,16.93679
86.090713501,-16.7915,-0.2250474,9.93877400000001,0.9896505,0.1623207,0.06139575,-55.25668,-17.5385,16.93504
86.100572586,-7.47411100000001,2.214819,8.22229000000003,0.9942573,0.1297067,0.04763727,-55.25668,-17.5385,16.93504
86.110432148,3.955218,4.357141,6.07668500000002,0.9958379,0.1097346,0.0383414,-55.25668,-17.5385,16.93504
86.120291233,14.8255,5.90437299999999,3.93108,0.9911454,0.1242598,0.02990527,-55.25668,-17.5385,16.93504
86.130150795,23.52173,6.38044500000002,1.908081,0.979504,0.1533425,0.02696224,-55.25668,-17.5385,16.93504
86.14000988,29.17428,6.02339100000001,0.3142034,0.9807272,0.1816029,0.03389209,-54.88818,-17.1809,16.48124
86.149868965,31.9695,6.02339100000001,-1.402281,0.9938548,0.2036672,0.04730878,-54.88818,-17.1809,16.48124
86.159728527,33.02547,6.49946299999999,-3.118764,0.9948419,0.2139311,0.05696533,-54.88818,-17.1809,16.48124
86.169587612,32.96335,7.451605,-5.264369,1.001733,0.2218156,0.06699684,-54.88818,-17.1809,16.48124
86.179446697,32.28008,8.28473000000001,-7.47127699999998,1.005768,0.224814,0.07846543,-54.88818,-17.1809,16.48124
86.19177103,31.16199,9.89147200000003,-9.49427599999999,1.004112,0.217071,0.09375805,-55.25467,-17.90664,16.93881
86.201630116,30.60295,10.54607,-11.51728,1.004163,0.2078093,0.08936637,-55.25467,-17.90664,16.93881
86.211489201,30.23025,10.66509,-13.11115,0.9940559,0.2082537,0.1019734,-55.25467,-17.90664,16.93881
86.221348763,29.79544,10.96263,-14.64373,0.9951528,0.2136667,0.115421,-55.25467,-17.90664,16.93881
86.231207848,28.73947,11.20067,-16.48282,0.9932811,0.2180677,0.125548,-55.25467,-17.90664,16.93881
86.24106741,28.8637,12.80741,-18.62842,1.00291,0.2079926,0.1411393,-54.89098,-16.07022,16.91803
86.250926495,31.28622,14.41415,-21.75488,0.9989247,0.1904964,0.1563828,-54.89098,-16.07022,16.91803
86.26078558,36.75242,17.44911,-25.18784,1.017304,0.1619309,0.151567,-54.89098,-16.07022,16.91803
86.270645142,44.57903,21.01964,-28.4369,1.014013,0.1380157,0.1403905,-54.89098,-16.07022,16.91803
86.280504227,54.08276,23.34049,-31.50205,1.013634,0.1413252,0.1155055,-54.89098,-16.07022,16.91803
86.290363789,61.5366700000001,24.35214,-33.52505,0.9953723,0.1819945,0.1036498,-54.88818,-17.1809,16.48124
86.300222874,65.2636300000002,24.29263,-34.87371,0.9796183,0.2427205,0.1139708,-54.88818,-17.1809,16.48124
86.310081959,65.0151600000002,24.47116,-36.83541,0.9989924,0.3071495,0.120468,-54.88818,-17.1809,16.48124
86.319941521,63.02745,26.13741,-39.10362,1.018628,0.3249183,0.1409437,-54.88818,-17.1809,16.48124
86.329800606,62.0335999999998,30.95763,-43.82396,1.055835,0.30635,0.1622999,-54.88818,-17.1809,16.48124
86.339659691,66.4438299999998,37.44411,-50.19947,1.080674,0.2335761,0.1618109,-55.26387,-17.92446,15.65854
86.349519253,75.3885200000003,43.99009,-56.57498,1.070636,0.1632476,0.1172741,-55.26387,-17.92446,15.65854
86.361843109,91.7250099999998,47.14407,-64.9735000000002,1.052294,0.1205425,0.06206714,-55.26387,-17.92446,15.65854
86.371702194,105.639,46.25143,-68.89688,1.031428,0.09048729,0.01227415,-55.26387,-17.92446,15.65854
86.381561756,118.3106,44.64469,-70.9811899999998,0.9916778,0.1046122,-0.02010488,-55.26387,-17.92446,15.65854
86.391420841,132.0382,45.47781,-74.6593599999998,0.9775872,0.1406427,0.01873598,-54.88207,-20.5174,14.85082
86.401280403,145.9522,48.21523,-80.0540300000002,1.011901,0.1933415,0.105906,-54.88207,-20.5174,14.85082
86.411139488,158.4996,55.71335,-84.9582699999998,1.044971,0.2249621,0.155059,-54.88207,-20.5174,14.85082
86.420998573,172.4757,64.4611699999998,-93.4180799999998,1.029787,0.2837628,0.1696685,-54.88207,-20.5174,14.85082
86.430858135,185.52,79.4574100000001,-104.8817,1.02877,0.2379323,0.01882757,-54.88207,-20.5174,14.85082
86.44071722,198.6265,78.5052700000001,-103.717,1.014099,0.3696249,0.1351559,-53.38636,-21.27719,14.40254
86.450576782,209.621,80.2905400000001,-111.3799,0.9371648,0.489935,0.08838943,-53.38636,-21.27719,14.40254
86.460435867,216.3295,77.6126399999999,-121.6788,0.9015692,0.5909324,0.1141883,-53.38636,-21.27719,14.40254
86.470294953,215.2114,76.7795099999999,-132.5907,0.8962603,0.6892567,0.1342617,-53.38636,-21.27719,14.40254
86.480154514,208.8135,75.7083500000001,-144.0544,0.8970483,0.7826803,0.1307261,-53.38636,-21.27719,14.40254
86.4900136,199.4961,73.8635799999998,-154.905,0.9041893,0.8727408,0.1237172,-53.00134,-23.86389,14.04292
86.499872685,186.9487,70.3525500000002,-167.2269,0.9061534,0.9556236,0.1612871,-53.00134,-23.86389,14.04292
86.509732247,169.7426,67.4961200000003,-176.0545,0.9310669,1.018328,0.2136939,-53.00134,-23.86389,14.04292
86.519591332,148.7474,67.0200500000003,-184.8821,0.9439266,1.070097,0.2335947,-53.00134,-23.86389,14.04292
86.529450894,127.6901,67.3175999999997,-190.522,0.9418203,1.066267,0.2551564,-53.00134,-23.86389,14.04292
86.54177475,103.8376,68.9838400000003,-195.5489,0.9180689,1.052446,0.2592119,-51.48191,-27.86407,14.46012
86.551633835,92.71886,71.6617399999999,-201.25,0.876223,1.074596,0.2954559,-51.48191,-27.86407,14.46012
86.561493397,81.5379899999999,68.7458099999998,-204.7443,0.8595991,1.019988,0.1763906,-51.48191,-27.86407,14.46012
86.571352482,76.1339100000002,64.4016599999999,-211.6103,0.797673,1.035336,0.1333164,-51.48191,-27.86407,14.46012
86.581211567,73.58716,59.5219199999998,-217.6792,0.7372962,1.048768,0.09451667,-51.48191,-27.86407,14.46012
86.591071129,70.8540599999998,55.65384,-221.6026,0.6995267,1.075257,0.1106129,-48.08823,-33.42513,14.4993
86.600930214,66.6301800000003,51.42871,-228.1008,0.6485305,1.121507,0.1069381,-48.08823,-33.42513,14.4993
86.610789776,58.3687600000003,47.44161,-232.2081,0.6156874,1.106551,0.08907036,-48.08823,-33.42513,14.4993
86.620648861,46.56674,45.47781,-233.2502,0.5364182,1.115472,0.06008586,-48.08823,-33.42513,14.4993
86.630507946,36.75242,43.09746,-235.0893,0.4801508,1.087142,0.03477196,-48.08823,-33.42513,14.4993
86.640367508,28.30466,38.45576,-237.2962,0.4413462,1.117731,-0.02144157,-42.44289,-41.22632,14.16542
86.650226593,21.72037,35.24228,-244.1621,0.4161439,1.178195,-0.05842884,-42.44289,-41.22632,14.16542
86.660086155,9.66988199999998,34.34964,-251.0894,0.4394533,1.240847,-0.01606276,-42.44289,-41.22632,14.16542
86.66994524,-5.36217,35.30179,-255.871,0.4334495,1.271869,-0.03440418,-42.44289,-41.22632,14.16542
86.679804325,-18.65498,36.13491,-257.3423,0.397642,1.241878,-0.03175093,-42.44289,-41.22632,14.16542
86.689663887,-31.26451,35.24228,-259.4266,0.3297403,1.153692,-0.0300898,-33.86682,-48.62112,14.58018
86.699522972,-41.14093,37.20607,-260.4074,0.3060785,1.006041,-0.02956105,-33.86682,-48.62112,14.58018
86.709382057,-40.51978,38.39625,-255.7484,0.2118126,0.8922486,-0.04642904,-33.86682,-48.62112,14.58018
86.72170639,-35.67474,38.7533,-248.6373,0.1591656,0.8271697,-0.01795515,-33.86682,-48.62112,14.58018
86.731565475,-35.05358,42.62139,-243.4878,0.09969608,0.8548834,-0.01351928,-23.76271,-55.03626,11.71151
86.74142456,-38.34572,47.91768,-244.1621,0.06996333,0.9256606,-0.01489419,-23.76271,-55.03626,11.71151
86.751284122,-41.7621,51.72625,-248.1468,0.08088648,0.9521661,0.02015537,-23.76271,-55.03626,11.71151
86.761143207,-48.96754,58.0937100000003,-251.4572,0.1127406,0.9351581,0.08089537,-23.76271,-55.03626,11.71151
86.771002769,-53.37777,65.2942900000001,-252.1315,0.1313107,0.8872532,0.1089784,-23.76271,-55.03626,11.71151
86.780861855,-54.18528,70.4120600000001,-249.3729,0.121518,0.7941831,0.09826931,-12.22852,-58.86864,10.40938
86.79072094,-54.18528,73.8040699999999,-242.3844,0.08707563,0.7096301,0.08127464,-12.22852,-58.86864,10.40938
86.800580502,-51.63853,74.5776799999997,-234.4763,0.03856494,0.6404733,0.05071363,-12.22852,-58.86864,10.40938
86.810439587,-49.9614,72.3163499999999,-223.1965,0.005383979,0.6221382,0.04096861,-12.22852,-58.86864,10.40938
86.820299149,-51.32795,69.45992,-213.388,-0.04348702,0.6420889,0.02649914,-12.22852,-58.86864,10.40938
86.830158234,-55.73817,66.4844699999998,-204.4991,-0.08587973,0.6640828,0.02249696,-12.22852,-58.86864,10.40938
86.840017319,-60.5832200000001,62.3783499999997,-196.8975,-0.1140237,0.6862201,0.0230849,-0.2815304,-61.26287,6.977462
86.849876881,-67.9129000000002,59.5219199999998,-186.6599,-0.1304181,0.6602646,0.01782832,-0.2815304,-61.26287,6.977462
86.859735966,-73.8138999999999,58.3912500000001,-176.7289,-0.1720596,0.6436324,-0.03682649,-0.2815304,-61.26287,6.977462
86.869595051,-71.8883099999997,52.38085,-168.4529,-0.2305557,0.5992311,-0.06032746,-0.2815304,-61.26287,6.977462
86.879454613,-68.4098200000002,45.4183,-156.4376,-0.2837379,0.589034,-0.05869714,-0.2815304,-61.26287,6.977462
86.891778469,-65.9872999999998,37.80116,-140.4375,-0.3143033,0.5712572,-0.05553634,10.10541,-61.41241,4.811243
86.901637554,-63.2542000000002,31.96929,-128.0543,-0.3331505,0.5832245,-0.06379231,10.10541,-61.41241,4.811243
86.911497116,-60.3347500000001,25.66134,-117.8167,-0.347911,0.5685588,-0.04693373,10.10541,-61.41241,4.811243
86.921356201,-59.4030199999999,19.71045,-107.5791,-0.3645749,0.5587732,-0.02186044,10.10541,-61.41241,4.811243
86.931215763,-61.3907199999998,15.12826,-95.6249899999999,-0.3648432,0.5286969,0.003766329,17.92453,-60.07144,1.810961
86.941074848,-65.0555599999999,10.78411,-82.7513600000003,-0.3850451,0.4735786,0.01652748,17.92453,-60.07144,1.810961
86.950933933,-67.8507800000001,6.79700699999999,-69.1420999999999,-0.402751,0.4131257,0.02824963,17.92453,-60.07144,1.810961
86.960793495,-68.2855899999997,1.976783,-54.73589,-0.4310089,0.3734961,0.03790192,17.92453,-60.07144,1.810961
86.97065258,-67.2917299999998,-2.248351,-40.32968,-0.4518196,0.3421272,0.0269122,17.92453,-60.07144,1.810961
86.980512142,-63.8753600000003,-6.89004799999999,-25.31045,-0.4802254,0.325402,0.04586468,23.43973,-58.33036,-0.7970972
86.990371227,-59.9620599999999,-12.12683,-12.80464,-0.5061009,0.2828465,0.04827033,23.43973,-58.33036,-0.7970972
87.000230312,-51.39006,-16.35197,1.233748,-0.5164353,0.202451,0.04486393,23.43973,-58.33036,-0.7970972
87.010089874,-38.15937,-20.63661,15.51735,-0.5298155,0.1302977,0.04061211,23.43973,-58.33036,-0.7970972
87.019948959,-17.84747,-25.2188,29.43313,-0.5394226,0.09901491,0.02610904,23.43973,-58.33036,-0.7970972
87.029808044,6.06715799999999,-30.81264,42.55197,-0.5457701,0.1359321,0.02363587,26.02865,-57.29712,-3.766565
87.039667606,26.00637,-36.16845,55.67081,-0.5409362,0.1973403,0.03750281,26.02865,-57.29712,-3.766565
87.049526691,38.42955,-41.28621,67.6862000000002,-0.534842,0.2937195,0.03104134,26.02865,-57.29712,-3.766565
87.061851501,46.62885,-47.47514,82.4602099999998,-0.5061327,0.3733773,0.05382679,26.02865,-57.29712,-3.766565
87.071710587,47.74694,-51.10519,95.1499399999998,-0.4786874,0.4068338,0.08678275,26.02865,-57.29712,-3.766565
87.081570148,44.14421,-53.24751,109.5561,-0.4414333,0.4200138,0.1395542,24.16201,-57.64368,-3.753137
87.091429234,37.31147,-52.11684,125.1884,-0.3970532,0.3976929,0.181382,24.16201,-57.64368,-3.753137
87.101288319,28.42889,-52.5334,142.5372,-0.3834821,0.373149,0.2221926,24.16201,-57.64368,-3.753137
87.111147881,19.17362,-48.72483,160.0085,-0.330001,0.3532965,0.2519316,24.16201,-57.64368,-3.753137
87.121006966,10.97432,-45.33282,178.8285,-0.313189,0.3451951,0.2578532,24.16201,-57.64368,-3.753137
87.130866528,5.13542,-43.54755,195.8095,-0.3263956,0.3566608,0.2322614,19.75155,-58.68547,-2.886787
87.140725613,2.588667,-45.8684,212.3,-0.3308197,0.3672216,0.2041408,19.75155,-58.68547,-2.886787
87.150584698,3.396174,-50.45059,225.6027,-0.3317916,0.3968614,0.1948208,19.75155,-58.68547,-2.886787
87.16044426,3.023479,-56.58001,238.1085,-0.293367,0.4371751,0.2137814,19.75155,-58.68547,-2.886787
87.170303345,0.1040308,-62.3523799999999,249.2044,-0.2430197,0.5257089,0.2166862,19.75155,-58.68547,-2.886787
87.180162907,-0.951939799999999,-65.26831,254.5377,-0.1524,0.6181961,0.2703247,11.53759,-61.17913,-3.650078
87.190021992,-0.5171283,-64.4947000000002,262.1393,-0.05727953,0.689133,0.2762764,11.53759,-61.17913,-3.650078
87.199881077,-1.697331,-60.98367,273.2351,-0.02403245,0.7677567,0.2721533,11.53759,-61.17913,-3.650078
87.209740639,-9.27547199999997,-59.2579099999998,282.0628,-0.01464572,0.8926638,0.2093402,11.53759,-61.17913,-3.650078
87.219599724,-22.07135,-58.6033100000001,288.99,0.05224903,0.9920616,0.2154552,11.53759,-61.17913,-3.650078
87.229458809,-33.68703,-61.28122,298.1855,0.08643366,1.018089,0.1979365,-1.093699,-61.75157,-2.296906
87.241783142,-44.55731,-76.5154999999999,299.7794,0.11564,1.045866,0.1397715,-1.093699,-61.75157,-2.296906
87.251642227,-44.43308,-97.10559,292.7908,0.1513594,0.9486748,0.09052221,-1.093699,-61.75157,-2.296906
87.261501312,-46.04809,-118.2313,283.3502,0.2123831,0.8834053,0.05939128,-1.093699,-61.75157,-2.296906
87.271360874,-46.60714,-129.8355,271.3347,0.3348477,0.8271959,0.09311143,-1.093699,-61.75157,-2.296906
87.281219959,-48.96754,-132.2754,270.1087,0.488299,0.7911893,0.1208101,-16.06211,-59.756,-3.518771
87.291079521,-61.3907199999998,-132.6919,272.4995,0.615958,0.7967086,0.12335,-16.06211,-59.756,-3.518771
87.300938606,-74.0623699999998,-136.0244,274.9516,0.7850009,0.7735169,0.1576433,-16.06211,-59.756,-3.518771
87.310797691,-91.51694,-136.5005,275.0129,0.9242629,0.7372487,0.1491228,-16.06211,-59.756,-3.518771
87.320657253,-102.5115,-134.8343,274.3386,1.017331,0.6547551,0.1207442,-16.06211,-59.756,-3.518771
87.330516338,-109.2821,-139.0594,278.262,1.015772,0.5339063,0.07949379,-29.86117,-52.96502,-3.131412
87.3403759,-110.2138,-148.8189,285.3731,0.9673229,0.4579318,0.04743677,-29.86117,-52.96502,-3.131412
87.350234985,-101.0828,-167.3261,283.1049,0.7301069,0.3855373,-0.01161001,-29.86117,-52.96502,-3.131412
87.360094071,-84.0630300000001,-184.8813,280.898,1.052872,0.3578804,0.02620514,-29.86117,-52.96502,-3.131412
87.369953632,-71.5156200000002,-189.999,283.3502,1.237304,0.4161505,0.07678022,-29.86117,-52.96502,-3.131412
87.379812718,-65.8009600000001,-191.6058,280.9593,1.420871,0.5231317,0.1426339,-40.29028,-45.08438,-1.044374
87.389671803,-66.6084599999999,-187.6782,277.3424,1.572994,0.5875912,0.2330161,-40.29028,-45.08438,-1.044374
87.399531365,-74.68353,-176.1335,274.216,1.649695,0.6834469,0.3094038,-40.29028,-45.08438,-1.044374
87.40939045,-84.7463100000002,-160.2446,266.4918,1.617821,0.7363601,0.3505573,-40.29028,-45.08438,-1.044374
87.421714306,-96.4240999999998,-142.3324,249.3883,1.5243,0.7433195,0.3509906,-40.29028,-45.08438,-1.044374
87.431573868,-105.6794,-130.9067,229.6487,1.508471,0.7076256,0.3427685,-48.90517,-33.55103,4.837076
87.441432953,-113.6923,-121.8018,209.2348,1.495509,0.6572916,0.3166518,-48.90517,-33.55103,4.837076
87.451292515,-120.0903,-112.5184,188.637,1.444008,0.5592875,0.2566588,-48.90517,-33.55103,4.837076
87.4611516,-122.6991,-108.0552,169.4492,1.355351,0.4751192,0.2107297,-48.90517,-33.55103,4.837076
87.471010685,-121.7674,-107.4006,148.7288,1.270774,0.3426988,0.1346248,-48.90517,-33.55103,4.837076
87.480870247,-121.2705,-110.1976,127.8244,1.22061,0.2112533,0.1073953,-55.2901,-22.06763,8.978563
87.490729332,-118.351,-109.3049,108.0236,1.221216,0.1471153,0.1312845,-55.2901,-22.06763,8.978563
87.500588894,-110.5865,-105.3178,86.1383999999998,1.22685,0.1307707,0.1713191,-55.2901,-22.06763,8.978563
87.510447979,-99.0950900000001,-100.7951,62.9045599999998,1.232722,0.08680002,0.2403482,-55.2901,-22.06763,8.978563
87.520307064,-86.2370900000002,-95.61787,44.75888,1.251927,-0.01449355,0.3039116,-55.2901,-22.06763,8.978563
87.530166626,-67.4159699999999,-85.7988999999998,32.37567,1.244357,-0.06938913,0.3462049,-56.42354,-14.26568,13.06607
87.540025711,-40.08496,-75.7418799999999,23.30283,1.209915,-0.1106249,0.3314926,-56.42354,-14.26568,13.06607
87.549884796,-12.00857,-70.1480500000001,18.15338,1.187912,-0.1113052,0.3318005,-56.42354,-14.26568,13.06607
87.559744358,12.52721,-65.9824200000002,17.35644,1.170209,-0.03692392,0.3547237,-56.42354,-14.26568,13.06607
87.569603443,30.66506,-61.5192499999999,17.90816,1.15203,0.08467955,0.3842818,-56.42354,-14.26568,13.06607
87.579463005,41.53535,-57.05608,17.23383,1.133663,0.1946473,0.4257244,-56.01623,-14.20495,17.73715
87.591786861,45.88346,-50.21255,21.15722,1.120925,0.3032162,0.3405663,-56.01623,-14.20495,17.73715
87.601645946,54.02065,-44.02362,18.45989,1.090544,0.3809139,0.3694486,-56.01623,-14.20495,17.73715
87.611505508,63.0895700000001,-35.51385,15.70126,1.066841,0.4211657,0.3888149,-56.01623,-14.20495,17.73715
87.621364593,73.8356200000002,-26.46849,11.83917,1.067748,0.4986467,0.4158118,-56.01623,-14.20495,17.73715
87.631223679,79.9851000000002,-17.60166,3.808474,1.024459,0.5664136,0.4222719,-55.25563,-12.70001,20.66284
87.64108324,77.3141200000001,-11.8888,-0.789250600000002,0.9837022,0.5754214,0.4550352,-55.25563,-12.70001,20.66284
87.650942326,68.43154,-4.866744,-0.1149176,0.9700527,0.5798429,0.4983951,-55.25563,-12.70001,20.66284
87.660801887,57.06433,2.274328,1.846778,0.9678611,0.5798938,0.5171155,-55.25563,-12.70001,20.66284
87.670660973,44.76537,7.68964099999998,6.50580599999999,0.9560593,0.5757313,0.4731622,-55.25563,-12.70001,20.66284
87.680520058,31.28622,11.4387,10.91962,0.9271973,0.5841287,0.4448924,-55.26445,-10.48489,21.08831
87.69037962,16.50263,14.23562,13.73956,0.9081637,0.6019017,0.4280625,-55.26445,-10.48489,21.08831
87.700238705,0.5388422,16.85402,16.06907,0.8879345,0.6011866,0.4149272,-55.26445,-10.48489,21.08831
87.71009779,-16.85361,19.71045,17.04992,0.8700413,0.5882562,0.3829668,-55.26445,-10.48489,21.08831
87.719957352,-32.56894,21.97178,16.00777,0.8726382,0.6012327,0.3336817,-55.26445,-10.48489,21.08831
87.729816437,-46.91772,23.22147,12.94262,0.8843797,0.6196192,0.2780824,-54.90157,-7.905936,21.50808
87.739675999,-61.08014,23.22147,8.89662299999997,0.900883,0.6220357,0.2347396,-54.90157,-7.905936,21.50808
87.749535084,-75.1804600000002,22.56688,4.421504,0.9236307,0.6181287,0.1773577,-54.90157,-7.905936,21.50808
87.761859894,-91.3927100000002,20.96013,-1.770099,0.9462711,0.5996795,0.135189,-54.90157,-7.905936,21.50808
87.771718979,-102.6978,19.94848,-7.28736799999999,0.972351,0.5750532,0.1245463,-54.90157,-7.905936,21.50808
87.781578064,-111.1456,20.36504,-14.27591,0.9989242,0.5533617,0.1167965,-55.65617,-9.399295,19.41457
87.791437626,-118.2889,21.13866,-23.71657,1.010854,0.5631489,0.1032915,-55.65617,-9.399295,19.41457
87.801296711,-126.8609,22.44786,-36.03848,1.046278,0.6325763,0.1072061,-55.65617,-9.399295,19.41457
87.811156273,-135.8056,24.7092,-48.17647,1.065569,0.6808703,0.09344193,-55.65617,-9.399295,19.41457
87.821015358,-143.5701,26.85152,-61.6018199999998,1.087545,0.6926366,0.06495526,-55.65617,-9.399295,19.41457
87.830874443,-147.5455,27.92268,-74.7819699999998,1.104315,0.6692533,0.01851575,-55.66737,-9.048966,18.13053
87.840734005,-146.5517,28.10121,-88.20733,1.110715,0.6449098,9.508803e-06,-55.66737,-9.048966,18.13053
87.85059309,-142.7626,27.32759,-102.8587,1.115839,0.6225609,-0.00264813,-55.66737,-9.048966,18.13053
87.860452652,-137.5448,28.10121,-117.6941,1.127927,0.6261817,0.02596211,-55.66737,-9.048966,18.13053
87.870311737,-130.8363,35.95639,-136.2076,1.130934,0.6701685,0.06989763,-55.66737,-9.048966,18.13053
87.880170822,-125.6807,32.0288,-145.2191,1.164257,0.6660857,0.07034663,-55.65968,-13.87052,15.61899
87.890030384,-119.6554,37.86067,-159.9318,1.170843,0.7173351,0.09608285,-55.65968,-13.87052,15.61899
87.899889469,-113.3196,44.10911,-174.0315,1.176485,0.7699155,0.08973739,-55.65968,-13.87052,15.61899
87.909748554,-108.5988,49.82197,-188.9281,1.158185,0.8149678,0.07887764,-55.65968,-13.87052,15.61899
87.919608116,-110.3381,51.13116,-199.4723,1.157728,0.8703604,0.05826686,-55.65968,-13.87052,15.61899
87.929467201,-107.4186,53.80907,-213.2041,1.166342,0.9127243,0.04556322,-54.51545,-23.13973,11.93065
87.941791058,-103.1947,55.23728,-231.7789,1.180123,1.016456,0.03522065,-54.51545,-23.13973,11.93065
87.951650619,-102.263,55.71335,-248.5147,1.208048,1.098955,0.03887329,-54.51545,-23.13973,11.93065
87.961509705,-104.1265,56.725,-265.0052,1.246167,1.176993,-0.003180954,-54.51545,-23.13973,11.93065
87.971369267,-105.0582,54.46367,-279.534,1.261777,1.197001,-0.02479856,-54.51545,-23.13973,11.93065
87.981228352,-106.9838,52.49987,-292.5915,1.228,1.207437,-0.01704109,-50.02522,-30.93165,6.928932
87.991087437,-109.6548,50.47657,-304.7908,1.186887,1.174979,-0.01097866,-50.02522,-30.93165,6.928932
88.000946999,-108.9715,47.67965,-314.4767,1.169561,1.167092,0.003098508,-50.02522,-30.93165,6.928932
88.010806084,-107.5428,43.75206,-323.9174,1.151721,1.203,0.01803179,-50.02522,-30.93165,6.928932
88.020665646,-104.6234,41.55022,-335.7488,1.15188,1.22648,0.05033405,-50.02522,-30.93165,6.928932
88.030524731,-102.0766,41.31219,-346.0477,1.125475,1.251014,0.03702065,-42.52797,-42.50717,1.502001
88.040383816,-100.4616,39.58643,-354.998,1.049571,1.295101,0.03464094,-42.52797,-42.50717,1.502001
88.050243378,-99.4677800000003,36.37295,-366.339,1.002283,1.327927,0.0758447,-42.52797,-42.50717,1.502001
88.060102463,-100.8343,31.67174,-375.1053,0.9754186,1.321488,0.109238,-42.52797,-42.50717,1.502001
88.069961548,-106.8596,29.70795,-381.4809,0.9155737,1.364365,0.1353712,-42.52797,-42.50717,1.502001
88.07982111,-115.68,23.28098,-388.8372,0.8521557,1.368735,0.1526047,-29.12045,-53.35872,-4.347767
88.089680195,-128.0411,18.16321,-389.5728,0.795686,1.242754,0.1700767,-29.12045,-53.35872,-4.347767
88.099539757,-133.5694,17.80616,-386.3238,0.7556194,1.083791,0.1774526,-29.12045,-53.35872,-4.347767
88.109398842,-128.3517,16.735,-383.4426,0.6867979,0.9352084,0.1661579,-29.12045,-53.35872,-4.347767
88.121722698,-112.8848,13.58103,-381.2357,0.5584275,0.7408652,0.160597,-29.12045,-53.35872,-4.347767
88.13158226,-96.2998699999999,9.17736400000001,-378.2318,0.4233553,0.6802249,0.1399672,-10.87465,-60.64716,-10.32374
88.141441345,-76.3606599999998,1.262676,-376.6379,0.334352,0.691162,0.1523496,-10.87465,-60.64716,-10.32374
88.15130043,-60.6453299999998,-10.99616,-372.1015,0.267096,0.7056359,0.1481591,-10.87465,-60.64716,-10.32374
88.161159992,-52.81873,-21.94581,-365.3582,0.2271564,0.7204652,0.1742511,-10.87465,-60.64716,-10.32374
88.171019077,-51.88699,-31.82429,-357.634,0.2155062,0.6964639,0.1598386,-10.87465,-60.64716,-10.32374
88.180878639,-53.19142,-41.46474,-348.8064,0.1709541,0.6871361,0.1134333,9.216068,-61.30647,-14.64886
88.190737724,-46.60714,-53.30702,-342.063,0.1452129,0.7062181,0.07227086,9.216068,-61.30647,-14.64886
88.200596809,-38.22149,-61.5192499999999,-334.4001,0.1504222,0.704617,0.02234635,9.216068,-61.30647,-14.64886
88.210456371,-31.94778,-67.4701499999999,-330.6607,0.1834506,0.6875383,0.06150503,9.216068,-61.30647,-14.64886
88.220315456,-28.65564,-72.1118400000001,-322.6913,0.2412143,0.5943739,0.1255458,9.216068,-61.30647,-14.64886
88.230174542,-25.67407,-77.4081300000001,-308.7755,0.2128747,0.509451,0.125233,26.28956,-55.28766,-17.81015
88.240034103,260.9288,-211.5413,223.2119,3.607856,11.42288,3.173529,26.28956,-55.28766,-17.81015
88.249894142,-431.6637,198.8918,213.7099,-4.140368,2.608403,1.109241,26.28956,-55.28766,-17.81015
88.259753227,-679.257799999998,63.4495100000002,-136.8206,1.232687,-1.461068,-1.949238,26.28956,-55.28766,-17.81015
88.269612312,-639.752000000002,111.1757,-230.0625,0.1349561,1.136215,-0.3375032,26.28956,-55.28766,-17.81015
88.279471874,-613.352699999999,41.25268,-349.2968,-1.08996,-1.328678,-0.09262194,37.77866,-46.67948,-24.68197
88.291795731,-416.7559,73.1494700000002,-287.442,0.07751798,-2.471725,1.173972,37.77866,-46.67948,-24.68197
88.301654816,-303.3943,134.5032,-222.3996,0.6311048,-7.248615,-3.188944,37.77866,-46.67948,-24.68197
88.311514378,281.427,318.1478,-521.2517,0.4512641,-1.720307,1.222907,37.77866,-46.67948,-24.68197
88.321373463,123.6526,140.5731,-321.5265,-0.06595395,3.469021,-1.035668,37.77866,-46.67948,-24.68197
88.331233025,114.5837,-13.31701,-282.4152,0.7712818,0.1065846,-0.7894166,41.67221,-30.71917,-34.21419
88.34109211,148.9959,-13.49554,-183.1044,-0.2090733,-0.5574939,0.7844962,41.67221,-30.71917,-34.21419
88.350951195,110.5461,-25.63536,-126.4604,0.1006983,-0.1684181,0.7742599,41.67221,-30.71917,-34.21419
88.360810757,105.142,-53.42603,-142.3992,-0.1686825,0.05667982,0.4479137,41.67221,-30.71917,-34.21419
88.370669842,143.2812,-62.4118800000001,-90.9046600000001,0.386669,-0.6148704,0.6873484,41.67221,-30.71917,-34.21419
88.380529404,167.3201,-42.00032,-13.11115,-0.1701798,-0.5776167,1.035831,50.95989,-17.23134,-31.84081
88.390388489,148.0641,-37.95371,-32.29899,-0.5224459,0.2629213,0.4824898,50.95989,-17.23134,-31.84081
88.400247574,110.0492,-48.07023,-4.344824,-0.2312241,0.2821127,0.7597913,50.95989,-17.23134,-31.84081
88.410107136,67.2513399999998,-37.53715,5.402352,-0.3033711,0.3172367,0.953275,50.95989,-17.23134,-31.84081
88.419966221,50.85273,-35.81139,8.65141099999999,-0.320083,0.02138893,0.8666772,50.95989,-17.23134,-31.84081
88.429825306,49.29984,-37.1801,12.39089,-0.3985656,-0.06423361,0.6686847,50.19997,-16.13074,-32.74446
88.439684868,71.3509900000001,-38.60831,24.52889,-0.4096743,-0.056834,0.7216173,50.19997,-16.13074,-32.74446
88.449543953,85.5755299999998,-41.16719,28.26837,-0.3892582,-0.0878004,0.7205858,50.19997,-16.13074,-32.74446
88.461867809,101.5393,-38.42978,32.25307,-0.4165823,0.06886326,0.6485007,50.19997,-16.13074,-32.74446
88.471727371,114.8321,-33.96661,42.85848,-0.3727805,0.1260936,0.7537833,50.19997,-16.13074,-32.74446
88.481586456,117.0062,-30.45559,50.76657,-0.3389924,0.2009658,0.7860399,48.71635,-18.69585,-33.09442
88.491446018,113.9004,-19.2084,60.5750499999999,-0.3022277,0.288487,0.9400777,48.71635,-18.69585,-33.09442
88.501305103,111.7884,-9.50844099999999,79.3337600000002,-0.3901003,0.3513413,0.6505072,48.71635,-18.69585,-33.09442
88.511164189,107.9994,-7.66366400000002,93.5560600000002,0.05095723,0.0144874,0.8752275,48.71635,-18.69585,-33.09442
88.52102375,111.6642,4.535667,89.5100600000003,-0.3314906,0.4298985,0.568871,48.71635,-18.69585,-33.09442
88.530882836,95.3898499999998,11.4387,72.8356500000001,-0.6319107,0.4099158,0.620904,47.25347,-22.3369,-31.38462
88.540742397,80.4820299999999,-2.129333,78.2303100000003,-0.4504481,0.3533865,0.8191044,47.25347,-22.3369,-31.38462
88.550601483,73.7735099999999,3.464506,85.70927,-0.2010613,0.179318,0.6569036,47.25347,-22.3369,-31.38462
88.560460567,79.7366300000002,10.78411,99.7476699999999,-0.2218901,0.1395089,0.6012773,47.25347,-22.3369,-31.38462
88.570320129,80.6683700000001,10.90312,112.4987,-0.1710947,0.2491643,0.6556283,47.25347,-22.3369,-31.38462
88.580179214,67.12711,8.64178400000002,122.6137,-0.04739264,0.1083038,0.5621078,45.80879,-29.22902,-29.57751
88.590038299,77.9352699999999,27.03004,128.9892,-0.09865364,0.3260108,0.4745862,45.80879,-29.22902,-29.57751
88.599897861,75.5748700000002,26.43496,128.4375,0.008107095,0.4310639,0.4672423,45.80879,-29.22902,-29.57751
88.609756946,72.6554200000001,35.95639,132.9739,0.032882,0.4757991,0.5295628,45.80879,-29.22902,-29.57751
88.619616508,61.5366700000001,32.92143,150.8131,0.05609268,0.4152547,0.4204219,45.80879,-29.22902,-29.57751
88.629475593,66.5059400000001,27.3871,158.2307,0.01963626,0.3921846,0.4533323,43.61649,-35.05874,-27.00906
88.641800404,57.9339500000001,29.46991,171.9013,0.09986249,0.5176632,0.6348644,43.61649,-35.05874,-27.00906
88.651659489,47.06366,33.51652,183.1198,0.1010012,0.4633892,0.5629895,43.61649,-35.05874,-27.00906
88.661518574,52.15717,40.83612,197.8325,-0.007282894,0.3717072,0.5062552,43.61649,-35.05874,-27.00906
88.671378136,54.95238,40.47906,216.1621,-0.04133197,0.3566774,0.471632,43.61649,-35.05874,-27.00906
88.681237221,61.4745600000003,40.95514,234.4917,0.003140449,0.3077482,0.4250613,40.36574,-40.87534,-24.37111
88.691096783,72.6554200000001,40.18152,250.3078,0.05315042,0.2939286,0.3849376,40.36574,-40.87534,-24.37111
88.700955868,88.4328599999999,39.52692,263.6106,0.1066808,0.3137191,0.3455265,40.36574,-40.87534,-24.37111
88.710814953,104.024,37.02755,275.8712,0.1611364,0.3242269,0.2940439,40.36574,-40.87534,-24.37111
88.720674515,117.7516,33.33799,285.3118,0.1922941,0.4046132,0.2458791,40.36574,-40.87534,-24.37111
88.7305336,128.2492,29.46991,292.3617,0.2380772,0.4293745,0.2526235,33.33432,-48.40961,-20.41503
88.740392685,141.6662,29.52942,303.948,0.3221393,0.4791379,0.2183014,33.33432,-48.40961,-20.41503
88.750252247,156.6361,30.77911,317.3733,0.3526426,0.5460728,0.2179524,33.33432,-48.40961,-20.41503
88.760111332,164.4627,38.09871,333.8638,0.358011,0.6327509,0.2214826,33.33432,-48.40961,-20.41503
88.769970894,165.5808,46.13241,349.1283,0.4182353,0.7445624,0.1798775,33.33432,-48.40961,-20.41503
88.779829979,166.761,59.7004500000001,368.5,0.4834017,0.9756416,0.1392085,22.58389,-55.92734,-13.94246
88.789689064,160.4252,68.5672800000002,375.4272,0.595138,1.180848,0.2260829,22.58389,-55.92734,-13.94246
88.799548626,146.4491,71.0071499999999,366.5383,0.6862798,1.156175,0.1790517,22.58389,-55.92734,-13.94246
88.809407711,121.727,54.46367,356.7298,0.7302132,1.109315,0.1665293,22.58389,-55.92734,-13.94246
88.821731567,104.583,30.24353,332.7604,0.7099181,0.9664248,0.1311103,22.58389,-55.92734,-13.94246
88.831591129,98.3092999999999,16.85402,319.7641,0.6693063,0.791818,0.1206316,6.2922,-61.51625,-5.731719
88.841450214,96.0731199999997,13.70004,319.3963,0.6349248,0.8025694,0.08431397,6.2922,-61.51625,-5.731719
88.851309776,97.5639000000002,5.666337,320.3772,0.7352396,0.9074588,0.1781717,6.2922,-61.51625,-5.731719
88.861168861,87.3147700000001,-3.795583,318.0476,0.9331859,0.968021,0.2889526,6.2922,-61.51625,-5.731719
88.871027946,67.68615,-8.02071800000003,319.7028,1.137772,0.8632634,0.4183702,6.2922,-61.51625,-5.731719
88.880887508,57.9960599999999,-4.152637,328.3466,1.185058,0.7629265,0.2817152,-11.9231,-61.60947,-1.024627
88.890746593,59.6731899999997,-12.36487,338.7068,1.170593,0.6495881,0.1975842,-11.9231,-61.60947,-1.024627
88.900606155,66.4438299999998,-22.5409,345.1436,1.146987,0.5680809,0.1886071,-11.9231,-61.60947,-1.024627
88.91046524,73.2144600000001,-33.55005,350.6608,1.199028,0.5353941,0.1732136,-11.9231,-61.60947,-1.024627
88.920324326,81.4137600000001,-38.78684,353.9712,1.301914,0.544378,0.1200695,-11.9231,-61.60947,-1.024627
88.930183887,89.1782499999998,-42.29786,359.1206,1.453961,0.5533763,0.0844344,-27.56317,-55.85947,2.392352
88.940042973,92.4082800000002,-40.69112,366.6609,1.612927,0.5796779,0.1049131,-27.56317,-55.85947,2.392352
88.949902058,89.1782499999998,-35.81139,370.9521,1.732118,0.6513439,0.1186743,-27.56317,-55.85947,2.392352
88.95976162,84.0847499999999,-26.46849,364.7605,1.781723,0.723825,0.1248086,-27.56317,-55.85947,2.392352
88.969620705,72.4690700000002,-22.83844,356.975,1.765935,0.7269306,0.0819319,-27.56317,-55.85947,2.392352
88.979480267,62.9653400000002,-18.61331,341.4654,1.732656,0.7557905,0.07066978,-41.72889,-44.64807,7.025949
88.9918046,53.89642,-12.30536,314.3695,1.690573,0.7456497,0.06112079,-41.72889,-44.64807,7.025949
89.001664162,45.82135,-12.24585,286.5992,1.608804,0.7064702,0.05764276,-41.72889,-44.64807,7.025949
89.011523247,36.81454,-12.90045,253.0665,1.508975,0.6223601,0.05356374,-41.72889,-44.64807,7.025949
89.021382332,29.91967,-12.42438,215.4877,1.409848,0.5455032,0.03563914,-52.63296,-29.02506,9.484153
89.031241894,24.5777,-15.10228,176.499,1.309421,0.4403638,0.005035203,-52.63296,-29.02506,9.484153
89.041100979,18.67669,-19.68447,139.8398,1.249256,0.302558,-0.007729482,-52.63296,-29.02506,9.484153
89.050960541,11.78182,-24.44518,111.5178,1.237327,0.1467083,-0.01510433,-52.63296,-29.02506,9.484153
89.060819626,7.12312899999999,-28.13474,93.1269400000001,1.273203,0.02981477,0.001607412,-52.63296,-29.02506,9.484153
89.070678711,5.81869499999997,-28.84884,84.05409,1.306481,-0.02966857,0.0217159,-52.63296,-29.02506,9.484153
89.080538273,7.74428800000002,-28.90835,83.9927900000001,1.298303,-0.03849087,0.024154,-56.80271,-16.5041,10.6581
89.090397358,14.39069,-29.80099,86.0771,1.24347,-0.002506858,0.0170928,-56.80271,-16.5041,10.6581
89.100256443,24.76405,-31.94331,85.70927,1.181908,0.02612751,0.01246146,-56.80271,-16.5041,10.6581
89.110116005,35.01318,-34.20465,83.3797600000002,1.146818,0.05159384,0.00886371,-56.80271,-16.5041,10.6581
89.11997509,45.75923,-34.38317,79.0272500000001,1.139004,0.08898651,0.006894655,-56.80271,-16.5041,10.6581
89.129834652,55.63566,-32.18135,75.0425600000002,1.132574,0.1488267,0.0185129,-56.82408,-10.96496,11.81781
89.139693737,65.7605500000002,-29.62246,70.50613,1.126126,0.2101266,0.03014372,-56.82408,-10.96496,11.81781
89.149552822,77.3762299999999,-27.65867,66.1536199999999,1.10657,0.2570442,0.0006288318,-56.82408,-10.96496,11.81781
89.161877155,93.0915599999998,-26.94456,60.5750499999999,1.071424,0.3014004,-0.02628948,-56.82408,-10.96496,11.81781
89.17173624,107.3161,-26.88505,55.4256,1.050861,0.3342778,-0.03434454,-56.08478,-6.152925,14.26146
89.181595326,120.112,-25.69487,50.15354,1.050504,0.36054,-0.0374722,-56.08478,-6.152925,14.26146
89.191454887,130.1748,-24.08813,45.67842,1.034378,0.3998133,-0.03739012,-56.08478,-6.152925,14.26146
89.201313973,135.8273,-22.42188,42.36806,1.015853,0.434684,-0.0377902,-56.08478,-6.152925,14.26146
89.211173534,137.0696,-21.11268,40.65158,0.990068,0.4602358,-0.04056146,-56.08478,-6.152925,14.26146
89.22103262,133.4669,-20.75563,40.77418,0.9523135,0.4794065,-0.02979839,-56.46704,-2.878819,15.51036
89.230891705,126.5099,-21.2317,41.75503,0.9238669,0.4913398,-0.02450025,-56.46704,-2.878819,15.51036
89.240751267,117.1304,-21.52925,44.02324,0.9045913,0.4878322,-0.006045546,-56.46704,-2.878819,15.51036
89.250610352,106.8192,-21.82679,46.29145,0.875387,0.4905435,0.007331956,-56.46704,-2.878819,15.51036
89.260469437,96.1352399999998,-22.65992,46.29145,0.8657584,0.4803835,0.04571939,-56.46704,-2.878819,15.51036
89.270328999,86.81785,-22.00532,46.04624,0.8522243,0.4706794,0.08512476,-56.1182,2.277168,15.90374
89.280188084,78.2458500000003,-21.2317,44.57497,0.8339429,0.4823199,0.1180691,-56.1182,2.277168,15.90374
89.290047646,69.4253900000002,-21.29121,40.65158,0.8234435,0.4954817,0.1489986,-56.1182,2.277168,15.90374
89.299906731,59.4868500000001,-20.75563,35.86994,0.8427576,0.5079236,0.1771011,-56.1182,2.277168,15.90374
89.309765816,48.67868,-21.05317,29.80095,0.874378,0.5247544,0.1787093,-56.1182,2.277168,15.90374
89.319625378,36.25549,-21.58875,22.7511,0.9191875,0.5227913,0.1981804,-56.1182,2.277168,15.90374
89.329484463,23.83231,-20.69612,15.57865,0.9426209,0.5035917,0.213498,-55.38203,4.850914,16.25757
89.341809273,8.92449099999999,-20.22005,4.789322,0.9570798,0.4832895,0.2155166,-55.38203,4.850914,16.25757
89.351668358,-1.945794,-20.51759,-4.957854,0.9629331,0.4561312,0.2262255,-55.38203,4.850914,16.25757
89.36152792,-10.76625,-19.98201,-15.07285,0.9795835,0.4320074,0.2420774,-55.38203,4.850914,16.25757
89.371387005,-19.33825,-19.14889,-25.37175,0.9918025,0.4097894,0.2575293,-54.64462,6.68302,16.23485
89.38124609,-26.48158,-18.61331,-34.75111,0.9959971,0.4025809,0.2717847,-54.64462,6.68302,16.23485
89.391105652,-32.32048,-19.02987,-42.04617,1.015834,0.4109958,0.2629474,-54.64462,6.68302,16.23485
89.400964737,-39.15322,-18.13724,-48.23777,1.062195,0.4250455,0.266718,-54.64462,6.68302,16.23485
89.410824299,-47.66311,-15.2213,-54.18416,1.089686,0.4451979,0.2554747,-54.64462,6.68302,16.23485
89.420683384,-55.11702,-11.41273,-62.3374599999998,1.105178,0.4521255,0.249562,-55.37764,6.34756,17.97086
89.430542469,-61.2043800000002,-7.00906600000001,-72.5137599999998,1.112636,0.4419719,0.24937,-55.37764,6.34756,17.97086
89.440402031,-64.6828699999997,-2.605405,-83.9161100000001,1.10545,0.4209566,0.242107,-55.37764,6.34756,17.97086
89.450261116,-64.2480499999998,1.500712,-96.6058299999998,1.112042,0.3947151,0.2360412,-55.37764,6.34756,17.97086
89.460120201,-59.4030199999999,5.487811,-109.7247,1.128548,0.3563914,0.2287738,-55.37764,6.34756,17.97086
89.469979763,-51.45218,8.58227499999998,-122.9048,1.152966,0.340973,0.2120028,-54.9851,3.403409,18.38317
89.479838848,-42.63172,10.90312,-134.7363,1.192077,0.3393599,0.2085566,-54.9851,3.403409,18.38317
89.48969841,-35.86108,13.87857,-146.813,1.251655,0.391476,0.2105433,-54.9851,3.403409,18.38317
89.499557495,-31.94778,17.21107,-161.1579,1.301719,0.4484645,0.2366667,-54.9851,3.403409,18.38317
89.511881352,-34.24607,21.79326,-180.2844,1.362668,0.480684,0.2499667,-54.9851,3.403409,18.38317
89.521740914,-39.96073,27.44661,-196.6523,1.413275,0.5215808,0.2658833,-54.9577,-3.240177,17.23478
89.531599999,-47.78734,33.75455,-211.6716,1.438714,0.5174125,0.2621312,-54.9577,-3.240177,17.23478
89.541459084,-55.80029,40.00299,-225.2195,1.474654,0.4841064,0.2493579,-54.9577,-3.240177,17.23478
89.551318645,-61.9497700000001,48.0367,-236.1927,1.515346,0.4460568,0.2580408,-54.9577,-3.240177,17.23478
89.56117773,-64.4343999999998,55.65384,-244.53,1.537564,0.4077402,0.2391912,-54.9577,-3.240177,17.23478
89.571037292,-64.93133,60.8311199999998,-250.3537,1.548255,0.4009801,0.2279602,-56.03622,-12.75553,16.05771
89.580896377,-64.5586300000002,66.3059400000001,-255.0128,1.558155,0.3978174,0.2694828,-56.03622,-12.75553,16.05771
89.590756416,-62.1982299999998,72.1378200000002,-260.5913,1.558256,0.4255399,0.2654025,-56.03622,-12.75553,16.05771
89.600615501,-60.1484099999999,73.3279999999999,-266.9055,1.535911,0.4442913,0.2577328,-56.03622,-12.75553,16.05771
89.610474586,-59.6514800000002,72.7924100000003,-273.5263,1.506885,0.4962293,0.2916496,-56.03622,-12.75553,16.05771
89.620334148,-61.7634200000002,73.0304499999998,-278.6144,1.487352,0.5708471,0.252305,-53.01158,-25.30987,11.56083
89.630193233,-64.6207500000002,70.5905800000001,-282.7217,1.480992,0.6631481,0.2258602,-53.01158,-25.30987,11.56083
89.640052795,-69.34156,67.0200500000003,-286.8903,1.490359,0.7161976,0.206048,-53.01158,-25.30987,11.56083
89.64991188,-74.9319900000002,68.0317000000002,-292.7754,1.516818,0.7952662,0.2068174,-53.01158,-25.30987,11.56083
89.659770965,-79.3422200000003,69.7574599999998,-296.0245,1.476814,0.8441176,0.2221758,-53.01158,-25.30987,11.56083
89.669630527,-83.75246,67.3175999999997,-299.58,1.4392,0.9205337,0.1859793,-47.00406,-36.11401,7.414364
89.679489613,-80.9572399999998,60.9501400000002,-307.1816,1.455991,0.9466023,0.2204623,-47.00406,-36.11401,7.414364
89.691813469,-82.4480200000003,57.8556700000001,-317.4192,1.445744,0.9571244,0.1957788,-47.00406,-36.11401,7.414364
89.701673031,-91.5790600000001,53.80907,-325.879,1.34754,1.018241,0.1157511,-47.00406,-36.11401,7.414364
89.711532116,-103.319,46.54898,-333.8484,1.213812,1.111806,0.07819396,-47.00406,-36.11401,7.414364
89.721391678,-116.3012,38.99134,-336.9749,1.114954,1.181441,0.06533542,-36.94931,-48.39396,1.981147
89.731250763,-129.035,33.3975,-336.1166,1.061234,1.268113,0.07689571,-36.94931,-48.39396,1.981147
89.741109848,-144.5018,31.55272,-334.0936,0.9884167,1.382439,0.1114839,-36.94931,-48.39396,1.981147
89.75096941,-159.7202,33.45701,-336.5458,0.9221707,1.323967,0.1172058,-36.94931,-48.39396,1.981147
89.760828495,-174.8765,34.46866,-338.017,0.845831,1.206026,0.1196945,-36.94931,-48.39396,1.981147
89.77068758,-183.0137,36.67049,-335.8101,0.7613109,0.9745641,0.1040905,-22.37371,-57.11879,-4.408842
89.780547142,-182.3304,38.39625,-329.3733,0.6360546,0.7777217,0.07354578,-22.37371,-57.11879,-4.408842
89.790406227,-175.3734,38.15821,-323.856,0.5118855,0.6227712,0.05196463,-22.37371,-57.11879,-4.408842
89.800265789,-161.6458,38.33674,-316.7449,0.3524663,0.5424173,0.02241064,-22.37371,-57.11879,-4.408842
89.810124874,-146.3032,32.6834,-310.3081,0.2004029,0.5011916,0.0285428,-22.37371,-57.11879,-4.408842
89.819983959,-131.0848,27.74415,-304.7908,0.05098252,0.5559541,0.06180334,-5.656837,-61.47953,-12.90379
89.829843521,-117.8541,22.68589,-300.5609,-0.01523331,0.606936,0.05838534,-5.656837,-61.47953,-12.90379
89.839702606,-110.5244,16.43745,-295.9632,-0.04487314,0.6534635,0.07836843,-5.656837,-61.47953,-12.90379
89.849562168,-107.7913,10.90312,-291.1202,-0.05776634,0.678689,0.08786987,-5.656837,-61.47953,-12.90379
89.859421253,-105.2446,8.93932899999999,-286.5838,-0.0447451,0.6570528,0.126796,-5.656837,-61.47953,-12.90379
89.871746063,-101.7661,7.451605,-279.0435,-0.06006052,0.5568416,0.1712134,10.29162,-59.17558,-19.35029
89.881605148,-94.8711999999997,5.428301,-274.3232,-0.09079081,0.5085298,0.2071836,10.29162,-59.17558,-19.35029
89.891464233,-86.4855499999999,-0.04652058,-270.3998,-0.1229404,0.4742422,0.223166,10.29162,-59.17558,-19.35029
89.901323795,-76.9196999999999,-3.795583,-263.9017,-0.1833996,0.460715,0.2622495,10.29162,-59.17558,-19.35029
89.91118288,-69.27944,-5.99741399999999,-256.5453,-0.2467238,0.4588994,0.316807,10.29162,-59.17558,-19.35029
89.921042442,-65.92519,-11.41273,-248.8212,-0.2606196,0.4604565,0.3754805,23.6231,-53.86682,-23.70098
89.930901527,-65.2419099999998,-16.53049,-240.2388,-0.221517,0.463017,0.4468248,23.6231,-53.86682,-23.70098
89.940760612,-67.1674999999999,-17.60166,-230.369,-0.1707427,0.4772443,0.4874323,23.6231,-53.86682,-23.70098
89.950620174,-74.1244899999999,-18.91085,-220.8057,-0.1216745,0.4418617,0.5386671,23.6231,-53.86682,-23.70098
89.960479259,-81.8889800000002,-17.83969,-209.9551,-0.07012361,0.3413593,0.6070473,23.6231,-53.86682,-23.70098
89.970338345,-86.60979,-15.2213,-196.8362,-0.05124713,0.2248369,0.6331093,34.7744,-46.30085,-26.39866
89.980197906,-79.5285700000002,-13.2575,-185.4339,0.1366986,0.6500994,0.4389854,34.7744,-46.30085,-26.39866
89.990056992,-148.6636,-5.93790500000001,-100.1001,-0.5728197,0.7267964,1.932388,34.7744,-46.30085,-26.39866
89.999916553,-266.4354,49.04835,-46.27607,0.4321531,-0.01974976,0.7075362,34.7744,-46.30085,-26.39866
90.009775639,-281.4053,68.8648199999999,7.36404799999998,0.4280874,0.4171653,0.8296437,34.7744,-46.30085,-26.39866
90.019634724,-314.0161,90.1095100000003,15.45604,0.6616428,0.1342206,0.7381504,41.05234,-37.6535,-30.3622
90.029494286,-323.2714,90.1690200000001,-19.11885,-0.1967583,0.7483385,0.4325871,41.05234,-37.6535,-30.3622
90.041818142,-367.5601,91.7757599999999,-71.96204,-0.3645249,-0.2735725,0.4335418,41.05234,-37.6535,-30.3622
90.051677227,-327.8059,81.8377799999997,-84.8356599999998,-0.506058,-0.640041,0.4952414,41.05234,-37.6535,-30.3622
90.061536789,-248.546,75.76786,-89.0655700000002,-0.3768463,-0.8953628,0.4898075,41.05234,-37.6535,-30.3622
90.071395874,-174.3175,63.5685299999999,-90.9659700000002,-0.2324975,-0.6596422,0.5913298,43.16111,-29.63199,-34.23323
90.081255436,-107.2944,27.74415,-98.5675399999999,-0.2737427,-0.6317549,0.210231,43.16111,-29.63199,-34.23323
90.091114998,-26.10889,13.58103,-87.04257,-0.07477096,-0.7038633,0.4947854,43.16111,-29.63199,-34.23323
90.10097456,20.72651,-16.70902,-80.5444599999999,-0.192632,-0.6204045,0.320345,43.16111,-29.63199,-34.23323
90.110833645,82.2833900000002,-38.72733,-70.1229399999999,-0.5045348,-0.6620045,0.0853188,43.16111,-29.63199,-34.23323
90.12069273,125.6403,-57.05608,-64.5443699999999,-0.0760387,-0.8947987,0.4491058,47.5755,-17.9769,-35.27264
90.130552292,201.9186,-97.2841200000002,-62.9504900000003,-1.0177,-0.9360222,-0.4037345,47.5755,-17.9769,-35.27264
90.140411377,318.3239,-126.6815,-130.1999,-0.4037422,-1.09976,0.4185027,47.5755,-17.9769,-35.27264
90.150270939,320.6222,-104.9013,-74.5980599999999,0.2792433,-0.6084141,0.4570014,47.5755,-17.9769,-35.27264
90.160130024,304.6584,-67.8866999999997,-68.2225500000001,0.2686849,0.3772643,0.298709,47.5755,-17.9769,-35.27264
90.169989109,275.9608,-45.57085,-47.74734,0.6564224,0.3844168,0.2525112,46.81805,-17.24355,-36.10849
90.179848671,222.9759,-53.96162,59.0424799999999,0.3446912,0.8384683,0.6096433,46.81805,-17.24355,-36.10849
90.189707756,141.7904,-33.13349,94.84342,0.2788534,0.4744523,0.627636,46.81805,-17.24355,-36.10849
90.199567318,79.1775900000002,-18.07773,124.8206,0.07115743,0.3270439,0.4788834,46.81805,-17.24355,-36.10849
90.209426403,51.78447,-10.63911,144.7441,0.001190127,0.1497349,0.4659251,46.81805,-17.24355,-36.10849
90.221750259,39.60975,-3.914601,167.794,-0.01903025,0.02137734,0.4128973,45.36567,-22.72445,-34.31583
90.231609821,44.64114,-5.223798,178.5833,-0.0812501,0.06517678,0.3015418,45.36567,-22.72445,-34.31583
90.241468906,58.8035699999999,-15.99492,177.7864,-0.07455166,0.03101873,0.2604262,45.36567,-22.72445,-34.31583
90.251327992,71.5994499999998,-21.94581,189.8018,-0.01001981,-0.04236118,0.2641583,45.36567,-22.72445,-34.31583
90.261187553,85.8239999999998,-25.69487,206.5375,0.03169976,-0.04013567,0.2401017,45.36567,-22.72445,-34.31583
90.271046639,101.2287,-29.8605,221.9245,0.04883781,-0.01863253,0.2242254,41.67619,-30.33944,-33.38578
90.280905724,118.4349,-35.2163,237.189,0.0678802,0.007267028,0.208359,41.67619,-30.33944,-33.38578
90.290765286,137.3181,-39.32242,252.5147,0.1114079,0.06206082,0.1837618,41.67619,-30.33944,-33.38578
90.300624371,156.8846,-43.25001,267.1049,0.152612,0.1285852,0.1784648,41.67619,-30.33944,-33.38578
90.310483933,177.0102,-45.8684,279.672,0.1944279,0.2287014,0.1758385,41.67619,-30.33944,-33.38578
90.320343018,194.1541,-48.18925,289.6031,0.2426025,0.3590086,0.1637924,35.44243,-37.96848,-31.16163
90.330202103,207.8197,-48.5463,299.4728,0.3137836,0.481359,0.1815409,35.44243,-37.96848,-31.16163
90.340061665,217.3234,-47.8322,313.6338,0.344761,0.6028401,0.1921878,35.44243,-37.96848,-31.16163
90.34992075,223.1623,-43.78559,326.9366,0.3875076,0.7146688,0.1963559,35.44243,-37.96848,-31.16163
90.359780312,222.1684,-38.25126,341.7106,0.4416244,0.8075902,0.1925352,35.44243,-37.96848,-31.16163
90.369639874,216.7022,-31.76478,357.8946,0.5006966,0.908873,0.2006945,25.08869,-49.1044,-24.20582
90.379499436,210.2422,-22.60041,371.8717,0.5352865,1.077037,0.1944327,25.08869,-49.1044,-24.20582
90.391823292,197.5705,-17.95871,383.1514,0.6338048,1.181249,0.3712118,25.08869,-49.1044,-24.20582
90.401682377,192.2286,-29.74148,380.1476,0.6202463,1.29726,0.1965179,25.08869,-49.1044,-24.20582
90.411541939,168.9351,-39.73898,368.2548,0.7498541,1.258201,0.37452,25.08869,-49.1044,-24.20582
90.421401024,157.6921,-40.86965,360.2241,0.7839726,1.218922,0.3305744,8.823057,-58.36321,-15.12519
90.431260586,147.6293,-43.07148,356.1168,0.8294336,1.101217,0.3677482,8.823057,-58.36321,-15.12519
90.441119671,135.641,-40.5126,358.385,0.8213345,1.002231,0.3325259,8.823057,-58.36321,-15.12519
90.450978756,124.5222,-61.2217100000001,354.9521,0.458563,1.034445,0.3068202,8.823057,-58.36321,-15.12519
90.460838318,144.8341,-54.67572,340.9137,0.9935045,0.8442861,0.3699502,8.823057,-58.36321,-15.12519
90.470697403,162.8477,-50.98617,339.7489,1.273289,0.7480509,0.3886312,-9.730335,-59.87125,-6.560258
90.480556488,178.0661,-54.08063,341.8332,1.392444,0.652245,0.2524278,-9.730335,-59.87125,-6.560258
90.49041605,193.6572,-61.2217100000001,331.2891,1.457044,0.6393722,0.1708929,-9.730335,-59.87125,-6.560258
90.500275135,209.9937,-69.0173700000001,323.5036,1.545283,0.6526284,0.123744,-9.730335,-59.87125,-6.560258
90.510134697,218.6278,-73.9566200000001,324.9749,1.598934,0.7657045,0.175208,-9.730335,-59.87125,-6.560258
90.519993782,210.7391,-70.2670699999999,330.6761,1.6486,0.8988258,0.1315372,-26.07302,-55.51394,1.996772
90.529852867,190.7999,-64.7922399999999,335.4577,1.71682,1.023937,0.1138904,-26.07302,-55.51394,1.996772
90.539712429,164.09,-58.2462599999999,340.2393,1.753983,1.079161,0.08938765,-26.07302,-55.51394,1.996772
90.549571514,137.6908,-50.39108,341.8332,1.766597,1.131837,0.09204842,-26.07302,-55.51394,1.996772
90.559431076,109.3038,-46.64202,340.0554,1.712932,1.14312,0.1130349,-26.07302,-55.51394,1.996772
90.571755409,72.03426,-41.46474,328.837,1.609931,1.095886,0.0882275,-40.94216,-45.63474,11.70578
90.581614971,48.30598,-39.91751,310.8752,1.541009,1.029868,0.03450312,-40.94216,-45.63474,11.70578
90.591474056,26.9381,-44.26166,294.9977,1.518015,0.939612,0.02688115,-40.94216,-45.63474,11.70578
90.601333141,5.94292600000003,-46.88005,278.6911,1.507499,0.8601413,0.01102595,-40.94216,-45.63474,11.70578
90.611192703,-8.34373400000002,-46.22545,260.9132,1.486765,0.7680364,0.02396174,-40.94216,-45.63474,11.70578
90.621051788,-23.4379,-43.25001,240.9285,1.432333,0.7027186,-0.006961668,-51.09212,-30.81357,14.48836
90.630910873,-32.63105,-43.42854,220.0242,1.397383,0.5725331,0.006334549,-51.09212,-30.81357,14.48836
90.640770435,-38.40784,-42.95246,200.1007,1.352532,0.4660155,-0.003988343,-51.09212,-30.81357,14.48836
90.65062952,-37.97302,-43.72608,179.932,1.304695,0.3555515,-0.02148997,-51.09212,-30.81357,14.48836
90.660489082,-31.69932,-45.8684,160.4989,1.285542,0.257145,-0.005754707,-51.09212,-30.81357,14.48836
90.670348167,-20.51845,-46.46349,144.0697,1.281481,0.2070512,0.01113159,-55.25345,-17.53226,17.38314
90.680207252,-6.977184,-46.46349,130.154,1.268902,0.1690321,0.0239284,-55.25345,-17.53226,17.38314
90.690066814,7.12312899999999,-46.46349,117.7707,1.252599,0.1557963,0.03650825,-55.25345,-17.53226,17.38314
90.699925899,21.90672,-45.45184,105.878,1.240889,0.170348,0.05165314,-55.25345,-17.53226,17.38314
90.709785461,35.32376,-44.08313,95.0886300000003,1.215435,0.1950176,0.07235049,-55.25345,-17.53226,17.38314
90.719644546,47.25001,-41.58376,85.70927,1.195698,0.2182309,0.08049489,-56.02589,-10.13127,19.42405
90.729503632,57.9339500000001,-38.31076,77.0042499999998,1.164214,0.2393853,0.08639335,-56.02589,-10.13127,19.42405
90.741827965,70.6677099999999,-33.49054,67.3183700000003,1.124294,0.2672674,0.08959359,-56.02589,-10.13127,19.42405
90.75168705,79.4881699999999,-29.56295,60.9428700000002,1.091119,0.2907861,0.08116013,-56.02589,-10.13127,19.42405
90.761546135,86.4451500000002,-26.34947,55.11908,1.065335,0.3256145,0.08661354,-56.02589,-10.13127,19.42405
90.771406174,90.60692,-23.13599,49.47921,1.03273,0.3516019,0.08633916,-55.68001,-2.810831,21.01169
90.781265259,92.6567500000002,-20.04152,44.57497,0.9970158,0.3828843,0.07800739,-55.68001,-2.810831,21.01169
90.791124821,92.9052099999999,-17.78018,40.52897,0.9726059,0.4118403,0.07141166,-55.68001,-2.810831,21.01169
90.800983906,90.7932699999999,-15.81639,36.54428,0.9474052,0.4354705,0.07388707,-55.68001,-2.810831,21.01169
90.810843468,86.4451500000002,-13.55505,32.9274,0.9270642,0.4601114,0.07486412,-55.68001,-2.810831,21.01169
90.820702553,79.9851000000002,-11.71027,29.98485,0.9082454,0.4779456,0.07384524,-54.57372,1.61181,22.24092
90.830561638,71.9721500000002,-9.984512,27.22622,0.894936,0.4909819,0.07797856,-54.57372,1.61181,22.24092
90.8404212,63.2137999999999,-8.08022700000001,23.67065,0.8797455,0.5064635,0.0898265,-54.57372,1.61181,22.24092
90.850280285,53.52372,-6.23544999999998,19.93116,0.875703,0.4943216,0.1055952,-54.57372,1.61181,22.24092
90.860139847,46.25616,-3.557548,15.51735,0.8836639,0.4594119,0.1205215,-54.57372,1.61181,22.24092
90.869998932,42.59132,0.2510241,9.81616800000001,0.8963171,0.401189,0.1361426,-53.84232,4.548359,22.20689
90.879858017,42.77766,3.702542,2.337202,0.9087786,0.3497465,0.1436772,-53.84232,4.548359,22.20689
90.889717579,45.82135,6.737498,-5.93870199999998,0.9205501,0.3119128,0.1484614,-53.84232,4.548359,22.20689
90.899576664,49.921,8.998837,-13.72418,0.9168006,0.2904429,0.1416248,-53.84232,4.548359,22.20689
90.909436226,53.21314,9.593927,-20.59012,0.9144057,0.2850654,0.1406552,-53.84232,4.548359,22.20689
90.921760082,53.27526,9.47490899999998,-28.55951,0.9278617,0.3047821,0.1760906,-53.47662,6.016634,22.18988
90.931619167,49.921,11.3792,-36.5289,0.9564931,0.3119423,0.2011405,-53.47662,6.016634,22.18988
90.941478729,45.635,14.41415,-44.98871,0.9766908,0.2878839,0.2260471,-53.47662,6.016634,22.18988
90.951337814,43.02613,17.44911,-52.77419,1.005316,0.2520785,0.2128778,-53.47662,6.016634,22.18988
90.961196899,41.16265,19.88897,-59.7014300000001,1.031537,0.2343274,0.2185839,-53.47662,6.016634,22.18988
90.971056461,38.80225,22.92393,-67.5482199999998,1.05528,0.2137517,0.2554494,-53.86277,5.996894,20.46344
90.980916023,37.62204,28.10121,-76.3758499999999,1.076594,0.1737649,0.3123121,-53.86277,5.996894,20.46344
90.990775585,38.92648,34.94473,-87.2264799999998,1.099031,0.1258815,0.3369858,-53.86277,5.996894,20.46344
91.00063467,43.7094,38.93183,-100.5905,1.136822,0.0959801,0.3194228,-53.86277,5.996894,20.46344
91.010494232,54.14488,41.19317,-116.2228,1.195487,0.08756613,0.2729918,-53.86277,5.996894,20.46344
91.020353317,66.5059400000001,44.22813,-129.9547,1.245805,0.1005516,0.243153,-54.61817,5.246067,18.81048
91.030212402,75.2642899999998,50.17902,-138.2919,1.280256,0.1316726,0.2855734,-54.61817,5.246067,18.81048
91.040071964,71.6615699999998,54.93974,-143.3187,1.262541,0.2121793,0.3847412,-54.61817,5.246067,18.81048
91.049931049,58.67934,57.08206,-149.3264,1.259305,0.2684839,0.4839776,-54.61817,5.246067,18.81048
91.059790611,40.66573,61.0096500000001,-151.6559,1.295281,0.2740285,0.5798307,-54.61817,5.246067,18.81048
91.069649696,21.09921,69.63844,-151.8398,1.341223,0.2580944,0.6341494,-55.73125,1.554375,17.18963
91.079508781,2.588667,78.5052700000001,-149.7555,1.359768,0.2062764,0.6569285,-55.73125,1.554375,17.18963
91.089368343,-10.64202,85.46782,-147.5486,1.352619,0.1453723,0.653162,-55.73125,1.554375,17.18963
91.1016922,-18.96556,93.08496,-145.9547,1.376939,0.1179906,0.6904411,-55.73125,1.554375,17.18963
91.111551285,-22.63039,100.8211,-145.1578,1.436885,0.1205475,0.7116515,-55.73125,1.554375,17.18963
91.121410847,-26.91639,108.2002,-144.79,1.48164,0.1296629,0.7010273,-56.84822,-5.431162,12.59343
91.131269932,-34.43242,114.5082,-146.4452,1.555061,0.1688949,0.7381687,-56.84822,-5.431162,12.59343
91.141129017,-45.61328,116.353,-148.5295,1.587919,0.1903377,0.7987397,-56.84822,-5.431162,12.59343
91.150988579,-56.85626,123.8511,-150.1234,1.572534,0.2062521,0.7966973,-56.84822,-5.431162,12.59343
91.160847664,-70.9565699999998,128.7903,-147.6099,1.52963,0.2131001,0.7777194,-56.84822,-5.431162,12.59343
91.170707226,-84.5599599999997,132.5989,-143.1961,1.476061,0.2008398,0.7491483,-56.8504,-12.87608,6.779569
91.180566788,-95.36813,135.7529,-138.4145,1.451814,0.1649082,0.697437,-56.8504,-12.87608,6.779569
91.19042635,-100.0889,138.0737,-134.7976,1.424881,0.1332803,0.6319037,-56.8504,-12.87608,6.779569
91.200285435,-99.6541300000002,138.4903,-131.0581,1.380757,0.1219864,0.5792461,-56.8504,-12.87608,6.779569
91.210144997,-99.1571999999999,137.3596,-126.8895,1.329964,0.1383771,0.5283548,-56.8504,-12.87608,6.779569
91.220004082,-100.5859,135.9314,-120.9431,1.287919,0.1826582,0.4977006,-55.34882,-22.55339,0.5325117
91.229863167,-104.8097,133.6701,-112.3607,1.239503,0.2268796,0.4661783,-55.34882,-22.55339,0.5325117
91.239722729,-111.5804,129.9805,-101.6327,1.19528,0.263404,0.448428,-55.34882,-22.55339,0.5325117
91.249581814,-119.3449,126.0529,-90.6594499999998,1.151894,0.3174725,0.4356059,-55.34882,-22.55339,0.5325117
91.259441376,-124.1899,121.4707,-81.0348700000002,1.094704,0.3476016,0.4299665,-55.34882,-22.55339,0.5325117
91.271765232,-127.1715,115.6984,-69.93903,1.02355,0.3415397,0.4088863,-52.40321,-26.33187,-8.343783
91.281624317,-127.4199,113.08,-63.99265,0.9878782,0.3451404,0.4151755,-52.40321,-26.33187,-8.343783
91.291483402,-125.3701,113.8536,-60.2531600000002,0.9939306,0.3633087,0.4444737,-52.40321,-26.33187,-8.343783
91.301342964,-122.8234,115.1628,-54.9198,0.9943097,0.3593758,0.4329343,-52.40321,-26.33187,-8.343783
91.311202049,-120.2766,116.8885,-47.19562,0.9581301,0.3540435,0.3941106,-52.40321,-26.33187,-8.343783
91.321061611,-117.6677,118.4953,-38.24538,0.8958125,0.3562331,0.3466181,-48.33209,-29.80494,-16.39684
91.330920696,-114.1271,117.8407,-29.17254,0.8445387,0.3357868,0.3356756,-48.33209,-29.80494,-16.39684
91.340779781,-108.5988,114.8057,-20.46751,0.798342,0.3172545,0.3040712,-48.33209,-29.80494,-16.39684
91.350639343,-101.1449,108.6763,-12.86594,0.762458,0.3014007,0.3135537,-48.33209,-29.80494,-16.39684
91.360498428,-94.4984999999999,101.8328,-7.83909500000001,0.7399287,0.2983996,0.3449974,-48.33209,-29.80494,-16.39684
91.37035799,-90.46098,95.0487600000003,-4.712642,0.7099248,0.2993355,0.4058121,-45.39103,-29.93391,-23.19775
91.380217552,-89.7776900000001,89.75246,-2.689644,0.6715429,0.3099447,0.4706613,-45.39103,-29.93391,-23.19775
91.390077114,-92.5108,85.3488000000002,-0.5440385,0.6309753,0.3194948,0.5178025,-45.39103,-29.93391,-23.19775
91.399936199,-95.7408200000001,82.1353099999998,1.540263,0.5896051,0.3108868,0.5259867,-45.39103,-29.93391,-23.19775
91.409795761,-97.41795,80.1120099999999,4.54411,0.5586809,0.2969134,0.5061831,-45.39103,-29.93391,-23.19775
91.419654846,-95.8650600000003,79.3384,7.73186600000001,0.5281261,0.2638694,0.4608158,-42.81931,-28.56192,-28.28345
91.429513931,-91.9517500000002,78.0887099999999,11.83917,0.494241,0.2322866,0.4236546,-42.81931,-28.56192,-28.28345
91.441838265,-84.3114899999998,77.07706,17.96947,0.4537924,0.2113302,0.3809263,-42.81931,-28.56192,-28.28345
91.45169735,-77.2302899999999,75.5893300000003,22.93501,0.429662,0.2052135,0.3639674,-42.81931,-28.56192,-28.28345
91.461556435,-69.7142599999999,74.6371900000002,27.59404,0.4099942,0.2094057,0.3604496,-41.73778,-26.41944,-32.15269
91.471415997,-62.3845799999998,73.5660299999998,32.49828,0.3825524,0.2042673,0.3526509,-41.73778,-26.41944,-32.15269
91.481275082,-54.18528,72.3163499999999,36.11515,0.359403,0.2001129,0.3376114,-41.73778,-26.41944,-32.15269
91.491134167,-44.1225,71.1261700000003,38.32206,0.3368604,0.1745145,0.312319,-41.73778,-26.41944,-32.15269
91.500993729,-32.25836,69.9955,38.93509,0.3261385,0.1563662,0.2993803,-41.73778,-26.41944,-32.15269
91.510852814,-19.58672,69.1028600000001,38.56728,0.3040901,0.1385852,0.281335,-41.73778,-26.41944,-32.15269
91.520712376,-6.41814000000001,67.4366099999998,37.096,0.2773912,0.1329001,0.2557907,-38.85834,-23.26008,-36.42604
91.530571461,5.445999,64.4016599999999,33.84694,0.2589386,0.1511918,0.2461449,-38.85834,-23.26008,-36.42604
91.540430546,15.32243,60.7121,31.82394,0.2425208,0.1058358,0.2579761,-38.85834,-23.26008,-36.42604
91.550290108,23.08692,58.5102699999999,30.65919,0.2135431,0.120194,0.2623439,-38.85834,-23.26008,-36.42604
91.560149193,30.29236,54.64219,28.9427,0.1941802,0.1316613,0.251695,-38.85834,-23.26008,-36.42604
91.570009231,36.69031,49.58393,28.14577,0.1763343,0.137297,0.2395377,-37.76438,-21.09354,-38.56692
91.579868317,42.9019,45.12076,27.16492,0.15598,0.1399639,0.2202032,-37.76438,-21.09354,-38.56692
91.589727878,49.11349,39.70545,25.75495,0.145824,0.1296535,0.2197817,-37.76438,-21.09354,-38.56692
91.599586964,55.32508,33.3975,24.34498,0.1352985,0.1333963,0.2046289,-37.76438,-21.09354,-38.56692
91.609446525,60.8534000000002,26.55397,22.7511,0.1254228,0.1401186,0.203868,-37.76438,-21.09354,-38.56692
91.621770382,67.0649899999999,16.735,21.95416,0.1134273,0.1550769,0.1984148,-35.90572,-20.39041,-39.4163
91.631629467,71.6615699999998,7.74915000000002,22.7511,0.1165031,0.161843,0.1787809,-35.90572,-20.39041,-39.4163
91.641488552,75.2642899999998,-0.4035742,21.46374,0.1075399,0.1856432,0.1882143,-35.90572,-20.39041,-39.4163
91.651348114,78.6806599999999,-9.44893200000001,22.07677,0.1354665,0.1834612,0.1892355,-35.90572,-20.39041,-39.4163
91.661207199,82.0970400000002,-18.91085,22.8124,0.1595341,0.1947953,0.1702993,-35.52397,-21.86732,-39.40315
91.671066761,85.9482300000002,-28.13474,24.34498,0.1833839,0.2047378,0.1700433,-35.52397,-21.86732,-39.40315
91.680925846,90.0478700000002,-36.70403,26.06146,0.2105422,0.2117483,0.1586938,-35.52397,-21.86732,-39.40315
91.690784931,94.3338800000001,-45.2138,28.14577,0.2349694,0.2197673,0.1632053,-35.52397,-21.86732,-39.40315
91.700644493,98.3714100000003,-54.73523,29.92355,0.2720139,0.2400757,0.1709951,-35.52397,-21.86732,-39.40315
91.710503578,100.6076,-64.6732299999999,32.74349,0.3105293,0.2584452,0.17731,-35.8657,-24.40529,-36.87828
91.72036314,100.6697,-74.4326900000001,36.48297,0.3501729,0.2982129,0.1775598,-35.8657,-24.40529,-36.87828
91.730222225,99.42738,-83.59706,40.95809,0.3893492,0.335053,0.1768332,-35.8657,-24.40529,-36.87828
91.74008131,98.9925699999998,-91.8093,45.73972,0.4369846,0.3641959,0.1797546,-35.8657,-24.40529,-36.87828
91.749941349,100.2349,-99.8430000000001,50.21484,0.4874505,0.3636884,0.1847814,-35.8657,-24.40529,-36.87828
91.759800911,101.7257,-108.6503,53.70911,0.5418872,0.3803199,0.2090643,-35.8657,-24.40529,-36.87828
91.769659996,101.5393,-118.5883,56.77427,0.5929549,0.4115835,0.2502907,-36.95325,-25.44333,-33.02035
91.779519081,98.12295,-128.6453,60.6363499999998,0.6429077,0.4471936,0.28534,-36.95325,-25.44333,-33.02035
91.789378643,91.1038500000002,-138.5833,64.3758299999999,0.6921595,0.49348,0.3142598,-36.95325,-25.44333,-33.02035
91.801702499,81.1652999999998,-149.2354,69.5252799999998,0.7645624,0.515251,0.3689988,-36.95325,-25.44333,-33.02035
91.811561584,73.9598500000001,-157.4476,73.3873699999999,0.828311,0.5062287,0.4077877,-40.94995,-27.09398,-27.09193
91.821421146,69.0527000000001,-163.0415,77.1881600000002,0.8804284,0.4808871,0.4044349,-40.94995,-27.09398,-27.09193
91.831280231,64.08343,-169.7065,82.1537000000003,0.9370198,0.4604872,0.4106442,-40.94995,-27.09398,-27.09193
91.841139317,59.3626099999999,-174.8243,85.7705800000001,1.004863,0.4471573,0.4589223,-40.94995,-27.09398,-27.09193
91.850998878,53.15102,-178.2163,90.79742,1.053858,0.4575118,0.5091065,-40.94995,-27.09398,-27.09193
91.860857964,44.88961,-183.9291,95.3951500000001,1.092897,0.4993304,0.5386134,-46.12895,-26.55849,-19.387
91.870717525,34.57837,-188.3328,99.7476699999999,1.150358,0.5409127,0.5913365,-46.12895,-26.55849,-19.387
91.880576611,22.65211,-190.7727,101.832,1.220856,0.5703577,0.6207698,-46.12895,-26.55849,-19.387
91.890435696,12.83779,-189.9395,102.3837,1.30434,0.5832564,0.6192096,-46.12895,-26.55849,-19.387
91.900295258,4.079449,-185.1193,103.855,1.358598,0.5889608,0.5849406,-46.12895,-26.55849,-19.387
91.910154343,-5.486402,-179.466,103.9776,1.406049,0.5524108,0.5882686,-50.19618,-23.88397,-11.38979
91.920014381,-13.43724,-170.5396,102.445,1.401904,0.4939932,0.5916682,-50.19618,-23.88397,-11.38979
91.929873466,-20.7048,-165.1243,97.9085699999997,1.395057,0.4307342,0.6080039,-50.19618,-23.88397,-11.38979
91.939733028,-26.48158,-162.4464,92.2073899999998,1.414397,0.3702196,0.6455535,-50.19618,-23.88397,-11.38979
91.949592113,-31.51297,-158.5783,86.3222999999999,1.421624,0.3290242,0.6728964,-50.19618,-23.88397,-11.38979
91.959451675,-36.29589,-153.1035,80.1920100000001,1.410999,0.2763747,0.6726035,-54.64783,-18.55961,-2.90556
91.971775532,-39.77439,-144.1176,72.9582499999998,1.385316,0.2264153,0.6466712,-54.64783,-18.55961,-2.90556
91.981634617,-39.33957,-138.1668,67.7475000000001,1.363323,0.1891209,0.6155219,-54.64783,-18.55961,-2.90556
91.991493702,-35.73685,-132.2159,63.3336799999999,1.34518,0.1581903,0.5853299,-54.64783,-18.55961,-2.90556
92.001353264,-29.09045,-125.8484,59.0424799999999,1.32741,0.1272305,0.5465067,-54.64783,-18.55961,-2.90556
92.011212349,-20.33211,-119.3619,54.32214,1.302403,0.08891118,0.508683,-56.8555,-15.86225,3.865099
92.021071911,-10.9526,-114.1847,48.62096,1.293088,0.05220605,0.474962,-56.8555,-15.86225,3.865099
92.030930996,-2.31849,-109.6025,41.69373,1.287986,0.03807949,0.4830619,-56.8555,-15.86225,3.865099
92.040790081,5.321767,-105.5559,34.8891,1.268851,0.0583999,0.4969237,-56.8555,-15.86225,3.865099
92.050649643,11.22278,-101.1522,28.51358,1.229827,0.07907867,0.5235311,-56.8555,-15.86225,3.865099
92.060508728,13.76953,-95.2608199999997,21.15722,1.181718,0.07838818,0.5826734,-57.21375,-11.36354,9.32697
92.07036829,17.37226,-86.9890699999998,15.76256,1.140605,0.09315323,0.5944055,-57.21375,-11.36354,9.32697
92.080227375,23.14903,-80.9191599999997,12.08438,1.120788,0.1313433,0.5739255,-57.21375,-11.36354,9.32697
92.090087414,26.00637,-76.5154999999999,10.4292,1.133567,0.1678198,0.5385905,-57.21375,-11.36354,9.32697
92.099946499,24.39135,-72.3498800000003,10.67441,1.154353,0.2083229,0.5199473,-57.21375,-11.36354,9.32697
92.109806061,19.91901,-67.8271899999998,12.14568,1.151654,0.2383639,0.4919665,-56.80614,-10.93021,14.31435
92.119665146,12.77568,-63.30452,13.98477,1.146628,0.2689053,0.4731279,-56.80614,-10.93021,14.31435
92.129524231,3.520406,-60.0910300000001,16.06907,1.113672,0.2908869,0.4435935,-56.80614,-10.93021,14.31435
92.141848087,-9.33758799999999,-56.87755,17.04992,1.096332,0.3077609,0.4425455,-56.80614,-10.93021,14.31435
92.151707649,-18.96556,-54.02113,15.76256,1.087732,0.3212766,0.4336773,-56.80614,-10.93021,14.31435
92.161566734,-28.0966,-50.56961,12.88132,1.071823,0.3274125,0.4205383,-56.04709,-9.056232,17.30028
92.171426296,-38.09726,-48.01072,9.75486500000002,1.042095,0.3319271,0.3970401,-56.04709,-9.056232,17.30028
92.181285381,-49.216,-46.22545,6.99623000000001,1.025306,0.3512643,0.4027137,-56.04709,-9.056232,17.30028
92.191144466,-61.7634200000002,-41.70277,2.766323,1.04718,0.3353081,0.3783073,-56.04709,-9.056232,17.30028
92.201004028,-73.5033299999998,-37.2396,0.4981124,1.064545,0.3168413,0.3438809,-56.04709,-9.056232,17.30028
92.210863113,-83.44187,-33.31202,-2.750947,1.04775,0.3015126,0.3185933,-55.28248,-8.287586,20.23351
92.220722675,-92.7592600000003,-30.03902,-5.93870199999998,1.040113,0.2454866,0.3191877,-55.28248,-8.287586,20.23351
92.23058176,-99.5920100000001,-25.09978,-7.226065,1.058776,0.1814968,0.3399456,-55.28248,-8.287586,20.23351
92.240441799,-102.3872,-17.66117,-8.32951900000003,1.086187,0.1486796,0.3479036,-55.28248,-8.287586,20.23351
92.250300884,-103.5674,-11.35322,-10.53643,1.081271,0.1364238,0.335411,-55.28248,-8.287586,20.23351
92.260160446,-104.8719,-6.17594099999999,-10.53643,1.069904,0.09736826,0.3285347,-54.52302,-9.389079,21.07314
92.270019531,-105.1824,-0.998663500000001,-7.164762,1.064722,0.04709008,0.2989531,-54.52302,-9.389079,21.07314
92.279878616,-102.2009,3.107453,-2.567038,1.044535,0.02135217,0.2309772,-54.52302,-9.389079,21.07314
92.289738178,-95.9271700000001,4.95223,-0.4214326,1.05029,0.04014204,0.1673203,-54.52302,-9.389079,21.07314
92.299597263,-88.7838399999999,5.84486400000001,0.0689914200000002,1.065111,0.06787178,0.1304447,-54.52302,-9.389079,21.07314
92.309456825,-84.1251500000001,6.26142599999997,-0.05361458,1.074551,0.1004367,0.09799939,-54.88747,-11.599,20.71361
92.321780682,-80.7087699999998,7.57062300000002,-1.708796,1.055151,0.1293341,0.06401743,-54.88747,-11.599,20.71361
92.331639767,-77.4166300000001,8.58227499999998,-2.934855,1.040624,0.1217881,0.03253362,-54.88747,-11.599,20.71361
92.341498852,-72.8821700000003,9.47490899999998,-5.203066,1.015012,0.1102838,0.009799992,-54.88747,-11.599,20.71361
92.351358414,-66.6084599999999,10.18902,-7.65518600000002,0.9997099,0.09936953,-0.009721209,-54.88747,-11.599,20.71361
92.361217499,-59.2787799999998,10.48656,-9.003853,0.9985126,0.09636904,-0.02841824,-54.88186,-13.82035,19.84004
92.371077061,-51.63853,10.7246,-8.94255000000001,0.9908863,0.1069628,-0.04020013,-54.88186,-13.82035,19.84004
92.380936146,-44.80577,10.90312,-7.40997399999998,0.9866071,0.1273293,-0.04907205,-54.88186,-13.82035,19.84004
92.390796185,-39.96073,11.3792,-5.019157,0.9671265,0.1602451,-0.04947501,-54.88186,-13.82035,19.84004
92.40065527,-37.22763,12.0933,-3.118764,0.9578915,0.1937322,-0.05145678,-54.88186,-13.82035,19.84004
92.410514832,-35.61262,13.04545,-1.954008,0.9426728,0.2033471,-0.04684594,-54.88177,-16.0524,18.1983
92.420373917,-31.57509,13.64053,-1.892705,0.9363399,0.2072042,-0.04145193,-54.88177,-16.0524,18.1983
92.430233002,-25.05292,14.65219,-3.793097,0.9317577,0.1960199,-0.02854263,-54.88177,-16.0524,18.1983
92.440092564,-16.66727,15.18777,-8.636034,0.9350281,0.2073708,0.006008913,-54.88177,-16.0524,18.1983
92.449951649,-7.66045899999998,16.85402,-18.44451,0.9562858,0.2330083,0.04473746,-54.88177,-16.0524,18.1983
92.459811211,0.725189899999998,17.98469,-32.72811,0.9801294,0.2655426,0.09978013,-55.26751,-14.95522,17.35674
92.469670296,7.74428800000002,22.44786,-49.21862,1.028958,0.2859674,0.1107574,-55.26751,-14.95522,17.35674
92.479529381,11.22278,27.50612,-65.0348000000001,1.059509,0.3027636,0.1056717,-55.26751,-14.95522,17.35674
92.489388943,13.08626,30.89812,-76.9275699999997,1.057562,0.3128667,0.07942874,-55.26751,-14.95522,17.35674
92.501712799,13.58318,29.64844,-85.8778200000002,1.042742,0.3146486,0.0705502,-55.26751,-14.95522,17.35674
92.511571884,12.0924,24.82821,-90.47554,1.05512,0.319193,0.08526733,-54.89098,-16.07022,16.91803
92.521431446,9.918345,21.67424,-95.2571700000002,1.095903,0.3591507,0.1334224,-54.89098,-16.07022,16.91803
92.531290531,7.30947700000003,22.68589,-100.2227,1.120542,0.4164057,0.1608688,-54.89098,-16.07022,16.91803
92.54115057,4.390029,25.48281,-107.2726,1.137132,0.4648755,0.2003358,-54.89098,-16.07022,16.91803
92.551009655,2.40232,29.70795,-116.2228,1.142749,0.5136779,0.2246276,-54.89098,-16.07022,16.91803
92.560869217,1.284233,35.06375,-126.8895,1.130148,0.5549628,0.2337812,-53.38916,-20.16651,14.83932
92.570728302,0.600958099999998,38.57478,-137.8627,1.105042,0.5980142,0.2244391,-53.38916,-20.16651,14.83932
92.580587387,-1.510983,42.44286,-147.4873,1.086352,0.6489493,0.2260938,-53.38916,-20.16651,14.83932
92.590446949,-2.00791,38.81281,-152.6981,1.04136,0.7233359,0.1851933,-53.38916,-20.16651,14.83932
92.600306034,-3.871388,37.26558,-159.1962,1.019154,0.7567736,0.2006471,-53.38916,-20.16651,14.83932
92.610165596,-7.66045899999998,34.94473,-163.7939,0.9787505,0.7661002,0.1878841,-52.6248,-24.97888,13.6042
92.620024681,-11.57376,33.09996,-167.9012,0.9588487,0.7965899,0.1903419,-52.6248,-24.97888,13.6042
92.629883766,-15.67341,31.13616,-172.8668,0.9089086,0.8252942,0.1769199,-52.6248,-24.97888,13.6042
92.639743328,-22.19558,26.97054,-178.8132,0.8837835,0.872734,0.1700112,-52.6248,-24.97888,13.6042
92.649602413,-30.76758,23.45951,-186.4147,0.8768862,0.9553877,0.1674526,-52.6248,-24.97888,13.6042
92.659461975,-42.5696,20.90063,-192.9741,0.8849061,1.031893,0.1770888,-49.23338,-32.34249,11.99724
92.671785831,-60.5211,21.55522,-199.1044,0.9092413,1.125055,0.1780073,-49.23338,-32.34249,11.99724
92.681645393,-74.4350700000003,20.78161,-204.8056,0.9169704,1.164508,0.1696046,-49.23338,-32.34249,11.99724
92.691504955,-86.8582499999997,20.96013,-211.0585,0.9191917,1.132866,0.1611595,-49.23338,-32.34249,11.99724
92.70136404,-95.4923599999999,20.84112,-214.6754,0.8805099,1.060391,0.1309096,-49.23338,-32.34249,11.99724
92.711223602,-97.41795,18.87732,-218.231,0.8457301,0.9641596,0.1147795,-43.9742,-40.16341,9.936927
92.721082687,-93.1940699999999,17.44911,-222.4609,0.799716,0.881992,0.1123459,-43.9742,-40.16341,9.936927
92.730941772,-83.75246,16.67549,-227.3038,0.7731081,0.8637741,0.1183218,-43.9742,-40.16341,9.936927
92.740801334,-72.38524,13.10495,-233.2502,0.7653546,0.9279013,0.1084311,-43.9742,-40.16341,9.936927
92.750660419,-62.1361200000001,9.89147200000003,-240.0548,0.7913434,1.002712,0.1427152,-43.9742,-40.16341,9.936927
92.760519981,-56.79415,9.41540100000002,-245.2656,0.8187776,1.076065,0.1740912,-36.17947,-47.98722,5.366245
92.770379066,-55.24125,12.15281,-249.802,0.789332,1.138624,0.1865397,-36.17947,-47.98722,5.366245
92.780238151,-56.9805,12.56937,-252.0089,0.7279066,1.149233,0.1760039,-36.17947,-47.98722,5.366245
92.790097713,-58.0364600000001,12.68839,-252.7446,0.6915445,1.093479,0.1870732,-36.17947,-47.98722,5.366245
92.799956799,-58.7197400000003,11.55772,-253.6028,0.6811301,0.9907367,0.1940217,-36.17947,-47.98722,5.366245
92.80981636,-53.31565,11.08165,-255.258,0.618811,0.9963436,0.1494333,-26.07302,-55.51394,1.996772
92.819675446,-44.37096,7.451605,-261.2657,0.5966661,1.043199,0.1094124,-26.07302,-55.51394,1.996772
92.829534531,-36.23378,1.560221,-268.9899,0.5767435,1.115535,0.1112652,-26.07302,-55.51394,1.996772
92.839394093,-35.05358,-2.248351,-275.7945,0.5892507,1.167339,0.1412345,-26.07302,-55.51394,1.996772
92.851718426,-39.52592,-5.10478,-279.1662,0.5601848,1.174837,0.1330864,-26.07302,-55.51394,1.996772
92.861577988,-45.11636,-8.31826200000003,-280.76,0.5258068,1.137037,0.1260694,-13.78932,-60.83912,-0.126317
92.871437073,-49.52658,-11.41273,-281.8635,0.4925368,1.072918,0.1053969,-13.78932,-60.83912,-0.126317
92.881296158,-50.39621,-16.82804,-284.2543,0.4455132,1.016962,0.0878645,-13.78932,-60.83912,-0.126317
92.89115572,-51.32795,-22.89795,-283.8865,0.4276693,0.9214528,0.09450077,-13.78932,-60.83912,-0.126317
92.901014805,-53.12931,-28.13474,-280.76,0.4205494,0.8455569,0.1155257,-13.78932,-60.83912,-0.126317
92.910874367,-56.91838,-31.05067,-274.2619,0.395658,0.8113116,0.1256546,0.7825165,-63.24664,-2.355495
92.920733452,-62.6330400000001,-32.77644,-265.3117,0.3620042,0.8125059,0.1342908,0.7825165,-63.24664,-2.355495
92.930592537,-69.0930900000001,-34.44268,-257.7101,0.3543029,0.7909904,0.124635,0.7825165,-63.24664,-2.355495
92.940452099,-74.9941099999997,-35.8709,-250.7216,0.3510404,0.7812417,0.1279536,0.7825165,-63.24664,-2.355495
92.950311184,-79.83915,-35.45434,-243.3039,0.3456279,0.7389797,0.1602596,0.7825165,-63.24664,-2.355495
92.960170746,-85.0568799999997,-34.26416,-235.2119,0.3302713,0.6838915,0.1695976,14.88475,-61.62176,-6.224244
92.970029831,-86.2992100000003,-31.40773,-225.8938,0.3072038,0.6015615,0.1994211,14.88475,-61.62176,-6.224244
92.979888916,-84.0009199999997,-28.90835,-216.2693,0.2738751,0.5336555,0.2069902,14.88475,-61.62176,-6.224244
92.989748478,-76.1743099999999,-26.70652,-206.5834,0.2616307,0.4587616,0.2477438,14.88475,-61.62176,-6.224244
92.999608517,-66.6084599999999,-23.67157,-196.5297,0.2577859,0.409706,0.2814078,14.88475,-61.62176,-6.224244
93.009467602,-57.29107,-19.62496,-185.8017,0.2250602,0.3657598,0.3184017,26.7293,-56.65231,-9.731254
93.021791458,-47.41464,-13.67407,-169.679,0.1680303,0.3045534,0.3517627,26.7293,-56.65231,-9.731254
93.031650543,-42.25902,-11.8888,-158.0314,0.117339,0.329055,0.3871943,26.7293,-56.65231,-9.731254
93.041510105,-46.97983,-11.17469,-144.5448,0.1586727,0.3282935,0.4757299,26.7293,-56.65231,-9.731254
93.05136919,-60.0241699999997,-4.985762,-127.6251,0.1845394,0.2899885,0.5809411,26.7293,-56.65231,-9.731254
93.061228752,-67.6644300000002,6.91602500000001,-102.2457,0.06615525,0.2502348,0.5108921,35.64751,-51.27467,-12.77881
93.071087837,-66.1736500000003,8.403749,-85.0195700000003,-0.05369459,0.2580445,0.4110759,35.64751,-51.27467,-12.77881
93.080946922,-61.8876500000001,5.011739,-70.7972799999999,-0.09941693,0.1875423,0.4044237,35.64751,-51.27467,-12.77881
93.090806484,-56.9805,5.368793,-53.32592,-0.1244059,0.1154578,0.4458619,35.64751,-51.27467,-12.77881
93.100665569,-47.91157,5.130757,-37.57105,-0.1718902,0.07415225,0.4433149,35.64751,-51.27467,-12.77881
93.110525131,-31.76143,2.631382,-25.24915,-0.2345528,0.08565493,0.4145947,40.46458,-46.63651,-15.02878
93.120384216,-13.74782,-1.355717,-14.33721,-0.2854885,0.1202044,0.4050698,40.46458,-46.63651,-15.02878
93.130243301,0.663074000000001,-5.342815,-2.996159,-0.3236155,0.1817445,0.4257798,40.46458,-46.63651,-15.02878
93.140102863,7.620056,-8.25875400000001,9.50965299999998,-0.3380616,0.2367144,0.4552016,40.46458,-46.63651,-15.02878
93.149962902,6.129274,-10.34157,23.11892,-0.3498905,0.2585554,0.4680137,40.46458,-46.63651,-15.02878
93.159821987,1.160001,-13.49554,36.91209,-0.2890649,0.1900298,0.347727,41.87241,-43.72481,-16.28261
93.169681072,-4.181968,-10.16304,47.45621,-0.3077961,0.177048,0.4336611,41.87241,-43.72481,-16.28261
93.179540634,-4.865242,-9.09187900000003,63.8240999999998,-0.3042355,0.152488,0.4937822,41.87241,-43.72481,-16.28261
93.189399719,0.725189899999998,-7.84219100000002,81.29546,-0.3296186,0.1288434,0.4771724,41.87241,-43.72481,-16.28261
93.201723576,18.86304,-8.615807,96.8051100000001,-0.3033521,0.1115937,0.4867157,41.87241,-43.72481,-16.28261
93.211583138,39.85822,-4.807235,108.3914,-0.2668198,0.08662132,0.4888594,42.62388,-44.46973,-16.27893
93.221442223,59.42473,2.274328,119.3033,-0.2287236,0.08645377,0.4840023,42.62388,-44.46973,-16.27893
93.231301308,78.1216199999999,10.07,131.38,-0.1738729,0.105021,0.504462,42.62388,-44.46973,-16.27893
93.24116087,95.1413799999998,17.86567,140.3916,-0.1208627,0.1780151,0.5095937,42.62388,-44.46973,-16.27893
93.251019955,110.7325,29.94598,151.1809,-0.04538144,0.2293644,0.5290776,42.62388,-44.46973,-16.27893
93.260879517,121.4164,42.56188,164.361,-0.02238815,0.2888617,0.5096049,38.97381,-47.29329,-14.95013
93.270739079,125.8888,53.86858,179.8707,0.01867124,0.3159337,0.4948722,38.97381,-47.29329,-14.95013
93.280598641,123.6526,62.0213000000001,195.6255,0.0710515,0.3512898,0.4565672,38.97381,-47.29329,-14.95013
93.290457726,115.3912,69.9955,212.3,0.1277789,0.3594636,0.4261173,38.97381,-47.29329,-14.95013
93.300317288,104.1482,77.9101899999999,231.4265,0.1831562,0.3248291,0.4025134,38.97381,-47.29329,-14.95013
93.310176373,94.4581099999999,83.0279500000002,250.9209,0.2043264,0.3044132,0.3584322,34.18577,-52.30928,-8.982955
93.320035458,89.9236500000001,85.2892899999997,269.557,0.2244577,0.2869008,0.3124736,34.18577,-52.30928,-8.982955
93.32989502,88.4949799999999,84.9322400000001,287.2122,0.2409367,0.312257,0.2875343,34.18577,-52.30928,-8.982955
93.339754105,95.01715,82.8494300000003,301.3119,0.3426809,0.2954448,0.2356264,34.18577,-52.30928,-8.982955
93.349613667,112.0369,83.5635300000002,314.7373,0.3714117,0.3155451,0.2075929,34.18577,-52.30928,-8.982955
93.359472752,121.4164,76.9580400000002,330.2469,0.3532598,0.5434021,0.1532291,23.79506,-58.37032,-3.359581
93.371796608,128.7461,73.0304499999998,350.7834,0.4801737,0.7690647,0.079528,23.79506,-58.37032,-3.359581
93.381655693,129.1809,75.4703099999999,367.1513,0.6079699,0.9798439,0.05744226,23.79506,-58.37032,-3.359581
93.391515255,128.0628,82.6113900000001,371.5038,0.7796249,1.275293,0.06132275,23.79506,-58.37032,-3.359581
93.401375294,116.2608,91.1211699999999,367.5805,1.035771,1.286267,0.3064692,23.79506,-58.37032,-3.359581
93.411234379,75.4506399999997,78.86233,353.5421,1.153268,1.384085,0.2907649,8.981046,-62.52172,3.548074
93.421093464,47.37424,69.93599,333.2508,1.09277,1.465646,0.1236372,8.981046,-62.52172,3.548074
93.430953026,20.72651,64.4016599999999,307.6261,0.9467872,1.362174,0.1262822,8.981046,-62.52172,3.548074
93.440812111,-17.72324,60.5335699999998,313.3273,0.7307764,1.081159,0.1830557,8.981046,-62.52172,3.548074
93.450671673,-44.49519,51.72625,329.5113,0.6633363,0.6834038,0.1614921,8.981046,-62.52172,3.548074
93.460530758,-47.78734,35.30179,356.7298,0.7156207,0.3380207,0.06822176,-9.625971,-61.52935,6.581427
93.470389843,-27.04062,17.74665,373.0364,0.9103391,0.1995474,0.05421472,-9.625971,-61.52935,6.581427
93.480249405,-5.113706,5.90437299999999,384.3162,1.104378,0.1998374,-0.06691065,-9.625971,-61.52935,6.581427
93.49010849,24.9504,-8.97285999999998,391.0595,1.386784,0.1995316,-0.1662989,-9.625971,-61.52935,6.581427
93.499968052,58.86569,-27.53965,392.6534,1.647273,0.2458456,-0.1097207,-9.625971,-61.52935,6.581427
93.509827137,85.1407200000002,-32.12184,385.1131,1.77783,0.4417364,-0.0859683,-25.66888,-56.57547,5.398884
93.519686222,95.9488899999999,-29.38443,372.7912,1.865939,0.6664404,-0.06424294,-25.66888,-56.57547,5.398884
93.529545784,90.9174999999997,-22.30286,362.6762,1.916731,0.8415999,-0.06013422,-25.66888,-56.57547,5.398884
93.539404869,72.2206099999999,-10.46058,354.1551,1.887757,1.013386,0.01121242,-25.66888,-56.57547,5.398884
93.551729679,35.94492,0.370042,336.6224,1.710264,1.02426,-0.04367002,-25.66888,-56.57547,5.398884
93.561588764,11.59548,2.512363,311.7334,1.547126,0.9341626,-0.06750284,-42.47238,-44.2597,7.858222
93.571447849,-2.070026,-1.474735,278.5685,1.416906,0.7367682,-0.1037319,-42.47238,-44.2597,7.858222
93.581307411,-5.67275,-6.11643200000001,242.3997,1.313342,0.5590701,-0.1411331,-42.47238,-44.2597,7.858222
93.591166496,-2.442722,-13.07898,205.0662,1.253472,0.3876607,-0.1618528,-42.47238,-44.2597,7.858222
93.601026058,7.55793999999999,-22.06483,172.3304,1.238525,0.2415259,-0.1667066,-42.47238,-44.2597,7.858222
93.610885143,22.27941,-31.52675,149.1579,1.281341,0.1680359,-0.1411019,-52.25723,-29.39752,9.485991
93.620744228,35.26164,-40.33407,134.9969,1.343989,0.1385998,-0.09336486,-52.25723,-29.39752,9.485991
93.63060379,43.58517,-45.98742,126.4145,1.418289,0.1302363,-0.03363608,-52.25723,-29.39752,9.485991
93.640462875,49.921,-45.92791,121.0198,1.438242,0.1471192,0.00934997,-52.25723,-29.39752,9.485991
93.650322437,54.89027,-45.03527,114.2765,1.375947,0.1947203,0.003451562,-52.25723,-29.39752,9.485991
93.660181522,60.0458900000001,-44.38068,105.8167,1.320154,0.247789,0.012841,-56.04442,-19.096,10.23254
93.670040607,64.5182299999999,-43.90461,98.0924800000002,1.282194,0.2771537,0.01746344,-56.04442,-19.096,10.23254
93.679900169,69.3011599999998,-42.41688,92.4526099999997,1.272173,0.3087342,0.02793597,-56.04442,-19.096,10.23254
93.689760208,73.7735099999999,-40.57211,87.9774900000002,1.272148,0.3311855,0.04585619,-56.04442,-19.096,10.23254
93.699619293,76.9414200000003,-37.95371,85.1575500000002,1.262575,0.3612939,0.05199711,-56.04442,-19.096,10.23254
93.709478378,78.6806599999999,-35.45434,83.3184599999997,1.233526,0.3712376,0.04722387,-56.8061,-12.04624,13.49348
93.721802235,81.10319,-31.94331,82.2150000000001,1.197808,0.3781076,0.01712214,-56.8061,-12.04624,13.49348
93.731661797,84.8922599999999,-30.09853,81.17285,1.162132,0.3776658,-0.01639626,-56.8061,-12.04624,13.49348
93.741520882,89.6130699999997,-28.90835,80.3146099999998,1.13106,0.3743916,-0.03754503,-56.8061,-12.04624,13.49348
93.751380444,93.4021400000002,-28.01572,79.5789699999999,1.1043,0.392612,-0.04659384,-56.8061,-12.04624,13.49348
93.761239529,94.8308000000001,-27.06358,79.4563700000002,1.080474,0.4201348,-0.04745959,-56.81501,-7.599064,15.56069
93.771098614,93.52637,-26.17094,80.1307,1.062139,0.442854,-0.04461054,-56.81501,-7.599064,15.56069
93.780958176,89.6751800000001,-25.51634,81.3567700000002,1.04576,0.4568023,-0.04953057,-56.81501,-7.599064,15.56069
93.790817261,84.8922599999999,-24.62371,83.44106,1.02383,0.4532137,-0.04637311,-56.81501,-7.599064,15.56069
93.800676823,79.4260600000002,-25.39733,85.5253699999999,0.9914474,0.4400712,-0.1006512,-56.81501,-7.599064,15.56069
93.810536385,73.0281100000002,-24.44518,86.1997000000002,0.9915623,0.4398861,-0.02062812,-56.09938,-0.6626678,16.31799
93.820395946,66.87864,-24.50469,87.9774900000002,0.9745333,0.4470842,-0.007386283,-56.09938,-0.6626678,16.31799
93.830255032,61.2882099999998,-23.01697,88.7744199999997,0.9572754,0.4411702,0.01341535,-56.09938,-0.6626678,16.31799
93.840114593,56.5674,-22.60041,87.11925,0.9532497,0.4358682,0.03642955,-56.09938,-0.6626678,16.31799
93.849973679,52.84044,-21.82679,83.8701899999998,0.9550838,0.4330564,0.06081886,-56.09938,-0.6626678,16.31799
93.859832764,48.98926,-20.99367,79.7015799999999,0.9605381,0.4306838,0.06407549,-54.99584,3.754629,17.16314
93.869692326,45.44865,-19.9225,74.7360399999998,0.9557884,0.4336103,0.07710627,-54.99584,3.754629,17.16314
93.879551411,41.16265,-19.56545,67.8087999999999,0.9505213,0.4350599,0.08677756,-54.99584,3.754629,17.16314
93.889410973,36.69031,-19.44643,59.7168100000003,0.9449589,0.4311898,0.1059922,-54.99584,3.754629,17.16314
93.901734829,31.2241,-19.56545,47.64012,0.9349085,0.421886,0.1142033,-54.27654,10.01609,17.92735
93.911593914,26.81387,-19.56545,36.48297,0.9398837,0.4050004,0.1413042,-54.27654,10.01609,17.92735
93.921453953,22.83846,-19.62496,25.20322,0.9436267,0.3792456,0.1419919,-54.27654,10.01609,17.92735
93.931313038,19.79478,-19.74398,14.16868,0.9521012,0.3345827,0.1501198,-54.27654,10.01609,17.92735
93.9411726,18.98727,-18.97036,3.31805,0.9655411,0.296331,0.1692526,-54.27654,10.01609,17.92735
93.951031685,22.09306,-16.76853,-8.57473199999998,0.9710113,0.244299,0.1658603,-53.1694,12.58017,17.89517
93.96089077,28.30466,-15.8759,-20.2836,0.9764412,0.2000671,0.1663681,-53.1694,12.58017,17.89517
93.970750332,34.14355,-16.05442,-30.95033,0.9795923,0.2136899,0.1582917,-53.1694,12.58017,17.89517
93.980609417,36.50396,-17.18509,-39.96186,0.9775519,0.2525717,0.1505025,-53.1694,12.58017,17.89517
93.990468979,36.56607,-17.78018,-47.68604,0.9838499,0.2856747,0.1391914,-53.1694,12.58017,17.89517
94.000328064,34.7026,-17.8992,-55.65543,0.9956991,0.3071565,0.130099,-53.1694,12.58017,17.89517
94.010187149,31.34834,-18.61331,-64.4217700000002,1.008493,0.3276608,0.1176305,-53.91367,13.71107,19.16799
94.020046711,27.6835,-18.73233,-72.7589700000001,1.043555,0.3308567,0.1085322,-53.91367,13.71107,19.16799
94.029905796,24.45347,-18.37527,-81.0961800000003,1.074391,0.3247875,0.1042079,-53.91367,13.71107,19.16799
94.039765358,21.96883,-18.91085,-89.0655700000002,1.096714,0.3172591,0.120119,-53.91367,13.71107,19.16799
94.049624443,19.17362,-19.2084,-96.4219300000002,1.112989,0.3340395,0.1444678,-53.91367,13.71107,19.16799
94.059483528,13.70742,-19.26791,-102.4909,1.130934,0.3722373,0.1665775,-53.53192,12.23416,19.18114
94.06934309,5.383883,-18.91085,-107.9469,1.187017,0.416138,0.1920255,-53.53192,12.23416,19.18114
94.081667423,-10.14509,-17.36362,-113.0963,1.267458,0.4704796,0.2191312,-53.53192,12.23416,19.18114
94.091526985,-27.7239,-16.17344,-117.6328,1.327868,0.5295327,0.2523125,-53.53192,12.23416,19.18114
94.10138607,-48.90543,-16.11393,-122.537,1.368428,0.5761266,0.2540445,-54.25253,7.830367,19.61434
94.111245155,-73.5033299999998,-14.20965,-126.6443,1.38905,0.5898653,0.2356569,-54.25253,7.830367,19.61434
94.121104717,-102.0145,-11.41273,-129.9547,1.362851,0.5651468,0.1941314,-54.25253,7.830367,19.61434
94.130963802,-134.1285,-10.5796,-133.0811,1.33924,0.5273084,0.1514998,-54.25253,7.830367,19.61434
94.140823364,-166.6772,-10.87715,-134.7363,1.344497,0.4799626,0.1007094,-54.25253,7.830367,19.61434
94.150682449,-196.4307,-11.29371,-135.1654,1.35151,0.4039069,0.04581801,-55.33439,2.338919,20.95697
94.160541534,-221.0907,-10.04402,-134.1233,1.374581,0.2866056,-0.01587989,-55.33439,2.338919,20.95697
94.170401096,-237.7999,-7.90170000000001,-131.7937,1.41354,0.1884154,-0.07955975,-55.33439,2.338919,20.95697
94.180260181,-251.4033,-5.759378,-126.3991,1.475057,0.1342456,-0.1364808,-55.33439,2.338919,20.95697
94.190119743,-260.4722,-3.021967,-119.5332,1.579354,0.06342751,-0.1922353,-55.33439,2.338919,20.95697
94.199979305,-262.1494,-1.236699,-108.989,1.676051,0.003698983,-0.2573719,-54.53707,-6.812046,21.04674
94.209838867,-257.2422,0.310533,-95.2571700000002,1.683174,-0.02496744,-0.2625073,-54.53707,-6.812046,21.04674
94.219697952,-245.3159,5.071248,-82.99657,1.602763,-0.04170691,-0.2543145,-54.53707,-6.812046,21.04674
94.229557514,-228.6689,9.53441800000002,-73.9237300000001,1.482807,-0.0374277,-0.2573608,-54.53707,-6.812046,21.04674
94.239416599,-210.4689,9.41540100000002,-64.6056700000003,1.367531,0.0001688101,-0.210835,-54.53707,-6.812046,21.04674
94.251740456,-191.1509,9.65343599999998,-57.3106100000001,1.298833,0.05760084,-0.175348,-53.75456,-17.1698,18.20382
94.261599541,-179.0383,8.76080199999998,-53.93895,1.259364,0.07291738,-0.150217,-53.75456,-17.1698,18.20382
94.271459103,-169.1618,7.154061,-51.54813,1.173524,0.07613412,-0.1278816,-53.75456,-17.1698,18.20382
94.281318188,-161.7079,4.714194,-49.95425,1.064592,0.05288945,-0.1001693,-53.75456,-17.1698,18.20382
94.29117775,-155.869,1.976783,-47.99256,0.9725339,0.02839636,-0.055936,-53.75456,-17.1698,18.20382
94.301037312,-151.6451,-1.236699,-45.35653,0.896701,0.01662827,-0.03051534,-52.61966,-23.10875,15.6978
94.310896874,-148.9742,-4.688217,-42.7818,0.8461028,0.02504485,-0.002408788,-52.61966,-23.10875,15.6978
94.320755959,-148.0424,-7.66366400000002,-41.06532,0.8337707,0.03383059,0.03378108,-52.61966,-23.10875,15.6978
94.330615521,-148.4772,-9.270405,-38.98102,0.8295298,0.05371989,0.02730058,-52.61966,-23.10875,15.6978
94.340474606,-148.8499,-10.75813,-36.77411,0.8392424,0.06843303,0.03495352,-52.61966,-23.10875,15.6978
94.350333691,-149.7817,-11.94831,-34.5672,0.8523835,0.06901912,0.03045837,-51.50186,-27.53067,11.95981
94.360193253,-151.3967,-12.60291,-32.60551,0.847724,0.06708917,0.04584288,-51.50186,-27.53067,11.95981
94.370052338,-153.1359,-13.07898,-31.68596,0.8213936,0.07713243,0.06115809,-51.50186,-27.53067,11.95981
94.3799119,-155.4342,-13.37652,-31.31814,0.7772347,0.09574573,0.06817415,-51.50186,-27.53067,11.95981
94.389770985,-157.7946,-11.71027,-31.25684,0.7512228,0.1091622,0.07392931,-51.50186,-27.53067,11.95981
94.39963007,-158.0431,-7.96120899999999,-31.86987,0.7395626,0.09589901,0.06823317,-50.38175,-31.26608,9.047091
94.409489632,-153.695,-3.081476,-32.91202,0.7398231,0.05252112,0.04917458,-50.38175,-31.26608,9.047091
94.421813965,-141.396,2.274328,-34.32199,0.7515649,0.00722039,0.009330572,-50.38175,-31.26608,9.047091
94.431673527,-125.9913,6.43995299999998,-35.24154,0.7799098,-0.0291533,-0.02492435,-50.38175,-31.26608,9.047091
94.441532612,-106.6111,10.60558,-35.24154,0.7948642,-0.06764893,-0.0743407,-50.38175,-31.26608,9.047091
94.451391697,-84.0630300000001,13.87857,-34.07678,0.7882662,-0.08876702,-0.1103648,-49.64464,-33.89896,5.676889
94.461251259,-60.8937999999998,15.12826,-31.56335,0.7453182,-0.09364882,-0.1428587,-49.64464,-33.89896,5.676889
94.471110344,-40.27131,14.23562,-27.02693,0.7028418,-0.05361444,-0.1371234,-49.64464,-33.89896,5.676889
94.480969906,-23.25155,12.80741,-20.89663,0.6708337,0.022072,-0.1216525,-49.64464,-33.89896,5.676889
94.490828991,-10.08298,11.4387,-14.45982,0.6449447,0.08225816,-0.1016076,-49.64464,-33.89896,5.676889
94.500688076,0.04191487,9.89147200000003,-9.37167100000003,0.6336401,0.1357131,-0.09428658,-48.5306,-35.4139,3.573721
94.510547638,8.05486800000002,9.05834700000001,-6.73564099999998,0.631797,0.1635571,-0.06143977,-48.5306,-35.4139,3.573721
94.520406723,13.08626,7.80865900000001,-2.444432,0.6473663,0.1800534,0.01850386,-48.5306,-35.4139,3.573721
94.530266285,15.01185,13.28348,-4.773945,0.6255386,0.2134639,0.02580571,-48.5306,-35.4139,3.573721
94.54012537,12.58933,16.13991,-3.118764,0.6082166,0.2678013,0.02315677,-48.5306,-35.4139,3.573721
94.549984455,7.37159299999998,19.47241,-1.524887,0.6107555,0.2737082,0.03515042,-48.15884,-36.1661,2.747151
94.559844494,4.452145,23.10246,1.540263,0.601869,0.2443135,0.003401843,-48.15884,-36.1661,2.747151
94.569703579,5.694463,24.64969,4.666717,0.602246,0.2004806,-0.007515841,-48.15884,-36.1661,2.747151
94.579563141,10.66374,25.60183,8.16098699999997,0.6275182,0.1636886,-0.01633292,-48.15884,-36.1661,2.747151
94.589422226,18.7388,25.30429,11.77786,0.6417745,0.1472344,-0.02577977,-48.15884,-36.1661,2.747151
94.601746082,31.9695,25.00674,16.86601,0.6542978,0.148756,-0.0388838,-47.79108,-36.182,1.91304
94.611605644,43.08825,24.82821,20.97331,0.6489418,0.1604329,-0.02672893,-47.79108,-36.182,1.91304
94.621464729,53.71007,24.17362,24.16107,0.6580901,0.1770732,-0.02288529,-47.79108,-36.182,1.91304
94.631324291,62.5926399999998,23.57853,26.06146,0.6736033,0.2113476,-0.003169957,-47.79108,-36.182,1.91304
94.641183376,68.7421199999997,24.29263,26.42928,0.680558,0.2397556,0.02955623,-47.79108,-36.182,1.91304
94.651042461,72.4069599999998,27.03004,25.08061,0.6674634,0.2484591,0.0456299,-47.78832,-36.17665,2.297123
94.6609025,75.3885200000003,30.7196,21.64765,0.6418391,0.2506217,0.03403337,-47.78832,-36.17665,2.297123
94.670762062,79.55029,34.40915,16.6821,0.6209396,0.2294804,0.02552723,-47.78832,-36.17665,2.297123
94.680621147,84.8301399999999,36.55148,10.85832,0.5939958,0.2005609,0.03333438,-47.78832,-36.17665,2.297123
94.690480232,89.3645999999997,37.08706,5.586261,0.5763969,0.1842969,0.02003036,-47.78832,-36.17665,2.297123
94.700339794,95.8867699999998,36.19442,2.214596,0.59559,0.1760635,-0.01481503,-48.91634,-34.31673,2.732162
94.710198879,104.1482,32.92143,2.398505,0.631983,0.1748394,-0.03786643,-48.91634,-34.31673,2.732162
94.720058441,112.4717,28.16072,4.360201,0.6918487,0.1632149,-0.03498417,-48.91634,-34.31673,2.732162
94.729917526,119.9256,23.63803,8.71271399999999,0.7343113,0.1743052,-0.03262058,-48.91634,-34.31673,2.732162
94.739776611,126.1372,19.53192,13.00392,0.7444031,0.1938736,-0.02876567,-48.91634,-34.31673,2.732162
94.749636173,132.6594,14.7117,16.06907,0.737902,0.2113531,-0.0237335,-48.90914,-33.93076,4.008667
94.759495258,140.4239,8.64178400000002,17.17253,0.7391637,0.2523184,-0.002800188,-48.90914,-33.93076,4.008667
94.771820068,147.0703,1.203167,18.15338,0.8005584,0.3162645,0.0352004,-48.90914,-33.93076,4.008667
94.781679153,147.8157,-2.605405,18.82771,0.853606,0.375734,0.0670526,-48.90914,-33.93076,4.008667
94.791538238,145.2689,-4.093128,17.54035,0.8951908,0.4146733,0.1012909,-48.90914,-33.93076,4.008667
94.8013978,140.9829,-2.962458,15.88517,0.9203939,0.3969024,0.1041361,-50.01439,-33.51492,6.50723
94.811256885,136.5106,-1.891297,16.4982,0.9395707,0.3697588,0.08734093,-50.01439,-33.51492,6.50723
94.821116447,132.4731,-1.950806,18.5825,1.012231,0.3576451,0.05936795,-50.01439,-33.51492,6.50723
94.830975532,129.6778,-3.736075,24.40628,1.151273,0.3563313,0.0295816,-50.01439,-33.51492,6.50723
94.840834618,127.8765,-7.18759300000001,35.62473,1.323091,0.3639609,-0.02838998,-50.01439,-33.51492,6.50723
94.85069418,126.8205,-10.04402,51.3183,1.509443,0.392809,-0.04230329,-49.99481,-31.98887,10.33298
94.860553265,125.3297,-13.13849,68.36053,1.645093,0.3992856,-0.06287076,-49.99481,-31.98887,10.33298
94.870412827,124.5843,-16.35197,83.9314900000003,1.679338,0.4010541,-0.06142711,-49.99481,-31.98887,10.33298
94.880271912,125.8888,-20.81514,93.6173600000001,1.641518,0.3900712,-0.04612559,-49.99481,-31.98887,10.33298
94.890130997,130.2369,-27.30161,97.1729400000001,1.601077,0.3795051,-0.04324238,-49.99481,-31.98887,10.33298
94.899991035,134.585,-34.32367,96.4986,1.573304,0.3672191,-0.009885468,-51.1101,-29.73229,12.81269
94.909850121,136.2621,-40.09604,92.5139100000002,1.535269,0.3831626,0.04925351,-51.1101,-29.73229,12.81269
94.919709682,132.1004,-44.79724,87.9774900000002,1.468823,0.3949379,0.1020535,-51.1101,-29.73229,12.81269
94.929568768,123.1557,-50.92666,83.68628,1.348155,0.4566773,0.2408661,-51.1101,-29.73229,12.81269
94.939428329,102.4089,-50.74813,79.1498600000001,1.274724,0.4387067,0.2935146,-51.1101,-29.73229,12.81269
94.951752186,74.7673600000001,-52.89045,76.2686200000001,1.167457,0.4264074,0.3811955,-53.7244,-23.80803,17.43951
94.961611271,51.78447,-53.54505,75.7781899999999,1.087725,0.3893561,0.4213136,-53.7244,-23.80803,17.43951
94.971470833,31.90738,-52.41438,76.0234000000002,1.029814,0.3523097,0.4112839,-53.7244,-23.80803,17.43951
94.981329918,12.21663,-52.23586,78.9046400000001,0.9895872,0.3116697,0.4393078,-53.7244,-23.80803,17.43951
94.991189003,-2.566953,-44.91626,79.8854899999997,1.006709,0.265793,0.3629631,-53.7244,-23.80803,17.43951
95.001049042,-17.72324,-40.15554,81.8471799999999,1.040769,0.2479795,0.3335754,-53.73135,-18.61299,20.33136
95.010908604,-20.7048,-34.32367,80.1307,1.061352,0.1639792,0.3340107,-53.73135,-18.61299,20.33136
95.020767689,-0.703476100000001,-23.49304,76.0847,1.09103,0.0154758,0.3706704,-53.73135,-18.61299,20.33136
95.030626774,30.35448,-9.50844099999999,73.5099799999999,1.05993,-0.0802996,0.3377198,-53.73135,-18.61299,20.33136
95.040486336,55.63566,-5.87839600000002,68.2379200000001,1.037688,0.02492763,0.1625795,-53.73135,-18.61299,20.33136
95.050345421,70.3571300000001,-9.03236999999999,64.5597399999998,1.097516,0.06854464,0.1036325,-54.10596,-15.63409,22.41558
95.060204983,79.6123999999998,-5.521342,66.2762200000002,1.131203,0.1931871,0.1722507,-54.10596,-15.63409,22.41558
95.070064068,81.4137600000001,-2.069824,62.8432599999999,1.135354,0.3838635,0.1421735,-54.10596,-15.63409,22.41558
95.079923153,74.7673600000001,0.1915152,62.4754400000002,1.124714,0.4582314,0.1448696,-54.10596,-15.63409,22.41558
95.089782715,58.67934,3.762051,65.3566800000001,1.085781,0.5123534,0.135818,-54.10596,-15.63409,22.41558
95.0996418,37.49781,9.11785500000002,64.0080100000003,1.080885,0.547326,0.1304326,-54.50658,-10.10132,22.80905
95.109500885,17.06167,14.47366,61.3106899999999,1.065995,0.5412762,0.1095089,-54.50658,-10.10132,22.80905
95.119360447,-0.827707900000002,18.52027,58.3681399999998,1.034834,0.4747773,0.09789108,-54.50658,-10.10132,22.80905
95.13168478,-18.09593,21.3767,55.30299,0.9766079,0.3845595,0.05387321,-54.50658,-10.10132,22.80905
95.141544342,-27.97236,20.7221,52.17654,0.9498728,0.3248061,0.01397641,-54.50658,-10.10132,22.80905
95.151403427,-33.81126,18.63928,48.68227,0.9234197,0.2578097,-0.01160954,-54.90165,-5.673886,23.14982
95.161262989,-34.80511,16.61598,44.82018,0.9067339,0.1987069,-0.0315177,-54.90165,-5.673886,23.14982
95.171122074,-32.44471,14.53317,40.28376,0.9021268,0.1621278,-0.04278233,-54.90165,-5.673886,23.14982
95.180981159,-28.03448,12.56937,35.68604,0.9103925,0.1388873,-0.03111628,-54.90165,-5.673886,23.14982
95.190840721,-23.00309,11.55772,31.08831,0.9354987,0.1303651,-0.02723324,-54.90165,-5.673886,23.14982
95.200699806,-18.53074,11.14116,27.22622,0.9493263,0.1324765,-0.01591171,-54.92457,-3.176029,21.84378
95.210559368,-15.30072,11.26018,23.60934,0.9670212,0.1390034,-0.004128832,-54.92457,-3.176029,21.84378
95.220418453,-13.06454,11.79576,20.6055,0.9778368,0.1415551,0.001968144,-54.92457,-3.176029,21.84378
95.230277538,-11.44953,12.27183,17.84686,0.9880145,0.1401543,-0.006335126,-54.92457,-3.176029,21.84378
95.240137577,-9.896631,12.50986,14.72041,1.001766,0.1393146,-0.003183811,-54.92457,-3.176029,21.84378
95.249996662,-7.72257499999999,12.15281,10.91962,1.01404,0.1524824,-0.02433239,-55.30507,-2.440763,21.45408
95.259856224,-4.803127,10.7246,6.81232100000002,1.023554,0.152004,-0.04459841,-55.30507,-2.440763,21.45408
95.269715309,-1.635215,8.701293,2.582414,1.035881,0.1529813,-0.07255942,-55.30507,-2.440763,21.45408
95.279574871,1.222117,5.428301,-2.260523,1.041504,0.162239,-0.08262461,-55.30507,-2.440763,21.45408
95.289433956,4.327913,0.727095499999998,-6.79694399999997,1.05562,0.16088,-0.08906686,-55.30507,-2.440763,21.45408
95.301757813,6.874665,-5.64036,-12.25291,1.103736,0.1716072,-0.06713973,-55.31908,-0.9797549,20.60682
95.311617374,7.185245,-9.56794999999997,-15.44067,1.18101,0.2147626,-0.03097852,-55.31908,-0.9797549,20.60682
95.32147646,3.893102,-11.82929,-17.95409,1.250891,0.2671132,0.00919927,-55.31908,-0.9797549,20.60682
95.331335545,-5.113706,-11.47224,-19.79318,1.284581,0.3210991,0.05182345,-55.31908,-0.9797549,20.60682
95.341195583,-18.28228,-8.31826200000003,-21.38706,1.287409,0.3538055,0.07266475,-55.31908,-0.9797549,20.60682
95.351055145,-33.31433,-5.10478,-24.02309,1.286462,0.3533178,0.07459093,-55.3103,-2.078852,21.00222
95.36091423,-47.16618,-2.962458,-27.63996,1.272506,0.3307992,0.0717246,-55.3103,-2.078852,21.00222
95.370773316,-58.47128,-2.486387,-30.88902,1.231969,0.3036059,0.05290489,-55.3103,-2.078852,21.00222
95.380632877,-68.4098200000002,-3.43853,-34.19938,1.213995,0.2810231,0.04242808,-55.3103,-2.078852,21.00222
